sender,sender_type,sender_id,timestamp,meta,,blockNo,condition,duration,ended_on,img_left,img_reveal,img_right,loser,practice,response,response_action,selection_duration,time_commit,time_end,time_render,time_run,time_show,time_switch,total_blocks,total_trials,trialNo,url,winner
informed_consent,html.Screen,0,2023-11-02T04:51:56.145Z,"{""labjs_version"":""20.2.4"",""labjs_build"":{""flavor"":""production"",""commit"":""f5b4a49f956347addd546a832a3327688c2c0fef""},""location"":""https://run.pavlovia.org/MurrayBennett/melanoma-2afc/?participant=67314&platform=sona"",""userAgent"":""Mozilla/5.0 (Macintosh; Intel Mac OS X 10_15_7) AppleWebKit/537.36 (KHTML, like Gecko) Chrome/118.0.0.0 Safari/537.36"",""platform"":""MacIntel"",""language"":""en-US"",""locale"":""en-US"",""timeZone"":""America/Chicago"",""timezoneOffset"":300,""screen_width"":1440,""screen_height"":900,""scroll_width"":1440,""scroll_height"":715,""window_innerWidth"":1440,""window_innerHeight"":763,""devicePixelRatio"":2}",,,,6271.717000071525,response,,,,,,consent,click button,,9250.700000047684,9142.800000071526,2721.089,2875.600000023842,2871.083,9371.737,,,,"{""participant"":""67314"",""platform"":""sona""}",
Welcome,html.Screen,1,2023-11-02T04:52:01.857Z,,,,symmetry,5588.162999976159,response,,,,,,continue,click button,,14963.100000023842,14959.899999976158,9038.417,9251.100000023842,9371.737,14971.513,,,,,
trial,html.Screen,2_0_0,2023-11-02T04:52:13.353Z,,0,0,,11517.224,timeout,ISIC_6997061.JPG,,ISIC_0069348.JPG,,true,,,500,26459.300000071526,26458,14954.847,14963.600000023842,14971.513,26488.737,1,6,1,,
sequence,flow.Sequence,2_0,2023-11-02T04:52:13.353Z,,0,,,11486.487,completion,,,,,true,,,,26459.899999976158,26458,14954.847,14963.5,14971.513,26488.737,1,6,,,
trial,html.Screen,2_1_0,2023-11-02T04:52:24.869Z,,0,0,,11517.063000000002,timeout,ISIC_0057368.JPG,,ISIC_0009529.JPG,,true,,,500,37976.300000071526,37975.60000002384,26472.071,26460.200000047684,26488.737,38005.8,1,6,2,,
sequence,flow.Sequence,2_1,2023-11-02T04:52:24.870Z,,0,,,11486.86300002384,completion,,,,,true,,,,37976.700000047684,37975.60000002384,26472.071,26460.100000023842,26488.737,38005.8,1,6,,,
trial,html.Screen,2_2_0,2023-11-02T04:52:36.122Z,,0,0,,11222.599999976155,response,ISIC_9758671.JPG,,ISIC_0064954.JPG,ISIC_0064954.JPG,true,0,keypress(z),500,49229.10000002384,49228.39999997616,37989.134,37977.10000002384,38005.8,49240.03,1,6,3,,ISIC_9758671.JPG
sequence,flow.Sequence,2_2,2023-11-02T04:52:36.122Z,,0,,,11222.599999976155,completion,,,,,true,,,,49229.60000002384,49228.39999997616,37989.134,37977,38005.8,49240.03,1,6,,,
trial,html.Screen,2_3_0,2023-11-02T04:52:40.272Z,,0,0,,4138.770000071527,response,ISIC_0000080.JPG,,ISIC_0005785.JPG,ISIC_0005785.JPG,true,0,keypress(z),500,53379.39999997616,53378.800000071526,49223.364,49229.800000071526,49240.03,53389.864,1,6,4,,ISIC_0000080.JPG
sequence,flow.Sequence,2_3,2023-11-02T04:52:40.272Z,,0,,,4138.770000071527,completion,,,,,true,,,,53379.89999997616,53378.800000071526,49223.364,49229.800000071526,49240.03,53389.864,1,6,,,
trial,html.Screen,2_4_0,2023-11-02T04:52:44.199Z,,0,0,,3916.0359999761567,response,ISIC_7944028.JPG,,ISIC_5390060.JPG,ISIC_5390060.JPG,true,0,keypress(z),500,57306.60000002384,57305.89999997616,53373.198,53380.200000047684,53389.864,57323.93,1,6,5,,ISIC_7944028.JPG
sequence,flow.Sequence,2_4,2023-11-02T04:52:44.199Z,,0,,,3916.0359999761567,completion,,,,,true,,,,57307,57305.89999997616,53373.198,53380,53389.864,57323.93,1,6,,,
trial,html.Screen,2_5_0,2023-11-02T04:52:46.893Z,,0,0,,2676.2700000476834,response,ISIC_0010188.JPG,,ISIC_0794216.JPG,ISIC_0010188.JPG,true,1,keypress(m),500,60000.800000071526,60000.200000047684,57307.264,57307.300000071526,57323.93,60007.156,1,6,6,,ISIC_0794216.JPG
sequence,flow.Sequence,2_5,2023-11-02T04:52:46.893Z,,0,,,2676.2700000476834,completion,,,,,true,,,,60001.200000047684,60000.200000047684,57307.264,57307.200000047684,57323.93,60007.156,1,6,,,
loop,flow.Loop,2,2023-11-02T04:52:46.894Z,,,,,45028.687000047685,completion,,,,,true,,,,60001.700000047684,60000.200000047684,14954.847,14963.399999976158,14971.513,60007.156,1,6,,,
exp_instructions,html.Screen,3,2023-11-02T04:52:55.924Z,,,,,9016.144000071523,response,,,,,,continue,keypress(Space),,69032,69023.30000007153,59990.49,60001.800000071526,60007.156,69040.128,,,,,
trial,html.Screen,4_0_0,2023-11-02T04:52:58.812Z,,0,1,,2879.972000023845,response,ISIC_0072730.JPG,8,ISIC_0011801.JPG,ISIC_0072730.JPG,false,1,keypress(m),500,71920.5,71920.10000002384,69023.462,69032.39999997616,69040.128,71924.003,8,400,1,,ISIC_0011801.JPG
break,html.Screen,4_0_1,2023-11-02T04:52:58.814Z,,0,,,NaN,,,,,,false,,,,71922,71921.70000004768,,71920.80000007153,,71924.003,8,400,,,
break_continue,html.Screen,4_0_2,2023-11-02T04:52:58.814Z,,0,,,NaN,,,,,,false,,,,71922.5,71922.30000007153,,71922.20000004768,,71924.003,8,400,,,
sequence,flow.Sequence,4_0,2023-11-02T04:52:58.814Z,,0,,,2882.1720000715286,completion,,,,,false,,,,71922.70000004768,71922.30000007153,69023.462,69032.30000007153,69040.128,71924.003,8,400,,,
trial,html.Screen,4_1_0,2023-11-02T04:53:02.516Z,,0,1,,3699.896999976161,response,ISIC_0010415.JPG,8,ISIC_8139762.JPG,ISIC_0010415.JPG,false,1,keypress(m),500,75624.30000007153,75623.89999997616,71907.337,71922.89999997616,71924.003,75640.521,8,400,2,,ISIC_8139762.JPG
break,html.Screen,4_1_1,2023-11-02T04:53:02.517Z,,0,,,NaN,,,,,,false,,,,75625.30000007153,75625.10000002384,,75624.60000002384,,75640.521,8,400,,,
break_continue,html.Screen,4_1_2,2023-11-02T04:53:02.517Z,,0,,,NaN,,,,,,false,,,,75625.5,75625.39999997616,,75625.30000007153,,75640.521,8,400,,,
sequence,flow.Sequence,4_1,2023-11-02T04:53:02.517Z,,0,,,3701.396999976161,completion,,,,,false,,,,75625.5,75625.39999997616,71907.337,71922.80000007153,71924.003,75640.521,8,400,,,
trial,html.Screen,4_2_0,2023-11-02T04:53:05.769Z,,0,1,,3236.279000071532,response,ISIC_7966295.JPG,9,ISIC_0063046.JPG,ISIC_7966295.JPG,false,1,keypress(m),500,78877.20000004768,78876.80000007153,75623.855,75625.70000004768,75640.521,78890.391,8,400,3,,ISIC_0063046.JPG
break,html.Screen,4_2_1,2023-11-02T04:53:05.770Z,,0,,,NaN,,,,,,false,,,,78878.30000007153,78878.10000002384,,78877.5,,78890.391,8,400,,,
break_continue,html.Screen,4_2_2,2023-11-02T04:53:05.770Z,,0,,,NaN,,,,,,false,,,,78878.70000004768,78878.60000002384,,78878.5,,78890.391,8,400,,,
sequence,flow.Sequence,4_2,2023-11-02T04:53:05.770Z,,0,,,3238.0790000238485,completion,,,,,false,,,,78879,78878.60000002384,75623.855,75625.60000002384,75640.521,78890.391,8,400,,,
trial,html.Screen,4_3_0,2023-11-02T04:53:09.039Z,,0,1,,3257.1089999999967,response,ISIC_9559922.JPG,8,ISIC_0029470.JPG,ISIC_0029470.JPG,false,0,keypress(z),500,82148.10000002384,82147.5,78873.725,78879.10000002384,78890.391,82158.654,8,400,4,,ISIC_9559922.JPG
break,html.Screen,4_3_1,2023-11-02T04:53:09.040Z,,0,,,NaN,,,,,,false,,,,82149.30000007153,82149.10000002384,,82148.39999997616,,82158.654,8,400,,,
break_continue,html.Screen,4_3_2,2023-11-02T04:53:09.041Z,,0,,,NaN,,,,,,false,,,,82149.80000007153,82149.70000004768,,82149.5,,82158.654,8,400,,,
sequence,flow.Sequence,4_3,2023-11-02T04:53:09.041Z,,0,,,3259.3090000476805,completion,,,,,false,,,,82150,82149.70000004768,78873.725,78879.10000002384,78890.391,82158.654,8,400,,,
trial,html.Screen,4_4_0,2023-11-02T04:53:11.958Z,,0,1,,2907.846000000005,response,ISIC_9965754.JPG,8,ISIC_1048077.JPG,ISIC_1048077.JPG,false,0,keypress(z),500,85066.89999997616,85066.5,82141.988,82150.20000004768,82158.654,85075.204,8,400,5,,ISIC_9965754.JPG
break,html.Screen,4_4_1,2023-11-02T04:53:11.959Z,,0,,,NaN,,,,,,false,,,,85068.10000002384,85067.89999997616,,85067.20000004768,,85075.204,8,400,,,
break_continue,html.Screen,4_4_2,2023-11-02T04:53:11.960Z,,0,,,NaN,,,,,,false,,,,85068.5,85068.39999997616,,85068.30000007153,,85075.204,8,400,,,
sequence,flow.Sequence,4_4,2023-11-02T04:53:11.960Z,,0,,,2909.745999976163,completion,,,,,false,,,,85068.70000004768,85068.39999997616,82141.988,82150.20000004768,82158.654,85075.204,8,400,,,
trial,html.Screen,4_5_0,2023-11-02T04:53:15.006Z,,0,1,,3039.396000023844,response,ISIC_3633306.JPG,8,ISIC_8295152.JPG,ISIC_3633306.JPG,false,1,keypress(m),500,88115.20000004768,88114.60000002384,85058.538,85069,85075.204,88125.082,8,400,6,,ISIC_8295152.JPG
break,html.Screen,4_5_1,2023-11-02T04:53:15.007Z,,0,,,NaN,,,,,,false,,,,88116.39999997616,88116.10000002384,,88115.39999997616,,88125.082,8,400,,,
break_continue,html.Screen,4_5_2,2023-11-02T04:53:15.008Z,,0,,,NaN,,,,,,false,,,,88116.70000004768,88116.5,,88116.5,,88125.082,8,400,,,
sequence,flow.Sequence,4_5,2023-11-02T04:53:15.008Z,,0,,,3041.296000000002,completion,,,,,false,,,,88116.89999997616,88116.5,85058.538,85068.89999997616,85075.204,88125.082,8,400,,,
trial,html.Screen,4_6_0,2023-11-02T04:53:18.005Z,,0,1,,2988.518000023847,response,ISIC_8692950.JPG,8,ISIC_0011504.JPG,ISIC_8692950.JPG,false,1,keypress(m),500,91114.10000002384,91113.60000002384,88108.416,88117,88125.082,91125.899,8,400,7,,ISIC_0011504.JPG
break,html.Screen,4_6_1,2023-11-02T04:53:18.006Z,,0,,,NaN,,,,,,false,,,,91115.20000004768,91115,,91114.39999997616,,91125.899,8,400,,,
break_continue,html.Screen,4_6_2,2023-11-02T04:53:18.006Z,,0,,,NaN,,,,,,false,,,,91115.70000004768,91115.60000002384,,91115.39999997616,,91125.899,8,400,,,
sequence,flow.Sequence,4_6,2023-11-02T04:53:18.007Z,,0,,,2990.518000023847,completion,,,,,false,,,,91116,91115.60000002384,88108.416,88117,88125.082,91125.899,8,400,,,
trial,html.Screen,4_7_0,2023-11-02T04:53:20.701Z,,0,1,,2683.801000047679,response,ISIC_0063053.JPG,4,ISIC_0011802.JPG,ISIC_0063053.JPG,false,1,keypress(m),500,93810.10000002384,93809.70000004768,91109.233,91116.10000002384,91125.899,93825.791,8,400,8,,ISIC_0011802.JPG
break,html.Screen,4_7_1,2023-11-02T04:53:20.702Z,,0,,,NaN,,,,,,false,,,,93811.30000007153,93811.10000002384,,93810.5,,93825.791,8,400,,,
break_continue,html.Screen,4_7_2,2023-11-02T04:53:20.702Z,,0,,,NaN,,,,,,false,,,,93811.70000004768,93811.5,,93811.39999997616,,93825.791,8,400,,,
sequence,flow.Sequence,4_7,2023-11-02T04:53:20.702Z,,0,,,2685.600999999995,completion,,,,,false,,,,93811.80000007153,93811.5,91109.233,91116.10000002384,91125.899,93825.791,8,400,,,
trial,html.Screen,4_8_0,2023-11-02T04:53:24.694Z,,0,1,,3977.6089999761607,response,ISIC_0031711.JPG,8,ISIC_0054941.JPG,ISIC_0031711.JPG,false,1,keypress(m),500,97803.89999997616,97803.39999997616,93809.125,93812,93825.791,97808.965,8,400,9,,ISIC_0054941.JPG
break,html.Screen,4_8_1,2023-11-02T04:53:24.696Z,,0,,,NaN,,,,,,false,,,,97805.20000004768,97804.89999997616,,97804.20000004768,,97808.965,8,400,,,
break_continue,html.Screen,4_8_2,2023-11-02T04:53:24.696Z,,0,,,NaN,,,,,,false,,,,97805.5,97805.39999997616,,97805.30000007153,,97808.965,8,400,,,
sequence,flow.Sequence,4_8,2023-11-02T04:53:24.696Z,,0,,,3979.6089999761607,completion,,,,,false,,,,97805.70000004768,97805.39999997616,93809.125,93811.89999997616,93825.791,97808.965,8,400,,,
trial,html.Screen,4_9_0,2023-11-02T04:53:27.839Z,,0,1,,3139.4349999761616,response,ISIC_0062639.JPG,9,ISIC_0064863.JPG,ISIC_0064863.JPG,false,0,keypress(z),500,100948.80000007153,100948.39999997616,97792.299,97805.80000007153,97808.965,100959.724,8,400,10,,ISIC_0062639.JPG
break,html.Screen,4_9_1,2023-11-02T04:53:27.840Z,,0,,,NaN,,,,,,false,,,,100949.89999997616,100949.70000004768,,100949.10000002384,,100959.724,8,400,,,
break_continue,html.Screen,4_9_2,2023-11-02T04:53:27.841Z,,0,,,NaN,,,,,,false,,,,100950.30000007153,100950.20000004768,,100950,,100959.724,8,400,,,
sequence,flow.Sequence,4_9,2023-11-02T04:53:27.841Z,,0,,,3141.235000047687,completion,,,,,false,,,,100950.39999997616,100950.20000004768,97792.299,97805.80000007153,97808.965,100959.724,8,400,,,
trial,html.Screen,4_10_0,2023-11-02T04:53:31.382Z,,0,1,,3531.5760000715236,response,ISIC_0032171.JPG,8,ISIC_0061509.JPG,ISIC_0032171.JPG,false,1,keypress(m),500,104491.80000007153,104491.30000007153,100943.058,100950.70000004768,100959.724,104492.916,8,400,11,,ISIC_0061509.JPG
break,html.Screen,4_10_1,2023-11-02T04:53:31.383Z,,0,,,NaN,,,,,,false,,,,104492.89999997616,104492.80000007153,,104492.20000004768,,104492.916,8,400,,,
break_continue,html.Screen,4_10_2,2023-11-02T04:53:31.384Z,,0,,,NaN,,,,,,false,,,,104493.39999997616,104493.20000004768,,104493.10000002384,,104492.916,8,400,,,
sequence,flow.Sequence,4_10,2023-11-02T04:53:31.384Z,,0,,,3533.4760000476817,completion,,,,,false,,,,104493.60000002384,104493.20000004768,100943.058,100950.60000002384,100959.724,104492.916,8,400,,,
trial,html.Screen,4_11_0,2023-11-02T04:53:34.189Z,,0,1,,2805.4839999761607,response,ISIC_0011500.JPG,7,ISIC_1017377.JPG,ISIC_0011500.JPG,false,1,keypress(m),500,107298.80000007153,107298.39999997616,104476.25,104493.70000004768,104492.916,107309.47,8,400,12,,ISIC_1017377.JPG
break,html.Screen,4_11_1,2023-11-02T04:53:34.190Z,,0,,,NaN,,,,,,false,,,,107300,107299.80000007153,,107299.10000002384,,107309.47,8,400,,,
break_continue,html.Screen,4_11_2,2023-11-02T04:53:34.190Z,,0,,,NaN,,,,,,false,,,,107300.30000007153,107300.20000004768,,107300.10000002384,,107309.47,8,400,,,
sequence,flow.Sequence,4_11,2023-11-02T04:53:34.191Z,,0,,,2807.2840000476863,completion,,,,,false,,,,107300.5,107300.20000004768,104476.25,104493.70000004768,104492.916,107309.47,8,400,,,
trial,html.Screen,4_12_0,2023-11-02T04:53:37.076Z,,0,1,,2876.3300000715244,response,ISIC_0944273.JPG,8,ISIC_8863344.JPG,ISIC_0944273.JPG,false,1,keypress(m),500,110186.30000007153,110185.80000007153,107292.804,107300.60000002384,107309.47,110193.681,8,400,13,,ISIC_8863344.JPG
break,html.Screen,4_12_1,2023-11-02T04:53:37.077Z,,0,,,NaN,,,,,,false,,,,110187.5,110187.30000007153,,110186.60000002384,,110193.681,8,400,,,
break_continue,html.Screen,4_12_2,2023-11-02T04:53:37.078Z,,0,,,NaN,,,,,,false,,,,110187.89999997616,110187.80000007153,,110187.60000002384,,110193.681,8,400,,,
sequence,flow.Sequence,4_12,2023-11-02T04:53:37.078Z,,0,,,2878.3300000715244,completion,,,,,false,,,,110188,110187.80000007153,107292.804,107300.60000002384,107309.47,110193.681,8,400,,,
trial,html.Screen,4_13_0,2023-11-02T04:53:40.064Z,,0,1,,2979.7189999761613,response,ISIC_6577632.JPG,6,ISIC_4322723.JPG,ISIC_4322723.JPG,false,0,keypress(z),500,113173.80000007153,113173.39999997616,110177.015,110188.20000004768,110193.681,113176.895,8,400,14,,ISIC_6577632.JPG
break,html.Screen,4_13_1,2023-11-02T04:53:40.065Z,,0,,,NaN,,,,,,false,,,,113174.89999997616,113174.80000007153,,113174.10000002384,,113176.895,8,400,,,
break_continue,html.Screen,4_13_2,2023-11-02T04:53:40.065Z,,0,,,NaN,,,,,,false,,,,113175.30000007153,113175.20000004768,,113175,,113176.895,8,400,,,
sequence,flow.Sequence,4_13,2023-11-02T04:53:40.065Z,,0,,,2981.519000047687,completion,,,,,false,,,,113175.39999997616,113175.20000004768,110177.015,110188.20000004768,110193.681,113176.895,8,400,,,
trial,html.Screen,4_14_0,2023-11-02T04:53:42.728Z,,0,1,,2660.604999999996,response,ISIC_0448485.JPG,9,ISIC_0033068.JPG,ISIC_0033068.JPG,false,0,keypress(z),500,115838,115837.5,113160.229,113175.60000002384,113176.895,115843.455,8,400,15,,ISIC_0448485.JPG
break,html.Screen,4_14_1,2023-11-02T04:53:42.729Z,,0,,,NaN,,,,,,false,,,,115839.10000002384,115839,,115838.30000007153,,115843.455,8,400,,,
break_continue,html.Screen,4_14_2,2023-11-02T04:53:42.729Z,,0,,,NaN,,,,,,false,,,,115839.5,115839.39999997616,,115839.30000007153,,115843.455,8,400,,,
sequence,flow.Sequence,4_14,2023-11-02T04:53:42.729Z,,0,,,2662.504999976154,completion,,,,,false,,,,115839.70000004768,115839.39999997616,113160.229,113175.60000002384,113176.895,115843.455,8,400,,,
trial,html.Screen,4_15_0,2023-11-02T04:53:45.277Z,,0,1,,2543.345000071524,response,ISIC_4887874.JPG,7,ISIC_0008945.JPG,ISIC_4887874.JPG,false,1,keypress(m),500,118387.39999997616,118386.80000007153,115826.789,115839.80000007153,115843.455,118393.353,8,400,16,,ISIC_0008945.JPG
break,html.Screen,4_15_1,2023-11-02T04:53:45.278Z,,0,,,NaN,,,,,,false,,,,118388.5,118388.30000007153,,118387.60000002384,,118393.353,8,400,,,
break_continue,html.Screen,4_15_2,2023-11-02T04:53:45.279Z,,0,,,NaN,,,,,,false,,,,118388.89999997616,118388.70000004768,,118388.70000004768,,118393.353,8,400,,,
sequence,flow.Sequence,4_15,2023-11-02T04:53:45.279Z,,0,,,2545.245000047682,completion,,,,,false,,,,118389,118388.70000004768,115826.789,115839.80000007153,115843.455,118393.353,8,400,,,
trial,html.Screen,4_16_0,2023-11-02T04:53:47.924Z,,0,1,,2640.146999999997,response,ISIC_1554992.JPG,7,ISIC_0011366.JPG,ISIC_0011366.JPG,false,0,keypress(z),500,121034.10000002384,121033.5,118376.687,118389.20000004768,118393.353,121044.179,8,400,17,,ISIC_1554992.JPG
break,html.Screen,4_16_1,2023-11-02T04:53:47.925Z,,0,,,NaN,,,,,,false,,,,121035.30000007153,121035,,121034.39999997616,,121044.179,8,400,,,
break_continue,html.Screen,4_16_2,2023-11-02T04:53:47.925Z,,0,,,NaN,,,,,,false,,,,121035.60000002384,121035.5,,121035.39999997616,,121044.179,8,400,,,
sequence,flow.Sequence,4_16,2023-11-02T04:53:47.925Z,,0,,,2642.146999999997,completion,,,,,false,,,,121035.80000007153,121035.5,118376.687,118389.20000004768,118393.353,121044.179,8,400,,,
trial,html.Screen,4_17_0,2023-11-02T04:53:50.571Z,,0,1,,2636.921000023838,response,ISIC_8663971.JPG,9,ISIC_0072030.JPG,ISIC_0072030.JPG,false,0,keypress(z),500,123681.5,123681.10000002384,121027.513,121036,121044.179,123694.073,8,400,18,,ISIC_8663971.JPG
break,html.Screen,4_17_1,2023-11-02T04:53:50.572Z,,0,,,NaN,,,,,,false,,,,123682.60000002384,123682.5,,123681.80000007153,,123694.073,8,400,,,
break_continue,html.Screen,4_17_2,2023-11-02T04:53:50.572Z,,0,,,NaN,,,,,,false,,,,123683,123682.89999997616,,123682.80000007153,,123694.073,8,400,,,
sequence,flow.Sequence,4_17,2023-11-02T04:53:50.573Z,,0,,,2638.7209999761544,completion,,,,,false,,,,123683.20000004768,123682.89999997616,121027.513,121036,121044.179,123694.073,8,400,,,
trial,html.Screen,4_18_0,2023-11-02T04:53:53.234Z,,0,1,,2650.027000023838,response,ISIC_0001140.JPG,8,ISIC_0031829.JPG,ISIC_0031829.JPG,false,0,keypress(z),500,126344.5,126344.10000002384,123677.407,123683.39999997616,123694.073,126360.633,8,400,19,,ISIC_0001140.JPG
break,html.Screen,4_18_1,2023-11-02T04:53:53.235Z,,0,,,NaN,,,,,,false,,,,126345.39999997616,126345.20000004768,,126344.70000004768,,126360.633,8,400,,,
break_continue,html.Screen,4_18_2,2023-11-02T04:53:53.235Z,,0,,,NaN,,,,,,false,,,,126345.60000002384,126345.5,,126345.39999997616,,126360.633,8,400,,,
sequence,flow.Sequence,4_18,2023-11-02T04:53:53.235Z,,0,,,2651.426999999996,completion,,,,,false,,,,126345.70000004768,126345.5,123677.407,123683.30000007153,123694.073,126360.633,8,400,,,
trial,html.Screen,4_19_0,2023-11-02T04:53:55.847Z,,0,1,,2596.7669999761565,response,ISIC_4836699.JPG,5,ISIC_8838753.JPG,ISIC_4836699.JPG,false,1,keypress(m),500,128957.89999997616,128957.39999997616,126343.967,126345.80000007153,126360.633,128960.529,8,400,20,,ISIC_8838753.JPG
break,html.Screen,4_19_1,2023-11-02T04:53:55.848Z,,0,,,NaN,,,,,,false,,,,128959,128958.80000007153,,128958.10000002384,,128960.529,8,400,,,
break_continue,html.Screen,4_19_2,2023-11-02T04:53:55.849Z,,0,,,NaN,,,,,,false,,,,128959.39999997616,128959.30000007153,,128959.10000002384,,128960.529,8,400,,,
sequence,flow.Sequence,4_19,2023-11-02T04:53:55.849Z,,0,,,2598.667000071524,completion,,,,,false,,,,128959.5,128959.30000007153,126343.967,126345.80000007153,126360.633,128960.529,8,400,,,
trial,html.Screen,4_20_0,2023-11-02T04:53:58.818Z,,0,1,,2968.2710000715306,response,ISIC_0067621.JPG,8,ISIC_9803747.JPG,ISIC_9803747.JPG,false,0,keypress(z),500,131929.30000007153,131928.80000007153,128943.863,128959.80000007153,128960.529,131944.57,8,400,21,,ISIC_0067621.JPG
break,html.Screen,4_20_1,2023-11-02T04:53:58.820Z,,0,,,NaN,,,,,,false,,,,131930.5,131930.30000007153,,131929.60000002384,,131944.57,8,400,,,
break_continue,html.Screen,4_20_2,2023-11-02T04:53:58.820Z,,0,,,NaN,,,,,,false,,,,131930.80000007153,131930.80000007153,,131930.70000004768,,131944.57,8,400,,,
sequence,flow.Sequence,4_20,2023-11-02T04:53:58.820Z,,0,,,2970.2710000715306,completion,,,,,false,,,,131931,131930.80000007153,128943.863,128959.70000004768,128960.529,131944.57,8,400,,,
trial,html.Screen,4_21_0,2023-11-02T04:54:01.479Z,,0,1,,2644.530000023835,response,ISIC_0032965.JPG,8,ISIC_0029089.JPG,ISIC_0029089.JPG,false,0,keypress(z),500,134589.70000004768,134589.10000002384,131927.904,131931.10000002384,131944.57,134594.464,8,400,22,,ISIC_0032965.JPG
break,html.Screen,4_21_1,2023-11-02T04:54:01.480Z,,0,,,NaN,,,,,,false,,,,134590.80000007153,134590.60000002384,,134590,,134594.464,8,400,,,
break_continue,html.Screen,4_21_2,2023-11-02T04:54:01.480Z,,0,,,NaN,,,,,,false,,,,134591.20000004768,134591.10000002384,,134591,,134594.464,8,400,,,
sequence,flow.Sequence,4_21,2023-11-02T04:54:01.480Z,,0,,,2646.530000023835,completion,,,,,false,,,,134591.5,134591.10000002384,131927.904,131931.10000002384,131944.57,134594.464,8,400,,,
trial,html.Screen,4_22_0,2023-11-02T04:54:04.078Z,,0,1,,2594.7360000476765,response,ISIC_4692454.JPG,7,ISIC_0011922.JPG,ISIC_0011922.JPG,false,0,keypress(z),500,137189.60000002384,137189.20000004768,134577.798,134591.60000002384,134594.464,137194.36,8,400,23,,ISIC_4692454.JPG
break,html.Screen,4_22_1,2023-11-02T04:54:04.080Z,,0,,,NaN,,,,,,false,,,,137190.80000007153,137190.60000002384,,137189.89999997616,,137194.36,8,400,,,
break_continue,html.Screen,4_22_2,2023-11-02T04:54:04.080Z,,0,,,NaN,,,,,,false,,,,137191.10000002384,137191,,137190.89999997616,,137194.36,8,400,,,
sequence,flow.Sequence,4_22,2023-11-02T04:54:04.080Z,,0,,,2596.535999999993,completion,,,,,false,,,,137191.30000007153,137191,134577.798,134591.60000002384,134594.464,137194.36,8,400,,,
trial,html.Screen,4_23_0,2023-11-02T04:54:06.805Z,,0,1,,2721.640000000014,response,ISIC_0046526.JPG,7,ISIC_8849818.JPG,ISIC_0046526.JPG,false,1,keypress(m),500,139916.5,139916,137177.694,137191.39999997616,137194.36,139927.584,8,400,24,,ISIC_8849818.JPG
break,html.Screen,4_23_1,2023-11-02T04:54:06.806Z,,0,,,NaN,,,,,,false,,,,139917.60000002384,139917.39999997616,,139916.80000007153,,139927.584,8,400,,,
break_continue,html.Screen,4_23_2,2023-11-02T04:54:06.807Z,,0,,,NaN,,,,,,false,,,,139918,139917.89999997616,,139917.70000004768,,139927.584,8,400,,,
sequence,flow.Sequence,4_23,2023-11-02T04:54:06.807Z,,0,,,2723.539999976172,completion,,,,,false,,,,139918.10000002384,139917.89999997616,137177.694,137191.30000007153,137194.36,139927.584,8,400,,,
trial,html.Screen,4_24_0,2023-11-02T04:54:09.484Z,,0,1,,2667.216000071523,response,ISIC_0031972.JPG,8,ISIC_1069587.JPG,ISIC_0031972.JPG,false,1,keypress(m),500,142595.30000007153,142594.80000007153,139910.918,139918.30000007153,139927.584,142611.808,8,400,25,,ISIC_1069587.JPG
break,html.Screen,4_24_1,2023-11-02T04:54:09.485Z,,0,,,NaN,,,,,,false,,,,142596.39999997616,142596.20000004768,,142595.60000002384,,142611.808,8,400,,,
break_continue,html.Screen,4_24_2,2023-11-02T04:54:09.485Z,,0,,,NaN,,,,,,false,,,,142596.80000007153,142596.60000002384,,142596.5,,142611.808,8,400,,,
sequence,flow.Sequence,4_24,2023-11-02T04:54:09.486Z,,0,,,2669.0160000238393,completion,,,,,false,,,,142596.89999997616,142596.60000002384,139910.918,139918.20000004768,139927.584,142611.808,8,400,,,
trial,html.Screen,4_25_0,2023-11-02T04:54:12.036Z,,0,1,,2535.591999976168,response,ISIC_0056440.JPG,9,ISIC_6774326.JPG,ISIC_6774326.JPG,false,0,keypress(z),500,145147.80000007153,145147.39999997616,142595.142,142597.10000002384,142611.808,145161.706,8,400,26,,ISIC_0056440.JPG
break,html.Screen,4_25_1,2023-11-02T04:54:12.038Z,,0,,,NaN,,,,,,false,,,,145149,145148.80000007153,,145148.10000002384,,145161.706,8,400,,,
break_continue,html.Screen,4_25_2,2023-11-02T04:54:12.038Z,,0,,,NaN,,,,,,false,,,,145149.39999997616,145149.30000007153,,145149.10000002384,,145161.706,8,400,,,
sequence,flow.Sequence,4_25,2023-11-02T04:54:12.038Z,,0,,,2537.4920000715356,completion,,,,,false,,,,145149.60000002384,145149.30000007153,142595.142,142597,142611.808,145161.706,8,400,,,
trial,html.Screen,4_26_0,2023-11-02T04:54:14.639Z,,0,1,,2588.6939999761526,response,ISIC_6870208.JPG,7,ISIC_0056444.JPG,ISIC_0056444.JPG,false,0,keypress(z),500,147750.70000004768,147750.39999997616,145145.04,145149.80000007153,145161.706,147761.602,8,400,27,,ISIC_6870208.JPG
break,html.Screen,4_26_1,2023-11-02T04:54:14.640Z,,0,,,NaN,,,,,,false,,,,147751.5,147751.30000007153,,147751,,147761.602,8,400,,,
break_continue,html.Screen,4_26_2,2023-11-02T04:54:14.640Z,,0,,,NaN,,,,,,false,,,,147751.70000004768,147751.70000004768,,147751.60000002384,,147761.602,8,400,,,
sequence,flow.Sequence,4_26,2023-11-02T04:54:14.640Z,,0,,,2589.994000047678,completion,,,,,false,,,,147751.80000007153,147751.70000004768,145145.04,145149.70000004768,145161.706,147761.602,8,400,,,
trial,html.Screen,4_27_0,2023-11-02T04:54:17.333Z,,0,1,,2683.09800004767,response,ISIC_0028930.JPG,6,ISIC_0065727.JPG,ISIC_0065727.JPG,false,0,keypress(z),500,150445.10000002384,150444.70000004768,147744.936,147752,147761.602,150461.494,8,400,28,,ISIC_0028930.JPG
break,html.Screen,4_27_1,2023-11-02T04:54:17.335Z,,0,,,NaN,,,,,,false,,,,150446.30000007153,150446.10000002384,,150445.39999997616,,150461.494,8,400,,,
break_continue,html.Screen,4_27_2,2023-11-02T04:54:17.335Z,,0,,,NaN,,,,,,false,,,,150446.60000002384,150446.5,,150446.39999997616,,150461.494,8,400,,,
sequence,flow.Sequence,4_27,2023-11-02T04:54:17.335Z,,0,,,2684.8979999999865,completion,,,,,false,,,,150446.80000007153,150446.5,147744.936,147751.89999997616,147761.602,150461.494,8,400,,,
trial,html.Screen,4_28_0,2023-11-02T04:54:20.045Z,,0,1,,2694.505999999994,response,ISIC_1805921.JPG,8,ISIC_0011498.JPG,ISIC_0011498.JPG,false,0,keypress(z),500,153156.5,153156,150444.828,150446.89999997616,150461.494,153162.346,8,400,29,,ISIC_1805921.JPG
break,html.Screen,4_28_1,2023-11-02T04:54:20.046Z,,0,,,NaN,,,,,,false,,,,153157.60000002384,153157.39999997616,,153156.70000004768,,153162.346,8,400,,,
break_continue,html.Screen,4_28_2,2023-11-02T04:54:20.046Z,,0,,,NaN,,,,,,false,,,,153158,153157.80000007153,,153157.80000007153,,153162.346,8,400,,,
sequence,flow.Sequence,4_28,2023-11-02T04:54:20.046Z,,0,,,2696.3060000715195,completion,,,,,false,,,,153158.20000004768,153157.80000007153,150444.828,150446.89999997616,150461.494,153162.346,8,400,,,
trial,html.Screen,4_29_0,2023-11-02T04:54:22.583Z,,0,1,,2531.954000071535,response,ISIC_0033807.JPG,9,ISIC_8702237.JPG,ISIC_8702237.JPG,false,0,keypress(z),500,155694.80000007153,155694.30000007153,153145.68,153158.30000007153,153162.346,155712.244,8,400,30,,ISIC_0033807.JPG
break,html.Screen,4_29_1,2023-11-02T04:54:22.584Z,,0,,,NaN,,,,,,false,,,,155695.89999997616,155695.70000004768,,155695,,155712.244,8,400,,,
break_continue,html.Screen,4_29_2,2023-11-02T04:54:22.584Z,,0,,,NaN,,,,,,false,,,,155696.30000007153,155696.10000002384,,155696,,155712.244,8,400,,,
sequence,flow.Sequence,4_29,2023-11-02T04:54:22.584Z,,0,,,2533.7540000238514,completion,,,,,false,,,,155696.39999997616,155696.10000002384,153145.68,153158.30000007153,153162.346,155712.244,8,400,,,
trial,html.Screen,4_30_0,2023-11-02T04:54:25.104Z,,0,1,,2503.755999999994,response,ISIC_8969855.JPG,8,ISIC_5099569.JPG,ISIC_5099569.JPG,false,0,keypress(z),500,158216.5,158216,155695.578,155696.60000002384,155712.244,158228.81,8,400,31,,ISIC_8969855.JPG
break,html.Screen,4_30_1,2023-11-02T04:54:25.106Z,,0,,,NaN,,,,,,false,,,,158217.70000004768,158217.5,,158216.70000004768,,158228.81,8,400,,,
break_continue,html.Screen,4_30_2,2023-11-02T04:54:25.106Z,,0,,,NaN,,,,,,false,,,,158218,158217.89999997616,,158217.70000004768,,158228.81,8,400,,,
sequence,flow.Sequence,4_30,2023-11-02T04:54:25.106Z,,0,,,2505.655999976152,completion,,,,,false,,,,158218.20000004768,158217.89999997616,155695.578,155696.5,155712.244,158228.81,8,400,,,
trial,html.Screen,4_31_0,2023-11-02T04:54:27.562Z,,0,1,,2444.6900000000023,response,ISIC_0011793.JPG,8,ISIC_8838753.JPG,ISIC_8838753.JPG,false,0,keypress(z),500,160673.89999997616,160673.5,158212.144,158218.30000007153,158228.81,160678.712,8,400,32,,ISIC_0011793.JPG
break,html.Screen,4_31_1,2023-11-02T04:54:27.563Z,,0,,,NaN,,,,,,false,,,,160675.10000002384,160675,,160674.20000004768,,160678.712,8,400,,,
break_continue,html.Screen,4_31_2,2023-11-02T04:54:27.563Z,,0,,,NaN,,,,,,false,,,,160675.60000002384,160675.39999997616,,160675.30000007153,,160678.712,8,400,,,
sequence,flow.Sequence,4_31,2023-11-02T04:54:27.564Z,,0,,,2446.5899999761605,completion,,,,,false,,,,160675.70000004768,160675.39999997616,158212.144,158218.30000007153,158228.81,160678.712,8,400,,,
trial,html.Screen,4_32_0,2023-11-02T04:54:30.510Z,,0,1,,2943.588000071526,response,ISIC_0057949.JPG,8,ISIC_0006331.JPG,ISIC_0057949.JPG,false,1,keypress(m),500,163622.70000004768,163622.30000007153,160662.046,160675.89999997616,160678.712,163629.479,8,400,33,,ISIC_0006331.JPG
break,html.Screen,4_32_1,2023-11-02T04:54:30.512Z,,0,,,NaN,,,,,,false,,,,163623.80000007153,163623.70000004768,,163623,,163629.479,8,400,,,
break_continue,html.Screen,4_32_2,2023-11-02T04:54:30.512Z,,0,,,NaN,,,,,,false,,,,163624.20000004768,163624.10000002384,,163624,,163629.479,8,400,,,
sequence,flow.Sequence,4_32,2023-11-02T04:54:30.512Z,,0,,,2945.3880000238423,completion,,,,,false,,,,163624.39999997616,163624.10000002384,160662.046,160675.89999997616,160678.712,163629.479,8,400,,,
trial,html.Screen,4_33_0,2023-11-02T04:54:33.545Z,,0,1,,3027.2210000476916,response,ISIC_0062471.JPG,8,ISIC_5909451.JPG,ISIC_0062471.JPG,false,1,keypress(m),500,166657.20000004768,166656.70000004768,163612.813,163624.60000002384,163629.479,166662.691,8,400,34,,ISIC_5909451.JPG
break,html.Screen,4_33_1,2023-11-02T04:54:33.546Z,,0,,,NaN,,,,,,false,,,,166658.39999997616,166658.20000004768,,166657.5,,166662.691,8,400,,,
break_continue,html.Screen,4_33_2,2023-11-02T04:54:33.546Z,,0,,,NaN,,,,,,false,,,,166658.80000007153,166658.60000002384,,166658.5,,166662.691,8,400,,,
sequence,flow.Sequence,4_33,2023-11-02T04:54:33.547Z,,0,,,3029.12100002385,completion,,,,,false,,,,166658.89999997616,166658.60000002384,163612.813,163624.39999997616,163629.479,166662.691,8,400,,,
trial,html.Screen,4_34_0,2023-11-02T04:54:36.753Z,,0,1,,3202.4090000238502,response,ISIC_3006279.JPG,5,ISIC_4748605.JPG,ISIC_3006279.JPG,false,1,keypress(m),500,169865.5,169865.10000002384,166646.025,166659.20000004768,166662.691,169879.229,8,400,35,,ISIC_4748605.JPG
break,html.Screen,4_34_1,2023-11-02T04:54:36.754Z,,0,,,NaN,,,,,,false,,,,169866.70000004768,169866.5,,169865.89999997616,,169879.229,8,400,,,
break_continue,html.Screen,4_34_2,2023-11-02T04:54:36.755Z,,0,,,NaN,,,,,,false,,,,169867,169866.89999997616,,169866.80000007153,,169879.229,8,400,,,
sequence,flow.Sequence,4_34,2023-11-02T04:54:36.755Z,,0,,,3204.2089999761665,completion,,,,,false,,,,169867.30000007153,169866.89999997616,166646.025,166659.10000002384,166662.691,169879.229,8,400,,,
trial,html.Screen,4_35_0,2023-11-02T04:54:40.616Z,,0,1,,3849.0710000715335,response,ISIC_0004679.JPG,8,ISIC_0027622.JPG,ISIC_0027622.JPG,false,0,keypress(z),500,173728.80000007153,173728.30000007153,169862.563,169867.39999997616,169879.229,173729.958,8,400,36,,ISIC_0004679.JPG
break,html.Screen,4_35_1,2023-11-02T04:54:40.617Z,,0,,,NaN,,,,,,false,,,,173729.89999997616,173729.80000007153,,173729.20000004768,,173729.958,8,400,,,
break_continue,html.Screen,4_35_2,2023-11-02T04:54:40.618Z,,0,,,NaN,,,,,,false,,,,173730.30000007153,173730.20000004768,,173730.10000002384,,173729.958,8,400,,,
sequence,flow.Sequence,4_35,2023-11-02T04:54:40.618Z,,0,,,3850.9710000476916,completion,,,,,false,,,,173730.39999997616,173730.20000004768,169862.563,169867.30000007153,169879.229,173729.958,8,400,,,
trial,html.Screen,4_36_0,2023-11-02T04:54:43.357Z,,0,1,,2739.1420000238286,response,ISIC_0064044.JPG,5,ISIC_7555812.JPG,ISIC_7555812.JPG,false,0,keypress(z),500,176469.60000002384,176469.10000002384,173713.292,173730.60000002384,173729.958,176479.848,8,400,37,,ISIC_0064044.JPG
break,html.Screen,4_36_1,2023-11-02T04:54:43.358Z,,0,,,NaN,,,,,,false,,,,176470.80000007153,176470.60000002384,,176469.89999997616,,176479.848,8,400,,,
break_continue,html.Screen,4_36_2,2023-11-02T04:54:43.358Z,,0,,,NaN,,,,,,false,,,,176471.20000004768,176471,,176470.89999997616,,176479.848,8,400,,,
sequence,flow.Sequence,4_36,2023-11-02T04:54:43.359Z,,0,,,2741.0419999999867,completion,,,,,false,,,,176471.39999997616,176471,173713.292,173730.60000002384,173729.958,176479.848,8,400,,,
trial,html.Screen,4_37_0,2023-11-02T04:54:45.925Z,,0,1,,2557.8520000476856,response,ISIC_7600621.JPG,7,ISIC_0070285.JPG,ISIC_0070285.JPG,false,0,keypress(z),500,179038.20000004768,179037.70000004768,176463.182,176471.5,176479.848,179046.412,8,400,38,,ISIC_7600621.JPG
break,html.Screen,4_37_1,2023-11-02T04:54:45.926Z,,0,,,NaN,,,,,,false,,,,179039.30000007153,179039.10000002384,,179038.5,,179046.412,8,400,,,
break_continue,html.Screen,4_37_2,2023-11-02T04:54:45.927Z,,0,,,NaN,,,,,,false,,,,179039.80000007153,179039.60000002384,,179039.5,,179046.412,8,400,,,
sequence,flow.Sequence,4_37,2023-11-02T04:54:45.927Z,,0,,,2559.7520000238437,completion,,,,,false,,,,179039.89999997616,179039.60000002384,176463.182,176471.5,176479.848,179046.412,8,400,,,
trial,html.Screen,4_38_0,2023-11-02T04:54:48.541Z,,0,1,,2606.6880000238307,response,ISIC_6895016.JPG,5,ISIC_0060897.JPG,ISIC_0060897.JPG,false,0,keypress(z),500,181653.5,181653.10000002384,179029.746,179040,179046.412,181663.947,8,400,39,,ISIC_6895016.JPG
break,html.Screen,4_38_1,2023-11-02T04:54:48.542Z,,0,,,NaN,,,,,,false,,,,181654.70000004768,181654.5,,181653.80000007153,,181663.947,8,400,,,
break_continue,html.Screen,4_38_2,2023-11-02T04:54:48.542Z,,0,,,NaN,,,,,,false,,,,181655.10000002384,181655,,181654.89999997616,,181663.947,8,400,,,
sequence,flow.Sequence,4_38,2023-11-02T04:54:48.542Z,,0,,,2608.587999999989,completion,,,,,false,,,,181655.30000007153,181655,179029.746,179040,179046.412,181663.947,8,400,,,
trial,html.Screen,4_39_0,2023-11-02T04:54:51.189Z,,0,1,,2637.35300007154,response,ISIC_9268141.JPG,8,ISIC_0069274.JPG,ISIC_0069274.JPG,false,0,keypress(z),500,184301.80000007153,184301.30000007153,181647.281,181655.39999997616,181663.947,184313.841,8,400,40,,ISIC_9268141.JPG
break,html.Screen,4_39_1,2023-11-02T04:54:51.190Z,,0,,,NaN,,,,,,false,,,,184302.89999997616,184302.70000004768,,184302.10000002384,,184313.841,8,400,,,
break_continue,html.Screen,4_39_2,2023-11-02T04:54:51.190Z,,0,,,NaN,,,,,,false,,,,184303.30000007153,184303.10000002384,,184303,,184313.841,8,400,,,
sequence,flow.Sequence,4_39,2023-11-02T04:54:51.190Z,,0,,,2639.1530000238563,completion,,,,,false,,,,184303.60000002384,184303.10000002384,181647.281,181655.30000007153,181663.947,184313.841,8,400,,,
trial,html.Screen,4_40_0,2023-11-02T04:54:53.788Z,,0,1,,2587.159000000014,response,ISIC_5591622.JPG,8,ISIC_0000291.JPG,ISIC_0000291.JPG,false,0,keypress(z),500,186901.5,186901,184297.175,184303.60000002384,184313.841,186913.737,8,400,41,,ISIC_5591622.JPG
break,html.Screen,4_40_1,2023-11-02T04:54:53.790Z,,0,,,NaN,,,,,,false,,,,186903.60000002384,186903.39999997616,,186902.89999997616,,186913.737,8,400,,,
break_continue,html.Screen,4_40_2,2023-11-02T04:54:53.791Z,,0,,,NaN,,,,,,false,,,,186903.89999997616,186903.80000007153,,186903.70000004768,,186913.737,8,400,,,
sequence,flow.Sequence,4_40,2023-11-02T04:54:53.791Z,,0,,,2589.95900007154,completion,,,,,false,,,,186904,186903.80000007153,184297.175,184303.60000002384,184313.841,186913.737,8,400,,,
trial,html.Screen,4_41_0,2023-11-02T04:54:56.484Z,,0,1,,2683.063000071532,response,ISIC_0034237.JPG,8,ISIC_0058909.JPG,ISIC_0034237.JPG,false,1,keypress(m),500,189597.20000004768,189596.80000007153,186897.071,186904.10000002384,186913.737,189613.629,8,400,42,,ISIC_0058909.JPG
break,html.Screen,4_41_1,2023-11-02T04:54:56.485Z,,0,,,NaN,,,,,,false,,,,189598.39999997616,189598.20000004768,,189597.5,,189613.629,8,400,,,
break_continue,html.Screen,4_41_2,2023-11-02T04:54:56.485Z,,0,,,NaN,,,,,,false,,,,189598.80000007153,189598.60000002384,,189598.60000002384,,189613.629,8,400,,,
sequence,flow.Sequence,4_41,2023-11-02T04:54:56.485Z,,0,,,2684.863000023848,completion,,,,,false,,,,189598.89999997616,189598.60000002384,186897.071,186904.10000002384,186913.737,189613.629,8,400,,,
trial,html.Screen,4_42_0,2023-11-02T04:54:59.626Z,,0,1,,3125.270999976172,response,ISIC_0014431.JPG,8,ISIC_1059525.JPG,ISIC_1059525.JPG,false,0,keypress(z),500,192739.30000007153,192738.89999997616,189596.963,189599,189613.629,192747.798,8,400,43,,ISIC_0014431.JPG
break,html.Screen,4_42_1,2023-11-02T04:54:59.627Z,,0,,,NaN,,,,,,false,,,,192740.20000004768,192740.10000002384,,192739.60000002384,,192747.798,8,400,,,
break_continue,html.Screen,4_42_2,2023-11-02T04:54:59.627Z,,0,,,NaN,,,,,,false,,,,192740.39999997616,192740.39999997616,,192740.30000007153,,192747.798,8,400,,,
sequence,flow.Sequence,4_42,2023-11-02T04:54:59.627Z,,0,,,3126.770999976172,completion,,,,,false,,,,192740.5,192740.39999997616,189596.963,189598.89999997616,189613.629,192747.798,8,400,,,
trial,html.Screen,4_43_0,2023-11-02T04:55:02.192Z,,0,1,,2557.502000071516,response,ISIC_0031835.JPG,7,ISIC_0034046.JPG,ISIC_0034046.JPG,false,0,keypress(z),500,195305.80000007153,195305.30000007153,192731.132,192740.70000004768,192747.798,195314.362,8,400,44,,ISIC_0031835.JPG
break,html.Screen,4_43_1,2023-11-02T04:55:02.193Z,,0,,,NaN,,,,,,false,,,,195306.89999997616,195306.70000004768,,195306.10000002384,,195314.362,8,400,,,
break_continue,html.Screen,4_43_2,2023-11-02T04:55:02.194Z,,0,,,NaN,,,,,,false,,,,195307.30000007153,195307.10000002384,,195307,,195314.362,8,400,,,
sequence,flow.Sequence,4_43,2023-11-02T04:55:02.194Z,,0,,,2559.302000023832,completion,,,,,false,,,,195307.39999997616,195307.10000002384,192731.132,192740.60000002384,192747.798,195314.362,8,400,,,
trial,html.Screen,4_44_0,2023-11-02T04:55:04.823Z,,0,1,,2621.83800004769,response,ISIC_0066399.JPG,5,ISIC_0000754.JPG,ISIC_0066399.JPG,false,1,keypress(m),500,197936.60000002384,197936.20000004768,195297.696,195307.60000002384,195314.362,197947.59,8,400,45,,ISIC_0000754.JPG
break,html.Screen,4_44_1,2023-11-02T04:55:04.824Z,,0,,,NaN,,,,,,false,,,,197937.5,197937.39999997616,,197936.80000007153,,197947.59,8,400,,,
break_continue,html.Screen,4_44_2,2023-11-02T04:55:04.824Z,,0,,,NaN,,,,,,false,,,,197937.70000004768,197937.70000004768,,197937.60000002384,,197947.59,8,400,,,
sequence,flow.Sequence,4_44,2023-11-02T04:55:04.824Z,,0,,,2623.33800004769,completion,,,,,false,,,,197937.89999997616,197937.70000004768,195297.696,195307.5,195314.362,197947.59,8,400,,,
trial,html.Screen,4_45_0,2023-11-02T04:55:07.596Z,,0,1,,2761.610000047687,response,ISIC_0012160.JPG,6,ISIC_0011779.JPG,ISIC_0012160.JPG,false,1,keypress(m),500,200709.70000004768,200709.20000004768,197930.924,197938,197947.59,200714.146,8,400,46,,ISIC_0011779.JPG
break,html.Screen,4_45_1,2023-11-02T04:55:07.597Z,,0,,,NaN,,,,,,false,,,,200710.89999997616,200710.70000004768,,200709.89999997616,,200714.146,8,400,,,
break_continue,html.Screen,4_45_2,2023-11-02T04:55:07.597Z,,0,,,NaN,,,,,,false,,,,200711.20000004768,200711.10000002384,,200711,,200714.146,8,400,,,
sequence,flow.Sequence,4_45,2023-11-02T04:55:07.598Z,,0,,,2763.5100000238454,completion,,,,,false,,,,200711.39999997616,200711.10000002384,197930.924,197938,197947.59,200714.146,8,400,,,
trial,html.Screen,4_46_0,2023-11-02T04:55:10.340Z,,0,1,,2739.1540000715177,response,ISIC_0000421.JPG,7,ISIC_1711973.JPG,ISIC_1711973.JPG,false,0,keypress(z),500,203453.80000007153,203453.30000007153,200697.48,200711.60000002384,200714.146,203464.909,8,400,47,,ISIC_0000421.JPG
break,html.Screen,4_46_1,2023-11-02T04:55:10.341Z,,0,,,NaN,,,,,,false,,,,203455.10000002384,203454.89999997616,,203454.10000002384,,203464.909,8,400,,,
break_continue,html.Screen,4_46_2,2023-11-02T04:55:10.342Z,,0,,,NaN,,,,,,false,,,,203455.5,203455.39999997616,,203455.30000007153,,203464.909,8,400,,,
sequence,flow.Sequence,4_46,2023-11-02T04:55:10.342Z,,0,,,2741.25399997615,completion,,,,,false,,,,203455.70000004768,203455.39999997616,200697.48,200711.5,200714.146,203464.909,8,400,,,
trial,html.Screen,4_47_0,2023-11-02T04:55:13.402Z,,0,1,,3050.1910000238277,response,ISIC_0064932.JPG,7,ISIC_9522489.JPG,ISIC_0064932.JPG,false,1,keypress(m),500,206515.60000002384,206515.10000002384,203448.243,203455.80000007153,203464.909,206531.453,8,400,48,,ISIC_9522489.JPG
break,html.Screen,4_47_1,2023-11-02T04:55:13.403Z,,0,,,NaN,,,,,,false,,,,206516.80000007153,206516.60000002384,,206515.89999997616,,206531.453,8,400,,,
break_continue,html.Screen,4_47_2,2023-11-02T04:55:13.403Z,,0,,,NaN,,,,,,false,,,,206517.10000002384,206517.10000002384,,206517,,206531.453,8,400,,,
sequence,flow.Sequence,4_47,2023-11-02T04:55:13.403Z,,0,,,3052.1910000238277,completion,,,,,false,,,,206517.30000007153,206517.10000002384,203448.243,203455.80000007153,203464.909,206531.453,8,400,,,
trial,html.Screen,4_48_0,2023-11-02T04:55:16.209Z,,0,1,,2791.0469999999914,response,ISIC_0005360.JPG,7,ISIC_0030951.JPG,ISIC_0030951.JPG,false,0,keypress(z),500,209323.10000002384,209322.5,206514.787,206517.5,206531.453,209331.341,8,400,49,,ISIC_0005360.JPG
break,html.Screen,4_48_1,2023-11-02T04:55:16.210Z,,0,,,NaN,,,,,,false,,,,209324.30000007153,209324.10000002384,,209323.30000007153,,209331.341,8,400,,,
break_continue,html.Screen,4_48_2,2023-11-02T04:55:16.210Z,,0,,,NaN,,,,,,false,,,,209324.5,209324.39999997616,,209324.39999997616,,209331.341,8,400,,,
sequence,flow.Sequence,4_48,2023-11-02T04:55:16.210Z,,0,,,2792.9469999761495,completion,,,,,false,,,,209324.60000002384,209324.39999997616,206514.787,206517.39999997616,206531.453,209331.341,8,400,,,
trial,html.Screen,4_49_0,2023-11-02T04:55:26.295Z,,0,1,,10078.259000023856,response,ISIC_8922893.JPG,6,ISIC_6447663.JPG,ISIC_6447663.JPG,false,0,keypress(z),500,219410,219409.60000002384,209314.675,209324.70000004768,209331.341,219415.191,8,400,50,,ISIC_8922893.JPG
break,html.Screen,4_49_1,2023-11-02T04:55:36.290Z,,0,,,10000.733999999997,timeout,,,,,false,,,,229404.89999997616,229399.259,219398.525,219410.30000007153,219415.191,229415.925,8,400,,,
break_continue,html.Screen,4_49_2,2023-11-02T04:56:03.069Z,,0,,,26752.97499997617,response,,,,,false,continue,keypress(Space),,256185.39999997616,256168.89999997616,229399.259,229405,229415.925,256198.187,8,400,,,
sequence,flow.Sequence,4_49,2023-11-02T04:56:03.069Z,,0,,,46837.55899997617,completion,,,,,false,,,,256185.5,256168.89999997616,209314.675,209324.70000004768,209331.341,256198.187,8,400,,,
trial,html.Screen,4_50_0,2023-11-02T04:56:07.719Z,,0,2,,4636.212999976153,response,ISIC_0066321.JPG,7,ISIC_3444719.JPG,ISIC_3444719.JPG,false,0,keypress(z),500,260834.89999997616,260834.39999997616,256181.521,256185.60000002384,256198.187,260850.969,8,400,1,,ISIC_0066321.JPG
break,html.Screen,4_50_1,2023-11-02T04:56:07.720Z,,0,,,NaN,,,,,,false,,,,260836,260835.80000007153,,260835.20000004768,,260850.969,8,400,,,
break_continue,html.Screen,4_50_2,2023-11-02T04:56:07.720Z,,0,,,NaN,,,,,,false,,,,260836.39999997616,260836.30000007153,,260836.10000002384,,260850.969,8,400,,,
sequence,flow.Sequence,4_50,2023-11-02T04:56:07.720Z,,0,,,4638.11300007152,completion,,,,,false,,,,260836.60000002384,260836.30000007153,256181.521,256185.60000002384,256198.187,260850.969,8,400,,,
trial,html.Screen,4_51_0,2023-11-02T04:56:10.301Z,,0,2,,2566.13100002383,response,ISIC_0071257.JPG,7,ISIC_0033804.JPG,ISIC_0071257.JPG,false,1,keypress(m),500,263417.60000002384,263417.10000002384,260834.303,260836.70000004768,260850.969,263434.199,8,400,2,,ISIC_0033804.JPG
break,html.Screen,4_51_1,2023-11-02T04:56:10.302Z,,0,,,NaN,,,,,,false,,,,263418.7000000477,263418.60000002384,,263417.89999997616,,263434.199,8,400,,,
break_continue,html.Screen,4_51_2,2023-11-02T04:56:10.303Z,,0,,,NaN,,,,,,false,,,,263419.10000002384,263419,,263418.89999997616,,263434.199,8,400,,,
sequence,flow.Sequence,4_51,2023-11-02T04:56:10.303Z,,0,,,2568.030999999988,completion,,,,,false,,,,263419.2000000477,263419,260834.303,260836.70000004768,260850.969,263434.199,8,400,,,
trial,html.Screen,4_52_0,2023-11-02T04:56:12.984Z,,0,2,,2665.601000071503,response,ISIC_0034188.JPG,7,ISIC_0009298.JPG,ISIC_0009298.JPG,false,0,keypress(z),500,266100.10000002384,266099.8000000715,263417.533,263419.5,263434.199,266117.425,8,400,3,,ISIC_0034188.JPG
break,html.Screen,4_52_1,2023-11-02T04:56:12.984Z,,0,,,NaN,,,,,,false,,,,266101,266100.89999997616,,266100.3000000715,,266117.425,8,400,,,
break_continue,html.Screen,4_52_2,2023-11-02T04:56:12.985Z,,0,,,NaN,,,,,,false,,,,266101.2000000477,266101.10000002384,,266101.10000002384,,266117.425,8,400,,,
sequence,flow.Sequence,4_52,2023-11-02T04:56:12.985Z,,0,,,2666.9010000238195,completion,,,,,false,,,,266101.39999997616,266101.10000002384,263417.533,263419.39999997616,263434.199,266117.425,8,400,,,
trial,html.Screen,4_53_0,2023-11-02T04:56:15.852Z,,0,2,,2851.2750000476954,response,ISIC_2058516.JPG,7,ISIC_8073555.JPG,ISIC_8073555.JPG,false,0,keypress(z),500,268968.89999997616,268968.7000000477,266100.759,266101.39999997616,266117.425,268984.898,8,400,4,,ISIC_2058516.JPG
break,html.Screen,4_53_1,2023-11-02T04:56:15.853Z,,0,,,NaN,,,,,,false,,,,268969.39999997616,268969.3000000715,,268969.10000002384,,268984.898,8,400,,,
break_continue,html.Screen,4_53_2,2023-11-02T04:56:15.853Z,,0,,,NaN,,,,,,false,,,,268969.60000002384,268969.60000002384,,268969.5,,268984.898,8,400,,,
sequence,flow.Sequence,4_53,2023-11-02T04:56:15.853Z,,0,,,2852.1750000238535,completion,,,,,false,,,,268969.7000000477,268969.60000002384,266100.759,266101.39999997616,266117.425,268984.898,8,400,,,
trial,html.Screen,4_54_0,2023-11-02T04:56:18.468Z,,0,2,,2598.902000071539,response,ISIC_0024694.JPG,6,ISIC_3418978.JPG,ISIC_0024694.JPG,false,1,keypress(m),500,271584.3000000715,271583.8000000715,268968.232,268969.8000000715,268984.898,271601.46,8,400,5,,ISIC_3418978.JPG
break,html.Screen,4_54_1,2023-11-02T04:56:18.469Z,,0,,,NaN,,,,,,false,,,,271585.5,271585.3000000715,,271584.60000002384,,271601.46,8,400,,,
break_continue,html.Screen,4_54_2,2023-11-02T04:56:18.469Z,,0,,,NaN,,,,,,false,,,,271585.89999997616,271585.8000000715,,271585.7000000477,,271601.46,8,400,,,
sequence,flow.Sequence,4_54,2023-11-02T04:56:18.469Z,,0,,,2600.902000071539,completion,,,,,false,,,,271586.2000000477,271585.8000000715,268968.232,268969.7000000477,268984.898,271601.46,8,400,,,
trial,html.Screen,4_55_0,2023-11-02T04:56:21.694Z,,0,2,,3208.539999999979,response,ISIC_2635051.JPG,8,ISIC_6805527.JPG,ISIC_2635051.JPG,false,1,keypress(m),500,274810.5,274810,271584.794,271586.2000000477,271601.46,274817.998,8,400,6,,ISIC_6805527.JPG
break,html.Screen,4_55_1,2023-11-02T04:56:21.695Z,,0,,,NaN,,,,,,false,,,,274811.7000000477,274811.60000002384,,274810.8000000715,,274817.998,8,400,,,
break_continue,html.Screen,4_55_2,2023-11-02T04:56:21.695Z,,0,,,NaN,,,,,,false,,,,274812.10000002384,274812,,274811.8000000715,,274817.998,8,400,,,
sequence,flow.Sequence,4_55,2023-11-02T04:56:21.695Z,,0,,,3210.539999999979,completion,,,,,false,,,,274812.3000000715,274812,271584.794,271586.2000000477,271601.46,274817.998,8,400,,,
trial,html.Screen,4_56_0,2023-11-02T04:56:24.275Z,,0,2,,2573.802000071504,response,ISIC_0305800.JPG,8,ISIC_0034079.JPG,ISIC_0034079.JPG,false,0,keypress(z),500,277392.39999997616,277391.8000000715,274801.332,274812.5,274817.998,277402.156,8,400,7,,ISIC_0305800.JPG
break,html.Screen,4_56_1,2023-11-02T04:56:24.277Z,,0,,,NaN,,,,,,false,,,,277393.60000002384,277393.39999997616,,277392.7000000477,,277402.156,8,400,,,
break_continue,html.Screen,4_56_2,2023-11-02T04:56:24.277Z,,0,,,NaN,,,,,,false,,,,277393.89999997616,277393.89999997616,,277393.8000000715,,277402.156,8,400,,,
sequence,flow.Sequence,4_56,2023-11-02T04:56:24.277Z,,0,,,2575.9019999761367,completion,,,,,false,,,,277394.2000000477,277393.89999997616,274801.332,274812.39999997616,274817.998,277402.156,8,400,,,
trial,html.Screen,4_57_0,2023-11-02T04:56:26.923Z,,0,2,,2637.8439999999828,response,ISIC_2679689.JPG,8,ISIC_0061199.JPG,ISIC_0061199.JPG,false,0,keypress(z),500,280040.5,280040,277385.49,277394.39999997616,277402.156,280052.05,8,400,8,,ISIC_2679689.JPG
break,html.Screen,4_57_1,2023-11-02T04:56:26.925Z,,0,,,NaN,,,,,,false,,,,280041.60000002384,280041.39999997616,,280040.8000000715,,280052.05,8,400,,,
break_continue,html.Screen,4_57_2,2023-11-02T04:56:26.925Z,,0,,,NaN,,,,,,false,,,,280042.10000002384,280041.89999997616,,280041.8000000715,,280052.05,8,400,,,
sequence,flow.Sequence,4_57,2023-11-02T04:56:26.925Z,,0,,,2639.743999976141,completion,,,,,false,,,,280042.3000000715,280041.89999997616,277385.49,277394.3000000715,277402.156,280052.05,8,400,,,
trial,html.Screen,4_58_0,2023-11-02T04:56:29.382Z,,0,2,,2446.5500000238535,response,ISIC_0070581.JPG,6,ISIC_1869829.JPG,ISIC_0070581.JPG,false,1,keypress(m),500,282499.10000002384,282498.60000002384,280035.384,280042.3000000715,280052.05,282501.952,8,400,9,,ISIC_1869829.JPG
break,html.Screen,4_58_1,2023-11-02T04:56:29.383Z,,0,,,NaN,,,,,,false,,,,282500.3000000715,282500,,282499.5,,282501.952,8,400,,,
break_continue,html.Screen,4_58_2,2023-11-02T04:56:29.383Z,,0,,,NaN,,,,,,false,,,,282500.60000002384,282500.5,,282500.39999997616,,282501.952,8,400,,,
sequence,flow.Sequence,4_58,2023-11-02T04:56:29.384Z,,0,,,2448.4500000000116,completion,,,,,false,,,,282500.8000000715,282500.5,280035.384,280042.3000000715,280052.05,282501.952,8,400,,,
trial,html.Screen,4_59_0,2023-11-02T04:56:31.953Z,,0,2,,2568.2480000476935,response,ISIC_0563533.JPG,6,ISIC_6265473.JPG,ISIC_6265473.JPG,false,0,keypress(z),500,285070.8000000715,285070.2000000477,282485.286,282501,282501.952,285085.182,8,400,10,,ISIC_0563533.JPG
break,html.Screen,4_59_1,2023-11-02T04:56:31.955Z,,0,,,NaN,,,,,,false,,,,285071.8000000715,285071.7000000477,,285071.10000002384,,285085.182,8,400,,,
break_continue,html.Screen,4_59_2,2023-11-02T04:56:31.955Z,,0,,,NaN,,,,,,false,,,,285072.3000000715,285072.2000000477,,285072,,285085.182,8,400,,,
sequence,flow.Sequence,4_59,2023-11-02T04:56:31.955Z,,0,,,2570.2480000476935,completion,,,,,false,,,,285072.5,285072.2000000477,282485.286,282501,282501.952,285085.182,8,400,,,
trial,html.Screen,4_60_0,2023-11-02T04:56:34.712Z,,0,2,,2744.018000047712,response,ISIC_0783513.JPG,7,ISIC_4292879.JPG,ISIC_4292879.JPG,false,0,keypress(z),500,287829.7000000477,287829.2000000477,285068.516,285072.60000002384,285085.182,287835.959,8,400,11,,ISIC_0783513.JPG
break,html.Screen,4_60_1,2023-11-02T04:56:34.713Z,,0,,,NaN,,,,,,false,,,,287830.8000000715,287830.60000002384,,287830,,287835.959,8,400,,,
break_continue,html.Screen,4_60_2,2023-11-02T04:56:34.714Z,,0,,,NaN,,,,,,false,,,,287831.2000000477,287831.10000002384,,287830.89999997616,,287835.959,8,400,,,
sequence,flow.Sequence,4_60,2023-11-02T04:56:34.714Z,,0,,,2745.9180000238703,completion,,,,,false,,,,287831.3000000715,287831.10000002384,285068.516,285072.5,285085.182,287835.959,8,400,,,
trial,html.Screen,4_61_0,2023-11-02T04:56:37.312Z,,0,2,,2592.9409999761847,response,ISIC_3736075.JPG,8,ISIC_4182801.JPG,ISIC_4182801.JPG,false,0,keypress(z),500,290429.39999997616,290428.89999997616,287819.293,287831.5,287835.959,290435.855,8,400,12,,ISIC_3736075.JPG
break,html.Screen,4_61_1,2023-11-02T04:56:37.313Z,,0,,,NaN,,,,,,false,,,,290430.5,290430.3000000715,,290429.60000002384,,290435.855,8,400,,,
break_continue,html.Screen,4_61_2,2023-11-02T04:56:37.313Z,,0,,,NaN,,,,,,false,,,,290430.8000000715,290430.7000000477,,290430.60000002384,,290435.855,8,400,,,
sequence,flow.Sequence,4_61,2023-11-02T04:56:37.314Z,,0,,,2594.7410000477103,completion,,,,,false,,,,290431.10000002384,290430.7000000477,287819.293,287831.5,287835.959,290435.855,8,400,,,
trial,html.Screen,4_62_0,2023-11-02T04:56:39.928Z,,0,2,,2609.7450000238605,response,ISIC_0002899.JPG,9,ISIC_0010767.JPG,ISIC_0010767.JPG,false,0,keypress(z),500,293045.89999997616,293045.60000002384,290419.189,290431.2000000477,290435.855,293052.417,8,400,13,,ISIC_0002899.JPG
break,html.Screen,4_62_1,2023-11-02T04:56:39.929Z,,0,,,NaN,,,,,,false,,,,293046.5,293046.39999997616,,293046.10000002384,,293052.417,8,400,,,
break_continue,html.Screen,4_62_2,2023-11-02T04:56:39.929Z,,0,,,NaN,,,,,,false,,,,293046.60000002384,293046.60000002384,,293046.5,,293052.417,8,400,,,
sequence,flow.Sequence,4_62,2023-11-02T04:56:39.929Z,,0,,,2610.7450000238605,completion,,,,,false,,,,293046.7000000477,293046.60000002384,290419.189,290431.10000002384,290435.855,293052.417,8,400,,,
trial,html.Screen,4_63_0,2023-11-02T04:56:42.557Z,,0,2,,2621.9829999761423,response,ISIC_0010426.JPG,8,ISIC_0010609.JPG,ISIC_0010426.JPG,false,1,keypress(m),500,295674.8000000715,295674.39999997616,293035.751,293046.8000000715,293052.417,295685.645,8,400,14,,ISIC_0010609.JPG
break,html.Screen,4_63_1,2023-11-02T04:56:42.558Z,,0,,,NaN,,,,,,false,,,,295676.10000002384,295675.8000000715,,295675.2000000477,,295685.645,8,400,,,
break_continue,html.Screen,4_63_2,2023-11-02T04:56:42.559Z,,0,,,NaN,,,,,,false,,,,295676.5,295676.39999997616,,295676.2000000477,,295685.645,8,400,,,
sequence,flow.Sequence,4_63,2023-11-02T04:56:42.559Z,,0,,,2623.9829999761423,completion,,,,,false,,,,295676.60000002384,295676.39999997616,293035.751,293046.8000000715,293052.417,295685.645,8,400,,,
trial,html.Screen,4_64_0,2023-11-02T04:56:45.122Z,,0,2,,2554.2549999761395,response,ISIC_0069248.JPG,7,ISIC_3012778.JPG,ISIC_0069248.JPG,false,1,keypress(m),500,298240.3000000715,298239.89999997616,295668.979,295676.8000000715,295685.645,298253.172,8,400,15,,ISIC_3012778.JPG
break,html.Screen,4_64_1,2023-11-02T04:56:45.124Z,,0,,,NaN,,,,,,false,,,,298241.5,298241.3000000715,,298240.60000002384,,298253.172,8,400,,,
break_continue,html.Screen,4_64_2,2023-11-02T04:56:45.124Z,,0,,,NaN,,,,,,false,,,,298241.89999997616,298241.8000000715,,298241.60000002384,,298253.172,8,400,,,
sequence,flow.Sequence,4_64,2023-11-02T04:56:45.124Z,,0,,,2556.155000071507,completion,,,,,false,,,,298242,298241.8000000715,295668.979,295676.8000000715,295685.645,298253.172,8,400,,,
trial,html.Screen,4_65_0,2023-11-02T04:56:47.705Z,,0,2,,2569.3279999999795,response,ISIC_0046394.JPG,8,ISIC_5709878.JPG,ISIC_0046394.JPG,false,1,keypress(m),500,300823,300822.5,298236.506,298242.2000000477,298253.172,300836.402,8,400,16,,ISIC_5709878.JPG
break,html.Screen,4_65_1,2023-11-02T04:56:47.706Z,,0,,,NaN,,,,,,false,,,,300824.10000002384,300823.89999997616,,300823.2000000477,,300836.402,8,400,,,
break_continue,html.Screen,4_65_2,2023-11-02T04:56:47.707Z,,0,,,NaN,,,,,,false,,,,300824.5,300824.39999997616,,300824.3000000715,,300836.402,8,400,,,
sequence,flow.Sequence,4_65,2023-11-02T04:56:47.707Z,,0,,,2571.2279999761377,completion,,,,,false,,,,300824.7000000477,300824.39999997616,298236.506,298242.2000000477,298253.172,300836.402,8,400,,,
trial,html.Screen,4_66_0,2023-11-02T04:56:50.446Z,,0,2,,2727.3980000715237,response,ISIC_9422630.JPG,8,ISIC_2681497.JPG,ISIC_2681497.JPG,false,0,keypress(z),500,303564.3000000715,303563.8000000715,300819.736,300824.8000000715,300836.402,303569.626,8,400,17,,ISIC_9422630.JPG
break,html.Screen,4_66_1,2023-11-02T04:56:50.447Z,,0,,,NaN,,,,,,false,,,,303565.39999997616,303565.3000000715,,303564.7000000477,,303569.626,8,400,,,
break_continue,html.Screen,4_66_2,2023-11-02T04:56:50.448Z,,0,,,NaN,,,,,,false,,,,303565.89999997616,303565.8000000715,,303565.60000002384,,303569.626,8,400,,,
sequence,flow.Sequence,4_66,2023-11-02T04:56:50.448Z,,0,,,2729.3980000715237,completion,,,,,false,,,,303566,303565.8000000715,300819.736,300824.7000000477,300836.402,303569.626,8,400,,,
trial,html.Screen,4_67_0,2023-11-02T04:56:52.983Z,,0,2,,2530.9740000238526,response,ISIC_0062160.JPG,8,ISIC_4252285.JPG,ISIC_0062160.JPG,false,1,keypress(m),500,306101,306100.60000002384,303552.96,303566.10000002384,303569.626,306102.858,8,400,18,,ISIC_4252285.JPG
break,html.Screen,4_67_1,2023-11-02T04:56:52.984Z,,0,,,NaN,,,,,,false,,,,306101.8000000715,306101.60000002384,,306101.2000000477,,306102.858,8,400,,,
break_continue,html.Screen,4_67_2,2023-11-02T04:56:52.984Z,,0,,,NaN,,,,,,false,,,,306101.89999997616,306101.89999997616,,306101.8000000715,,306102.858,8,400,,,
sequence,flow.Sequence,4_67,2023-11-02T04:56:52.984Z,,0,,,2532.273999976169,completion,,,,,false,,,,306102.10000002384,306101.89999997616,303552.96,303566.10000002384,303569.626,306102.858,8,400,,,
trial,html.Screen,4_68_0,2023-11-02T04:56:56.412Z,,0,2,,3427.442000071518,response,ISIC_6714923.JPG,8,ISIC_0030754.JPG,ISIC_6714923.JPG,false,1,keypress(m),500,309530.8000000715,309530.3000000715,306086.192,306102.10000002384,306102.858,309536.909,8,400,19,,ISIC_0030754.JPG
break,html.Screen,4_68_1,2023-11-02T04:56:56.414Z,,0,,,NaN,,,,,,false,,,,309532,309531.7000000477,,309531.10000002384,,309536.909,8,400,,,
break_continue,html.Screen,4_68_2,2023-11-02T04:56:56.414Z,,0,,,NaN,,,,,,false,,,,309532.3000000715,309532.2000000477,,309532.10000002384,,309536.909,8,400,,,
sequence,flow.Sequence,4_68,2023-11-02T04:56:56.414Z,,0,,,3429.3420000476763,completion,,,,,false,,,,309532.5,309532.2000000477,306086.192,306102.10000002384,306102.858,309536.909,8,400,,,
trial,html.Screen,4_69_0,2023-11-02T04:56:59.011Z,,0,2,,2592.490999976173,response,ISIC_0065039.JPG,6,ISIC_0010432.JPG,ISIC_0010432.JPG,false,0,keypress(z),500,312129.8000000715,312129.39999997616,309520.243,309532.7000000477,309536.909,312136.805,8,400,20,,ISIC_0065039.JPG
break,html.Screen,4_69_1,2023-11-02T04:56:59.013Z,,0,,,NaN,,,,,,false,,,,312130.89999997616,312130.7000000477,,312130.2000000477,,312136.805,8,400,,,
break_continue,html.Screen,4_69_2,2023-11-02T04:56:59.013Z,,0,,,NaN,,,,,,false,,,,312131.3000000715,312131.2000000477,,312131.10000002384,,312136.805,8,400,,,
sequence,flow.Sequence,4_69,2023-11-02T04:56:59.013Z,,0,,,2594.2910000476986,completion,,,,,false,,,,312131.5,312131.2000000477,309520.243,309532.7000000477,309536.909,312136.805,8,400,,,
trial,html.Screen,4_70_0,2023-11-02T04:57:02.215Z,,0,2,,3196.295000023849,response,ISIC_0055911.JPG,5,ISIC_8822738.JPG,ISIC_8822738.JPG,false,0,keypress(z),500,315333.60000002384,315333.10000002384,312120.139,312131.60000002384,312136.805,315336.677,8,400,21,,ISIC_0055911.JPG
break,html.Screen,4_70_1,2023-11-02T04:57:02.216Z,,0,,,NaN,,,,,,false,,,,315334.8000000715,315334.60000002384,,315334,,315336.677,8,400,,,
break_continue,html.Screen,4_70_2,2023-11-02T04:57:02.217Z,,0,,,NaN,,,,,,false,,,,315335.10000002384,315335,,315335,,315336.677,8,400,,,
sequence,flow.Sequence,4_70,2023-11-02T04:57:02.217Z,,0,,,3198.195000000007,completion,,,,,false,,,,315335.39999997616,315335,312120.139,312131.60000002384,312136.805,315336.677,8,400,,,
trial,html.Screen,4_71_0,2023-11-02T04:57:05.020Z,,0,2,,2801.822999999975,response,ISIC_9544832.JPG,7,ISIC_2457132.JPG,ISIC_2457132.JPG,false,0,keypress(z),500,318138.8000000715,318138.5,315320.011,315335.60000002384,315336.677,318154.206,8,400,22,,ISIC_9544832.JPG
break,html.Screen,4_71_1,2023-11-02T04:57:05.021Z,,0,,,NaN,,,,,,false,,,,318139.7000000477,318139.5,,318139.10000002384,,318154.206,8,400,,,
break_continue,html.Screen,4_71_2,2023-11-02T04:57:05.021Z,,0,,,NaN,,,,,,false,,,,318140,318139.89999997616,,318139.7000000477,,318154.206,8,400,,,
sequence,flow.Sequence,4_71,2023-11-02T04:57:05.021Z,,0,,,2803.222999976133,completion,,,,,false,,,,318140.2000000477,318139.89999997616,315320.011,315335.39999997616,315336.677,318154.206,8,400,,,
trial,html.Screen,4_72_0,2023-11-02T04:57:07.571Z,,0,2,,2535.2939999999944,response,ISIC_1939413.JPG,7,ISIC_5021861.JPG,ISIC_1939413.JPG,false,1,keypress(m),500,320690,320689.5,318137.54,318140.3000000715,318154.206,320704.104,8,400,23,,ISIC_5021861.JPG
break,html.Screen,4_72_1,2023-11-02T04:57:07.572Z,,0,,,NaN,,,,,,false,,,,320691.10000002384,320690.89999997616,,320690.3000000715,,320704.104,8,400,,,
break_continue,html.Screen,4_72_2,2023-11-02T04:57:07.573Z,,0,,,NaN,,,,,,false,,,,320691.5,320691.3000000715,,320691.2000000477,,320704.104,8,400,,,
sequence,flow.Sequence,4_72,2023-11-02T04:57:07.573Z,,0,,,2537.09400007152,completion,,,,,false,,,,320691.7000000477,320691.3000000715,318137.54,318140.3000000715,318154.206,320704.104,8,400,,,
trial,html.Screen,4_73_0,2023-11-02T04:57:10.201Z,,0,2,,2615.5960000476916,response,ISIC_0029205.JPG,8,ISIC_0070387.JPG,ISIC_0070387.JPG,false,0,keypress(z),500,323320.2000000477,323319.7000000477,320687.438,320691.7000000477,320704.104,323337.332,8,400,24,,ISIC_0029205.JPG
break,html.Screen,4_73_1,2023-11-02T04:57:10.202Z,,0,,,NaN,,,,,,false,,,,323321.39999997616,323321.2000000477,,323320.5,,323337.332,8,400,,,
break_continue,html.Screen,4_73_2,2023-11-02T04:57:10.203Z,,0,,,NaN,,,,,,false,,,,323321.8000000715,323321.7000000477,,323321.5,,323337.332,8,400,,,
sequence,flow.Sequence,4_73,2023-11-02T04:57:10.203Z,,0,,,2617.5960000476916,completion,,,,,false,,,,323321.89999997616,323321.7000000477,320687.438,320691.7000000477,320704.104,323337.332,8,400,,,
trial,html.Screen,4_74_0,2023-11-02T04:57:12.816Z,,0,2,,2596.768000023847,response,ISIC_0026619.JPG,7,ISIC_0010900.JPG,ISIC_0010900.JPG,false,0,keypress(z),500,325934.60000002384,325934.10000002384,323320.666,323321.89999997616,323337.332,325937.228,8,400,25,,ISIC_0026619.JPG
break,html.Screen,4_74_1,2023-11-02T04:57:12.817Z,,0,,,NaN,,,,,,false,,,,325935.8000000715,325935.7000000477,,325934.89999997616,,325937.228,8,400,,,
break_continue,html.Screen,4_74_2,2023-11-02T04:57:12.817Z,,0,,,NaN,,,,,,false,,,,325936.2000000477,325936.10000002384,,325936,,325937.228,8,400,,,
sequence,flow.Sequence,4_74,2023-11-02T04:57:12.817Z,,0,,,2598.768000023847,completion,,,,,false,,,,325936.39999997616,325936.10000002384,323320.666,323321.89999997616,323337.332,325937.228,8,400,,,
trial,html.Screen,4_75_0,2023-11-02T04:57:15.318Z,,0,2,,2499.072000071523,response,ISIC_3529778.JPG,8,ISIC_3392451.JPG,ISIC_3529778.JPG,false,1,keypress(m),500,328436.8000000715,328436.3000000715,325920.562,325936.60000002384,325937.228,328438.091,8,400,26,,ISIC_3392451.JPG
break,html.Screen,4_75_1,2023-11-02T04:57:15.319Z,,0,,,NaN,,,,,,false,,,,328438,328437.7000000477,,328437.10000002384,,328438.091,8,400,,,
break_continue,html.Screen,4_75_2,2023-11-02T04:57:15.319Z,,0,,,NaN,,,,,,false,,,,328438.3000000715,328438.2000000477,,328438.10000002384,,328438.091,8,400,,,
sequence,flow.Sequence,4_75,2023-11-02T04:57:15.319Z,,0,,,2500.972000047681,completion,,,,,false,,,,328438.39999997616,328438.2000000477,325920.562,325936.60000002384,325937.228,328438.091,8,400,,,
trial,html.Screen,4_76_0,2023-11-02T04:57:17.885Z,,0,2,,2565.609000047669,response,ISIC_2687641.JPG,8,ISIC_0032034.JPG,ISIC_0032034.JPG,false,0,keypress(z),500,331004,331003.7000000477,328421.425,328438.60000002384,328438.091,331021.321,8,400,27,,ISIC_2687641.JPG
break,html.Screen,4_76_1,2023-11-02T04:57:17.886Z,,0,,,NaN,,,,,,false,,,,331004.89999997616,331004.7000000477,,331004.2000000477,,331021.321,8,400,,,
break_continue,html.Screen,4_76_2,2023-11-02T04:57:17.886Z,,0,,,NaN,,,,,,false,,,,331005.10000002384,331005,,331004.89999997616,,331021.321,8,400,,,
sequence,flow.Sequence,4_76,2023-11-02T04:57:17.886Z,,0,,,2566.908999999985,completion,,,,,false,,,,331005.2000000477,331005,328421.425,328438.60000002384,328438.091,331021.321,8,400,,,
trial,html.Screen,4_77_0,2023-11-02T04:57:20.530Z,,0,2,,2627.3790000476874,response,ISIC_0016161.JPG,8,ISIC_0025231.JPG,ISIC_0025231.JPG,false,0,keypress(z),500,333649.2000000477,333648.7000000477,331004.655,331005.3000000715,331021.321,333654.549,8,400,28,,ISIC_0016161.JPG
break,html.Screen,4_77_1,2023-11-02T04:57:20.531Z,,0,,,NaN,,,,,,false,,,,333650.39999997616,333650.2000000477,,333649.60000002384,,333654.549,8,400,,,
break_continue,html.Screen,4_77_2,2023-11-02T04:57:20.532Z,,0,,,NaN,,,,,,false,,,,333650.8000000715,333650.7000000477,,333650.60000002384,,333654.549,8,400,,,
sequence,flow.Sequence,4_77,2023-11-02T04:57:20.532Z,,0,,,2629.3790000476874,completion,,,,,false,,,,333651,333650.7000000477,331004.655,331005.2000000477,331021.321,333654.549,8,400,,,
trial,html.Screen,4_78_0,2023-11-02T04:57:23.034Z,,0,2,,2497.951000000001,response,ISIC_0069292.JPG,5,ISIC_8373462.JPG,ISIC_0069292.JPG,false,1,keypress(m),500,336152.89999997616,336152.5,333637.883,333651.2000000477,333654.549,336154.449,8,400,29,,ISIC_8373462.JPG
break,html.Screen,4_78_1,2023-11-02T04:57:23.035Z,,0,,,NaN,,,,,,false,,,,336154.2000000477,336153.89999997616,,336153.3000000715,,336154.449,8,400,,,
break_continue,html.Screen,4_78_2,2023-11-02T04:57:23.035Z,,0,,,NaN,,,,,,false,,,,336154.5,336154.39999997616,,336154.3000000715,,336154.449,8,400,,,
sequence,flow.Sequence,4_78,2023-11-02T04:57:23.035Z,,0,,,2499.850999976159,completion,,,,,false,,,,336154.60000002384,336154.39999997616,333637.883,333651.2000000477,333654.549,336154.449,8,400,,,
trial,html.Screen,4_79_0,2023-11-02T04:57:25.504Z,,0,2,,2468.5509999999776,response,ISIC_0071834.JPG,7,ISIC_0000056.JPG,ISIC_0000056.JPG,false,0,keypress(z),500,338623.60000002384,338623,336137.783,336154.7000000477,336154.449,338638.61,8,400,30,,ISIC_0071834.JPG
break,html.Screen,4_79_1,2023-11-02T04:57:25.505Z,,0,,,NaN,,,,,,false,,,,338624.7000000477,338624.5,,338623.8000000715,,338638.61,8,400,,,
break_continue,html.Screen,4_79_2,2023-11-02T04:57:25.506Z,,0,,,NaN,,,,,,false,,,,338625.10000002384,338625,,338624.89999997616,,338638.61,8,400,,,
sequence,flow.Sequence,4_79,2023-11-02T04:57:25.506Z,,0,,,2470.5509999999776,completion,,,,,false,,,,338625.2000000477,338625,336137.783,336154.7000000477,336154.449,338638.61,8,400,,,
trial,html.Screen,4_80_0,2023-11-02T04:57:28.615Z,,0,2,,3095.1900000715395,response,ISIC_0010401.JPG,7,ISIC_6875745.JPG,ISIC_6875745.JPG,false,0,keypress(z),500,341734.2000000477,341733.8000000715,338621.944,338625.3000000715,338638.61,341738.486,8,400,31,,ISIC_0010401.JPG
break,html.Screen,4_80_1,2023-11-02T04:57:28.616Z,,0,,,NaN,,,,,,false,,,,341735.39999997616,341735.2000000477,,341734.5,,341738.486,8,400,,,
break_continue,html.Screen,4_80_2,2023-11-02T04:57:28.616Z,,0,,,NaN,,,,,,false,,,,341735.8000000715,341735.7000000477,,341735.60000002384,,341738.486,8,400,,,
sequence,flow.Sequence,4_80,2023-11-02T04:57:28.616Z,,0,,,3097.0900000476977,completion,,,,,false,,,,341736,341735.7000000477,338621.944,338625.3000000715,338638.61,341738.486,8,400,,,
trial,html.Screen,4_81_0,2023-11-02T04:57:31.661Z,,0,2,,3042.2140000477084,response,ISIC_4445729.JPG,6,ISIC_6370977.JPG,ISIC_6370977.JPG,false,0,keypress(z),500,344781.3000000715,344780.7000000477,341721.82,341736.10000002384,341738.486,344788.364,8,400,32,,ISIC_4445729.JPG
break,html.Screen,4_81_1,2023-11-02T04:57:31.663Z,,0,,,NaN,,,,,,false,,,,344782.5,344782.2000000477,,344781.5,,344788.364,8,400,,,
break_continue,html.Screen,4_81_2,2023-11-02T04:57:31.663Z,,0,,,NaN,,,,,,false,,,,344782.8000000715,344782.7000000477,,344782.60000002384,,344788.364,8,400,,,
sequence,flow.Sequence,4_81,2023-11-02T04:57:31.663Z,,0,,,3044.2140000477084,completion,,,,,false,,,,344783,344782.7000000477,341721.82,341736.10000002384,341738.486,344788.364,8,400,,,
trial,html.Screen,4_82_0,2023-11-02T04:57:34.179Z,,0,2,,2510.436000071524,response,ISIC_0070651.JPG,7,ISIC_0032494.JPG,ISIC_0070651.JPG,false,1,keypress(m),500,347299.39999997616,347298.8000000715,344771.698,344783.10000002384,344788.364,347304.93,8,400,33,,ISIC_0032494.JPG
break,html.Screen,4_82_1,2023-11-02T04:57:34.181Z,,0,,,NaN,,,,,,false,,,,347300.60000002384,347300.5,,347299.7000000477,,347304.93,8,400,,,
break_continue,html.Screen,4_82_2,2023-11-02T04:57:34.181Z,,0,,,NaN,,,,,,false,,,,347301,347301,,347300.8000000715,,347304.93,8,400,,,
sequence,flow.Sequence,4_82,2023-11-02T04:57:34.181Z,,0,,,2512.6359999999986,completion,,,,,false,,,,347301.2000000477,347301,344771.698,344783,344788.364,347304.93,8,400,,,
trial,html.Screen,4_83_0,2023-11-02T04:57:37.161Z,,0,2,,2975.8700000715326,response,ISIC_0189336.JPG,8,ISIC_0005062.JPG,ISIC_0189336.JPG,false,1,keypress(m),500,350281.39999997616,350280.8000000715,347288.264,347301.39999997616,347304.93,350289.021,8,400,34,,ISIC_0005062.JPG
break,html.Screen,4_83_1,2023-11-02T04:57:37.163Z,,0,,,NaN,,,,,,false,,,,350282.5,350282.3000000715,,350281.7000000477,,350289.021,8,400,,,
break_continue,html.Screen,4_83_2,2023-11-02T04:57:37.163Z,,0,,,NaN,,,,,,false,,,,350282.89999997616,350282.8000000715,,350282.7000000477,,350289.021,8,400,,,
sequence,flow.Sequence,4_83,2023-11-02T04:57:37.163Z,,0,,,2977.8700000715326,completion,,,,,false,,,,350283.10000002384,350282.8000000715,347288.264,347301.3000000715,347304.93,350289.021,8,400,,,
trial,html.Screen,4_84_0,2023-11-02T04:57:40.178Z,,0,2,,3008.37899997615,response,ISIC_1714941.JPG,6,ISIC_0005686.JPG,ISIC_1714941.JPG,false,1,keypress(m),500,353297.8000000715,353297.39999997616,350272.355,350283.2000000477,350289.021,353305.567,8,400,35,,ISIC_0005686.JPG
break,html.Screen,4_84_1,2023-11-02T04:57:40.179Z,,0,,,NaN,,,,,,false,,,,353298.7000000477,353298.5,,353298.10000002384,,353305.567,8,400,,,
break_continue,html.Screen,4_84_2,2023-11-02T04:57:40.179Z,,0,,,NaN,,,,,,false,,,,353298.89999997616,353298.8000000715,,353298.7000000477,,353305.567,8,400,,,
sequence,flow.Sequence,4_84,2023-11-02T04:57:40.179Z,,0,,,3009.7790000715177,completion,,,,,false,,,,353298.89999997616,353298.8000000715,350272.355,350283.2000000477,350289.021,353305.567,8,400,,,
trial,html.Screen,4_85_0,2023-11-02T04:57:42.998Z,,0,2,,2812.133000047703,response,ISIC_0034042.JPG,6,ISIC_4976189.JPG,ISIC_0034042.JPG,false,1,keypress(m),500,356118.2000000477,356117.7000000477,353288.901,353299,353305.567,356122.121,8,400,36,,ISIC_4976189.JPG
break,html.Screen,4_85_1,2023-11-02T04:57:42.999Z,,0,,,NaN,,,,,,false,,,,356119.39999997616,356119.2000000477,,356118.5,,356122.121,8,400,,,
break_continue,html.Screen,4_85_2,2023-11-02T04:57:42.999Z,,0,,,NaN,,,,,,false,,,,356119.7000000477,356119.60000002384,,356119.5,,356122.121,8,400,,,
sequence,flow.Sequence,4_85,2023-11-02T04:57:43.000Z,,0,,,2814.033000023861,completion,,,,,false,,,,356119.89999997616,356119.60000002384,353288.901,353299,353305.567,356122.121,8,400,,,
trial,html.Screen,4_86_0,2023-11-02T04:57:45.998Z,,0,2,,2995.479000023857,response,ISIC_0204355.JPG,9,ISIC_5022895.JPG,ISIC_5022895.JPG,false,0,keypress(z),500,359118.2000000477,359117.60000002384,356105.455,356120,356122.121,359123.026,8,400,37,,ISIC_0204355.JPG
break,html.Screen,4_86_1,2023-11-02T04:57:45.999Z,,0,,,NaN,,,,,,false,,,,359119.3000000715,359119.10000002384,,359118.39999997616,,359123.026,8,400,,,
break_continue,html.Screen,4_86_2,2023-11-02T04:57:45.999Z,,0,,,NaN,,,,,,false,,,,359119.7000000477,359119.5,,359119.39999997616,,359123.026,8,400,,,
sequence,flow.Sequence,4_86,2023-11-02T04:57:46.000Z,,0,,,2997.3790000000154,completion,,,,,false,,,,359120,359119.5,356105.455,356119.89999997616,356122.121,359123.026,8,400,,,
trial,html.Screen,4_87_0,2023-11-02T04:57:49.047Z,,0,2,,3044.3739999761456,response,ISIC_8747095.JPG,6,ISIC_0061705.JPG,ISIC_0061705.JPG,false,0,keypress(z),500,362167.89999997616,362167.39999997616,359106.36,359120.10000002384,359123.026,362172.904,8,400,38,,ISIC_8747095.JPG
break,html.Screen,4_87_1,2023-11-02T04:57:49.049Z,,0,,,NaN,,,,,,false,,,,362169,362168.8000000715,,362168.2000000477,,362172.904,8,400,,,
break_continue,html.Screen,4_87_2,2023-11-02T04:57:49.049Z,,0,,,NaN,,,,,,false,,,,362169.39999997616,362169.3000000715,,362169.2000000477,,362172.904,8,400,,,
sequence,flow.Sequence,4_87,2023-11-02T04:57:49.049Z,,0,,,3046.274000071513,completion,,,,,false,,,,362169.60000002384,362169.3000000715,359106.36,359120,359123.026,362172.904,8,400,,,
trial,html.Screen,4_88_0,2023-11-02T04:57:51.998Z,,0,2,,2945.396000071545,response,ISIC_7599444.JPG,8,ISIC_7885531.JPG,ISIC_7885531.JPG,false,0,keypress(z),500,365118.5,365118.3000000715,362156.238,362169.7000000477,362172.904,365122.786,8,400,39,,ISIC_7599444.JPG
break,html.Screen,4_88_1,2023-11-02T04:57:51.998Z,,0,,,NaN,,,,,,false,,,,365119.10000002384,365118.89999997616,,365118.60000002384,,365122.786,8,400,,,
break_continue,html.Screen,4_88_2,2023-11-02T04:57:51.999Z,,0,,,NaN,,,,,,false,,,,365119.2000000477,365119.2000000477,,365119.10000002384,,365122.786,8,400,,,
sequence,flow.Sequence,4_88,2023-11-02T04:57:51.999Z,,0,,,2946.2960000477033,completion,,,,,false,,,,365119.3000000715,365119.2000000477,362156.238,362169.7000000477,362172.904,365122.786,8,400,,,
trial,html.Screen,4_89_0,2023-11-02T04:57:54.771Z,,0,2,,2768.5140000715037,response,ISIC_8397285.JPG,8,ISIC_0033967.JPG,ISIC_0033967.JPG,false,0,keypress(z),500,367891.8000000715,367891.3000000715,365106.12,365119.5,365122.786,367906.008,8,400,40,,ISIC_8397285.JPG
break,html.Screen,4_89_1,2023-11-02T04:57:54.772Z,,0,,,NaN,,,,,,false,,,,367893,367892.8000000715,,367892.2000000477,,367906.008,8,400,,,
break_continue,html.Screen,4_89_2,2023-11-02T04:57:54.773Z,,0,,,NaN,,,,,,false,,,,367893.39999997616,367893.2000000477,,367893.2000000477,,367906.008,8,400,,,
sequence,flow.Sequence,4_89,2023-11-02T04:57:54.773Z,,0,,,2770.414000047662,completion,,,,,false,,,,367893.5,367893.2000000477,365106.12,365119.39999997616,365122.786,367906.008,8,400,,,
trial,html.Screen,4_90_0,2023-11-02T04:58:00.762Z,,0,2,,5976.792000071553,response,ISIC_0064376.JPG,7,ISIC_3349562.JPG,ISIC_0064376.JPG,false,1,keypress(m),500,373883.3000000715,373882.8000000715,367889.342,367893.8000000715,367906.008,373890.037,8,400,41,,ISIC_3349562.JPG
break,html.Screen,4_90_1,2023-11-02T04:58:00.763Z,,0,,,NaN,,,,,,false,,,,373884.39999997616,373884.3000000715,,373883.60000002384,,373890.037,8,400,,,
break_continue,html.Screen,4_90_2,2023-11-02T04:58:00.764Z,,0,,,NaN,,,,,,false,,,,373884.8000000715,373884.7000000477,,373884.60000002384,,373890.037,8,400,,,
sequence,flow.Sequence,4_90,2023-11-02T04:58:00.764Z,,0,,,5978.692000047711,completion,,,,,false,,,,373885,373884.7000000477,367889.342,367893.60000002384,367906.008,373890.037,8,400,,,
trial,html.Screen,4_91_0,2023-11-02T04:58:03.761Z,,0,2,,2991.362999976147,response,ISIC_0006116.JPG,7,ISIC_0014117.JPG,ISIC_0014117.JPG,false,0,keypress(z),500,376881.89999997616,376881.39999997616,373873.371,373885.2000000477,373890.037,376889.917,8,400,42,,ISIC_0006116.JPG
break,html.Screen,4_91_1,2023-11-02T04:58:03.762Z,,0,,,NaN,,,,,,false,,,,376883.10000002384,376882.89999997616,,376882.2000000477,,376889.917,8,400,,,
break_continue,html.Screen,4_91_2,2023-11-02T04:58:03.762Z,,0,,,NaN,,,,,,false,,,,376883.39999997616,376883.3000000715,,376883.10000002384,,376889.917,8,400,,,
sequence,flow.Sequence,4_91,2023-11-02T04:58:03.762Z,,0,,,2993.2630000715144,completion,,,,,false,,,,376883.60000002384,376883.3000000715,373873.371,373885.10000002384,373890.037,376889.917,8,400,,,
trial,html.Screen,4_92_0,2023-11-02T04:58:06.455Z,,0,2,,2686.082999999984,response,ISIC_5234605.JPG,9,ISIC_0032806.JPG,ISIC_0032806.JPG,false,0,keypress(z),500,379576.5,379576,376873.251,376883.8000000715,376889.917,379590.671,8,400,43,,ISIC_5234605.JPG
break,html.Screen,4_92_1,2023-11-02T04:58:06.456Z,,0,,,NaN,,,,,,false,,,,379577.60000002384,379577.39999997616,,379576.8000000715,,379590.671,8,400,,,
break_continue,html.Screen,4_92_2,2023-11-02T04:58:06.457Z,,0,,,NaN,,,,,,false,,,,379578.10000002384,379577.89999997616,,379577.8000000715,,379590.671,8,400,,,
sequence,flow.Sequence,4_92,2023-11-02T04:58:06.457Z,,0,,,2687.9829999761423,completion,,,,,false,,,,379578.2000000477,379577.89999997616,376873.251,376883.7000000477,376889.917,379590.671,8,400,,,
trial,html.Screen,4_93_0,2023-11-02T04:58:09.043Z,,0,2,,2573.0290000477107,response,ISIC_0033643.JPG,8,ISIC_1718403.JPG,ISIC_0033643.JPG,false,1,keypress(m),500,382164.2000000477,382163.7000000477,379574.005,379578.39999997616,379590.671,382173.901,8,400,44,,ISIC_1718403.JPG
break,html.Screen,4_93_1,2023-11-02T04:58:09.044Z,,0,,,NaN,,,,,,false,,,,382165.39999997616,382165.10000002384,,382164.5,,382173.901,8,400,,,
break_continue,html.Screen,4_93_2,2023-11-02T04:58:09.044Z,,0,,,NaN,,,,,,false,,,,382165.7000000477,382165.60000002384,,382165.5,,382173.901,8,400,,,
sequence,flow.Sequence,4_93,2023-11-02T04:58:09.045Z,,0,,,2574.929000023869,completion,,,,,false,,,,382165.89999997616,382165.60000002384,379574.005,379578.3000000715,379590.671,382173.901,8,400,,,
trial,html.Screen,4_94_0,2023-11-02T04:58:14.283Z,,0,2,,5230.199000023829,response,ISIC_0010382.JPG,8,ISIC_0047003.JPG,ISIC_0047003.JPG,false,0,keypress(z),500,387404.60000002384,387404.10000002384,382157.235,382166,382173.901,387407.025,8,400,45,,ISIC_0010382.JPG
break,html.Screen,4_94_1,2023-11-02T04:58:14.284Z,,0,,,NaN,,,,,,false,,,,387405.8000000715,387405.5,,387404.89999997616,,387407.025,8,400,,,
break_continue,html.Screen,4_94_2,2023-11-02T04:58:14.285Z,,0,,,NaN,,,,,,false,,,,387406.2000000477,387406,,387405.8000000715,,387407.025,8,400,,,
sequence,flow.Sequence,4_94,2023-11-02T04:58:14.285Z,,0,,,5232.098999999987,completion,,,,,false,,,,387406.3000000715,387406,382157.235,382166,382173.901,387407.025,8,400,,,
trial,html.Screen,4_95_0,2023-11-02T04:58:19.380Z,,0,2,,5093.874999976135,response,ISIC_0072101.JPG,7,ISIC_6272501.JPG,ISIC_0072101.JPG,false,1,keypress(m),500,392501.39999997616,392500.89999997616,387390.359,387406.5,387407.025,392507.776,8,400,46,,ISIC_6272501.JPG
break,html.Screen,4_95_1,2023-11-02T04:58:19.381Z,,0,,,NaN,,,,,,false,,,,392502.5,392502.3000000715,,392501.7000000477,,392507.776,8,400,,,
break_continue,html.Screen,4_95_2,2023-11-02T04:58:19.381Z,,0,,,NaN,,,,,,false,,,,392503,392502.89999997616,,392502.7000000477,,392507.776,8,400,,,
sequence,flow.Sequence,4_95,2023-11-02T04:58:19.381Z,,0,,,5095.874999976135,completion,,,,,false,,,,392503.10000002384,392502.89999997616,387390.359,387406.39999997616,387407.025,392507.776,8,400,,,
trial,html.Screen,4_96_0,2023-11-02T04:58:22.092Z,,0,2,,2705.7239999999874,response,ISIC_0054087.JPG,8,ISIC_4119029.JPG,ISIC_4119029.JPG,false,0,keypress(z),500,395213.89999997616,395213.5,392491.11,392503.3000000715,392507.776,395224.334,8,400,47,,ISIC_0054087.JPG
break,html.Screen,4_96_1,2023-11-02T04:58:22.093Z,,0,,,NaN,,,,,,false,,,,395215,395214.89999997616,,395214.2000000477,,395224.334,8,400,,,
break_continue,html.Screen,4_96_2,2023-11-02T04:58:22.094Z,,0,,,NaN,,,,,,false,,,,395215.39999997616,395215.3000000715,,395215.2000000477,,395224.334,8,400,,,
sequence,flow.Sequence,4_96,2023-11-02T04:58:22.094Z,,0,,,2707.524000071513,completion,,,,,false,,,,395215.60000002384,395215.3000000715,392491.11,392503.3000000715,392507.776,395224.334,8,400,,,
trial,html.Screen,4_97_0,2023-11-02T04:58:26.340Z,,0,2,,4236.766000023868,response,ISIC_0010241.JPG,7,ISIC_0031517.JPG,ISIC_0031517.JPG,false,0,keypress(z),500,399461.7000000477,399461.10000002384,395207.668,395216.8000000715,395224.334,399474.164,8,400,48,,ISIC_0010241.JPG
break,html.Screen,4_97_1,2023-11-02T04:58:26.341Z,,0,,,NaN,,,,,,false,,,,399462.89999997616,399462.60000002384,,399462,,399474.164,8,400,,,
break_continue,html.Screen,4_97_2,2023-11-02T04:58:26.341Z,,0,,,NaN,,,,,,false,,,,399463.3000000715,399463.10000002384,,399463,,399474.164,8,400,,,
sequence,flow.Sequence,4_97,2023-11-02T04:58:26.341Z,,0,,,4238.766000023868,completion,,,,,false,,,,399463.39999997616,399463.10000002384,395207.668,395215.60000002384,395224.334,399474.164,8,400,,,
trial,html.Screen,4_98_0,2023-11-02T04:58:29.739Z,,0,2,,3386.136000071536,response,ISIC_1217314.JPG,8,ISIC_8052769.JPG,ISIC_8052769.JPG,false,0,keypress(z),500,402860.8000000715,402860.3000000715,399457.498,399463.60000002384,399474.164,402874.938,8,400,49,,ISIC_1217314.JPG
break,html.Screen,4_98_1,2023-11-02T04:58:29.740Z,,0,,,NaN,,,,,,false,,,,402861.89999997616,402861.7000000477,,402861.10000002384,,402874.938,8,400,,,
break_continue,html.Screen,4_98_2,2023-11-02T04:58:29.740Z,,0,,,NaN,,,,,,false,,,,402862.39999997616,402862.2000000477,,402862.10000002384,,402874.938,8,400,,,
sequence,flow.Sequence,4_98,2023-11-02T04:58:29.740Z,,0,,,3388.036000047694,completion,,,,,false,,,,402862.5,402862.2000000477,399457.498,399463.60000002384,399474.164,402874.938,8,400,,,
trial,html.Screen,4_99_0,2023-11-02T04:58:32.487Z,,0,2,,2733.4619999761344,response,ISIC_7563949.JPG,8,ISIC_6937905.JPG,ISIC_7563949.JPG,false,1,keypress(m),500,405608.89999997616,405608.39999997616,402858.272,402862.7000000477,402874.938,405624.828,8,400,50,,ISIC_6937905.JPG
break,html.Screen,4_99_1,2023-11-02T04:58:42.491Z,,0,,,10000.559000000008,timeout,,,,,false,,,,415613.5,415608.721,405608.162,405609.2000000477,405624.828,415625.387,8,400,,,
break_continue,html.Screen,4_99_2,2023-11-02T04:58:43.478Z,,0,,,956.8130000476958,response,,,,,false,continue,keypress(Space),,416600.60000002384,416582.2000000477,415608.721,415613.7000000477,415625.387,416608.681,8,400,,,
sequence,flow.Sequence,4_99,2023-11-02T04:58:43.478Z,,0,,,13707.26200004766,completion,,,,,false,,,,416600.8000000715,416582.2000000477,402858.272,402862.7000000477,402874.938,416608.681,8,400,,,
trial,html.Screen,4_100_0,2023-11-02T04:58:46.154Z,,0,3,,2667.6190000715433,response,ISIC_0027266.JPG,8,ISIC_0015264.JPG,ISIC_0027266.JPG,false,1,keypress(m),500,419276.89999997616,419276.3000000715,416592.015,416600.89999997616,416608.681,419291.907,8,400,1,,ISIC_0015264.JPG
break,html.Screen,4_100_1,2023-11-02T04:58:46.155Z,,0,,,NaN,,,,,,false,,,,419278.10000002384,419277.89999997616,,419277.2000000477,,419291.907,8,400,,,
break_continue,html.Screen,4_100_2,2023-11-02T04:58:46.156Z,,0,,,NaN,,,,,,false,,,,419278.5,419278.39999997616,,419278.3000000715,,419291.907,8,400,,,
sequence,flow.Sequence,4_100,2023-11-02T04:58:46.156Z,,0,,,2669.718999976176,completion,,,,,false,,,,419278.60000002384,419278.39999997616,416592.015,416600.8000000715,416608.681,419291.907,8,400,,,
trial,html.Screen,4_101_0,2023-11-02T04:58:48.705Z,,0,3,,2535.4929999761516,response,ISIC_0000423.JPG,8,ISIC_0062525.JPG,ISIC_0062525.JPG,false,0,keypress(z),500,421827.89999997616,421827.39999997616,419275.241,419278.8000000715,419291.907,421842.693,8,400,2,,ISIC_0000423.JPG
break,html.Screen,4_101_1,2023-11-02T04:58:48.706Z,,0,,,NaN,,,,,,false,,,,421829.10000002384,421828.89999997616,,421828.2000000477,,421842.693,8,400,,,
break_continue,html.Screen,4_101_2,2023-11-02T04:58:48.706Z,,0,,,NaN,,,,,,false,,,,421829.39999997616,421829.3000000715,,421829.3000000715,,421842.693,8,400,,,
sequence,flow.Sequence,4_101,2023-11-02T04:58:48.707Z,,0,,,2537.393000071519,completion,,,,,false,,,,421829.60000002384,421829.3000000715,419275.241,419278.8000000715,419291.907,421842.693,8,400,,,
trial,html.Screen,4_102_0,2023-11-02T04:58:51.448Z,,0,3,,2727.8069999999716,response,ISIC_0016085.JPG,7,ISIC_1067390.JPG,ISIC_0016085.JPG,false,1,keypress(m),500,424571,424570.5,421826.027,421829.8000000715,421842.693,424575.917,8,400,3,,ISIC_1067390.JPG
break,html.Screen,4_102_1,2023-11-02T04:58:51.449Z,,0,,,NaN,,,,,,false,,,,424572.3000000715,424572,,424571.3000000715,,424575.917,8,400,,,
break_continue,html.Screen,4_102_2,2023-11-02T04:58:51.450Z,,0,,,NaN,,,,,,false,,,,424572.60000002384,424572.5,,424572.39999997616,,424575.917,8,400,,,
sequence,flow.Sequence,4_102,2023-11-02T04:58:51.450Z,,0,,,2729.8069999999716,completion,,,,,false,,,,424572.8000000715,424572.5,421826.027,421829.7000000477,421842.693,424575.917,8,400,,,
trial,html.Screen,4_103_0,2023-11-02T04:58:54.260Z,,0,3,,2806.783000047668,response,ISIC_0071771.JPG,5,ISIC_4248013.JPG,ISIC_0071771.JPG,false,1,keypress(m),500,427383.2000000477,427382.7000000477,424559.251,424573,424575.917,427392.471,8,400,4,,ISIC_4248013.JPG
break,html.Screen,4_103_1,2023-11-02T04:58:54.261Z,,0,,,NaN,,,,,,false,,,,427384.3000000715,427384.2000000477,,427383.5,,427392.471,8,400,,,
break_continue,html.Screen,4_103_2,2023-11-02T04:58:54.261Z,,0,,,NaN,,,,,,false,,,,427384.7000000477,427384.60000002384,,427384.39999997616,,427392.471,8,400,,,
sequence,flow.Sequence,4_103,2023-11-02T04:58:54.262Z,,0,,,2808.683000023826,completion,,,,,false,,,,427384.89999997616,427384.60000002384,424559.251,424572.89999997616,424575.917,427392.471,8,400,,,
trial,html.Screen,4_104_0,2023-11-02T04:58:57.103Z,,0,3,,2833.4289999761386,response,ISIC_0065022.JPG,4,ISIC_0010611.JPG,ISIC_0065022.JPG,false,1,keypress(m),500,430226.2000000477,430225.89999997616,427375.805,427385.10000002384,427392.471,430242.357,8,400,5,,ISIC_0010611.JPG
break,html.Screen,4_104_1,2023-11-02T04:58:57.104Z,,0,,,NaN,,,,,,false,,,,430227.10000002384,430227,,430226.39999997616,,430242.357,8,400,,,
break_continue,html.Screen,4_104_2,2023-11-02T04:58:57.104Z,,0,,,NaN,,,,,,false,,,,430227.60000002384,430227.39999997616,,430227.3000000715,,430242.357,8,400,,,
sequence,flow.Sequence,4_104,2023-11-02T04:58:57.105Z,,0,,,2834.9289999761386,completion,,,,,false,,,,430227.89999997616,430227.39999997616,427375.805,427385,427392.471,430242.357,8,400,,,
trial,html.Screen,4_105_0,2023-11-02T04:58:59.835Z,,0,3,,2715.3430000476656,response,ISIC_9483306.JPG,7,ISIC_2605120.JPG,ISIC_2605120.JPG,false,0,keypress(z),500,432958.2000000477,432957.7000000477,430225.691,430228,430242.357,432959.909,8,400,6,,ISIC_9483306.JPG
break,html.Screen,4_105_1,2023-11-02T04:58:59.836Z,,0,,,NaN,,,,,,false,,,,432959.39999997616,432959.10000002384,,432958.5,,432959.909,8,400,,,
break_continue,html.Screen,4_105_2,2023-11-02T04:58:59.836Z,,0,,,NaN,,,,,,false,,,,432959.8000000715,432959.60000002384,,432959.5,,432959.909,8,400,,,
sequence,flow.Sequence,4_105,2023-11-02T04:58:59.837Z,,0,,,2717.2430000238237,completion,,,,,false,,,,432960,432959.60000002384,430225.691,430228,430242.357,432959.909,8,400,,,
trial,html.Screen,4_106_0,2023-11-02T04:59:02.450Z,,0,3,,2613.2910000476986,response,ISIC_3327201.JPG,5,ISIC_8458843.JPG,ISIC_3327201.JPG,false,1,keypress(m),500,435573.7000000477,435573.2000000477,432943.243,432960.10000002384,432959.909,435576.471,8,400,7,,ISIC_8458843.JPG
break,html.Screen,4_106_1,2023-11-02T04:59:02.451Z,,0,,,NaN,,,,,,false,,,,435574.89999997616,435574.7000000477,,435574,,435576.471,8,400,,,
break_continue,html.Screen,4_106_2,2023-11-02T04:59:02.452Z,,0,,,NaN,,,,,,false,,,,435575.3000000715,435575.2000000477,,435575,,435576.471,8,400,,,
sequence,flow.Sequence,4_106,2023-11-02T04:59:02.452Z,,0,,,2615.2910000476986,completion,,,,,false,,,,435575.5,435575.2000000477,432943.243,432960,432959.909,435576.471,8,400,,,
trial,html.Screen,4_107_0,2023-11-02T04:59:05.053Z,,0,3,,2599.4289999761386,response,ISIC_0027271.JPG,5,ISIC_2221217.JPG,ISIC_2221217.JPG,false,0,keypress(z),500,438176.39999997616,438175.89999997616,435559.805,435575.60000002384,435576.471,438193.033,8,400,8,,ISIC_0027271.JPG
break,html.Screen,4_107_1,2023-11-02T04:59:05.054Z,,0,,,NaN,,,,,,false,,,,438177.60000002384,438177.39999997616,,438176.7000000477,,438193.033,8,400,,,
break_continue,html.Screen,4_107_2,2023-11-02T04:59:05.054Z,,0,,,NaN,,,,,,false,,,,438178,438177.8000000715,,438177.7000000477,,438193.033,8,400,,,
sequence,flow.Sequence,4_107,2023-11-02T04:59:05.054Z,,0,,,2601.329000071506,completion,,,,,false,,,,438178.10000002384,438177.8000000715,435559.805,435575.5,435576.471,438193.033,8,400,,,
trial,html.Screen,4_108_0,2023-11-02T04:59:08.051Z,,0,3,,2981.667000047688,response,ISIC_0066203.JPG,8,ISIC_0015193.JPG,ISIC_0015193.JPG,false,0,keypress(z),500,441175.2000000477,441174.7000000477,438176.367,438178.3000000715,438193.033,441177.107,8,400,9,,ISIC_0066203.JPG
break,html.Screen,4_108_1,2023-11-02T04:59:08.053Z,,0,,,NaN,,,,,,false,,,,441176.39999997616,441176.2000000477,,441175.39999997616,,441177.107,8,400,,,
break_continue,html.Screen,4_108_2,2023-11-02T04:59:08.053Z,,0,,,NaN,,,,,,false,,,,441176.8000000715,441176.60000002384,,441176.5,,441177.107,8,400,,,
sequence,flow.Sequence,4_108,2023-11-02T04:59:08.053Z,,0,,,2983.567000023846,completion,,,,,false,,,,441176.89999997616,441176.60000002384,438176.367,438178.3000000715,438193.033,441177.107,8,400,,,
trial,html.Screen,4_109_0,2023-11-02T04:59:11.194Z,,0,3,,3140.29299997614,response,ISIC_3727059.JPG,8,ISIC_5576250.JPG,ISIC_3727059.JPG,false,1,keypress(m),500,444317.8000000715,444317.39999997616,441160.441,441177.10000002384,441177.107,444326.981,8,400,10,,ISIC_5576250.JPG
break,html.Screen,4_109_1,2023-11-02T04:59:11.195Z,,0,,,NaN,,,,,,false,,,,444319,444318.8000000715,,444318.10000002384,,444326.981,8,400,,,
break_continue,html.Screen,4_109_2,2023-11-02T04:59:11.195Z,,0,,,NaN,,,,,,false,,,,444319.39999997616,444319.2000000477,,444319.2000000477,,444326.981,8,400,,,
sequence,flow.Sequence,4_109,2023-11-02T04:59:11.196Z,,0,,,3142.0930000476656,completion,,,,,false,,,,444319.60000002384,444319.2000000477,441160.441,441177,441177.107,444326.981,8,400,,,
trial,html.Screen,4_110_0,2023-11-02T04:59:14.292Z,,0,3,,3088.518999999971,response,ISIC_0054395.JPG,4,ISIC_8814398.JPG,ISIC_0054395.JPG,false,1,keypress(m),500,447416,447415.5,444310.315,444319.7000000477,444326.981,447426.857,8,400,11,,ISIC_8814398.JPG
break,html.Screen,4_110_1,2023-11-02T04:59:14.293Z,,0,,,NaN,,,,,,false,,,,447417.2000000477,447417,,447416.39999997616,,447426.857,8,400,,,
break_continue,html.Screen,4_110_2,2023-11-02T04:59:14.294Z,,0,,,NaN,,,,,,false,,,,447417.60000002384,447417.5,,447417.39999997616,,447426.857,8,400,,,
sequence,flow.Sequence,4_110,2023-11-02T04:59:14.294Z,,0,,,3090.518999999971,completion,,,,,false,,,,447417.8000000715,447417.5,444310.315,444319.60000002384,444326.981,447426.857,8,400,,,
trial,html.Screen,4_111_0,2023-11-02T04:59:16.906Z,,0,3,,2603.2430000238237,response,ISIC_4529092.JPG,8,ISIC_0027420.JPG,ISIC_0027420.JPG,false,0,keypress(z),500,450030.60000002384,450030.10000002384,447410.191,447417.89999997616,447426.857,450043.419,8,400,12,,ISIC_4529092.JPG
break,html.Screen,4_111_1,2023-11-02T04:59:16.908Z,,0,,,NaN,,,,,,false,,,,450031.8000000715,450031.7000000477,,450031,,450043.419,8,400,,,
break_continue,html.Screen,4_111_2,2023-11-02T04:59:16.908Z,,0,,,NaN,,,,,,false,,,,450032.2000000477,450032.10000002384,,450031.89999997616,,450043.419,8,400,,,
sequence,flow.Sequence,4_111,2023-11-02T04:59:16.908Z,,0,,,2605.2430000238237,completion,,,,,false,,,,450032.39999997616,450032.10000002384,447410.191,447417.89999997616,447426.857,450043.419,8,400,,,
trial,html.Screen,4_112_0,2023-11-02T04:59:20.820Z,,0,3,,3900.2810000476893,response,ISIC_1590829.JPG,5,ISIC_1768733.JPG,ISIC_1590829.JPG,false,1,keypress(m),500,453944.3000000715,453943.7000000477,450026.753,450032.60000002384,450043.419,453960.867,8,400,13,,ISIC_1768733.JPG
break,html.Screen,4_112_1,2023-11-02T04:59:20.821Z,,0,,,NaN,,,,,,false,,,,453945.39999997616,453945.2000000477,,453944.60000002384,,453960.867,8,400,,,
break_continue,html.Screen,4_112_2,2023-11-02T04:59:20.821Z,,0,,,NaN,,,,,,false,,,,453945.8000000715,453945.60000002384,,453945.5,,453960.867,8,400,,,
sequence,flow.Sequence,4_112,2023-11-02T04:59:20.822Z,,0,,,3902.1810000238474,completion,,,,,false,,,,453945.89999997616,453945.60000002384,450026.753,450032.5,450043.419,453960.867,8,400,,,
trial,html.Screen,4_113_0,2023-11-02T04:59:23.884Z,,0,3,,3046.7330000238144,response,ISIC_7724764.JPG,8,ISIC_0066740.JPG,ISIC_0066740.JPG,false,0,keypress(z),500,457008.10000002384,457007.60000002384,453944.201,453946,453960.867,457010.745,8,400,14,,ISIC_7724764.JPG
break,html.Screen,4_113_1,2023-11-02T04:59:23.885Z,,0,,,NaN,,,,,,false,,,,457009.39999997616,457009.2000000477,,457008.5,,457010.745,8,400,,,
break_continue,html.Screen,4_113_2,2023-11-02T04:59:23.885Z,,0,,,NaN,,,,,,false,,,,457009.7000000477,457009.60000002384,,457009.5,,457010.745,8,400,,,
sequence,flow.Sequence,4_113,2023-11-02T04:59:23.885Z,,0,,,3048.7330000238144,completion,,,,,false,,,,457009.89999997616,457009.60000002384,453944.201,453946,453960.867,457010.745,8,400,,,
trial,html.Screen,4_114_0,2023-11-02T04:59:26.274Z,,0,3,,2386.9550000476884,response,ISIC_0031221.JPG,7,ISIC_5992534.JPG,ISIC_5992534.JPG,false,0,keypress(z),500,459398.3000000715,459397.7000000477,456994.079,457010,457010.745,459410.649,8,400,15,,ISIC_0031221.JPG
break,html.Screen,4_114_1,2023-11-02T04:59:26.275Z,,0,,,NaN,,,,,,false,,,,459399.39999997616,459399.2000000477,,459398.5,,459410.649,8,400,,,
break_continue,html.Screen,4_114_2,2023-11-02T04:59:26.275Z,,0,,,NaN,,,,,,false,,,,459399.8000000715,459399.60000002384,,459399.5,,459410.649,8,400,,,
sequence,flow.Sequence,4_114,2023-11-02T04:59:26.275Z,,0,,,2388.8550000238465,completion,,,,,false,,,,459399.89999997616,459399.60000002384,456994.079,457010,457010.745,459410.649,8,400,,,
trial,html.Screen,4_115_0,2023-11-02T04:59:29.416Z,,0,3,,3129.451000023866,response,ISIC_0011493.JPG,8,ISIC_0026652.JPG,ISIC_0011493.JPG,false,1,keypress(m),500,462540.5,462540.10000002384,459393.983,459400.10000002384,459410.649,462544.947,8,400,16,,ISIC_0026652.JPG
break,html.Screen,4_115_1,2023-11-02T04:59:29.417Z,,0,,,NaN,,,,,,false,,,,462541.7000000477,462541.39999997616,,462540.89999997616,,462544.947,8,400,,,
break_continue,html.Screen,4_115_2,2023-11-02T04:59:29.417Z,,0,,,NaN,,,,,,false,,,,462542.10000002384,462541.89999997616,,462541.89999997616,,462544.947,8,400,,,
sequence,flow.Sequence,4_115,2023-11-02T04:59:29.418Z,,0,,,3131.2509999761824,completion,,,,,false,,,,462542.3000000715,462541.89999997616,459393.983,459400.10000002384,459410.649,462544.947,8,400,,,
trial,html.Screen,4_116_0,2023-11-02T04:59:31.919Z,,0,3,,2498.4529999761726,response,ISIC_0058315.JPG,9,ISIC_6285076.JPG,ISIC_0058315.JPG,false,1,keypress(m),500,465043.8000000715,465043.39999997616,462528.281,462542.5,462544.947,465044.847,8,400,17,,ISIC_6285076.JPG
break,html.Screen,4_116_1,2023-11-02T04:59:31.920Z,,0,,,NaN,,,,,,false,,,,465044.5,465044.3000000715,,465043.89999997616,,465044.847,8,400,,,
break_continue,html.Screen,4_116_2,2023-11-02T04:59:31.920Z,,0,,,NaN,,,,,,false,,,,465044.7000000477,465044.60000002384,,465044.60000002384,,465044.847,8,400,,,
sequence,flow.Sequence,4_116,2023-11-02T04:59:31.920Z,,0,,,2499.6530000238563,completion,,,,,false,,,,465044.8000000715,465044.60000002384,462528.281,462542.39999997616,462544.947,465044.847,8,400,,,
trial,html.Screen,4_117_0,2023-11-02T04:59:34.709Z,,0,3,,2788.5529999761493,response,ISIC_0010304.JPG,9,ISIC_0064072.JPG,ISIC_0064072.JPG,false,0,keypress(z),500,467834,467833.39999997616,465028.181,465044.89999997616,465044.847,467844.735,8,400,18,,ISIC_0010304.JPG
break,html.Screen,4_117_1,2023-11-02T04:59:34.710Z,,0,,,NaN,,,,,,false,,,,467835.10000002384,467834.89999997616,,467834.3000000715,,467844.735,8,400,,,
break_continue,html.Screen,4_117_2,2023-11-02T04:59:34.711Z,,0,,,NaN,,,,,,false,,,,467835.5,467835.39999997616,,467835.3000000715,,467844.735,8,400,,,
sequence,flow.Sequence,4_117,2023-11-02T04:59:34.711Z,,0,,,2790.5529999761493,completion,,,,,false,,,,467835.7000000477,467835.39999997616,465028.181,465044.8000000715,465044.847,467844.735,8,400,,,
trial,html.Screen,4_118_0,2023-11-02T04:59:37.581Z,,0,3,,2860.365000023856,response,ISIC_2196127.JPG,7,ISIC_4648593.JPG,ISIC_4648593.JPG,false,0,keypress(z),500,470705.7000000477,470705.10000002384,467828.069,467835.89999997616,467844.735,470711.287,8,400,19,,ISIC_2196127.JPG
break,html.Screen,4_118_1,2023-11-02T04:59:37.582Z,,0,,,NaN,,,,,,false,,,,470707,470706.7000000477,,470706,,470711.287,8,400,,,
break_continue,html.Screen,4_118_2,2023-11-02T04:59:37.582Z,,0,,,NaN,,,,,,false,,,,470707.3000000715,470707.3000000715,,470707.10000002384,,470711.287,8,400,,,
sequence,flow.Sequence,4_118,2023-11-02T04:59:37.583Z,,0,,,2862.5650000715395,completion,,,,,false,,,,470707.5,470707.3000000715,467828.069,467835.8000000715,467844.735,470711.287,8,400,,,
trial,html.Screen,4_119_0,2023-11-02T04:59:40.324Z,,0,3,,2737.212999999989,response,ISIC_0030911.JPG,9,ISIC_0001119.JPG,ISIC_0030911.JPG,false,1,keypress(m),500,473449,473448.5,470694.621,470707.7000000477,470711.287,473462.102,8,400,20,,ISIC_0001119.JPG
break,html.Screen,4_119_1,2023-11-02T04:59:40.325Z,,0,,,NaN,,,,,,false,,,,473450.2000000477,473449.89999997616,,473449.3000000715,,473462.102,8,400,,,
break_continue,html.Screen,4_119_2,2023-11-02T04:59:40.325Z,,0,,,NaN,,,,,,false,,,,473450.60000002384,473450.39999997616,,473450.3000000715,,473462.102,8,400,,,
sequence,flow.Sequence,4_119,2023-11-02T04:59:40.326Z,,0,,,2739.112999976147,completion,,,,,false,,,,473450.7000000477,473450.39999997616,470694.621,470707.60000002384,470711.287,473462.102,8,400,,,
trial,html.Screen,4_120_0,2023-11-02T04:59:46.826Z,,0,3,,6489.297999976145,response,ISIC_1585511.JPG,6,ISIC_2704046.JPG,ISIC_1585511.JPG,false,1,keypress(m),500,479951.89999997616,479951.39999997616,473445.436,473450.8000000715,473462.102,479961.842,8,400,21,,ISIC_2704046.JPG
break,html.Screen,4_120_1,2023-11-02T04:59:46.828Z,,0,,,NaN,,,,,,false,,,,479953.2000000477,479952.8000000715,,479952.2000000477,,479961.842,8,400,,,
break_continue,html.Screen,4_120_2,2023-11-02T04:59:46.828Z,,0,,,NaN,,,,,,false,,,,479953.5,479953.3000000715,,479953.3000000715,,479961.842,8,400,,,
sequence,flow.Sequence,4_120,2023-11-02T04:59:46.828Z,,0,,,6491.198000071512,completion,,,,,false,,,,479953.60000002384,479953.3000000715,473445.436,473450.8000000715,473462.102,479961.842,8,400,,,
trial,html.Screen,4_121_0,2023-11-02T04:59:50.416Z,,0,3,,3579.2580000238377,response,ISIC_0033496.JPG,7,ISIC_6377622.JPG,ISIC_6377622.JPG,false,0,keypress(z),500,483541.60000002384,483541.10000002384,479945.176,479953.89999997616,479961.842,483546.014,8,400,22,,ISIC_0033496.JPG
break,html.Screen,4_121_1,2023-11-02T04:59:50.417Z,,0,,,NaN,,,,,,false,,,,483542.8000000715,483542.60000002384,,483541.89999997616,,483546.014,8,400,,,
break_continue,html.Screen,4_121_2,2023-11-02T04:59:50.418Z,,0,,,NaN,,,,,,false,,,,483543.2000000477,483543.10000002384,,483542.89999997616,,483546.014,8,400,,,
sequence,flow.Sequence,4_121,2023-11-02T04:59:50.418Z,,0,,,3581.2580000238377,completion,,,,,false,,,,483543.39999997616,483543.10000002384,479945.176,479953.8000000715,479961.842,483546.014,8,400,,,
trial,html.Screen,4_122_0,2023-11-02T04:59:54.821Z,,0,3,,4400.686000047659,response,ISIC_0002258.JPG,6,ISIC_6511689.JPG,ISIC_0002258.JPG,false,1,keypress(m),500,487947.2000000477,487946.7000000477,483529.348,483543.5,483546.014,487962.504,8,400,23,,ISIC_6511689.JPG
break,html.Screen,4_122_1,2023-11-02T04:59:54.823Z,,0,,,NaN,,,,,,false,,,,487948.5,487948.2000000477,,487947.60000002384,,487962.504,8,400,,,
break_continue,html.Screen,4_122_2,2023-11-02T04:59:54.823Z,,0,,,NaN,,,,,,false,,,,487949,487948.8000000715,,487948.7000000477,,487962.504,8,400,,,
sequence,flow.Sequence,4_122,2023-11-02T04:59:54.823Z,,0,,,4402.786000071501,completion,,,,,false,,,,487949.2000000477,487948.8000000715,483529.348,483543.5,483546.014,487962.504,8,400,,,
trial,html.Screen,4_123_0,2023-11-02T04:59:58.653Z,,0,3,,3815.4959999999846,response,ISIC_0005139.JPG,6,ISIC_5625747.JPG,ISIC_0005139.JPG,false,1,keypress(m),500,491778.5,491778,487945.838,487949.3000000715,487962.504,491795.684,8,400,24,,ISIC_5625747.JPG
break,html.Screen,4_123_1,2023-11-02T04:59:58.654Z,,0,,,NaN,,,,,,false,,,,491779.7000000477,491779.5,,491778.8000000715,,491795.684,8,400,,,
break_continue,html.Screen,4_123_2,2023-11-02T04:59:58.654Z,,0,,,NaN,,,,,,false,,,,491780.2000000477,491780,,491779.89999997616,,491795.684,8,400,,,
sequence,flow.Sequence,4_123,2023-11-02T04:59:58.654Z,,0,,,3817.4959999999846,completion,,,,,false,,,,491780.3000000715,491780,487945.838,487949.3000000715,487962.504,491795.684,8,400,,,
trial,html.Screen,4_124_0,2023-11-02T05:00:02.104Z,,0,3,,3433.616000071517,response,ISIC_0068696.JPG,8,ISIC_0011135.JPG,ISIC_0011135.JPG,false,0,keypress(z),500,495229.8000000715,495229.3000000715,491779.018,491780.5,491795.684,495246.475,8,400,25,,ISIC_0068696.JPG
break,html.Screen,4_124_1,2023-11-02T05:00:02.105Z,,0,,,NaN,,,,,,false,,,,495231.10000002384,495230.8000000715,,495230.10000002384,,495246.475,8,400,,,
break_continue,html.Screen,4_124_2,2023-11-02T05:00:02.106Z,,0,,,NaN,,,,,,false,,,,495231.60000002384,495231.3000000715,,495231.2000000477,,495246.475,8,400,,,
sequence,flow.Sequence,4_124,2023-11-02T05:00:02.106Z,,0,,,3435.616000071517,completion,,,,,false,,,,495231.8000000715,495231.3000000715,491779.018,491780.39999997616,491795.684,495246.475,8,400,,,
trial,html.Screen,4_125_0,2023-11-02T05:00:04.701Z,,0,3,,2580.325000071549,response,ISIC_0027431.JPG,8,ISIC_7543736.JPG,ISIC_0027431.JPG,false,1,keypress(m),500,497827,497826.8000000715,495229.809,495231.89999997616,495246.475,497846.371,8,400,26,,ISIC_7543736.JPG
break,html.Screen,4_125_1,2023-11-02T05:00:04.701Z,,0,,,NaN,,,,,,false,,,,497827.7000000477,497827.5,,497827.10000002384,,497846.371,8,400,,,
