sender,sender_type,sender_id,timestamp,meta,,blockNo,condition,duration,ended_on,img_left,img_reveal,img_right,loser,practice,response,response_action,selection_duration,time_commit,time_end,time_render,time_run,time_show,time_switch,total_blocks,total_trials,trialNo,url,winner
informed_consent,html.Screen,0,2023-09-15T17:56:20.099Z,"{""labjs_version"":""20.2.4"",""labjs_build"":{""flavor"":""production"",""commit"":""f5b4a49f956347addd546a832a3327688c2c0fef""},""location"":""https://run.pavlovia.org/MurrayBennett/melanoma-2afc/?participant=66429&platform=sona"",""userAgent"":""Mozilla/5.0 (Windows NT 10.0; Win64; x64) AppleWebKit/537.36 (KHTML, like Gecko) Chrome/116.0.0.0 Safari/537.36"",""platform"":""Win32"",""language"":""en-US"",""locale"":""en-US"",""timeZone"":""America/Chicago"",""timezoneOffset"":300,""screen_width"":2560,""screen_height"":1080,""scroll_width"":2560,""scroll_height"":907,""window_innerWidth"":2560,""window_innerHeight"":955,""devicePixelRatio"":1}",,,,2475.553,response,,,,,,consent,click button,,4840.4000000059605,4838.5,2346.171,2335.5999999940395,2362.947,4849.618,,,,"{""participant"":""66429"",""platform"":""sona""}",
Welcome,html.Screen,1,2023-09-15T17:56:21.898Z,,,,symmetry,1788.78200000596,response,,,,,,continue,click button,,6639.299999982119,6638.4000000059605,4832.945,4840.5999999940395,4849.618,6652.088,,,,,
trial,html.Screen,2_0_0,2023-09-15T17:56:25.889Z,,0,0,,3977.8120000059607,response,ISIC_0069348.JPG,,ISIC_6997061.JPG,ISIC_0069348.JPG,true,1,keypress(m),500,10630.09999999404,10629.90000000596,6635.337,6639.4000000059605,6652.088,10640.879,1,6,1,,ISIC_6997061.JPG
sequence,flow.Sequence,2_0,2023-09-15T17:56:25.889Z,,0,,,3977.8120000059607,completion,,,,,true,,,,10630.5,10629.90000000596,6635.337,6639.4000000059605,6652.088,10640.879,1,6,,,
trial,html.Screen,2_1_0,2023-09-15T17:56:28.600Z,,0,0,,2699.8209999880783,response,ISIC_0057368.JPG,,ISIC_0009529.JPG,ISIC_0057368.JPG,true,1,keypress(m),500,13340.90000000596,13340.699999988079,10624.102,10630.59999999404,10640.879,13344.471,1,6,2,,ISIC_0009529.JPG
sequence,flow.Sequence,2_1,2023-09-15T17:56:28.600Z,,0,,,2699.8209999880783,completion,,,,,true,,,,13341,13340.699999988079,10624.102,10630.5,10640.879,13344.471,1,6,,,
trial,html.Screen,2_2_0,2023-09-15T17:56:31.641Z,,0,0,,3037.929000005961,response,ISIC_9758671.JPG,,ISIC_0064954.JPG,ISIC_9758671.JPG,true,1,keypress(m),500,16382.59999999404,16382.40000000596,13327.736,13341.199999988079,13344.471,16398.581,1,6,3,,ISIC_0064954.JPG
sequence,flow.Sequence,2_2,2023-09-15T17:56:31.641Z,,0,,,3037.929000005961,completion,,,,,true,,,,16382.699999988079,16382.40000000596,13327.736,13341.09999999404,13344.471,16398.581,1,6,,,
trial,html.Screen,2_3_0,2023-09-15T17:56:34.347Z,,0,0,,2689.2189999821203,response,ISIC_0000080.JPG,,ISIC_0005785.JPG,ISIC_0005785.JPG,true,0,keypress(z),500,19088.09999999404,19087.79999998212,16382.008,16382.90000000596,16398.581,19102.282,1,6,4,,ISIC_0000080.JPG
sequence,flow.Sequence,2_3,2023-09-15T17:56:34.347Z,,0,,,2689.2189999821203,completion,,,,,true,,,,19088.29999998212,19087.79999998212,16382.008,16382.799999982119,16398.581,19102.282,1,6,,,
trial,html.Screen,2_4_0,2023-09-15T17:56:36.895Z,,0,0,,2533.618000005961,response,ISIC_5390060.JPG,,ISIC_7944028.JPG,ISIC_5390060.JPG,true,1,keypress(m),500,21636.09999999404,21635.90000000596,19085.575,19088.40000000596,19102.282,21639.037,1,6,5,,ISIC_7944028.JPG
sequence,flow.Sequence,2_4,2023-09-15T17:56:36.895Z,,0,,,2533.618000005961,completion,,,,,true,,,,21636.40000000596,21635.90000000596,19085.575,19088.40000000596,19102.282,21639.037,1,6,,,
trial,html.Screen,2_5_0,2023-09-15T17:56:39.473Z,,0,0,,2575.162999988079,response,ISIC_0794216.JPG,,ISIC_0010188.JPG,ISIC_0010188.JPG,true,0,keypress(z),500,24214.40000000596,24214.19999998808,21622.333,21636.5,21639.037,24225.868,1,6,6,,ISIC_0794216.JPG
sequence,flow.Sequence,2_5,2023-09-15T17:56:39.473Z,,0,,,2575.162999988079,completion,,,,,true,,,,24214.59999999404,24214.19999998808,21622.333,21636.5,21639.037,24225.868,1,6,,,
loop,flow.Loop,2,2023-09-15T17:56:39.473Z,,,,,17562.11199998808,completion,,,,,true,,,,24214.69999998808,24214.19999998808,6635.337,6639.4000000059605,6652.088,24225.868,1,6,,,
exp_instructions,html.Screen,3,2023-09-15T17:56:40.202Z,,,,,716.93199998212,response,,,,,,continue,keypress(Space),,24943.5,24942.79999998212,24209.131,24214.79999998212,24225.868,24960.307,,,,,
trial,html.Screen,4_0_0,2023-09-15T17:56:44.640Z,,0,1,,4420.692999999999,response,ISIC_0030922.JPG,5,ISIC_0026558.JPG,ISIC_0026558.JPG,false,0,keypress(z),500,29381.09999999404,29381,24943.428,24943.59999999404,24960.307,29382.882,8,400,1,,ISIC_0030922.JPG
break,html.Screen,4_0_1,2023-09-15T17:56:44.641Z,,0,,,NaN,,,,,,false,,,,29381.79999998212,29381.69999998808,,29381.19999998808,,29382.882,8,400,,,
break_continue,html.Screen,4_0_2,2023-09-15T17:56:44.641Z,,0,,,NaN,,,,,,false,,,,29382.09999999404,29382,,29381.90000000596,,29382.882,8,400,,,
sequence,flow.Sequence,4_0,2023-09-15T17:56:44.641Z,,0,,,4421.692999999999,completion,,,,,false,,,,29382.09999999404,29382,24943.428,24943.59999999404,24960.307,29382.882,8,400,,,
trial,html.Screen,4_1_0,2023-09-15T17:56:47.730Z,,0,1,,3088.3179999880776,response,ISIC_0060937.JPG,6,ISIC_2412888.JPG,ISIC_2412888.JPG,false,0,keypress(z),500,32471.40000000596,32471.19999998808,29366.169,29382.19999998808,29382.882,32487.158,8,400,2,,ISIC_0060937.JPG
break,html.Screen,4_1_1,2023-09-15T17:56:47.731Z,,0,,,NaN,,,,,,false,,,,32472.19999998808,32472,,32471.59999999404,,32487.158,8,400,,,
break_continue,html.Screen,4_1_2,2023-09-15T17:56:47.731Z,,0,,,NaN,,,,,,false,,,,32472.40000000596,32472.40000000596,,32472.29999998212,,32487.158,8,400,,,
sequence,flow.Sequence,4_1,2023-09-15T17:56:47.731Z,,0,,,3089.518000005959,completion,,,,,false,,,,32472.5,32472.40000000596,29366.169,29382.19999998808,29382.882,32487.158,8,400,,,
trial,html.Screen,4_2_0,2023-09-15T17:56:50.984Z,,0,1,,3237.8420000000006,response,ISIC_7740023.JPG,5,ISIC_1924949.JPG,ISIC_7740023.JPG,false,1,keypress(m),500,35725.29999998212,35725,32470.305,32472.59999999404,32487.158,35741.584,8,400,3,,ISIC_1924949.JPG
break,html.Screen,4_2_1,2023-09-15T17:56:50.985Z,,0,,,NaN,,,,,,false,,,,35726.29999998212,35726.09999999404,,35725.5,,35741.584,8,400,,,
break_continue,html.Screen,4_2_2,2023-09-15T17:56:50.985Z,,0,,,NaN,,,,,,false,,,,35726.5,35726.40000000596,,35726.29999998212,,35741.584,8,400,,,
sequence,flow.Sequence,4_2,2023-09-15T17:56:50.985Z,,0,,,3239.242000005961,completion,,,,,false,,,,35726.59999999404,35726.40000000596,32470.305,32472.59999999404,32487.158,35741.584,8,400,,,
trial,html.Screen,4_3_0,2023-09-15T17:56:54.064Z,,0,1,,3064.015999994037,response,ISIC_7164403.JPG,6,ISIC_0014308.JPG,ISIC_0014308.JPG,false,0,keypress(z),500,38805.69999998808,38805.59999999404,35724.627,35726.79999998212,35741.584,38812.429,8,400,4,,ISIC_7164403.JPG
break,html.Screen,4_3_1,2023-09-15T17:56:54.065Z,,0,,,NaN,,,,,,false,,,,38806.40000000596,38806.29999998212,,38805.90000000596,,38812.429,8,400,,,
break_continue,html.Screen,4_3_2,2023-09-15T17:56:54.065Z,,0,,,NaN,,,,,,false,,,,38806.69999998808,38806.69999998808,,38806.59999999404,,38812.429,8,400,,,
sequence,flow.Sequence,4_3,2023-09-15T17:56:54.066Z,,0,,,3065.1159999880765,completion,,,,,false,,,,38806.79999998212,38806.69999998808,35724.627,35726.79999998212,35741.584,38812.429,8,400,,,
trial,html.Screen,4_4_0,2023-09-15T17:56:57.672Z,,0,1,,3600.471000005964,response,ISIC_7369312.JPG,5,ISIC_9052604.JPG,ISIC_9052604.JPG,false,0,keypress(z),500,42413.09999999404,42412.90000000596,38795.64,38806.79999998212,38812.429,42433.928,8,400,5,,ISIC_7369312.JPG
break,html.Screen,4_4_1,2023-09-15T17:56:57.672Z,,0,,,NaN,,,,,,false,,,,42413.59999999404,42413.5,,42413.19999998808,,42433.928,8,400,,,
break_continue,html.Screen,4_4_2,2023-09-15T17:56:57.673Z,,0,,,NaN,,,,,,false,,,,42413.79999998212,42413.79999998212,,42413.69999998808,,42433.928,8,400,,,
sequence,flow.Sequence,4_4,2023-09-15T17:56:57.673Z,,0,,,3601.370999982122,completion,,,,,false,,,,42413.79999998212,42413.79999998212,38795.64,38806.79999998212,38812.429,42433.928,8,400,,,
trial,html.Screen,4_5_0,2023-09-15T17:57:00.619Z,,0,1,,2926.271999988079,response,ISIC_0056930.JPG,5,ISIC_0025165.JPG,ISIC_0025165.JPG,false,0,keypress(z),500,45360.5,45360.19999998808,42417.205,42413.90000000596,42433.928,45371.352,8,400,6,,ISIC_0056930.JPG
break,html.Screen,4_5_1,2023-09-15T17:57:00.620Z,,0,,,NaN,,,,,,false,,,,45361.40000000596,45361.19999998808,,45360.69999998808,,45371.352,8,400,,,
break_continue,html.Screen,4_5_2,2023-09-15T17:57:00.620Z,,0,,,NaN,,,,,,false,,,,45361.79999998212,45361.59999999404,,45361.5,,45371.352,8,400,,,
sequence,flow.Sequence,4_5,2023-09-15T17:57:00.621Z,,0,,,2927.6719999940397,completion,,,,,false,,,,45361.79999998212,45361.59999999404,42417.205,42413.90000000596,42433.928,45371.352,8,400,,,
trial,html.Screen,4_6_0,2023-09-15T17:57:03.647Z,,0,1,,3017.0480000059615,response,ISIC_7809510.JPG,6,ISIC_9685480.JPG,ISIC_7809510.JPG,false,1,keypress(m),500,48388.5,48388.40000000596,45354.534,45361.90000000596,45371.352,48391.967,8,400,7,,ISIC_9685480.JPG
break,html.Screen,4_6_1,2023-09-15T17:57:03.648Z,,0,,,NaN,,,,,,false,,,,48389.09999999404,48389,,48388.59999999404,,48391.967,8,400,,,
break_continue,html.Screen,4_6_2,2023-09-15T17:57:03.648Z,,0,,,NaN,,,,,,false,,,,48389.29999998212,48389.29999998212,,48389.19999998808,,48391.967,8,400,,,
sequence,flow.Sequence,4_6,2023-09-15T17:57:03.648Z,,0,,,3017.9479999821197,completion,,,,,false,,,,48389.40000000596,48389.29999998212,45354.534,45361.90000000596,45371.352,48391.967,8,400,,,
trial,html.Screen,4_7_0,2023-09-15T17:57:07.043Z,,0,1,,3391.732999988082,response,ISIC_0034170.JPG,6,ISIC_0030107.JPG,ISIC_0030107.JPG,false,0,keypress(z),500,51783.79999998212,51783.69999998808,48375.259,48389.5,48391.967,51796.667,8,400,8,,ISIC_0034170.JPG
break,html.Screen,4_7_1,2023-09-15T17:57:07.043Z,,0,,,NaN,,,,,,false,,,,51784.5,51784.29999998212,,51783.90000000596,,51796.667,8,400,,,
break_continue,html.Screen,4_7_2,2023-09-15T17:57:07.043Z,,0,,,NaN,,,,,,false,,,,51784.69999998808,51784.59999999404,,51784.5,,51796.667,8,400,,,
sequence,flow.Sequence,4_7,2023-09-15T17:57:07.044Z,,0,,,3392.6329999940426,completion,,,,,false,,,,51784.79999998212,51784.59999999404,48375.259,48389.40000000596,48391.967,51796.667,8,400,,,
trial,html.Screen,4_8_0,2023-09-15T17:57:10.182Z,,0,1,,3126.032999988078,response,ISIC_8626909.JPG,6,ISIC_0065421.JPG,ISIC_0065421.JPG,false,0,keypress(z),500,54922.90000000596,54922.69999998808,51780.008,51784.90000000596,51796.667,54934.197,8,400,9,,ISIC_8626909.JPG
break,html.Screen,4_8_1,2023-09-15T17:57:10.183Z,,0,,,NaN,,,,,,false,,,,54924.40000000596,54924.09999999404,,54923.19999998808,,54934.197,8,400,,,
break_continue,html.Screen,4_8_2,2023-09-15T17:57:10.184Z,,0,,,NaN,,,,,,false,,,,54924.90000000596,54924.79999998212,,54924.5,,54934.197,8,400,,,
sequence,flow.Sequence,4_8,2023-09-15T17:57:10.184Z,,0,,,3128.1329999821173,completion,,,,,false,,,,54925.09999999404,54924.79999998212,51780.008,51784.90000000596,51796.667,54934.197,8,400,,,
trial,html.Screen,4_9_0,2023-09-15T17:57:13.344Z,,0,1,,3150.502999988079,response,ISIC_0067476.JPG,6,ISIC_8663136.JPG,ISIC_0067476.JPG,false,1,keypress(m),500,58084.79999998212,58084.69999998808,54917.437,54925.19999998808,54934.197,58088.512,8,400,10,,ISIC_8663136.JPG
break,html.Screen,4_9_1,2023-09-15T17:57:13.344Z,,0,,,NaN,,,,,,false,,,,58085.5,58085.40000000596,,58084.90000000596,,58088.512,8,400,,,
break_continue,html.Screen,4_9_2,2023-09-15T17:57:13.344Z,,0,,,NaN,,,,,,false,,,,58085.79999998212,58085.69999998808,,58085.59999999404,,58088.512,8,400,,,
sequence,flow.Sequence,4_9,2023-09-15T17:57:13.345Z,,0,,,3151.502999988079,completion,,,,,false,,,,58085.79999998212,58085.69999998808,54917.437,54925.19999998808,54934.197,58088.512,8,400,,,
trial,html.Screen,4_10_0,2023-09-15T17:57:16.327Z,,0,1,,2979.1879999880766,response,ISIC_0063191.JPG,5,ISIC_0268701.JPG,ISIC_0268701.JPG,false,0,keypress(z),500,61067.79999998212,61067.69999998808,58071.77,58085.90000000596,58088.512,61075.908,8,400,11,,ISIC_0063191.JPG
break,html.Screen,4_10_1,2023-09-15T17:57:16.327Z,,0,,,NaN,,,,,,false,,,,61068.29999998212,61068.19999998808,,61068,,61075.908,8,400,,,
break_continue,html.Screen,4_10_2,2023-09-15T17:57:16.327Z,,0,,,NaN,,,,,,false,,,,61068.5,61068.5,,61068.40000000596,,61075.908,8,400,,,
sequence,flow.Sequence,4_10,2023-09-15T17:57:16.327Z,,0,,,2979.9879999999976,completion,,,,,false,,,,61068.59999999404,61068.5,58071.77,58085.90000000596,58088.512,61075.908,8,400,,,
trial,html.Screen,4_11_0,2023-09-15T17:57:19.999Z,,0,1,,3664.4920000059574,response,ISIC_5490352.JPG,6,ISIC_0069865.JPG,ISIC_0069865.JPG,false,0,keypress(z),500,64740.59999999404,64740.40000000596,61059.121,61068.59999999404,61075.908,64747.654,8,400,12,,ISIC_5490352.JPG
break,html.Screen,4_11_1,2023-09-15T17:57:20.000Z,,0,,,NaN,,,,,,false,,,,64741.09999999404,64741,,64740.69999998808,,64747.654,8,400,,,
break_continue,html.Screen,4_11_2,2023-09-15T17:57:20.000Z,,0,,,NaN,,,,,,false,,,,64741.19999998808,64741.19999998808,,64741.09999999404,,64747.654,8,400,,,
sequence,flow.Sequence,4_11,2023-09-15T17:57:20.000Z,,0,,,3665.291999988076,completion,,,,,false,,,,64741.29999998212,64741.19999998808,61059.121,61068.59999999404,61075.908,64747.654,8,400,,,
trial,html.Screen,4_12_0,2023-09-15T17:57:23.378Z,,0,1,,3371.746000005958,response,ISIC_0024512.JPG,6,ISIC_6919856.JPG,ISIC_6919856.JPG,false,0,keypress(z),500,68119.59999999404,68119.40000000596,64730.912,64741.29999998212,64747.654,68135.505,8,400,13,,ISIC_0024512.JPG
break,html.Screen,4_12_1,2023-09-15T17:57:23.379Z,,0,,,NaN,,,,,,false,,,,68120.09999999404,68120.09999999404,,68119.69999998808,,68135.505,8,400,,,
break_continue,html.Screen,4_12_2,2023-09-15T17:57:23.379Z,,0,,,NaN,,,,,,false,,,,68120.29999998212,68120.29999998212,,68120.19999998808,,68135.505,8,400,,,
sequence,flow.Sequence,4_12,2023-09-15T17:57:23.379Z,,0,,,3372.6459999821163,completion,,,,,false,,,,68120.40000000596,68120.29999998212,64730.912,64741.29999998212,64747.654,68135.505,8,400,,,
trial,html.Screen,4_13_0,2023-09-15T17:57:26.438Z,,0,1,,3043.094999994035,response,ISIC_0057164.JPG,5,ISIC_2867416.JPG,ISIC_0057164.JPG,false,1,keypress(m),500,71178.79999998212,71178.59999999404,68118.741,68120.5,68135.505,71190.124,8,400,14,,ISIC_2867416.JPG
break,html.Screen,4_13_1,2023-09-15T17:57:26.438Z,,0,,,NaN,,,,,,false,,,,71179.5,71179.29999998212,,71178.90000000596,,71190.124,8,400,,,
break_continue,html.Screen,4_13_2,2023-09-15T17:57:26.438Z,,0,,,NaN,,,,,,false,,,,71179.69999998808,71179.69999998808,,71179.59999999404,,71190.124,8,400,,,
sequence,flow.Sequence,4_13,2023-09-15T17:57:26.439Z,,0,,,3044.1949999880744,completion,,,,,false,,,,71179.79999998212,71179.69999998808,68118.741,68120.5,68135.505,71190.124,8,400,,,
trial,html.Screen,4_14_0,2023-09-15T17:57:29.385Z,,0,1,,2935.6759999821224,response,ISIC_0003345.JPG,5,ISIC_5913155.JPG,ISIC_5913155.JPG,false,0,keypress(z),500,74126,74125.79999998212,71172.927,71179.90000000596,71190.124,74144.461,8,400,15,,ISIC_0003345.JPG
break,html.Screen,4_14_1,2023-09-15T17:57:29.385Z,,0,,,NaN,,,,,,false,,,,74126.69999998808,74126.5,,74126.09999999404,,74144.461,8,400,,,
break_continue,html.Screen,4_14_2,2023-09-15T17:57:29.386Z,,0,,,NaN,,,,,,false,,,,74126.90000000596,74126.79999998212,,74126.79999998212,,74144.461,8,400,,,
sequence,flow.Sequence,4_14,2023-09-15T17:57:29.386Z,,0,,,2936.6759999821224,completion,,,,,false,,,,74126.90000000596,74126.79999998212,71172.927,71179.90000000596,71190.124,74144.461,8,400,,,
trial,html.Screen,4_15_0,2023-09-15T17:57:32.443Z,,0,1,,3039.9390000059648,response,ISIC_0068798.JPG,5,ISIC_3478473.JPG,ISIC_0068798.JPG,false,1,keypress(m),500,77184.59999999404,77184.40000000596,74110.287,74127.09999999404,74144.461,77197.783,8,400,16,,ISIC_3478473.JPG
break,html.Screen,4_15_1,2023-09-15T17:57:32.444Z,,0,,,NaN,,,,,,false,,,,77185.5,77185.29999998212,,77184.79999998212,,77197.783,8,400,,,
break_continue,html.Screen,4_15_2,2023-09-15T17:57:32.444Z,,0,,,NaN,,,,,,false,,,,77185.79999998212,77185.69999998808,,77185.59999999404,,77197.783,8,400,,,
sequence,flow.Sequence,4_15,2023-09-15T17:57:32.445Z,,0,,,3041.2389999880834,completion,,,,,false,,,,77185.90000000596,77185.69999998808,74110.287,74127.09999999404,74144.461,77197.783,8,400,,,
trial,html.Screen,4_16_0,2023-09-15T17:57:35.711Z,,0,1,,3254.717000000004,response,ISIC_0014110.JPG,5,ISIC_3880324.JPG,ISIC_3880324.JPG,false,0,keypress(z),500,80452.59999999404,80452.5,77181.106,77186,77197.783,80468.879,8,400,17,,ISIC_0014110.JPG
break,html.Screen,4_16_1,2023-09-15T17:57:35.712Z,,0,,,NaN,,,,,,false,,,,80453.40000000596,80453.19999998808,,80452.79999998212,,80468.879,8,400,,,
break_continue,html.Screen,4_16_2,2023-09-15T17:57:35.712Z,,0,,,NaN,,,,,,false,,,,80453.59999999404,80453.59999999404,,80453.40000000596,,80468.879,8,400,,,
sequence,flow.Sequence,4_16,2023-09-15T17:57:35.712Z,,0,,,3255.8169999940437,completion,,,,,false,,,,80453.69999998808,80453.59999999404,77181.106,77186,77197.783,80468.879,8,400,,,
trial,html.Screen,4_17_0,2023-09-15T17:57:38.691Z,,0,1,,2963.3209999880783,response,ISIC_4216750.JPG,5,ISIC_4052597.JPG,ISIC_4216750.JPG,false,1,keypress(m),500,83432.40000000596,83432.19999998808,80452.099,80453.69999998808,80468.879,83439.69,8,400,18,,ISIC_4052597.JPG
break,html.Screen,4_17_1,2023-09-15T17:57:38.692Z,,0,,,NaN,,,,,,false,,,,83432.90000000596,83432.69999998808,,83432.5,,83439.69,8,400,,,
break_continue,html.Screen,4_17_2,2023-09-15T17:57:38.692Z,,0,,,NaN,,,,,,false,,,,83433,83432.90000000596,,83432.90000000596,,83439.69,8,400,,,
sequence,flow.Sequence,4_17,2023-09-15T17:57:38.692Z,,0,,,2964.0210000059596,completion,,,,,false,,,,83433.09999999404,83432.90000000596,80452.099,80453.69999998808,80468.879,83439.69,8,400,,,
trial,html.Screen,4_18_0,2023-09-15T17:57:41.670Z,,0,1,,2971.210000005958,response,ISIC_0032750.JPG,6,ISIC_8325260.JPG,ISIC_8325260.JPG,false,0,keypress(z),500,86411.19999998808,86410.90000000596,83422.854,83433.19999998808,83439.69,86426.964,8,400,19,,ISIC_0032750.JPG
break,html.Screen,4_18_1,2023-09-15T17:57:41.671Z,,0,,,NaN,,,,,,false,,,,86412,86411.79999998212,,86411.29999998212,,86426.964,8,400,,,
break_continue,html.Screen,4_18_2,2023-09-15T17:57:41.671Z,,0,,,NaN,,,,,,false,,,,86412.29999998212,86412.19999998808,,86412,,86426.964,8,400,,,
sequence,flow.Sequence,4_18,2023-09-15T17:57:41.671Z,,0,,,2972.5099999880767,completion,,,,,false,,,,86412.5,86412.19999998808,83422.854,83433.09999999404,83439.69,86426.964,8,400,,,
trial,html.Screen,4_19_0,2023-09-15T17:57:44.831Z,,0,1,,3145.535999999993,response,ISIC_4782878.JPG,5,ISIC_2124213.JPG,ISIC_2124213.JPG,false,0,keypress(z),500,89572.59999999404,89572.5,86410.239,86412.59999999404,86426.964,89581.282,8,400,20,,ISIC_4782878.JPG
break,html.Screen,4_19_1,2023-09-15T17:57:44.832Z,,0,,,NaN,,,,,,false,,,,89573.09999999404,89572.90000000596,,89572.69999998808,,89581.282,8,400,,,
break_continue,html.Screen,4_19_2,2023-09-15T17:57:44.832Z,,0,,,NaN,,,,,,false,,,,89573.29999998212,89573.29999998212,,89573.19999998808,,89581.282,8,400,,,
sequence,flow.Sequence,4_19,2023-09-15T17:57:44.832Z,,0,,,3146.3359999821114,completion,,,,,false,,,,89573.40000000596,89573.29999998212,86410.239,86412.5,86426.964,89581.282,8,400,,,
trial,html.Screen,4_20_0,2023-09-15T17:57:48.264Z,,0,1,,3423.7179999999935,response,ISIC_0012151.JPG,6,ISIC_0029859.JPG,ISIC_0012151.JPG,false,1,keypress(m),500,93005.29999998212,93005,89564.623,89573.5,89581.282,93019.227,8,400,21,,ISIC_0029859.JPG
break,html.Screen,4_20_1,2023-09-15T17:57:48.265Z,,0,,,NaN,,,,,,false,,,,93006.09999999404,93005.90000000596,,93005.40000000596,,93019.227,8,400,,,
break_continue,html.Screen,4_20_2,2023-09-15T17:57:48.265Z,,0,,,NaN,,,,,,false,,,,93006.29999998212,93006.19999998808,,93006.19999998808,,93019.227,8,400,,,
sequence,flow.Sequence,4_20,2023-09-15T17:57:48.265Z,,0,,,3424.9179999880726,completion,,,,,false,,,,93006.40000000596,93006.19999998808,89564.623,89573.5,89581.282,93019.227,8,400,,,
trial,html.Screen,4_21_0,2023-09-15T17:57:51.467Z,,0,1,,3188.773000000001,response,ISIC_0465385.JPG,6,ISIC_0068477.JPG,ISIC_0068477.JPG,false,0,keypress(z),500,96208.19999998808,96208,93002.535,93006.40000000596,93019.227,96223.6,8,400,22,,ISIC_0465385.JPG
break,html.Screen,4_21_1,2023-09-15T17:57:51.468Z,,0,,,NaN,,,,,,false,,,,96208.90000000596,96208.69999998808,,96208.29999998212,,96223.6,8,400,,,
break_continue,html.Screen,4_21_2,2023-09-15T17:57:51.468Z,,0,,,NaN,,,,,,false,,,,96209.09999999404,96209,,96208.90000000596,,96223.6,8,400,,,
sequence,flow.Sequence,4_21,2023-09-15T17:57:51.468Z,,0,,,3189.773000000001,completion,,,,,false,,,,96209.09999999404,96209,93002.535,93006.40000000596,93019.227,96223.6,8,400,,,
trial,html.Screen,4_22_0,2023-09-15T17:57:54.765Z,,0,1,,3282.699999982113,response,ISIC_0028554.JPG,5,ISIC_5830274.JPG,ISIC_5830274.JPG,false,0,keypress(z),500,99506.40000000596,99506.29999998212,96206.543,96209.19999998808,96223.6,99528.113,8,400,23,,ISIC_0028554.JPG
break,html.Screen,4_22_1,2023-09-15T17:57:54.765Z,,0,,,NaN,,,,,,false,,,,99506.69999998808,99506.69999998808,,99506.5,,99528.113,8,400,,,
break_continue,html.Screen,4_22_2,2023-09-15T17:57:54.766Z,,0,,,NaN,,,,,,false,,,,99506.90000000596,99506.90000000596,,99506.79999998212,,99528.113,8,400,,,
sequence,flow.Sequence,4_22,2023-09-15T17:57:54.766Z,,0,,,3283.3000000059546,completion,,,,,false,,,,99507,99506.90000000596,96206.543,96209.19999998808,96223.6,99528.113,8,400,,,
trial,html.Screen,4_23_0,2023-09-15T17:57:57.903Z,,0,1,,3116.3870000000024,response,ISIC_0000035.JPG,5,ISIC_5848892.JPG,ISIC_5848892.JPG,false,0,keypress(z),500,102644.69999998808,102644.5,99511.343,99507.09999999404,99528.113,102648.971,8,400,24,,ISIC_0000035.JPG
break,html.Screen,4_23_1,2023-09-15T17:57:57.904Z,,0,,,NaN,,,,,,false,,,,102645.5,102645.29999998212,,102644.90000000596,,102648.971,8,400,,,
break_continue,html.Screen,4_23_2,2023-09-15T17:57:57.904Z,,0,,,NaN,,,,,,false,,,,102645.59999999404,102645.59999999404,,102645.5,,102648.971,8,400,,,
sequence,flow.Sequence,4_23,2023-09-15T17:57:57.904Z,,0,,,3117.486999994042,completion,,,,,false,,,,102645.69999998808,102645.59999999404,99511.343,99507.09999999404,99528.113,102648.971,8,400,,,
trial,html.Screen,4_24_0,2023-09-15T17:58:01.586Z,,0,1,,3678.528999999995,response,ISIC_9076021.JPG,6,ISIC_0069492.JPG,ISIC_9076021.JPG,false,1,keypress(m),500,106327.59999999404,106327.5,102632.344,102645.69999998808,102648.971,106337.452,8,400,25,,ISIC_0069492.JPG
break,html.Screen,4_24_1,2023-09-15T17:58:01.587Z,,0,,,NaN,,,,,,false,,,,106328.19999998808,106328.09999999404,,106327.69999998808,,106337.452,8,400,,,
break_continue,html.Screen,4_24_2,2023-09-15T17:58:01.587Z,,0,,,NaN,,,,,,false,,,,106328.5,106328.5,,106328.40000000596,,106337.452,8,400,,,
sequence,flow.Sequence,4_24,2023-09-15T17:58:01.587Z,,0,,,3679.528999999995,completion,,,,,false,,,,106328.69999998808,106328.5,102632.344,102645.69999998808,102648.971,106337.452,8,400,,,
trial,html.Screen,4_25_0,2023-09-15T17:58:04.728Z,,0,1,,3131.547999999995,response,ISIC_6595186.JPG,5,ISIC_0005248.JPG,ISIC_6595186.JPG,false,1,keypress(m),500,109469.29999998212,109469,106320.604,106328.69999998808,106337.452,109491.593,8,400,26,,ISIC_0005248.JPG
break,html.Screen,4_25_1,2023-09-15T17:58:04.729Z,,0,,,NaN,,,,,,false,,,,109469.79999998212,109469.79999998212,,109469.40000000596,,109491.593,8,400,,,
break_continue,html.Screen,4_25_2,2023-09-15T17:58:04.729Z,,0,,,NaN,,,,,,false,,,,109470,109470,,109469.90000000596,,109491.593,8,400,,,
sequence,flow.Sequence,4_25,2023-09-15T17:58:04.729Z,,0,,,3132.547999999995,completion,,,,,false,,,,109470.19999998808,109470,106320.604,106328.69999998808,106337.452,109491.593,8,400,,,
trial,html.Screen,4_26_0,2023-09-15T17:58:08.043Z,,0,1,,3292.1069999880856,response,ISIC_5391190.JPG,5,ISIC_5832901.JPG,ISIC_5391190.JPG,false,1,keypress(m),500,112783.90000000596,112783.69999998808,109474.877,109470.19999998808,109491.593,112796.176,8,400,27,,ISIC_5832901.JPG
break,html.Screen,4_26_1,2023-09-15T17:58:08.043Z,,0,,,NaN,,,,,,false,,,,112784.69999998808,112784.40000000596,,112784,,112796.176,8,400,,,
break_continue,html.Screen,4_26_2,2023-09-15T17:58:08.044Z,,0,,,NaN,,,,,,false,,,,112784.90000000596,112784.79999998212,,112784.69999998808,,112796.176,8,400,,,
sequence,flow.Sequence,4_26,2023-09-15T17:58:08.044Z,,0,,,3293.206999982125,completion,,,,,false,,,,112785.09999999404,112784.79999998212,109474.877,109470.19999998808,109491.593,112796.176,8,400,,,
trial,html.Screen,4_27_0,2023-09-15T17:58:11.792Z,,0,1,,3736.7240000059537,response,ISIC_0030129.JPG,5,ISIC_3981425.JPG,ISIC_0030129.JPG,false,1,keypress(m),500,116533.19999998808,116532.90000000596,112779.388,112785.09999999404,112796.176,116551.533,8,400,28,,ISIC_3981425.JPG
break,html.Screen,4_27_1,2023-09-15T17:58:11.793Z,,0,,,NaN,,,,,,false,,,,116534.19999998808,116534,,116533.5,,116551.533,8,400,,,
break_continue,html.Screen,4_27_2,2023-09-15T17:58:11.794Z,,0,,,NaN,,,,,,false,,,,116534.90000000596,116534.69999998808,,116534.40000000596,,116551.533,8,400,,,
sequence,flow.Sequence,4_27,2023-09-15T17:58:11.794Z,,0,,,3738.5239999880723,completion,,,,,false,,,,116535.09999999404,116534.69999998808,112779.388,112785.09999999404,112796.176,116551.533,8,400,,,
trial,html.Screen,4_28_0,2023-09-15T17:58:15.061Z,,0,1,,3250.766999982123,response,ISIC_7526530.JPG,5,ISIC_0001108.JPG,ISIC_0001108.JPG,false,0,keypress(z),500,119802.5,119802.29999998212,116517.786,116535.29999998212,116551.533,119805.58,8,400,29,,ISIC_7526530.JPG
break,html.Screen,4_28_1,2023-09-15T17:58:15.062Z,,0,,,NaN,,,,,,false,,,,119803.29999998212,119803.09999999404,,119802.59999999404,,119805.58,8,400,,,
break_continue,html.Screen,4_28_2,2023-09-15T17:58:15.062Z,,0,,,NaN,,,,,,false,,,,119803.59999999404,119803.5,,119803.40000000596,,119805.58,8,400,,,
sequence,flow.Sequence,4_28,2023-09-15T17:58:15.062Z,,0,,,3251.967000000004,completion,,,,,false,,,,119803.69999998808,119803.5,116517.786,116535.19999998808,116551.533,119805.58,8,400,,,
trial,html.Screen,4_29_0,2023-09-15T17:58:17.680Z,,0,1,,2615.219999982117,response,ISIC_0031208.JPG,5,ISIC_5065245.JPG,ISIC_0031208.JPG,false,1,keypress(m),500,122421,122420.79999998212,119788.843,119803.69999998808,119805.58,122425.881,8,400,30,,ISIC_5065245.JPG
break,html.Screen,4_29_1,2023-09-15T17:58:17.680Z,,0,,,NaN,,,,,,false,,,,122421.59999999404,122421.40000000596,,122421.19999998808,,122425.881,8,400,,,
break_continue,html.Screen,4_29_2,2023-09-15T17:58:17.681Z,,0,,,NaN,,,,,,false,,,,122421.79999998212,122421.79999998212,,122421.69999998808,,122425.881,8,400,,,
sequence,flow.Sequence,4_29,2023-09-15T17:58:17.681Z,,0,,,2616.219999982117,completion,,,,,false,,,,122422,122421.79999998212,119788.843,119803.69999998808,119805.58,122425.881,8,400,,,
trial,html.Screen,4_30_0,2023-09-15T17:58:20.691Z,,0,1,,3005.7189999940456,response,ISIC_0011495.JPG,5,ISIC_0013842.JPG,ISIC_0011495.JPG,false,1,keypress(m),500,125431.79999998212,125431.59999999404,122409.036,122422,122425.881,125446.574,8,400,31,,ISIC_0013842.JPG
break,html.Screen,4_30_1,2023-09-15T17:58:20.691Z,,0,,,NaN,,,,,,false,,,,125432.5,125432.40000000596,,125431.90000000596,,125446.574,8,400,,,
break_continue,html.Screen,4_30_2,2023-09-15T17:58:20.691Z,,0,,,NaN,,,,,,false,,,,125432.59999999404,125432.59999999404,,125432.5,,125446.574,8,400,,,
sequence,flow.Sequence,4_30,2023-09-15T17:58:20.692Z,,0,,,3006.7189999940456,completion,,,,,false,,,,125432.79999998212,125432.59999999404,122409.036,122422,122425.881,125446.574,8,400,,,
trial,html.Screen,4_31_0,2023-09-15T17:58:23.960Z,,0,1,,3254.4260000000068,response,ISIC_0025391.JPG,5,ISIC_0650126.JPG,ISIC_0025391.JPG,false,1,keypress(m),500,128701.19999998808,128701,125429.938,125433,125446.574,128717.7,8,400,32,,ISIC_0650126.JPG
break,html.Screen,4_31_1,2023-09-15T17:58:23.961Z,,0,,,NaN,,,,,,false,,,,128701.90000000596,128701.69999998808,,128701.29999998212,,128717.7,8,400,,,
break_continue,html.Screen,4_31_2,2023-09-15T17:58:23.961Z,,0,,,NaN,,,,,,false,,,,128702,128702,,128701.90000000596,,128717.7,8,400,,,
sequence,flow.Sequence,4_31,2023-09-15T17:58:23.961Z,,0,,,3255.4260000000068,completion,,,,,false,,,,128702.09999999404,128702,125429.938,125432.90000000596,125446.574,128717.7,8,400,,,
trial,html.Screen,4_32_0,2023-09-15T17:58:27.723Z,,0,1,,3746.5999999821215,response,ISIC_8664315.JPG,6,ISIC_0062162.JPG,ISIC_8664315.JPG,false,1,keypress(m),500,132464.5,132464.29999998212,128700.926,128702.09999999404,128717.7,132472.862,8,400,33,,ISIC_0062162.JPG
break,html.Screen,4_32_1,2023-09-15T17:58:27.724Z,,0,,,NaN,,,,,,false,,,,132464.90000000596,132464.79999998212,,132464.5,,132472.862,8,400,,,
break_continue,html.Screen,4_32_2,2023-09-15T17:58:27.724Z,,0,,,NaN,,,,,,false,,,,132465.19999998808,132465.09999999404,,132465,,132472.862,8,400,,,
sequence,flow.Sequence,4_32,2023-09-15T17:58:27.724Z,,0,,,3747.3999999940424,completion,,,,,false,,,,132465.19999998808,132465.09999999404,128700.926,128702.09999999404,128717.7,132472.862,8,400,,,
trial,html.Screen,4_33_0,2023-09-15T17:58:31.632Z,,0,1,,3900.3379999880854,response,ISIC_0072604.JPG,6,ISIC_2658858.JPG,ISIC_2658858.JPG,false,0,keypress(z),500,136373.40000000596,136373.19999998808,132456.089,132465.29999998212,132472.862,136378.736,8,400,34,,ISIC_0072604.JPG
break,html.Screen,4_33_1,2023-09-15T17:58:31.633Z,,0,,,NaN,,,,,,false,,,,136373.90000000596,136373.69999998808,,136373.40000000596,,136378.736,8,400,,,
break_continue,html.Screen,4_33_2,2023-09-15T17:58:31.633Z,,0,,,NaN,,,,,,false,,,,136374.09999999404,136374,,136374,,136378.736,8,400,,,
sequence,flow.Sequence,4_33,2023-09-15T17:58:31.633Z,,0,,,3901.1380000000063,completion,,,,,false,,,,136374.09999999404,136374,132456.089,132465.19999998808,132472.862,136378.736,8,400,,,
trial,html.Screen,4_34_0,2023-09-15T17:58:34.627Z,,0,1,,2989.563999982114,response,ISIC_0067953.JPG,6,ISIC_1131588.JPG,ISIC_0067953.JPG,false,1,keypress(m),500,139368.5,139368.29999998212,136361.394,136374.19999998808,136378.736,139382.171,8,400,35,,ISIC_1131588.JPG
break,html.Screen,4_34_1,2023-09-15T17:58:34.628Z,,0,,,NaN,,,,,,false,,,,139369.09999999404,139368.90000000596,,139368.59999999404,,139382.171,8,400,,,
break_continue,html.Screen,4_34_2,2023-09-15T17:58:34.628Z,,0,,,NaN,,,,,,false,,,,139369.19999998808,139369.19999998808,,139369.09999999404,,139382.171,8,400,,,
sequence,flow.Sequence,4_34,2023-09-15T17:58:34.628Z,,0,,,2990.4639999880746,completion,,,,,false,,,,139369.19999998808,139369.19999998808,136361.394,136374.19999998808,136378.736,139382.171,8,400,,,
trial,html.Screen,4_35_0,2023-09-15T17:58:37.703Z,,0,1,,3062.2290000059584,response,ISIC_0620587.JPG,5,ISIC_1023354.JPG,ISIC_1023354.JPG,false,0,keypress(z),500,142444.59999999404,142444.40000000596,139365.525,139369.29999998212,139382.171,142469.667,8,400,36,,ISIC_0620587.JPG
break,html.Screen,4_35_1,2023-09-15T17:58:37.704Z,,0,,,NaN,,,,,,false,,,,142445.40000000596,142445.19999998808,,142444.79999998212,,142469.667,8,400,,,
break_continue,html.Screen,4_35_2,2023-09-15T17:58:37.704Z,,0,,,NaN,,,,,,false,,,,142445.69999998808,142445.69999998808,,142445.59999999404,,142469.667,8,400,,,
sequence,flow.Sequence,4_35,2023-09-15T17:58:37.704Z,,0,,,3063.528999988077,completion,,,,,false,,,,142445.79999998212,142445.69999998808,139365.525,139369.29999998212,139382.171,142469.667,8,400,,,
trial,html.Screen,4_36_0,2023-09-15T17:58:42.000Z,,0,1,,4271.333000000013,response,ISIC_0059216.JPG,5,ISIC_1956504.JPG,ISIC_0059216.JPG,false,1,keypress(m),500,146741.29999998212,146741,142452.961,142445.90000000596,142469.667,146760.064,8,400,37,,ISIC_1956504.JPG
break,html.Screen,4_36_1,2023-09-15T17:58:42.001Z,,0,,,NaN,,,,,,false,,,,146742.5,146742.19999998808,,146741.5,,146760.064,8,400,,,
break_continue,html.Screen,4_36_2,2023-09-15T17:58:42.001Z,,0,,,NaN,,,,,,false,,,,146742.69999998808,146742.69999998808,,146742.59999999404,,146760.064,8,400,,,
sequence,flow.Sequence,4_36,2023-09-15T17:58:42.002Z,,0,,,4273.032999988092,completion,,,,,false,,,,146742.79999998212,146742.69999998808,142452.961,142445.90000000596,142469.667,146760.064,8,400,,,
trial,html.Screen,4_37_0,2023-09-15T17:58:44.744Z,,0,1,,2725.3360000059474,response,ISIC_0030519.JPG,5,ISIC_1795529.JPG,ISIC_1795529.JPG,false,0,keypress(z),500,149485.79999998212,149485.40000000596,146725.395,146742.90000000596,146760.064,149495.874,8,400,38,,ISIC_0030519.JPG
break,html.Screen,4_37_1,2023-09-15T17:58:44.745Z,,0,,,NaN,,,,,,false,,,,149486.59999999404,149486.5,,149486,,149495.874,8,400,,,
break_continue,html.Screen,4_37_2,2023-09-15T17:58:44.746Z,,0,,,NaN,,,,,,false,,,,149487,149486.90000000596,,149486.79999998212,,149495.874,8,400,,,
sequence,flow.Sequence,4_37,2023-09-15T17:58:44.746Z,,0,,,2726.8360000059474,completion,,,,,false,,,,149487.09999999404,149486.90000000596,146725.395,146742.79999998212,146760.064,149495.874,8,400,,,
trial,html.Screen,4_38_0,2023-09-15T17:58:48.061Z,,0,1,,3305.925999982108,response,ISIC_4428769.JPG,5,ISIC_0069504.JPG,ISIC_0069504.JPG,false,0,keypress(z),500,152802,152801.79999998212,149479.2,149487.19999998808,149495.874,152817.071,8,400,39,,ISIC_4428769.JPG
break,html.Screen,4_38_1,2023-09-15T17:58:48.062Z,,0,,,NaN,,,,,,false,,,,152802.90000000596,152802.69999998808,,152802.19999998808,,152817.071,8,400,,,
break_continue,html.Screen,4_38_2,2023-09-15T17:58:48.062Z,,0,,,NaN,,,,,,false,,,,152803.19999998808,152803.19999998808,,152803,,152817.071,8,400,,,
sequence,flow.Sequence,4_38,2023-09-15T17:58:48.062Z,,0,,,3307.3259999880684,completion,,,,,false,,,,152803.29999998212,152803.19999998808,149479.2,149487.19999998808,149495.874,152817.071,8,400,,,
trial,html.Screen,4_39_0,2023-09-15T17:58:50.903Z,,0,1,,2827.2289999821223,response,ISIC_8712559.JPG,6,ISIC_0034134.JPG,ISIC_0034134.JPG,false,0,keypress(z),500,155644.59999999404,155644.29999998212,152800.395,152803.5,152817.071,155654.369,8,400,40,,ISIC_8712559.JPG
break,html.Screen,4_39_1,2023-09-15T17:58:50.904Z,,0,,,NaN,,,,,,false,,,,155645.29999998212,155645.19999998808,,155644.59999999404,,155654.369,8,400,,,
break_continue,html.Screen,4_39_2,2023-09-15T17:58:50.904Z,,0,,,NaN,,,,,,false,,,,155645.5,155645.40000000596,,155645.40000000596,,155654.369,8,400,,,
sequence,flow.Sequence,4_39,2023-09-15T17:58:50.904Z,,0,,,2828.329000005964,completion,,,,,false,,,,155645.59999999404,155645.40000000596,152800.395,152803.40000000596,152817.071,155654.369,8,400,,,
trial,html.Screen,4_40_0,2023-09-15T17:58:55.552Z,,0,1,,4638.531000005954,response,ISIC_7928137.JPG,5,ISIC_0027956.JPG,ISIC_7928137.JPG,false,1,keypress(m),500,160293.19999998808,160292.90000000596,155637.489,155645.59999999404,155654.369,160311.785,8,400,41,,ISIC_0027956.JPG
break,html.Screen,4_40_1,2023-09-15T17:58:55.553Z,,0,,,NaN,,,,,,false,,,,160293.79999998212,160293.69999998808,,160293.29999998212,,160311.785,8,400,,,
break_continue,html.Screen,4_40_2,2023-09-15T17:58:55.553Z,,0,,,NaN,,,,,,false,,,,160294.19999998808,160294,,160293.90000000596,,160311.785,8,400,,,
sequence,flow.Sequence,4_40,2023-09-15T17:58:55.553Z,,0,,,4639.630999999994,completion,,,,,false,,,,160294.29999998212,160294,155637.489,155645.59999999404,155654.369,160311.785,8,400,,,
trial,html.Screen,4_41_0,2023-09-15T17:58:59.043Z,,0,1,,3472.7149999999965,response,ISIC_0528044.JPG,6,ISIC_0024987.JPG,ISIC_0024987.JPG,false,0,keypress(z),500,163784.69999998808,163784.5,160277.155,160294.29999998212,160311.785,163798.628,8,400,42,,ISIC_0528044.JPG
break,html.Screen,4_41_1,2023-09-15T17:58:59.044Z,,0,,,NaN,,,,,,false,,,,163785.29999998212,163785.19999998808,,163784.69999998808,,163798.628,8,400,,,
break_continue,html.Screen,4_41_2,2023-09-15T17:58:59.044Z,,0,,,NaN,,,,,,false,,,,163785.40000000596,163785.40000000596,,163785.40000000596,,163798.628,8,400,,,
sequence,flow.Sequence,4_41,2023-09-15T17:58:59.044Z,,0,,,3473.615000005957,completion,,,,,false,,,,163785.5,163785.40000000596,160277.155,160294.29999998212,160311.785,163798.628,8,400,,,
trial,html.Screen,4_42_0,2023-09-15T17:59:02.216Z,,0,1,,3158.7720000059635,response,ISIC_0064822.JPG,5,ISIC_3552245.JPG,ISIC_0064822.JPG,false,1,keypress(m),500,166957.69999998808,166957.40000000596,163781.926,163785.59999999404,163798.628,166969.567,8,400,43,,ISIC_3552245.JPG
break,html.Screen,4_42_1,2023-09-15T17:59:02.217Z,,0,,,NaN,,,,,,false,,,,166958.59999999404,166958.40000000596,,166957.90000000596,,166969.567,8,400,,,
break_continue,html.Screen,4_42_2,2023-09-15T17:59:02.218Z,,0,,,NaN,,,,,,false,,,,166959.09999999404,166958.90000000596,,166958.79999998212,,166969.567,8,400,,,
sequence,flow.Sequence,4_42,2023-09-15T17:59:02.218Z,,0,,,3160.2720000059635,completion,,,,,false,,,,166959.19999998808,166958.90000000596,163781.926,163785.59999999404,163798.628,166969.567,8,400,,,
trial,html.Screen,4_43_0,2023-09-15T17:59:06.096Z,,0,1,,3867.0329999940295,response,ISIC_0024229.JPG,6,ISIC_0029898.JPG,ISIC_0029898.JPG,false,0,keypress(z),500,170836.79999998212,170836.59999999404,166952.807,166959.29999998212,166969.567,170841.544,8,400,44,,ISIC_0024229.JPG
break,html.Screen,4_43_1,2023-09-15T17:59:06.096Z,,0,,,NaN,,,,,,false,,,,170837.29999998212,170837.19999998808,,170837,,170841.544,8,400,,,
break_continue,html.Screen,4_43_2,2023-09-15T17:59:06.096Z,,0,,,NaN,,,,,,false,,,,170837.5,170837.40000000596,,170837.40000000596,,170841.544,8,400,,,
sequence,flow.Sequence,4_43,2023-09-15T17:59:06.096Z,,0,,,3867.8330000059505,completion,,,,,false,,,,170837.59999999404,170837.40000000596,166952.807,166959.29999998212,166969.567,170841.544,8,400,,,
trial,html.Screen,4_44_0,2023-09-15T17:59:09.250Z,,0,1,,3149.6559999880847,response,ISIC_0056635.JPG,5,ISIC_0056902.JPG,ISIC_0056635.JPG,false,1,keypress(m),500,173991.40000000596,173991.19999998808,170824.763,170837.59999999404,170841.544,173995.769,8,400,45,,ISIC_0056902.JPG
break,html.Screen,4_44_1,2023-09-15T17:59:09.251Z,,0,,,NaN,,,,,,false,,,,173992.40000000596,173992.19999998808,,173991.5,,173995.769,8,400,,,
break_continue,html.Screen,4_44_2,2023-09-15T17:59:09.251Z,,0,,,NaN,,,,,,false,,,,173992.69999998808,173992.5,,173992.5,,173995.769,8,400,,,
sequence,flow.Sequence,4_44,2023-09-15T17:59:09.251Z,,0,,,3150.9560000000056,completion,,,,,false,,,,173992.79999998212,173992.5,170824.763,170837.59999999404,170841.544,173995.769,8,400,,,
trial,html.Screen,4_45_0,2023-09-15T17:59:12.055Z,,0,1,,2800.6310000059602,response,ISIC_0014657.JPG,5,ISIC_0054080.JPG,ISIC_0054080.JPG,false,0,keypress(z),500,176796.5,176796.40000000596,173979.053,173992.90000000596,173995.769,176799.586,8,400,46,,ISIC_0014657.JPG
break,html.Screen,4_45_1,2023-09-15T17:59:12.056Z,,0,,,NaN,,,,,,false,,,,176797.19999998808,176797,,176796.59999999404,,176799.586,8,400,,,
break_continue,html.Screen,4_45_2,2023-09-15T17:59:12.056Z,,0,,,NaN,,,,,,false,,,,176797.5,176797.40000000596,,176797.29999998212,,176799.586,8,400,,,
sequence,flow.Sequence,4_45,2023-09-15T17:59:12.056Z,,0,,,2801.6310000059602,completion,,,,,false,,,,176797.5,176797.40000000596,173979.053,173992.79999998212,173995.769,176799.586,8,400,,,
trial,html.Screen,4_46_0,2023-09-15T17:59:15.312Z,,0,1,,3253.2139999821084,response,ISIC_9690371.JPG,5,ISIC_2355513.JPG,ISIC_2355513.JPG,false,0,keypress(z),500,180053.09999999404,180052.79999998212,176782.987,176797.79999998212,176799.586,180071.414,8,400,47,,ISIC_9690371.JPG
break,html.Screen,4_46_1,2023-09-15T17:59:15.313Z,,0,,,NaN,,,,,,false,,,,180053.79999998212,180053.69999998808,,180053.29999998212,,180071.414,8,400,,,
break_continue,html.Screen,4_46_2,2023-09-15T17:59:15.313Z,,0,,,NaN,,,,,,false,,,,180054.09999999404,180054.09999999404,,180053.90000000596,,180071.414,8,400,,,
sequence,flow.Sequence,4_46,2023-09-15T17:59:15.313Z,,0,,,3254.5139999940293,completion,,,,,false,,,,180054.19999998808,180054.09999999404,176782.987,176797.79999998212,176799.586,180071.414,8,400,,,
trial,html.Screen,4_47_0,2023-09-15T17:59:19.304Z,,0,1,,3973.5860000000102,response,ISIC_0822116.JPG,6,ISIC_4232756.JPG,ISIC_0822116.JPG,false,1,keypress(m),500,184045.29999998212,184045,180037.243,180054.29999998212,180071.414,184059.464,8,400,48,,ISIC_4232756.JPG
break,html.Screen,4_47_1,2023-09-15T17:59:19.305Z,,0,,,NaN,,,,,,false,,,,184046.69999998808,184046.5,,184045.90000000596,,184059.464,8,400,,,
break_continue,html.Screen,4_47_2,2023-09-15T17:59:19.306Z,,0,,,NaN,,,,,,false,,,,184046.90000000596,184046.90000000596,,184046.69999998808,,184059.464,8,400,,,
sequence,flow.Sequence,4_47,2023-09-15T17:59:19.306Z,,0,,,3975.4860000059707,completion,,,,,false,,,,184047,184046.90000000596,180037.243,180054.29999998212,180071.414,184059.464,8,400,,,
trial,html.Screen,4_48_0,2023-09-15T17:59:22.432Z,,0,1,,3113.4360000059532,response,ISIC_0010409.JPG,5,ISIC_5441247.JPG,ISIC_0010409.JPG,false,1,keypress(m),500,187173.09999999404,187172.90000000596,184042.889,184047.19999998808,184059.464,187180.562,8,400,49,,ISIC_5441247.JPG
break,html.Screen,4_48_1,2023-09-15T17:59:22.433Z,,0,,,NaN,,,,,,false,,,,187173.90000000596,187173.69999998808,,187173.19999998808,,187180.562,8,400,,,
break_continue,html.Screen,4_48_2,2023-09-15T17:59:22.433Z,,0,,,NaN,,,,,,false,,,,187174.19999998808,187174.19999998808,,187174,,187180.562,8,400,,,
sequence,flow.Sequence,4_48,2023-09-15T17:59:22.433Z,,0,,,3114.735999988072,completion,,,,,false,,,,187174.29999998212,187174.19999998808,184042.889,184047.19999998808,184059.464,187180.562,8,400,,,
trial,html.Screen,4_49_0,2023-09-15T17:59:25.636Z,,0,1,,3196.1379999880737,response,ISIC_6532137.JPG,5,ISIC_0033250.JPG,ISIC_6532137.JPG,false,1,keypress(m),500,190376.79999998212,190376.69999998808,187163.633,187174.29999998212,187180.562,190384.725,8,400,50,,ISIC_0033250.JPG
break,html.Screen,4_49_1,2023-09-15T17:59:35.624Z,,0,,,9996.899000000005,timeout,,,,,false,,,,200365.69999998808,200364.919,190368.039,190377.19999998808,190384.725,200381.624,8,400,,,
break_continue,html.Screen,4_49_2,2023-09-15T17:59:36.711Z,,0,,,1065.2760000059498,response,,,,,false,continue,keypress(Space),,201452.19999998808,201446.90000000596,200364.919,200365.90000000596,200381.624,201466.397,8,400,,,
sequence,flow.Sequence,4_49,2023-09-15T17:59:36.711Z,,0,,,14266.338000005955,completion,,,,,false,,,,201452.29999998212,201446.90000000596,187163.633,187174.29999998212,187180.562,201466.397,8,400,,,
trial,html.Screen,4_50_0,2023-09-15T17:59:39.818Z,,0,2,,3092.7029999940423,response,ISIC_4961708.JPG,4,ISIC_0015390.JPG,ISIC_0015390.JPG,false,0,keypress(z),500,204559.40000000596,204559.09999999404,201449.612,201452.40000000596,201466.397,204570.711,8,400,1,,ISIC_4961708.JPG
break,html.Screen,4_50_1,2023-09-15T17:59:39.819Z,,0,,,NaN,,,,,,false,,,,204560,204559.79999998212,,204559.5,,204570.711,8,400,,,
break_continue,html.Screen,4_50_2,2023-09-15T17:59:39.819Z,,0,,,NaN,,,,,,false,,,,204560.19999998808,204560.19999998808,,204560,,204570.711,8,400,,,
sequence,flow.Sequence,4_50,2023-09-15T17:59:39.819Z,,0,,,3093.802999988082,completion,,,,,false,,,,204560.40000000596,204560.19999998808,201449.612,201452.29999998212,201466.397,204570.711,8,400,,,
trial,html.Screen,4_51_0,2023-09-15T17:59:43.311Z,,0,2,,3481.2889999999898,response,ISIC_0053765.JPG,5,ISIC_3147084.JPG,ISIC_3147084.JPG,false,0,keypress(z),500,208052.40000000596,208052,204553.876,204560.5,204570.711,208059.221,8,400,2,,ISIC_0053765.JPG
break,html.Screen,4_51_1,2023-09-15T17:59:43.312Z,,0,,,NaN,,,,,,false,,,,208053.19999998808,208053,,208052.5,,208059.221,8,400,,,
break_continue,html.Screen,4_51_2,2023-09-15T17:59:43.312Z,,0,,,NaN,,,,,,false,,,,208053.5,208053.40000000596,,208053.29999998212,,208059.221,8,400,,,
sequence,flow.Sequence,4_51,2023-09-15T17:59:43.312Z,,0,,,3482.68900000595,completion,,,,,false,,,,208053.59999999404,208053.40000000596,204553.876,204560.40000000596,204570.711,208059.221,8,400,,,
trial,html.Screen,4_52_0,2023-09-15T17:59:46.082Z,,0,2,,2764.078999982128,response,ISIC_4728589.JPG,5,ISIC_8671453.JPG,ISIC_8671453.JPG,false,0,keypress(z),500,210823.59999999404,210823.29999998212,208041.988,208053.69999998808,208059.221,210829.13,8,400,3,,ISIC_4728589.JPG
break,html.Screen,4_52_1,2023-09-15T17:59:46.083Z,,0,,,NaN,,,,,,false,,,,210824,210823.90000000596,,210823.59999999404,,210829.13,8,400,,,
break_continue,html.Screen,4_52_2,2023-09-15T17:59:46.083Z,,0,,,NaN,,,,,,false,,,,210824.19999998808,210824.09999999404,,210824.09999999404,,210829.13,8,400,,,
sequence,flow.Sequence,4_52,2023-09-15T17:59:46.083Z,,0,,,2764.878999994049,completion,,,,,false,,,,210824.29999998212,210824.09999999404,208041.988,208053.69999998808,208059.221,210829.13,8,400,,,
trial,html.Screen,4_53_0,2023-09-15T17:59:48.742Z,,0,2,,2654.169999982114,response,ISIC_0064066.JPG,6,ISIC_0027604.JPG,ISIC_0064066.JPG,false,1,keypress(m),500,213483.5,213483.29999998212,210812.564,210824.29999998212,210829.13,213499.401,8,400,4,,ISIC_0027604.JPG
break,html.Screen,4_53_1,2023-09-15T17:59:48.743Z,,0,,,NaN,,,,,,false,,,,213484.19999998808,213484.09999999404,,213483.59999999404,,213499.401,8,400,,,
break_continue,html.Screen,4_53_2,2023-09-15T17:59:48.743Z,,0,,,NaN,,,,,,false,,,,213484.59999999404,213484.5,,213484.40000000596,,213499.401,8,400,,,
sequence,flow.Sequence,4_53,2023-09-15T17:59:48.743Z,,0,,,2655.3699999999953,completion,,,,,false,,,,213484.69999998808,213484.5,210812.564,210824.29999998212,210829.13,213499.401,8,400,,,
trial,html.Screen,4_54_0,2023-09-15T17:59:51.578Z,,0,2,,2819.698999994027,response,ISIC_0025877.JPG,6,ISIC_0301568.JPG,ISIC_0301568.JPG,false,0,keypress(z),500,216319.19999998808,216319.09999999404,213482.672,213484.79999998212,213499.401,216336.564,8,400,5,,ISIC_0025877.JPG
break,html.Screen,4_54_1,2023-09-15T17:59:51.579Z,,0,,,NaN,,,,,,false,,,,216320,216319.90000000596,,216319.40000000596,,216336.564,8,400,,,
break_continue,html.Screen,4_54_2,2023-09-15T17:59:51.579Z,,0,,,NaN,,,,,,false,,,,216320.29999998212,216320.29999998212,,216320.19999998808,,216336.564,8,400,,,
sequence,flow.Sequence,4_54,2023-09-15T17:59:51.579Z,,0,,,2820.898999982106,completion,,,,,false,,,,216320.40000000596,216320.29999998212,213482.672,213484.79999998212,213499.401,216336.564,8,400,,,
trial,html.Screen,4_55_0,2023-09-15T17:59:54.494Z,,0,2,,2898.135999988066,response,ISIC_0033317.JPG,6,ISIC_2320481.JPG,ISIC_0033317.JPG,false,1,keypress(m),500,219234.79999998212,219234.69999998808,216303.202,216320.40000000596,216336.564,219240.581,8,400,6,,ISIC_2320481.JPG
break,html.Screen,4_55_1,2023-09-15T17:59:54.494Z,,0,,,NaN,,,,,,false,,,,219235.59999999404,219235.40000000596,,219235,,219240.581,8,400,,,
break_continue,html.Screen,4_55_2,2023-09-15T17:59:54.495Z,,0,,,NaN,,,,,,false,,,,219235.90000000596,219235.69999998808,,219235.59999999404,,219240.581,8,400,,,
sequence,flow.Sequence,4_55,2023-09-15T17:59:54.495Z,,0,,,2899.135999988066,completion,,,,,false,,,,219235.90000000596,219235.69999998808,216303.202,216320.40000000596,216336.564,219240.581,8,400,,,
trial,html.Screen,4_56_0,2023-09-15T17:59:57.143Z,,0,2,,2643.9189999999944,response,ISIC_0067443.JPG,6,ISIC_0068176.JPG,ISIC_0068176.JPG,false,0,keypress(z),500,221884.69999998808,221884.5,219223.842,219235.90000000596,219240.581,221894.113,8,400,7,,ISIC_0067443.JPG
break,html.Screen,4_56_1,2023-09-15T17:59:57.144Z,,0,,,NaN,,,,,,false,,,,221885.19999998808,221885.09999999404,,221884.79999998212,,221894.113,8,400,,,
break_continue,html.Screen,4_56_2,2023-09-15T17:59:57.144Z,,0,,,NaN,,,,,,false,,,,221885.40000000596,221885.29999998212,,221885.29999998212,,221894.113,8,400,,,
sequence,flow.Sequence,4_56,2023-09-15T17:59:57.144Z,,0,,,2644.718999982113,completion,,,,,false,,,,221885.5,221885.29999998212,219223.842,219235.90000000596,219240.581,221894.113,8,400,,,
trial,html.Screen,4_57_0,2023-09-15T17:59:59.914Z,,0,2,,2760.886999999988,response,ISIC_7454679.JPG,4,ISIC_5392118.JPG,ISIC_7454679.JPG,false,1,keypress(m),500,224655.19999998808,224655,221877.421,221885.59999999404,221894.113,224664.677,8,400,8,,ISIC_5392118.JPG
break,html.Screen,4_57_1,2023-09-15T17:59:59.914Z,,0,,,NaN,,,,,,false,,,,224655.79999998212,224655.69999998808,,224655.40000000596,,224664.677,8,400,,,
break_continue,html.Screen,4_57_2,2023-09-15T17:59:59.915Z,,0,,,NaN,,,,,,false,,,,224656,224655.90000000596,,224655.90000000596,,224664.677,8,400,,,
sequence,flow.Sequence,4_57,2023-09-15T17:59:59.915Z,,0,,,2761.7870000059484,completion,,,,,false,,,,224656.09999999404,224655.90000000596,221877.421,221885.5,221894.113,224664.677,8,400,,,
trial,html.Screen,4_58_0,2023-09-15T18:00:02.541Z,,0,2,,2617.522999988083,response,ISIC_7852890.JPG,5,ISIC_2244564.JPG,ISIC_2244564.JPG,false,0,keypress(z),500,227282.40000000596,227282.19999998808,224647.831,224656.09999999404,224664.677,227284.812,8,400,9,,ISIC_7852890.JPG
break,html.Screen,4_58_1,2023-09-15T18:00:02.542Z,,0,,,NaN,,,,,,false,,,,227282.90000000596,227282.79999998212,,227282.5,,227284.812,8,400,,,
break_continue,html.Screen,4_58_2,2023-09-15T18:00:02.542Z,,0,,,NaN,,,,,,false,,,,227283.09999999404,227283,,227283,,227284.812,8,400,,,
sequence,flow.Sequence,4_58,2023-09-15T18:00:02.542Z,,0,,,2618.323000000004,completion,,,,,false,,,,227283.19999998808,227283,224647.831,224656.09999999404,224664.677,227284.812,8,400,,,
trial,html.Screen,4_59_0,2023-09-15T18:00:05.232Z,,0,2,,2687.787999994034,response,ISIC_0030407.JPG,5,ISIC_0064907.JPG,ISIC_0064907.JPG,false,0,keypress(z),500,229972.79999998212,229972.59999999404,227268.059,227283.19999998808,227284.812,229988.485,8,400,10,,ISIC_0030407.JPG
break,html.Screen,4_59_1,2023-09-15T18:00:05.232Z,,0,,,NaN,,,,,,false,,,,229973.59999999404,229973.5,,229973,,229988.485,8,400,,,
break_continue,html.Screen,4_59_2,2023-09-15T18:00:05.232Z,,0,,,NaN,,,,,,false,,,,229973.69999998808,229973.69999998808,,229973.69999998808,,229988.485,8,400,,,
sequence,flow.Sequence,4_59,2023-09-15T18:00:05.233Z,,0,,,2688.8879999880737,completion,,,,,false,,,,229973.79999998212,229973.69999998808,227268.059,227283.19999998808,227284.812,229988.485,8,400,,,
trial,html.Screen,4_60_0,2023-09-15T18:00:08.211Z,,0,2,,2963.9150000059744,response,ISIC_9640145.JPG,6,ISIC_9696502.JPG,ISIC_9696502.JPG,false,0,keypress(z),500,232952.59999999404,232952.40000000596,229971.673,229973.90000000596,229988.485,232959.281,8,400,11,,ISIC_9640145.JPG
break,html.Screen,4_60_1,2023-09-15T18:00:08.212Z,,0,,,NaN,,,,,,false,,,,232953.40000000596,232953.09999999404,,232952.79999998212,,232959.281,8,400,,,
break_continue,html.Screen,4_60_2,2023-09-15T18:00:08.212Z,,0,,,NaN,,,,,,false,,,,232953.59999999404,232953.5,,232953.40000000596,,232959.281,8,400,,,
sequence,flow.Sequence,4_60,2023-09-15T18:00:08.212Z,,0,,,2965.015000000014,completion,,,,,false,,,,232953.79999998212,232953.5,229971.673,229973.90000000596,229988.485,232959.281,8,400,,,
trial,html.Screen,4_61_0,2023-09-15T18:00:11.783Z,,0,2,,3564.8189999940514,response,ISIC_5879418.JPG,5,ISIC_3826102.JPG,ISIC_3826102.JPG,false,0,keypress(z),500,236524.29999998212,236524.09999999404,232942.395,232953.90000000596,232959.281,236530.726,8,400,12,,ISIC_5879418.JPG
break,html.Screen,4_61_1,2023-09-15T18:00:11.784Z,,0,,,NaN,,,,,,false,,,,236525.40000000596,236525.29999998212,,236524.59999999404,,236530.726,8,400,,,
break_continue,html.Screen,4_61_2,2023-09-15T18:00:11.785Z,,0,,,NaN,,,,,,false,,,,236525.79999998212,236525.69999998808,,236525.59999999404,,236530.726,8,400,,,
sequence,flow.Sequence,4_61,2023-09-15T18:00:11.785Z,,0,,,3566.418999988091,completion,,,,,false,,,,236526,236525.69999998808,232942.395,232953.79999998212,232959.281,236530.726,8,400,,,
trial,html.Screen,4_62_0,2023-09-15T18:00:14.960Z,,0,2,,3169.8739999940444,response,ISIC_0998962.JPG,6,ISIC_0027867.JPG,ISIC_0998962.JPG,false,1,keypress(m),500,239700.90000000596,239700.59999999404,236514.491,236526,236530.726,239719.371,8,400,13,,ISIC_0027867.JPG
break,html.Screen,4_62_1,2023-09-15T18:00:14.960Z,,0,,,NaN,,,,,,false,,,,239701.59999999404,239701.40000000596,,239701,,239719.371,8,400,,,
break_continue,html.Screen,4_62_2,2023-09-15T18:00:14.961Z,,0,,,NaN,,,,,,false,,,,239702,239701.79999998212,,239701.79999998212,,239719.371,8,400,,,
sequence,flow.Sequence,4_62,2023-09-15T18:00:14.961Z,,0,,,3171.0739999821235,completion,,,,,false,,,,239702.09999999404,239701.79999998212,236514.491,236526,236530.726,239719.371,8,400,,,
trial,html.Screen,4_63_0,2023-09-15T18:00:18.439Z,,0,2,,3460.8289999880653,response,ISIC_0029017.JPG,5,ISIC_0014093.JPG,ISIC_0014093.JPG,false,0,keypress(z),500,243180.40000000596,243180.19999998808,239684.941,239702.09999999404,239719.371,243189.82,8,400,14,,ISIC_0029017.JPG
break,html.Screen,4_63_1,2023-09-15T18:00:18.440Z,,0,,,NaN,,,,,,false,,,,243181,243180.90000000596,,243180.5,,243189.82,8,400,,,
break_continue,html.Screen,4_63_2,2023-09-15T18:00:18.440Z,,0,,,NaN,,,,,,false,,,,243181.19999998808,243181.09999999404,,243181,,243189.82,8,400,,,
sequence,flow.Sequence,4_63,2023-09-15T18:00:18.440Z,,0,,,3461.728999994026,completion,,,,,false,,,,243181.29999998212,243181.09999999404,239684.941,239702.09999999404,239719.371,243189.82,8,400,,,
trial,html.Screen,4_64_0,2023-09-15T18:00:21.487Z,,0,2,,3038.4799999821116,response,ISIC_0053796.JPG,6,ISIC_0010198.JPG,ISIC_0053796.JPG,false,1,keypress(m),500,246228.5,246228.29999998212,243172.949,243181.40000000596,243189.82,246243.854,8,400,15,,ISIC_0010198.JPG
break,html.Screen,4_64_1,2023-09-15T18:00:21.488Z,,0,,,NaN,,,,,,false,,,,246229.59999999404,246229.40000000596,,246228.79999998212,,246243.854,8,400,,,
break_continue,html.Screen,4_64_2,2023-09-15T18:00:21.489Z,,0,,,NaN,,,,,,false,,,,246229.90000000596,246229.79999998212,,246229.59999999404,,246243.854,8,400,,,
sequence,flow.Sequence,4_64,2023-09-15T18:00:21.489Z,,0,,,3039.9799999821116,completion,,,,,false,,,,246230,246229.79999998212,243172.949,243181.40000000596,243189.82,246243.854,8,400,,,
trial,html.Screen,4_65_0,2023-09-15T18:00:24.760Z,,0,2,,3257.146000000008,response,ISIC_3810274.JPG,5,ISIC_0008424.JPG,ISIC_3810274.JPG,false,1,keypress(m),500,249501.29999998212,249501,246227.118,246230.09999999404,246243.854,249514.982,8,400,16,,ISIC_0008424.JPG
break,html.Screen,4_65_1,2023-09-15T18:00:24.760Z,,0,,,NaN,,,,,,false,,,,249501.79999998212,249501.69999998808,,249501.29999998212,,249514.982,8,400,,,
break_continue,html.Screen,4_65_2,2023-09-15T18:00:24.761Z,,0,,,NaN,,,,,,false,,,,249501.90000000596,249501.90000000596,,249501.79999998212,,249514.982,8,400,,,
sequence,flow.Sequence,4_65,2023-09-15T18:00:24.761Z,,0,,,3258.0460000059684,completion,,,,,false,,,,249502,249501.90000000596,246227.118,246230,246243.854,249514.982,8,400,,,
trial,html.Screen,4_66_0,2023-09-15T18:00:27.343Z,,0,2,,2569.1179999940505,response,ISIC_0541345.JPG,5,ISIC_0000035.JPG,ISIC_0000035.JPG,false,0,keypress(z),500,252084.19999998808,252084.09999999404,249498.187,249502.09999999404,249514.982,252102.865,8,400,17,,ISIC_0541345.JPG
break,html.Screen,4_66_1,2023-09-15T18:00:27.343Z,,0,,,NaN,,,,,,false,,,,252084.79999998212,252084.59999999404,,252084.29999998212,,252102.865,8,400,,,
break_continue,html.Screen,4_66_2,2023-09-15T18:00:27.344Z,,0,,,NaN,,,,,,false,,,,252085,252084.90000000596,,252084.79999998212,,252102.865,8,400,,,
sequence,flow.Sequence,4_66,2023-09-15T18:00:27.344Z,,0,,,2569.9180000059714,completion,,,,,false,,,,252085,252084.90000000596,249498.187,249502.09999999404,249514.982,252102.865,8,400,,,
trial,html.Screen,4_67_0,2023-09-15T18:00:30.674Z,,0,2,,3311.934999982128,response,ISIC_7189490.JPG,6,ISIC_0010883.JPG,ISIC_0010883.JPG,false,0,keypress(z),500,255415,255414.79999998212,252068.387,252085.19999998808,252102.865,255422.947,8,400,18,,ISIC_7189490.JPG
break,html.Screen,4_67_1,2023-09-15T18:00:30.674Z,,0,,,NaN,,,,,,false,,,,255415.59999999404,255415.5,,255415.19999998808,,255422.947,8,400,,,
break_continue,html.Screen,4_67_2,2023-09-15T18:00:30.674Z,,0,,,NaN,,,,,,false,,,,255415.79999998212,255415.79999998212,,255415.69999998808,,255422.947,8,400,,,
sequence,flow.Sequence,4_67,2023-09-15T18:00:30.674Z,,0,,,3312.934999982128,completion,,,,,false,,,,255415.90000000596,255415.79999998212,252068.387,252085.19999998808,252102.865,255422.947,8,400,,,
trial,html.Screen,4_68_0,2023-09-15T18:00:34.279Z,,0,2,,3597.2529999880935,response,ISIC_0005854.JPG,5,ISIC_2067576.JPG,ISIC_0005854.JPG,false,1,keypress(m),500,259020.29999998212,259020.19999998808,255406.193,255416,255422.947,259027.967,8,400,19,,ISIC_2067576.JPG
break,html.Screen,4_68_1,2023-09-15T18:00:34.279Z,,0,,,NaN,,,,,,false,,,,259020.90000000596,259020.69999998808,,259020.40000000596,,259027.967,8,400,,,
break_continue,html.Screen,4_68_2,2023-09-15T18:00:34.280Z,,0,,,NaN,,,,,,false,,,,259021,259020.90000000596,,259020.90000000596,,259027.967,8,400,,,
sequence,flow.Sequence,4_68,2023-09-15T18:00:34.280Z,,0,,,3597.953000005975,completion,,,,,false,,,,259021.09999999404,259020.90000000596,255406.193,255415.90000000596,255422.947,259027.967,8,400,,,
trial,html.Screen,4_69_0,2023-09-15T18:00:37.018Z,,0,2,,2731.032999999996,response,ISIC_5476463.JPG,6,ISIC_9865097.JPG,ISIC_9865097.JPG,false,0,keypress(z),500,261759.19999998808,261759,259011.155,259021.09999999404,259027.967,261765.001,8,400,20,,ISIC_5476463.JPG
break,html.Screen,4_69_1,2023-09-15T18:00:37.018Z,,0,,,NaN,,,,,,false,,,,261759.90000000596,261759.69999998808,,261759.40000000596,,261765.001,8,400,,,
break_continue,html.Screen,4_69_2,2023-09-15T18:00:37.019Z,,0,,,NaN,,,,,,false,,,,261760.09999999404,261760,,261760,,261765.001,8,400,,,
sequence,flow.Sequence,4_69,2023-09-15T18:00:37.019Z,,0,,,2732.032999999996,completion,,,,,false,,,,261760.19999998808,261760,259011.155,259021.09999999404,259027.967,261765.001,8,400,,,
trial,html.Screen,4_70_0,2023-09-15T18:00:41.344Z,,0,2,,4319.899000005971,response,ISIC_0014324.JPG,6,ISIC_7008335.JPG,ISIC_0014324.JPG,false,1,keypress(m),500,266085.1999999881,266084.90000000596,261748.18,261760.19999998808,261765.001,266087.466,8,400,21,,ISIC_7008335.JPG
break,html.Screen,4_70_1,2023-09-15T18:00:41.345Z,,0,,,NaN,,,,,,false,,,,266086,266085.7999999821,,266085.40000000596,,266087.466,8,400,,,
break_continue,html.Screen,4_70_2,2023-09-15T18:00:41.345Z,,0,,,NaN,,,,,,false,,,,266086.2999999821,266086.1999999881,,266086.09999999404,,266087.466,8,400,,,
sequence,flow.Sequence,4_70,2023-09-15T18:00:41.345Z,,0,,,4321.19899998809,completion,,,,,false,,,,266086.5,266086.1999999881,261748.18,261760.19999998808,261765.001,266087.466,8,400,,,
trial,html.Screen,4_71_0,2023-09-15T18:00:44.114Z,,0,2,,2768.033999999985,response,ISIC_0001057.JPG,5,ISIC_3573969.JPG,ISIC_3573969.JPG,false,0,keypress(z),500,268855.6999999881,268855.5,266070.779,266086.59999999404,266087.466,268857.9,8,400,22,,ISIC_0001057.JPG
break,html.Screen,4_71_1,2023-09-15T18:00:44.115Z,,0,,,NaN,,,,,,false,,,,268856.2999999821,268856.1999999881,,268855.90000000596,,268857.9,8,400,,,
break_continue,html.Screen,4_71_2,2023-09-15T18:00:44.115Z,,0,,,NaN,,,,,,false,,,,268856.59999999404,268856.5,,268856.5,,268857.9,8,400,,,
sequence,flow.Sequence,4_71,2023-09-15T18:00:44.115Z,,0,,,2769.033999999985,completion,,,,,false,,,,268856.59999999404,268856.5,266070.779,266086.59999999404,266087.466,268857.9,8,400,,,
trial,html.Screen,4_72_0,2023-09-15T18:00:46.773Z,,0,2,,2656.299999988056,response,ISIC_0010140.JPG,6,ISIC_2585066.JPG,ISIC_0010140.JPG,false,1,keypress(m),500,271514.2999999821,271514.1999999881,268841.083,268856.6999999881,268857.9,271528.161,8,400,23,,ISIC_2585066.JPG
break,html.Screen,4_72_1,2023-09-15T18:00:46.773Z,,0,,,NaN,,,,,,false,,,,271514.90000000596,271514.7999999821,,271514.5,,271528.161,8,400,,,
break_continue,html.Screen,4_72_2,2023-09-15T18:00:46.774Z,,0,,,NaN,,,,,,false,,,,271515,271515,,271514.90000000596,,271528.161,8,400,,,
sequence,flow.Sequence,4_72,2023-09-15T18:00:46.774Z,,0,,,2657.0999999999767,completion,,,,,false,,,,271515.1999999881,271515,268841.083,268856.6999999881,268857.9,271528.161,8,400,,,
trial,html.Screen,4_73_0,2023-09-15T18:00:50.184Z,,0,2,,3396.838999999978,response,ISIC_0013671.JPG,5,ISIC_2241755.JPG,ISIC_2241755.JPG,false,0,keypress(z),500,274925.1999999881,274925,271511.476,271515.1999999881,271528.161,274933.087,8,400,24,,ISIC_0013671.JPG
break,html.Screen,4_73_1,2023-09-15T18:00:50.185Z,,0,,,NaN,,,,,,false,,,,274926,274925.90000000596,,274925.40000000596,,274933.087,8,400,,,
break_continue,html.Screen,4_73_2,2023-09-15T18:00:50.185Z,,0,,,NaN,,,,,,false,,,,274926.2999999821,274926.09999999404,,274926.09999999404,,274933.087,8,400,,,
sequence,flow.Sequence,4_73,2023-09-15T18:00:50.185Z,,0,,,3397.9389999940176,completion,,,,,false,,,,274926.40000000596,274926.09999999404,271511.476,271515.1999999881,271528.161,274933.087,8,400,,,
trial,html.Screen,4_74_0,2023-09-15T18:00:53.692Z,,0,2,,3499.9130000000005,response,ISIC_0023162.JPG,6,ISIC_0010140.JPG,ISIC_0023162.JPG,false,1,keypress(m),500,278433.1999999881,278433,274916.047,274926.40000000596,274933.087,278437.512,8,400,25,,ISIC_0010140.JPG
break,html.Screen,4_74_1,2023-09-15T18:00:53.692Z,,0,,,NaN,,,,,,false,,,,278433.6999999881,278433.59999999404,,278433.1999999881,,278437.512,8,400,,,
break_continue,html.Screen,4_74_2,2023-09-15T18:00:53.692Z,,0,,,NaN,,,,,,false,,,,278433.7999999821,278433.7999999821,,278433.7999999821,,278437.512,8,400,,,
sequence,flow.Sequence,4_74,2023-09-15T18:00:53.692Z,,0,,,3500.712999982119,completion,,,,,false,,,,278433.7999999821,278433.7999999821,274916.047,274926.40000000596,274933.087,278437.512,8,400,,,
trial,html.Screen,4_75_0,2023-09-15T18:00:56.302Z,,0,2,,2606.0879999940516,response,ISIC_0001141.JPG,5,ISIC_4193253.JPG,ISIC_0001141.JPG,false,1,keypress(m),500,281043.7999999821,281043.59999999404,278420.86,278433.90000000596,278437.512,281057.774,8,400,26,,ISIC_4193253.JPG
break,html.Screen,4_75_1,2023-09-15T18:00:56.303Z,,0,,,NaN,,,,,,false,,,,281044.40000000596,281044.1999999881,,281043.90000000596,,281057.774,8,400,,,
break_continue,html.Screen,4_75_2,2023-09-15T18:00:56.303Z,,0,,,NaN,,,,,,false,,,,281044.59999999404,281044.40000000596,,281044.40000000596,,281057.774,8,400,,,
sequence,flow.Sequence,4_75,2023-09-15T18:00:56.303Z,,0,,,2606.8880000059726,completion,,,,,false,,,,281044.59999999404,281044.40000000596,278420.86,278433.90000000596,278437.512,281057.774,8,400,,,
trial,html.Screen,4_76_0,2023-09-15T18:00:59.031Z,,0,2,,2714.8259999940637,response,ISIC_4296456.JPG,4,ISIC_0069536.JPG,ISIC_0069536.JPG,false,0,keypress(z),500,283772.6999999881,283772.59999999404,281040.999,281044.6999999881,281057.774,283778.192,8,400,27,,ISIC_4296456.JPG
break,html.Screen,4_76_1,2023-09-15T18:00:59.032Z,,0,,,NaN,,,,,,false,,,,283773.2999999821,283773.1999999881,,283772.7999999821,,283778.192,8,400,,,
break_continue,html.Screen,4_76_2,2023-09-15T18:00:59.032Z,,0,,,NaN,,,,,,false,,,,283773.5,283773.40000000596,,283773.2999999821,,283778.192,8,400,,,
sequence,flow.Sequence,4_76,2023-09-15T18:00:59.032Z,,0,,,2715.6260000059847,completion,,,,,false,,,,283773.59999999404,283773.40000000596,281040.999,281044.6999999881,281057.774,283778.192,8,400,,,
trial,html.Screen,4_77_0,2023-09-15T18:01:01.775Z,,0,2,,2738.1079999821377,response,ISIC_7334117.JPG,5,ISIC_0046609.JPG,ISIC_0046609.JPG,false,0,keypress(z),500,286516.5,286516.2999999821,283761.382,283773.6999999881,283778.192,286531.866,8,400,28,,ISIC_7334117.JPG
break,html.Screen,4_77_1,2023-09-15T18:01:01.776Z,,0,,,NaN,,,,,,false,,,,286517.2999999821,286517.1999999881,,286516.6999999881,,286531.866,8,400,,,
break_continue,html.Screen,4_77_2,2023-09-15T18:01:01.776Z,,0,,,NaN,,,,,,false,,,,286517.59999999404,286517.5,,286517.2999999821,,286531.866,8,400,,,
sequence,flow.Sequence,4_77,2023-09-15T18:01:01.776Z,,0,,,2739.308000000019,completion,,,,,false,,,,286517.6999999881,286517.5,283761.382,283773.6999999881,283778.192,286531.866,8,400,,,
trial,html.Screen,4_78_0,2023-09-15T18:01:04.467Z,,0,2,,2676.0340000059805,response,ISIC_3123377.JPG,5,ISIC_0011094.JPG,ISIC_0011094.JPG,false,0,keypress(z),500,289208.1999999881,289207.90000000596,286515.112,286517.6999999881,286531.866,289218.816,8,400,29,,ISIC_3123377.JPG
break,html.Screen,4_78_1,2023-09-15T18:01:04.467Z,,0,,,NaN,,,,,,false,,,,289208.7999999821,289208.59999999404,,289208.2999999821,,289218.816,8,400,,,
break_continue,html.Screen,4_78_2,2023-09-15T18:01:04.468Z,,0,,,NaN,,,,,,false,,,,289208.90000000596,289208.7999999821,,289208.7999999821,,289218.816,8,400,,,
sequence,flow.Sequence,4_78,2023-09-15T18:01:04.468Z,,0,,,2676.9339999821386,completion,,,,,false,,,,289209,289208.7999999821,286515.112,286517.6999999881,286531.866,289218.816,8,400,,,
trial,html.Screen,4_79_0,2023-09-15T18:01:07.126Z,,0,2,,2648.584000005969,response,ISIC_0032922.JPG,5,ISIC_8785329.JPG,ISIC_8785329.JPG,false,0,keypress(z),500,291867.6999999881,291867.40000000596,289202.069,289209.6999999881,289218.816,291872.469,8,400,30,,ISIC_0032922.JPG
break,html.Screen,4_79_1,2023-09-15T18:01:07.127Z,,0,,,NaN,,,,,,false,,,,291868.5,291868.2999999821,,291867.6999999881,,291872.469,8,400,,,
break_continue,html.Screen,4_79_2,2023-09-15T18:01:07.128Z,,0,,,NaN,,,,,,false,,,,291868.90000000596,291868.7999999821,,291868.6999999881,,291872.469,8,400,,,
sequence,flow.Sequence,4_79,2023-09-15T18:01:07.128Z,,0,,,2649.983999982127,completion,,,,,false,,,,291869.09999999404,291868.7999999821,289202.069,289209.59999999404,289218.816,291872.469,8,400,,,
trial,html.Screen,4_80_0,2023-09-15T18:01:11.146Z,,0,2,,4014.830999982136,response,ISIC_3436139.JPG,5,ISIC_0064279.JPG,ISIC_0064279.JPG,false,0,keypress(z),500,295887.5,295887.2999999821,291857.021,291869.09999999404,291872.469,295894.628,8,400,31,,ISIC_3436139.JPG
break,html.Screen,4_80_1,2023-09-15T18:01:11.147Z,,0,,,NaN,,,,,,false,,,,295888.2999999821,295888.1999999881,,295887.59999999404,,295894.628,8,400,,,
break_continue,html.Screen,4_80_2,2023-09-15T18:01:11.147Z,,0,,,NaN,,,,,,false,,,,295888.59999999404,295888.59999999404,,295888.5,,295894.628,8,400,,,
sequence,flow.Sequence,4_80,2023-09-15T18:01:11.147Z,,0,,,4016.1309999940568,completion,,,,,false,,,,295888.6999999881,295888.59999999404,291857.021,291869.09999999404,291872.469,295894.628,8,400,,,
trial,html.Screen,4_81_0,2023-09-15T18:01:14.190Z,,0,2,,3036.571999988053,response,ISIC_0296109.JPG,5,ISIC_6908183.JPG,ISIC_0296109.JPG,false,1,keypress(m),500,298931.5,298931.1999999881,295877.841,295888.6999999881,295894.628,298948.727,8,400,32,,ISIC_6908183.JPG
break,html.Screen,4_81_1,2023-09-15T18:01:14.191Z,,0,,,NaN,,,,,,false,,,,298932.59999999404,298932.40000000596,,298931.6999999881,,298948.727,8,400,,,
break_continue,html.Screen,4_81_2,2023-09-15T18:01:14.191Z,,0,,,NaN,,,,,,false,,,,298932.7999999821,298932.7999999821,,298932.6999999881,,298948.727,8,400,,,
sequence,flow.Sequence,4_81,2023-09-15T18:01:14.192Z,,0,,,3038.1719999820925,completion,,,,,false,,,,298933,298932.7999999821,295877.841,295888.6999999881,295894.628,298948.727,8,400,,,
trial,html.Screen,4_82_0,2023-09-15T18:01:17.991Z,,0,2,,3783.2729999999865,response,ISIC_0010866.JPG,5,ISIC_0070009.JPG,ISIC_0010866.JPG,false,1,keypress(m),500,302732.2999999821,302732,298932.014,298933,298948.727,302737.233,8,400,33,,ISIC_0070009.JPG
break,html.Screen,4_82_1,2023-09-15T18:01:17.992Z,,0,,,NaN,,,,,,false,,,,302733.40000000596,302733.09999999404,,302732.5,,302737.233,8,400,,,
break_continue,html.Screen,4_82_2,2023-09-15T18:01:17.992Z,,0,,,NaN,,,,,,false,,,,302733.7999999821,302733.59999999404,,302733.5,,302737.233,8,400,,,
sequence,flow.Sequence,4_82,2023-09-15T18:01:17.993Z,,0,,,3784.872999994026,completion,,,,,false,,,,302734,302733.59999999404,298932.014,298933,298948.727,302737.233,8,400,,,
trial,html.Screen,4_83_0,2023-09-15T18:01:21.050Z,,0,2,,3054.566999982111,response,ISIC_8530010.JPG,5,ISIC_0033125.JPG,ISIC_8530010.JPG,false,1,keypress(m),500,305791.90000000596,305791.7999999821,302720.499,302734.09999999404,302737.233,305824.718,8,400,34,,ISIC_0033125.JPG
break,html.Screen,4_83_1,2023-09-15T18:01:21.051Z,,0,,,NaN,,,,,,false,,,,305792.2999999821,305792.1999999881,,305792,,305824.718,8,400,,,
break_continue,html.Screen,4_83_2,2023-09-15T18:01:21.051Z,,0,,,NaN,,,,,,false,,,,305792.5,305792.40000000596,,305792.40000000596,,305824.718,8,400,,,
sequence,flow.Sequence,4_83,2023-09-15T18:01:21.051Z,,0,,,3055.167000005953,completion,,,,,false,,,,305792.59999999404,305792.40000000596,302720.499,302734.09999999404,302737.233,305824.718,8,400,,,
trial,html.Screen,4_84_0,2023-09-15T18:01:23.791Z,,0,2,,2707.682000005967,response,ISIC_0025382.JPG,6,ISIC_0031246.JPG,ISIC_0031246.JPG,false,0,keypress(z),500,308532.59999999404,308532.40000000596,305808.026,305792.59999999404,305824.718,308545.091,8,400,35,,ISIC_0025382.JPG
break,html.Screen,4_84_1,2023-09-15T18:01:23.792Z,,0,,,NaN,,,,,,false,,,,308533.5,308533.1999999881,,308532.59999999404,,308545.091,8,400,,,
break_continue,html.Screen,4_84_2,2023-09-15T18:01:23.792Z,,0,,,NaN,,,,,,false,,,,308533.6999999881,308533.59999999404,,308533.59999999404,,308545.091,8,400,,,
sequence,flow.Sequence,4_84,2023-09-15T18:01:23.792Z,,0,,,2708.881999994046,completion,,,,,false,,,,308533.7999999821,308533.59999999404,305808.026,305792.59999999404,305824.718,308545.091,8,400,,,
trial,html.Screen,4_85_0,2023-09-15T18:01:26.535Z,,0,2,,2731.2089999821037,response,ISIC_7180096.JPG,5,ISIC_3576000.JPG,ISIC_3576000.JPG,false,0,keypress(z),500,311276.5,311276.2999999821,308528.354,308534,308545.091,311282.183,8,400,36,,ISIC_7180096.JPG
break,html.Screen,4_85_1,2023-09-15T18:01:26.536Z,,0,,,NaN,,,,,,false,,,,311277.09999999404,311276.90000000596,,311276.59999999404,,311282.183,8,400,,,
break_continue,html.Screen,4_85_2,2023-09-15T18:01:26.536Z,,0,,,NaN,,,,,,false,,,,311277.1999999881,311277.1999999881,,311277.09999999404,,311282.183,8,400,,,
sequence,flow.Sequence,4_85,2023-09-15T18:01:26.536Z,,0,,,2732.108999988064,completion,,,,,false,,,,311277.2999999821,311277.1999999881,308528.354,308533.90000000596,308545.091,311282.183,8,400,,,
trial,html.Screen,4_86_0,2023-09-15T18:01:29.279Z,,0,2,,2738.01699998806,response,ISIC_0067549.JPG,5,ISIC_0014826.JPG,ISIC_0014826.JPG,false,0,keypress(z),500,314020.40000000596,314020.1999999881,311265.362,311277.2999999821,311282.183,314035.866,8,400,37,,ISIC_0067549.JPG
break,html.Screen,4_86_1,2023-09-15T18:01:29.280Z,,0,,,NaN,,,,,,false,,,,314021,314020.90000000596,,314020.5,,314035.866,8,400,,,
break_continue,html.Screen,4_86_2,2023-09-15T18:01:29.280Z,,0,,,NaN,,,,,,false,,,,314021.1999999881,314021.1999999881,,314021.09999999404,,314035.866,8,400,,,
sequence,flow.Sequence,4_86,2023-09-15T18:01:29.280Z,,0,,,2739.01699998806,completion,,,,,false,,,,314021.1999999881,314021.1999999881,311265.362,311277.2999999821,311282.183,314035.866,8,400,,,
trial,html.Screen,4_87_0,2023-09-15T18:01:32.071Z,,0,2,,2776.2339999940596,response,ISIC_0032820.JPG,6,ISIC_0064879.JPG,ISIC_0032820.JPG,false,1,keypress(m),500,316812.2999999821,316812.09999999404,314019.183,314021.40000000596,314035.866,316822.957,8,400,38,,ISIC_0064879.JPG
break,html.Screen,4_87_1,2023-09-15T18:01:32.072Z,,0,,,NaN,,,,,,false,,,,316813,316812.90000000596,,316812.5,,316822.957,8,400,,,
break_continue,html.Screen,4_87_2,2023-09-15T18:01:32.072Z,,0,,,NaN,,,,,,false,,,,316813.2999999821,316813.09999999404,,316813,,316822.957,8,400,,,
sequence,flow.Sequence,4_87,2023-09-15T18:01:32.072Z,,0,,,2777.2339999940596,completion,,,,,false,,,,316813.2999999821,316813.09999999404,314019.183,314021.2999999821,314035.866,316822.957,8,400,,,
trial,html.Screen,4_88_0,2023-09-15T18:01:36.127Z,,0,2,,4045.1429999940447,response,ISIC_0034050.JPG,6,ISIC_4762702.JPG,ISIC_4762702.JPG,false,0,keypress(z),500,320868.2999999821,320868.09999999404,316807.639,316813.40000000596,316822.957,320878.453,8,400,39,,ISIC_0034050.JPG
break,html.Screen,4_88_1,2023-09-15T18:01:36.127Z,,0,,,NaN,,,,,,false,,,,320868.7999999821,320868.59999999404,,320868.2999999821,,320878.453,8,400,,,
break_continue,html.Screen,4_88_2,2023-09-15T18:01:36.128Z,,0,,,NaN,,,,,,false,,,,320869,320869,,320868.90000000596,,320878.453,8,400,,,
sequence,flow.Sequence,4_88,2023-09-15T18:01:36.128Z,,0,,,4046.043000000005,completion,,,,,false,,,,320869.09999999404,320869,316807.639,316813.2999999821,316822.957,320878.453,8,400,,,
trial,html.Screen,4_89_0,2023-09-15T18:01:39.272Z,,0,2,,3134.2469999880996,response,ISIC_8523143.JPG,5,ISIC_5437785.JPG,ISIC_8523143.JPG,false,1,keypress(m),500,324013.09999999404,324012.6999999881,320861.787,320869.1999999881,320878.453,324032.757,8,400,40,,ISIC_5437785.JPG
break,html.Screen,4_89_1,2023-09-15T18:01:39.272Z,,0,,,NaN,,,,,,false,,,,324013.90000000596,324013.6999999881,,324013.2999999821,,324032.757,8,400,,,
break_continue,html.Screen,4_89_2,2023-09-15T18:01:39.273Z,,0,,,NaN,,,,,,false,,,,324014.09999999404,324014,,324013.90000000596,,324032.757,8,400,,,
sequence,flow.Sequence,4_89,2023-09-15T18:01:39.273Z,,0,,,3135.5470000000205,completion,,,,,false,,,,324014.09999999404,324014,320861.787,320869.09999999404,320878.453,324032.757,8,400,,,
trial,html.Screen,4_90_0,2023-09-15T18:01:42.143Z,,0,2,,2850.8429999940563,response,ISIC_0002953.JPG,6,ISIC_7746898.JPG,ISIC_7746898.JPG,false,0,keypress(z),500,326883.90000000596,326883.59999999404,324016.292,324014.09999999404,324032.757,326886.892,8,400,41,,ISIC_0002953.JPG
break,html.Screen,4_90_1,2023-09-15T18:01:42.143Z,,0,,,NaN,,,,,,false,,,,326884.7999999821,326884.59999999404,,326884.09999999404,,326886.892,8,400,,,
break_continue,html.Screen,4_90_2,2023-09-15T18:01:42.144Z,,0,,,NaN,,,,,,false,,,,326885,326885,,326884.7999999821,,326886.892,8,400,,,
sequence,flow.Sequence,4_90,2023-09-15T18:01:42.144Z,,0,,,2852.2430000000168,completion,,,,,false,,,,326885.1999999881,326885,324016.292,324014.09999999404,324032.757,326886.892,8,400,,,
trial,html.Screen,4_91_0,2023-09-15T18:01:44.743Z,,0,2,,2597.407999982126,response,ISIC_1615996.JPG,5,ISIC_8481979.JPG,ISIC_1615996.JPG,false,1,keypress(m),500,329484.5,329484.2999999821,326869.934,326885.2999999821,326886.892,329490.121,8,400,42,,ISIC_8481979.JPG
break,html.Screen,4_91_1,2023-09-15T18:01:44.744Z,,0,,,NaN,,,,,,false,,,,329485.5,329485.2999999821,,329484.6999999881,,329490.121,8,400,,,
break_continue,html.Screen,4_91_2,2023-09-15T18:01:44.744Z,,0,,,NaN,,,,,,false,,,,329485.6999999881,329485.6999999881,,329485.59999999404,,329490.121,8,400,,,
sequence,flow.Sequence,4_91,2023-09-15T18:01:44.744Z,,0,,,2598.8079999880865,completion,,,,,false,,,,329485.90000000596,329485.6999999881,326869.934,326885.2999999821,326886.892,329490.121,8,400,,,
trial,html.Screen,4_92_0,2023-09-15T18:01:48.267Z,,0,2,,3517.8790000000154,response,ISIC_5754023.JPG,5,ISIC_0624498.JPG,ISIC_0624498.JPG,false,0,keypress(z),500,333008.2999999821,333008,329474.711,329485.90000000596,329490.121,333011.603,8,400,43,,ISIC_5754023.JPG
break,html.Screen,4_92_1,2023-09-15T18:01:48.268Z,,0,,,NaN,,,,,,false,,,,333009.09999999404,333008.90000000596,,333008.40000000596,,333011.603,8,400,,,
break_continue,html.Screen,4_92_2,2023-09-15T18:01:48.268Z,,0,,,NaN,,,,,,false,,,,333009.40000000596,333009.40000000596,,333009.2999999821,,333011.603,8,400,,,
sequence,flow.Sequence,4_92,2023-09-15T18:01:48.268Z,,0,,,3519.279000005976,completion,,,,,false,,,,333009.5,333009.40000000596,329474.711,329485.90000000596,329490.121,333011.603,8,400,,,
trial,html.Screen,4_93_0,2023-09-15T18:01:51.152Z,,0,2,,2881.896999999997,response,ISIC_6822870.JPG,6,ISIC_0072195.JPG,ISIC_0072195.JPG,false,0,keypress(z),500,335893.7999999821,335893.5,332994.954,333009.6999999881,333011.603,335898.825,8,400,44,,ISIC_6822870.JPG
break,html.Screen,4_93_1,2023-09-15T18:01:51.154Z,,0,,,NaN,,,,,,false,,,,335895,335894.7999999821,,335894.09999999404,,335898.825,8,400,,,
break_continue,html.Screen,4_93_2,2023-09-15T18:01:51.154Z,,0,,,NaN,,,,,,false,,,,335895.2999999821,335895.2999999821,,335895.1999999881,,335898.825,8,400,,,
sequence,flow.Sequence,4_93,2023-09-15T18:01:51.154Z,,0,,,2883.696999982116,completion,,,,,false,,,,335895.40000000596,335895.2999999821,332994.954,333009.6999999881,333011.603,335898.825,8,400,,,
trial,html.Screen,4_94_0,2023-09-15T18:01:54.279Z,,0,2,,3121.474999982107,response,ISIC_7438013.JPG,6,ISIC_1369273.JPG,ISIC_7438013.JPG,false,1,keypress(m),500,339020.5,339020.2999999821,335882.142,335895.5,335898.825,339036.476,8,400,45,,ISIC_1369273.JPG
break,html.Screen,4_94_1,2023-09-15T18:01:54.280Z,,0,,,NaN,,,,,,false,,,,339021.40000000596,339021.09999999404,,339020.6999999881,,339036.476,8,400,,,
break_continue,html.Screen,4_94_2,2023-09-15T18:01:54.280Z,,0,,,NaN,,,,,,false,,,,339021.59999999404,339021.59999999404,,339021.40000000596,,339036.476,8,400,,,
sequence,flow.Sequence,4_94,2023-09-15T18:01:54.280Z,,0,,,3122.774999994028,completion,,,,,false,,,,339021.6999999881,339021.59999999404,335882.142,335895.40000000596,335898.825,339036.476,8,400,,,
trial,html.Screen,4_95_0,2023-09-15T18:01:57.119Z,,0,2,,2823.723999988055,response,ISIC_0057661.JPG,5,ISIC_0519386.JPG,ISIC_0519386.JPG,false,0,keypress(z),500,341860.2999999821,341860.1999999881,339019.76,339021.7999999821,339036.476,341873.606,8,400,46,,ISIC_0057661.JPG
break,html.Screen,4_95_1,2023-09-15T18:01:57.120Z,,0,,,NaN,,,,,,false,,,,341861,341860.7999999821,,341860.5,,341873.606,8,400,,,
break_continue,html.Screen,4_95_2,2023-09-15T18:01:57.120Z,,0,,,NaN,,,,,,false,,,,341861.1999999881,341861.1999999881,,341861.09999999404,,341873.606,8,400,,,
sequence,flow.Sequence,4_95,2023-09-15T18:01:57.120Z,,0,,,2824.723999988055,completion,,,,,false,,,,341861.2999999821,341861.1999999881,339019.76,339021.7999999821,339036.476,341873.606,8,400,,,
trial,html.Screen,4_96_0,2023-09-15T18:02:00.386Z,,0,2,,3253.1939999820897,response,ISIC_0613014.JPG,6,ISIC_6588982.JPG,ISIC_0613014.JPG,false,1,keypress(m),500,345126.90000000596,345126.7999999821,341858.176,341861.40000000596,341873.606,345145.695,8,400,47,,ISIC_6588982.JPG
break,html.Screen,4_96_1,2023-09-15T18:02:00.386Z,,0,,,NaN,,,,,,false,,,,345127.5,345127.40000000596,,345127,,345145.695,8,400,,,
break_continue,html.Screen,4_96_2,2023-09-15T18:02:00.386Z,,0,,,NaN,,,,,,false,,,,345127.7999999821,345127.7999999821,,345127.6999999881,,345145.695,8,400,,,
sequence,flow.Sequence,4_96,2023-09-15T18:02:00.387Z,,0,,,3254.1939999820897,completion,,,,,false,,,,345127.90000000596,345127.7999999821,341858.176,341861.2999999821,341873.606,345145.695,8,400,,,
trial,html.Screen,4_97_0,2023-09-15T18:02:03.895Z,,0,2,,3490.9049999940326,response,ISIC_0010468.JPG,6,ISIC_0068847.JPG,ISIC_0068847.JPG,false,0,keypress(z),500,348636.6999999881,348636.59999999404,345111.377,345128,345145.695,348649.476,8,400,48,,ISIC_0010468.JPG
break,html.Screen,4_97_1,2023-09-15T18:02:03.896Z,,0,,,NaN,,,,,,false,,,,348637.2999999821,348637.1999999881,,348636.7999999821,,348649.476,8,400,,,
break_continue,html.Screen,4_97_2,2023-09-15T18:02:03.896Z,,0,,,NaN,,,,,,false,,,,348637.40000000596,348637.2999999821,,348637.2999999821,,348649.476,8,400,,,
sequence,flow.Sequence,4_97,2023-09-15T18:02:03.896Z,,0,,,3491.6049999821116,completion,,,,,false,,,,348637.5,348637.2999999821,345111.377,345128,345145.695,348649.476,8,400,,,
trial,html.Screen,4_98_0,2023-09-15T18:02:06.586Z,,0,2,,2677.9240000059363,response,ISIC_1860707.JPG,6,ISIC_0027445.JPG,ISIC_0027445.JPG,false,0,keypress(z),500,351327.5,351327.40000000596,348632.786,348637.5,348649.476,351336.455,8,400,49,,ISIC_1860707.JPG
break,html.Screen,4_98_1,2023-09-15T18:02:06.587Z,,0,,,NaN,,,,,,false,,,,351328,351327.90000000596,,351327.5,,351336.455,8,400,,,
break_continue,html.Screen,4_98_2,2023-09-15T18:02:06.587Z,,0,,,NaN,,,,,,false,,,,351328.1999999881,351328.1999999881,,351328.09999999404,,351336.455,8,400,,,
sequence,flow.Sequence,4_98,2023-09-15T18:02:06.587Z,,0,,,2678.723999988055,completion,,,,,false,,,,351328.1999999881,351328.1999999881,348632.786,348637.5,348649.476,351336.455,8,400,,,
trial,html.Screen,4_99_0,2023-09-15T18:02:09.295Z,,0,2,,2699.3449999821023,response,ISIC_4116770.JPG,6,ISIC_7296463.JPG,ISIC_4116770.JPG,false,1,keypress(m),500,354036.09999999404,354035.7999999821,351321.077,351328.2999999821,351336.455,354040.116,8,400,50,,ISIC_7296463.JPG
break,html.Screen,4_99_1,2023-09-15T18:02:19.280Z,,0,,,9996.917000000016,timeout,,,,,false,,,,364021.1999999881,364020.361,354023.461,354036.1999999881,354040.116,364037.033,8,400,,,
break_continue,html.Screen,4_99_2,2023-09-15T18:02:20.708Z,,0,,,1401.5669999940437,response,,,,,false,continue,keypress(Space),,365448.90000000596,365438.59999999404,364020.361,364021.2999999821,364037.033,365455.717,8,400,,,
sequence,flow.Sequence,4_99,2023-09-15T18:02:20.708Z,,0,,,14102.144999994023,completion,,,,,false,,,,365449.09999999404,365438.59999999404,351321.077,351328.1999999881,351336.455,365455.717,8,400,,,
trial,html.Screen,4_100_0,2023-09-15T18:02:23.864Z,,0,3,,3149.782999999996,response,ISIC_1937197.JPG,6,ISIC_0375034.JPG,ISIC_1937197.JPG,false,1,keypress(m),500,368605.6999999881,368605.5,365438.892,365449.1999999881,365455.717,368609.906,8,400,1,,ISIC_0375034.JPG
break,html.Screen,4_100_1,2023-09-15T18:02:23.865Z,,0,,,NaN,,,,,,false,,,,368606.5,368606.2999999821,,368605.7999999821,,368609.906,8,400,,,
break_continue,html.Screen,4_100_2,2023-09-15T18:02:23.866Z,,0,,,NaN,,,,,,false,,,,368607,368606.7999999821,,368606.6999999881,,368609.906,8,400,,,
sequence,flow.Sequence,4_100,2023-09-15T18:02:23.866Z,,0,,,3151.0829999821144,completion,,,,,false,,,,368607.09999999404,368606.7999999821,365438.892,365449.1999999881,365455.717,368609.906,8,400,,,
trial,html.Screen,4_101_0,2023-09-15T18:02:26.973Z,,0,3,,3103.9940000059432,response,ISIC_0034076.JPG,6,ISIC_0011092.JPG,ISIC_0034076.JPG,false,1,keypress(m),500,371714.09999999404,371713.90000000596,368593.27,368607.1999999881,368609.906,371730.814,8,400,2,,ISIC_0011092.JPG
break,html.Screen,4_101_1,2023-09-15T18:02:26.974Z,,0,,,NaN,,,,,,false,,,,371714.7999999821,371714.59999999404,,371714.1999999881,,371730.814,8,400,,,
break_continue,html.Screen,4_101_2,2023-09-15T18:02:26.974Z,,0,,,NaN,,,,,,false,,,,371715.09999999404,371715.09999999404,,371715,,371730.814,8,400,,,
sequence,flow.Sequence,4_101,2023-09-15T18:02:26.974Z,,0,,,3105.1939999940223,completion,,,,,false,,,,371715.1999999881,371715.09999999404,368593.27,368607.1999999881,368609.906,371730.814,8,400,,,
trial,html.Screen,4_102_0,2023-09-15T18:02:29.520Z,,0,3,,2529.885999988066,response,ISIC_0011276.JPG,6,ISIC_3315146.JPG,ISIC_0011276.JPG,false,1,keypress(m),500,374260.90000000596,374260.6999999881,371714.1,371715.2999999821,371730.814,374267.68,8,400,3,,ISIC_3315146.JPG
break,html.Screen,4_102_1,2023-09-15T18:02:29.520Z,,0,,,NaN,,,,,,false,,,,374261.5,374261.40000000596,,374261.09999999404,,374267.68,8,400,,,
break_continue,html.Screen,4_102_2,2023-09-15T18:02:29.520Z,,0,,,NaN,,,,,,false,,,,374261.7999999821,374261.59999999404,,374261.5,,374267.68,8,400,,,
sequence,flow.Sequence,4_102,2023-09-15T18:02:29.521Z,,0,,,2530.7859999940265,completion,,,,,false,,,,374261.7999999821,374261.59999999404,371714.1,371715.1999999881,371730.814,374267.68,8,400,,,
trial,html.Screen,4_103_0,2023-09-15T18:02:32.151Z,,0,3,,2624.9199999940465,response,ISIC_0030901.JPG,5,ISIC_0011073.JPG,ISIC_0030901.JPG,false,1,keypress(m),500,376892.6999999881,376892.59999999404,374250.829,374261.90000000596,374267.68,376904.521,8,400,4,,ISIC_0011073.JPG
break,html.Screen,4_103_1,2023-09-15T18:02:32.152Z,,0,,,NaN,,,,,,false,,,,376893.40000000596,376893.1999999881,,376892.7999999821,,376904.521,8,400,,,
break_continue,html.Screen,4_103_2,2023-09-15T18:02:32.152Z,,0,,,NaN,,,,,,false,,,,376893.59999999404,376893.5,,376893.40000000596,,376904.521,8,400,,,
sequence,flow.Sequence,4_103,2023-09-15T18:02:32.152Z,,0,,,2625.820000000007,completion,,,,,false,,,,376893.59999999404,376893.5,374250.829,374261.90000000596,374267.68,376904.521,8,400,,,
trial,html.Screen,4_104_0,2023-09-15T18:02:34.767Z,,0,3,,2603.478999999992,response,ISIC_0028515.JPG,5,ISIC_0001101.JPG,ISIC_0001101.JPG,false,0,keypress(z),500,379508.09999999404,379508,376887.776,376893.6999999881,376904.521,379524.732,8,400,5,,ISIC_0028515.JPG
break,html.Screen,4_104_1,2023-09-15T18:02:34.767Z,,0,,,NaN,,,,,,false,,,,379508.7999999821,379508.59999999404,,379508.2999999821,,379524.732,8,400,,,
break_continue,html.Screen,4_104_2,2023-09-15T18:02:34.768Z,,0,,,NaN,,,,,,false,,,,379508.90000000596,379508.90000000596,,379508.7999999821,,379524.732,8,400,,,
sequence,flow.Sequence,4_104,2023-09-15T18:02:34.768Z,,0,,,2604.3790000059525,completion,,,,,false,,,,379508.90000000596,379508.90000000596,376887.776,376893.6999999881,376904.521,379524.732,8,400,,,
trial,html.Screen,4_105_0,2023-09-15T18:02:37.766Z,,0,3,,2982.6680000059423,response,ISIC_9109847.JPG,6,ISIC_0034022.JPG,ISIC_9109847.JPG,false,1,keypress(m),500,382507.59999999404,382507.40000000596,379508.103,379509.09999999404,379524.732,382512.09,8,400,6,,ISIC_0034022.JPG
break,html.Screen,4_105_1,2023-09-15T18:02:37.767Z,,0,,,NaN,,,,,,false,,,,382508.40000000596,382508.1999999881,,382507.7999999821,,382512.09,8,400,,,
break_continue,html.Screen,4_105_2,2023-09-15T18:02:37.767Z,,0,,,NaN,,,,,,false,,,,382508.59999999404,382508.59999999404,,382508.5,,382512.09,8,400,,,
sequence,flow.Sequence,4_105,2023-09-15T18:02:37.767Z,,0,,,2983.8679999940214,completion,,,,,false,,,,382508.6999999881,382508.59999999404,379508.103,379509.09999999404,379524.732,382512.09,8,400,,,
trial,html.Screen,4_106_0,2023-09-15T18:02:40.848Z,,0,3,,3076.9099999999744,response,ISIC_0063899.JPG,5,ISIC_0027056.JPG,ISIC_0027056.JPG,false,0,keypress(z),500,385589.1999999881,385589,382495.391,382508.7999999821,382512.09,385599.652,8,400,7,,ISIC_0063899.JPG
break,html.Screen,4_106_1,2023-09-15T18:02:40.849Z,,0,,,NaN,,,,,,false,,,,385590,385589.90000000596,,385589.40000000596,,385599.652,8,400,,,
break_continue,html.Screen,4_106_2,2023-09-15T18:02:40.849Z,,0,,,NaN,,,,,,false,,,,385590.2999999821,385590.09999999404,,385590.09999999404,,385599.652,8,400,,,
sequence,flow.Sequence,4_106,2023-09-15T18:02:40.849Z,,0,,,3078.009999994014,completion,,,,,false,,,,385590.40000000596,385590.09999999404,382495.391,382508.7999999821,382512.09,385599.652,8,400,,,
trial,html.Screen,4_107_0,2023-09-15T18:02:44.036Z,,0,3,,3177.2480000059586,response,ISIC_2844539.JPG,6,ISIC_0028883.JPG,ISIC_2844539.JPG,false,1,keypress(m),500,388777,388776.90000000596,385582.867,385590.40000000596,385599.652,388787.311,8,400,8,,ISIC_0028883.JPG
break,html.Screen,4_107_1,2023-09-15T18:02:44.036Z,,0,,,NaN,,,,,,false,,,,388777.59999999404,388777.5,,388777.09999999404,,388787.311,8,400,,,
break_continue,html.Screen,4_107_2,2023-09-15T18:02:44.036Z,,0,,,NaN,,,,,,false,,,,388777.6999999881,388777.6999999881,,388777.6999999881,,388787.311,8,400,,,
sequence,flow.Sequence,4_107,2023-09-15T18:02:44.037Z,,0,,,3178.047999988077,completion,,,,,false,,,,388777.90000000596,388777.6999999881,385582.867,385590.40000000596,385599.652,388787.311,8,400,,,
trial,html.Screen,4_108_0,2023-09-15T18:02:46.775Z,,0,3,,2728.689000000013,response,ISIC_7184722.JPG,6,ISIC_0054851.JPG,ISIC_0054851.JPG,false,0,keypress(z),500,391516.1999999881,391516,388770.582,388777.90000000596,388787.311,391524.342,8,400,9,,ISIC_7184722.JPG
break,html.Screen,4_108_1,2023-09-15T18:02:46.776Z,,0,,,NaN,,,,,,false,,,,391516.7999999821,391516.7999999821,,391516.40000000596,,391524.342,8,400,,,
break_continue,html.Screen,4_108_2,2023-09-15T18:02:46.776Z,,0,,,NaN,,,,,,false,,,,391517.09999999404,391517,,391516.90000000596,,391524.342,8,400,,,
sequence,flow.Sequence,4_108,2023-09-15T18:02:46.776Z,,0,,,2729.689000000013,completion,,,,,false,,,,391517.09999999404,391517,388770.582,388777.90000000596,388787.311,391524.342,8,400,,,
trial,html.Screen,4_109_0,2023-09-15T18:02:50.577Z,,0,3,,3794.2579999940353,response,ISIC_0063157.JPG,5,ISIC_0914251.JPG,ISIC_0063157.JPG,false,1,keypress(m),500,395318.6999999881,395318.59999999404,391507.71,391517.1999999881,391524.342,395329.677,8,400,10,,ISIC_0914251.JPG
break,html.Screen,4_109_1,2023-09-15T18:02:50.578Z,,0,,,NaN,,,,,,false,,,,395319.59999999404,395319.2999999821,,395318.7999999821,,395329.677,8,400,,,
break_continue,html.Screen,4_109_2,2023-09-15T18:02:50.578Z,,0,,,NaN,,,,,,false,,,,395319.6999999881,395319.6999999881,,395319.59999999404,,395329.677,8,400,,,
sequence,flow.Sequence,4_109,2023-09-15T18:02:50.579Z,,0,,,3795.357999988075,completion,,,,,false,,,,395319.7999999821,395319.6999999881,391507.71,391517.09999999404,391524.342,395329.677,8,400,,,
trial,html.Screen,4_110_0,2023-09-15T18:02:53.927Z,,0,3,,3338.322999999975,response,ISIC_1075605.JPG,6,ISIC_0078703.JPG,ISIC_0078703.JPG,false,0,keypress(z),500,398668.1999999881,398668,395312.767,395319.90000000596,395329.677,398700.731,8,400,11,,ISIC_1075605.JPG
break,html.Screen,4_110_1,2023-09-15T18:02:53.928Z,,0,,,NaN,,,,,,false,,,,398669.5,398669.09999999404,,398668.5,,398700.731,8,400,,,
break_continue,html.Screen,4_110_2,2023-09-15T18:02:53.929Z,,0,,,NaN,,,,,,false,,,,398670.09999999404,398669.90000000596,,398669.5,,398700.731,8,400,,,
sequence,flow.Sequence,4_110,2023-09-15T18:02:53.929Z,,0,,,3340.2230000059353,completion,,,,,false,,,,398670.2999999821,398669.90000000596,395312.767,395319.90000000596,395329.677,398700.731,8,400,,,
trial,html.Screen,4_111_0,2023-09-15T18:02:56.605Z,,0,3,,2644.768999999971,response,ISIC_0028618.JPG,6,ISIC_0000148.JPG,ISIC_0000148.JPG,false,0,keypress(z),500,401345.7999999821,401345.5,398684.038,398670.59999999404,398700.731,401354.359,8,400,12,,ISIC_0028618.JPG
break,html.Screen,4_111_1,2023-09-15T18:02:56.605Z,,0,,,NaN,,,,,,false,,,,401346.5,401346.1999999881,,401346,,401354.359,8,400,,,
break_continue,html.Screen,4_111_2,2023-09-15T18:02:56.605Z,,0,,,NaN,,,,,,false,,,,401346.6999999881,401346.59999999404,,401346.59999999404,,401354.359,8,400,,,
sequence,flow.Sequence,4_111,2023-09-15T18:02:56.606Z,,0,,,2645.8689999940107,completion,,,,,false,,,,401346.7999999821,401346.59999999404,398684.038,398670.5,398700.731,401354.359,8,400,,,
trial,html.Screen,4_112_0,2023-09-15T18:02:59.200Z,,0,3,,2586.3409999880823,response,ISIC_7319169.JPG,5,ISIC_8484660.JPG,ISIC_8484660.JPG,false,0,keypress(z),500,403940.7999999821,403940.6999999881,401337.666,401346.90000000596,401354.359,403957.871,8,400,13,,ISIC_7319169.JPG
break,html.Screen,4_112_1,2023-09-15T18:02:59.200Z,,0,,,NaN,,,,,,false,,,,403941.1999999881,403941.09999999404,,403940.90000000596,,403957.871,8,400,,,
break_continue,html.Screen,4_112_2,2023-09-15T18:02:59.200Z,,0,,,NaN,,,,,,false,,,,403941.40000000596,403941.40000000596,,403941.2999999821,,403957.871,8,400,,,
sequence,flow.Sequence,4_112,2023-09-15T18:02:59.200Z,,0,,,2587.0410000059637,completion,,,,,false,,,,403941.5,403941.40000000596,401337.666,401346.90000000596,401354.359,403957.871,8,400,,,
trial,html.Screen,4_113_0,2023-09-15T18:03:02.088Z,,0,3,,2871.3289999880944,response,ISIC_0027089.JPG,5,ISIC_0033759.JPG,ISIC_0033759.JPG,false,0,keypress(z),500,406829.5,406829.1999999881,403924.441,403941.59999999404,403957.871,406845.091,8,400,14,,ISIC_0027089.JPG
break,html.Screen,4_113_1,2023-09-15T18:03:02.089Z,,0,,,NaN,,,,,,false,,,,406830.6999999881,406830.2999999821,,406829.7999999821,,406845.091,8,400,,,
break_continue,html.Screen,4_113_2,2023-09-15T18:03:02.090Z,,0,,,NaN,,,,,,false,,,,406831.1999999881,406831.09999999404,,406830.90000000596,,406845.091,8,400,,,
sequence,flow.Sequence,4_113,2023-09-15T18:03:02.090Z,,0,,,2873.228999994055,completion,,,,,false,,,,406831.40000000596,406831.09999999404,403924.441,403941.59999999404,403957.871,406845.091,8,400,,,
trial,html.Screen,4_114_0,2023-09-15T18:03:05.232Z,,0,3,,3127.8090000059456,response,ISIC_0021052.JPG,6,ISIC_9449365.JPG,ISIC_0021052.JPG,false,1,keypress(m),500,409973,409972.90000000596,406828.377,406831.6999999881,406845.091,409982.816,8,400,15,,ISIC_9449365.JPG
break,html.Screen,4_114_1,2023-09-15T18:03:05.232Z,,0,,,NaN,,,,,,false,,,,409973.6999999881,409973.5,,409973.1999999881,,409982.816,8,400,,,
break_continue,html.Screen,4_114_2,2023-09-15T18:03:05.233Z,,0,,,NaN,,,,,,false,,,,409973.90000000596,409973.7999999821,,409973.6999999881,,409982.816,8,400,,,
sequence,flow.Sequence,4_114,2023-09-15T18:03:05.233Z,,0,,,3128.7089999821037,completion,,,,,false,,,,409973.90000000596,409973.7999999821,406828.377,406831.6999999881,406845.091,409982.816,8,400,,,
trial,html.Screen,4_115_0,2023-09-15T18:03:07.843Z,,0,3,,2600.783999994048,response,ISIC_0914168.JPG,5,ISIC_0238824.JPG,ISIC_0914168.JPG,false,1,keypress(m),500,412584.09999999404,412583.59999999404,409966.056,409973.90000000596,409982.816,412586.249,8,400,16,,ISIC_0238824.JPG
break,html.Screen,4_115_1,2023-09-15T18:03:07.844Z,,0,,,NaN,,,,,,false,,,,412585.1999999881,412585,,412584.40000000596,,412586.249,8,400,,,
break_continue,html.Screen,4_115_2,2023-09-15T18:03:07.844Z,,0,,,NaN,,,,,,false,,,,412585.40000000596,412585.40000000596,,412585.2999999821,,412586.249,8,400,,,
sequence,flow.Sequence,4_115,2023-09-15T18:03:07.844Z,,0,,,2602.584000005969,completion,,,,,false,,,,412585.5,412585.40000000596,409966.056,409973.90000000596,409982.816,412586.249,8,400,,,
trial,html.Screen,4_116_0,2023-09-15T18:03:10.822Z,,0,3,,2976.4509999880684,response,ISIC_0013615.JPG,5,ISIC_0024735.JPG,ISIC_0013615.JPG,false,1,keypress(m),500,415562.7999999821,415562.6999999881,412569.522,412585.59999999404,412586.249,415573.854,8,400,17,,ISIC_0024735.JPG
break,html.Screen,4_116_1,2023-09-15T18:03:10.822Z,,0,,,NaN,,,,,,false,,,,415563.7999999821,415563.5,,415563,,415573.854,8,400,,,
break_continue,html.Screen,4_116_2,2023-09-15T18:03:10.823Z,,0,,,NaN,,,,,,false,,,,415564,415563.90000000596,,415563.7999999821,,415573.854,8,400,,,
sequence,flow.Sequence,4_116,2023-09-15T18:03:10.823Z,,0,,,2977.6510000059498,completion,,,,,false,,,,415564.09999999404,415563.90000000596,412569.522,412585.5,412586.249,415573.854,8,400,,,
trial,html.Screen,4_117_0,2023-09-15T18:03:13.584Z,,0,3,,2750.845999988087,response,ISIC_0032624.JPG,5,ISIC_0069668.JPG,ISIC_0032624.JPG,false,1,keypress(m),500,418325,418324.6999999881,415556.89,415564.09999999404,415573.854,418327.359,8,400,18,,ISIC_0069668.JPG
break,html.Screen,4_117_1,2023-09-15T18:03:13.585Z,,0,,,NaN,,,,,,false,,,,418326.09999999404,418325.7999999821,,418325.1999999881,,418327.359,8,400,,,
break_continue,html.Screen,4_117_2,2023-09-15T18:03:13.585Z,,0,,,NaN,,,,,,false,,,,418326.40000000596,418326.2999999821,,418326.09999999404,,418327.359,8,400,,,
sequence,flow.Sequence,4_117,2023-09-15T18:03:13.585Z,,0,,,2752.4459999821265,completion,,,,,false,,,,418326.6999999881,418326.2999999821,415556.89,415564.09999999404,415573.854,418327.359,8,400,,,
trial,html.Screen,4_118_0,2023-09-15T18:03:16.615Z,,0,3,,3028.740999994043,response,ISIC_0067719.JPG,6,ISIC_5247560.JPG,ISIC_5247560.JPG,false,0,keypress(z),500,421356.2999999821,421356.09999999404,418310.654,418326.7999999821,418327.359,421364.809,8,400,19,,ISIC_0067719.JPG
break,html.Screen,4_118_1,2023-09-15T18:03:16.616Z,,0,,,NaN,,,,,,false,,,,421357.09999999404,421356.7999999821,,421356.40000000596,,421364.809,8,400,,,
break_continue,html.Screen,4_118_2,2023-09-15T18:03:16.616Z,,0,,,NaN,,,,,,false,,,,421357.2999999821,421357.1999999881,,421357.09999999404,,421364.809,8,400,,,
sequence,flow.Sequence,4_118,2023-09-15T18:03:16.616Z,,0,,,3029.8409999880823,completion,,,,,false,,,,421357.40000000596,421357.1999999881,418310.654,418326.6999999881,418327.359,421364.809,8,400,,,
trial,html.Screen,4_119_0,2023-09-15T18:03:19.120Z,,0,3,,2495.8909999880707,response,ISIC_0064879.JPG,5,ISIC_0061624.JPG,ISIC_0061624.JPG,false,0,keypress(z),500,423860.7999999821,423860.6999999881,421348.164,421357.5,421364.809,423868.49,8,400,20,,ISIC_0064879.JPG
break,html.Screen,4_119_1,2023-09-15T18:03:19.120Z,,0,,,NaN,,,,,,false,,,,423861.59999999404,423861.40000000596,,423861,,423868.49,8,400,,,
break_continue,html.Screen,4_119_2,2023-09-15T18:03:19.121Z,,0,,,NaN,,,,,,false,,,,423862,423861.90000000596,,423861.7999999821,,423868.49,8,400,,,
sequence,flow.Sequence,4_119,2023-09-15T18:03:19.121Z,,0,,,2497.091000005952,completion,,,,,false,,,,423862.1999999881,423861.90000000596,421348.164,421357.5,421364.809,423868.49,8,400,,,
trial,html.Screen,4_120_0,2023-09-15T18:03:21.859Z,,0,3,,2732.0100000000093,response,ISIC_1732527.JPG,6,ISIC_0361149.JPG,ISIC_1732527.JPG,false,1,keypress(m),500,426600.6999999881,426600.5,423851.469,423862.1999999881,423868.49,426605.269,8,400,21,,ISIC_0361149.JPG
break,html.Screen,4_120_1,2023-09-15T18:03:21.860Z,,0,,,NaN,,,,,,false,,,,426601.1999999881,426601.09999999404,,426600.7999999821,,426605.269,8,400,,,
break_continue,html.Screen,4_120_2,2023-09-15T18:03:21.860Z,,0,,,NaN,,,,,,false,,,,426601.5,426601.5,,426601.2999999821,,426605.269,8,400,,,
sequence,flow.Sequence,4_120,2023-09-15T18:03:21.860Z,,0,,,2733.0100000000093,completion,,,,,false,,,,426601.6999999881,426601.5,423851.469,423862.1999999881,423868.49,426605.269,8,400,,,
trial,html.Screen,4_121_0,2023-09-15T18:03:24.759Z,,0,3,,2895.231000000029,response,ISIC_6634951.JPG,5,ISIC_4294705.JPG,ISIC_6634951.JPG,false,1,keypress(m),500,429500.59999999404,429500.5,426588.532,426601.7999999821,426605.269,429509.173,8,400,22,,ISIC_4294705.JPG
break,html.Screen,4_121_1,2023-09-15T18:03:24.760Z,,0,,,NaN,,,,,,false,,,,429501.09999999404,429501,,429500.6999999881,,429509.173,8,400,,,
break_continue,html.Screen,4_121_2,2023-09-15T18:03:24.760Z,,0,,,NaN,,,,,,false,,,,429501.2999999821,429501.1999999881,,429501.09999999404,,429509.173,8,400,,,
sequence,flow.Sequence,4_121,2023-09-15T18:03:24.760Z,,0,,,2895.930999988108,completion,,,,,false,,,,429501.2999999821,429501.1999999881,426588.532,426601.6999999881,426605.269,429509.173,8,400,,,
trial,html.Screen,4_122_0,2023-09-15T18:03:28.090Z,,0,3,,3322.32699999999,response,ISIC_0072733.JPG,6,ISIC_3272999.JPG,ISIC_0072733.JPG,false,1,keypress(m),500,432831.6999999881,432831.5,429492.458,429501.2999999821,429509.173,432847.2,8,400,23,,ISIC_3272999.JPG
break,html.Screen,4_122_1,2023-09-15T18:03:28.091Z,,0,,,NaN,,,,,,false,,,,432832.5,432832.1999999881,,432831.7999999821,,432847.2,8,400,,,
break_continue,html.Screen,4_122_2,2023-09-15T18:03:28.092Z,,0,,,NaN,,,,,,false,,,,432832.90000000596,432832.7999999821,,432832.59999999404,,432847.2,8,400,,,
sequence,flow.Sequence,4_122,2023-09-15T18:03:28.092Z,,0,,,3323.626999982109,completion,,,,,false,,,,432833,432832.7999999821,429492.458,429501.2999999821,429509.173,432847.2,8,400,,,
trial,html.Screen,4_123_0,2023-09-15T18:03:31.054Z,,0,3,,2947.700000005949,response,ISIC_2146346.JPG,6,ISIC_6888402.JPG,ISIC_2146346.JPG,false,1,keypress(m),500,435795.09999999404,435794.90000000596,432830.39,432833.09999999404,432847.2,435801.1,8,400,24,,ISIC_6888402.JPG
break,html.Screen,4_123_1,2023-09-15T18:03:31.055Z,,0,,,NaN,,,,,,false,,,,435795.90000000596,435795.59999999404,,435795.1999999881,,435801.1,8,400,,,
break_continue,html.Screen,4_123_2,2023-09-15T18:03:31.055Z,,0,,,NaN,,,,,,false,,,,435796.40000000596,435796.2999999821,,435796.09999999404,,435801.1,8,400,,,
sequence,flow.Sequence,4_123,2023-09-15T18:03:31.055Z,,0,,,2949.099999982107,completion,,,,,false,,,,435796.59999999404,435796.2999999821,432830.39,432833,432847.2,435801.1,8,400,,,
trial,html.Screen,4_124_0,2023-09-15T18:03:33.783Z,,0,3,,2723.0999999881024,response,ISIC_0013874.JPG,5,ISIC_0210998.JPG,ISIC_0210998.JPG,false,0,keypress(z),500,438524.5,438524.1999999881,435784.37,435796.59999999404,435801.1,438538.135,8,400,25,,ISIC_0013874.JPG
break,html.Screen,4_124_1,2023-09-15T18:03:33.784Z,,0,,,NaN,,,,,,false,,,,438525.2999999821,438525.09999999404,,438524.6999999881,,438538.135,8,400,,,
break_continue,html.Screen,4_124_2,2023-09-15T18:03:33.784Z,,0,,,NaN,,,,,,false,,,,438525.5,438525.5,,438525.40000000596,,438538.135,8,400,,,
sequence,flow.Sequence,4_124,2023-09-15T18:03:33.784Z,,0,,,2724.4000000000233,completion,,,,,false,,,,438525.59999999404,438525.5,435784.37,435796.59999999404,435801.1,438538.135,8,400,,,
trial,html.Screen,4_125_0,2023-09-15T18:03:36.618Z,,0,3,,2821.1649999821093,response,ISIC_9134566.JPG,5,ISIC_0183290.JPG,ISIC_9134566.JPG,false,1,keypress(m),500,441359.59999999404,441359.2999999821,438521.408,438525.6999999881,438538.135,441375.365,8,400,26,,ISIC_0183290.JPG
break,html.Screen,4_125_1,2023-09-15T18:03:36.619Z,,0,,,NaN,,,,,,false,,,,441360.40000000596,441360.1999999881,,441359.6999999881,,441375.365,8,400,,,
