sender,sender_type,sender_id,timestamp,meta,,blockNo,condition,duration,ended_on,img_left,img_reveal,img_right,loser,practice,response,response_action,selection_duration,time_commit,time_end,time_render,time_run,time_show,time_switch,total_blocks,total_trials,trialNo,url,winner
informed_consent,html.Screen,0,2023-11-03T01:10:53.784Z,"{""labjs_version"":""20.2.4"",""labjs_build"":{""flavor"":""production"",""commit"":""f5b4a49f956347addd546a832a3327688c2c0fef""},""location"":""https://run.pavlovia.org/MurrayBennett/melanoma-2afc/?participant=66187&platform=sona"",""userAgent"":""Mozilla/5.0 (Windows NT 10.0; Win64; x64) AppleWebKit/537.36 (KHTML, like Gecko) Chrome/119.0.0.0 Safari/537.36"",""platform"":""Win32"",""language"":""en-US"",""locale"":""en-US"",""timeZone"":""America/Chicago"",""timezoneOffset"":300,""screen_width"":2560,""screen_height"":1440,""scroll_width"":2560,""scroll_height"":1267,""window_innerWidth"":2560,""window_innerHeight"":1315,""devicePixelRatio"":1}",,,,9073.13400001192,response,,,,,,consent,click button,,14420,14418.300000011921,5111.711,5350.300000011921,5345.166,14437.409,,,,"{""participant"":""66187"",""platform"":""sona""}",
Welcome,html.Screen,1,2023-11-03T01:10:55.286Z,,,,uniform,1484.5910000000003,response,,,,,,continue,click button,,15922.699999988079,15922,14402.921,14420.199999988079,14437.409,15937.62,,,,,
trial,html.Screen,2_0_0,2023-11-03T01:10:59.802Z,,0,0,,4500.079999988078,response,ISIC_0063388.JPG,,ISIC_0025593.JPG,ISIC_0025593.JPG,true,0,keypress(z),500,20438,20437.69999998808,15920.908,15922.800000011921,15937.62,20441.566,1,6,1,,ISIC_0063388.JPG
sequence,flow.Sequence,2_0,2023-11-03T01:10:59.802Z,,0,,,4500.079999988078,completion,,,,,true,,,,20438.30000001192,20437.69999998808,15920.908,15922.800000011921,15937.62,20441.566,1,6,,,
trial,html.Screen,2_1_0,2023-11-03T01:11:04.093Z,,0,0,,4287.434000000001,response,ISIC_1309015.JPG,,ISIC_0028178.JPG,ISIC_0028178.JPG,true,0,keypress(z),500,24729.19999998808,24729,20424.524,20438.400000035763,20441.566,24745.087,1,6,2,,ISIC_1309015.JPG
sequence,flow.Sequence,2_1,2023-11-03T01:11:04.093Z,,0,,,4287.434000000001,completion,,,,,true,,,,24729.5,24729,20424.524,20438.400000035763,20441.566,24745.087,1,6,,,
trial,html.Screen,2_2_0,2023-11-03T01:11:07.359Z,,0,0,,3250.4130000000005,response,ISIC_3314853.JPG,,ISIC_0031128.JPG,ISIC_0031128.JPG,true,0,keypress(z),500,27995.69999998808,27995.5,24728.248,24729.69999998808,24745.087,27997.899,1,6,3,,ISIC_3314853.JPG
sequence,flow.Sequence,2_2,2023-11-03T01:11:07.360Z,,0,,,3250.4130000000005,completion,,,,,true,,,,27995.80000001192,27995.5,24728.248,24729.69999998808,24745.087,27997.899,1,6,,,
trial,html.Screen,2_3_0,2023-11-03T01:11:10.018Z,,0,0,,2655.7010000238406,response,ISIC_0031612.JPG,,ISIC_8980141.JPG,ISIC_0031612.JPG,true,1,keypress(m),500,30653.69999998808,30653.600000023842,27981.266,27995.900000035763,27997.899,30666.796,1,6,4,,ISIC_8980141.JPG
sequence,flow.Sequence,2_3,2023-11-03T01:11:10.018Z,,0,,,2655.7010000238406,completion,,,,,true,,,,30653.900000035763,30653.600000023842,27981.266,27995.80000001192,27997.899,30666.796,1,6,,,
trial,html.Screen,2_4_0,2023-11-03T01:11:13.331Z,,0,0,,3299.8040000238434,response,ISIC_9721604.JPG,,ISIC_1197737.JPG,ISIC_1197737.JPG,true,0,keypress(z),500,33966.90000003576,33966.60000002384,30649.993,30653.900000035763,30666.796,33969.678,1,6,5,,ISIC_9721604.JPG
sequence,flow.Sequence,2_4,2023-11-03T01:11:13.331Z,,0,,,3299.8040000238434,completion,,,,,true,,,,33967.30000001192,33966.60000002384,30649.993,30653.900000035763,30666.796,33969.678,1,6,,,
trial,html.Screen,2_5_0,2023-11-03T01:11:16.854Z,,0,0,,3519.922000023842,response,ISIC_0025346.JPG,,ISIC_0010681.JPG,ISIC_0025346.JPG,true,1,keypress(m),500,37489.80000001192,37489.60000002384,33952.77,33967.40000003576,33969.678,37505.924,1,6,6,,ISIC_0010681.JPG
sequence,flow.Sequence,2_5,2023-11-03T01:11:16.854Z,,0,,,3519.922000023842,completion,,,,,true,,,,37490,37489.60000002384,33952.77,33967.30000001192,33969.678,37505.924,1,6,,,
loop,flow.Loop,2,2023-11-03T01:11:16.854Z,,,,,21551.98000002384,completion,,,,,true,,,,37490,37489.60000002384,15920.908,15922.800000011921,15937.62,37505.924,1,6,,,
exp_instructions,html.Screen,3,2023-11-03T01:11:21.655Z,,,,,4785.076000000001,response,,,,,,continue,keypress(Space),,42291.5,42291,37489.098,37490,37505.924,42293.383,,,,,
trial,html.Screen,4_0_0,2023-11-03T01:11:25.001Z,,0,1,,3343.4170000119193,response,ISIC_0360988.JPG,5,ISIC_0000423.JPG,ISIC_0360988.JPG,false,1,keypress(m),500,45636.80000001192,45636.80000001192,42275.559,42291.60000002384,42293.383,45646.179,8,400,1,,ISIC_0000423.JPG
break,html.Screen,4_0_1,2023-11-03T01:11:25.001Z,,0,,,NaN,,,,,,false,,,,45637.30000001192,45637.10000002384,,45637,,45646.179,8,400,,,
break_continue,html.Screen,4_0_2,2023-11-03T01:11:25.001Z,,0,,,NaN,,,,,,false,,,,45637.40000003576,45637.40000003576,,45637.40000003576,,45646.179,8,400,,,
sequence,flow.Sequence,4_0,2023-11-03T01:11:25.001Z,,0,,,3344.017000035761,completion,,,,,false,,,,45637.5,45637.40000003576,42275.559,42291.60000002384,42293.383,45646.179,8,400,,,
trial,html.Screen,4_1_0,2023-11-03T01:11:27.916Z,,0,1,,2905.8210000000036,response,ISIC_0068438.JPG,5,ISIC_0327225.JPG,ISIC_0068438.JPG,false,1,keypress(m),500,48552.19999998808,48552,45629.219,45637.60000002384,45646.179,48565.318,8,400,2,,ISIC_0327225.JPG
break,html.Screen,4_1_1,2023-11-03T01:11:27.916Z,,0,,,NaN,,,,,,false,,,,48552.5,48552.40000003576,,48552.30000001192,,48565.318,8,400,,,
break_continue,html.Screen,4_1_2,2023-11-03T01:11:27.916Z,,0,,,NaN,,,,,,false,,,,48552.60000002384,48552.60000002384,,48552.60000002384,,48565.318,8,400,,,
sequence,flow.Sequence,4_1,2023-11-03T01:11:27.917Z,,0,,,2906.4210000238454,completion,,,,,false,,,,48552.80000001192,48552.60000002384,45629.219,45637.60000002384,45646.179,48565.318,8,400,,,
trial,html.Screen,4_2_0,2023-11-03T01:11:31.726Z,,0,1,,3796.5820000357635,response,ISIC_0772836.JPG,5,ISIC_0394030.JPG,ISIC_0772836.JPG,false,1,keypress(m),500,52362.10000002384,52361.90000003576,48548.53,48552.80000001192,48565.318,52368.666,8,400,3,,ISIC_0394030.JPG
break,html.Screen,4_2_1,2023-11-03T01:11:31.727Z,,0,,,NaN,,,,,,false,,,,52362.80000001192,52362.69999998808,,52362.30000001192,,52368.666,8,400,,,
break_continue,html.Screen,4_2_2,2023-11-03T01:11:31.727Z,,0,,,NaN,,,,,,false,,,,52363,52363,,52362.90000003576,,52368.666,8,400,,,
sequence,flow.Sequence,4_2,2023-11-03T01:11:31.727Z,,0,,,3797.6820000000007,completion,,,,,false,,,,52363.19999998808,52363,48548.53,48552.80000001192,48565.318,52368.666,8,400,,,
trial,html.Screen,4_3_0,2023-11-03T01:11:36.193Z,,0,1,,4460.234000035765,response,ISIC_6289346.JPG,4,ISIC_0026558.JPG,ISIC_0026558.JPG,false,0,keypress(z),500,56828.90000003576,56828.90000003576,52351.761,52363.19999998808,52368.666,56839.023,8,400,4,,ISIC_6289346.JPG
break,html.Screen,4_3_1,2023-11-03T01:11:36.193Z,,0,,,NaN,,,,,,false,,,,56829.40000003576,56829.30000001192,,56829,,56839.023,8,400,,,
break_continue,html.Screen,4_3_2,2023-11-03T01:11:36.193Z,,0,,,NaN,,,,,,false,,,,56829.5,56829.5,,56829.40000003576,,56839.023,8,400,,,
sequence,flow.Sequence,4_3,2023-11-03T01:11:36.193Z,,0,,,4460.834000000003,completion,,,,,false,,,,56829.5,56829.5,52351.761,52363.19999998808,52368.666,56839.023,8,400,,,
trial,html.Screen,4_4_0,2023-11-03T01:11:40.098Z,,0,1,,3895.077000023841,response,ISIC_0029660.JPG,4,ISIC_0010049.JPG,ISIC_0010049.JPG,false,0,keypress(z),500,60734.30000001192,60734.10000002384,56822.27,56829.60000002384,56839.023,60742.302,8,400,5,,ISIC_0029660.JPG
break,html.Screen,4_4_1,2023-11-03T01:11:40.098Z,,0,,,NaN,,,,,,false,,,,60734.60000002384,60734.5,,60734.40000003576,,60742.302,8,400,,,
break_continue,html.Screen,4_4_2,2023-11-03T01:11:40.099Z,,0,,,NaN,,,,,,false,,,,60734.69999998808,60734.69999998808,,60734.69999998808,,60742.302,8,400,,,
sequence,flow.Sequence,4_4,2023-11-03T01:11:40.099Z,,0,,,3895.676999988078,completion,,,,,false,,,,60734.90000003576,60734.69999998808,56822.27,56829.60000002384,56839.023,60742.302,8,400,,,
trial,html.Screen,4_5_0,2023-11-03T01:11:43.813Z,,0,1,,3706.4980000119176,response,ISIC_7477006.JPG,5,ISIC_5357288.JPG,ISIC_7477006.JPG,false,1,keypress(m),500,64448.90000003576,64448.80000001192,60725.397,60734.90000003576,60742.302,64462.138,8,400,6,,ISIC_5357288.JPG
break,html.Screen,4_5_1,2023-11-03T01:11:43.813Z,,0,,,NaN,,,,,,false,,,,64449.30000001192,64449.19999998808,,64449,,64462.138,8,400,,,
break_continue,html.Screen,4_5_2,2023-11-03T01:11:43.813Z,,0,,,NaN,,,,,,false,,,,64449.40000003576,64449.30000001192,,64449.30000001192,,64462.138,8,400,,,
sequence,flow.Sequence,4_5,2023-11-03T01:11:43.813Z,,0,,,3706.9980000119176,completion,,,,,false,,,,64449.5,64449.30000001192,60725.397,60734.90000003576,60742.302,64462.138,8,400,,,
trial,html.Screen,4_6_0,2023-11-03T01:11:47.238Z,,0,1,,3412.162000011922,response,ISIC_0479264.JPG,6,ISIC_0027480.JPG,ISIC_0027480.JPG,false,0,keypress(z),500,67874.5,67874.30000001192,64445.326,64449.60000002384,64462.138,67882.14,8,400,7,,ISIC_0479264.JPG
break,html.Screen,4_6_1,2023-11-03T01:11:47.239Z,,0,,,NaN,,,,,,false,,,,67875,67874.80000001192,,67874.60000002384,,67882.14,8,400,,,
break_continue,html.Screen,4_6_2,2023-11-03T01:11:47.239Z,,0,,,NaN,,,,,,false,,,,67875.10000002384,67875,,67875,,67882.14,8,400,,,
sequence,flow.Sequence,4_6,2023-11-03T01:11:47.239Z,,0,,,3412.862000000001,completion,,,,,false,,,,67875.10000002384,67875,64445.326,64449.5,64462.138,67882.14,8,400,,,
trial,html.Screen,4_7_0,2023-11-03T01:11:50.152Z,,0,1,,2906.1600000119215,response,ISIC_0015133.JPG,4,ISIC_0959863.JPG,ISIC_0015133.JPG,false,1,keypress(m),500,70788.5,70788.30000001192,67864.918,67875.19999998808,67882.14,70800.873,8,400,8,,ISIC_0959863.JPG
break,html.Screen,4_7_1,2023-11-03T01:11:50.153Z,,0,,,NaN,,,,,,false,,,,70788.90000003576,70788.69999998808,,70788.60000002384,,70800.873,8,400,,,
break_continue,html.Screen,4_7_2,2023-11-03T01:11:50.153Z,,0,,,NaN,,,,,,false,,,,70788.90000003576,70788.90000003576,,70788.90000003576,,70800.873,8,400,,,
sequence,flow.Sequence,4_7,2023-11-03T01:11:50.153Z,,0,,,2906.7600000357634,completion,,,,,false,,,,70789,70788.90000003576,67864.918,67875.10000002384,67882.14,70800.873,8,400,,,
trial,html.Screen,4_8_0,2023-11-03T01:11:53.274Z,,0,1,,3109.126999999993,response,ISIC_0047022.JPG,5,ISIC_9822801.JPG,ISIC_0047022.JPG,false,1,keypress(m),500,73910.10000002384,73910,70784.43,70789.10000002384,70800.873,73920.161,8,400,9,,ISIC_9822801.JPG
break,html.Screen,4_8_1,2023-11-03T01:11:53.274Z,,0,,,NaN,,,,,,false,,,,73910.5,73910.30000001192,,73910.19999998808,,73920.161,8,400,,,
break_continue,html.Screen,4_8_2,2023-11-03T01:11:53.274Z,,0,,,NaN,,,,,,false,,,,73910.69999998808,73910.60000002384,,73910.5,,73920.161,8,400,,,
sequence,flow.Sequence,4_8,2023-11-03T01:11:53.275Z,,0,,,3109.727000023835,completion,,,,,false,,,,73910.80000001192,73910.60000002384,70784.43,70789.10000002384,70800.873,73920.161,8,400,,,
trial,html.Screen,4_9_0,2023-11-03T01:11:56.156Z,,0,1,,2872.339000000007,response,ISIC_1216201.JPG,5,ISIC_0070210.JPG,ISIC_0070210.JPG,false,0,keypress(z),500,76792.69999998808,76792.5,73903.198,73910.80000001192,73920.161,76806.002,8,400,10,,ISIC_1216201.JPG
break,html.Screen,4_9_1,2023-11-03T01:11:56.157Z,,0,,,NaN,,,,,,false,,,,76793.10000002384,76793,,76792.69999998808,,76806.002,8,400,,,
break_continue,html.Screen,4_9_2,2023-11-03T01:11:56.157Z,,0,,,NaN,,,,,,false,,,,76793.30000001192,76793.10000002384,,76793.10000002384,,76806.002,8,400,,,
sequence,flow.Sequence,4_9,2023-11-03T01:11:56.157Z,,0,,,2872.939000023849,completion,,,,,false,,,,76793.30000001192,76793.10000002384,73903.198,73910.80000001192,73920.161,76806.002,8,400,,,
trial,html.Screen,4_10_0,2023-11-03T01:11:59.503Z,,0,1,,3332.697999988086,response,ISIC_0032535.JPG,5,ISIC_8268025.JPG,ISIC_8268025.JPG,false,0,keypress(z),500,80139,80138.69999998808,76789.227,76793.30000001192,76806.002,80142.121,8,400,11,,ISIC_0032535.JPG
break,html.Screen,4_10_1,2023-11-03T01:11:59.503Z,,0,,,NaN,,,,,,false,,,,80139.40000003576,80139.30000001192,,80139,,80142.121,8,400,,,
break_continue,html.Screen,4_10_2,2023-11-03T01:11:59.503Z,,0,,,NaN,,,,,,false,,,,80139.5,80139.40000003576,,80139.40000003576,,80142.121,8,400,,,
sequence,flow.Sequence,4_10,2023-11-03T01:11:59.503Z,,0,,,3333.3980000357697,completion,,,,,false,,,,80139.60000002384,80139.40000003576,76789.227,76793.30000001192,76806.002,80142.121,8,400,,,
trial,html.Screen,4_11_0,2023-11-03T01:12:02.961Z,,0,1,,3454.879000000001,response,ISIC_0030535.JPG,5,ISIC_0033806.JPG,ISIC_0033806.JPG,false,0,keypress(z),500,83597.10000002384,83597,80125.311,80139.60000002384,80142.121,83611.738,8,400,12,,ISIC_0030535.JPG
break,html.Screen,4_11_1,2023-11-03T01:12:02.961Z,,0,,,NaN,,,,,,false,,,,83597.5,83597.40000003576,,83597.19999998808,,83611.738,8,400,,,
break_continue,html.Screen,4_11_2,2023-11-03T01:12:02.961Z,,0,,,NaN,,,,,,false,,,,83597.69999998808,83597.60000002384,,83597.60000002384,,83611.738,8,400,,,
sequence,flow.Sequence,4_11,2023-11-03T01:12:02.962Z,,0,,,3455.4790000238427,completion,,,,,false,,,,83597.80000001192,83597.60000002384,80125.311,80139.60000002384,80142.121,83611.738,8,400,,,
trial,html.Screen,4_12_0,2023-11-03T01:12:06.883Z,,0,1,,3907.2620000000024,response,ISIC_2577938.JPG,5,ISIC_0645477.JPG,ISIC_0645477.JPG,false,0,keypress(z),500,87519.19999998808,87519,83595.069,83597.90000003576,83611.738,87531.703,8,400,13,,ISIC_2577938.JPG
break,html.Screen,4_12_1,2023-11-03T01:12:06.883Z,,0,,,NaN,,,,,,false,,,,87519.5,87519.30000001192,,87519.19999998808,,87531.703,8,400,,,
break_continue,html.Screen,4_12_2,2023-11-03T01:12:06.883Z,,0,,,NaN,,,,,,false,,,,87519.60000002384,87519.5,,87519.5,,87531.703,8,400,,,
sequence,flow.Sequence,4_12,2023-11-03T01:12:06.883Z,,0,,,3907.7620000000024,completion,,,,,false,,,,87519.60000002384,87519.5,83595.069,83597.90000003576,83611.738,87531.703,8,400,,,
trial,html.Screen,4_13_0,2023-11-03T01:12:11.748Z,,0,1,,4852.897000023848,response,ISIC_0071809.JPG,5,ISIC_2987579.JPG,ISIC_2987579.JPG,false,0,keypress(z),500,92384.69999998808,92384.60000002384,87515.207,87519.69999998808,87531.703,92403.725,8,400,14,,ISIC_0071809.JPG
break,html.Screen,4_13_1,2023-11-03T01:12:11.749Z,,0,,,NaN,,,,,,false,,,,92385,92385,,92384.80000001192,,92403.725,8,400,,,
break_continue,html.Screen,4_13_2,2023-11-03T01:12:11.749Z,,0,,,NaN,,,,,,false,,,,92385.19999998808,92385.10000002384,,92385.10000002384,,92403.725,8,400,,,
sequence,flow.Sequence,4_13,2023-11-03T01:12:11.749Z,,0,,,4853.397000023848,completion,,,,,false,,,,92385.30000001192,92385.10000002384,87515.207,87519.60000002384,87531.703,92403.725,8,400,,,
trial,html.Screen,4_14_0,2023-11-03T01:12:15.831Z,,0,1,,4062.9749999880733,response,ISIC_0032112.JPG,6,ISIC_6546981.JPG,ISIC_0032112.JPG,false,1,keypress(m),500,96466.90000003576,96466.69999998808,92368.946,92385.30000001192,92403.725,96472.837,8,400,15,,ISIC_6546981.JPG
break,html.Screen,4_14_1,2023-11-03T01:12:15.831Z,,0,,,NaN,,,,,,false,,,,96467.60000002384,96467.5,,96467,,96472.837,8,400,,,
break_continue,html.Screen,4_14_2,2023-11-03T01:12:15.832Z,,0,,,NaN,,,,,,false,,,,96467.90000003576,96467.80000001192,,96467.69999998808,,96472.837,8,400,,,
sequence,flow.Sequence,4_14,2023-11-03T01:12:15.832Z,,0,,,4064.075000011915,completion,,,,,false,,,,96468.10000002384,96467.80000001192,92368.946,92385.30000001192,92403.725,96472.837,8,400,,,
trial,html.Screen,4_15_0,2023-11-03T01:12:19.050Z,,0,1,,3213.1630000000005,response,ISIC_9950866.JPG,5,ISIC_8483382.JPG,ISIC_8483382.JPG,false,0,keypress(z),500,99686.19999998808,99686,96456.461,96468.19999998808,96472.837,99692.031,8,400,16,,ISIC_9950866.JPG
break,html.Screen,4_15_1,2023-11-03T01:12:19.050Z,,0,,,NaN,,,,,,false,,,,99686.5,99686.5,,99686.30000001192,,99692.031,8,400,,,
break_continue,html.Screen,4_15_2,2023-11-03T01:12:19.050Z,,0,,,NaN,,,,,,false,,,,99686.69999998808,99686.60000002384,,99686.5,,99692.031,8,400,,,
sequence,flow.Sequence,4_15,2023-11-03T01:12:19.050Z,,0,,,3213.7630000238423,completion,,,,,false,,,,99686.69999998808,99686.60000002384,96456.461,96468.19999998808,96472.837,99692.031,8,400,,,
trial,html.Screen,4_16_0,2023-11-03T01:12:21.931Z,,0,1,,2875.2690000119183,response,ISIC_0073032.JPG,4,ISIC_0027694.JPG,ISIC_0073032.JPG,false,1,keypress(m),500,102567.40000003576,102567.30000001192,99676.191,99686.80000001192,99692.031,102577.87,8,400,17,,ISIC_0027694.JPG
break,html.Screen,4_16_1,2023-11-03T01:12:21.931Z,,0,,,NaN,,,,,,false,,,,102567.69999998808,102567.69999998808,,102567.5,,102577.87,8,400,,,
break_continue,html.Screen,4_16_2,2023-11-03T01:12:21.932Z,,0,,,NaN,,,,,,false,,,,102567.90000003576,102567.90000003576,,102567.80000001192,,102577.87,8,400,,,
sequence,flow.Sequence,4_16,2023-11-03T01:12:21.932Z,,0,,,2875.86900003576,completion,,,,,false,,,,102568.10000002384,102567.90000003576,99676.191,99686.80000001192,99692.031,102577.87,8,400,,,
trial,html.Screen,4_17_0,2023-11-03T01:12:25.037Z,,0,1,,3095.5300000357674,response,ISIC_0055887.JPG,5,ISIC_0014883.JPG,ISIC_0014883.JPG,false,0,keypress(z),500,105673.5,105673.40000003576,102561.611,102568.10000002384,102577.87,105680.456,8,400,18,,ISIC_0055887.JPG
break,html.Screen,4_17_1,2023-11-03T01:12:25.038Z,,0,,,NaN,,,,,,false,,,,105673.80000001192,105673.69999998808,,105673.5,,105680.456,8,400,,,
break_continue,html.Screen,4_17_2,2023-11-03T01:12:25.038Z,,0,,,NaN,,,,,,false,,,,105674.10000002384,105673.90000003576,,105673.80000001192,,105680.456,8,400,,,
sequence,flow.Sequence,4_17,2023-11-03T01:12:25.038Z,,0,,,3096.0300000357674,completion,,,,,false,,,,105674.10000002384,105673.90000003576,102561.611,102568.10000002384,102577.87,105680.456,8,400,,,
trial,html.Screen,4_18_0,2023-11-03T01:12:28.160Z,,0,1,,3115.6440000238363,response,ISIC_1644520.JPG,5,ISIC_9780632.JPG,ISIC_9780632.JPG,false,0,keypress(z),500,108796.19999998808,108796.10000002384,105663.548,105674.10000002384,105680.456,108799.786,8,400,19,,ISIC_1644520.JPG
break,html.Screen,4_18_1,2023-11-03T01:12:28.160Z,,0,,,NaN,,,,,,false,,,,108796.5,108796.5,,108796.30000001192,,108799.786,8,400,,,
break_continue,html.Screen,4_18_2,2023-11-03T01:12:28.160Z,,0,,,NaN,,,,,,false,,,,108796.60000002384,108796.60000002384,,108796.5,,108799.786,8,400,,,
sequence,flow.Sequence,4_18,2023-11-03T01:12:28.160Z,,0,,,3116.1440000238363,completion,,,,,false,,,,108796.69999998808,108796.60000002384,105663.548,105674.10000002384,105680.456,108799.786,8,400,,,
trial,html.Screen,4_19_0,2023-11-03T01:12:31.202Z,,0,1,,3037.814000023849,response,ISIC_0033392.JPG,5,ISIC_0030681.JPG,ISIC_0030681.JPG,false,0,keypress(z),500,111837.90000003576,111837.60000002384,108783.31,108796.80000001192,108799.786,111852.379,8,400,20,,ISIC_0033392.JPG
break,html.Screen,4_19_1,2023-11-03T01:12:31.202Z,,0,,,NaN,,,,,,false,,,,111838.30000001192,111838.19999998808,,111837.90000003576,,111852.379,8,400,,,
break_continue,html.Screen,4_19_2,2023-11-03T01:12:31.202Z,,0,,,NaN,,,,,,false,,,,111838.40000003576,111838.30000001192,,111838.30000001192,,111852.379,8,400,,,
sequence,flow.Sequence,4_19,2023-11-03T01:12:31.202Z,,0,,,3038.514000011928,completion,,,,,false,,,,111838.40000003576,111838.30000001192,108783.31,108796.80000001192,108799.786,111852.379,8,400,,,
trial,html.Screen,4_20_0,2023-11-03T01:12:34.851Z,,0,1,,3635.021000035762,response,ISIC_0189694.JPG,6,ISIC_0032750.JPG,ISIC_0032750.JPG,false,0,keypress(z),500,115487.60000002384,115487.40000003576,111836.264,111838.5,111852.379,115506.212,8,400,21,,ISIC_0189694.JPG
break,html.Screen,4_20_1,2023-11-03T01:12:34.852Z,,0,,,NaN,,,,,,false,,,,115487.90000003576,115487.80000001192,,115487.69999998808,,115506.212,8,400,,,
break_continue,html.Screen,4_20_2,2023-11-03T01:12:34.852Z,,0,,,NaN,,,,,,false,,,,115488.10000002384,115488,,115488,,115506.212,8,400,,,
sequence,flow.Sequence,4_20,2023-11-03T01:12:34.852Z,,0,,,3635.620999999999,completion,,,,,false,,,,115488.19999998808,115488,111836.264,111838.5,111852.379,115506.212,8,400,,,
trial,html.Screen,4_21_0,2023-11-03T01:12:38.197Z,,0,1,,3327.1880000357633,response,ISIC_8865595.JPG,5,ISIC_8635889.JPG,ISIC_8865595.JPG,false,1,keypress(m),500,118833.69999998808,118833.40000003576,115472.178,115488.30000001192,115506.212,118841.618,8,400,22,,ISIC_8635889.JPG
break,html.Screen,4_21_1,2023-11-03T01:12:38.198Z,,0,,,NaN,,,,,,false,,,,118834.10000002384,118834,,118833.80000001192,,118841.618,8,400,,,
break_continue,html.Screen,4_21_2,2023-11-03T01:12:38.198Z,,0,,,NaN,,,,,,false,,,,118834.30000001192,118834.10000002384,,118834.10000002384,,118841.618,8,400,,,
sequence,flow.Sequence,4_21,2023-11-03T01:12:38.198Z,,0,,,3327.8880000238423,completion,,,,,false,,,,118834.30000001192,118834.10000002384,115472.178,115488.30000001192,115506.212,118841.618,8,400,,,
trial,html.Screen,4_22_0,2023-11-03T01:12:41.608Z,,0,1,,3402.1820000119187,response,ISIC_0070805.JPG,5,ISIC_9301346.JPG,ISIC_0070805.JPG,false,1,keypress(m),500,122243.90000003576,122243.80000001192,118825.313,118834.5,118841.618,122261.715,8,400,23,,ISIC_9301346.JPG
break,html.Screen,4_22_1,2023-11-03T01:12:41.608Z,,0,,,NaN,,,,,,false,,,,122244.30000001192,122244.10000002384,,122244,,122261.715,8,400,,,
break_continue,html.Screen,4_22_2,2023-11-03T01:12:41.608Z,,0,,,NaN,,,,,,false,,,,122244.30000001192,122244.30000001192,,122244.30000001192,,122261.715,8,400,,,
sequence,flow.Sequence,4_22,2023-11-03T01:12:41.608Z,,0,,,3402.6820000119187,completion,,,,,false,,,,122244.40000003576,122244.30000001192,118825.313,118834.5,118841.618,122261.715,8,400,,,
trial,html.Screen,4_23_0,2023-11-03T01:12:44.345Z,,0,1,,2719.5850000119244,response,ISIC_0028655.JPG,5,ISIC_0033950.JPG,ISIC_0028655.JPG,false,1,keypress(m),500,124981.60000002384,124981.30000001192,122227.94,122244.5,122261.715,124996.852,8,400,24,,ISIC_0033950.JPG
break,html.Screen,4_23_1,2023-11-03T01:12:44.346Z,,0,,,NaN,,,,,,false,,,,124982,124981.90000003576,,124981.69999998808,,124996.852,8,400,,,
break_continue,html.Screen,4_23_2,2023-11-03T01:12:44.346Z,,0,,,NaN,,,,,,false,,,,124982.19999998808,124982.10000002384,,124982,,124996.852,8,400,,,
sequence,flow.Sequence,4_23,2023-11-03T01:12:44.346Z,,0,,,2720.3850000238454,completion,,,,,false,,,,124982.30000001192,124982.10000002384,122227.94,122244.5,122261.715,124996.852,8,400,,,
trial,html.Screen,4_24_0,2023-11-03T01:12:48.492Z,,0,1,,4130.948000011922,response,ISIC_5518557.JPG,5,ISIC_2433965.JPG,ISIC_2433965.JPG,false,0,keypress(z),500,129127.80000001192,129127.80000001192,124980.685,124982.40000003576,124996.852,129133.688,8,400,25,,ISIC_5518557.JPG
break,html.Screen,4_24_1,2023-11-03T01:12:48.492Z,,0,,,NaN,,,,,,false,,,,129128.19999998808,129128.10000002384,,129128,,129133.688,8,400,,,
break_continue,html.Screen,4_24_2,2023-11-03T01:12:48.492Z,,0,,,NaN,,,,,,false,,,,129128.30000001192,129128.30000001192,,129128.19999998808,,129133.688,8,400,,,
sequence,flow.Sequence,4_24,2023-11-03T01:12:48.492Z,,0,,,4131.448000011922,completion,,,,,false,,,,129128.40000003576,129128.30000001192,124980.685,124982.30000001192,124996.852,129133.688,8,400,,,
trial,html.Screen,4_25_0,2023-11-03T01:12:52.926Z,,0,1,,4428.312000000005,response,ISIC_0011198.JPG,5,ISIC_0058303.JPG,ISIC_0058303.JPG,false,0,keypress(z),500,133562.19999998808,133562,129117.498,129128.5,129133.688,133570.861,8,400,26,,ISIC_0011198.JPG
break,html.Screen,4_25_1,2023-11-03T01:12:52.926Z,,0,,,NaN,,,,,,false,,,,133562.69999998808,133562.5,,133562.30000001192,,133570.861,8,400,,,
break_continue,html.Screen,4_25_2,2023-11-03T01:12:52.926Z,,0,,,NaN,,,,,,false,,,,133562.80000001192,133562.69999998808,,133562.69999998808,,133570.861,8,400,,,
sequence,flow.Sequence,4_25,2023-11-03T01:12:52.927Z,,0,,,4429.011999988084,completion,,,,,false,,,,133562.90000003576,133562.69999998808,129117.498,129128.40000003576,129133.688,133570.861,8,400,,,
trial,html.Screen,4_26_0,2023-11-03T01:13:00.833Z,,0,1,,7897.9390000119165,response,ISIC_0072553.JPG,6,ISIC_0072290.JPG,ISIC_0072553.JPG,false,1,keypress(m),500,141468.90000003576,141468.80000001192,133553.963,133563,133570.861,141477.502,8,400,27,,ISIC_0072290.JPG
break,html.Screen,4_26_1,2023-11-03T01:13:00.834Z,,0,,,NaN,,,,,,false,,,,141469.19999998808,141469.19999998808,,141469,,141477.502,8,400,,,
break_continue,html.Screen,4_26_2,2023-11-03T01:13:00.834Z,,0,,,NaN,,,,,,false,,,,141469.40000003576,141469.40000003576,,141469.30000001192,,141477.502,8,400,,,
sequence,flow.Sequence,4_26,2023-11-03T01:13:00.834Z,,0,,,7898.539000035758,completion,,,,,false,,,,141469.60000002384,141469.40000003576,133553.963,133562.90000003576,133570.861,141477.502,8,400,,,
trial,html.Screen,4_27_0,2023-11-03T01:13:04.835Z,,0,1,,3993.098000023834,response,ISIC_7320371.JPG,5,ISIC_4475268.JPG,ISIC_7320371.JPG,false,1,keypress(m),500,145470.80000001192,145470.60000002384,141460.985,141469.69999998808,141477.502,145480.901,8,400,28,,ISIC_4475268.JPG
break,html.Screen,4_27_1,2023-11-03T01:13:04.835Z,,0,,,NaN,,,,,,false,,,,145471.19999998808,145471.10000002384,,145470.90000003576,,145480.901,8,400,,,
break_continue,html.Screen,4_27_2,2023-11-03T01:13:04.836Z,,0,,,NaN,,,,,,false,,,,145471.40000003576,145471.30000001192,,145471.19999998808,,145480.901,8,400,,,
sequence,flow.Sequence,4_27,2023-11-03T01:13:04.836Z,,0,,,3993.7980000119132,completion,,,,,false,,,,145471.5,145471.30000001192,141460.985,141469.60000002384,141477.502,145480.901,8,400,,,
trial,html.Screen,4_28_0,2023-11-03T01:13:08.246Z,,0,1,,3400.3990000119084,response,ISIC_0065324.JPG,5,ISIC_0327225.JPG,ISIC_0065324.JPG,false,1,keypress(m),500,148881.5,148881.30000001192,145463.972,145471.60000002384,145480.901,148883.883,8,400,29,,ISIC_0327225.JPG
break,html.Screen,4_28_1,2023-11-03T01:13:08.246Z,,0,,,NaN,,,,,,false,,,,148882.10000002384,148881.90000003576,,148881.69999998808,,148883.883,8,400,,,
break_continue,html.Screen,4_28_2,2023-11-03T01:13:08.247Z,,0,,,NaN,,,,,,false,,,,148882.40000003576,148882.30000001192,,148882.19999998808,,148883.883,8,400,,,
sequence,flow.Sequence,4_28,2023-11-03T01:13:08.247Z,,0,,,3401.3990000119084,completion,,,,,false,,,,148882.5,148882.30000001192,145463.972,145471.5,145480.901,148883.883,8,400,,,
trial,html.Screen,4_29_0,2023-11-03T01:13:12.505Z,,0,1,,4256.71700002384,response,ISIC_6269414.JPG,5,ISIC_0066378.JPG,ISIC_0066378.JPG,false,0,keypress(z),500,153140.80000001192,153140.60000002384,148867.074,148882.69999998808,148883.883,153154.17,8,400,30,,ISIC_6269414.JPG
break,html.Screen,4_29_1,2023-11-03T01:13:12.506Z,,0,,,NaN,,,,,,false,,,,153141.40000003576,153141.30000001192,,153141,,153154.17,8,400,,,
break_continue,html.Screen,4_29_2,2023-11-03T01:13:12.506Z,,0,,,NaN,,,,,,false,,,,153141.69999998808,153141.69999998808,,153141.5,,153154.17,8,400,,,
sequence,flow.Sequence,4_29,2023-11-03T01:13:12.506Z,,0,,,4257.816999988077,completion,,,,,false,,,,153141.90000003576,153141.69999998808,148867.074,148882.69999998808,148883.883,153154.17,8,400,,,
trial,html.Screen,4_30_0,2023-11-03T01:13:15.372Z,,0,1,,2853.0299999880663,response,ISIC_6442221.JPG,4,ISIC_0010962.JPG,ISIC_0010962.JPG,false,0,keypress(z),500,156007.60000002384,156007.19999998808,153137.331,153141.90000003576,153154.17,156023.203,8,400,31,,ISIC_6442221.JPG
break,html.Screen,4_30_1,2023-11-03T01:13:15.373Z,,0,,,NaN,,,,,,false,,,,156008.30000001192,156008.10000002384,,156007.80000001192,,156023.203,8,400,,,
break_continue,html.Screen,4_30_2,2023-11-03T01:13:15.373Z,,0,,,NaN,,,,,,false,,,,156008.69999998808,156008.60000002384,,156008.40000003576,,156023.203,8,400,,,
sequence,flow.Sequence,4_30,2023-11-03T01:13:15.373Z,,0,,,2854.430000023829,completion,,,,,false,,,,156008.80000001192,156008.60000002384,153137.331,153141.90000003576,153154.17,156023.203,8,400,,,
trial,html.Screen,4_31_0,2023-11-03T01:13:20.175Z,,0,1,,4787.4969999880705,response,ISIC_8458843.JPG,4,ISIC_8704668.JPG,ISIC_8704668.JPG,false,0,keypress(z),500,160810.80000001192,160810.69999998808,156006.644,156008.90000003576,156023.203,160827.27,8,400,32,,ISIC_8458843.JPG
break,html.Screen,4_31_1,2023-11-03T01:13:20.176Z,,0,,,NaN,,,,,,false,,,,160811.30000001192,160811.19999998808,,160811.10000002384,,160827.27,8,400,,,
break_continue,html.Screen,4_31_2,2023-11-03T01:13:20.176Z,,0,,,NaN,,,,,,false,,,,160811.5,160811.5,,160811.5,,160827.27,8,400,,,
sequence,flow.Sequence,4_31,2023-11-03T01:13:20.176Z,,0,,,4788.296999999991,completion,,,,,false,,,,160811.69999998808,160811.5,156006.644,156008.90000003576,156023.203,160827.27,8,400,,,
trial,html.Screen,4_32_0,2023-11-03T01:13:25.891Z,,0,1,,5698.830000023852,response,ISIC_6963954.JPG,5,ISIC_0012722.JPG,ISIC_0012722.JPG,false,0,keypress(z),500,166526.19999998808,166526.10000002384,160810.319,160811.69999998808,160827.27,166532.127,8,400,33,,ISIC_6963954.JPG
break,html.Screen,4_32_1,2023-11-03T01:13:25.891Z,,0,,,NaN,,,,,,false,,,,166526.60000002384,166526.5,,166526.40000003576,,166532.127,8,400,,,
break_continue,html.Screen,4_32_2,2023-11-03T01:13:25.891Z,,0,,,NaN,,,,,,false,,,,166527.19999998808,166527.19999998808,,166526.69999998808,,166532.127,8,400,,,
sequence,flow.Sequence,4_32,2023-11-03T01:13:25.892Z,,0,,,5699.92999998809,completion,,,,,false,,,,166527.30000001192,166527.19999998808,160810.319,160811.69999998808,160827.27,166532.127,8,400,,,
trial,html.Screen,4_33_0,2023-11-03T01:13:30.324Z,,0,1,,4427.872999999992,response,ISIC_0010316.JPG,4,ISIC_0012064.JPG,ISIC_0012064.JPG,false,0,keypress(z),500,170960.19999998808,170960,166515.749,166527.30000001192,166532.127,170969.265,8,400,34,,ISIC_0010316.JPG
break,html.Screen,4_33_1,2023-11-03T01:13:30.325Z,,0,,,NaN,,,,,,false,,,,170960.5,170960.40000003576,,170960.19999998808,,170969.265,8,400,,,
break_continue,html.Screen,4_33_2,2023-11-03T01:13:30.325Z,,0,,,NaN,,,,,,false,,,,170960.60000002384,170960.5,,170960.5,,170969.265,8,400,,,
sequence,flow.Sequence,4_33,2023-11-03T01:13:30.325Z,,0,,,4428.372999999992,completion,,,,,false,,,,170960.69999998808,170960.5,166515.749,166527.30000001192,166532.127,170969.265,8,400,,,
trial,html.Screen,4_34_0,2023-11-03T01:13:33.207Z,,0,1,,2873.035000011907,response,ISIC_9685480.JPG,5,ISIC_3431915.JPG,ISIC_9685480.JPG,false,1,keypress(m),500,173842.40000003576,173842.30000001192,170953.098,170960.69999998808,170969.265,173855.023,8,400,35,,ISIC_3431915.JPG
break,html.Screen,4_34_1,2023-11-03T01:13:33.207Z,,0,,,NaN,,,,,,false,,,,173842.69999998808,173842.60000002384,,173842.5,,173855.023,8,400,,,
break_continue,html.Screen,4_34_2,2023-11-03T01:13:33.207Z,,0,,,NaN,,,,,,false,,,,173842.80000001192,173842.80000001192,,173842.80000001192,,173855.023,8,400,,,
sequence,flow.Sequence,4_34,2023-11-03T01:13:33.207Z,,0,,,2873.535000011907,completion,,,,,false,,,,173842.90000003576,173842.80000001192,170953.098,170960.69999998808,170969.265,173855.023,8,400,,,
trial,html.Screen,4_35_0,2023-11-03T01:13:36.329Z,,0,1,,3109.2770000119344,response,ISIC_0046361.JPG,5,ISIC_1923467.JPG,ISIC_0046361.JPG,false,1,keypress(m),500,176964.5,176964.30000001192,173838.611,173842.90000003576,173855.023,176974.321,8,400,36,,ISIC_1923467.JPG
break,html.Screen,4_35_1,2023-11-03T01:13:36.329Z,,0,,,NaN,,,,,,false,,,,176964.80000001192,176964.69999998808,,176964.69999998808,,176974.321,8,400,,,
break_continue,html.Screen,4_35_2,2023-11-03T01:13:36.329Z,,0,,,NaN,,,,,,false,,,,176964.90000003576,176964.90000003576,,176964.80000001192,,176974.321,8,400,,,
sequence,flow.Sequence,4_35,2023-11-03T01:13:36.329Z,,0,,,3109.8770000357763,completion,,,,,false,,,,176965,176964.90000003576,173838.611,173842.90000003576,173855.023,176974.321,8,400,,,
trial,html.Screen,4_36_0,2023-11-03T01:13:39.226Z,,0,1,,2887.4790000119247,response,ISIC_0067727.JPG,4,ISIC_0030780.JPG,ISIC_0030780.JPG,false,0,keypress(z),500,179862,179861.80000001192,176957.593,176965.10000002384,176974.321,179876.776,8,400,37,,ISIC_0067727.JPG
break,html.Screen,4_36_1,2023-11-03T01:13:39.227Z,,0,,,NaN,,,,,,false,,,,179862.40000003576,179862.40000003576,,179862.10000002384,,179876.776,8,400,,,
break_continue,html.Screen,4_36_2,2023-11-03T01:13:39.227Z,,0,,,NaN,,,,,,false,,,,179862.5,179862.40000003576,,179862.40000003576,,179876.776,8,400,,,
sequence,flow.Sequence,4_36,2023-11-03T01:13:39.227Z,,0,,,2888.0790000357665,completion,,,,,false,,,,179862.60000002384,179862.40000003576,176957.593,176965,176974.321,179876.776,8,400,,,
trial,html.Screen,4_37_0,2023-11-03T01:13:42.156Z,,0,1,,2915.12400003575,response,ISIC_0011729.JPG,5,ISIC_2431690.JPG,ISIC_0011729.JPG,false,1,keypress(m),500,182792.10000002384,182791.90000003576,179860.011,179862.60000002384,179876.776,182795.956,8,400,38,,ISIC_2431690.JPG
break,html.Screen,4_37_1,2023-11-03T01:13:42.157Z,,0,,,NaN,,,,,,false,,,,182792.5,182792.40000003576,,182792.10000002384,,182795.956,8,400,,,
break_continue,html.Screen,4_37_2,2023-11-03T01:13:42.157Z,,0,,,NaN,,,,,,false,,,,182792.69999998808,182792.60000002384,,182792.60000002384,,182795.956,8,400,,,
sequence,flow.Sequence,4_37,2023-11-03T01:13:42.157Z,,0,,,2915.8240000238293,completion,,,,,false,,,,182792.69999998808,182792.60000002384,179860.011,179862.60000002384,179876.776,182795.956,8,400,,,
trial,html.Screen,4_38_0,2023-11-03T01:13:45.055Z,,0,1,,2894.3440000119153,response,ISIC_0069698.JPG,5,ISIC_0247330.JPG,ISIC_0247330.JPG,false,0,keypress(z),500,185690.5,185690.30000001192,182779.172,182792.90000003576,182795.956,185698.379,8,400,39,,ISIC_0069698.JPG
break,html.Screen,4_38_1,2023-11-03T01:13:45.055Z,,0,,,NaN,,,,,,false,,,,185690.90000003576,185690.80000001192,,185690.60000002384,,185698.379,8,400,,,
break_continue,html.Screen,4_38_2,2023-11-03T01:13:45.055Z,,0,,,NaN,,,,,,false,,,,185691,185690.90000003576,,185690.90000003576,,185698.379,8,400,,,
sequence,flow.Sequence,4_38,2023-11-03T01:13:45.055Z,,0,,,2894.944000035757,completion,,,,,false,,,,185691.19999998808,185690.90000003576,182779.172,182792.80000001192,182795.956,185698.379,8,400,,,
trial,html.Screen,4_39_0,2023-11-03T01:13:48.177Z,,0,1,,3114.2210000238556,response,ISIC_0067565.JPG,4,ISIC_5498651.JPG,ISIC_0067565.JPG,false,1,keypress(m),500,188812.80000001192,188812.60000002384,185681.66,185691.30000001192,185698.379,188817.701,8,400,40,,ISIC_5498651.JPG
break,html.Screen,4_39_1,2023-11-03T01:13:48.177Z,,0,,,NaN,,,,,,false,,,,188813.19999998808,188813.10000002384,,188812.90000003576,,188817.701,8,400,,,
break_continue,html.Screen,4_39_2,2023-11-03T01:13:48.178Z,,0,,,NaN,,,,,,false,,,,188813.30000001192,188813.30000001192,,188813.19999998808,,188817.701,8,400,,,
sequence,flow.Sequence,4_39,2023-11-03T01:13:48.178Z,,0,,,3114.9210000119347,completion,,,,,false,,,,188813.40000003576,188813.30000001192,185681.66,185691.19999998808,185698.379,188817.701,8,400,,,
trial,html.Screen,4_40_0,2023-11-03T01:13:50.931Z,,0,1,,2748.899000023841,response,ISIC_1453146.JPG,5,ISIC_3950753.JPG,ISIC_1453146.JPG,false,1,keypress(m),500,191566.69999998808,191566.60000002384,188800.778,188813.40000003576,188817.701,191570.048,8,400,41,,ISIC_3950753.JPG
break,html.Screen,4_40_1,2023-11-03T01:13:50.931Z,,0,,,NaN,,,,,,false,,,,191567,191567,,191566.90000003576,,191570.048,8,400,,,
break_continue,html.Screen,4_40_2,2023-11-03T01:13:50.931Z,,0,,,NaN,,,,,,false,,,,191567.19999998808,191567.10000002384,,191567,,191570.048,8,400,,,
sequence,flow.Sequence,4_40,2023-11-03T01:13:50.932Z,,0,,,2749.399000023841,completion,,,,,false,,,,191567.19999998808,191567.10000002384,188800.778,188813.40000003576,188817.701,191570.048,8,400,,,
trial,html.Screen,4_41_0,2023-11-03T01:13:53.893Z,,0,1,,2958.352000035753,response,ISIC_0073044.JPG,5,ISIC_0058954.JPG,ISIC_0073044.JPG,false,1,keypress(m),500,194528.5,194528.40000003576,191553.286,191567.30000001192,191570.048,194539.255,8,400,42,,ISIC_0058954.JPG
break,html.Screen,4_41_1,2023-11-03T01:13:53.893Z,,0,,,NaN,,,,,,false,,,,194528.80000001192,194528.80000001192,,194528.60000002384,,194539.255,8,400,,,
break_continue,html.Screen,4_41_2,2023-11-03T01:13:53.893Z,,0,,,NaN,,,,,,false,,,,194528.90000003576,194528.90000003576,,194528.80000001192,,194539.255,8,400,,,
sequence,flow.Sequence,4_41,2023-11-03T01:13:53.893Z,,0,,,2958.852000035753,completion,,,,,false,,,,194529,194528.90000003576,191553.286,191567.30000001192,191570.048,194539.255,8,400,,,
trial,html.Screen,4_42_0,2023-11-03T01:13:56.646Z,,0,1,,2742.845000023837,response,ISIC_0695029.JPG,6,ISIC_0072564.JPG,ISIC_0072564.JPG,false,0,keypress(z),500,197282.19999998808,197282.10000002384,194522.44,194529.10000002384,194539.255,197291.567,8,400,43,,ISIC_0695029.JPG
break,html.Screen,4_42_1,2023-11-03T01:13:56.647Z,,0,,,NaN,,,,,,false,,,,197282.60000002384,197282.5,,197282.30000001192,,197291.567,8,400,,,
break_continue,html.Screen,4_42_2,2023-11-03T01:13:56.647Z,,0,,,NaN,,,,,,false,,,,197282.69999998808,197282.60000002384,,197282.60000002384,,197291.567,8,400,,,
sequence,flow.Sequence,4_42,2023-11-03T01:13:56.647Z,,0,,,2743.345000023837,completion,,,,,false,,,,197282.90000003576,197282.60000002384,194522.44,194529.10000002384,194539.255,197291.567,8,400,,,
trial,html.Screen,4_43_0,2023-11-03T01:13:59.928Z,,0,1,,3272.533000023832,response,ISIC_0067609.JPG,5,ISIC_0644590.JPG,ISIC_0067609.JPG,false,1,keypress(m),500,200564.19999998808,200564.10000002384,197275.151,197282.90000003576,197291.567,200577.672,8,400,44,,ISIC_0644590.JPG
break,html.Screen,4_43_1,2023-11-03T01:13:59.929Z,,0,,,NaN,,,,,,false,,,,200564.5,200564.40000003576,,200564.30000001192,,200577.672,8,400,,,
break_continue,html.Screen,4_43_2,2023-11-03T01:13:59.929Z,,0,,,NaN,,,,,,false,,,,200564.60000002384,200564.60000002384,,200564.60000002384,,200577.672,8,400,,,
sequence,flow.Sequence,4_43,2023-11-03T01:13:59.929Z,,0,,,3273.033000023832,completion,,,,,false,,,,200564.69999998808,200564.60000002384,197275.151,197282.90000003576,197291.567,200577.672,8,400,,,
trial,html.Screen,4_44_0,2023-11-03T01:14:04.250Z,,0,1,,4308.027999988088,response,ISIC_0009903.JPG,5,ISIC_7210119.JPG,ISIC_0009903.JPG,false,1,keypress(m),500,204885.80000001192,204885.69999998808,200560.769,200564.69999998808,200577.672,204898.004,8,400,45,,ISIC_7210119.JPG
break,html.Screen,4_44_1,2023-11-03T01:14:04.250Z,,0,,,NaN,,,,,,false,,,,204886.10000002384,204886.10000002384,,204885.90000003576,,204898.004,8,400,,,
break_continue,html.Screen,4_44_2,2023-11-03T01:14:04.250Z,,0,,,NaN,,,,,,false,,,,204886.19999998808,204886.10000002384,,204886.10000002384,,204898.004,8,400,,,
sequence,flow.Sequence,4_44,2023-11-03T01:14:04.250Z,,0,,,4308.4280000238505,completion,,,,,false,,,,204886.30000001192,204886.10000002384,200560.769,200564.69999998808,200577.672,204898.004,8,400,,,
trial,html.Screen,4_45_0,2023-11-03T01:14:07.563Z,,0,1,,3301.195999988093,response,ISIC_0032133.JPG,4,ISIC_0069250.JPG,ISIC_0069250.JPG,false,0,keypress(z),500,208199.40000003576,208199.19999998808,204881.608,204886.30000001192,204898.004,208200.848,8,400,46,,ISIC_0032133.JPG
break,html.Screen,4_45_1,2023-11-03T01:14:07.564Z,,0,,,NaN,,,,,,false,,,,208199.69999998808,208199.60000002384,,208199.40000003576,,208200.848,8,400,,,
break_continue,html.Screen,4_45_2,2023-11-03T01:14:07.564Z,,0,,,NaN,,,,,,false,,,,208199.90000003576,208199.80000001192,,208199.69999998808,,208200.848,8,400,,,
sequence,flow.Sequence,4_45,2023-11-03T01:14:07.564Z,,0,,,3301.7960000119347,completion,,,,,false,,,,208200,208199.80000001192,204881.608,204886.30000001192,204898.004,208200.848,8,400,,,
trial,html.Screen,4_46_0,2023-11-03T01:14:10.301Z,,0,1,,2736.2520000238437,response,ISIC_0062991.JPG,5,ISIC_0061381.JPG,ISIC_0061381.JPG,false,0,keypress(z),500,210937.19999998808,210937.10000002384,208184.297,208200,208200.848,210953.145,8,400,47,,ISIC_0062991.JPG
break,html.Screen,4_46_1,2023-11-03T01:14:10.302Z,,0,,,NaN,,,,,,false,,,,210937.5,210937.5,,210937.30000001192,,210953.145,8,400,,,
break_continue,html.Screen,4_46_2,2023-11-03T01:14:10.302Z,,0,,,NaN,,,,,,false,,,,210937.60000002384,210937.60000002384,,210937.60000002384,,210953.145,8,400,,,
sequence,flow.Sequence,4_46,2023-11-03T01:14:10.302Z,,0,,,2736.7520000238437,completion,,,,,false,,,,210937.80000001192,210937.60000002384,208184.297,208200,208200.848,210953.145,8,400,,,
trial,html.Screen,4_47_0,2023-11-03T01:14:13.743Z,,0,1,,3425.7550000357733,response,ISIC_0026281.JPG,6,ISIC_0014480.JPG,ISIC_0026281.JPG,false,1,keypress(m),500,214379,214378.90000003576,210936.492,210937.80000001192,210953.145,214389.397,8,400,48,,ISIC_0014480.JPG
break,html.Screen,4_47_1,2023-11-03T01:14:13.743Z,,0,,,NaN,,,,,,false,,,,214379.40000003576,214379.30000001192,,214379.10000002384,,214389.397,8,400,,,
break_continue,html.Screen,4_47_2,2023-11-03T01:14:13.744Z,,0,,,NaN,,,,,,false,,,,214379.5,214379.5,,214379.40000003576,,214389.397,8,400,,,
sequence,flow.Sequence,4_47,2023-11-03T01:14:13.744Z,,0,,,3426.3550000000105,completion,,,,,false,,,,214379.60000002384,214379.5,210936.492,210937.80000001192,210953.145,214389.397,8,400,,,
trial,html.Screen,4_48_0,2023-11-03T01:14:19.505Z,,0,1,,5751.503000035766,response,ISIC_0029389.JPG,5,ISIC_8398000.JPG,ISIC_8398000.JPG,false,0,keypress(z),500,220141.10000002384,220140.90000003576,214372.804,214379.69999998808,214389.397,220144.429,8,400,49,,ISIC_0029389.JPG
break,html.Screen,4_48_1,2023-11-03T01:14:19.505Z,,0,,,NaN,,,,,,false,,,,220141.30000001192,220141.30000001192,,220141.10000002384,,220144.429,8,400,,,
break_continue,html.Screen,4_48_2,2023-11-03T01:14:19.506Z,,0,,,NaN,,,,,,false,,,,220141.5,220141.40000003576,,220141.40000003576,,220144.429,8,400,,,
sequence,flow.Sequence,4_48,2023-11-03T01:14:19.506Z,,0,,,5752.003000035766,completion,,,,,false,,,,220141.60000002384,220141.40000003576,214372.804,214379.60000002384,214389.397,220144.429,8,400,,,
trial,html.Screen,4_49_0,2023-11-03T01:14:23.747Z,,0,1,,4238.871000011917,response,ISIC_0003793.JPG,4,ISIC_7614221.JPG,ISIC_0003793.JPG,false,1,keypress(m),500,224383.40000003576,224383.30000001192,220127.592,220141.60000002384,220144.429,224397.906,8,400,50,,ISIC_7614221.JPG