sender,sender_type,sender_id,timestamp,meta,,blockNo,condition,duration,ended_on,img_left,img_reveal,img_right,loser,practice,response,response_action,selection_duration,time_commit,time_end,time_render,time_run,time_show,time_switch,total_blocks,total_trials,trialNo,url,winner
informed_consent,html.Screen,0,2023-09-08T18:57:22.633Z,"{""labjs_version"":""20.2.4"",""labjs_build"":{""flavor"":""production"",""commit"":""f5b4a49f956347addd546a832a3327688c2c0fef""},""location"":""https://run.pavlovia.org/MurrayBennett/melanoma-2afc/?participant=5b646a727c39ee00010a18b0&STUDY_ID=64f8c92207ba404bcb356c90&SESSION_ID=64fb6b81038acb9bd6e0c3c3&platform=prolific"",""userAgent"":""Mozilla/5.0 (Windows NT 10.0; Win64; x64) AppleWebKit/537.36 (KHTML, like Gecko) Chrome/116.0.0.0 Safari/537.36"",""platform"":""Win32"",""language"":""en-US"",""locale"":""en-US"",""timeZone"":""America/New_York"",""timezoneOffset"":240,""screen_width"":969,""screen_height"":545,""scroll_width"":953,""scroll_height"":426,""window_innerWidth"":953,""window_innerHeight"":426,""devicePixelRatio"":1.409999966621399}",,,,9867.015999994039,response,,,,,,consent,click button,,19724.09999999404,19714.59999999404,5030.592,9722,9847.584,19931.465,,,,"{""participant"":""5b646a727c39ee00010a18b0"",""STUDY_ID"":""64f8c92207ba404bcb356c90"",""SESSION_ID"":""64fb6b81038acb9bd6e0c3c3"",""platform"":""prolific""}",
Welcome,html.Screen,1,2023-09-08T18:57:43.119Z,,,,colourful,20272.035,response,,,,,,continue,click button,,40210,40203.5,19714.807,19726.29999999702,19931.465,40280.777,,,,,
trial,html.Screen,2_0_0,2023-09-08T18:57:48.082Z,,0,0,,4891.022999997018,response,ISIC_0025593.JPG,,ISIC_0063388.JPG,ISIC_0025593.JPG,true,1,keypress(m),500,45173.20000000298,45171.79999999702,40197.447,40216.70000000298,40280.777,45183.414,1,6,1,,ISIC_0063388.JPG
sequence,flow.Sequence,2_0,2023-09-08T18:57:48.084Z,,0,,,4891.022999997018,completion,,,,,true,,,,45175.09999999404,45171.79999999702,40197.447,40216.5,40280.777,45183.414,1,6,,,
trial,html.Screen,2_1_0,2023-09-08T18:57:52.970Z,,0,0,,4877.385999997023,response,ISIC_0028178.JPG,,ISIC_1309015.JPG,ISIC_0028178.JPG,true,1,keypress(m),500,50061.70000000298,50060.79999999702,45166.748,45175.90000000596,45183.414,50083.77,1,6,2,,ISIC_1309015.JPG
sequence,flow.Sequence,2_1,2023-09-08T18:57:52.972Z,,0,,,4877.385999997023,completion,,,,,true,,,,50063.09999999404,50060.79999999702,45166.748,45175.59999999404,45183.414,50083.77,1,6,,,
trial,html.Screen,2_2_0,2023-09-08T18:57:57.177Z,,0,0,,4183.430000002983,response,ISIC_0031128.JPG,,ISIC_3314853.JPG,ISIC_0031128.JPG,true,1,keypress(m),500,54268.09999999404,54267.20000000298,50050.438,50064,50083.77,54284.481,1,6,3,,ISIC_3314853.JPG
sequence,flow.Sequence,2_2,2023-09-08T18:57:57.178Z,,0,,,4183.430000002983,completion,,,,,true,,,,54269.29999999702,54267.20000000298,50050.438,50063.59999999404,50083.77,54284.481,1,6,,,
trial,html.Screen,2_3_0,2023-09-08T18:58:00.967Z,,0,0,,3772.81899999702,response,ISIC_8980141.JPG,,ISIC_0031612.JPG,ISIC_0031612.JPG,true,0,keypress(z),500,58058.20000000298,58057.29999999702,54267.815,54270.20000000298,54284.481,58068.43,1,6,4,,ISIC_8980141.JPG
sequence,flow.Sequence,2_3,2023-09-08T18:58:00.968Z,,0,,,3772.81899999702,completion,,,,,true,,,,58059.70000000298,58057.29999999702,54267.815,54269.90000000596,54284.481,58068.43,1,6,,,
trial,html.Screen,2_4_0,2023-09-08T18:58:05.291Z,,0,0,,4307.169999994039,response,ISIC_1197737.JPG,,ISIC_9721604.JPG,ISIC_1197737.JPG,true,1,keypress(m),500,62376.79999999702,62375.59999999404,58051.764,58060.59999999404,58068.43,62385.211,1,6,5,,ISIC_9721604.JPG
sequence,flow.Sequence,2_4,2023-09-08T18:58:05.292Z,,0,,,4307.169999994039,completion,,,,,true,,,,62378.20000000298,62375.59999999404,58051.764,58060.29999999702,58068.43,62385.211,1,6,,,
trial,html.Screen,2_5_0,2023-09-08T18:58:09.926Z,,0,0,,4626.1890000059575,response,ISIC_0010681.JPG,,ISIC_0025346.JPG,ISIC_0025346.JPG,true,0,keypress(z),500,67012.40000000596,67011.40000000596,62368.545,62379,62385.211,67052.235,1,6,6,,ISIC_0010681.JPG
sequence,flow.Sequence,2_5,2023-09-08T18:58:09.928Z,,0,,,4626.1890000059575,completion,,,,,true,,,,67013.79999999702,67011.40000000596,62368.545,62378.79999999702,62385.211,67052.235,1,6,,,
loop,flow.Loop,2,2023-09-08T18:58:09.929Z,,,,,26730.62300000596,completion,,,,,true,,,,67014.79999999702,67011.40000000596,40197.447,40216.29999999702,40280.777,67052.235,1,6,,,
exp_instructions,html.Screen,3,2023-09-08T18:58:25.559Z,,,,,15588.66500000596,response,,,,,,continue,keypress(Space),,82644.5,82640.90000000596,67002.237,67015.29999999702,67052.235,82685.098,,,,,
trial,html.Screen,4_0_0,2023-09-08T18:58:29.727Z,,0,1,,4127.302000005962,response,ISIC_8438811.JPG,10,ISIC_0064337.JPG,ISIC_0064337.JPG,false,0,keypress(z),500,86813.20000000298,86812.40000000596,82635.1,82645.59999999404,82685.098,86853.988,8,400,1,,ISIC_8438811.JPG
break,html.Screen,4_0_1,2023-09-08T18:58:29.731Z,,0,,,NaN,,,,,,false,,,,86817,86815.90000000596,,86813.90000000596,,86853.988,8,400,,,
break_continue,html.Screen,4_0_2,2023-09-08T18:58:29.733Z,,0,,,NaN,,,,,,false,,,,86819.40000000596,86818.5,,86817.70000000298,,86853.988,8,400,,,
sequence,flow.Sequence,4_0,2023-09-08T18:58:29.734Z,,0,,,4133.402000000002,completion,,,,,false,,,,86820.29999999702,86818.5,82635.1,82645.40000000596,82685.098,86853.988,8,400,,,
trial,html.Screen,4_1_0,2023-09-08T18:58:33.508Z,,0,1,,3738.912000005963,response,ISIC_0059864.JPG,13,ISIC_5837098.JPG,ISIC_5837098.JPG,false,0,keypress(z),500,90593.79999999702,90592.90000000596,86803.99,86820.90000000596,86853.988,90604.382,8,400,2,,ISIC_0059864.JPG
break,html.Screen,4_1_1,2023-09-08T18:58:33.511Z,,0,,,NaN,,,,,,false,,,,90597,90596,,90594.40000000596,,90604.382,8,400,,,
break_continue,html.Screen,4_1_2,2023-09-08T18:58:33.513Z,,0,,,NaN,,,,,,false,,,,90598.70000000298,90598.09999999404,,90597.59999999404,,90604.382,8,400,,,
sequence,flow.Sequence,4_1,2023-09-08T18:58:33.514Z,,0,,,3744.111999994042,completion,,,,,false,,,,90599.59999999404,90598.09999999404,86803.99,86820.70000000298,86853.988,90604.382,8,400,,,
trial,html.Screen,4_2_0,2023-09-08T18:58:40.720Z,,0,1,,7200.818000002982,response,ISIC_3222447.JPG,5,ISIC_9989485.JPG,ISIC_9989485.JPG,false,0,keypress(z),500,97805.90000000596,97805.20000000298,90587.716,90600.09999999404,90604.382,97837.694,8,400,3,,ISIC_3222447.JPG
break,html.Screen,4_2_1,2023-09-08T18:58:40.723Z,,0,,,NaN,,,,,,false,,,,97809,97808.09999999404,,97806.59999999404,,97837.694,8,400,,,
break_continue,html.Screen,4_2_2,2023-09-08T18:58:40.725Z,,0,,,NaN,,,,,,false,,,,97810.59999999404,97810.09999999404,,97809.59999999404,,97837.694,8,400,,,
sequence,flow.Sequence,4_2,2023-09-08T18:58:40.725Z,,0,,,7205.717999994042,completion,,,,,false,,,,97811.5,97810.09999999404,90587.716,90600,90604.382,97837.694,8,400,,,
trial,html.Screen,4_3_0,2023-09-08T18:58:46.755Z,,0,1,,6002.105999997017,response,ISIC_0000036.JPG,10,ISIC_0010024.JPG,ISIC_0000036.JPG,false,1,keypress(m),500,103840.5,103839.79999999702,97804.362,97812,97837.694,103855.191,8,400,4,,ISIC_0010024.JPG
break,html.Screen,4_3_1,2023-09-08T18:58:46.758Z,,0,,,NaN,,,,,,false,,,,103843.90000000596,103842.70000000298,,103841.20000000298,,103855.191,8,400,,,
break_continue,html.Screen,4_3_2,2023-09-08T18:58:46.760Z,,0,,,NaN,,,,,,false,,,,103845.5,103845,,103844.40000000596,,103855.191,8,400,,,
sequence,flow.Sequence,4_3,2023-09-08T18:58:46.760Z,,0,,,6007.305999999997,completion,,,,,false,,,,103846.29999999702,103845,97804.362,97811.79999999702,97837.694,103855.191,8,400,,,
trial,html.Screen,4_4_0,2023-09-08T18:58:50.934Z,,0,1,,4164.009000002974,response,ISIC_0032331.JPG,12,ISIC_0009958.JPG,ISIC_0009958.JPG,false,0,keypress(z),500,108020.09999999404,108019.20000000298,103838.525,103847,103855.191,108039.108,8,400,5,,ISIC_0032331.JPG
break,html.Screen,4_4_1,2023-09-08T18:58:50.938Z,,0,,,NaN,,,,,,false,,,,108024,108023,,108021.20000000298,,108039.108,8,400,,,
break_continue,html.Screen,4_4_2,2023-09-08T18:58:50.940Z,,0,,,NaN,,,,,,false,,,,108025.90000000596,108025.20000000298,,108024.70000000298,,108039.108,8,400,,,
sequence,flow.Sequence,4_4,2023-09-08T18:58:50.941Z,,0,,,4170.009000002974,completion,,,,,false,,,,108027.20000000298,108025.20000000298,103838.525,103846.70000000298,103855.191,108039.108,8,400,,,
trial,html.Screen,4_5_0,2023-09-08T18:58:55.612Z,,0,1,,4658.191999997027,response,ISIC_2598575.JPG,8,ISIC_0027321.JPG,ISIC_2598575.JPG,false,1,keypress(m),500,112698.09999999404,112697.29999999702,108022.442,108028,108039.108,112722.814,8,400,6,,ISIC_0027321.JPG
break,html.Screen,4_5_1,2023-09-08T18:58:55.615Z,,0,,,NaN,,,,,,false,,,,112701.29999999702,112700.5,,112698.79999999702,,112722.814,8,400,,,
break_continue,html.Screen,4_5_2,2023-09-08T18:58:55.617Z,,0,,,NaN,,,,,,false,,,,112703.09999999404,112702.5,,112701.90000000596,,112722.814,8,400,,,
sequence,flow.Sequence,4_5,2023-09-08T18:58:55.618Z,,0,,,4663.392000000007,completion,,,,,false,,,,112704,112702.5,108022.442,108027.70000000298,108039.108,112722.814,8,400,,,
trial,html.Screen,4_6_0,2023-09-08T18:59:01.232Z,,0,1,,5594.386000002982,response,ISIC_0011700.JPG,9,ISIC_1915890.JPG,ISIC_1915890.JPG,false,0,keypress(z),500,118318,118317.20000000298,112689.482,112705.29999999702,112722.814,118340.287,8,400,7,,ISIC_0011700.JPG
break,html.Screen,4_6_1,2023-09-08T18:59:01.235Z,,0,,,NaN,,,,,,false,,,,118321.20000000298,118320.29999999702,,118318.79999999702,,118340.287,8,400,,,
break_continue,html.Screen,4_6_2,2023-09-08T18:59:01.237Z,,0,,,NaN,,,,,,false,,,,118323,118322.40000000596,,118321.90000000596,,118340.287,8,400,,,
sequence,flow.Sequence,4_6,2023-09-08T18:59:01.238Z,,0,,,5599.586000005962,completion,,,,,false,,,,118323.90000000596,118322.40000000596,112689.482,112705,112722.814,118340.287,8,400,,,
trial,html.Screen,4_7_0,2023-09-08T18:59:05.882Z,,0,1,,4627.012999997023,response,ISIC_0057059.JPG,13,ISIC_0011857.JPG,ISIC_0011857.JPG,false,0,keypress(z),500,122968.09999999404,122967.29999999702,118306.955,118325.5,118340.287,122990.35,8,400,8,,ISIC_0057059.JPG
break,html.Screen,4_7_1,2023-09-08T18:59:05.885Z,,0,,,NaN,,,,,,false,,,,122971.20000000298,122970.40000000596,,122968.79999999702,,122990.35,8,400,,,
break_continue,html.Screen,4_7_2,2023-09-08T18:59:05.887Z,,0,,,NaN,,,,,,false,,,,122973,122972.40000000596,,122971.90000000596,,122990.35,8,400,,,
sequence,flow.Sequence,4_7,2023-09-08T18:59:05.888Z,,0,,,4632.113000005964,completion,,,,,false,,,,122973.90000000596,122972.40000000596,118306.955,118325.20000000298,118340.287,122990.35,8,400,,,
trial,html.Screen,4_8_0,2023-09-08T18:59:11.743Z,,0,1,,5837.649999999994,response,ISIC_1685962.JPG,13,ISIC_7144739.JPG,ISIC_1685962.JPG,false,1,keypress(m),500,128828.90000000596,128828,122957.018,122975.59999999404,122990.35,128840.734,8,400,9,,ISIC_7144739.JPG
break,html.Screen,4_8_1,2023-09-08T18:59:11.746Z,,0,,,NaN,,,,,,false,,,,128832.09999999404,128831.20000000298,,128829.59999999404,,128840.734,8,400,,,
break_continue,html.Screen,4_8_2,2023-09-08T18:59:11.748Z,,0,,,NaN,,,,,,false,,,,128834,128833.29999999702,,128832.79999999702,,128840.734,8,400,,,
sequence,flow.Sequence,4_8,2023-09-08T18:59:11.749Z,,0,,,5842.949999997014,completion,,,,,false,,,,128835,128833.29999999702,122957.018,122974.29999999702,122990.35,128840.734,8,400,,,
trial,html.Screen,4_9_0,2023-09-08T18:59:17.378Z,,0,1,,5622.666000005964,response,ISIC_0011051.JPG,10,ISIC_0046670.JPG,ISIC_0011051.JPG,false,1,keypress(m),500,134464.09999999404,134463.40000000596,128824.068,128835.90000000596,128840.734,134474.571,8,400,10,,ISIC_0046670.JPG
break,html.Screen,4_9_1,2023-09-08T18:59:17.381Z,,0,,,NaN,,,,,,false,,,,134467.59999999404,134466.59999999404,,134464.90000000596,,134474.571,8,400,,,
break_continue,html.Screen,4_9_2,2023-09-08T18:59:17.383Z,,0,,,NaN,,,,,,false,,,,134469.29999999702,134468.70000000298,,134468.09999999404,,134474.571,8,400,,,
sequence,flow.Sequence,4_9,2023-09-08T18:59:17.384Z,,0,,,5627.9660000029835,completion,,,,,false,,,,134470.20000000298,134468.70000000298,128824.068,128835.59999999404,128840.734,134474.571,8,400,,,
trial,html.Screen,4_10_0,2023-09-08T18:59:21.292Z,,0,1,,3902.4290000000037,response,ISIC_2508901.JPG,7,ISIC_4312841.JPG,ISIC_2508901.JPG,false,1,keypress(m),500,138377.90000000596,138377,134457.905,134471.20000000298,134474.571,138391.93,8,400,11,,ISIC_4312841.JPG
break,html.Screen,4_10_1,2023-09-08T18:59:21.295Z,,0,,,NaN,,,,,,false,,,,138381,138380.20000000298,,138378.59999999404,,138391.93,8,400,,,
break_continue,html.Screen,4_10_2,2023-09-08T18:59:21.297Z,,0,,,NaN,,,,,,false,,,,138382.79999999702,138382.20000000298,,138381.59999999404,,138391.93,8,400,,,
sequence,flow.Sequence,4_10,2023-09-08T18:59:21.297Z,,0,,,3907.629000002984,completion,,,,,false,,,,138383.59999999404,138382.20000000298,134457.905,134470.79999999702,134474.571,138391.93,8,400,,,
trial,html.Screen,4_11_0,2023-09-08T18:59:32.791Z,,0,1,,11566.622000000003,timeout,ISIC_0009893.JPG,8,ISIC_0066001.JPG,,false,,,500,149877.40000000596,149876.5,138375.264,138384.29999999702,138391.93,149958.552,8,400,12,,
break,html.Screen,4_11_1,2023-09-08T18:59:32.794Z,,0,,,NaN,,,,,,false,,,,149879.70000000298,149879,,149877.90000000596,,149958.552,8,400,,,
break_continue,html.Screen,4_11_2,2023-09-08T18:59:32.795Z,,0,,,NaN,,,,,,false,,,,149881.5,149881,,149880.40000000596,,149958.552,8,400,,,
sequence,flow.Sequence,4_11,2023-09-08T18:59:32.796Z,,0,,,11489.070000000007,completion,,,,,false,,,,149882.40000000596,149881,138375.264,138384.09999999404,138391.93,149958.552,8,400,,,
trial,html.Screen,4_12_0,2023-09-08T18:59:37.689Z,,0,1,,4816.348000005964,response,ISIC_3800541.JPG,13,ISIC_8955135.JPG,ISIC_3800541.JPG,false,1,keypress(m),500,154775.70000000298,154774.90000000596,149908.515,149883.20000000298,149958.552,154793.194,8,400,13,,ISIC_8955135.JPG
break,html.Screen,4_12_1,2023-09-08T18:59:37.693Z,,0,,,NaN,,,,,,false,,,,154778.79999999702,154778,,154776.40000000596,,154793.194,8,400,,,
break_continue,html.Screen,4_12_2,2023-09-08T18:59:37.694Z,,0,,,NaN,,,,,,false,,,,154780.59999999404,154779.90000000596,,154779.40000000596,,154793.194,8,400,,,
sequence,flow.Sequence,4_12,2023-09-08T18:59:37.695Z,,0,,,4821.348000005964,completion,,,,,false,,,,154781.5,154779.90000000596,149908.515,149882.90000000596,149958.552,154793.194,8,400,,,
trial,html.Screen,4_13_0,2023-09-08T18:59:41.452Z,,0,1,,3744.706000005972,response,ISIC_0062364.JPG,8,ISIC_0033416.JPG,ISIC_0062364.JPG,false,1,keypress(m),500,158538.59999999404,158537.90000000596,154776.528,154782.20000000298,154793.194,158560.312,8,400,14,,ISIC_0033416.JPG
break,html.Screen,4_13_1,2023-09-08T18:59:41.456Z,,0,,,NaN,,,,,,false,,,,158541.90000000596,158541.20000000298,,158539.40000000596,,158560.312,8,400,,,
break_continue,html.Screen,4_13_2,2023-09-08T18:59:41.458Z,,0,,,NaN,,,,,,false,,,,158544,158543.40000000596,,158542.79999999702,,158560.312,8,400,,,
sequence,flow.Sequence,4_13,2023-09-08T18:59:41.459Z,,0,,,3750.206000005972,completion,,,,,false,,,,158544.90000000596,158543.40000000596,154776.528,154781.90000000596,154793.194,158560.312,8,400,,,
trial,html.Screen,4_14_0,2023-09-08T18:59:45.908Z,,0,1,,4432.687999999995,response,ISIC_2768787.JPG,10,ISIC_0011546.JPG,ISIC_0011546.JPG,false,0,keypress(z),500,162994.09999999404,162993,158526.98,158546.59999999404,158560.312,163010.669,8,400,15,,ISIC_2768787.JPG
break,html.Screen,4_14_1,2023-09-08T18:59:45.911Z,,0,,,NaN,,,,,,false,,,,162997.5,162996.40000000596,,162994.79999999702,,163010.669,8,400,,,
break_continue,html.Screen,4_14_2,2023-09-08T18:59:45.913Z,,0,,,NaN,,,,,,false,,,,162999.20000000298,162998.5,,162998,,163010.669,8,400,,,
sequence,flow.Sequence,4_14,2023-09-08T18:59:45.914Z,,0,,,4438.187999999995,completion,,,,,false,,,,162999.90000000596,162998.5,158526.98,158546.40000000596,158560.312,163010.669,8,400,,,
trial,html.Screen,4_15_0,2023-09-08T18:59:51.043Z,,0,1,,5118.331000000006,response,ISIC_7984569.JPG,6,ISIC_8020153.JPG,ISIC_8020153.JPG,false,0,keypress(z),500,168129.59999999404,168129,162994.003,163000.70000000298,163010.669,168144.16,8,400,16,,ISIC_7984569.JPG
break,html.Screen,4_15_1,2023-09-08T18:59:51.047Z,,0,,,NaN,,,,,,false,,,,168133,168132.09999999404,,168130.40000000596,,168144.16,8,400,,,
break_continue,html.Screen,4_15_2,2023-09-08T18:59:51.048Z,,0,,,NaN,,,,,,false,,,,168134.59999999404,168134,,168133.5,,168144.16,8,400,,,
sequence,flow.Sequence,4_15,2023-09-08T18:59:51.049Z,,0,,,5123.331000000006,completion,,,,,false,,,,168135.40000000596,168134,162994.003,163000.5,163010.669,168144.16,8,400,,,
trial,html.Screen,4_16_0,2023-09-08T18:59:56.374Z,,0,1,,5315.639999997016,response,ISIC_0055841.JPG,12,ISIC_8423248.JPG,ISIC_8423248.JPG,false,0,keypress(z),500,173460.5,173459.79999999702,168127.494,168136.20000000298,168144.16,173478.127,8,400,17,,ISIC_0055841.JPG
break,html.Screen,4_16_1,2023-09-08T18:59:56.378Z,,0,,,NaN,,,,,,false,,,,173463.70000000298,173462.90000000596,,173461.29999999702,,173478.127,8,400,,,
break_continue,html.Screen,4_16_2,2023-09-08T18:59:56.380Z,,0,,,NaN,,,,,,false,,,,173465.90000000596,173464.90000000596,,173464.40000000596,,173478.127,8,400,,,
sequence,flow.Sequence,4_16,2023-09-08T18:59:56.381Z,,0,,,5320.740000005957,completion,,,,,false,,,,173467.09999999404,173464.90000000596,168127.494,168135.79999999702,168144.16,173478.127,8,400,,,
trial,html.Screen,4_17_0,2023-09-08T19:00:00.778Z,,0,1,,4385.172999997012,response,ISIC_0032901.JPG,13,ISIC_4026808.JPG,ISIC_0032901.JPG,false,1,keypress(m),500,177864.09999999404,177863.29999999702,173461.461,173467.90000000596,173478.127,177878.608,8,400,18,,ISIC_4026808.JPG
break,html.Screen,4_17_1,2023-09-08T19:00:00.781Z,,0,,,NaN,,,,,,false,,,,177867.20000000298,177866.29999999702,,177864.70000000298,,177878.608,8,400,,,
break_continue,html.Screen,4_17_2,2023-09-08T19:00:00.783Z,,0,,,NaN,,,,,,false,,,,177868.79999999702,177868.29999999702,,177867.70000000298,,177878.608,8,400,,,
sequence,flow.Sequence,4_17,2023-09-08T19:00:00.783Z,,0,,,4390.172999997012,completion,,,,,false,,,,177869.59999999404,177868.29999999702,173461.461,173467.79999999702,173478.127,177878.608,8,400,,,
trial,html.Screen,4_18_0,2023-09-08T19:00:05.792Z,,0,1,,4998.991999994032,response,ISIC_6284312.JPG,13,ISIC_8866896.JPG,ISIC_6284312.JPG,false,1,keypress(m),500,182878.29999999702,182877.59999999404,177861.942,177870.40000000596,177878.608,182895.651,8,400,19,,ISIC_8866896.JPG
break,html.Screen,4_18_1,2023-09-08T19:00:05.795Z,,0,,,NaN,,,,,,false,,,,182881.5,182880.70000000298,,182879.09999999404,,182895.651,8,400,,,
break_continue,html.Screen,4_18_2,2023-09-08T19:00:05.797Z,,0,,,NaN,,,,,,false,,,,182883.29999999702,182882.70000000298,,182882.09999999404,,182895.651,8,400,,,
sequence,flow.Sequence,4_18,2023-09-08T19:00:05.798Z,,0,,,5004.092000002973,completion,,,,,false,,,,182884.09999999404,182882.70000000298,177861.942,177870.20000000298,177878.608,182895.651,8,400,,,
trial,html.Screen,4_19_0,2023-09-08T19:00:10.082Z,,0,1,,4271.648999997007,response,ISIC_0027391.JPG,6,ISIC_0026559.JPG,ISIC_0027391.JPG,false,1,keypress(m),500,187168.29999999702,187167.29999999702,182878.985,182884.90000000596,182895.651,187179.214,8,400,20,,ISIC_0026559.JPG
break,html.Screen,4_19_1,2023-09-08T19:00:10.086Z,,0,,,NaN,,,,,,false,,,,187171.59999999404,187170.70000000298,,187169.20000000298,,187179.214,8,400,,,
break_continue,html.Screen,4_19_2,2023-09-08T19:00:10.087Z,,0,,,NaN,,,,,,false,,,,187173.29999999702,187172.70000000298,,187172.20000000298,,187179.214,8,400,,,
sequence,flow.Sequence,4_19,2023-09-08T19:00:10.088Z,,0,,,4277.049000002968,completion,,,,,false,,,,187174.09999999404,187172.70000000298,182878.985,182884.70000000298,182895.651,187179.214,8,400,,,
trial,html.Screen,4_20_0,2023-09-08T19:00:14.322Z,,0,1,,4228.385999994032,response,ISIC_7803163.JPG,12,ISIC_7011122.JPG,ISIC_7011122.JPG,false,0,keypress(z),500,191408.29999999702,191407.59999999404,187162.548,187174.90000000596,187179.214,191429.875,8,400,21,,ISIC_7803163.JPG
break,html.Screen,4_20_1,2023-09-08T19:00:14.326Z,,0,,,NaN,,,,,,false,,,,191412.29999999702,191411.40000000596,,191409.09999999404,,191429.875,8,400,,,
break_continue,html.Screen,4_20_2,2023-09-08T19:00:14.328Z,,0,,,NaN,,,,,,false,,,,191414,191413.40000000596,,191412.90000000596,,191429.875,8,400,,,
sequence,flow.Sequence,4_20,2023-09-08T19:00:14.330Z,,0,,,4234.186000005953,completion,,,,,false,,,,191416.40000000596,191413.40000000596,187162.548,187174.70000000298,187179.214,191429.875,8,400,,,
trial,html.Screen,4_21_0,2023-09-08T19:00:19.147Z,,0,1,,4802.7249999940395,response,ISIC_9613570.JPG,5,ISIC_0061531.JPG,ISIC_0061531.JPG,false,0,keypress(z),500,196233.40000000596,196232.59999999404,191396.543,191417.20000000298,191429.875,196246.848,8,400,22,,ISIC_9613570.JPG
break,html.Screen,4_21_1,2023-09-08T19:00:19.151Z,,0,,,NaN,,,,,,false,,,,196236.59999999404,196235.70000000298,,196234.20000000298,,196246.848,8,400,,,
break_continue,html.Screen,4_21_2,2023-09-08T19:00:19.152Z,,0,,,NaN,,,,,,false,,,,196238.5,196237.79999999702,,196237.20000000298,,196246.848,8,400,,,
sequence,flow.Sequence,4_21,2023-09-08T19:00:19.153Z,,0,,,4807.92499999702,completion,,,,,false,,,,196239.5,196237.79999999702,191396.543,191417,191429.875,196246.848,8,400,,,
trial,html.Screen,4_22_0,2023-09-08T19:00:23.806Z,,0,1,,4644.152000000002,response,ISIC_0072429.JPG,9,ISIC_2664946.JPG,ISIC_2664946.JPG,false,0,keypress(z),500,200891.79999999702,200891,196230.182,196240.20000000298,196246.848,200913.693,8,400,23,,ISIC_0072429.JPG
break,html.Screen,4_22_1,2023-09-08T19:00:23.809Z,,0,,,NaN,,,,,,false,,,,200895.09999999404,200894.20000000298,,200892.59999999404,,200913.693,8,400,,,
break_continue,html.Screen,4_22_2,2023-09-08T19:00:23.811Z,,0,,,NaN,,,,,,false,,,,200896.79999999702,200896.20000000298,,200895.70000000298,,200913.693,8,400,,,
sequence,flow.Sequence,4_22,2023-09-08T19:00:23.812Z,,0,,,4649.352000002982,completion,,,,,false,,,,200897.70000000298,200896.20000000298,196230.182,196240,196246.848,200913.693,8,400,,,
trial,html.Screen,4_23_0,2023-09-08T19:00:28.994Z,,0,1,,5165.307000000001,response,ISIC_0012334.JPG,8,ISIC_0011260.JPG,ISIC_0011260.JPG,false,0,keypress(z),500,206079.90000000596,206079,200880.361,200899.5,200913.693,206097.401,8,400,24,,ISIC_0012334.JPG
break,html.Screen,4_23_1,2023-09-08T19:00:28.997Z,,0,,,NaN,,,,,,false,,,,206083.20000000298,206082.29999999702,,206080.70000000298,,206097.401,8,400,,,
break_continue,html.Screen,4_23_2,2023-09-08T19:00:28.999Z,,0,,,NaN,,,,,,false,,,,206085,206084.29999999702,,206083.79999999702,,206097.401,8,400,,,
sequence,flow.Sequence,4_23,2023-09-08T19:00:29.000Z,,0,,,5170.6069999970205,completion,,,,,false,,,,206085.79999999702,206084.29999999702,200880.361,200899.29999999702,200913.693,206097.401,8,400,,,
trial,html.Screen,4_24_0,2023-09-08T19:00:32.444Z,,0,1,,3431.5989999999874,response,ISIC_0016139.JPG,10,ISIC_0059485.JPG,ISIC_0016139.JPG,false,1,keypress(m),500,209529.79999999702,209529,206080.735,206086.90000000596,206097.401,209548.129,8,400,25,,ISIC_0059485.JPG
break,html.Screen,4_24_1,2023-09-08T19:00:32.448Z,,0,,,NaN,,,,,,false,,,,209533.59999999404,209532.70000000298,,209530.59999999404,,209548.129,8,400,,,
break_continue,html.Screen,4_24_2,2023-09-08T19:00:32.449Z,,0,,,NaN,,,,,,false,,,,209535.29999999702,209534.70000000298,,209534.09999999404,,209548.129,8,400,,,
sequence,flow.Sequence,4_24,2023-09-08T19:00:32.450Z,,0,,,3437.2990000029677,completion,,,,,false,,,,209536.20000000298,209534.70000000298,206080.735,206086.59999999404,206097.401,209548.129,8,400,,,
trial,html.Screen,4_25_0,2023-09-08T19:00:36.432Z,,0,1,,3968.771000005974,response,ISIC_0066506.JPG,18,ISIC_3305153.JPG,ISIC_0066506.JPG,false,1,keypress(m),500,213517.70000000298,213516.90000000596,209531.463,209537.40000000596,209548.129,213548.259,8,400,26,,ISIC_3305153.JPG
break,html.Screen,4_25_1,2023-09-08T19:00:36.435Z,,0,,,NaN,,,,,,false,,,,213520.70000000298,213519.90000000596,,213518.5,,213548.259,8,400,,,
break_continue,html.Screen,4_25_2,2023-09-08T19:00:36.436Z,,0,,,NaN,,,,,,false,,,,213522.5,213521.90000000596,,213521.29999999702,,213548.259,8,400,,,
sequence,flow.Sequence,4_25,2023-09-08T19:00:36.437Z,,0,,,3973.771000005974,completion,,,,,false,,,,213523.40000000596,213521.90000000596,209531.463,209537.20000000298,209548.129,213548.259,8,400,,,
trial,html.Screen,4_26_0,2023-09-08T19:00:40.163Z,,0,1,,3699.8409999940486,response,ISIC_1254469.JPG,5,ISIC_0054377.JPG,ISIC_0054377.JPG,false,0,keypress(z),500,217248.90000000596,217248.09999999404,213514.927,213524.20000000298,213548.259,217265.486,8,400,27,,ISIC_1254469.JPG
break,html.Screen,4_26_1,2023-09-08T19:00:40.167Z,,0,,,NaN,,,,,,false,,,,217252.79999999702,217251.90000000596,,217249.70000000298,,217265.486,8,400,,,
break_continue,html.Screen,4_26_2,2023-09-08T19:00:40.169Z,,0,,,NaN,,,,,,false,,,,217254.70000000298,217254,,217253.5,,217265.486,8,400,,,
sequence,flow.Sequence,4_26,2023-09-08T19:00:40.170Z,,0,,,3705.741000000009,completion,,,,,false,,,,217256.20000000298,217254,213514.927,213523.90000000596,213548.259,217265.486,8,400,,,
trial,html.Screen,4_27_0,2023-09-08T19:00:43.864Z,,0,1,,3683.714000002976,response,ISIC_6606131.JPG,5,ISIC_0033681.JPG,ISIC_0033681.JPG,false,0,keypress(z),500,220949.90000000596,220949.20000000298,217248.82,217257.09999999404,217265.486,220965.801,8,400,28,,ISIC_6606131.JPG
break,html.Screen,4_27_1,2023-09-08T19:00:43.867Z,,0,,,NaN,,,,,,false,,,,220953.09999999404,220952.29999999702,,220950.70000000298,,220965.801,8,400,,,
break_continue,html.Screen,4_27_2,2023-09-08T19:00:43.869Z,,0,,,NaN,,,,,,false,,,,220954.90000000596,220954.20000000298,,220953.70000000298,,220965.801,8,400,,,
sequence,flow.Sequence,4_27,2023-09-08T19:00:43.870Z,,0,,,3688.714000002976,completion,,,,,false,,,,220955.70000000298,220954.20000000298,217248.82,217256.90000000596,217265.486,220965.801,8,400,,,
trial,html.Screen,4_28_0,2023-09-08T19:00:47.402Z,,0,1,,3521.0990000059537,response,ISIC_3775417.JPG,6,ISIC_5390932.JPG,ISIC_5390932.JPG,false,0,keypress(z),500,224487.70000000298,224486.90000000596,220949.135,220956.5,220965.801,224499.257,8,400,29,,ISIC_3775417.JPG
break,html.Screen,4_28_1,2023-09-08T19:00:47.405Z,,0,,,NaN,,,,,,false,,,,224490.70000000298,224489.90000000596,,224488.5,,224499.257,8,400,,,
break_continue,html.Screen,4_28_2,2023-09-08T19:00:47.406Z,,0,,,NaN,,,,,,false,,,,224492.5,224491.90000000596,,224491.29999999702,,224499.257,8,400,,,
sequence,flow.Sequence,4_28,2023-09-08T19:00:47.407Z,,0,,,3526.0990000059537,completion,,,,,false,,,,224493.40000000596,224491.90000000596,220949.135,220956.20000000298,220965.801,224499.257,8,400,,,
trial,html.Screen,4_29_0,2023-09-08T19:00:55.117Z,,0,1,,7702.943000002968,response,ISIC_4765919.JPG,12,ISIC_7618133.JPG,ISIC_4765919.JPG,false,1,keypress(m),500,232203,232202.20000000298,224482.591,224494.09999999404,224499.257,232232.909,8,400,30,,ISIC_7618133.JPG
break,html.Screen,4_29_1,2023-09-08T19:00:55.120Z,,0,,,NaN,,,,,,false,,,,232206.20000000298,232205.29999999702,,232203.79999999702,,232232.909,8,400,,,
break_continue,html.Screen,4_29_2,2023-09-08T19:00:55.122Z,,0,,,NaN,,,,,,false,,,,232207.90000000596,232207.29999999702,,232206.79999999702,,232232.909,8,400,,,
sequence,flow.Sequence,4_29,2023-09-08T19:00:55.123Z,,0,,,7708.042999997007,completion,,,,,false,,,,232208.90000000596,232207.29999999702,224482.591,224493.79999999702,224499.257,232232.909,8,400,,,
trial,html.Screen,4_30_0,2023-09-08T19:01:00.150Z,,0,1,,5002.791000002966,response,ISIC_9390107.JPG,11,ISIC_0032823.JPG,ISIC_9390107.JPG,false,1,keypress(m),500,237236.40000000596,237235.70000000298,232199.577,232209.90000000596,232232.909,237250.427,8,400,31,,ISIC_0032823.JPG
break,html.Screen,4_30_1,2023-09-08T19:01:00.154Z,,0,,,NaN,,,,,,false,,,,237239.70000000298,237238.79999999702,,237237.29999999702,,237250.427,8,400,,,
break_continue,html.Screen,4_30_2,2023-09-08T19:01:00.155Z,,0,,,NaN,,,,,,false,,,,237241.40000000596,237240.90000000596,,237240.29999999702,,237250.427,8,400,,,
sequence,flow.Sequence,4_30,2023-09-08T19:01:00.156Z,,0,,,5007.991000005946,completion,,,,,false,,,,237242.40000000596,237240.90000000596,232199.577,232209.70000000298,232232.909,237250.427,8,400,,,
trial,html.Screen,4_31_0,2023-09-08T19:01:05.507Z,,0,1,,5342.573000000004,response,ISIC_7466175.JPG,11,ISIC_0011315.JPG,ISIC_0011315.JPG,false,0,keypress(z),500,242593.79999999702,242593,237233.761,237243.09999999404,237250.427,242617.498,8,400,32,,ISIC_7466175.JPG
break,html.Screen,4_31_1,2023-09-08T19:01:05.510Z,,0,,,NaN,,,,,,false,,,,242596.90000000596,242596.09999999404,,242594.5,,242617.498,8,400,,,
break_continue,html.Screen,4_31_2,2023-09-08T19:01:05.512Z,,0,,,NaN,,,,,,false,,,,242598.79999999702,242598.09999999404,,242597.59999999404,,242617.498,8,400,,,
sequence,flow.Sequence,4_31,2023-09-08T19:01:05.513Z,,0,,,5347.6729999940435,completion,,,,,false,,,,242599.70000000298,242598.09999999404,237233.761,237243,237250.427,242617.498,8,400,,,
trial,html.Screen,4_32_0,2023-09-08T19:01:10.269Z,,0,1,,4737.202000002988,response,ISIC_0014722.JPG,12,ISIC_0006754.JPG,ISIC_0006754.JPG,false,0,keypress(z),500,247355.40000000596,247354.70000000298,242584.166,242600.90000000596,242617.498,247368.208,8,400,33,,ISIC_0014722.JPG
break,html.Screen,4_32_1,2023-09-08T19:01:10.274Z,,0,,,NaN,,,,,,false,,,,247360.29999999702,247359.5,,247356.29999999702,,247368.208,8,400,,,
break_continue,html.Screen,4_32_2,2023-09-08T19:01:10.276Z,,0,,,NaN,,,,,,false,,,,247362.29999999702,247361.5,,247361,,247368.208,8,400,,,
sequence,flow.Sequence,4_32,2023-09-08T19:01:10.277Z,,0,,,4744.002000000008,completion,,,,,false,,,,247363.29999999702,247361.5,242584.166,242600.59999999404,242617.498,247368.208,8,400,,,
trial,html.Screen,4_33_0,2023-09-08T19:01:15.258Z,,0,1,,4975.891999994026,response,ISIC_1069587.JPG,12,ISIC_6571597.JPG,ISIC_6571597.JPG,false,0,keypress(z),500,252344.79999999702,252344.09999999404,247351.542,247364.09999999404,247368.208,252368.432,8,400,34,,ISIC_1069587.JPG
break,html.Screen,4_33_1,2023-09-08T19:01:15.261Z,,0,,,NaN,,,,,,false,,,,252348,252347.20000000298,,252345.59999999404,,252368.432,8,400,,,
break_continue,html.Screen,4_33_2,2023-09-08T19:01:15.263Z,,0,,,NaN,,,,,,false,,,,252349.79999999702,252349.20000000298,,252348.59999999404,,252368.432,8,400,,,
sequence,flow.Sequence,4_33,2023-09-08T19:01:15.264Z,,0,,,4980.992000002967,completion,,,,,false,,,,252350.70000000298,252349.20000000298,247351.542,247363.79999999702,247368.208,252368.432,8,400,,,
trial,html.Screen,4_34_0,2023-09-08T19:01:20.358Z,,0,1,,5075.167999994039,response,ISIC_0026879.JPG,13,ISIC_5503634.JPG,ISIC_5503634.JPG,false,0,keypress(z),500,257444.5,257443.59999999404,252335.1,252351.70000000298,252368.432,257468.702,8,400,35,,ISIC_0026879.JPG
break,html.Screen,4_34_1,2023-09-08T19:01:20.361Z,,0,,,NaN,,,,,,false,,,,257447.59999999404,257446.79999999702,,257445.20000000298,,257468.702,8,400,,,
break_continue,html.Screen,4_34_2,2023-09-08T19:01:20.363Z,,0,,,NaN,,,,,,false,,,,257449.40000000596,257448.70000000298,,257448.20000000298,,257468.702,8,400,,,
sequence,flow.Sequence,4_34,2023-09-08T19:01:20.364Z,,0,,,5080.2680000029795,completion,,,,,false,,,,257450.20000000298,257448.70000000298,252335.1,252351.20000000298,252368.432,257468.702,8,400,,,
trial,html.Screen,4_35_0,2023-09-08T19:01:26.265Z,,0,1,,5881.99800000299,response,ISIC_0101540.JPG,12,ISIC_2287083.JPG,ISIC_0101540.JPG,false,1,keypress(m),500,263351.40000000596,263350.700000003,257435.37,257451,257468.702,263369.281,8,400,36,,ISIC_2287083.JPG
break,html.Screen,4_35_1,2023-09-08T19:01:26.268Z,,0,,,NaN,,,,,,false,,,,263354.799999997,263353.700000003,,263352.299999997,,263369.281,8,400,,,
break_continue,html.Screen,4_35_2,2023-09-08T19:01:26.270Z,,0,,,NaN,,,,,,false,,,,263356.59999999404,263356,,263355.5,,263369.281,8,400,,,
sequence,flow.Sequence,4_35,2023-09-08T19:01:26.271Z,,0,,,5887.29800000001,completion,,,,,false,,,,263357.5,263356,257435.37,257450.79999999702,257468.702,263369.281,8,400,,,
trial,html.Screen,4_36_0,2023-09-08T19:01:31.605Z,,0,1,,5321.5189999970025,response,ISIC_7489895.JPG,7,ISIC_0015969.JPG,ISIC_7489895.JPG,false,1,keypress(m),500,268691.5,268690.799999997,263352.615,263358.40000000596,263369.281,268703.14,8,400,37,,ISIC_0015969.JPG
break,html.Screen,4_36_1,2023-09-08T19:01:31.608Z,,0,,,NaN,,,,,,false,,,,268694.700000003,268693.90000000596,,268692.299999997,,268703.14,8,400,,,
break_continue,html.Screen,4_36_2,2023-09-08T19:01:31.610Z,,0,,,NaN,,,,,,false,,,,268696.700000003,268696,,268695.299999997,,268703.14,8,400,,,
sequence,flow.Sequence,4_36,2023-09-08T19:01:31.611Z,,0,,,5326.718999999983,completion,,,,,false,,,,268697.5,268696,263352.615,263358.200000003,263369.281,268703.14,8,400,,,
trial,html.Screen,4_37_0,2023-09-08T19:01:35.686Z,,0,1,,4068.659999997006,response,ISIC_0057374.JPG,12,ISIC_5413788.JPG,ISIC_5413788.JPG,false,0,keypress(z),500,272772.59999999404,272771.799999997,268686.474,268698.59999999404,268703.14,272787.035,8,400,38,,ISIC_0057374.JPG
break,html.Screen,4_37_1,2023-09-08T19:01:35.689Z,,0,,,NaN,,,,,,false,,,,272775.90000000596,272775.09999999404,,272773.40000000596,,272787.035,8,400,,,
break_continue,html.Screen,4_37_2,2023-09-08T19:01:35.691Z,,0,,,NaN,,,,,,false,,,,272777.700000003,272777,,272776.5,,272787.035,8,400,,,
sequence,flow.Sequence,4_37,2023-09-08T19:01:35.692Z,,0,,,4073.859999999986,completion,,,,,false,,,,272778.59999999404,272777,268686.474,268698.40000000596,268703.14,272787.035,8,400,,,
trial,html.Screen,4_38_0,2023-09-08T19:01:39.177Z,,0,1,,3476.165000003006,response,ISIC_0055240.JPG,5,ISIC_0029744.JPG,ISIC_0029744.JPG,false,0,keypress(z),500,276263.90000000596,276263.200000003,272770.369,272779.59999999404,272787.035,276287.444,8,400,39,,ISIC_0055240.JPG
break,html.Screen,4_38_1,2023-09-08T19:01:39.181Z,,0,,,NaN,,,,,,false,,,,276267.09999999404,276266.200000003,,276264.700000003,,276287.444,8,400,,,
break_continue,html.Screen,4_38_2,2023-09-08T19:01:39.182Z,,0,,,NaN,,,,,,false,,,,276268.90000000596,276268.200000003,,276267.700000003,,276287.444,8,400,,,
sequence,flow.Sequence,4_38,2023-09-08T19:01:39.183Z,,0,,,3481.165000003006,completion,,,,,false,,,,276269.799999997,276268.200000003,272770.369,272779.200000003,272787.035,276287.444,8,400,,,
trial,html.Screen,4_39_0,2023-09-08T19:01:43.916Z,,0,1,,4713.855999997002,response,ISIC_1380069.JPG,6,ISIC_0025472.JPG,ISIC_1380069.JPG,false,1,keypress(m),500,281002.200000003,281001.299999997,276254.112,276270.700000003,276287.444,281021.026,8,400,40,,ISIC_0025472.JPG
break,html.Screen,4_39_1,2023-09-08T19:01:43.919Z,,0,,,NaN,,,,,,false,,,,281005.90000000596,281005,,281003,,281021.026,8,400,,,
break_continue,html.Screen,4_39_2,2023-09-08T19:01:43.921Z,,0,,,NaN,,,,,,false,,,,281007.700000003,281007.09999999404,,281006.5,,281021.026,8,400,,,
sequence,flow.Sequence,4_39,2023-09-08T19:01:43.922Z,,0,,,4719.655999994022,completion,,,,,false,,,,281008.90000000596,281007.09999999404,276254.112,276270.299999997,276287.444,281021.026,8,400,,,
trial,html.Screen,4_40_0,2023-09-08T19:01:47.614Z,,0,1,,3678.4739999999874,response,ISIC_3288342.JPG,8,ISIC_5498651.JPG,ISIC_3288342.JPG,false,1,keypress(m),500,284700.40000000596,284699.5,281004.36,281009.700000003,281021.026,284721.244,8,400,41,,ISIC_5498651.JPG
break,html.Screen,4_40_1,2023-09-08T19:01:47.617Z,,0,,,NaN,,,,,,false,,,,284703.5,284702.799999997,,284701.09999999404,,284721.244,8,400,,,
break_continue,html.Screen,4_40_2,2023-09-08T19:01:47.619Z,,0,,,NaN,,,,,,false,,,,284705.40000000596,284704.700000003,,284704.200000003,,284721.244,8,400,,,
sequence,flow.Sequence,4_40,2023-09-08T19:01:47.620Z,,0,,,3683.6740000029677,completion,,,,,false,,,,284706.299999997,284704.700000003,281004.36,281009.5,281021.026,284721.244,8,400,,,
trial,html.Screen,4_41_0,2023-09-08T19:01:51.442Z,,0,1,,3806.456000002974,response,ISIC_0030437.JPG,13,ISIC_7292983.JPG,ISIC_0030437.JPG,false,1,keypress(m),500,288528.40000000596,288527.700000003,284687.912,284708.09999999404,284721.244,288538.475,8,400,42,,ISIC_7292983.JPG
break,html.Screen,4_41_1,2023-09-08T19:01:51.445Z,,0,,,NaN,,,,,,false,,,,288531.5,288530.59999999404,,288529.299999997,,288538.475,8,400,,,
break_continue,html.Screen,4_41_2,2023-09-08T19:01:51.447Z,,0,,,NaN,,,,,,false,,,,288533.299999997,288532.700000003,,288532.09999999404,,288538.475,8,400,,,
sequence,flow.Sequence,4_41,2023-09-08T19:01:51.448Z,,0,,,3811.456000002974,completion,,,,,false,,,,288534.299999997,288532.700000003,284687.912,284707.90000000596,284721.244,288538.475,8,400,,,
trial,html.Screen,4_42_0,2023-09-08T19:01:55.109Z,,0,1,,3656.5250000000233,response,ISIC_0032722.JPG,5,ISIC_1104374.JPG,ISIC_1104374.JPG,false,0,keypress(z),500,292195.90000000596,292195,288521.809,288535,288538.475,292205.307,8,400,43,,ISIC_0032722.JPG
break,html.Screen,4_42_1,2023-09-08T19:01:55.113Z,,0,,,NaN,,,,,,false,,,,292199.09999999404,292198.200000003,,292196.700000003,,292205.307,8,400,,,
break_continue,html.Screen,4_42_2,2023-09-08T19:01:55.114Z,,0,,,NaN,,,,,,false,,,,292200.799999997,292200.200000003,,292199.700000003,,292205.307,8,400,,,
sequence,flow.Sequence,4_42,2023-09-08T19:01:55.115Z,,0,,,3661.7250000030035,completion,,,,,false,,,,292201.799999997,292200.200000003,288521.809,288534.799999997,288538.475,292205.307,8,400,,,
trial,html.Screen,4_43_0,2023-09-08T19:01:59.684Z,,0,1,,4564.492999997048,response,ISIC_2680588.JPG,5,ISIC_2707664.JPG,ISIC_2680588.JPG,false,1,keypress(m),500,296770.700000003,296769.799999997,292188.641,292202.5,292205.307,296788.859,8,400,44,,ISIC_2707664.JPG
break,html.Screen,4_43_1,2023-09-08T19:01:59.687Z,,0,,,NaN,,,,,,false,,,,296773.90000000596,296773,,296771.40000000596,,296788.859,8,400,,,
break_continue,html.Screen,4_43_2,2023-09-08T19:01:59.689Z,,0,,,NaN,,,,,,false,,,,296775.59999999404,296775,,296774.5,,296788.859,8,400,,,
sequence,flow.Sequence,4_43,2023-09-08T19:01:59.690Z,,0,,,4569.693000000028,completion,,,,,false,,,,296776.59999999404,296775,292188.641,292202.299999997,292205.307,296788.859,8,400,,,
trial,html.Screen,4_44_0,2023-09-08T19:02:04.498Z,,0,1,,4794.240999994043,response,ISIC_0030747.JPG,13,ISIC_0072553.JPG,ISIC_0030747.JPG,false,1,keypress(m),500,301584.200000003,301583.09999999404,296772.193,296777.5,296788.859,301606.142,8,400,45,,ISIC_0072553.JPG
break,html.Screen,4_44_1,2023-09-08T19:02:04.502Z,,0,,,NaN,,,,,,false,,,,301588.200000003,301587.299999997,,301585,,301606.142,8,400,,,
break_continue,html.Screen,4_44_2,2023-09-08T19:02:04.504Z,,0,,,NaN,,,,,,false,,,,301590.09999999404,301589.299999997,,301588.799999997,,301606.142,8,400,,,
sequence,flow.Sequence,4_44,2023-09-08T19:02:04.506Z,,0,,,4800.440999997023,completion,,,,,false,,,,301592.299999997,301589.299999997,296772.193,296777.299999997,296788.859,301606.142,8,400,,,
trial,html.Screen,4_45_0,2023-09-08T19:02:08.516Z,,0,1,,3994.8580000000075,response,ISIC_0059506.JPG,11,ISIC_0024900.JPG,ISIC_0024900.JPG,false,0,keypress(z),500,305601.799999997,305601,301572.81,301593,301606.142,305623.273,8,400,46,,ISIC_0059506.JPG
break,html.Screen,4_45_1,2023-09-08T19:02:08.519Z,,0,,,NaN,,,,,,false,,,,305605.200000003,305604.40000000596,,305602.59999999404,,305623.273,8,400,,,
break_continue,html.Screen,4_45_2,2023-09-08T19:02:08.521Z,,0,,,NaN,,,,,,false,,,,305607,305606.40000000596,,305605.799999997,,305623.273,8,400,,,
sequence,flow.Sequence,4_45,2023-09-08T19:02:08.522Z,,0,,,4000.258000005968,completion,,,,,false,,,,305607.90000000596,305606.40000000596,301572.81,301592.90000000596,301606.142,305623.273,8,400,,,
trial,html.Screen,4_46_0,2023-09-08T19:02:12.058Z,,0,1,,3519.826999994053,response,ISIC_0063568.JPG,13,ISIC_0058508.JPG,ISIC_0058508.JPG,false,0,keypress(z),500,309144.299999997,309143.09999999404,305589.941,305609.700000003,305623.273,309156.973,8,400,47,,ISIC_0063568.JPG
break,html.Screen,4_46_1,2023-09-08T19:02:12.062Z,,0,,,NaN,,,,,,false,,,,309147.90000000596,309147,,309145.5,,309156.973,8,400,,,
break_continue,html.Screen,4_46_2,2023-09-08T19:02:12.064Z,,0,,,NaN,,,,,,false,,,,309149.700000003,309149.09999999404,,309148.40000000596,,309156.973,8,400,,,
sequence,flow.Sequence,4_46,2023-09-08T19:02:12.065Z,,0,,,3525.826999994053,completion,,,,,false,,,,309150.700000003,309149.09999999404,305589.941,305609.5,305623.273,309156.973,8,400,,,
trial,html.Screen,4_47_0,2023-09-08T19:02:16.258Z,,0,1,,4186.527000000002,response,ISIC_2386961.JPG,13,ISIC_0011648.JPG,ISIC_2386961.JPG,false,1,keypress(m),500,313344.200000003,313343.5,309140.307,309151.700000003,309156.973,313357.044,8,400,48,,ISIC_0011648.JPG
break,html.Screen,4_47_1,2023-09-08T19:02:16.261Z,,0,,,NaN,,,,,,false,,,,313347.299999997,313346.40000000596,,313345,,313357.044,8,400,,,
break_continue,html.Screen,4_47_2,2023-09-08T19:02:16.263Z,,0,,,NaN,,,,,,false,,,,313349,313348.40000000596,,313347.90000000596,,313357.044,8,400,,,
sequence,flow.Sequence,4_47,2023-09-08T19:02:16.264Z,,0,,,4191.427000005962,completion,,,,,false,,,,313349.90000000596,313348.40000000596,309140.307,309151.40000000596,309156.973,313357.044,8,400,,,
trial,html.Screen,4_48_0,2023-09-08T19:02:19.893Z,,0,1,,3620.555999994045,response,ISIC_7296463.JPG,14,ISIC_0000186.JPG,ISIC_7296463.JPG,false,1,keypress(m),500,316978.5,316977.59999999404,313340.378,313350.59999999404,313357.044,316991.017,8,400,49,,ISIC_0000186.JPG
break,html.Screen,4_48_1,2023-09-08T19:02:19.896Z,,0,,,NaN,,,,,,false,,,,316981.59999999404,316980.799999997,,316979.299999997,,316991.017,8,400,,,
break_continue,html.Screen,4_48_2,2023-09-08T19:02:19.898Z,,0,,,NaN,,,,,,false,,,,316983.5,316982.90000000596,,316982.299999997,,316991.017,8,400,,,
sequence,flow.Sequence,4_48,2023-09-08T19:02:19.899Z,,0,,,3625.856000005966,completion,,,,,false,,,,316984.40000000596,316982.90000000596,313340.378,313350.40000000596,313357.044,316991.017,8,400,,,
trial,html.Screen,4_49_0,2023-09-08T19:02:23.170Z,,0,1,,3264.4830000000075,response,ISIC_6019374.JPG,6,ISIC_0013204.JPG,ISIC_0013204.JPG,false,0,keypress(z),500,320256.40000000596,320255.5,316974.351,316985.299999997,316991.017,320274.709,8,400,50,,ISIC_6019374.JPG
break,html.Screen,4_49_1,2023-09-08T19:02:33.179Z,,0,,,10017.697000000044,timeout,,,,,false,,,,330264.700000003,330259.074,320258.043,320257.200000003,320274.709,330292.406,8,400,,,
break_continue,html.Screen,4_49_2,2023-09-08T19:02:36.315Z,,0,,,2977.9940000059432,response,,,,,false,continue,keypress(Space),,333400.59999999404,333270.40000000596,330259.074,330265.200000003,330292.406,333408.767,8,400,,,
sequence,flow.Sequence,4_49,2023-09-08T19:02:36.316Z,,0,,,16279.383000005968,completion,,,,,false,,,,333401.700000003,333270.40000000596,316974.351,316985,316991.017,333408.767,8,400,,,
trial,html.Screen,4_50_0,2023-09-08T19:02:39.792Z,,0,2,,3468.332999994047,response,ISIC_0060153.JPG,12,ISIC_0025195.JPG,ISIC_0025195.JPG,false,0,keypress(z),500,336877.90000000596,336877.09999999404,333392.101,333402.40000000596,333408.767,336909.421,8,400,1,,ISIC_0060153.JPG
break,html.Screen,4_50_1,2023-09-08T19:02:39.795Z,,0,,,NaN,,,,,,false,,,,336881.09999999404,336880.200000003,,336878.700000003,,336909.421,8,400,,,
break_continue,html.Screen,4_50_2,2023-09-08T19:02:39.797Z,,0,,,NaN,,,,,,false,,,,336882.799999997,336882.200000003,,336881.700000003,,336909.421,8,400,,,
sequence,flow.Sequence,4_50,2023-09-08T19:02:39.798Z,,0,,,3473.4330000029877,completion,,,,,false,,,,336883.700000003,336882.200000003,333392.101,333402.200000003,333408.767,336909.421,8,400,,,
trial,html.Screen,4_51_0,2023-09-08T19:02:43.928Z,,0,2,,4103.779000003007,response,ISIC_6652978.JPG,12,ISIC_0010124.JPG,ISIC_0010124.JPG,false,0,keypress(z),500,341014,341013.200000003,336876.089,336884.799999997,336909.421,341043.006,8,400,2,,ISIC_6652978.JPG
break,html.Screen,4_51_1,2023-09-08T19:02:43.931Z,,0,,,NaN,,,,,,false,,,,341017.09999999404,341016.200000003,,341014.700000003,,341043.006,8,400,,,
break_continue,html.Screen,4_51_2,2023-09-08T19:02:43.933Z,,0,,,NaN,,,,,,false,,,,341018.799999997,341018.200000003,,341017.700000003,,341043.006,8,400,,,
sequence,flow.Sequence,4_51,2023-09-08T19:02:43.934Z,,0,,,4108.779000003007,completion,,,,,false,,,,341019.799999997,341018.200000003,336876.089,336884.200000003,336909.421,341043.006,8,400,,,
trial,html.Screen,4_52_0,2023-09-08T19:02:47.916Z,,0,2,,3958.0939999940456,response,ISIC_0591011.JPG,7,ISIC_3413138.JPG,ISIC_0591011.JPG,false,1,keypress(m),500,345001.90000000596,345001.09999999404,341009.674,341020.5,341043.006,345026.743,8,400,3,,ISIC_3413138.JPG
break,html.Screen,4_52_1,2023-09-08T19:02:47.919Z,,0,,,NaN,,,,,,false,,,,345005.299999997,345004,,345002.700000003,,345026.743,8,400,,,
break_continue,html.Screen,4_52_2,2023-09-08T19:02:47.921Z,,0,,,NaN,,,,,,false,,,,345007.09999999404,345006.40000000596,,345005.90000000596,,345026.743,8,400,,,
sequence,flow.Sequence,4_52,2023-09-08T19:02:47.922Z,,0,,,3963.3940000059665,completion,,,,,false,,,,345008,345006.40000000596,341009.674,341020.200000003,341043.006,345026.743,8,400,,,
trial,html.Screen,4_53_0,2023-09-08T19:02:51.200Z,,0,2,,3258.4570000029635,response,ISIC_0059987.JPG,11,ISIC_0033640.JPG,ISIC_0033640.JPG,false,0,keypress(z),500,348286,348285.200000003,344993.411,345009.5,345026.743,348310.446,8,400,4,,ISIC_0059987.JPG
break,html.Screen,4_53_1,2023-09-08T19:02:51.203Z,,0,,,NaN,,,,,,false,,,,348289.09999999404,348288.200000003,,348286.799999997,,348310.446,8,400,,,
break_continue,html.Screen,4_53_2,2023-09-08T19:02:51.205Z,,0,,,NaN,,,,,,false,,,,348290.90000000596,348290.299999997,,348289.700000003,,348310.446,8,400,,,
sequence,flow.Sequence,4_53,2023-09-08T19:02:51.206Z,,0,,,3263.556999997003,completion,,,,,false,,,,348291.90000000596,348290.299999997,344993.411,345009,345026.743,348310.446,8,400,,,
trial,html.Screen,4_54_0,2023-09-08T19:02:54.518Z,,0,2,,3292.454000005964,response,ISIC_0440848.JPG,7,ISIC_5046340.JPG,ISIC_0440848.JPG,false,1,keypress(m),500,351603.700000003,351602.90000000596,348277.114,348293,348310.446,351627.388,8,400,5,,ISIC_5046340.JPG
break,html.Screen,4_54_1,2023-09-08T19:02:54.521Z,,0,,,NaN,,,,,,false,,,,351607.09999999404,351606,,351604.5,,351627.388,8,400,,,
break_continue,html.Screen,4_54_2,2023-09-08T19:02:54.523Z,,0,,,NaN,,,,,,false,,,,351608.90000000596,351608.299999997,,351607.799999997,,351627.388,8,400,,,
sequence,flow.Sequence,4_54,2023-09-08T19:02:54.524Z,,0,,,3297.8539999970235,completion,,,,,false,,,,351609.799999997,351608.299999997,348277.114,348292.59999999404,348310.446,351627.388,8,400,,,
trial,html.Screen,4_55_0,2023-09-08T19:02:59.816Z,,0,2,,5273.411999997043,response,ISIC_0013817.JPG,10,ISIC_0070422.JPG,ISIC_0013817.JPG,false,1,keypress(m),500,356902,356900.799999997,351594.056,351610.700000003,351627.388,356927.578,8,400,6,,ISIC_0070422.JPG
break,html.Screen,4_55_1,2023-09-08T19:02:59.821Z,,0,,,NaN,,,,,,false,,,,356906.40000000596,356905.40000000596,,356903.59999999404,,356927.578,8,400,,,
break_continue,html.Screen,4_55_2,2023-09-08T19:02:59.823Z,,0,,,NaN,,,,,,false,,,,356909.200000003,356908.40000000596,,356907.40000000596,,356927.578,8,400,,,
sequence,flow.Sequence,4_55,2023-09-08T19:02:59.824Z,,0,,,5281.012000005983,completion,,,,,false,,,,356910.200000003,356908.40000000596,351594.056,351610.5,351627.388,356927.578,8,400,,,
trial,html.Screen,4_56_0,2023-09-08T19:03:04.008Z,,0,2,,4165.9220000000205,response,ISIC_8513112.JPG,13,ISIC_3544821.JPG,ISIC_3544821.JPG,false,0,keypress(z),500,361094.299999997,361093.5,356894.246,356910.799999997,356927.578,361111.463,8,400,7,,ISIC_8513112.JPG
break,html.Screen,4_56_1,2023-09-08T19:03:04.011Z,,0,,,NaN,,,,,,false,,,,361097.5,361096.5,,361095,,361111.463,8,400,,,
break_continue,html.Screen,4_56_2,2023-09-08T19:03:04.013Z,,0,,,NaN,,,,,,false,,,,361099.200000003,361098.5,,361098,,361111.463,8,400,,,
sequence,flow.Sequence,4_56,2023-09-08T19:03:04.014Z,,0,,,4170.9220000000205,completion,,,,,false,,,,361100.09999999404,361098.5,356894.246,356910.700000003,356927.578,361111.463,8,400,,,
trial,html.Screen,4_57_0,2023-09-08T19:03:08.625Z,,0,2,,4599.136999994051,response,ISIC_5324623.JPG,12,ISIC_5966190.JPG,ISIC_5966190.JPG,false,0,keypress(z),500,365711.40000000596,365710.59999999404,361094.797,361100.90000000596,361111.463,365728.496,8,400,8,,ISIC_5324623.JPG
break,html.Screen,4_57_1,2023-09-08T19:03:08.628Z,,0,,,NaN,,,,,,false,,,,365714.40000000596,365713.5,,365712.09999999404,,365728.496,8,400,,,
break_continue,html.Screen,4_57_2,2023-09-08T19:03:08.630Z,,0,,,NaN,,,,,,false,,,,365716.200000003,365715.5,,365715,,365728.496,8,400,,,
sequence,flow.Sequence,4_57,2023-09-08T19:03:08.631Z,,0,,,4604.037000000011,completion,,,,,false,,,,365717.09999999404,365715.5,361094.797,361100.5,361111.463,365728.496,8,400,,,
trial,html.Screen,4_58_0,2023-09-08T19:03:13.108Z,,0,2,,4464.303999997035,response,ISIC_8011058.JPG,11,ISIC_7535412.JPG,ISIC_7535412.JPG,false,0,keypress(z),500,370193.59999999404,370192.799999997,365711.83,365717.700000003,365728.496,370212.23,8,400,9,,ISIC_8011058.JPG
break,html.Screen,4_58_1,2023-09-08T19:03:13.111Z,,0,,,NaN,,,,,,false,,,,370197.299999997,370196.40000000596,,370194.40000000596,,370212.23,8,400,,,
break_continue,html.Screen,4_58_2,2023-09-08T19:03:13.113Z,,0,,,NaN,,,,,,false,,,,370199,370198.40000000596,,370197.799999997,,370212.23,8,400,,,
sequence,flow.Sequence,4_58,2023-09-08T19:03:13.114Z,,0,,,4469.904000005976,completion,,,,,false,,,,370199.90000000596,370198.40000000596,365711.83,365717.59999999404,365728.496,370212.23,8,400,,,
trial,html.Screen,4_59_0,2023-09-08T19:03:17.921Z,,0,2,,4793.770000000019,response,ISIC_8789051.JPG,13,ISIC_7260013.JPG,ISIC_7260013.JPG,false,0,keypress(z),500,375006.700000003,375006,370195.564,370200.90000000596,370212.23,375045.966,8,400,10,,ISIC_8789051.JPG
break,html.Screen,4_59_1,2023-09-08T19:03:17.924Z,,0,,,NaN,,,,,,false,,,,375010.299999997,375009,,375007.299999997,,375045.966,8,400,,,
break_continue,html.Screen,4_59_2,2023-09-08T19:03:17.926Z,,0,,,NaN,,,,,,false,,,,375012.299999997,375011.5,,375011.09999999404,,375045.966,8,400,,,
sequence,flow.Sequence,4_59,2023-09-08T19:03:17.952Z,,0,,,4799.270000000019,completion,,,,,false,,,,375037.799999997,375011.5,370195.564,370200.700000003,370212.23,375045.966,8,400,,,
trial,html.Screen,4_60_0,2023-09-08T19:03:23.500Z,,0,2,,5539.633999994025,response,ISIC_7919133.JPG,13,ISIC_1004416.JPG,ISIC_1004416.JPG,false,0,keypress(z),500,380586.40000000596,380585.59999999404,374995.968,375038.5,375045.966,380596.082,8,400,11,,ISIC_7919133.JPG
break,html.Screen,4_60_1,2023-09-08T19:03:23.504Z,,0,,,NaN,,,,,,false,,,,380589.59999999404,380588.799999997,,380587.09999999404,,380596.082,8,400,,,
break_continue,html.Screen,4_60_2,2023-09-08T19:03:23.505Z,,0,,,NaN,,,,,,false,,,,380591.40000000596,380590.799999997,,380590.200000003,,380596.082,8,400,,,
sequence,flow.Sequence,4_60,2023-09-08T19:03:23.506Z,,0,,,5544.833999997005,completion,,,,,false,,,,380592.40000000596,380590.799999997,374995.968,375038.299999997,375045.966,380596.082,8,400,,,
trial,html.Screen,4_61_0,2023-09-08T19:03:28.106Z,,0,2,,4594.818000005966,response,ISIC_1684127.JPG,9,ISIC_0026008.JPG,ISIC_1684127.JPG,false,1,keypress(m),500,385191.799999997,385190.90000000596,380579.416,380593.09999999404,380596.082,385213.488,8,400,12,,ISIC_0026008.JPG
break,html.Screen,4_61_1,2023-09-08T19:03:28.109Z,,0,,,NaN,,,,,,false,,,,385194.90000000596,385194,,385192.59999999404,,385213.488,8,400,,,
break_continue,html.Screen,4_61_2,2023-09-08T19:03:28.111Z,,0,,,NaN,,,,,,false,,,,385196.700000003,385196.09999999404,,385195.5,,385213.488,8,400,,,
sequence,flow.Sequence,4_61,2023-09-08T19:03:28.112Z,,0,,,4600.017999994045,completion,,,,,false,,,,385197.59999999404,385196.09999999404,380579.416,380592.90000000596,380596.082,385213.488,8,400,,,
trial,html.Screen,4_62_0,2023-09-08T19:03:32.414Z,,0,2,,4285.712000002968,response,ISIC_9000234.JPG,11,ISIC_5362869.JPG,ISIC_5362869.JPG,false,0,keypress(z),500,389500.200000003,389499.200000003,385180.156,385199.5,385213.488,389513.921,8,400,13,,ISIC_9000234.JPG
break,html.Screen,4_62_1,2023-09-08T19:03:32.417Z,,0,,,NaN,,,,,,false,,,,389503.40000000596,389502.5,,389501,,389513.921,8,400,,,
break_continue,html.Screen,4_62_2,2023-09-08T19:03:32.419Z,,0,,,NaN,,,,,,false,,,,389505.200000003,389504.5,,389503.90000000596,,389513.921,8,400,,,
sequence,flow.Sequence,4_62,2023-09-08T19:03:32.420Z,,0,,,4291.011999999988,completion,,,,,false,,,,389506.09999999404,389504.5,385180.156,385199.200000003,385213.488,389513.921,8,400,,,
trial,html.Screen,4_63_0,2023-09-08T19:03:37.006Z,,0,2,,4577.4790000059875,response,ISIC_6561111.JPG,7,ISIC_4837536.JPG,ISIC_4837536.JPG,false,0,keypress(z),500,394092.40000000596,394091.40000000596,389497.255,389507,389513.921,394114.332,8,400,14,,ISIC_6561111.JPG
break,html.Screen,4_63_1,2023-09-08T19:03:37.010Z,,0,,,NaN,,,,,,false,,,,394095.799999997,394094.90000000596,,394093.40000000596,,394114.332,8,400,,,
break_continue,html.Screen,4_63_2,2023-09-08T19:03:37.012Z,,0,,,NaN,,,,,,false,,,,394097.59999999404,394097,,394096.40000000596,,394114.332,8,400,,,
sequence,flow.Sequence,4_63,2023-09-08T19:03:37.013Z,,0,,,4583.079000000027,completion,,,,,false,,,,394099.09999999404,394097,389497.255,389506.799999997,389513.921,394114.332,8,400,,,
trial,html.Screen,4_64_0,2023-09-08T19:03:41.508Z,,0,2,,4478.668000000005,response,ISIC_0026352.JPG,6,ISIC_3989526.JPG,ISIC_3989526.JPG,false,0,keypress(z),500,398593.799999997,398593,394081,394100.09999999404,394114.332,398614.704,8,400,15,,ISIC_0026352.JPG
break,html.Screen,4_64_1,2023-09-08T19:03:41.511Z,,0,,,NaN,,,,,,false,,,,398597,398596.200000003,,398594.700000003,,398614.704,8,400,,,
break_continue,html.Screen,4_64_2,2023-09-08T19:03:41.513Z,,0,,,NaN,,,,,,false,,,,398598.700000003,398598.09999999404,,398597.59999999404,,398614.704,8,400,,,
sequence,flow.Sequence,4_64,2023-09-08T19:03:41.514Z,,0,,,4483.767999994045,completion,,,,,false,,,,398599.700000003,398598.09999999404,394081,394099.90000000596,394114.332,398614.704,8,400,,,
trial,html.Screen,4_65_0,2023-09-08T19:03:45.096Z,,0,2,,3566.295999999973,response,ISIC_0010050.JPG,8,ISIC_0031303.JPG,ISIC_0031303.JPG,false,0,keypress(z),500,402181.799999997,402181,398581.372,398601.299999997,398614.704,402198.289,8,400,16,,ISIC_0010050.JPG
break,html.Screen,4_65_1,2023-09-08T19:03:45.099Z,,0,,,NaN,,,,,,false,,,,402185,402184.200000003,,402182.700000003,,402198.289,8,400,,,
break_continue,html.Screen,4_65_2,2023-09-08T19:03:45.101Z,,0,,,NaN,,,,,,false,,,,402186.799999997,402186.09999999404,,402185.59999999404,,402198.289,8,400,,,
sequence,flow.Sequence,4_65,2023-09-08T19:03:45.102Z,,0,,,3571.3959999940125,completion,,,,,false,,,,402187.59999999404,402186.09999999404,398581.372,398600.200000003,398614.704,402198.289,8,400,,,
trial,html.Screen,4_66_0,2023-09-08T19:03:49.350Z,,0,2,,4237.31099999405,response,ISIC_0302804.JPG,6,ISIC_9288923.JPG,ISIC_9288923.JPG,false,0,keypress(z),500,406436.40000000596,406435.59999999404,402181.623,402188.40000000596,402198.289,406448.784,8,400,17,,ISIC_0302804.JPG
break,html.Screen,4_66_1,2023-09-08T19:03:49.353Z,,0,,,NaN,,,,,,false,,,,406439.5,406438.59999999404,,406437.200000003,,406448.784,8,400,,,
break_continue,html.Screen,4_66_2,2023-09-08T19:03:49.355Z,,0,,,NaN,,,,,,false,,,,406441.299999997,406440.59999999404,,406440.09999999404,,406448.784,8,400,,,
sequence,flow.Sequence,4_66,2023-09-08T19:03:49.356Z,,0,,,4242.31099999405,completion,,,,,false,,,,406442.200000003,406440.59999999404,402181.623,402188.200000003,402198.289,406448.784,8,400,,,
trial,html.Screen,4_67_0,2023-09-08T19:03:52.809Z,,0,2,,3445.8159999940544,response,ISIC_3281565.JPG,10,ISIC_0026795.JPG,ISIC_3281565.JPG,false,1,keypress(m),500,409895.5,409894.59999999404,406432.118,406442.90000000596,406448.784,409915.645,8,400,18,,ISIC_0026795.JPG
break,html.Screen,4_67_1,2023-09-08T19:03:52.813Z,,0,,,NaN,,,,,,false,,,,409898.5,409897.700000003,,409896.200000003,,409915.645,8,400,,,
break_continue,html.Screen,4_67_2,2023-09-08T19:03:52.814Z,,0,,,NaN,,,,,,false,,,,409900.40000000596,409899.700000003,,409899.200000003,,409915.645,8,400,,,
sequence,flow.Sequence,4_67,2023-09-08T19:03:52.815Z,,0,,,3450.916000002995,completion,,,,,false,,,,409901.200000003,409899.700000003,406432.118,406442.700000003,406448.784,409915.645,8,400,,,
trial,html.Screen,4_68_0,2023-09-08T19:03:56.486Z,,0,2,,3655.654999997001,response,ISIC_8206667.JPG,13,ISIC_0025546.JPG,ISIC_8206667.JPG,false,1,keypress(m),500,413572.09999999404,413571.299999997,409882.313,409902.5,409915.645,413582.793,8,400,19,,ISIC_0025546.JPG
break,html.Screen,4_68_1,2023-09-08T19:03:56.489Z,,0,,,NaN,,,,,,false,,,,413575.40000000596,413574.5,,413572.799999997,,413582.793,8,400,,,
break_continue,html.Screen,4_68_2,2023-09-08T19:03:56.491Z,,0,,,NaN,,,,,,false,,,,413577.200000003,413576.5,,413576,,413582.793,8,400,,,
sequence,flow.Sequence,4_68,2023-09-08T19:03:56.492Z,,0,,,3660.8549999999814,completion,,,,,false,,,,413578.09999999404,413576.5,409882.313,409901.700000003,409915.645,413582.793,8,400,,,
trial,html.Screen,4_69_0,2023-09-08T19:04:00.552Z,,0,2,,4054.5069999970146,response,ISIC_3460125.JPG,6,ISIC_0028759.JPG,ISIC_3460125.JPG,false,1,keypress(m),500,417638.200000003,417637.299999997,413566.127,413579,413582.793,417649.772,8,400,20,,ISIC_0028759.JPG
break,html.Screen,4_69_1,2023-09-08T19:04:00.556Z,,0,,,NaN,,,,,,false,,,,417642.299999997,417641.299999997,,417639.299999997,,417649.772,8,400,,,
break_continue,html.Screen,4_69_2,2023-09-08T19:04:00.559Z,,0,,,NaN,,,,,,false,,,,417644.59999999404,417643.700000003,,417642.90000000596,,417649.772,8,400,,,
sequence,flow.Sequence,4_69,2023-09-08T19:04:00.560Z,,0,,,4060.907000002975,completion,,,,,false,,,,417646.09999999404,417643.700000003,413566.127,413578.799999997,413582.793,417649.772,8,400,,,
trial,html.Screen,4_70_0,2023-09-08T19:04:05.026Z,,0,2,,4461.827999994042,response,ISIC_6548734.JPG,6,ISIC_3941147.JPG,ISIC_3941147.JPG,false,0,keypress(z),500,422112.40000000596,422111.59999999404,417633.106,417646.799999997,417649.772,422133.489,8,400,21,,ISIC_6548734.JPG
break,html.Screen,4_70_1,2023-09-08T19:04:05.029Z,,0,,,NaN,,,,,,false,,,,422115.59999999404,422114.59999999404,,422113.200000003,,422133.489,8,400,,,
break_continue,html.Screen,4_70_2,2023-09-08T19:04:05.031Z,,0,,,NaN,,,,,,false,,,,422117.299999997,422116.59999999404,,422116.09999999404,,422133.489,8,400,,,
sequence,flow.Sequence,4_70,2023-09-08T19:04:05.032Z,,0,,,4466.827999994042,completion,,,,,false,,,,422118.200000003,422116.59999999404,417633.106,417646.700000003,417649.772,422133.489,8,400,,,
trial,html.Screen,4_71_0,2023-09-08T19:04:08.331Z,,0,2,,3283.110999994038,response,ISIC_8190708.JPG,11,ISIC_0026627.JPG,ISIC_8190708.JPG,false,1,keypress(m),500,425417.5,425416.59999999404,422100.157,422119.90000000596,422133.489,425433.929,8,400,22,,ISIC_0026627.JPG
break,html.Screen,4_71_1,2023-09-08T19:04:08.334Z,,0,,,NaN,,,,,,false,,,,425420.5,425419.59999999404,,425418.200000003,,425433.929,8,400,,,
break_continue,html.Screen,4_71_2,2023-09-08T19:04:08.336Z,,0,,,NaN,,,,,,false,,,,425422.200000003,425421.59999999404,,425421.09999999404,,425433.929,8,400,,,
sequence,flow.Sequence,4_71,2023-09-08T19:04:08.337Z,,0,,,3288.110999994038,completion,,,,,false,,,,425423.09999999404,425421.59999999404,422100.157,422118.700000003,422133.489,425433.929,8,400,,,
trial,html.Screen,4_72_0,2023-09-08T19:04:14.254Z,,0,2,,5905.370999997016,response,ISIC_0565743.JPG,13,ISIC_0015950.JPG,ISIC_0015950.JPG,false,0,keypress(z),500,431340.09999999404,431339.299999997,425417.263,425423.700000003,425433.929,431367.202,8,400,23,,ISIC_0565743.JPG
break,html.Screen,4_72_1,2023-09-08T19:04:14.257Z,,0,,,NaN,,,,,,false,,,,431343.40000000596,431342.59999999404,,431340.90000000596,,431367.202,8,400,,,
break_continue,html.Screen,4_72_2,2023-09-08T19:04:14.259Z,,0,,,NaN,,,,,,false,,,,431345.5,431344.799999997,,431344.299999997,,431367.202,8,400,,,
sequence,flow.Sequence,4_72,2023-09-08T19:04:14.261Z,,0,,,5910.870999997016,completion,,,,,false,,,,431346.40000000596,431344.799999997,425417.263,425423.59999999404,425433.929,431367.202,8,400,,,
trial,html.Screen,4_73_0,2023-09-08T19:04:18.770Z,,0,2,,4488.49800000299,response,ISIC_3193774.JPG,13,ISIC_8781751.JPG,ISIC_8781751.JPG,false,0,keypress(z),500,435856.59999999404,435855.700000003,431333.87,431347.59999999404,431367.202,435868.271,8,400,24,,ISIC_3193774.JPG
break,html.Screen,4_73_1,2023-09-08T19:04:18.774Z,,0,,,NaN,,,,,,false,,,,435859.700000003,435858.5,,435857.200000003,,435868.271,8,400,,,
break_continue,html.Screen,4_73_2,2023-09-08T19:04:18.775Z,,0,,,NaN,,,,,,false,,,,435861.5,435860.799999997,,435860.299999997,,435868.271,8,400,,,
sequence,flow.Sequence,4_73,2023-09-08T19:04:18.776Z,,0,,,4493.59799999703,completion,,,,,false,,,,435862.40000000596,435860.799999997,431333.87,431347.5,431367.202,435868.271,8,400,,,
trial,html.Screen,4_74_0,2023-09-08T19:04:22.770Z,,0,2,,3987.4290000029723,response,ISIC_6108795.JPG,7,ISIC_0060508.JPG,ISIC_0060508.JPG,false,0,keypress(z),500,439856.5,439855.700000003,435851.605,435863.200000003,435868.271,439868.288,8,400,25,,ISIC_6108795.JPG
break,html.Screen,4_74_1,2023-09-08T19:04:22.773Z,,0,,,NaN,,,,,,false,,,,439859.5,439858.5,,439857.299999997,,439868.288,8,400,,,
break_continue,html.Screen,4_74_2,2023-09-08T19:04:22.775Z,,0,,,NaN,,,,,,false,,,,439861.200000003,439860.5,,439860.09999999404,,439868.288,8,400,,,
sequence,flow.Sequence,4_74,2023-09-08T19:04:22.776Z,,0,,,3992.228999999992,completion,,,,,false,,,,439862.200000003,439860.5,435851.605,435863,435868.271,439868.288,8,400,,,
trial,html.Screen,4_75_0,2023-09-08T19:04:27.600Z,,0,2,,4817.11200000596,response,ISIC_9716860.JPG,5,ISIC_1658623.JPG,ISIC_1658623.JPG,false,0,keypress(z),500,444686.200000003,444685.40000000596,439851.622,439862.90000000596,439868.288,444702.01,8,400,26,,ISIC_9716860.JPG
break,html.Screen,4_75_1,2023-09-08T19:04:27.603Z,,0,,,NaN,,,,,,false,,,,444689.200000003,444688.299999997,,444687,,444702.01,8,400,,,
break_continue,html.Screen,4_75_2,2023-09-08T19:04:27.605Z,,0,,,NaN,,,,,,false,,,,444691,444690.299999997,,444689.799999997,,444702.01,8,400,,,
sequence,flow.Sequence,4_75,2023-09-08T19:04:27.606Z,,0,,,4822.011999997019,completion,,,,,false,,,,444691.90000000596,444690.299999997,439851.622,439862.700000003,439868.288,444702.01,8,400,,,
trial,html.Screen,4_76_0,2023-09-08T19:04:31.732Z,,0,2,,4115.390000005951,response,ISIC_3432650.JPG,5,ISIC_0356611.JPG,ISIC_0356611.JPG,false,0,keypress(z),500,448818.200000003,448817.40000000596,444685.344,444692.700000003,444702.01,448835.587,8,400,27,,ISIC_3432650.JPG
break,html.Screen,4_76_1,2023-09-08T19:04:31.735Z,,0,,,NaN,,,,,,false,,,,448821.200000003,448820.299999997,,448819,,448835.587,8,400,,,
break_continue,html.Screen,4_76_2,2023-09-08T19:04:31.737Z,,0,,,NaN,,,,,,false,,,,448822.90000000596,448822.299999997,,448821.799999997,,448835.587,8,400,,,
sequence,flow.Sequence,4_76,2023-09-08T19:04:31.738Z,,0,,,4120.28999999701,completion,,,,,false,,,,448823.90000000596,448822.299999997,444685.344,444692.40000000596,444702.01,448835.587,8,400,,,
trial,html.Screen,4_77_0,2023-09-08T19:04:36.231Z,,0,2,,4480.313000005961,response,ISIC_9788174.JPG,12,ISIC_9879347.JPG,ISIC_9879347.JPG,false,0,keypress(z),500,453316.799999997,453315.90000000596,448818.921,448824.59999999404,448835.587,453336.203,8,400,28,,ISIC_9788174.JPG
break,html.Screen,4_77_1,2023-09-08T19:04:36.238Z,,0,,,NaN,,,,,,false,,,,453324.200000003,453319.09999999404,,453317.5,,453336.203,8,400,,,
break_continue,html.Screen,4_77_2,2023-09-08T19:04:36.240Z,,0,,,NaN,,,,,,false,,,,453326.09999999404,453325.40000000596,,453324.90000000596,,453336.203,8,400,,,
sequence,flow.Sequence,4_77,2023-09-08T19:04:36.241Z,,0,,,4489.813000005961,completion,,,,,false,,,,453326.90000000596,453325.40000000596,448818.921,448824.299999997,448835.587,453336.203,8,400,,,
trial,html.Screen,4_78_0,2023-09-08T19:04:40.666Z,,0,2,,4414.697000005981,response,ISIC_0060153.JPG,13,ISIC_1300967.JPG,ISIC_1300967.JPG,false,0,keypress(z),500,457751.700000003,457750.90000000596,453302.871,453327.59999999404,453336.203,457769.967,8,400,29,,ISIC_0060153.JPG
break,html.Screen,4_78_1,2023-09-08T19:04:40.669Z,,0,,,NaN,,,,,,false,,,,457754.700000003,457753.799999997,,457752.40000000596,,457769.967,8,400,,,
break_continue,html.Screen,4_78_2,2023-09-08T19:04:40.670Z,,0,,,NaN,,,,,,false,,,,457756.5,457755.799999997,,457755.299999997,,457769.967,8,400,,,
sequence,flow.Sequence,4_78,2023-09-08T19:04:40.671Z,,0,,,4419.59699999704,completion,,,,,false,,,,457757.40000000596,457755.799999997,453302.871,453327.40000000596,453336.203,457769.967,8,400,,,
trial,html.Screen,4_79_0,2023-09-08T19:04:46.092Z,,0,2,,5407.233000002976,response,ISIC_0008768.JPG,13,ISIC_0034046.JPG,ISIC_0008768.JPG,false,1,keypress(m),500,463178.09999999404,463177.200000003,457753.301,457758.09999999404,457769.967,463186.935,8,400,30,,ISIC_0034046.JPG
break,html.Screen,4_79_1,2023-09-08T19:04:46.095Z,,0,,,NaN,,,,,,false,,,,463181.200000003,463180.40000000596,,463178.90000000596,,463186.935,8,400,,,
break_continue,html.Screen,4_79_2,2023-09-08T19:04:46.097Z,,0,,,NaN,,,,,,false,,,,463183,463182.299999997,,463181.799999997,,463186.935,8,400,,,
sequence,flow.Sequence,4_79,2023-09-08T19:04:46.098Z,,0,,,5412.332999997016,completion,,,,,false,,,,463183.90000000596,463182.299999997,457753.301,457757.90000000596,457769.967,463186.935,8,400,,,
trial,html.Screen,4_80_0,2023-09-08T19:04:49.876Z,,0,2,,3774.364999997022,response,ISIC_0026266.JPG,13,ISIC_5904116.JPG,ISIC_5904116.JPG,false,0,keypress(z),500,466962.09999999404,466961.299999997,463170.269,463184.59999999404,463186.935,466987.47,8,400,31,,ISIC_0026266.JPG
break,html.Screen,4_80_1,2023-09-08T19:04:49.880Z,,0,,,NaN,,,,,,false,,,,466966.299999997,466965.299999997,,466963,,466987.47,8,400,,,
break_continue,html.Screen,4_80_2,2023-09-08T19:04:49.882Z,,0,,,NaN,,,,,,false,,,,466968.200000003,466967.40000000596,,466966.90000000596,,466987.47,8,400,,,
sequence,flow.Sequence,4_80,2023-09-08T19:04:49.883Z,,0,,,3780.465000005963,completion,,,,,false,,,,466969.200000003,466967.40000000596,463170.269,463184.5,463186.935,466987.47,8,400,,,
trial,html.Screen,4_81_0,2023-09-08T19:04:53.368Z,,0,2,,3465.1299999940675,response,ISIC_3608788.JPG,12,ISIC_0031972.JPG,ISIC_0031972.JPG,false,0,keypress(z),500,470453.90000000596,470452.59999999404,466954.138,466969.90000000596,466987.47,470471.18,8,400,32,,ISIC_3608788.JPG
break,html.Screen,4_81_1,2023-09-08T19:04:53.372Z,,0,,,NaN,,,,,,false,,,,470458.09999999404,470457.200000003,,470454.799999997,,470471.18,8,400,,,
break_continue,html.Screen,4_81_2,2023-09-08T19:04:53.374Z,,0,,,NaN,,,,,,false,,,,470460.299999997,470459.299999997,,470458.799999997,,470471.18,8,400,,,
sequence,flow.Sequence,4_81,2023-09-08T19:04:53.375Z,,0,,,3471.8299999970477,completion,,,,,false,,,,470461.40000000596,470459.299999997,466954.138,466969.700000003,466987.47,470471.18,8,400,,,
trial,html.Screen,4_82_0,2023-09-08T19:04:56.869Z,,0,2,,3483.4199999940465,response,ISIC_0014088.JPG,9,ISIC_0025153.JPG,ISIC_0025153.JPG,false,0,keypress(z),500,473955.40000000596,473954.59999999404,470454.514,470462.299999997,470471.18,473971.305,8,400,33,,ISIC_0014088.JPG
break,html.Screen,4_82_1,2023-09-08T19:04:56.873Z,,0,,,NaN,,,,,,false,,,,473958.700000003,473957.799999997,,473956.200000003,,473971.305,8,400,,,
break_continue,html.Screen,4_82_2,2023-09-08T19:04:56.874Z,,0,,,NaN,,,,,,false,,,,473960.5,473959.799999997,,473959.299999997,,473971.305,8,400,,,
sequence,flow.Sequence,4_82,2023-09-08T19:04:56.875Z,,0,,,3488.6199999970268,completion,,,,,false,,,,473961.40000000596,473959.799999997,470454.514,470462.09999999404,470471.18,473971.305,8,400,,,
trial,html.Screen,4_83_0,2023-09-08T19:05:01.378Z,,0,2,,4492.395000002987,response,ISIC_7831274.JPG,8,ISIC_0069933.JPG,ISIC_7831274.JPG,false,1,keypress(m),500,478464.59999999404,478463.700000003,473954.639,473962.09999999404,473971.305,478488.703,8,400,34,,ISIC_0069933.JPG
break,html.Screen,4_83_1,2023-09-08T19:05:01.382Z,,0,,,NaN,,,,,,false,,,,478468,478466.799999997,,478465.299999997,,478488.703,8,400,,,
break_continue,html.Screen,4_83_2,2023-09-08T19:05:01.384Z,,0,,,NaN,,,,,,false,,,,478469.799999997,478469.09999999404,,478468.59999999404,,478488.703,8,400,,,
sequence,flow.Sequence,4_83,2023-09-08T19:05:01.385Z,,0,,,4497.7949999940465,completion,,,,,false,,,,478470.799999997,478469.09999999404,473954.639,473962,473971.305,478488.703,8,400,,,
trial,html.Screen,4_84_0,2023-09-08T19:05:05.590Z,,0,2,,4186.497000003001,response,ISIC_0904712.JPG,13,ISIC_0032098.JPG,ISIC_0904712.JPG,false,1,keypress(m),500,482676,482675.200000003,478455.371,478471.59999999404,478488.703,482688.832,8,400,35,,ISIC_0032098.JPG
break,html.Screen,4_84_1,2023-09-08T19:05:05.593Z,,0,,,NaN,,,,,,false,,,,482679.200000003,482678.299999997,,482676.799999997,,482688.832,8,400,,,
break_continue,html.Screen,4_84_2,2023-09-08T19:05:05.595Z,,0,,,NaN,,,,,,false,,,,482681,482680.299999997,,482679.799999997,,482688.832,8,400,,,
sequence,flow.Sequence,4_84,2023-09-08T19:05:05.596Z,,0,,,4191.59699999704,completion,,,,,false,,,,482681.90000000596,482680.299999997,478455.371,478471.5,478488.703,482688.832,8,400,,,
trial,html.Screen,4_85_0,2023-09-08T19:05:09.993Z,,0,2,,4389.267999994045,response,ISIC_0028512.JPG,8,ISIC_0150363.JPG,ISIC_0150363.JPG,false,0,keypress(z),500,487078.90000000596,487078.09999999404,482672.166,482682.700000003,482688.832,487089.23,8,400,36,,ISIC_0028512.JPG
break,html.Screen,4_85_1,2023-09-08T19:05:09.996Z,,0,,,NaN,,,,,,false,,,,487082.09999999404,487081.200000003,,487079.700000003,,487089.23,8,400,,,
break_continue,html.Screen,4_85_2,2023-09-08T19:05:09.998Z,,0,,,NaN,,,,,,false,,,,487084,487083.299999997,,487082.700000003,,487089.23,8,400,,,
sequence,flow.Sequence,4_85,2023-09-08T19:05:09.999Z,,0,,,4394.467999997025,completion,,,,,false,,,,487084.90000000596,487083.299999997,482672.166,482682.40000000596,482688.832,487089.23,8,400,,,
trial,html.Screen,4_86_0,2023-09-08T19:05:13.916Z,,0,2,,3912.170000005979,response,ISIC_0061915.JPG,13,ISIC_0012369.JPG,ISIC_0012369.JPG,false,0,keypress(z),500,491002.299999997,491001.40000000596,487072.564,487085.90000000596,487089.23,491022.954,8,400,37,,ISIC_0061915.JPG
break,html.Screen,4_86_1,2023-09-08T19:05:13.920Z,,0,,,NaN,,,,,,false,,,,491005.5,491004.59999999404,,491003.09999999404,,491022.954,8,400,,,
break_continue,html.Screen,4_86_2,2023-09-08T19:05:13.921Z,,0,,,NaN,,,,,,false,,,,491007.299999997,491006.59999999404,,491006.09999999404,,491022.954,8,400,,,
sequence,flow.Sequence,4_86,2023-09-08T19:05:13.922Z,,0,,,3917.369999994058,completion,,,,,false,,,,491008.299999997,491006.59999999404,487072.564,487085.700000003,487089.23,491022.954,8,400,,,
trial,html.Screen,4_87_0,2023-09-08T19:05:18.272Z,,0,2,,4334.746000002953,response,ISIC_8127578.JPG,9,ISIC_1348843.JPG,ISIC_8127578.JPG,false,1,keypress(m),500,495358.5,495357.700000003,490989.622,491009.799999997,491022.954,495373.321,8,400,38,,ISIC_1348843.JPG
break,html.Screen,4_87_1,2023-09-08T19:05:18.276Z,,0,,,NaN,,,,,,false,,,,495361.700000003,495360.799999997,,495359.200000003,,495373.321,8,400,,,
break_continue,html.Screen,4_87_2,2023-09-08T19:05:18.278Z,,0,,,NaN,,,,,,false,,,,495363.5,495362.799999997,,495362.299999997,,495373.321,8,400,,,
sequence,flow.Sequence,4_87,2023-09-08T19:05:18.278Z,,0,,,4339.845999996993,completion,,,,,false,,,,495364.5,495362.799999997,490989.622,491009.5,491022.954,495373.321,8,400,,,
trial,html.Screen,4_88_0,2023-09-08T19:05:20.610Z,,0,2,,2321.6790000000037,response,ISIC_1860707.JPG,11,ISIC_0010810.JPG,ISIC_1860707.JPG,false,1,keypress(m),500,497695.799999997,497695,495356.655,495365.5,495373.321,497706.827,8,400,39,,ISIC_0010810.JPG
break,html.Screen,4_88_1,2023-09-08T19:05:20.613Z,,0,,,NaN,,,,,,false,,,,497698.90000000596,497698.09999999404,,497696.59999999404,,497706.827,8,400,,,
break_continue,html.Screen,4_88_2,2023-09-08T19:05:20.615Z,,0,,,NaN,,,,,,false,,,,497700.700000003,497700,,497699.5,,497706.827,8,400,,,
sequence,flow.Sequence,4_88,2023-09-08T19:05:20.616Z,,0,,,2326.6790000000037,completion,,,,,false,,,,497701.799999997,497700,495356.655,495365.299999997,495373.321,497706.827,8,400,,,
trial,html.Screen,4_89_0,2023-09-08T19:05:24.286Z,,0,2,,3664.17300000001,response,ISIC_9412963.JPG,6,ISIC_7368239.JPG,ISIC_7368239.JPG,false,0,keypress(z),500,501371.799999997,501371,497690.161,497702.799999997,497706.827,501390.546,8,400,40,,ISIC_9412963.JPG
break,html.Screen,4_89_1,2023-09-08T19:05:24.289Z,,0,,,NaN,,,,,,false,,,,501375.5,501374.5,,501372.59999999404,,501390.546,8,400,,,
break_continue,html.Screen,4_89_2,2023-09-08T19:05:24.291Z,,0,,,NaN,,,,,,false,,,,501377.299999997,501376.59999999404,,501376,,501390.546,8,400,,,
sequence,flow.Sequence,4_89,2023-09-08T19:05:24.293Z,,0,,,3669.7729999940493,completion,,,,,false,,,,501378.5,501376.59999999404,497690.161,497702.40000000596,497706.827,501390.546,8,400,,,
trial,html.Screen,4_90_0,2023-09-08T19:05:28.114Z,,0,2,,3808.753999997047,response,ISIC_3256116.JPG,13,ISIC_2558816.JPG,ISIC_3256116.JPG,false,1,keypress(m),500,505200.09999999404,505199.299999997,501373.88,501379.299999997,501390.546,505224.221,8,400,41,,ISIC_2558816.JPG
break,html.Screen,4_90_1,2023-09-08T19:05:28.118Z,,0,,,NaN,,,,,,false,,,,505203.5,505202.5,,505200.90000000596,,505224.221,8,400,,,
break_continue,html.Screen,4_90_2,2023-09-08T19:05:28.119Z,,0,,,NaN,,,,,,false,,,,505205.40000000596,505204.700000003,,505204.200000003,,505224.221,8,400,,,
sequence,flow.Sequence,4_90,2023-09-08T19:05:28.120Z,,0,,,3814.1540000030072,completion,,,,,false,,,,505206.299999997,505204.700000003,501373.88,501379,501390.546,505224.221,8,400,,,
trial,html.Screen,4_91_0,2023-09-08T19:05:31.431Z,,0,2,,3291.679000005941,response,ISIC_4678416.JPG,13,ISIC_0813423.JPG,ISIC_4678416.JPG,false,1,keypress(m),500,508516.799999997,508515.90000000596,505190.889,505207.40000000596,505224.221,508541.241,8,400,42,,ISIC_0813423.JPG
break,html.Screen,4_91_1,2023-09-08T19:05:31.434Z,,0,,,NaN,,,,,,false,,,,508519.90000000596,508519.09999999404,,508517.5,,508541.241,8,400,,,
break_continue,html.Screen,4_91_2,2023-09-08T19:05:31.436Z,,0,,,NaN,,,,,,false,,,,508521.700000003,508521,,508520.5,,508541.241,8,400,,,
sequence,flow.Sequence,4_91,2023-09-08T19:05:31.437Z,,0,,,3296.7789999999804,completion,,,,,false,,,,508522.799999997,508521,505190.889,505207.200000003,505224.221,508541.241,8,400,,,
trial,html.Screen,4_92_0,2023-09-08T19:05:36.391Z,,0,2,,4934.55899999704,response,ISIC_5122042.JPG,5,ISIC_0011510.JPG,ISIC_5122042.JPG,false,1,keypress(m),500,513476.59999999404,513475.799999997,508507.909,508523.59999999404,508541.241,513491.472,8,400,43,,ISIC_0011510.JPG
break,html.Screen,4_92_1,2023-09-08T19:05:36.394Z,,0,,,NaN,,,,,,false,,,,513479.90000000596,513478.90000000596,,513477.40000000596,,513491.472,8,400,,,
break_continue,html.Screen,4_92_2,2023-09-08T19:05:36.396Z,,0,,,NaN,,,,,,false,,,,513481.700000003,513481,,513480.5,,513491.472,8,400,,,
sequence,flow.Sequence,4_92,2023-09-08T19:05:36.397Z,,0,,,4939.75900000002,completion,,,,,false,,,,513482.700000003,513481,508507.909,508523.40000000596,508541.241,513491.472,8,400,,,
trial,html.Screen,4_93_0,2023-09-08T19:05:40.457Z,,0,2,,4051.2280000029714,response,ISIC_0056155.JPG,9,ISIC_0490714.JPG,ISIC_0490714.JPG,false,0,keypress(z),500,517543.5,517542.700000003,513474.806,513483.40000000596,513491.472,517558.624,8,400,44,,ISIC_0056155.JPG
break,html.Screen,4_93_1,2023-09-08T19:05:40.461Z,,0,,,NaN,,,,,,false,,,,517546.59999999404,517545.799999997,,517544.200000003,,517558.624,8,400,,,
break_continue,html.Screen,4_93_2,2023-09-08T19:05:40.462Z,,0,,,NaN,,,,,,false,,,,517548.40000000596,517547.59999999404,,517547.200000003,,517558.624,8,400,,,
sequence,flow.Sequence,4_93,2023-09-08T19:05:40.463Z,,0,,,4056.1279999940307,completion,,,,,false,,,,517549.200000003,517547.59999999404,513474.806,513483.200000003,513491.472,517558.624,8,400,,,
trial,html.Screen,4_94_0,2023-09-08T19:05:44.701Z,,0,2,,4227.77600000595,response,ISIC_0026155.JPG,12,ISIC_9206499.JPG,ISIC_0026155.JPG,false,1,keypress(m),500,521787.200000003,521786.40000000596,517541.958,517549.799999997,517558.624,521808.981,8,400,45,,ISIC_9206499.JPG
break,html.Screen,4_94_1,2023-09-08T19:05:44.704Z,,0,,,NaN,,,,,,false,,,,521790.299999997,521789.5,,521787.90000000596,,521808.981,8,400,,,
break_continue,html.Screen,4_94_2,2023-09-08T19:05:44.706Z,,0,,,NaN,,,,,,false,,,,521792.09999999404,521791.5,,521790.90000000596,,521808.981,8,400,,,
sequence,flow.Sequence,4_94,2023-09-08T19:05:44.707Z,,0,,,4232.875999999989,completion,,,,,false,,,,521792.90000000596,521791.5,517541.958,517549.700000003,517558.624,521808.981,8,400,,,
trial,html.Screen,4_95_0,2023-09-08T19:05:48.641Z,,0,2,,3916.7190000029514,response,ISIC_0010810.JPG,7,ISIC_8752021.JPG,ISIC_8752021.JPG,false,0,keypress(z),500,525726.5,525725.700000003,521775.649,521793.5,521808.981,525742.696,8,400,46,,ISIC_0010810.JPG
break,html.Screen,4_95_1,2023-09-08T19:05:48.644Z,,0,,,NaN,,,,,,false,,,,525729.599999994,525728.700000003,,525727.200000003,,525742.696,8,400,,,
break_continue,html.Screen,4_95_2,2023-09-08T19:05:48.645Z,,0,,,NaN,,,,,,false,,,,525731.299999997,525730.700000003,,525730.200000003,,525742.696,8,400,,,
sequence,flow.Sequence,4_95,2023-09-08T19:05:48.646Z,,0,,,3921.7190000029514,completion,,,,,false,,,,525732.099999994,525730.700000003,521775.649,521793.40000000596,521808.981,525742.696,8,400,,,
trial,html.Screen,4_96_0,2023-09-08T19:05:53.505Z,,0,2,,4847.1039999970235,response,ISIC_5484086.JPG,12,ISIC_7662910.JPG,ISIC_5484086.JPG,false,1,keypress(m),500,530590.599999994,530589.799999997,525726.03,525732.900000006,525742.696,530609.693,8,400,47,,ISIC_7662910.JPG
break,html.Screen,4_96_1,2023-09-08T19:05:53.508Z,,0,,,NaN,,,,,,false,,,,530593.799999997,530593,,530591.400000006,,530609.693,8,400,,,
break_continue,html.Screen,4_96_2,2023-09-08T19:05:53.509Z,,0,,,NaN,,,,,,false,,,,530595.5,530594.799999997,,530594.299999997,,530609.693,8,400,,,
sequence,flow.Sequence,4_96,2023-09-08T19:05:53.510Z,,0,,,4852.1039999970235,completion,,,,,false,,,,530596.299999997,530594.799999997,525726.03,525732.599999994,525742.696,530609.693,8,400,,,
trial,html.Screen,4_97_0,2023-09-08T19:05:58.356Z,,0,2,,4831.406999994069,response,ISIC_3382231.JPG,10,ISIC_2733056.JPG,ISIC_2733056.JPG,false,0,keypress(z),500,535442.200000003,535441.099999994,530576.361,530598.099999994,530609.693,535460.137,8,400,48,,ISIC_3382231.JPG
break,html.Screen,4_97_1,2023-09-08T19:05:58.360Z,,0,,,NaN,,,,,,false,,,,535445.599999994,535444.799999997,,535443.200000003,,535460.137,8,400,,,
break_continue,html.Screen,4_97_2,2023-09-08T19:05:58.361Z,,0,,,NaN,,,,,,false,,,,535447.400000006,535446.700000003,,535446.200000003,,535460.137,8,400,,,
sequence,flow.Sequence,4_97,2023-09-08T19:05:58.363Z,,0,,,4837.00700000301,completion,,,,,false,,,,535448.599999994,535446.700000003,530576.361,530596.700000003,530609.693,535460.137,8,400,,,
trial,html.Screen,4_98_0,2023-09-08T19:06:03.256Z,,0,2,,4880.962999994052,response,ISIC_4924690.JPG,5,ISIC_0029825.JPG,ISIC_4924690.JPG,false,1,keypress(m),500,540342,540341.099999994,535443.471,535449.299999997,535460.137,540360.658,8,400,49,,ISIC_0029825.JPG
break,html.Screen,4_98_1,2023-09-08T19:06:03.260Z,,0,,,NaN,,,,,,false,,,,540345.5,540344.599999994,,540342.700000003,,540360.658,8,400,,,
break_continue,html.Screen,4_98_2,2023-09-08T19:06:03.262Z,,0,,,NaN,,,,,,false,,,,540347.799999997,540347,,540346.5,,540360.658,8,400,,,
sequence,flow.Sequence,4_98,2023-09-08T19:06:03.265Z,,0,,,4886.863000000012,completion,,,,,false,,,,540351,540347,535443.471,535449.099999994,535460.137,540360.658,8,400,,,
trial,html.Screen,4_99_0,2023-09-08T19:06:08.493Z,,0,2,,5218.542000002926,response,ISIC_0065283.JPG,11,ISIC_2287151.JPG,ISIC_0065283.JPG,false,1,keypress(m),500,545580.299999997,545579.200000003,540343.992,540351.799999997,540360.658,545594.282,8,400,50,,ISIC_2287151.JPG
break,html.Screen,4_99_1,2023-09-08T19:06:18.501Z,,0,,,10018.015000000014,timeout,,,,,false,,,,555588.5,555578.987,545577.616,545581.099999994,545594.282,555612.297,8,400,,,
break_continue,html.Screen,4_99_2,2023-09-08T19:06:21.073Z,,0,,,2390.60300000594,response,,,,,false,continue,keypress(Space),,558160.900000006,558002.900000006,555578.987,555589,555612.297,558178.673,8,400,,,
sequence,flow.Sequence,4_99,2023-09-08T19:06:21.074Z,,0,,,17642.242000005906,completion,,,,,false,,,,558162,558002.900000006,540343.992,540351.700000003,540360.658,558178.673,8,400,,,
trial,html.Screen,4_100_0,2023-09-08T19:06:27.632Z,,0,3,,6540.227000006009,response,ISIC_4033676.JPG,12,ISIC_3159924.JPG,ISIC_3159924.JPG,false,0,keypress(z),500,564719.799999997,564718.900000006,558162.007,558162.700000003,558178.673,564762.399,8,400,1,,ISIC_4033676.JPG
break,html.Screen,4_100_1,2023-09-08T19:06:27.635Z,,0,,,NaN,,,,,,false,,,,564723,564721.900000006,,564720.5,,564762.399,8,400,,,
break_continue,html.Screen,4_100_2,2023-09-08T19:06:27.637Z,,0,,,NaN,,,,,,false,,,,564724.900000006,564724.200000003,,564723.599999994,,564762.399,8,400,,,
sequence,flow.Sequence,4_100,2023-09-08T19:06:27.638Z,,0,,,6545.527000003029,completion,,,,,false,,,,564725.799999997,564724.200000003,558162.007,558162.5,558178.673,564762.399,8,400,,,
trial,html.Screen,4_101_0,2023-09-08T19:06:31.381Z,,0,3,,3704.7009999940637,response,ISIC_0033681.JPG,12,ISIC_4311777.JPG,ISIC_4311777.JPG,false,0,keypress(z),500,568468.5,568467.099999994,564712.401,564726.700000003,564762.399,568496.504,8,400,2,,ISIC_0033681.JPG
break,html.Screen,4_101_1,2023-09-08T19:06:31.384Z,,0,,,NaN,,,,,,false,,,,568471.599999994,568470.700000003,,568469.200000003,,568496.504,8,400,,,
break_continue,html.Screen,4_101_2,2023-09-08T19:06:31.386Z,,0,,,NaN,,,,,,false,,,,568473.400000006,568472.799999997,,568472.200000003,,568496.504,8,400,,,
sequence,flow.Sequence,4_101,2023-09-08T19:06:31.387Z,,0,,,3710.400999997044,completion,,,,,false,,,,568474.5,568472.799999997,564712.401,564726.5,564762.399,568496.504,8,400,,,
trial,html.Screen,4_102_0,2023-09-08T19:06:35.476Z,,0,3,,4066.696000003023,response,ISIC_0062463.JPG,11,ISIC_0058186.JPG,ISIC_0058186.JPG,false,0,keypress(z),500,572564.099999994,572563.200000003,568463.172,568475.200000003,568496.504,572580.133,8,400,3,,ISIC_0062463.JPG
break,html.Screen,4_102_1,2023-09-08T19:06:35.479Z,,0,,,NaN,,,,,,false,,,,572567.099999994,572566.200000003,,572564.799999997,,572580.133,8,400,,,
break_continue,html.Screen,4_102_2,2023-09-08T19:06:35.481Z,,0,,,NaN,,,,,,false,,,,572568.900000006,572568.200000003,,572567.599999994,,572580.133,8,400,,,
sequence,flow.Sequence,4_102,2023-09-08T19:06:35.482Z,,0,,,4071.696000003023,completion,,,,,false,,,,572569.799999997,572568.200000003,568463.172,568475.099999994,568496.504,572580.133,8,400,,,
trial,html.Screen,4_103_0,2023-09-08T19:06:38.689Z,,0,3,,3195.3669999999693,response,ISIC_0961235.JPG,8,ISIC_0013778.JPG,ISIC_0961235.JPG,false,1,keypress(m),500,575776.400000006,575775.5,572563.467,572570.400000006,572580.133,575797.209,8,400,4,,ISIC_0013778.JPG
break,html.Screen,4_103_1,2023-09-08T19:06:38.692Z,,0,,,NaN,,,,,,false,,,,575779.599999994,575778.799999997,,575777.200000003,,575797.209,8,400,,,
break_continue,html.Screen,4_103_2,2023-09-08T19:06:38.694Z,,0,,,NaN,,,,,,false,,,,575781.400000006,575780.799999997,,575780.299999997,,575797.209,8,400,,,
sequence,flow.Sequence,4_103,2023-09-08T19:06:38.695Z,,0,,,3200.666999996989,completion,,,,,false,,,,575782.400000006,575780.799999997,572563.467,572570.200000003,572580.133,575797.209,8,400,,,
trial,html.Screen,4_104_0,2023-09-08T19:06:42.609Z,,0,3,,3898.2909999999683,response,ISIC_0024756.JPG,12,ISIC_0028361.JPG,ISIC_0024756.JPG,false,1,keypress(m),500,579696.400000006,579695.5,575763.877,575783.599999994,575797.209,579714.103,8,400,5,,ISIC_0028361.JPG
break,html.Screen,4_104_1,2023-09-08T19:06:42.612Z,,0,,,NaN,,,,,,false,,,,579699.5,579698.599999994,,579697.099999994,,579714.103,8,400,,,
break_continue,html.Screen,4_104_2,2023-09-08T19:06:42.614Z,,0,,,NaN,,,,,,false,,,,579701.299999997,579700.599999994,,579700,,579714.103,8,400,,,
sequence,flow.Sequence,4_104,2023-09-08T19:06:42.614Z,,0,,,3903.390999994008,completion,,,,,false,,,,579702.200000003,579700.599999994,575763.877,575783.5,575797.209,579714.103,8,400,,,
trial,html.Screen,4_105_0,2023-09-08T19:06:46.535Z,,0,3,,3907.2970000059577,response,ISIC_0011780.JPG,7,ISIC_4794052.JPG,ISIC_4794052.JPG,false,0,keypress(z),500,583622.200000003,583621.400000006,579697.437,579702.900000006,579714.103,583631.135,8,400,6,,ISIC_0011780.JPG
break,html.Screen,4_105_1,2023-09-08T19:06:46.538Z,,0,,,NaN,,,,,,false,,,,583625.400000006,583624.5,,583623,,583631.135,8,400,,,
break_continue,html.Screen,4_105_2,2023-09-08T19:06:46.539Z,,0,,,NaN,,,,,,false,,,,583627.200000003,583626.5,,583626,,583631.135,8,400,,,
sequence,flow.Sequence,4_105,2023-09-08T19:06:46.540Z,,0,,,3912.396999999997,completion,,,,,false,,,,583628.099999994,583626.5,579697.437,579702.799999997,579714.103,583631.135,8,400,,,
trial,html.Screen,4_106_0,2023-09-08T19:06:50.210Z,,0,3,,3666.065000002971,response,ISIC_0033211.JPG,8,ISIC_0064660.JPG,ISIC_0064660.JPG,false,0,keypress(z),500,587298,587297.200000003,583614.469,583629.200000003,583631.135,587314.8,8,400,7,,ISIC_0033211.JPG
break,html.Screen,4_106_1,2023-09-08T19:06:50.214Z,,0,,,NaN,,,,,,false,,,,587302.099999994,587301.299999997,,587298.799999997,,587314.8,8,400,,,
break_continue,html.Screen,4_106_2,2023-09-08T19:06:50.216Z,,0,,,NaN,,,,,,false,,,,587303.900000006,587303.200000003,,587302.700000003,,587314.8,8,400,,,
sequence,flow.Sequence,4_106,2023-09-08T19:06:50.217Z,,0,,,3672.065000002971,completion,,,,,false,,,,587305,587303.200000003,583614.469,583628.599999994,583631.135,587314.8,8,400,,,
trial,html.Screen,4_107_0,2023-09-08T19:06:53.718Z,,0,3,,3490.1999999999534,response,ISIC_0033962.JPG,13,ISIC_0001118.JPG,ISIC_0033962.JPG,false,1,keypress(m),500,590805.799999997,590805,587298.134,587305.700000003,587314.8,590831.755,8,400,8,,ISIC_0001118.JPG
break,html.Screen,4_107_1,2023-09-08T19:06:53.721Z,,0,,,NaN,,,,,,false,,,,590808.900000006,590808,,590806.599999994,,590831.755,8,400,,,
break_continue,html.Screen,4_107_2,2023-09-08T19:06:53.723Z,,0,,,NaN,,,,,,false,,,,590810.700000003,590809.900000006,,590809.5,,590831.755,8,400,,,
sequence,flow.Sequence,4_107,2023-09-08T19:06:53.724Z,,0,,,3495.100000005914,completion,,,,,false,,,,590812.099999994,590809.900000006,587298.134,587305.5,587314.8,590831.755,8,400,,,
trial,html.Screen,4_108_0,2023-09-08T19:06:56.938Z,,0,3,,3193.044999997015,response,ISIC_8740331.JPG,13,ISIC_2457859.JPG,ISIC_8740331.JPG,false,1,keypress(m),500,594025.599999994,594024.799999997,590798.423,590813.700000003,590831.755,594048.589,8,400,9,,ISIC_2457859.JPG
break,html.Screen,4_108_1,2023-09-08T19:06:56.941Z,,0,,,NaN,,,,,,false,,,,594028.700000003,594027.799999997,,594026.200000003,,594048.589,8,400,,,
break_continue,html.Screen,4_108_2,2023-09-08T19:06:56.943Z,,0,,,NaN,,,,,,false,,,,594030.400000006,594029.599999994,,594029.200000003,,594048.589,8,400,,,
sequence,flow.Sequence,4_108,2023-09-08T19:06:56.944Z,,0,,,3197.844999994035,completion,,,,,false,,,,594031.299999997,594029.599999994,590798.423,590813.5,590831.755,594048.589,8,400,,,
trial,html.Screen,4_109_0,2023-09-08T19:07:02.701Z,,0,3,,5738.811000005924,response,ISIC_0053469.JPG,5,ISIC_2394181.JPG,ISIC_2394181.JPG,false,0,keypress(z),500,599788.299999997,599787.400000006,594015.257,594031.900000006,594048.589,599799.243,8,400,10,,ISIC_0053469.JPG
break,html.Screen,4_109_1,2023-09-08T19:07:02.704Z,,0,,,NaN,,,,,,false,,,,599791.5,599790.599999994,,599789,,599799.243,8,400,,,
break_continue,html.Screen,4_109_2,2023-09-08T19:07:02.705Z,,0,,,NaN,,,,,,false,,,,599793.200000003,599792.5,,599792,,599799.243,8,400,,,
sequence,flow.Sequence,4_109,2023-09-08T19:07:02.706Z,,0,,,5743.910999999964,completion,,,,,false,,,,599794.099999994,599792.5,594015.257,594031.799999997,594048.589,599799.243,8,400,,,
trial,html.Screen,4_110_0,2023-09-08T19:07:06.857Z,,0,3,,4143.4570000029635,response,ISIC_0013845.JPG,9,ISIC_9228729.JPG,ISIC_9228729.JPG,false,0,keypress(z),500,603943.5,603942.700000003,599782.577,599795,599799.243,603966.129,8,400,11,,ISIC_0013845.JPG
break,html.Screen,4_110_1,2023-09-08T19:07:06.860Z,,0,,,NaN,,,,,,false,,,,603946.099999994,603945.299999997,,603944.200000003,,603966.129,8,400,,,
break_continue,html.Screen,4_110_2,2023-09-08T19:07:06.862Z,,0,,,NaN,,,,,,false,,,,603947.900000006,603947.200000003,,603946.599999994,,603966.129,8,400,,,
sequence,flow.Sequence,4_110,2023-09-08T19:07:06.863Z,,0,,,4147.9570000029635,completion,,,,,false,,,,603948.799999997,603947.200000003,599782.577,599794.700000003,599799.243,603966.129,8,400,,,
trial,html.Screen,4_111_0,2023-09-08T19:07:11.538Z,,0,3,,4656.771000006003,response,ISIC_6313487.JPG,5,ISIC_4432898.JPG,ISIC_4432898.JPG,false,0,keypress(z),500,608623.700000003,608622.900000006,603949.463,603949.5,603966.129,608633.04,8,400,12,,ISIC_6313487.JPG
break,html.Screen,4_111_1,2023-09-08T19:07:11.541Z,,0,,,NaN,,,,,,false,,,,608626.900000006,608625.900000006,,608624.400000006,,608633.04,8,400,,,
break_continue,html.Screen,4_111_2,2023-09-08T19:07:11.542Z,,0,,,NaN,,,,,,false,,,,608628.599999994,608627.900000006,,608627.400000006,,608633.04,8,400,,,
sequence,flow.Sequence,4_111,2023-09-08T19:07:11.543Z,,0,,,4661.771000006003,completion,,,,,false,,,,608629.5,608627.900000006,603949.463,603949.400000006,603966.129,608633.04,8,400,,,
trial,html.Screen,4_112_0,2023-09-08T19:07:15.984Z,,0,3,,4436.160000002943,response,ISIC_0064342.JPG,12,ISIC_0068153.JPG,ISIC_0064342.JPG,false,1,keypress(m),500,613070.099999994,613069.200000003,608616.374,608630.099999994,608633.04,613083.727,8,400,13,,ISIC_0068153.JPG
break,html.Screen,4_112_1,2023-09-08T19:07:15.987Z,,0,,,NaN,,,,,,false,,,,613073.200000003,613072.299999997,,613070.799999997,,613083.727,8,400,,,
break_continue,html.Screen,4_112_2,2023-09-08T19:07:15.989Z,,0,,,NaN,,,,,,false,,,,613075,613074.200000003,,613073.799999997,,613083.727,8,400,,,
sequence,flow.Sequence,4_112,2023-09-08T19:07:15.990Z,,0,,,4441.160000002943,completion,,,,,false,,,,613075.900000006,613074.200000003,608616.374,608629.900000006,608633.04,613083.727,8,400,,,
trial,html.Screen,4_113_0,2023-09-08T19:07:21.021Z,,0,3,,5022.0729999970645,response,ISIC_6829008.JPG,6,ISIC_0070137.JPG,ISIC_6829008.JPG,false,1,keypress(m),500,618106.599999994,618105.799999997,613067.061,613076.900000006,613083.727,618117.367,8,400,14,,ISIC_0070137.JPG
break,html.Screen,4_113_1,2023-09-08T19:07:21.024Z,,0,,,NaN,,,,,,false,,,,618109.799999997,618108.900000006,,618107.400000006,,618117.367,8,400,,,
break_continue,html.Screen,4_113_2,2023-09-08T19:07:21.025Z,,0,,,NaN,,,,,,false,,,,618111.5,618110.900000006,,618110.299999997,,618117.367,8,400,,,
sequence,flow.Sequence,4_113,2023-09-08T19:07:21.026Z,,0,,,5027.173000006005,completion,,,,,false,,,,618112.400000006,618110.900000006,613067.061,613076.700000003,613083.727,618117.367,8,400,,,
trial,html.Screen,4_114_0,2023-09-08T19:07:24.996Z,,0,3,,3963.6330000000307,response,ISIC_0012082.JPG,10,ISIC_6888402.JPG,ISIC_0012082.JPG,false,1,keypress(m),500,622081.900000006,622081,618100.701,618113,618117.367,622101.188,8,400,15,,ISIC_6888402.JPG
break,html.Screen,4_114_1,2023-09-08T19:07:24.999Z,,0,,,NaN,,,,,,false,,,,622085.099999994,622084.200000003,,622082.5,,622101.188,8,400,,,
break_continue,html.Screen,4_114_2,2023-09-08T19:07:25.001Z,,0,,,NaN,,,,,,false,,,,622086.700000003,622086.099999994,,622085.599999994,,622101.188,8,400,,,
sequence,flow.Sequence,4_114,2023-09-08T19:07:25.002Z,,0,,,3968.7329999940703,completion,,,,,false,,,,622087.599999994,622086.099999994,618100.701,618112.799999997,618117.367,622101.188,8,400,,,
trial,html.Screen,4_115_0,2023-09-08T19:07:28.711Z,,0,3,,3694.712000005995,response,ISIC_0032079.JPG,8,ISIC_3025889.JPG,ISIC_3025889.JPG,false,0,keypress(z),500,625797,625795.900000006,622067.856,622088.400000006,622101.188,625818.254,8,400,16,,ISIC_0032079.JPG
break,html.Screen,4_115_1,2023-09-08T19:07:28.714Z,,0,,,NaN,,,,,,false,,,,625800,625799.099999994,,625797.599999994,,625818.254,8,400,,,
break_continue,html.Screen,4_115_2,2023-09-08T19:07:28.716Z,,0,,,NaN,,,,,,false,,,,625801.900000006,625801.200000003,,625800.599999994,,625818.254,8,400,,,
sequence,flow.Sequence,4_115,2023-09-08T19:07:28.717Z,,0,,,3700.0120000030147,completion,,,,,false,,,,625803.299999997,625801.200000003,622067.856,622088.099999994,622101.188,625818.254,8,400,,,
trial,html.Screen,4_116_0,2023-09-08T19:07:32.698Z,,0,3,,3965.3459999940824,response,ISIC_1693572.JPG,6,ISIC_0054651.JPG,ISIC_0054651.JPG,false,0,keypress(z),500,629784.299999997,629783.599999994,625784.922,625804.099999994,625818.254,629801.887,8,400,17,,ISIC_1693572.JPG
break,html.Screen,4_116_1,2023-09-08T19:07:32.701Z,,0,,,NaN,,,,,,false,,,,629787.5,629786.400000006,,629785.099999994,,629801.887,8,400,,,
break_continue,html.Screen,4_116_2,2023-09-08T19:07:32.703Z,,0,,,NaN,,,,,,false,,,,629789.200000003,629788.5,,629788.099999994,,629801.887,8,400,,,
sequence,flow.Sequence,4_116,2023-09-08T19:07:32.704Z,,0,,,3970.246000000043,completion,,,,,false,,,,629790.099999994,629788.5,625784.922,625803.900000006,625818.254,629801.887,8,400,,,
trial,html.Screen,4_117_0,2023-09-08T19:07:39.168Z,,0,3,,6451.113000000012,response,ISIC_0025127.JPG,10,ISIC_9544832.JPG,ISIC_9544832.JPG,false,0,keypress(z),500,636253.900000006,636253,629785.221,629790.700000003,629801.887,636268.848,8,400,18,,ISIC_0025127.JPG
break,html.Screen,4_117_1,2023-09-08T19:07:39.171Z,,0,,,NaN,,,,,,false,,,,636256.900000006,636256.099999994,,636254.599999994,,636268.848,8,400,,,
break_continue,html.Screen,4_117_2,2023-09-08T19:07:39.173Z,,0,,,NaN,,,,,,false,,,,636258.799999997,636258.099999994,,636257.5,,636268.848,8,400,,,
sequence,flow.Sequence,4_117,2023-09-08T19:07:39.174Z,,0,,,6456.212999994052,completion,,,,,false,,,,636259.700000003,636258.099999994,629785.221,629790.5,629801.887,636268.848,8,400,,,
trial,html.Screen,4_118_0,2023-09-08T19:07:42.442Z,,0,3,,3258.5520000059623,response,ISIC_8545097.JPG,8,ISIC_0025832.JPG,ISIC_8545097.JPG,false,1,keypress(m),500,639528.200000003,639527.400000006,636252.182,636260.400000006,636268.848,639552.743,8,400,19,,ISIC_0025832.JPG
break,html.Screen,4_118_1,2023-09-08T19:07:42.446Z,,0,,,NaN,,,,,,false,,,,639531.700000003,639530.700000003,,639528.900000006,,639552.743,8,400,,,
break_continue,html.Screen,4_118_2,2023-09-08T19:07:42.447Z,,0,,,NaN,,,,,,false,,,,639533.5,639532.799999997,,639532.299999997,,639552.743,8,400,,,
sequence,flow.Sequence,4_118,2023-09-08T19:07:42.448Z,,0,,,3263.9519999970216,completion,,,,,false,,,,639534.400000006,639532.799999997,636252.182,636260.099999994,636268.848,639552.743,8,400,,,
trial,html.Screen,4_119_0,2023-09-08T19:07:46.510Z,,0,3,,4042.8569999940228,response,ISIC_6192289.JPG,9,ISIC_0000305.JPG,ISIC_6192289.JPG,false,1,keypress(m),500,643596.5,643595.599999994,639519.411,639535.5,639552.743,643619.666,8,400,20,,ISIC_0000305.JPG
break,html.Screen,4_119_1,2023-09-08T19:07:46.514Z,,0,,,NaN,,,,,,false,,,,643599.700000003,643598.799999997,,643597.200000003,,643619.666,8,400,,,
break_continue,html.Screen,4_119_2,2023-09-08T19:07:46.515Z,,0,,,NaN,,,,,,false,,,,643601.400000006,643600.700000003,,643600.200000003,,643619.666,8,400,,,
sequence,flow.Sequence,4_119,2023-09-08T19:07:46.516Z,,0,,,4047.9570000029635,completion,,,,,false,,,,643602.299999997,643600.700000003,639519.411,639535.200000003,639552.743,643619.666,8,400,,,
trial,html.Screen,4_120_0,2023-09-08T19:07:50.546Z,,0,3,,4011.734000005992,response,ISIC_0301568.JPG,11,ISIC_7212271.JPG,ISIC_0301568.JPG,false,1,keypress(m),500,647632.299999997,647631.400000006,643586.334,643603.099999994,643619.666,647653.356,8,400,21,,ISIC_7212271.JPG
break,html.Screen,4_120_1,2023-09-08T19:07:50.549Z,,0,,,NaN,,,,,,false,,,,647635.400000006,647634.5,,647633,,647653.356,8,400,,,
break_continue,html.Screen,4_120_2,2023-09-08T19:07:50.551Z,,0,,,NaN,,,,,,false,,,,647637.299999997,647636.5,,647635.900000006,,647653.356,8,400,,,
sequence,flow.Sequence,4_120,2023-09-08T19:07:50.552Z,,0,,,4016.8340000000317,completion,,,,,false,,,,647638.200000003,647636.5,643586.334,643603,643619.666,647653.356,8,400,,,
trial,html.Screen,4_121_0,2023-09-08T19:07:54.372Z,,0,3,,3803.943999996991,response,ISIC_3338629.JPG,9,ISIC_0029339.JPG,ISIC_3338629.JPG,false,1,keypress(m),500,651458.200000003,651457.299999997,647620.024,647640,647653.356,651470.444,8,400,22,,ISIC_0029339.JPG
break,html.Screen,4_121_1,2023-09-08T19:07:54.375Z,,0,,,NaN,,,,,,false,,,,651461.400000006,651460.5,,651459,,651470.444,8,400,,,
break_continue,html.Screen,4_121_2,2023-09-08T19:07:54.377Z,,0,,,NaN,,,,,,false,,,,651463.200000003,651462.400000006,,651461.900000006,,651470.444,8,400,,,
sequence,flow.Sequence,4_121,2023-09-08T19:07:54.378Z,,0,,,3809.0440000059316,completion,,,,,false,,,,651464,651462.400000006,647620.024,647639.799999997,647653.356,651470.444,8,400,,,
trial,html.Screen,4_122_0,2023-09-08T19:07:59.126Z,,0,3,,4740.956000005943,response,ISIC_0010707.JPG,13,ISIC_0645477.JPG,ISIC_0010707.JPG,false,1,keypress(m),500,656212.400000006,656211.400000006,651453.778,651464.700000003,651470.444,656237.368,8,400,23,,ISIC_0645477.JPG
break,html.Screen,4_122_1,2023-09-08T19:07:59.130Z,,0,,,NaN,,,,,,false,,,,656215.900000006,656214.900000006,,656213.400000006,,656237.368,8,400,,,
break_continue,html.Screen,4_122_2,2023-09-08T19:07:59.132Z,,0,,,NaN,,,,,,false,,,,656218.200000003,656217.400000006,,656216.900000006,,656237.368,8,400,,,
sequence,flow.Sequence,4_122,2023-09-08T19:07:59.134Z,,0,,,4746.956000005943,completion,,,,,false,,,,656219.799999997,656217.400000006,651453.778,651464.5,651470.444,656237.368,8,400,,,
trial,html.Screen,4_123_0,2023-09-08T19:08:03.112Z,,0,3,,3959.6319999999832,response,ISIC_1632696.JPG,7,ISIC_8147542.JPG,ISIC_8147542.JPG,false,0,keypress(z),500,660197.799999997,660197,656204.036,656220.5,656237.368,660220.948,8,400,24,,ISIC_1632696.JPG
break,html.Screen,4_123_1,2023-09-08T19:08:03.115Z,,0,,,NaN,,,,,,false,,,,660201,660200.200000003,,660198.599999994,,660220.948,8,400,,,
break_continue,html.Screen,4_123_2,2023-09-08T19:08:03.117Z,,0,,,NaN,,,,,,false,,,,660202.700000003,660202.099999994,,660201.599999994,,660220.948,8,400,,,
sequence,flow.Sequence,4_123,2023-09-08T19:08:03.118Z,,0,,,3964.7319999940228,completion,,,,,false,,,,660203.700000003,660202.099999994,656204.036,656220.299999997,656237.368,660220.948,8,400,,,
trial,html.Screen,4_124_0,2023-09-08T19:08:08.404Z,,0,3,,5268.151999994065,response,ISIC_0034194.JPG,12,ISIC_1525284.JPG,ISIC_0034194.JPG,false,1,keypress(m),500,665489.900000006,665489.099999994,660187.616,660204.700000003,660220.948,665504.836,8,400,25,,ISIC_1525284.JPG
break,html.Screen,4_124_1,2023-09-08T19:08:08.407Z,,0,,,NaN,,,,,,false,,,,665493,665492.200000003,,665490.599999994,,665504.836,8,400,,,
break_continue,html.Screen,4_124_2,2023-09-08T19:08:08.409Z,,0,,,NaN,,,,,,false,,,,665494.799999997,665494.099999994,,665493.599999994,,665504.836,8,400,,,
sequence,flow.Sequence,4_124,2023-09-08T19:08:08.410Z,,0,,,5273.151999994065,completion,,,,,false,,,,665495.700000003,665494.099999994,660187.616,660204.400000006,660220.948,665504.836,8,400,,,
trial,html.Screen,4_125_0,2023-09-08T19:08:13.076Z,,0,3,,4656.263999994029,response,ISIC_4187485.JPG,6,ISIC_0034207.JPG,ISIC_0034207.JPG,false,0,keypress(z),500,670162,670161.099999994,665488.17,665496.799999997,665504.836,670171.927,8,400,26,,ISIC_4187485.JPG
break,html.Screen,4_125_1,2023-09-08T19:08:13.079Z,,0,,,NaN,,,,,,false,,,,670164.5,670163.599999994,,670162.700000003,,670171.927,8,400,,,
break_continue,html.Screen,4_125_2,2023-09-08T19:08:13.080Z,,0,,,NaN,,,,,,false,,,,670166.200000003,670165.599999994,,670165.099999994,,670171.927,8,400,,,
sequence,flow.Sequence,4_125,2023-09-08T19:08:13.081Z,,0,,,4660.763999994029,completion,,,,,false,,,,670167.099999994,670165.599999994,665488.17,665496.099999994,665504.836,670171.927,8,400,,,
trial,html.Screen,4_126_0,2023-09-08T19:08:17.798Z,,0,3,,4711.172999994014,response,ISIC_0189336.JPG,7,ISIC_0031214.JPG,ISIC_0189336.JPG,false,1,keypress(m),500,674884,674883.099999994,670155.261,670167.799999997,670171.927,674905.437,8,400,27,,ISIC_0031214.JPG
