sender,sender_type,sender_id,timestamp,meta,,blockNo,condition,duration,ended_on,img_left,img_reveal,img_right,loser,practice,response,response_action,selection_duration,time_commit,time_end,time_render,time_run,time_show,time_switch,total_blocks,total_trials,trialNo,url,winner
informed_consent,html.Screen,0,2023-10-30T23:21:31.228Z,"{""labjs_version"":""20.2.4"",""labjs_build"":{""flavor"":""production"",""commit"":""f5b4a49f956347addd546a832a3327688c2c0fef""},""location"":""https://run.pavlovia.org/MurrayBennett/melanoma-2afc/?participant=65931&platform=sona"",""userAgent"":""Mozilla/5.0 (Macintosh; Intel Mac OS X 10_15_7) AppleWebKit/537.36 (KHTML, like Gecko) Chrome/118.0.0.0 Safari/537.36"",""platform"":""MacIntel"",""language"":""en-US"",""locale"":""en-US"",""timeZone"":""America/Chicago"",""timezoneOffset"":300,""screen_width"":1470,""screen_height"":956,""scroll_width"":1470,""scroll_height"":787,""window_innerWidth"":1470,""window_innerHeight"":835,""devicePixelRatio"":2}",,,,17159.257000000372,response,,,,,,consent,click button,,18646.099999999627,18642.400000000373,1349.815,1487.2999999998137,1483.143,18649.49,,,,"{""participant"":""65931"",""platform"":""sona""}",
Welcome,html.Screen,1,2023-10-30T23:21:56.079Z,,,,irregular,24844.710000000185,response,,,,,,continue,click button,,43496.700000000186,43494.200000000186,18632.824,18646.400000000373,18649.49,43499.178,,,,,
trial,html.Screen,2_0_0,2023-10-30T23:22:03.525Z,,0,0,,7443.621999999814,response,ISIC_4679428.JPG,,ISIC_0061792.JPG,ISIC_0061792.JPG,true,0,keypress(z),500,50943.59999999963,50942.799999999814,43482.512,43497.200000000186,43499.178,50949.594,1,6,1,,ISIC_4679428.JPG
sequence,flow.Sequence,2_0,2023-10-30T23:22:03.526Z,,0,,,7443.621999999814,completion,,,,,true,,,,50944.200000000186,50942.799999999814,43482.512,43497.09999999963,43499.178,50949.594,1,6,,,
trial,html.Screen,2_1_0,2023-10-30T23:22:08.537Z,,0,0,,5004.705999999816,response,ISIC_5199497.JPG,,ISIC_0776486.JPG,ISIC_0776486.JPG,true,0,keypress(z),500,55954.799999999814,55954.299999999814,50932.928,50944.40000000037,50949.594,55966.06,1,6,2,,ISIC_5199497.JPG
sequence,flow.Sequence,2_1,2023-10-30T23:22:08.537Z,,0,,,5004.705999999816,completion,,,,,true,,,,55955.200000000186,55954.299999999814,50932.928,50944.299999999814,50949.594,55966.06,1,6,,,
trial,html.Screen,2_2_0,2023-10-30T23:22:13.230Z,,0,0,,4681.140000000189,response,ISIC_2556187.JPG,,ISIC_8575776.JPG,ISIC_8575776.JPG,true,0,keypress(z),500,60647.700000000186,60647.200000000186,55949.394,55955.5,55966.06,60649.206,1,6,3,,ISIC_2556187.JPG
sequence,flow.Sequence,2_2,2023-10-30T23:22:13.230Z,,0,,,4681.140000000189,completion,,,,,true,,,,60648.09999999963,60647.200000000186,55949.394,55955.40000000037,55966.06,60649.206,1,6,,,
trial,html.Screen,2_3_0,2023-10-30T23:22:18.548Z,,0,0,,5316.794000000002,response,ISIC_8141769.JPG,,ISIC_9238366.JPG,ISIC_9238366.JPG,true,0,keypress(z),500,65966.59999999963,65966,60632.54,60648.40000000037,60649.206,65982.745,1,6,4,,ISIC_8141769.JPG
sequence,flow.Sequence,2_3,2023-10-30T23:22:18.549Z,,0,,,5316.794000000002,completion,,,,,true,,,,65967.09999999963,65966,60632.54,60648.200000000186,60649.206,65982.745,1,6,,,
trial,html.Screen,2_4_0,2023-10-30T23:22:21.450Z,,0,0,,2885.155000000377,response,ISIC_8949026.JPG,,ISIC_9959593.JPG,ISIC_8949026.JPG,true,1,keypress(m),500,68868.5,68867.90000000037,65966.079,65967.29999999981,65982.745,68882.629,1,6,5,,ISIC_9959593.JPG
sequence,flow.Sequence,2_4,2023-10-30T23:22:21.451Z,,0,,,2885.155000000377,completion,,,,,true,,,,68868.90000000037,68867.90000000037,65966.079,65967.29999999981,65982.745,68882.629,1,6,,,
trial,html.Screen,2_5_0,2023-10-30T23:22:24.384Z,,0,0,,2918.5710000001854,response,ISIC_0460240.JPG,,ISIC_0010479.JPG,ISIC_0460240.JPG,true,1,keypress(m),500,71801.79999999981,71801.20000000019,68865.963,68869.20000000019,68882.629,71816.256,1,6,6,,ISIC_0010479.JPG
sequence,flow.Sequence,2_5,2023-10-30T23:22:24.384Z,,0,,,2918.5710000001854,completion,,,,,true,,,,71802.29999999981,71801.20000000019,68865.963,68869.20000000019,68882.629,71816.256,1,6,,,
loop,flow.Loop,2,2023-10-30T23:22:24.384Z,,,,,28302.022000000186,completion,,,,,true,,,,71802.59999999963,71801.20000000019,43482.512,43497,43499.178,71816.256,1,6,,,
exp_instructions,html.Screen,3,2023-10-30T23:22:35.371Z,,,,,10969.244000000006,response,,,,,,continue,keypress(Space),,82789,82785.5,71799.59,71802.70000000019,71816.256,82799.15,,,,,
trial,html.Screen,4_0_0,2023-10-30T23:22:38.790Z,,0,1,,3408.9499999996333,response,ISIC_6606767.JPG,7,ISIC_0273046.JPG,ISIC_6606767.JPG,false,1,keypress(m),500,86208.5,86208.09999999963,82782.484,82789.5,82799.15,86215.7,8,400,1,,ISIC_0273046.JPG
break,html.Screen,4_0_1,2023-10-30T23:22:38.792Z,,0,,,NaN,,,,,,false,,,,86209.79999999981,86209.59999999963,,86208.79999999981,,86215.7,8,400,,,
break_continue,html.Screen,4_0_2,2023-10-30T23:22:38.792Z,,0,,,NaN,,,,,,false,,,,86210,86209.90000000037,,86209.79999999981,,86215.7,8,400,,,
sequence,flow.Sequence,4_0,2023-10-30T23:22:38.792Z,,0,,,3410.7500000003783,completion,,,,,false,,,,86210.09999999963,86209.90000000037,82782.484,82789.40000000037,82799.15,86215.7,8,400,,,
trial,html.Screen,4_1_0,2023-10-30T23:22:44.734Z,,0,1,,5935.599999999817,response,ISIC_0011064.JPG,9,ISIC_9720518.JPG,ISIC_9720518.JPG,false,0,keypress(z),500,92151.79999999981,92151.29999999981,86199.034,86210.20000000019,86215.7,92165.462,8,400,2,,ISIC_0011064.JPG
break,html.Screen,4_1_1,2023-10-30T23:22:44.735Z,,0,,,NaN,,,,,,false,,,,92152.79999999981,92152.5,,92152.09999999963,,92165.462,8,400,,,
break_continue,html.Screen,4_1_2,2023-10-30T23:22:44.735Z,,0,,,NaN,,,,,,false,,,,92153.20000000019,92153.09999999963,,92153,,92165.462,8,400,,,
sequence,flow.Sequence,4_1,2023-10-30T23:22:44.735Z,,0,,,5937.39999999963,completion,,,,,false,,,,92153.29999999981,92153.09999999963,86199.034,86210.20000000019,86215.7,92165.462,8,400,,,
trial,html.Screen,4_2_0,2023-10-30T23:22:49.174Z,,0,1,,4426.637999999628,response,ISIC_0027560.JPG,9,ISIC_3418245.JPG,ISIC_3418245.JPG,false,0,keypress(z),500,96592.40000000037,96592.09999999963,92148.796,92153.5,92165.462,96599.401,8,400,3,,ISIC_0027560.JPG
break,html.Screen,4_2_1,2023-10-30T23:22:49.175Z,,0,,,NaN,,,,,,false,,,,96593.40000000037,96593.20000000019,,96592.70000000019,,96599.401,8,400,,,
break_continue,html.Screen,4_2_2,2023-10-30T23:22:49.176Z,,0,,,NaN,,,,,,false,,,,96593.79999999981,96593.70000000019,,96593.59999999963,,96599.401,8,400,,,
sequence,flow.Sequence,4_2,2023-10-30T23:22:49.176Z,,0,,,4428.238000000187,completion,,,,,false,,,,96594,96593.70000000019,92148.796,92153.5,92165.462,96599.401,8,400,,,
trial,html.Screen,4_3_0,2023-10-30T23:22:52.350Z,,0,1,,3168.599000000002,response,ISIC_0010349.JPG,9,ISIC_2133938.JPG,ISIC_2133938.JPG,false,0,keypress(z),500,99768.40000000037,99768,96582.735,96594.09999999963,96599.401,99782.607,8,400,4,,ISIC_0010349.JPG
break,html.Screen,4_3_1,2023-10-30T23:22:52.351Z,,0,,,NaN,,,,,,false,,,,99769.40000000037,99769.09999999963,,99768.70000000019,,99782.607,8,400,,,
break_continue,html.Screen,4_3_2,2023-10-30T23:22:52.352Z,,0,,,NaN,,,,,,false,,,,99769.79999999981,99769.59999999963,,99769.5,,99782.607,8,400,,,
sequence,flow.Sequence,4_3,2023-10-30T23:22:52.352Z,,0,,,3170.1989999996295,completion,,,,,false,,,,99769.90000000037,99769.59999999963,96582.735,96594,96599.401,99782.607,8,400,,,
trial,html.Screen,4_4_0,2023-10-30T23:22:55.397Z,,0,1,,3032.0930000001827,response,ISIC_7763042.JPG,8,ISIC_0000279.JPG,ISIC_7763042.JPG,false,1,keypress(m),500,102815.20000000019,102814.70000000019,99765.941,99770,99782.607,102832.485,8,400,5,,ISIC_0000279.JPG
break,html.Screen,4_4_1,2023-10-30T23:22:55.398Z,,0,,,NaN,,,,,,false,,,,102816.29999999981,102816.09999999963,,102815.5,,102832.485,8,400,,,
break_continue,html.Screen,4_4_2,2023-10-30T23:22:55.399Z,,0,,,NaN,,,,,,false,,,,102816.59999999963,102816.5,,102816.29999999981,,102832.485,8,400,,,
sequence,flow.Sequence,4_4,2023-10-30T23:22:55.399Z,,0,,,3033.8929999999964,completion,,,,,false,,,,102816.79999999981,102816.5,99765.941,99770,99782.607,102832.485,8,400,,,
trial,html.Screen,4_5_0,2023-10-30T23:22:59.210Z,,0,1,,3795.314999999813,response,ISIC_1927858.JPG,5,ISIC_9014036.JPG,ISIC_1927858.JPG,false,1,keypress(m),500,106628.20000000019,106627.79999999981,102815.819,102816.90000000037,102832.485,106649.354,8,400,6,,ISIC_9014036.JPG
break,html.Screen,4_5_1,2023-10-30T23:22:59.211Z,,0,,,NaN,,,,,,false,,,,106629.20000000019,106629,,106628.5,,106649.354,8,400,,,
break_continue,html.Screen,4_5_2,2023-10-30T23:22:59.212Z,,0,,,NaN,,,,,,false,,,,106629.59999999963,106629.40000000037,,106629.40000000037,,106649.354,8,400,,,
sequence,flow.Sequence,4_5,2023-10-30T23:22:59.212Z,,0,,,3796.915000000372,completion,,,,,false,,,,106629.70000000019,106629.40000000037,102815.819,102816.79999999981,102832.485,106649.354,8,400,,,
trial,html.Screen,4_6_0,2023-10-30T23:23:02.675Z,,0,1,,3443.046000000366,response,ISIC_0015166.JPG,8,ISIC_6336926.JPG,ISIC_6336926.JPG,false,0,keypress(z),500,110092.90000000037,110092.40000000037,106632.688,106629.90000000037,106649.354,110099.216,8,400,7,,ISIC_0015166.JPG
break,html.Screen,4_6_1,2023-10-30T23:23:02.676Z,,0,,,NaN,,,,,,false,,,,110094,110093.79999999981,,110093.29999999981,,110099.216,8,400,,,
break_continue,html.Screen,4_6_2,2023-10-30T23:23:02.676Z,,0,,,NaN,,,,,,false,,,,110094.40000000037,110094.20000000019,,110094.09999999963,,110099.216,8,400,,,
sequence,flow.Sequence,4_6,2023-10-30T23:23:02.677Z,,0,,,3444.8460000001796,completion,,,,,false,,,,110094.5,110094.20000000019,106632.688,106629.79999999981,106649.354,110099.216,8,400,,,
trial,html.Screen,4_7_0,2023-10-30T23:23:05.707Z,,0,1,,3025.2839999999997,response,ISIC_7130929.JPG,8,ISIC_0068950.JPG,ISIC_7130929.JPG,false,1,keypress(m),500,113124.79999999981,113124.5,110082.55,110094.70000000019,110099.216,113132.428,8,400,8,,ISIC_0068950.JPG
break,html.Screen,4_7_1,2023-10-30T23:23:05.708Z,,0,,,NaN,,,,,,false,,,,113125.79999999981,113125.5,,113125.09999999963,,113132.428,8,400,,,
break_continue,html.Screen,4_7_2,2023-10-30T23:23:05.708Z,,0,,,NaN,,,,,,false,,,,113126.09999999963,113126,,113125.90000000037,,113132.428,8,400,,,
sequence,flow.Sequence,4_7,2023-10-30T23:23:05.708Z,,0,,,3026.7839999999997,completion,,,,,false,,,,113126.40000000037,113126,110082.55,110094.59999999963,110099.216,113132.428,8,400,,,
trial,html.Screen,4_8_0,2023-10-30T23:23:08.480Z,,0,1,,2765.572,response,ISIC_0030336.JPG,7,ISIC_0028764.JPG,ISIC_0030336.JPG,false,1,keypress(m),500,115898.40000000037,115898,113115.762,113126.5,113132.428,115899.398,8,400,9,,ISIC_0028764.JPG
break,html.Screen,4_8_1,2023-10-30T23:23:08.481Z,,0,,,NaN,,,,,,false,,,,115899.40000000037,115899.09999999963,,115898.59999999963,,115899.398,8,400,,,
break_continue,html.Screen,4_8_2,2023-10-30T23:23:08.482Z,,0,,,NaN,,,,,,false,,,,115899.79999999981,115899.59999999963,,115899.5,,115899.398,8,400,,,
sequence,flow.Sequence,4_8,2023-10-30T23:23:08.482Z,,0,,,2767.1719999996276,completion,,,,,false,,,,115899.90000000037,115899.59999999963,113115.762,113126.40000000037,113132.428,115899.398,8,400,,,
trial,html.Screen,4_9_0,2023-10-30T23:23:11.084Z,,0,1,,2602.5020000003715,response,ISIC_4014307.JPG,8,ISIC_0027247.JPG,ISIC_4014307.JPG,false,1,keypress(m),500,118502.40000000037,118501.90000000037,115882.732,115900,115899.398,118515.96,8,400,10,,ISIC_0027247.JPG
break,html.Screen,4_9_1,2023-10-30T23:23:11.085Z,,0,,,NaN,,,,,,false,,,,118503.29999999981,118503,,118502.59999999963,,118515.96,8,400,,,
break_continue,html.Screen,4_9_2,2023-10-30T23:23:11.086Z,,0,,,NaN,,,,,,false,,,,118503.59999999963,118503.5,,118503.40000000037,,118515.96,8,400,,,
sequence,flow.Sequence,4_9,2023-10-30T23:23:11.086Z,,0,,,2604.101999999999,completion,,,,,false,,,,118503.79999999981,118503.5,115882.732,115900,115899.398,118515.96,8,400,,,
trial,html.Screen,4_10_0,2023-10-30T23:23:14.131Z,,0,1,,3032.440000000366,response,ISIC_0423483.JPG,6,ISIC_1974152.JPG,ISIC_1974152.JPG,false,0,keypress(z),500,121548.70000000019,121548.40000000037,118499.294,118503.90000000037,118515.96,121565.838,8,400,11,,ISIC_0423483.JPG
break,html.Screen,4_10_1,2023-10-30T23:23:14.132Z,,0,,,NaN,,,,,,false,,,,121549.79999999981,121549.59999999963,,121549,,121565.838,8,400,,,
break_continue,html.Screen,4_10_2,2023-10-30T23:23:14.132Z,,0,,,NaN,,,,,,false,,,,121550.09999999963,121550,,121549.90000000037,,121565.838,8,400,,,
sequence,flow.Sequence,4_10,2023-10-30T23:23:14.132Z,,0,,,3034.0399999999936,completion,,,,,false,,,,121550.40000000037,121550,118499.294,118503.79999999981,118515.96,121565.838,8,400,,,
trial,html.Screen,4_11_0,2023-10-30T23:23:16.858Z,,0,1,,2709.362000000183,response,ISIC_9597731.JPG,5,ISIC_0026558.JPG,ISIC_9597731.JPG,false,1,keypress(m),500,124275.70000000019,124275.20000000019,121549.172,121550.5,121565.838,124282.396,8,400,12,,ISIC_0026558.JPG
break,html.Screen,4_11_1,2023-10-30T23:23:16.859Z,,0,,,NaN,,,,,,false,,,,124276.59999999963,124276.29999999981,,124275.90000000037,,124282.396,8,400,,,
break_continue,html.Screen,4_11_2,2023-10-30T23:23:16.859Z,,0,,,NaN,,,,,,false,,,,124276.90000000037,124276.79999999981,,124276.70000000019,,124282.396,8,400,,,
sequence,flow.Sequence,4_11,2023-10-30T23:23:16.859Z,,0,,,2710.9619999998104,completion,,,,,false,,,,124277.09999999963,124276.79999999981,121549.172,121550.40000000037,121565.838,124282.396,8,400,,,
trial,html.Screen,4_12_0,2023-10-30T23:23:20.127Z,,0,1,,3261.9039999998204,response,ISIC_5616806.JPG,7,ISIC_4552230.JPG,ISIC_5616806.JPG,false,1,keypress(m),500,127544.59999999963,127544.29999999981,124265.73,124277.29999999981,124282.396,127549.286,8,400,13,,ISIC_4552230.JPG
break,html.Screen,4_12_1,2023-10-30T23:23:20.128Z,,0,,,NaN,,,,,,false,,,,127545.59999999963,127545.29999999981,,127544.90000000037,,127549.286,8,400,,,
break_continue,html.Screen,4_12_2,2023-10-30T23:23:20.128Z,,0,,,NaN,,,,,,false,,,,127545.90000000037,127545.79999999981,,127545.70000000019,,127549.286,8,400,,,
sequence,flow.Sequence,4_12,2023-10-30T23:23:20.128Z,,0,,,3263.4039999998204,completion,,,,,false,,,,127546.09999999963,127545.79999999981,124265.73,124277.20000000019,124282.396,127549.286,8,400,,,
trial,html.Screen,4_13_0,2023-10-30T23:23:23.510Z,,0,1,,3378.3139999996347,response,ISIC_2440407.JPG,8,ISIC_1806179.JPG,ISIC_2440407.JPG,false,1,keypress(m),500,130927.90000000037,130927.59999999963,127532.62,127546.29999999981,127549.286,130932.484,8,400,14,,ISIC_1806179.JPG
break,html.Screen,4_13_1,2023-10-30T23:23:23.511Z,,0,,,NaN,,,,,,false,,,,130929,130928.79999999981,,130928.29999999981,,130932.484,8,400,,,
break_continue,html.Screen,4_13_2,2023-10-30T23:23:23.511Z,,0,,,NaN,,,,,,false,,,,130929.29999999981,130929.20000000019,,130929.09999999963,,130932.484,8,400,,,
sequence,flow.Sequence,4_13,2023-10-30T23:23:23.512Z,,0,,,3379.9140000001935,completion,,,,,false,,,,130929.5,130929.20000000019,127532.62,127546.20000000019,127549.286,130932.484,8,400,,,
trial,html.Screen,4_14_0,2023-10-30T23:23:27.904Z,,0,1,,4389.016000000003,response,ISIC_0029942.JPG,9,ISIC_8692218.JPG,ISIC_8692218.JPG,false,0,keypress(z),500,135321.90000000037,135321.5,130915.818,130929.59999999963,130932.484,135332.711,8,400,15,,ISIC_0029942.JPG
break,html.Screen,4_14_1,2023-10-30T23:23:27.905Z,,0,,,NaN,,,,,,false,,,,135323,135322.7000000002,,135322.2999999998,,135332.711,8,400,,,
break_continue,html.Screen,4_14_2,2023-10-30T23:23:27.905Z,,0,,,NaN,,,,,,false,,,,135323.2999999998,135323.2000000002,,135323.09999999963,,135332.711,8,400,,,
sequence,flow.Sequence,4_14,2023-10-30T23:23:27.906Z,,0,,,4390.7160000001895,completion,,,,,false,,,,135323.5,135323.2000000002,130915.818,130929.59999999963,130932.484,135332.711,8,400,,,
trial,html.Screen,4_15_0,2023-10-30T23:23:31.334Z,,0,1,,3418.7889999999898,response,ISIC_0055859.JPG,8,ISIC_0067801.JPG,ISIC_0055859.JPG,false,1,keypress(m),500,138751.90000000037,138751.5,135316.045,135323.59999999963,135332.711,138765.907,8,400,16,,ISIC_0067801.JPG
break,html.Screen,4_15_1,2023-10-30T23:23:31.335Z,,0,,,NaN,,,,,,false,,,,138752.7999999998,138752.59999999963,,138752.09999999963,,138765.907,8,400,,,
break_continue,html.Screen,4_15_2,2023-10-30T23:23:31.336Z,,0,,,NaN,,,,,,false,,,,138754.2000000002,138753,,138752.90000000037,,138765.907,8,400,,,
sequence,flow.Sequence,4_15,2023-10-30T23:23:31.337Z,,0,,,3420.2889999999898,completion,,,,,false,,,,138754.5,138753,135316.045,135323.59999999963,135332.711,138765.907,8,400,,,
trial,html.Screen,4_16_0,2023-10-30T23:23:34.110Z,,0,1,,2761.7930000001797,response,ISIC_3799267.JPG,6,ISIC_0027935.JPG,ISIC_0027935.JPG,false,0,keypress(z),500,141528.09999999963,141527.7000000002,138749.241,138754.59999999963,138765.907,141532.463,8,400,17,,ISIC_3799267.JPG
break,html.Screen,4_16_1,2023-10-30T23:23:34.111Z,,0,,,NaN,,,,,,false,,,,141529,141528.7999999998,,141528.2999999998,,141532.463,8,400,,,
break_continue,html.Screen,4_16_2,2023-10-30T23:23:34.111Z,,0,,,NaN,,,,,,false,,,,141529.40000000037,141529.2000000002,,141529.2000000002,,141532.463,8,400,,,
sequence,flow.Sequence,4_16,2023-10-30T23:23:34.112Z,,0,,,2763.2930000001797,completion,,,,,false,,,,141529.5,141529.2000000002,138749.241,138754.5,138765.907,141532.463,8,400,,,
trial,html.Screen,4_17_0,2023-10-30T23:23:37.894Z,,0,1,,3778.7370000001974,response,ISIC_4530249.JPG,8,ISIC_0070387.JPG,ISIC_0070387.JPG,false,0,keypress(z),500,145311.5,145311.2000000002,141515.797,141529.7999999998,141532.463,145332.679,8,400,18,,ISIC_4530249.JPG
break,html.Screen,4_17_1,2023-10-30T23:23:37.895Z,,0,,,NaN,,,,,,false,,,,145312.5,145312.2999999998,,145311.90000000037,,145332.679,8,400,,,
break_continue,html.Screen,4_17_2,2023-10-30T23:23:37.895Z,,0,,,NaN,,,,,,false,,,,145312.7999999998,145312.7000000002,,145312.59999999963,,145332.679,8,400,,,
sequence,flow.Sequence,4_17,2023-10-30T23:23:37.895Z,,0,,,3780.2370000001974,completion,,,,,false,,,,145313,145312.7000000002,141515.797,141529.7000000002,141532.463,145332.679,8,400,,,
trial,html.Screen,4_18_0,2023-10-30T23:23:40.811Z,,0,1,,2896.221000000369,response,ISIC_0070752.JPG,8,ISIC_0005572.JPG,ISIC_0005572.JPG,false,0,keypress(z),500,148229.2000000002,148228.90000000037,145316.013,145313.09999999963,145332.679,148232.563,8,400,19,,ISIC_0070752.JPG
break,html.Screen,4_18_1,2023-10-30T23:23:40.812Z,,0,,,NaN,,,,,,false,,,,148230.2000000002,148230,,148229.5,,148232.563,8,400,,,
break_continue,html.Screen,4_18_2,2023-10-30T23:23:40.813Z,,0,,,NaN,,,,,,false,,,,148230.5,148230.5,,148230.2999999998,,148232.563,8,400,,,
sequence,flow.Sequence,4_18,2023-10-30T23:23:40.813Z,,0,,,2897.8209999999963,completion,,,,,false,,,,148230.7000000002,148230.5,145316.013,145313.09999999963,145332.679,148232.563,8,400,,,
trial,html.Screen,4_19_0,2023-10-30T23:23:44.564Z,,0,1,,3749.036999999633,response,ISIC_9472209.JPG,6,ISIC_8143286.JPG,ISIC_8143286.JPG,false,0,keypress(z),500,151982,151981.59999999963,148215.897,148230.7999999998,148232.563,151999.079,8,400,20,,ISIC_9472209.JPG
break,html.Screen,4_19_1,2023-10-30T23:23:44.565Z,,0,,,NaN,,,,,,false,,,,151982.90000000037,151982.7000000002,,151982.2999999998,,151999.079,8,400,,,
break_continue,html.Screen,4_19_2,2023-10-30T23:23:44.565Z,,0,,,NaN,,,,,,false,,,,151983.2999999998,151983.2000000002,,151983.09999999963,,151999.079,8,400,,,
sequence,flow.Sequence,4_19,2023-10-30T23:23:44.566Z,,0,,,3750.6370000001916,completion,,,,,false,,,,151983.5,151983.2000000002,148215.897,148230.7999999998,148232.563,151999.079,8,400,,,
trial,html.Screen,4_20_0,2023-10-30T23:23:47.499Z,,0,1,,2917.8210000003746,response,ISIC_2535382.JPG,7,ISIC_0026655.JPG,ISIC_2535382.JPG,false,1,keypress(m),500,154917.2999999998,154916.90000000037,151982.413,151983.7000000002,151999.079,154932.295,8,400,21,,ISIC_0026655.JPG
break,html.Screen,4_20_1,2023-10-30T23:23:47.500Z,,0,,,NaN,,,,,,false,,,,154918.2999999998,154918,,154917.59999999963,,154932.295,8,400,,,
break_continue,html.Screen,4_20_2,2023-10-30T23:23:47.501Z,,0,,,NaN,,,,,,false,,,,154918.59999999963,154918.40000000037,,154918.40000000037,,154932.295,8,400,,,
sequence,flow.Sequence,4_20,2023-10-30T23:23:47.501Z,,0,,,2919.3210000003746,completion,,,,,false,,,,154918.7000000002,154918.40000000037,151982.413,151983.5,151999.079,154932.295,8,400,,,
trial,html.Screen,4_21_0,2023-10-30T23:23:51.250Z,,0,1,,3735.4050000001735,response,ISIC_0071916.JPG,5,ISIC_0001118.JPG,ISIC_0071916.JPG,false,1,keypress(m),500,158668,158667.7000000002,154915.629,154918.90000000037,154932.295,158682.518,8,400,22,,ISIC_0001118.JPG
break,html.Screen,4_21_1,2023-10-30T23:23:51.251Z,,0,,,NaN,,,,,,false,,,,158669,158668.7999999998,,158668.40000000037,,158682.518,8,400,,,
break_continue,html.Screen,4_21_2,2023-10-30T23:23:51.251Z,,0,,,NaN,,,,,,false,,,,158669.40000000037,158669.2000000002,,158669.09999999963,,158682.518,8,400,,,
sequence,flow.Sequence,4_21,2023-10-30T23:23:51.252Z,,0,,,3736.9050000001735,completion,,,,,false,,,,158669.59999999963,158669.2000000002,154915.629,154918.7999999998,154932.295,158682.518,8,400,,,
trial,html.Screen,4_22_0,2023-10-30T23:23:54.060Z,,0,1,,2794.981999999989,response,ISIC_4653503.JPG,8,ISIC_6722934.JPG,ISIC_6722934.JPG,false,0,keypress(z),500,161477.90000000037,161477.5,158665.852,158669.7000000002,158682.518,161482.406,8,400,23,,ISIC_4653503.JPG
break,html.Screen,4_22_1,2023-10-30T23:23:54.061Z,,0,,,NaN,,,,,,false,,,,161478.7999999998,161478.5,,161478.2000000002,,161482.406,8,400,,,
break_continue,html.Screen,4_22_2,2023-10-30T23:23:54.061Z,,0,,,NaN,,,,,,false,,,,161479.09999999963,161479,,161478.90000000037,,161482.406,8,400,,,
sequence,flow.Sequence,4_22,2023-10-30T23:23:54.061Z,,0,,,2796.481999999989,completion,,,,,false,,,,161479.2999999998,161479,158665.852,158669.7000000002,158682.518,161482.406,8,400,,,
trial,html.Screen,4_23_0,2023-10-30T23:23:56.771Z,,0,1,,2706.4940000003844,response,ISIC_8979567.JPG,8,ISIC_0061581.JPG,ISIC_8979567.JPG,false,1,keypress(m),500,164189.2999999998,164188.90000000037,161465.74,161479.40000000037,161482.406,164198.964,8,400,24,,ISIC_0061581.JPG
break,html.Screen,4_23_1,2023-10-30T23:23:56.772Z,,0,,,NaN,,,,,,false,,,,164190.2999999998,164190.2000000002,,164189.7000000002,,164198.964,8,400,,,
break_continue,html.Screen,4_23_2,2023-10-30T23:23:56.773Z,,0,,,NaN,,,,,,false,,,,164190.59999999963,164190.5,,164190.5,,164198.964,8,400,,,
sequence,flow.Sequence,4_23,2023-10-30T23:23:56.773Z,,0,,,2708.094000000012,completion,,,,,false,,,,164190.7999999998,164190.5,161465.74,161479.40000000037,161482.406,164198.964,8,400,,,
trial,html.Screen,4_24_0,2023-10-30T23:24:01.160Z,,0,1,,4378.736000000179,response,ISIC_0070210.JPG,8,ISIC_8712559.JPG,ISIC_8712559.JPG,false,0,keypress(z),500,168578.09999999963,168577.7000000002,164182.298,164191,164198.964,168599.164,8,400,25,,ISIC_0070210.JPG
break,html.Screen,4_24_1,2023-10-30T23:24:01.161Z,,0,,,NaN,,,,,,false,,,,168579.2000000002,168578.90000000037,,168578.40000000037,,168599.164,8,400,,,
break_continue,html.Screen,4_24_2,2023-10-30T23:24:01.162Z,,0,,,NaN,,,,,,false,,,,168579.5,168579.40000000037,,168579.2000000002,,168599.164,8,400,,,
sequence,flow.Sequence,4_24,2023-10-30T23:24:01.162Z,,0,,,4380.436000000365,completion,,,,,false,,,,168579.59999999963,168579.40000000037,164182.298,164190.90000000037,164198.964,168599.164,8,400,,,
trial,html.Screen,4_25_0,2023-10-30T23:24:04.061Z,,0,1,,2879.736000000383,response,ISIC_0033508.JPG,7,ISIC_0080817.JPG,ISIC_0080817.JPG,false,0,keypress(z),500,171479.2999999998,171478.90000000037,168582.498,168579.7000000002,168599.164,171499.048,8,400,26,,ISIC_0033508.JPG
break,html.Screen,4_25_1,2023-10-30T23:24:04.062Z,,0,,,NaN,,,,,,false,,,,171480.2999999998,171480.09999999963,,171479.59999999963,,171499.048,8,400,,,
break_continue,html.Screen,4_25_2,2023-10-30T23:24:04.063Z,,0,,,NaN,,,,,,false,,,,171480.59999999963,171480.5,,171480.40000000037,,171499.048,8,400,,,
sequence,flow.Sequence,4_25,2023-10-30T23:24:04.063Z,,0,,,2881.3360000000102,completion,,,,,false,,,,171480.7999999998,171480.5,168582.498,168579.7000000002,168599.164,171499.048,8,400,,,
trial,html.Screen,4_26_0,2023-10-30T23:24:06.787Z,,0,1,,2705.95199999999,response,ISIC_0032847.JPG,8,ISIC_5392118.JPG,ISIC_5392118.JPG,false,0,keypress(z),500,174205.40000000037,174205,171482.382,171480.90000000037,171499.048,174215.606,8,400,27,,ISIC_0032847.JPG
break,html.Screen,4_26_1,2023-10-30T23:24:06.788Z,,0,,,NaN,,,,,,false,,,,174206,174206,,174205.5,,174215.606,8,400,,,
break_continue,html.Screen,4_26_2,2023-10-30T23:24:06.788Z,,0,,,NaN,,,,,,false,,,,174206.2999999998,174206.2000000002,,174206.09999999963,,174215.606,8,400,,,
sequence,flow.Sequence,4_26,2023-10-30T23:24:06.789Z,,0,,,2707.1520000001765,completion,,,,,false,,,,174206.40000000037,174206.2000000002,171482.382,171480.7999999998,171499.048,174215.606,8,400,,,
trial,html.Screen,4_27_0,2023-10-30T23:24:10.073Z,,0,1,,3274.9939999996277,response,ISIC_8766254.JPG,7,ISIC_1497525.JPG,ISIC_1497525.JPG,false,0,keypress(z),500,177491,177490.59999999963,174198.94,174206.5,174215.606,177499.176,8,400,28,,ISIC_8766254.JPG
break,html.Screen,4_27_1,2023-10-30T23:24:10.074Z,,0,,,NaN,,,,,,false,,,,177492,177491.90000000037,,177491.40000000037,,177499.176,8,400,,,
break_continue,html.Screen,4_27_2,2023-10-30T23:24:10.075Z,,0,,,NaN,,,,,,false,,,,177492.40000000037,177492.2999999998,,177492.09999999963,,177499.176,8,400,,,
sequence,flow.Sequence,4_27,2023-10-30T23:24:10.075Z,,0,,,3276.693999999814,completion,,,,,false,,,,177492.59999999963,177492.2999999998,174198.94,174206.5,174215.606,177499.176,8,400,,,
trial,html.Screen,4_28_0,2023-10-30T23:24:12.722Z,,0,1,,2639.9239999996207,response,ISIC_0030916.JPG,8,ISIC_6758042.JPG,ISIC_6758042.JPG,false,0,keypress(z),500,180139.5,180139.09999999963,177482.51,177492.7000000002,177499.176,180149.07,8,400,29,,ISIC_0030916.JPG
break,html.Screen,4_28_1,2023-10-30T23:24:12.723Z,,0,,,NaN,,,,,,false,,,,180140.5,180140.2999999998,,180139.7999999998,,180149.07,8,400,,,
break_continue,html.Screen,4_28_2,2023-10-30T23:24:12.723Z,,0,,,NaN,,,,,,false,,,,180140.7999999998,180140.7000000002,,180140.59999999963,,180149.07,8,400,,,
sequence,flow.Sequence,4_28,2023-10-30T23:24:12.723Z,,0,,,2641.5240000001795,completion,,,,,false,,,,180141,180140.7000000002,177482.51,177492.7000000002,177499.176,180149.07,8,400,,,
trial,html.Screen,4_29_0,2023-10-30T23:24:15.288Z,,0,1,,2556.1300000001793,response,ISIC_0026009.JPG,5,ISIC_4241907.JPG,ISIC_4241907.JPG,false,0,keypress(z),500,182705.5,182705.2000000002,180132.404,180141.2000000002,180149.07,182715.634,8,400,30,,ISIC_0026009.JPG
break,html.Screen,4_29_1,2023-10-30T23:24:15.289Z,,0,,,NaN,,,,,,false,,,,182706.5,182706.2999999998,,182705.7999999998,,182715.634,8,400,,,
break_continue,html.Screen,4_29_2,2023-10-30T23:24:15.289Z,,0,,,NaN,,,,,,false,,,,182706.7999999998,182706.59999999963,,182706.59999999963,,182715.634,8,400,,,
sequence,flow.Sequence,4_29,2023-10-30T23:24:15.289Z,,0,,,2557.5299999996205,completion,,,,,false,,,,182706.90000000037,182706.59999999963,180132.404,180141.09999999963,180149.07,182715.634,8,400,,,
trial,html.Screen,4_30_0,2023-10-30T23:24:18.463Z,,0,1,,3165.165999999823,response,ISIC_0002901.JPG,7,ISIC_0013839.JPG,ISIC_0002901.JPG,false,1,keypress(m),500,185881.2000000002,185880.7999999998,182698.968,182707.09999999963,182715.634,185882.174,8,400,31,,ISIC_0013839.JPG
break,html.Screen,4_30_1,2023-10-30T23:24:18.464Z,,0,,,NaN,,,,,,false,,,,185882.2999999998,185882,,185881.5,,185882.174,8,400,,,
break_continue,html.Screen,4_30_2,2023-10-30T23:24:18.465Z,,0,,,NaN,,,,,,false,,,,185882.7000000002,185882.59999999963,,185882.40000000037,,185882.174,8,400,,,
sequence,flow.Sequence,4_30,2023-10-30T23:24:18.465Z,,0,,,3166.9659999996366,completion,,,,,false,,,,185882.7999999998,185882.59999999963,182698.968,182707,182715.634,185882.174,8,400,,,
trial,html.Screen,4_31_0,2023-10-30T23:24:21.227Z,,0,1,,2762.026000000187,response,ISIC_6460137.JPG,5,ISIC_5879789.JPG,ISIC_6460137.JPG,false,1,keypress(m),500,188644.59999999963,188644.2000000002,185865.508,185882.90000000037,185882.174,188649.102,8,400,32,,ISIC_5879789.JPG
break,html.Screen,4_31_1,2023-10-30T23:24:21.228Z,,0,,,NaN,,,,,,false,,,,188645.59999999963,188645.5,,188644.90000000037,,188649.102,8,400,,,
break_continue,html.Screen,4_31_2,2023-10-30T23:24:21.228Z,,0,,,NaN,,,,,,false,,,,188646.09999999963,188645.90000000037,,188645.7000000002,,188649.102,8,400,,,
sequence,flow.Sequence,4_31,2023-10-30T23:24:21.228Z,,0,,,2763.7260000003735,completion,,,,,false,,,,188646.2999999998,188645.90000000037,185865.508,185882.7999999998,185882.174,188649.102,8,400,,,
trial,html.Screen,4_32_0,2023-10-30T23:24:24.656Z,,0,1,,3424.1979999998002,response,ISIC_0028489.JPG,7,ISIC_5769654.JPG,ISIC_5769654.JPG,false,0,keypress(z),500,192073.7000000002,192073.2999999998,188632.436,188646.2999999998,188649.102,192082.298,8,400,33,,ISIC_0028489.JPG
break,html.Screen,4_32_1,2023-10-30T23:24:24.657Z,,0,,,NaN,,,,,,false,,,,192074.7999999998,192074.59999999963,,192074,,192082.298,8,400,,,
break_continue,html.Screen,4_32_2,2023-10-30T23:24:24.657Z,,0,,,NaN,,,,,,false,,,,192075.2000000002,192075.09999999963,,192074.90000000037,,192082.298,8,400,,,
sequence,flow.Sequence,4_32,2023-10-30T23:24:24.657Z,,0,,,3425.997999999614,completion,,,,,false,,,,192075.2999999998,192075.09999999963,188632.436,188646.2999999998,188649.102,192082.298,8,400,,,
trial,html.Screen,4_33_0,2023-10-30T23:24:27.369Z,,0,1,,2704.1020000003628,response,ISIC_0065525.JPG,8,ISIC_6626544.JPG,ISIC_6626544.JPG,false,0,keypress(z),500,194786.7999999998,194786.40000000037,192065.632,192075.40000000037,192082.298,194798.856,8,400,34,,ISIC_0065525.JPG
break,html.Screen,4_33_1,2023-10-30T23:24:27.370Z,,0,,,NaN,,,,,,false,,,,194787.7999999998,194787.59999999963,,194787.2000000002,,194798.856,8,400,,,
break_continue,html.Screen,4_33_2,2023-10-30T23:24:27.370Z,,0,,,NaN,,,,,,false,,,,194788.09999999963,194788.09999999963,,194788,,194798.856,8,400,,,
sequence,flow.Sequence,4_33,2023-10-30T23:24:27.370Z,,0,,,2705.8019999996177,completion,,,,,false,,,,194788.2999999998,194788.09999999963,192065.632,192075.40000000037,192082.298,194798.856,8,400,,,
trial,html.Screen,4_34_0,2023-10-30T23:24:32.751Z,,0,1,,5369.943999999814,response,ISIC_1783062.JPG,8,ISIC_0026694.JPG,ISIC_0026694.JPG,false,0,keypress(z),500,200169.09999999963,200168.7999999998,194782.19,194788.40000000037,194798.856,200182.357,8,400,35,,ISIC_1783062.JPG
break,html.Screen,4_34_1,2023-10-30T23:24:32.752Z,,0,,,NaN,,,,,,false,,,,200170.09999999963,200170,,200169.5,,200182.357,8,400,,,
break_continue,html.Screen,4_34_2,2023-10-30T23:24:32.753Z,,0,,,NaN,,,,,,false,,,,200170.59999999963,200170.40000000037,,200170.2999999998,,200182.357,8,400,,,
sequence,flow.Sequence,4_34,2023-10-30T23:24:32.753Z,,0,,,5371.544000000373,completion,,,,,false,,,,200170.7999999998,200170.40000000037,194782.19,194788.40000000037,194798.856,200182.357,8,400,,,
trial,html.Screen,4_35_0,2023-10-30T23:24:35.351Z,,0,1,,2586.4429999998247,response,ISIC_0011482.JPG,8,ISIC_5392118.JPG,ISIC_5392118.JPG,false,0,keypress(z),500,202769.2999999998,202768.7999999998,200165.691,200170.90000000037,200182.357,202782.253,8,400,36,,ISIC_0011482.JPG
break,html.Screen,4_35_1,2023-10-30T23:24:35.352Z,,0,,,NaN,,,,,,false,,,,202770.2999999998,202770,,202769.5,,202782.253,8,400,,,
break_continue,html.Screen,4_35_2,2023-10-30T23:24:35.353Z,,0,,,NaN,,,,,,false,,,,202770.59999999963,202770.5,,202770.2999999998,,202782.253,8,400,,,
sequence,flow.Sequence,4_35,2023-10-30T23:24:35.353Z,,0,,,2588.143000000011,completion,,,,,false,,,,202770.7000000002,202770.5,200165.691,200170.90000000037,200182.357,202782.253,8,400,,,
trial,html.Screen,4_36_0,2023-10-30T23:24:39.202Z,,0,1,,3837.247000000003,response,ISIC_7264251.JPG,5,ISIC_0033621.JPG,ISIC_7264251.JPG,false,1,keypress(m),500,206620,206619.5,202765.587,202770.7999999998,202782.253,206632.099,8,400,37,,ISIC_0033621.JPG
break,html.Screen,4_36_1,2023-10-30T23:24:39.203Z,,0,,,NaN,,,,,,false,,,,206621,206620.7999999998,,206620.2000000002,,206632.099,8,400,,,
break_continue,html.Screen,4_36_2,2023-10-30T23:24:39.203Z,,0,,,NaN,,,,,,false,,,,206621.2999999998,206621.2000000002,,206621.09999999963,,206632.099,8,400,,,
sequence,flow.Sequence,4_36,2023-10-30T23:24:39.204Z,,0,,,3838.9470000001893,completion,,,,,false,,,,206621.5,206621.2000000002,202765.587,202770.7999999998,202782.253,206632.099,8,400,,,
trial,html.Screen,4_37_0,2023-10-30T23:24:42.357Z,,0,1,,3142.7009999998263,response,ISIC_5170766.JPG,8,ISIC_2034687.JPG,ISIC_5170766.JPG,false,1,keypress(m),500,209775.2000000002,209774.7999999998,206615.433,206621.59999999963,206632.099,209782.371,8,400,38,,ISIC_2034687.JPG
break,html.Screen,4_37_1,2023-10-30T23:24:42.358Z,,0,,,NaN,,,,,,false,,,,209776.2999999998,209776.09999999963,,209775.59999999963,,209782.371,8,400,,,
break_continue,html.Screen,4_37_2,2023-10-30T23:24:42.359Z,,0,,,NaN,,,,,,false,,,,209776.59999999963,209776.5,,209776.40000000037,,209782.371,8,400,,,
sequence,flow.Sequence,4_37,2023-10-30T23:24:42.359Z,,0,,,3144.4010000000126,completion,,,,,false,,,,209776.7999999998,209776.5,206615.433,206621.5,206632.099,209782.371,8,400,,,
trial,html.Screen,4_38_0,2023-10-30T23:24:45.328Z,,0,1,,2963.029000000359,response,ISIC_0028839.JPG,8,ISIC_5223280.JPG,ISIC_0028839.JPG,false,1,keypress(m),500,212745.7999999998,212745.40000000037,209765.705,209777,209782.371,212765.585,8,400,39,,ISIC_5223280.JPG
break,html.Screen,4_38_1,2023-10-30T23:24:45.329Z,,0,,,NaN,,,,,,false,,,,212746.7999999998,212746.59999999963,,212746.09999999963,,212765.585,8,400,,,
break_continue,html.Screen,4_38_2,2023-10-30T23:24:45.329Z,,0,,,NaN,,,,,,false,,,,212747.2000000002,212747.09999999963,,212747,,212765.585,8,400,,,
sequence,flow.Sequence,4_38,2023-10-30T23:24:45.330Z,,0,,,2964.7289999996137,completion,,,,,false,,,,212747.5,212747.09999999963,209765.705,209776.90000000037,209782.371,212765.585,8,400,,,
trial,html.Screen,4_39_0,2023-10-30T23:24:48.342Z,,0,1,,2994.0149999996356,response,ISIC_8690205.JPG,8,ISIC_7587869.JPG,ISIC_8690205.JPG,false,1,keypress(m),500,215760,215759.59999999963,212748.919,212747.5,212765.585,215765.465,8,400,40,,ISIC_7587869.JPG
break,html.Screen,4_39_1,2023-10-30T23:24:48.343Z,,0,,,NaN,,,,,,false,,,,215761,215760.7999999998,,215760.2999999998,,215765.465,8,400,,,
break_continue,html.Screen,4_39_2,2023-10-30T23:24:48.344Z,,0,,,NaN,,,,,,false,,,,215761.2999999998,215761.2999999998,,215761.09999999963,,215765.465,8,400,,,
sequence,flow.Sequence,4_39,2023-10-30T23:24:48.344Z,,0,,,2995.714999999822,completion,,,,,false,,,,215761.59999999963,215761.2999999998,212748.919,212747.5,212765.585,215765.465,8,400,,,
trial,html.Screen,4_40_0,2023-10-30T23:24:50.975Z,,0,1,,2627.2350000001898,response,ISIC_3351880.JPG,7,ISIC_0028418.JPG,ISIC_3351880.JPG,false,1,keypress(m),500,218393.09999999963,218392.7000000002,215748.799,215761.7000000002,215765.465,218399.064,8,400,41,,ISIC_0028418.JPG
break,html.Screen,4_40_1,2023-10-30T23:24:50.976Z,,0,,,NaN,,,,,,false,,,,218394.09999999963,218393.90000000037,,218393.5,,218399.064,8,400,,,
break_continue,html.Screen,4_40_2,2023-10-30T23:24:50.977Z,,0,,,NaN,,,,,,false,,,,218394.5,218394.40000000037,,218394.2000000002,,218399.064,8,400,,,
sequence,flow.Sequence,4_40,2023-10-30T23:24:50.977Z,,0,,,2628.935000000376,completion,,,,,false,,,,218394.7000000002,218394.40000000037,215748.799,215761.59999999963,215765.465,218399.064,8,400,,,
trial,html.Screen,4_41_0,2023-10-30T23:24:53.830Z,,0,1,,2847.8360000003595,response,ISIC_0033166.JPG,7,ISIC_0066674.JPG,ISIC_0033166.JPG,false,1,keypress(m),500,221247.2999999998,221246.90000000037,218382.398,218394.90000000037,218399.064,221248.95,8,400,42,,ISIC_0066674.JPG
break,html.Screen,4_41_1,2023-10-30T23:24:53.831Z,,0,,,NaN,,,,,,false,,,,221248.2999999998,221248,,221247.59999999963,,221248.95,8,400,,,
break_continue,html.Screen,4_41_2,2023-10-30T23:24:53.831Z,,0,,,NaN,,,,,,false,,,,221248.7000000002,221248.59999999963,,221248.40000000037,,221248.95,8,400,,,
sequence,flow.Sequence,4_41,2023-10-30T23:24:53.831Z,,0,,,2849.5359999996144,completion,,,,,false,,,,221248.7999999998,221248.59999999963,218382.398,218394.7999999998,218399.064,221248.95,8,400,,,
trial,html.Screen,4_42_0,2023-10-30T23:24:57.417Z,,0,1,,3585.149999999616,response,ISIC_0066518.JPG,6,ISIC_7210296.JPG,ISIC_7210296.JPG,false,0,keypress(z),500,224834.5,224834.09999999963,221232.284,221249,221248.95,224848.806,8,400,43,,ISIC_0066518.JPG
break,html.Screen,4_42_1,2023-10-30T23:24:57.418Z,,0,,,NaN,,,,,,false,,,,224835.5,224835.40000000037,,224834.7999999998,,224848.806,8,400,,,
break_continue,html.Screen,4_42_2,2023-10-30T23:24:57.418Z,,0,,,NaN,,,,,,false,,,,224835.90000000037,224835.7000000002,,224835.7000000002,,224848.806,8,400,,,
sequence,flow.Sequence,4_42,2023-10-30T23:24:57.418Z,,0,,,3586.7500000001746,completion,,,,,false,,,,224836.09999999963,224835.7000000002,221232.284,221248.90000000037,221248.95,224848.806,8,400,,,
trial,html.Screen,4_43_0,2023-10-30T23:25:00.511Z,,0,1,,3079.793999999616,response,ISIC_1782911.JPG,8,ISIC_7017547.JPG,ISIC_1782911.JPG,false,1,keypress(m),500,227928.90000000037,227928.59999999963,224832.14,224836.2000000002,224848.806,227932.369,8,400,44,,ISIC_7017547.JPG
break,html.Screen,4_43_1,2023-10-30T23:25:00.512Z,,0,,,NaN,,,,,,false,,,,227930,227929.7999999998,,227929.2999999998,,227932.369,8,400,,,
break_continue,html.Screen,4_43_2,2023-10-30T23:25:00.513Z,,0,,,NaN,,,,,,false,,,,227930.2999999998,227930.2000000002,,227930.2000000002,,227932.369,8,400,,,
sequence,flow.Sequence,4_43,2023-10-30T23:25:00.513Z,,0,,,3081.394000000175,completion,,,,,false,,,,227930.5,227930.2000000002,224832.14,224836.09999999963,224848.806,227932.369,8,400,,,
trial,html.Screen,4_44_0,2023-10-30T23:25:04.216Z,,0,1,,3700.5310000003665,response,ISIC_0027420.JPG,6,ISIC_4873045.JPG,ISIC_4873045.JPG,false,0,keypress(z),500,231633.2999999998,231632.90000000037,227915.703,227930.7000000002,227932.369,231648.887,8,400,45,,ISIC_0027420.JPG
break,html.Screen,4_44_1,2023-10-30T23:25:04.217Z,,0,,,NaN,,,,,,false,,,,231634.2999999998,231634.09999999963,,231633.59999999963,,231648.887,8,400,,,
break_continue,html.Screen,4_44_2,2023-10-30T23:25:04.217Z,,0,,,NaN,,,,,,false,,,,231634.59999999963,231634.5,,231634.40000000037,,231648.887,8,400,,,
sequence,flow.Sequence,4_44,2023-10-30T23:25:04.217Z,,0,,,3702.130999999994,completion,,,,,false,,,,231634.7999999998,231634.5,227915.703,227930.59999999963,227932.369,231648.887,8,400,,,
trial,html.Screen,4_45_0,2023-10-30T23:25:07.196Z,,0,1,,2964.0130000003846,response,ISIC_5290521.JPG,8,ISIC_0069995.JPG,ISIC_5290521.JPG,false,1,keypress(m),500,234613.2999999998,234612.90000000037,231632.221,231634.90000000037,231648.887,234615.435,8,400,46,,ISIC_0069995.JPG
break,html.Screen,4_45_1,2023-10-30T23:25:07.197Z,,0,,,NaN,,,,,,false,,,,234614.2999999998,234614.2000000002,,234613.7000000002,,234615.435,8,400,,,
break_continue,html.Screen,4_45_2,2023-10-30T23:25:07.197Z,,0,,,NaN,,,,,,false,,,,234614.7000000002,234614.59999999963,,234614.5,,234615.435,8,400,,,
sequence,flow.Sequence,4_45,2023-10-30T23:25:07.197Z,,0,,,2965.7129999996396,completion,,,,,false,,,,234614.90000000037,234614.59999999963,231632.221,231634.90000000037,231648.887,234615.435,8,400,,,
trial,html.Screen,4_46_0,2023-10-30T23:25:09.858Z,,0,1,,2659.864999999816,response,ISIC_0010775.JPG,6,ISIC_6400714.JPG,ISIC_6400714.JPG,false,0,keypress(z),500,237275.7999999998,237275.2999999998,234598.769,234615,234615.435,237281.995,8,400,47,,ISIC_0010775.JPG
break,html.Screen,4_46_1,2023-10-30T23:25:09.859Z,,0,,,NaN,,,,,,false,,,,237276.7999999998,237276.7000000002,,237276.09999999963,,237281.995,8,400,,,
break_continue,html.Screen,4_46_2,2023-10-30T23:25:09.859Z,,0,,,NaN,,,,,,false,,,,237277.2000000002,237277.09999999963,,237277,,237281.995,8,400,,,
sequence,flow.Sequence,4_46,2023-10-30T23:25:09.860Z,,0,,,2661.66499999963,completion,,,,,false,,,,237277.40000000037,237277.09999999963,234598.769,234615,234615.435,237281.995,8,400,,,
trial,html.Screen,4_47_0,2023-10-30T23:25:12.700Z,,0,1,,2835.104999999632,response,ISIC_0033956.JPG,9,ISIC_9978107.JPG,ISIC_9978107.JPG,false,0,keypress(z),500,240117.5,240117.09999999963,237265.329,237277.5,237281.995,240132.282,8,400,48,,ISIC_0033956.JPG
break,html.Screen,4_47_1,2023-10-30T23:25:12.701Z,,0,,,NaN,,,,,,false,,,,240118.5,240118.2999999998,,240117.7999999998,,240132.282,8,400,,,
break_continue,html.Screen,4_47_2,2023-10-30T23:25:12.701Z,,0,,,NaN,,,,,,false,,,,240118.90000000037,240118.7000000002,,240118.59999999963,,240132.282,8,400,,,
sequence,flow.Sequence,4_47,2023-10-30T23:25:12.701Z,,0,,,2836.705000000191,completion,,,,,false,,,,240119,240118.7000000002,237265.329,237277.5,237281.995,240132.282,8,400,,,
trial,html.Screen,4_48_0,2023-10-30T23:25:17.715Z,,0,1,,5000.2179999999935,response,ISIC_9615486.JPG,7,ISIC_8338755.JPG,ISIC_8338755.JPG,false,0,keypress(z),500,245132.7999999998,245132.5,240115.616,240119.09999999963,240132.282,245148.748,8,400,49,,ISIC_9615486.JPG
break,html.Screen,4_48_1,2023-10-30T23:25:17.716Z,,0,,,NaN,,,,,,false,,,,245133.7999999998,245133.59999999963,,245133.09999999963,,245148.748,8,400,,,
break_continue,html.Screen,4_48_2,2023-10-30T23:25:17.716Z,,0,,,NaN,,,,,,false,,,,245134.09999999963,245134,,245133.7999999998,,245148.748,8,400,,,
sequence,flow.Sequence,4_48,2023-10-30T23:25:17.717Z,,0,,,5001.7179999999935,completion,,,,,false,,,,245134.2999999998,245134,240115.616,240119.09999999963,240132.282,245148.748,8,400,,,
trial,html.Screen,4_49_0,2023-10-30T23:25:21.130Z,,0,1,,3398.351999999635,response,ISIC_0010289.JPG,6,ISIC_6384997.JPG,ISIC_6384997.JPG,false,0,keypress(z),500,248547.40000000037,248547.09999999963,245132.082,245134.40000000037,245148.748,248548.956,8,400,50,,ISIC_0010289.JPG
break,html.Screen,4_49_1,2023-10-30T23:25:31.119Z,,0,,,10000.019,timeout,,,,,false,,,,258536.2000000002,258532.309,248532.29,248547.7999999998,248548.956,258548.975,8,400,,,
break_continue,html.Screen,4_49_2,2023-10-30T23:25:57.286Z,,0,,,26144.925000000367,response,,,,,false,continue,keypress(Space),,284703.7000000002,284693.9000000004,258532.309,258536.40000000037,258548.975,284715.063,8,400,,,
sequence,flow.Sequence,4_49,2023-10-30T23:25:57.286Z,,0,,,39545.15200000038,completion,,,,,false,,,,284703.7999999998,284693.9000000004,245132.082,245134.40000000037,245148.748,284715.063,8,400,,,
trial,html.Screen,4_50_0,2023-10-30T23:26:02.764Z,,0,2,,5466.1370000001625,response,ISIC_0071869.JPG,8,ISIC_0013867.JPG,ISIC_0013867.JPG,false,0,keypress(z),500,290181.5999999996,290181.2000000002,284698.397,284703.9000000004,284715.063,290198.177,8,400,1,,ISIC_0071869.JPG
break,html.Screen,4_50_1,2023-10-30T23:26:02.765Z,,0,,,NaN,,,,,,false,,,,290182.7000000002,290182.4000000004,,290182,,290198.177,8,400,,,
break_continue,html.Screen,4_50_2,2023-10-30T23:26:02.765Z,,0,,,NaN,,,,,,false,,,,290183.0999999996,290182.9000000004,,290182.7999999998,,290198.177,8,400,,,
sequence,flow.Sequence,4_50,2023-10-30T23:26:02.766Z,,0,,,5467.837000000349,completion,,,,,false,,,,290183.2000000002,290182.9000000004,284698.397,284703.9000000004,284715.063,290198.177,8,400,,,
trial,html.Screen,4_51_0,2023-10-30T23:26:05.971Z,,0,2,,3189.6229999997886,response,ISIC_7292983.JPG,9,ISIC_0941332.JPG,ISIC_7292983.JPG,false,1,keypress(m),500,293388.2000000002,293387.7999999998,290181.511,290183.2999999998,290198.177,293398.049,8,400,2,,ISIC_0941332.JPG
break,html.Screen,4_51_1,2023-10-30T23:26:05.972Z,,0,,,NaN,,,,,,false,,,,293389.2000000002,293389.0999999996,,293388.5999999996,,293398.049,8,400,,,
break_continue,html.Screen,4_51_2,2023-10-30T23:26:05.972Z,,0,,,NaN,,,,,,false,,,,293389.5999999996,293389.5,,293389.4000000004,,293398.049,8,400,,,
sequence,flow.Sequence,4_51,2023-10-30T23:26:05.972Z,,0,,,3191.322999999975,completion,,,,,false,,,,293389.7000000002,293389.5,290181.511,290183.2000000002,290198.177,293398.049,8,400,,,
trial,html.Screen,4_52_0,2023-10-30T23:26:08.905Z,,0,2,,2924.0509999996284,response,ISIC_4613437.JPG,8,ISIC_0026655.JPG,ISIC_4613437.JPG,false,1,keypress(m),500,296322.5999999996,296322.0999999996,293381.383,293389.9000000004,293398.049,296332.092,8,400,3,,ISIC_0026655.JPG
break,html.Screen,4_52_1,2023-10-30T23:26:08.906Z,,0,,,NaN,,,,,,false,,,,296323.5999999996,296323.4000000004,,296322.9000000004,,296332.092,8,400,,,
break_continue,html.Screen,4_52_2,2023-10-30T23:26:08.906Z,,0,,,NaN,,,,,,false,,,,296323.9000000004,296323.9000000004,,296323.7000000002,,296332.092,8,400,,,
sequence,flow.Sequence,4_52,2023-10-30T23:26:08.906Z,,0,,,2925.8510000003735,completion,,,,,false,,,,296324.0999999996,296323.9000000004,293381.383,293389.9000000004,293398.049,296332.092,8,400,,,
trial,html.Screen,4_53_0,2023-10-30T23:26:12.334Z,,0,2,,3418.8080000003683,response,ISIC_3474472.JPG,8,ISIC_0014684.JPG,ISIC_0014684.JPG,false,0,keypress(z),500,299751.4000000004,299750.9000000004,296315.426,296324.2000000002,296332.092,299765.288,8,400,4,,ISIC_3474472.JPG
break,html.Screen,4_53_1,2023-10-30T23:26:12.335Z,,0,,,NaN,,,,,,false,,,,299752.2999999998,299752.0999999996,,299751.5999999996,,299765.288,8,400,,,
break_continue,html.Screen,4_53_2,2023-10-30T23:26:12.335Z,,0,,,NaN,,,,,,false,,,,299752.7000000002,299752.5999999996,,299752.4000000004,,299765.288,8,400,,,
sequence,flow.Sequence,4_53,2023-10-30T23:26:12.335Z,,0,,,3420.5079999996233,completion,,,,,false,,,,299752.9000000004,299752.5999999996,296315.426,296324.0999999996,296332.092,299765.288,8,400,,,
trial,html.Screen,4_54_0,2023-10-30T23:26:16.212Z,,0,2,,3863.912000000186,response,ISIC_0006328.JPG,8,ISIC_1043267.JPG,ISIC_1043267.JPG,false,0,keypress(z),500,303629.7000000002,303629.2000000002,299748.622,299753,299765.288,303631.8,8,400,5,,ISIC_0006328.JPG
break,html.Screen,4_54_1,2023-10-30T23:26:16.213Z,,0,,,NaN,,,,,,false,,,,303630.7999999998,303630.5,,303630,,303631.8,8,400,,,
break_continue,html.Screen,4_54_2,2023-10-30T23:26:16.214Z,,0,,,NaN,,,,,,false,,,,303631.2000000002,303631,,303630.9000000004,,303631.8,8,400,,,
sequence,flow.Sequence,4_54,2023-10-30T23:26:16.214Z,,0,,,3865.7119999999995,completion,,,,,false,,,,303631.2000000002,303631,299748.622,299753,299765.288,303631.8,8,400,,,
trial,html.Screen,4_55_0,2023-10-30T23:26:19.209Z,,0,2,,2994.600000000384,response,ISIC_0069591.JPG,8,ISIC_0423483.JPG,ISIC_0423483.JPG,false,0,keypress(z),500,306626.7999999998,306626.4000000004,303615.134,303631.5,303631.8,306632.056,8,400,6,,ISIC_0069591.JPG
break,html.Screen,4_55_1,2023-10-30T23:26:19.210Z,,0,,,NaN,,,,,,false,,,,306627.7999999998,306627.5999999996,,306627.0999999996,,306632.056,8,400,,,
break_continue,html.Screen,4_55_2,2023-10-30T23:26:19.211Z,,0,,,NaN,,,,,,false,,,,306628.2000000002,306628.0999999996,,306628,,306632.056,8,400,,,
sequence,flow.Sequence,4_55,2023-10-30T23:26:19.211Z,,0,,,2996.299999999639,completion,,,,,false,,,,306628.4000000004,306628.0999999996,303615.134,303631.4000000004,303631.8,306632.056,8,400,,,
trial,html.Screen,4_56_0,2023-10-30T23:26:23.504Z,,0,2,,4288.84400000039,response,ISIC_0006672.JPG,9,ISIC_0028022.JPG,ISIC_0006672.JPG,false,1,keypress(m),500,310921.4000000004,310920.9000000004,306615.39,306628.5,306632.056,310931.884,8,400,7,,ISIC_0028022.JPG
break,html.Screen,4_56_1,2023-10-30T23:26:23.505Z,,0,,,NaN,,,,,,false,,,,310922.4000000004,310922.2000000002,,310921.7000000002,,310931.884,8,400,,,
break_continue,html.Screen,4_56_2,2023-10-30T23:26:23.505Z,,0,,,NaN,,,,,,false,,,,310922.7999999998,310922.5999999996,,310922.5999999996,,310931.884,8,400,,,
sequence,flow.Sequence,4_56,2023-10-30T23:26:23.505Z,,0,,,4290.543999999645,completion,,,,,false,,,,310922.9000000004,310922.5999999996,306615.39,306628.4000000004,306632.056,310931.884,8,400,,,
trial,html.Screen,4_57_0,2023-10-30T23:26:26.726Z,,0,2,,3210.8160000001662,response,ISIC_4966865.JPG,8,ISIC_0064863.JPG,ISIC_4966865.JPG,false,1,keypress(m),500,314143.2000000002,314142.7000000002,310915.218,310923.0999999996,310931.884,314148.422,8,400,8,,ISIC_0064863.JPG
break,html.Screen,4_57_1,2023-10-30T23:26:26.727Z,,0,,,NaN,,,,,,false,,,,314144.2000000002,314143.9000000004,,314143.5,,314148.422,8,400,,,
break_continue,html.Screen,4_57_2,2023-10-30T23:26:26.727Z,,0,,,NaN,,,,,,false,,,,314144.5,314144.5,,314144.2999999998,,314148.422,8,400,,,
sequence,flow.Sequence,4_57,2023-10-30T23:26:26.727Z,,0,,,3212.61599999998,completion,,,,,false,,,,314144.7999999998,314144.5,310915.218,310923,310931.884,314148.422,8,400,,,
trial,html.Screen,4_58_0,2023-10-30T23:26:30.014Z,,0,2,,3282.3779999997932,response,ISIC_7642500.JPG,7,ISIC_0678758.JPG,ISIC_0678758.JPG,false,0,keypress(z),500,317431.2000000002,317430.7999999998,314131.756,314144.9000000004,314148.422,317432.047,8,400,9,,ISIC_7642500.JPG
break,html.Screen,4_58_1,2023-10-30T23:26:30.015Z,,0,,,NaN,,,,,,false,,,,317432.2000000002,317432,,317431.5,,317432.047,8,400,,,
break_continue,html.Screen,4_58_2,2023-10-30T23:26:30.015Z,,0,,,NaN,,,,,,false,,,,317432.5999999996,317432.5,,317432.4000000004,,317432.047,8,400,,,
sequence,flow.Sequence,4_58,2023-10-30T23:26:30.015Z,,0,,,3284.0779999999795,completion,,,,,false,,,,317432.7000000002,317432.5,314131.756,314144.7999999998,314148.422,317432.047,8,400,,,
trial,html.Screen,4_59_0,2023-10-30T23:26:34.725Z,,0,2,,4710.4529999999795,response,ISIC_4184050.JPG,7,ISIC_0012037.JPG,ISIC_0012037.JPG,false,0,keypress(z),500,322142.9000000004,322142.5,317415.381,317432.7999999998,317432.047,322148.525,8,400,10,,ISIC_4184050.JPG
break,html.Screen,4_59_1,2023-10-30T23:26:34.726Z,,0,,,NaN,,,,,,false,,,,322143.9000000004,322143.5999999996,,322143.2000000002,,322148.525,8,400,,,
break_continue,html.Screen,4_59_2,2023-10-30T23:26:34.727Z,,0,,,NaN,,,,,,false,,,,322144.2000000002,322144.2000000002,,322144,,322148.525,8,400,,,
sequence,flow.Sequence,4_59,2023-10-30T23:26:34.727Z,,0,,,4712.153000000166,completion,,,,,false,,,,322144.5999999996,322144.2000000002,317415.381,317432.7999999998,317432.047,322148.525,8,400,,,
trial,html.Screen,4_60_0,2023-10-30T23:26:46.218Z,,0,2,,11516.631999999983,timeout,ISIC_0032472.JPG,7,ISIC_0015436.JPG,,false,,,500,333635.7999999998,333635.2999999998,322131.859,322144.5999999996,322148.525,333665.157,8,400,11,,
break,html.Screen,4_60_1,2023-10-30T23:26:46.219Z,,0,,,NaN,,,,,,false,,,,333636.7000000002,333636.5,,333636,,333665.157,8,400,,,
break_continue,html.Screen,4_60_2,2023-10-30T23:26:46.220Z,,0,,,NaN,,,,,,false,,,,333637.0999999996,333637,,333636.9000000004,,333665.157,8,400,,,
sequence,flow.Sequence,4_60,2023-10-30T23:26:46.220Z,,0,,,11488.474999999977,completion,,,,,false,,,,333637.2999999998,333637,322131.859,322144.5999999996,322148.525,333665.157,8,400,,,
trial,html.Screen,4_61_0,2023-10-30T23:26:52.131Z,,0,2,,5883.442999999621,response,ISIC_0031807.JPG,8,ISIC_4326917.JPG,ISIC_0031807.JPG,false,1,keypress(m),500,339549.0999999996,339548.5999999996,333648.491,333637.4000000004,333665.157,339565.229,8,400,12,,ISIC_4326917.JPG
break,html.Screen,4_61_1,2023-10-30T23:26:52.132Z,,0,,,NaN,,,,,,false,,,,339550,339549.7999999998,,339549.2999999998,,339565.229,8,400,,,
break_continue,html.Screen,4_61_2,2023-10-30T23:26:52.133Z,,0,,,NaN,,,,,,false,,,,339550.2999999998,339550.2999999998,,339550.0999999996,,339565.229,8,400,,,
sequence,flow.Sequence,4_61,2023-10-30T23:26:52.133Z,,0,,,5885.142999999807,completion,,,,,false,,,,339550.5,339550.2999999998,333648.491,333637.2999999998,333665.157,339565.229,8,400,,,
trial,html.Screen,4_62_0,2023-10-30T23:26:56.296Z,,0,2,,4148.17100000038,response,ISIC_0005261.JPG,7,ISIC_0026010.JPG,ISIC_0005261.JPG,false,1,keypress(m),500,343713.7999999998,343713.4000000004,339548.563,339550.7000000002,339565.229,343715.063,8,400,13,,ISIC_0026010.JPG
break,html.Screen,4_62_1,2023-10-30T23:26:56.297Z,,0,,,NaN,,,,,,false,,,,343714.7999999998,343714.5999999996,,343714.0999999996,,343715.063,8,400,,,
break_continue,html.Screen,4_62_2,2023-10-30T23:26:56.298Z,,0,,,NaN,,,,,,false,,,,343715.0999999996,343715,,343714.9000000004,,343715.063,8,400,,,
sequence,flow.Sequence,4_62,2023-10-30T23:26:56.298Z,,0,,,4149.771000000008,completion,,,,,false,,,,343715.2999999998,343715,339548.563,339550.5999999996,339565.229,343715.063,8,400,,,
trial,html.Screen,4_63_0,2023-10-30T23:26:59.265Z,,0,2,,2967.0369999996037,response,ISIC_0065200.JPG,8,ISIC_0011136.JPG,ISIC_0065200.JPG,false,1,keypress(m),500,346682.5,346682.0999999996,343698.397,343715.4000000004,343715.063,346698.277,8,400,14,,ISIC_0011136.JPG
break,html.Screen,4_63_1,2023-10-30T23:26:59.266Z,,0,,,NaN,,,,,,false,,,,346683.4000000004,346683.2999999998,,346682.7999999998,,346698.277,8,400,,,
break_continue,html.Screen,4_63_2,2023-10-30T23:26:59.266Z,,0,,,NaN,,,,,,false,,,,346683.7999999998,346683.7000000002,,346683.5999999996,,346698.277,8,400,,,
sequence,flow.Sequence,4_63,2023-10-30T23:26:59.266Z,,0,,,2968.6370000001625,completion,,,,,false,,,,346684,346683.7000000002,343698.397,343715.2999999998,343715.063,346698.277,8,400,,,
trial,html.Screen,4_64_0,2023-10-30T23:27:02.263Z,,0,2,,2981.3229999996256,response,ISIC_0069411.JPG,9,ISIC_0027132.JPG,ISIC_0027132.JPG,false,0,keypress(z),500,349680.0999999996,349679.5999999996,346681.611,346684.0999999996,346698.277,349682.003,8,400,15,,ISIC_0069411.JPG
break,html.Screen,4_64_1,2023-10-30T23:27:02.264Z,,0,,,NaN,,,,,,false,,,,349681.0999999996,349680.9000000004,,349680.4000000004,,349682.003,8,400,,,
break_continue,html.Screen,4_64_2,2023-10-30T23:27:02.264Z,,0,,,NaN,,,,,,false,,,,349681.4000000004,349681.4000000004,,349681.2000000002,,349682.003,8,400,,,
sequence,flow.Sequence,4_64,2023-10-30T23:27:02.264Z,,0,,,2983.1230000003707,completion,,,,,false,,,,349681.7000000002,349681.4000000004,346681.611,346684.0999999996,346698.277,349682.003,8,400,,,
trial,html.Screen,4_65_0,2023-10-30T23:27:10.462Z,,0,2,,8196.596999999601,response,ISIC_0064559.JPG,6,ISIC_0066399.JPG,ISIC_0064559.JPG,false,1,keypress(m),500,357879.0999999996,357878.5999999996,349665.337,349681.7999999998,349682.003,357881.675,8,400,16,,ISIC_0066399.JPG
break,html.Screen,4_65_1,2023-10-30T23:27:10.463Z,,0,,,NaN,,,,,,false,,,,357880,357879.7999999998,,357879.4000000004,,357881.675,8,400,,,
break_continue,html.Screen,4_65_2,2023-10-30T23:27:10.463Z,,0,,,NaN,,,,,,false,,,,357880.4000000004,357880.2999999998,,357880.2000000002,,357881.675,8,400,,,
sequence,flow.Sequence,4_65,2023-10-30T23:27:10.463Z,,0,,,8198.296999999788,completion,,,,,false,,,,357880.5999999996,357880.2999999998,349665.337,349681.7000000002,349682.003,357881.675,8,400,,,
trial,html.Screen,4_66_0,2023-10-30T23:27:13.909Z,,0,2,,3444.6249999998254,response,ISIC_2266857.JPG,7,ISIC_9699426.JPG,ISIC_9699426.JPG,false,0,keypress(z),500,361326.5999999996,361326.2999999998,357865.009,357880.7000000002,357881.675,361331.913,8,400,17,,ISIC_2266857.JPG
break,html.Screen,4_66_1,2023-10-30T23:27:13.910Z,,0,,,NaN,,,,,,false,,,,361327.5999999996,361327.4000000004,,361326.9000000004,,361331.913,8,400,,,
break_continue,html.Screen,4_66_2,2023-10-30T23:27:13.911Z,,0,,,NaN,,,,,,false,,,,361328,361327.9000000004,,361327.7000000002,,361331.913,8,400,,,
sequence,flow.Sequence,4_66,2023-10-30T23:27:13.911Z,,0,,,3446.225000000384,completion,,,,,false,,,,361328.2000000002,361327.9000000004,357865.009,357880.7000000002,357881.675,361331.913,8,400,,,
trial,html.Screen,4_67_0,2023-10-30T23:27:17.963Z,,0,2,,4048.287000000186,response,ISIC_0082704.JPG,8,ISIC_0011348.JPG,ISIC_0082704.JPG,false,1,keypress(m),500,365380.5999999996,365380.2000000002,361315.247,361328.2999999998,361331.913,365381.751,8,400,18,,ISIC_0011348.JPG
break,html.Screen,4_67_1,2023-10-30T23:27:17.964Z,,0,,,NaN,,,,,,false,,,,365381.7000000002,365381.4000000004,,365381,,365381.751,8,400,,,
break_continue,html.Screen,4_67_2,2023-10-30T23:27:17.965Z,,0,,,NaN,,,,,,false,,,,365382.0999999996,365382,,365381.9000000004,,365381.751,8,400,,,
sequence,flow.Sequence,4_67,2023-10-30T23:27:17.965Z,,0,,,4050.0869999999995,completion,,,,,false,,,,365382.4000000004,365382,361315.247,361328.2999999998,361331.913,365381.751,8,400,,,
trial,html.Screen,4_68_0,2023-10-30T23:27:20.498Z,,0,2,,2532.848999999638,response,ISIC_9049170.JPG,8,ISIC_0000174.JPG,ISIC_9049170.JPG,false,1,keypress(m),500,367915,367914.5999999996,365365.085,365382.5,365381.751,367931.649,8,400,19,,ISIC_0000174.JPG
break,html.Screen,4_68_1,2023-10-30T23:27:20.499Z,,0,,,NaN,,,,,,false,,,,367915.9000000004,367915.7999999998,,367915.2999999998,,367931.649,8,400,,,
break_continue,html.Screen,4_68_2,2023-10-30T23:27:20.499Z,,0,,,NaN,,,,,,false,,,,367916.4000000004,367916.2000000002,,367916.0999999996,,367931.649,8,400,,,
sequence,flow.Sequence,4_68,2023-10-30T23:27:20.499Z,,0,,,2534.449000000197,completion,,,,,false,,,,367916.5,367916.2000000002,365365.085,365382.5,365381.751,367931.649,8,400,,,
trial,html.Screen,4_69_0,2023-10-30T23:27:23.863Z,,0,2,,3347.9509999996517,response,ISIC_0011855.JPG,6,ISIC_0032759.JPG,ISIC_0011855.JPG,false,1,keypress(m),500,371280.0999999996,371279.5999999996,367914.983,367916.7000000002,367931.649,371298.53,8,400,20,,ISIC_0032759.JPG
break,html.Screen,4_69_1,2023-10-30T23:27:23.864Z,,0,,,NaN,,,,,,false,,,,371281,371280.7999999998,,371280.4000000004,,371298.53,8,400,,,
break_continue,html.Screen,4_69_2,2023-10-30T23:27:23.864Z,,0,,,NaN,,,,,,false,,,,371281.4000000004,371281.2999999998,,371281.2000000002,,371298.53,8,400,,,
sequence,flow.Sequence,4_69,2023-10-30T23:27:23.864Z,,0,,,3349.650999999838,completion,,,,,false,,,,371281.5999999996,371281.2999999998,367914.983,367916.5999999996,367931.649,371298.53,8,400,,,
trial,html.Screen,4_70_0,2023-10-30T23:27:26.637Z,,0,2,,2755.8700000003446,response,ISIC_4081632.JPG,8,ISIC_0032192.JPG,ISIC_4081632.JPG,false,1,keypress(m),500,374054.7999999998,374054.4000000004,371281.864,371281.7999999998,371298.53,374065.086,8,400,21,,ISIC_0032192.JPG
break,html.Screen,4_70_1,2023-10-30T23:27:26.638Z,,0,,,NaN,,,,,,false,,,,374055.7000000002,374055.5999999996,,374055,,374065.086,8,400,,,
break_continue,html.Screen,4_70_2,2023-10-30T23:27:26.639Z,,0,,,NaN,,,,,,false,,,,374056.0999999996,374056,,374055.9000000004,,374065.086,8,400,,,
sequence,flow.Sequence,4_70,2023-10-30T23:27:26.639Z,,0,,,2757.469999999972,completion,,,,,false,,,,374056.2000000002,374056,371281.864,371281.7000000002,371298.53,374065.086,8,400,,,
trial,html.Screen,4_71_0,2023-10-30T23:27:31.588Z,,0,2,,4939.513999999617,response,ISIC_0013702.JPG,8,ISIC_5629390.JPG,ISIC_5629390.JPG,false,0,keypress(z),500,379005,379004.5999999996,374048.42,374056.4000000004,374065.086,379014.888,8,400,22,,ISIC_0013702.JPG
break,html.Screen,4_71_1,2023-10-30T23:27:31.588Z,,0,,,NaN,,,,,,false,,,,379005.9000000004,379005.7999999998,,379005.2999999998,,379014.888,8,400,,,
break_continue,html.Screen,4_71_2,2023-10-30T23:27:31.589Z,,0,,,NaN,,,,,,false,,,,379006.2999999998,379006.2000000002,,379006.0999999996,,379014.888,8,400,,,
sequence,flow.Sequence,4_71,2023-10-30T23:27:31.589Z,,0,,,4941.114000000176,completion,,,,,false,,,,379006.5,379006.2000000002,374048.42,374056.2999999998,374065.086,379014.888,8,400,,,
trial,html.Screen,4_72_0,2023-10-30T23:27:36.905Z,,0,2,,5307.012000000395,response,ISIC_1872823.JPG,8,ISIC_8060329.JPG,ISIC_1872823.JPG,false,1,keypress(m),500,384322.2000000002,384321.9000000004,378998.222,379006.5999999996,379014.888,384331.749,8,400,23,,ISIC_8060329.JPG
break,html.Screen,4_72_1,2023-10-30T23:27:36.906Z,,0,,,NaN,,,,,,false,,,,384323.2999999998,384323.0999999996,,384322.5999999996,,384331.749,8,400,,,
break_continue,html.Screen,4_72_2,2023-10-30T23:27:36.906Z,,0,,,NaN,,,,,,false,,,,384323.5999999996,384323.5,,384323.2999999998,,384331.749,8,400,,,
sequence,flow.Sequence,4_72,2023-10-30T23:27:36.906Z,,0,,,5308.612000000023,completion,,,,,false,,,,384323.7999999998,384323.5,378998.222,379006.5999999996,379014.888,384331.749,8,400,,,
trial,html.Screen,4_73_0,2023-10-30T23:27:44.239Z,,0,2,,7324.750999999989,response,ISIC_0924902.JPG,8,ISIC_0054220.JPG,ISIC_0924902.JPG,false,1,keypress(m),500,391656.9000000004,391656.5,384315.083,384323.9000000004,384331.749,391665.004,8,400,24,,ISIC_0054220.JPG
break,html.Screen,4_73_1,2023-10-30T23:27:44.240Z,,0,,,NaN,,,,,,false,,,,391657.9000000004,391657.5999999996,,391657.2000000002,,391665.004,8,400,,,
break_continue,html.Screen,4_73_2,2023-10-30T23:27:44.241Z,,0,,,NaN,,,,,,false,,,,391658.2000000002,391658.0999999996,,391658,,391665.004,8,400,,,
sequence,flow.Sequence,4_73,2023-10-30T23:27:44.241Z,,0,,,7326.350999999617,completion,,,,,false,,,,391658.4000000004,391658.0999999996,384315.083,384323.9000000004,384331.749,391665.004,8,400,,,
trial,html.Screen,4_74_0,2023-10-30T23:27:47.561Z,,0,2,,3313.095999999612,response,ISIC_0032695.JPG,7,ISIC_8495875.JPG,ISIC_8495875.JPG,false,0,keypress(z),500,394978.5,394978.0999999996,391648.338,391658.5,391665.004,394981.538,8,400,25,,ISIC_0032695.JPG
break,html.Screen,4_74_1,2023-10-30T23:27:47.562Z,,0,,,NaN,,,,,,false,,,,394979.5,394979.2000000002,,394978.7000000002,,394981.538,8,400,,,
break_continue,html.Screen,4_74_2,2023-10-30T23:27:47.562Z,,0,,,NaN,,,,,,false,,,,394979.9000000004,394979.7000000002,,394979.5999999996,,394981.538,8,400,,,
sequence,flow.Sequence,4_74,2023-10-30T23:27:47.563Z,,0,,,3314.696000000171,completion,,,,,false,,,,394980.0999999996,394979.7000000002,391648.338,391658.5,391665.004,394981.538,8,400,,,
trial,html.Screen,4_75_0,2023-10-30T23:27:51.427Z,,0,2,,3862.561999999627,response,ISIC_5422940.JPG,7,ISIC_0033856.JPG,ISIC_5422940.JPG,false,1,keypress(m),500,398844.5999999996,398844.0999999996,394964.872,394980.2000000002,394981.538,398848.05,8,400,26,,ISIC_0033856.JPG
break,html.Screen,4_75_1,2023-10-30T23:27:51.428Z,,0,,,NaN,,,,,,false,,,,398845.5,398845.2999999998,,398844.7999999998,,398848.05,8,400,,,
break_continue,html.Screen,4_75_2,2023-10-30T23:27:51.428Z,,0,,,NaN,,,,,,false,,,,398845.9000000004,398845.7999999998,,398845.5999999996,,398848.05,8,400,,,
sequence,flow.Sequence,4_75,2023-10-30T23:27:51.429Z,,0,,,3864.2619999998133,completion,,,,,false,,,,398846,398845.7999999998,394964.872,394980.0999999996,394981.538,398848.05,8,400,,,
trial,html.Screen,4_76_0,2023-10-30T23:27:56.568Z,,0,2,,5137.049999999639,response,ISIC_4752144.JPG,5,ISIC_1736735.JPG,ISIC_1736735.JPG,false,0,keypress(z),500,403985.5,403985.0999999996,398831.384,398846.2000000002,398848.05,403998.376,8,400,27,,ISIC_4752144.JPG
break,html.Screen,4_76_1,2023-10-30T23:27:56.569Z,,0,,,NaN,,,,,,false,,,,403986.5999999996,403986.4000000004,,403985.9000000004,,403998.376,8,400,,,
break_continue,html.Screen,4_76_2,2023-10-30T23:27:56.570Z,,0,,,NaN,,,,,,false,,,,403987,403986.7999999998,,403986.7000000002,,403998.376,8,400,,,
sequence,flow.Sequence,4_76,2023-10-30T23:27:56.570Z,,0,,,5138.749999999825,completion,,,,,false,,,,403987.2000000002,403986.7999999998,398831.384,398846.0999999996,398848.05,403998.376,8,400,,,
trial,html.Screen,4_77_0,2023-10-30T23:28:00.193Z,,0,2,,3611.824000000197,response,ISIC_5126638.JPG,4,ISIC_0011483.JPG,ISIC_5126638.JPG,false,1,keypress(m),500,407610.7999999998,407610.2000000002,403981.71,403987.2999999998,403998.376,407614.898,8,400,28,,ISIC_0011483.JPG
break,html.Screen,4_77_1,2023-10-30T23:28:00.194Z,,0,,,NaN,,,,,,false,,,,407611.7999999998,407611.5,,407611,,407614.898,8,400,,,
break_continue,html.Screen,4_77_2,2023-10-30T23:28:00.195Z,,0,,,NaN,,,,,,false,,,,407612.0999999996,407612,,407611.9000000004,,407614.898,8,400,,,
sequence,flow.Sequence,4_77,2023-10-30T23:28:00.195Z,,0,,,3613.6240000000107,completion,,,,,false,,,,407612.2999999998,407612,403981.71,403987.2999999998,403998.376,407614.898,8,400,,,
trial,html.Screen,4_78_0,2023-10-30T23:28:03.719Z,,0,2,,3521.502000000386,response,ISIC_0010791.JPG,8,ISIC_0033320.JPG,ISIC_0033320.JPG,false,0,keypress(z),500,411136.9000000004,411136.4000000004,407598.232,407612.4000000004,407614.898,411148.09,8,400,29,,ISIC_0010791.JPG
break,html.Screen,4_78_1,2023-10-30T23:28:03.721Z,,0,,,NaN,,,,,,false,,,,411137.9000000004,411137.7000000002,,411137.2000000002,,411148.09,8,400,,,
break_continue,html.Screen,4_78_2,2023-10-30T23:28:03.721Z,,0,,,NaN,,,,,,false,,,,411138.2999999998,411138.2000000002,,411138,,411148.09,8,400,,,
sequence,flow.Sequence,4_78,2023-10-30T23:28:03.721Z,,0,,,3523.3020000001998,completion,,,,,false,,,,411138.5,411138.2000000002,407598.232,407612.2999999998,407614.898,411148.09,8,400,,,
trial,html.Screen,4_79_0,2023-10-30T23:28:06.734Z,,0,2,,3003.009999999602,response,ISIC_0058513.JPG,8,ISIC_2321671.JPG,ISIC_2321671.JPG,false,0,keypress(z),500,414151.5,414151.0999999996,411131.424,411138.5999999996,411148.09,414165.07,8,400,30,,ISIC_0058513.JPG
break,html.Screen,4_79_1,2023-10-30T23:28:06.735Z,,0,,,NaN,,,,,,false,,,,414152.4000000004,414152.2999999998,,414151.7999999998,,414165.07,8,400,,,
break_continue,html.Screen,4_79_2,2023-10-30T23:28:06.735Z,,0,,,NaN,,,,,,false,,,,414152.7999999998,414152.7999999998,,414152.7000000002,,414165.07,8,400,,,
sequence,flow.Sequence,4_79,2023-10-30T23:28:06.736Z,,0,,,3004.709999999788,completion,,,,,false,,,,414153,414152.7999999998,411131.424,411138.5999999996,411148.09,414165.07,8,400,,,
trial,html.Screen,4_80_0,2023-10-30T23:28:11.524Z,,0,2,,4776.3300000003655,response,ISIC_0032005.JPG,9,ISIC_1200689.JPG,ISIC_1200689.JPG,false,0,keypress(z),500,418941.7000000002,418941.4000000004,414148.404,414153.2000000002,414165.07,418948.212,8,400,31,,ISIC_0032005.JPG
break,html.Screen,4_80_1,2023-10-30T23:28:11.525Z,,0,,,NaN,,,,,,false,,,,418942.7000000002,418942.5,,418942,,418948.212,8,400,,,
break_continue,html.Screen,4_80_2,2023-10-30T23:28:11.526Z,,0,,,NaN,,,,,,false,,,,418943.0999999996,418942.9000000004,,418942.9000000004,,418948.212,8,400,,,
sequence,flow.Sequence,4_80,2023-10-30T23:28:11.526Z,,0,,,4777.8300000003655,completion,,,,,false,,,,418943.2999999998,418942.9000000004,414148.404,414153.0999999996,414165.07,418948.212,8,400,,,
trial,html.Screen,4_81_0,2023-10-30T23:28:15.867Z,,0,2,,4335.887999999628,response,ISIC_5929687.JPG,8,ISIC_3505339.JPG,ISIC_3505339.JPG,false,0,keypress(z),500,423284.5,423284.0999999996,418931.546,418943.4000000004,418948.212,423298.427,8,400,32,,ISIC_5929687.JPG
break,html.Screen,4_81_1,2023-10-30T23:28:15.868Z,,0,,,NaN,,,,,,false,,,,423285.5999999996,423285.2999999998,,423284.9000000004,,423298.427,8,400,,,
break_continue,html.Screen,4_81_2,2023-10-30T23:28:15.869Z,,0,,,NaN,,,,,,false,,,,423285.9000000004,423285.7999999998,,423285.7000000002,,423298.427,8,400,,,
sequence,flow.Sequence,4_81,2023-10-30T23:28:15.869Z,,0,,,4337.587999999814,completion,,,,,false,,,,423286.0999999996,423285.7999999998,418931.546,418943.4000000004,418948.212,423298.427,8,400,,,
trial,html.Screen,4_82_0,2023-10-30T23:28:27.312Z,,0,2,,11430.872999999789,response,ISIC_5287679.JPG,7,ISIC_3349562.JPG,ISIC_5287679.JPG,false,1,keypress(m),500,434729.7000000002,434729.2999999998,423281.761,423286.2999999998,423298.427,434748.225,8,400,33,,ISIC_3349562.JPG
break,html.Screen,4_82_1,2023-10-30T23:28:27.313Z,,0,,,NaN,,,,,,false,,,,434730.7999999998,434730.5,,434730,,434748.225,8,400,,,
break_continue,html.Screen,4_82_2,2023-10-30T23:28:27.314Z,,0,,,NaN,,,,,,false,,,,434731.0999999996,434731,,434730.9000000004,,434748.225,8,400,,,
sequence,flow.Sequence,4_82,2023-10-30T23:28:27.314Z,,0,,,11432.572999999975,completion,,,,,false,,,,434731.2999999998,434731,423281.761,423286.2000000002,423298.427,434748.225,8,400,,,
trial,html.Screen,4_83_0,2023-10-30T23:28:29.931Z,,0,2,,2599.4750000002095,response,ISIC_5736292.JPG,7,ISIC_5926550.JPG,ISIC_5926550.JPG,false,0,keypress(z),500,437348.0999999996,437347.7000000002,434731.559,434731.4000000004,434748.225,437364.787,8,400,34,,ISIC_5736292.JPG
break,html.Screen,4_83_1,2023-10-30T23:28:29.932Z,,0,,,NaN,,,,,,false,,,,437349.2000000002,437348.9000000004,,437348.4000000004,,437364.787,8,400,,,
break_continue,html.Screen,4_83_2,2023-10-30T23:28:29.932Z,,0,,,NaN,,,,,,false,,,,437349.5999999996,437349.4000000004,,437349.2999999998,,437364.787,8,400,,,
sequence,flow.Sequence,4_83,2023-10-30T23:28:29.933Z,,0,,,2601.175000000396,completion,,,,,false,,,,437350.7000000002,437349.4000000004,434731.559,434731.4000000004,434748.225,437364.787,8,400,,,
trial,html.Screen,4_84_0,2023-10-30T23:28:33.031Z,,0,2,,3083.413000000175,response,ISIC_0015204.JPG,8,ISIC_0058954.JPG,ISIC_0058954.JPG,false,0,keypress(z),500,440448.5999999996,440448.2000000002,437348.121,437350.7999999998,437364.787,440464.663,8,400,35,,ISIC_0015204.JPG
break,html.Screen,4_84_1,2023-10-30T23:28:33.032Z,,0,,,NaN,,,,,,false,,,,440449.5999999996,440449.4000000004,,440448.9000000004,,440464.663,8,400,,,
break_continue,html.Screen,4_84_2,2023-10-30T23:28:33.033Z,,0,,,NaN,,,,,,false,,,,440450.0999999996,440449.9000000004,,440449.7000000002,,440464.663,8,400,,,
sequence,flow.Sequence,4_84,2023-10-30T23:28:33.033Z,,0,,,3085.1130000003614,completion,,,,,false,,,,440450.2000000002,440449.9000000004,437348.121,437350.7999999998,437364.787,440464.663,8,400,,,
trial,html.Screen,4_85_0,2023-10-30T23:28:38.688Z,,0,2,,5640.237000000372,response,ISIC_0053617.JPG,5,ISIC_1359533.JPG,ISIC_1359533.JPG,false,0,keypress(z),500,446105.2999999998,446104.9000000004,440447.997,440450.2999999998,440464.663,446114.885,8,400,36,,ISIC_0053617.JPG
break,html.Screen,4_85_1,2023-10-30T23:28:38.689Z,,0,,,NaN,,,,,,false,,,,446106.4000000004,446106.0999999996,,446105.7000000002,,446114.885,8,400,,,
break_continue,html.Screen,4_85_2,2023-10-30T23:28:38.689Z,,0,,,NaN,,,,,,false,,,,446106.7999999998,446106.5,,446106.5,,446114.885,8,400,,,
sequence,flow.Sequence,4_85,2023-10-30T23:28:38.690Z,,0,,,5641.8369999999995,completion,,,,,false,,,,446106.9000000004,446106.5,440447.997,440450.2999999998,440464.663,446114.885,8,400,,,
trial,html.Screen,4_86_0,2023-10-30T23:28:41.879Z,,0,2,,3181.214999999618,response,ISIC_7296463.JPG,8,ISIC_3825641.JPG,ISIC_7296463.JPG,false,1,keypress(m),500,449296.5,449296.0999999996,446098.219,446107,446114.885,449298.091,8,400,37,,ISIC_3825641.JPG
break,html.Screen,4_86_1,2023-10-30T23:28:41.880Z,,0,,,NaN,,,,,,false,,,,449297.5,449297.2999999998,,449296.7999999998,,449298.091,8,400,,,
break_continue,html.Screen,4_86_2,2023-10-30T23:28:41.881Z,,0,,,NaN,,,,,,false,,,,449297.9000000004,449297.7000000002,,449297.7000000002,,449298.091,8,400,,,
sequence,flow.Sequence,4_86,2023-10-30T23:28:41.881Z,,0,,,3182.815000000177,completion,,,,,false,,,,449298.2000000002,449297.7000000002,446098.219,446106.9000000004,446114.885,449298.091,8,400,,,
trial,html.Screen,4_87_0,2023-10-30T23:28:45.709Z,,0,2,,3827.408999999985,response,ISIC_4619789.JPG,5,ISIC_0026264.JPG,ISIC_0026264.JPG,false,0,keypress(z),500,453125.9000000004,453125.5,449281.425,449298.2999999998,449298.091,453131.271,8,400,38,,ISIC_4619789.JPG
break,html.Screen,4_87_1,2023-10-30T23:28:45.710Z,,0,,,NaN,,,,,,false,,,,453127.0999999996,453126.7999999998,,453126.2999999998,,453131.271,8,400,,,
break_continue,html.Screen,4_87_2,2023-10-30T23:28:45.710Z,,0,,,NaN,,,,,,false,,,,453127.5,453127.4000000004,,453127.2000000002,,453131.271,8,400,,,
sequence,flow.Sequence,4_87,2023-10-30T23:28:45.710Z,,0,,,3829.3090000003576,completion,,,,,false,,,,453127.7000000002,453127.4000000004,449281.425,449298.2999999998,449298.091,453131.271,8,400,,,
trial,html.Screen,4_88_0,2023-10-30T23:28:48.999Z,,0,2,,3284.9290000001783,response,ISIC_9014786.JPG,8,ISIC_0027126.JPG,ISIC_9014786.JPG,false,1,keypress(m),500,456416.5,456416.2000000002,453114.605,453127.7999999998,453131.271,456431.603,8,400,39,,ISIC_0027126.JPG
break,html.Screen,4_88_1,2023-10-30T23:28:49.000Z,,0,,,NaN,,,,,,false,,,,456417.5999999996,456417.4000000004,,456416.9000000004,,456431.603,8,400,,,
break_continue,html.Screen,4_88_2,2023-10-30T23:28:49.001Z,,0,,,NaN,,,,,,false,,,,456417.9000000004,456417.7999999998,,456417.7000000002,,456431.603,8,400,,,
sequence,flow.Sequence,4_88,2023-10-30T23:28:49.001Z,,0,,,3286.528999999806,completion,,,,,false,,,,456418,456417.7999999998,453114.605,453127.7999999998,453131.271,456431.603,8,400,,,
trial,html.Screen,4_89_0,2023-10-30T23:28:52.080Z,,0,2,,3065.696999999811,response,ISIC_7592920.JPG,7,ISIC_0029363.JPG,ISIC_7592920.JPG,false,1,keypress(m),500,459497.5999999996,459497.2999999998,456414.937,456418.2000000002,456431.603,459514.813,8,400,40,,ISIC_0029363.JPG
break,html.Screen,4_89_1,2023-10-30T23:28:52.081Z,,0,,,NaN,,,,,,false,,,,459498.5999999996,459498.4000000004,,459497.9000000004,,459514.813,8,400,,,
break_continue,html.Screen,4_89_2,2023-10-30T23:28:52.082Z,,0,,,NaN,,,,,,false,,,,459498.9000000004,459498.7999999998,,459498.7999999998,,459514.813,8,400,,,
sequence,flow.Sequence,4_89,2023-10-30T23:28:52.082Z,,0,,,3067.196999999811,completion,,,,,false,,,,459499.2000000002,459498.7999999998,456414.937,456418.0999999996,456431.603,459514.813,8,400,,,
trial,html.Screen,4_90_0,2023-10-30T23:28:55.604Z,,0,2,,3506.3870000001625,response,ISIC_9351418.JPG,7,ISIC_9622250.JPG,ISIC_9622250.JPG,false,0,keypress(z),500,463021.7000000002,463021.2000000002,459498.147,459499.2999999998,459514.813,463048.005,8,400,41,,ISIC_9351418.JPG
break,html.Screen,4_90_1,2023-10-30T23:28:55.605Z,,0,,,NaN,,,,,,false,,,,463022.7000000002,463022.5,,463022,,463048.005,8,400,,,
break_continue,html.Screen,4_90_2,2023-10-30T23:28:55.606Z,,0,,,NaN,,,,,,false,,,,463023.0999999996,463023,,463022.7999999998,,463048.005,8,400,,,
sequence,flow.Sequence,4_90,2023-10-30T23:28:55.606Z,,0,,,3508.1869999999763,completion,,,,,false,,,,463023.2000000002,463023,459498.147,459499.2000000002,459514.813,463048.005,8,400,,,
trial,html.Screen,4_91_0,2023-10-30T23:28:58.491Z,,0,2,,2859.794999999809,response,ISIC_0027031.JPG,8,ISIC_0026009.JPG,ISIC_0027031.JPG,false,1,keypress(m),500,465908.2000000002,465907.7999999998,463031.339,463023.4000000004,463048.005,465914.951,8,400,42,,ISIC_0026009.JPG
break,html.Screen,4_91_1,2023-10-30T23:28:58.492Z,,0,,,NaN,,,,,,false,,,,465909.2999999998,465909.0999999996,,465908.5,,465914.951,8,400,,,
break_continue,html.Screen,4_91_2,2023-10-30T23:28:58.492Z,,0,,,NaN,,,,,,false,,,,465909.5999999996,465909.5,,465909.4000000004,,465914.951,8,400,,,
sequence,flow.Sequence,4_91,2023-10-30T23:28:58.493Z,,0,,,2861.4949999999953,completion,,,,,false,,,,465909.7999999998,465909.5,463031.339,463023.2999999998,463048.005,465914.951,8,400,,,
trial,html.Screen,4_92_0,2023-10-30T23:29:01.540Z,,0,2,,3041.6489999996265,response,ISIC_1757941.JPG,9,ISIC_2461360.JPG,ISIC_1757941.JPG,false,1,keypress(m),500,468957.0999999996,468956.5999999996,465898.285,465909.9000000004,465914.951,468964.829,8,400,43,,ISIC_2461360.JPG
break,html.Screen,4_92_1,2023-10-30T23:29:01.540Z,,0,,,NaN,,,,,,false,,,,468957.7999999998,468957.5,,468957.2000000002,,468964.829,8,400,,,
break_continue,html.Screen,4_92_2,2023-10-30T23:29:01.541Z,,0,,,NaN,,,,,,false,,,,468958,468957.9000000004,,468957.9000000004,,468964.829,8,400,,,
sequence,flow.Sequence,4_92,2023-10-30T23:29:01.541Z,,0,,,3042.9490000003716,completion,,,,,false,,,,468958.2000000002,468957.9000000004,465898.285,465909.9000000004,465914.951,468964.829,8,400,,,
trial,html.Screen,4_93_0,2023-10-30T23:29:05.291Z,,0,2,,3742.4709999997867,response,ISIC_0779920.JPG,8,ISIC_2238901.JPG,ISIC_2238901.JPG,false,0,keypress(z),500,472707.7999999998,472707.2999999998,468948.163,468958.2999999998,468964.829,472714.679,8,400,44,,ISIC_0779920.JPG
break,html.Screen,4_93_1,2023-10-30T23:29:05.292Z,,0,,,NaN,,,,,,false,,,,472708.9000000004,472708.5999999996,,472708.0999999996,,472714.679,8,400,,,
break_continue,html.Screen,4_93_2,2023-10-30T23:29:05.292Z,,0,,,NaN,,,,,,false,,,,472709.2000000002,472709.0999999996,,472708.9000000004,,472714.679,8,400,,,
sequence,flow.Sequence,4_93,2023-10-30T23:29:05.292Z,,0,,,3744.2709999996005,completion,,,,,false,,,,472709.4000000004,472709.0999999996,468948.163,468958.2999999998,468964.829,472714.679,8,400,,,
trial,html.Screen,4_94_0,2023-10-30T23:29:08.689Z,,0,2,,3391.3209999999963,response,ISIC_0025724.JPG,8,ISIC_0004486.JPG,ISIC_0004486.JPG,false,0,keypress(z),500,476106.5,476106,472698.013,472709.5,472714.679,476114.917,8,400,45,,ISIC_0025724.JPG
break,html.Screen,4_94_1,2023-10-30T23:29:08.690Z,,0,,,NaN,,,,,,false,,,,476107.5999999996,476107.4000000004,,476106.7999999998,,476114.917,8,400,,,
break_continue,html.Screen,4_94_2,2023-10-30T23:29:08.691Z,,0,,,NaN,,,,,,false,,,,476108,476107.7999999998,,476107.7000000002,,476114.917,8,400,,,
sequence,flow.Sequence,4_94,2023-10-30T23:29:08.691Z,,0,,,3393.12099999981,completion,,,,,false,,,,476108.0999999996,476107.7999999998,472698.013,472709.5,472714.679,476114.917,8,400,,,
trial,html.Screen,4_95_0,2023-10-30T23:29:12.263Z,,0,2,,3564.6829999996116,response,ISIC_0004789.JPG,8,ISIC_9103090.JPG,ISIC_0004789.JPG,false,1,keypress(m),500,479680,479679.5999999996,476098.251,476108.2000000002,476114.917,479681.441,8,400,46,,ISIC_9103090.JPG
break,html.Screen,4_95_1,2023-10-30T23:29:12.264Z,,0,,,NaN,,,,,,false,,,,479681,479680.7999999998,,479680.2999999998,,479681.441,8,400,,,
break_continue,html.Screen,4_95_2,2023-10-30T23:29:12.264Z,,0,,,NaN,,,,,,false,,,,479681.5,479681.2999999998,,479681.2000000002,,479681.441,8,400,,,
sequence,flow.Sequence,4_95,2023-10-30T23:29:12.264Z,,0,,,3566.382999999798,completion,,,,,false,,,,479681.7000000002,479681.2999999998,476098.251,476108.2000000002,476114.917,479681.441,8,400,,,
trial,html.Screen,4_96_0,2023-10-30T23:29:15.779Z,,0,2,,3514.0590000000084,response,ISIC_0028759.JPG,8,ISIC_0014308.JPG,ISIC_0014308.JPG,false,0,keypress(z),500,483195.9000000004,483195.5,479664.775,479681.9000000004,479681.441,483197.967,8,400,47,,ISIC_0028759.JPG
break,html.Screen,4_96_1,2023-10-30T23:29:15.780Z,,0,,,NaN,,,,,,false,,,,483196.9000000004,483196.7999999998,,483196.2000000002,,483197.967,8,400,,,
break_continue,html.Screen,4_96_2,2023-10-30T23:29:15.780Z,,0,,,NaN,,,,,,false,,,,483197.4000000004,483197.2000000002,,483197,,483197.967,8,400,,,
sequence,flow.Sequence,4_96,2023-10-30T23:29:15.780Z,,0,,,3515.7590000001946,completion,,,,,false,,,,483197.5,483197.2000000002,479664.775,479681.7999999998,479681.441,483197.967,8,400,,,
trial,html.Screen,4_97_0,2023-10-30T23:29:18.809Z,,0,2,,3027.9330000003683,response,ISIC_3566243.JPG,5,ISIC_8257549.JPG,ISIC_3566243.JPG,false,1,keypress(m),500,486226.0999999996,486225.9000000004,483181.301,483197.7000000002,483197.967,486231.514,8,400,48,,ISIC_8257549.JPG
break,html.Screen,4_97_1,2023-10-30T23:29:18.810Z,,0,,,NaN,,,,,,false,,,,486226.7999999998,486226.7000000002,,486226.4000000004,,486231.514,8,400,,,
break_continue,html.Screen,4_97_2,2023-10-30T23:29:18.810Z,,0,,,NaN,,,,,,false,,,,486227,486226.9000000004,,486226.9000000004,,486231.514,8,400,,,
sequence,flow.Sequence,4_97,2023-10-30T23:29:18.810Z,,0,,,3028.9330000003683,completion,,,,,false,,,,486227.0999999996,486226.9000000004,483181.301,483197.5999999996,483197.967,486231.514,8,400,,,
trial,html.Screen,4_98_0,2023-10-30T23:29:23.614Z,,0,2,,4798.886000000348,response,ISIC_7482149.JPG,8,ISIC_0010432.JPG,ISIC_7482149.JPG,false,1,keypress(m),500,491030.7999999998,491030.4000000004,486214.848,486227.2000000002,486231.514,491047.988,8,400,49,,ISIC_0010432.JPG
break,html.Screen,4_98_1,2023-10-30T23:29:23.615Z,,0,,,NaN,,,,,,false,,,,491032,491031.7000000002,,491031.2000000002,,491047.988,8,400,,,
break_continue,html.Screen,4_98_2,2023-10-30T23:29:23.615Z,,0,,,NaN,,,,,,false,,,,491032.5,491032.2999999998,,491032.2000000002,,491047.988,8,400,,,
sequence,flow.Sequence,4_98,2023-10-30T23:29:23.615Z,,0,,,4800.785999999789,completion,,,,,false,,,,491032.7000000002,491032.2999999998,486214.848,486227.2000000002,486231.514,491047.988,8,400,,,
trial,html.Screen,4_99_0,2023-10-30T23:29:26.330Z,,0,2,,2698.4120000003604,response,ISIC_0010690.JPG,9,ISIC_0386664.JPG,ISIC_0386664.JPG,false,0,keypress(z),500,493746.7999999998,493746.4000000004,491031.322,491032.7999999998,491047.988,493747.88,8,400,50,,ISIC_0010690.JPG
break,html.Screen,4_99_1,2023-10-30T23:29:36.318Z,,0,,,10000.005999999994,timeout,,,,,false,,,,503735.5,503731.22,493731.214,493747.0999999996,493747.88,503747.886,8,400,,,
break_continue,html.Screen,4_99_2,2023-10-30T23:29:52.765Z,,0,,,16418.314000000188,response,,,,,false,continue,keypress(Space),,520182.0999999996,520166.2000000002,503731.22,503735.7999999998,503747.886,520197.228,8,400,,,
sequence,flow.Sequence,4_99,2023-10-30T23:29:52.765Z,,0,,,29118.212000000174,completion,,,,,false,,,,520182.2000000002,520166.2000000002,491031.322,491032.7000000002,491047.988,520197.228,8,400,,,
trial,html.Screen,4_100_0,2023-10-30T23:30:03.637Z,,0,3,,10855.871999999625,response,ISIC_2743014.JPG,8,ISIC_9738202.JPG,ISIC_9738202.JPG,false,0,keypress(z),500,531053.7000000002,531053.0999999996,520180.562,520182.2999999998,520197.228,531064.722,8,400,1,,ISIC_2743014.JPG
break,html.Screen,4_100_1,2023-10-30T23:30:03.638Z,,0,,,NaN,,,,,,false,,,,531054.7999999998,531054.5999999996,,531054.0999999996,,531064.722,8,400,,,
break_continue,html.Screen,4_100_2,2023-10-30T23:30:03.638Z,,0,,,NaN,,,,,,false,,,,531055.2999999998,531055.0999999996,,531055,,531064.722,8,400,,,
sequence,flow.Sequence,4_100,2023-10-30T23:30:03.638Z,,0,,,10857.871999999625,completion,,,,,false,,,,531055.4000000004,531055.0999999996,520180.562,520182.2999999998,520197.228,531064.722,8,400,,,
trial,html.Screen,4_101_0,2023-10-30T23:30:07.227Z,,0,3,,3579.077999999863,response,ISIC_0011531.JPG,8,ISIC_0065775.JPG,ISIC_0011531.JPG,false,1,keypress(m),500,534644.2999999998,534643.7999999998,531048.056,531055.5999999996,531064.722,534647.912,8,400,2,,ISIC_0065775.JPG
break,html.Screen,4_101_1,2023-10-30T23:30:07.228Z,,0,,,NaN,,,,,,false,,,,534645.2999999998,534645.0999999996,,534644.5999999996,,534647.912,8,400,,,
break_continue,html.Screen,4_101_2,2023-10-30T23:30:07.229Z,,0,,,NaN,,,,,,false,,,,534645.7000000002,534645.5,,534645.4000000004,,534647.912,8,400,,,
sequence,flow.Sequence,4_101,2023-10-30T23:30:07.229Z,,0,,,3580.7780000000494,completion,,,,,false,,,,534645.9000000004,534645.5,531048.056,531055.5,531064.722,534647.912,8,400,,,
trial,html.Screen,4_102_0,2023-10-30T23:30:09.555Z,,0,3,,2323.4880000003614,response,ISIC_0058625.JPG,7,ISIC_0024565.JPG,ISIC_0024565.JPG,false,0,keypress(z),500,536972.0999999996,536971.4000000004,534631.246,534646,534647.912,536981.152,8,400,3,,ISIC_0058625.JPG
break,html.Screen,4_102_1,2023-10-30T23:30:09.556Z,,0,,,NaN,,,,,,false,,,,536973.2000000002,536972.9000000004,,536972.2999999998,,536981.152,8,400,,,
break_continue,html.Screen,4_102_2,2023-10-30T23:30:09.556Z,,0,,,NaN,,,,,,false,,,,536973.5999999996,536973.5,,536973.2999999998,,536981.152,8,400,,,
sequence,flow.Sequence,4_102,2023-10-30T23:30:09.557Z,,0,,,2325.587999999989,completion,,,,,false,,,,536973.7999999998,536973.5,534631.246,534646,534647.912,536981.152,8,400,,,
trial,html.Screen,4_103_0,2023-10-30T23:30:12.154Z,,0,3,,2589.5480000001844,response,ISIC_4328662.JPG,8,ISIC_0056316.JPG,ISIC_4328662.JPG,false,1,keypress(m),500,539571,539570.7000000002,536964.486,536973.9000000004,536981.152,539581.048,8,400,4,,ISIC_0056316.JPG
break,html.Screen,4_103_1,2023-10-30T23:30:12.155Z,,0,,,NaN,,,,,,false,,,,539572.0999999996,539571.7999999998,,539571.2999999998,,539581.048,8,400,,,
break_continue,html.Screen,4_103_2,2023-10-30T23:30:12.155Z,,0,,,NaN,,,,,,false,,,,539572.5,539572.2999999998,,539572.2000000002,,539581.048,8,400,,,
sequence,flow.Sequence,4_103,2023-10-30T23:30:12.156Z,,0,,,2591.147999999812,completion,,,,,false,,,,539572.7000000002,539572.2999999998,536964.486,536973.9000000004,536981.152,539581.048,8,400,,,
trial,html.Screen,4_104_0,2023-10-30T23:30:14.577Z,,0,3,,2412.1520000002347,response,ISIC_6280523.JPG,8,ISIC_0033799.JPG,ISIC_0033799.JPG,false,0,keypress(z),500,541993.7000000002,541993.2000000002,539564.382,539572.7999999998,539581.048,541998,8,400,5,,ISIC_6280523.JPG
break,html.Screen,4_104_1,2023-10-30T23:30:14.578Z,,0,,,NaN,,,,,,false,,,,541994.7000000002,541994.4000000004,,541993.9000000004,,541998,8,400,,,
break_continue,html.Screen,4_104_2,2023-10-30T23:30:14.578Z,,0,,,NaN,,,,,,false,,,,541995.0999999996,541994.9000000004,,541994.9000000004,,541998,8,400,,,
sequence,flow.Sequence,4_104,2023-10-30T23:30:14.578Z,,0,,,2413.852000000421,completion,,,,,false,,,,541995.2000000002,541994.9000000004,539564.382,539572.7999999998,539581.048,541998,8,400,,,
trial,html.Screen,4_105_0,2023-10-30T23:30:16.870Z,,0,3,,2289,response,ISIC_0316668.JPG,8,ISIC_0010050.JPG,ISIC_0316668.JPG,false,1,keypress(m),500,544287.4000000004,544287,541981.334,541995.4000000004,541998,544297.908,8,400,6,,ISIC_0010050.JPG
break,html.Screen,4_105_1,2023-10-30T23:30:16.871Z,,0,,,NaN,,,,,,false,,,,544288.4000000004,544288.2000000002,,544287.7000000002,,544297.908,8,400,,,
break_continue,html.Screen,4_105_2,2023-10-30T23:30:16.872Z,,0,,,NaN,,,,,,false,,,,544288.7999999998,544288.7000000002,,544288.5999999996,,544297.908,8,400,,,
sequence,flow.Sequence,4_105,2023-10-30T23:30:16.872Z,,0,,,2290.7000000001863,completion,,,,,false,,,,544289,544288.7000000002,541981.334,541995.2999999998,541998,544297.908,8,400,,,
trial,html.Screen,4_106_0,2023-10-30T23:30:20.156Z,,0,3,,3275.2920000001322,response,ISIC_5490257.JPG,8,ISIC_0034087.JPG,ISIC_0034087.JPG,false,0,keypress(z),500,547573.7000000002,547573.2000000002,544281.242,544289.0999999996,544297.908,547581.11,8,400,7,,ISIC_5490257.JPG
break,html.Screen,4_106_1,2023-10-30T23:30:20.157Z,,0,,,NaN,,,,,,false,,,,547574.5999999996,547574.4000000004,,547573.9000000004,,547581.11,8,400,,,
break_continue,html.Screen,4_106_2,2023-10-30T23:30:20.158Z,,0,,,NaN,,,,,,false,,,,547575,547574.9000000004,,547574.7999999998,,547581.11,8,400,,,
sequence,flow.Sequence,4_106,2023-10-30T23:30:20.158Z,,0,,,3276.9920000003185,completion,,,,,false,,,,547575.2000000002,547574.9000000004,544281.242,544289.0999999996,544297.908,547581.11,8,400,,,
trial,html.Screen,4_107_0,2023-10-30T23:30:23.316Z,,0,3,,3151.6899999998277,response,ISIC_4582670.JPG,8,ISIC_1258763.JPG,ISIC_4582670.JPG,false,1,keypress(m),500,550733.2999999998,550732.7999999998,547564.444,547575.2999999998,547581.11,550747.65,8,400,8,,ISIC_1258763.JPG
break,html.Screen,4_107_1,2023-10-30T23:30:23.317Z,,0,,,NaN,,,,,,false,,,,550734.5,550734.2999999998,,550733.7000000002,,550747.65,8,400,,,
break_continue,html.Screen,4_107_2,2023-10-30T23:30:23.318Z,,0,,,NaN,,,,,,false,,,,550735,550734.7999999998,,550734.7000000002,,550747.65,8,400,,,
sequence,flow.Sequence,4_107,2023-10-30T23:30:23.318Z,,0,,,3153.6899999998277,completion,,,,,false,,,,550735.0999999996,550734.7999999998,547564.444,547575.2000000002,547581.11,550747.65,8,400,,,
trial,html.Screen,4_108_0,2023-10-30T23:30:26.074Z,,0,3,,2742.8499999999767,response,ISIC_0033119.JPG,8,ISIC_8145260.JPG,ISIC_8145260.JPG,false,0,keypress(z),500,553491,553490.5,550730.984,550735.2999999998,550747.65,553497.913,8,400,9,,ISIC_0033119.JPG
break,html.Screen,4_108_1,2023-10-30T23:30:26.075Z,,0,,,NaN,,,,,,false,,,,553492,553491.7999999998,,553491.2999999998,,553497.913,8,400,,,
break_continue,html.Screen,4_108_2,2023-10-30T23:30:26.075Z,,0,,,NaN,,,,,,false,,,,553492.4000000004,553492.2999999998,,553492.0999999996,,553497.913,8,400,,,
sequence,flow.Sequence,4_108,2023-10-30T23:30:26.075Z,,0,,,2744.6499999997905,completion,,,,,false,,,,553492.4000000004,553492.2999999998,550730.984,550735.2000000002,550747.65,553497.913,8,400,,,
trial,html.Screen,4_109_0,2023-10-30T23:30:28.830Z,,0,3,,2749.0870000000577,response,ISIC_1937197.JPG,5,ISIC_1384527.JPG,ISIC_1384527.JPG,false,0,keypress(z),500,556247.4000000004,556247,553481.247,553492.5999999996,553497.913,556264.469,8,400,10,,ISIC_1937197.JPG
break,html.Screen,4_109_1,2023-10-30T23:30:28.831Z,,0,,,NaN,,,,,,false,,,,556248.5999999996,556248.2999999998,,556247.7999999998,,556264.469,8,400,,,
break_continue,html.Screen,4_109_2,2023-10-30T23:30:28.832Z,,0,,,NaN,,,,,,false,,,,556248.9000000004,556248.7000000002,,556248.7000000002,,556264.469,8,400,,,
sequence,flow.Sequence,4_109,2023-10-30T23:30:28.832Z,,0,,,2750.787000000244,completion,,,,,false,,,,556249.0999999996,556248.7000000002,553481.247,553492.5999999996,553497.913,556264.469,8,400,,,
trial,html.Screen,4_110_0,2023-10-30T23:30:32.229Z,,0,3,,3381.530999999959,response,ISIC_0064472.JPG,8,ISIC_0476606.JPG,ISIC_0476606.JPG,false,0,keypress(z),500,559646.2999999998,559646,556247.803,556249.2000000002,556264.469,559647.667,8,400,11,,ISIC_0064472.JPG
break,html.Screen,4_110_1,2023-10-30T23:30:32.230Z,,0,,,NaN,,,,,,false,,,,559646.9000000004,559646.7999999998,,559646.5999999996,,559647.667,8,400,,,
break_continue,html.Screen,4_110_2,2023-10-30T23:30:32.230Z,,0,,,NaN,,,,,,false,,,,559647.0999999996,559647.0999999996,,559647,,559647.667,8,400,,,
sequence,flow.Sequence,4_110,2023-10-30T23:30:32.230Z,,0,,,3382.6309999995865,completion,,,,,false,,,,559647.2000000002,559647.0999999996,556247.803,556249.0999999996,556264.469,559647.667,8,400,,,
trial,html.Screen,4_111_0,2023-10-30T23:30:35.773Z,,0,3,,3541.7330000003567,response,ISIC_9364740.JPG,7,ISIC_1453146.JPG,ISIC_9364740.JPG,false,1,keypress(m),500,563189.9000000004,563189.4000000004,559631.001,559647.2999999998,559647.667,563197.908,8,400,12,,ISIC_1453146.JPG
break,html.Screen,4_111_1,2023-10-30T23:30:35.774Z,,0,,,NaN,,,,,,false,,,,563190.9000000004,563190.5999999996,,563190.2000000002,,563197.908,8,400,,,
break_continue,html.Screen,4_111_2,2023-10-30T23:30:35.774Z,,0,,,NaN,,,,,,false,,,,563191.2999999998,563191.0999999996,,563191,,563197.908,8,400,,,
sequence,flow.Sequence,4_111,2023-10-30T23:30:35.774Z,,0,,,3543.4329999996116,completion,,,,,false,,,,563191.4000000004,563191.0999999996,559631.001,559647.2000000002,559647.667,563197.908,8,400,,,
trial,html.Screen,4_112_0,2023-10-30T23:30:38.536Z,,0,3,,2754.8919999997597,response,ISIC_6298726.JPG,6,ISIC_0000072.JPG,ISIC_0000072.JPG,false,0,keypress(z),500,565953.2000000002,565952.7999999998,563181.242,563191.5999999996,563197.908,565964.464,8,400,13,,ISIC_6298726.JPG
break,html.Screen,4_112_1,2023-10-30T23:30:38.537Z,,0,,,NaN,,,,,,false,,,,565954.2999999998,565954,,565953.5999999996,,565964.464,8,400,,,
break_continue,html.Screen,4_112_2,2023-10-30T23:30:38.538Z,,0,,,NaN,,,,,,false,,,,565954.7000000002,565954.5,,565954.4000000004,,565964.464,8,400,,,
sequence,flow.Sequence,4_112,2023-10-30T23:30:38.538Z,,0,,,2756.591999999946,completion,,,,,false,,,,565954.9000000004,565954.5,563181.242,563191.5999999996,563197.908,565964.464,8,400,,,
trial,html.Screen,4_113_0,2023-10-30T23:30:41.772Z,,0,3,,3224.436000000336,response,ISIC_7125023.JPG,8,ISIC_7412327.JPG,ISIC_7125023.JPG,false,1,keypress(m),500,569189.4000000004,569188.9000000004,565947.798,565955,565964.464,569197.668,8,400,14,,ISIC_7412327.JPG
break,html.Screen,4_113_1,2023-10-30T23:30:41.773Z,,0,,,NaN,,,,,,false,,,,569190.4000000004,569190.2000000002,,569189.5999999996,,569197.668,8,400,,,
break_continue,html.Screen,4_113_2,2023-10-30T23:30:41.774Z,,0,,,NaN,,,,,,false,,,,569190.7999999998,569190.7000000002,,569190.5,,569197.668,8,400,,,
sequence,flow.Sequence,4_113,2023-10-30T23:30:41.774Z,,0,,,3226.23600000015,completion,,,,,false,,,,569190.9000000004,569190.7000000002,565947.798,565955,565964.464,569197.668,8,400,,,
trial,html.Screen,4_114_0,2023-10-30T23:30:44.824Z,,0,3,,3042.5320000002393,response,ISIC_0055526.JPG,6,ISIC_0031671.JPG,ISIC_0031671.JPG,false,0,keypress(z),500,572240.5999999996,572240.2000000002,569181.002,569191.0999999996,569197.668,572247.934,8,400,15,,ISIC_0055526.JPG
break,html.Screen,4_114_1,2023-10-30T23:30:44.825Z,,0,,,NaN,,,,,,false,,,,572241.5999999996,572241.4000000004,,572240.9000000004,,572247.934,8,400,,,
break_continue,html.Screen,4_114_2,2023-10-30T23:30:44.825Z,,0,,,NaN,,,,,,false,,,,572242,572241.9000000004,,572241.7000000002,,572247.934,8,400,,,
sequence,flow.Sequence,4_114,2023-10-30T23:30:44.825Z,,0,,,3044.2320000004256,completion,,,,,false,,,,572242.0999999996,572241.9000000004,569181.002,569191,569197.668,572247.934,8,400,,,
trial,html.Screen,4_115_0,2023-10-30T23:30:47.857Z,,0,3,,3026.0659999999916,response,ISIC_0010581.JPG,5,ISIC_0055776.JPG,ISIC_0010581.JPG,false,1,keypress(m),500,575274.2999999998,575274,572231.268,572242.2999999998,572247.934,575281.146,8,400,16,,ISIC_0055776.JPG
break,html.Screen,4_115_1,2023-10-30T23:30:47.858Z,,0,,,NaN,,,,,,false,,,,575275.4000000004,575275.2000000002,,575274.7000000002,,575281.146,8,400,,,
break_continue,html.Screen,4_115_2,2023-10-30T23:30:47.859Z,,0,,,NaN,,,,,,false,,,,575275.7999999998,575275.5999999996,,575275.5,,575281.146,8,400,,,
sequence,flow.Sequence,4_115,2023-10-30T23:30:47.859Z,,0,,,3027.665999999619,completion,,,,,false,,,,575276,575275.5999999996,572231.268,572242.2000000002,572247.934,575281.146,8,400,,,
trial,html.Screen,4_116_0,2023-10-30T23:30:51.031Z,,0,3,,3166.153999999864,response,ISIC_0253516.JPG,8,ISIC_7339533.JPG,ISIC_7339533.JPG,false,0,keypress(z),500,578447.7999999998,578447.2999999998,575264.48,575276.0999999996,575281.146,578464.352,8,400,17,,ISIC_0253516.JPG
break,html.Screen,4_116_1,2023-10-30T23:30:51.032Z,,0,,,NaN,,,,,,false,,,,578448.7999999998,578448.5999999996,,578448.0999999996,,578464.352,8,400,,,
break_continue,html.Screen,4_116_2,2023-10-30T23:30:51.032Z,,0,,,NaN,,,,,,false,,,,578449.2000000002,578449.0999999996,,578448.9000000004,,578464.352,8,400,,,
sequence,flow.Sequence,4_116,2023-10-30T23:30:51.032Z,,0,,,3167.9539999996778,completion,,,,,false,,,,578449.2999999998,578449.0999999996,575264.48,575276.0999999996,575281.146,578464.352,8,400,,,
trial,html.Screen,4_117_0,2023-10-30T23:30:54.109Z,,0,3,,3061.0480000004172,response,ISIC_0065013.JPG,7,ISIC_7047780.JPG,ISIC_7047780.JPG,false,0,keypress(z),500,581525.9000000004,581525.4000000004,578447.686,578449.5,578464.352,581530.896,8,400,18,,ISIC_0065013.JPG
break,html.Screen,4_117_1,2023-10-30T23:30:54.110Z,,0,,,NaN,,,,,,false,,,,581527,581526.7000000002,,581526.2000000002,,581530.896,8,400,,,
break_continue,html.Screen,4_117_2,2023-10-30T23:30:54.110Z,,0,,,NaN,,,,,,false,,,,581527.2999999998,581527.2000000002,,581527,,581530.896,8,400,,,
sequence,flow.Sequence,4_117,2023-10-30T23:30:54.110Z,,0,,,3062.848000000231,completion,,,,,false,,,,581527.5,581527.2000000002,578447.686,578449.4000000004,578464.352,581530.896,8,400,,,
trial,html.Screen,4_118_0,2023-10-30T23:30:58.500Z,,0,3,,4386.004000000423,response,ISIC_9219692.JPG,8,ISIC_0070244.JPG,ISIC_0070244.JPG,false,0,keypress(z),500,585917.0999999996,585916.9000000004,581514.23,581527.5999999996,581530.896,585931.08,8,400,19,,ISIC_9219692.JPG
break,html.Screen,4_118_1,2023-10-30T23:30:58.500Z,,0,,,NaN,,,,,,false,,,,585917.5,585917.4000000004,,585917.0999999996,,585931.08,8,400,,,
break_continue,html.Screen,4_118_2,2023-10-30T23:30:58.501Z,,0,,,NaN,,,,,,false,,,,585917.5999999996,585917.5999999996,,585917.5,,585931.08,8,400,,,
sequence,flow.Sequence,4_118,2023-10-30T23:30:58.501Z,,0,,,4386.703999999678,completion,,,,,false,,,,585917.7000000002,585917.5999999996,581514.23,581527.5,581530.896,585931.08,8,400,,,
trial,html.Screen,4_119_0,2023-10-30T23:31:02.151Z,,0,3,,3636.420000000042,response,ISIC_9727132.JPG,7,ISIC_0071289.JPG,ISIC_9727132.JPG,false,1,keypress(m),500,589568,589567.5,585914.414,585917.7000000002,585931.08,589580.934,8,400,20,,ISIC_0071289.JPG
break,html.Screen,4_119_1,2023-10-30T23:31:02.152Z,,0,,,NaN,,,,,,false,,,,589569,589568.7999999998,,589568.2999999998,,589580.934,8,400,,,
break_continue,html.Screen,4_119_2,2023-10-30T23:31:02.152Z,,0,,,NaN,,,,,,false,,,,589569.4000000004,589569.2000000002,,589569.0999999996,,589580.934,8,400,,,
sequence,flow.Sequence,4_119,2023-10-30T23:31:02.153Z,,0,,,3638.120000000228,completion,,,,,false,,,,589569.5999999996,589569.2000000002,585914.414,585917.7000000002,585931.08,589580.934,8,400,,,
trial,html.Screen,4_120_0,2023-10-30T23:31:05.260Z,,0,3,,3095.466000000364,response,ISIC_0030238.JPG,9,ISIC_0026369.JPG,ISIC_0026369.JPG,false,0,keypress(z),500,592676.7999999998,592676.4000000004,589564.268,589569.7000000002,589580.934,592681.199,8,400,21,,ISIC_0030238.JPG
break,html.Screen,4_120_1,2023-10-30T23:31:05.261Z,,0,,,NaN,,,,,,false,,,,592677.9000000004,592677.5999999996,,592677.0999999996,,592681.199,8,400,,,
break_continue,html.Screen,4_120_2,2023-10-30T23:31:05.261Z,,0,,,NaN,,,,,,false,,,,592678.2999999998,592678.2000000002,,592678,,592681.199,8,400,,,
sequence,flow.Sequence,4_120,2023-10-30T23:31:05.261Z,,0,,,3097.266000000178,completion,,,,,false,,,,592678.4000000004,592678.2000000002,589564.268,589569.7000000002,589580.934,592681.199,8,400,,,
trial,html.Screen,4_121_0,2023-10-30T23:31:08.243Z,,0,3,,2978.400999999605,response,ISIC_0060266.JPG,8,ISIC_1640823.JPG,ISIC_1640823.JPG,false,0,keypress(z),500,595660.0999999996,595659.5999999996,592664.533,592678.7000000002,592681.199,595664.413,8,400,22,,ISIC_0060266.JPG
break,html.Screen,4_121_1,2023-10-30T23:31:08.244Z,,0,,,NaN,,,,,,false,,,,595661.0999999996,595660.9000000004,,595660.4000000004,,595664.413,8,400,,,
break_continue,html.Screen,4_121_2,2023-10-30T23:31:08.244Z,,0,,,NaN,,,,,,false,,,,595661.5,595661.2999999998,,595661.2000000002,,595664.413,8,400,,,
sequence,flow.Sequence,4_121,2023-10-30T23:31:08.245Z,,0,,,2980.1009999997914,completion,,,,,false,,,,595661.5999999996,595661.2999999998,592664.533,592678.5999999996,592681.199,595664.413,8,400,,,
trial,html.Screen,4_122_0,2023-10-30T23:31:11.967Z,,0,3,,3718.686999999685,response,ISIC_0053594.JPG,8,ISIC_3684488.JPG,ISIC_0053594.JPG,false,1,keypress(m),500,599383.5999999996,599383.0999999996,595647.747,595661.7999999998,595664.413,599397.597,8,400,23,,ISIC_3684488.JPG
break,html.Screen,4_122_1,2023-10-30T23:31:11.968Z,,0,,,NaN,,,,,,false,,,,599384.7000000002,599384.5,,599384,,599397.597,8,400,,,
break_continue,html.Screen,4_122_2,2023-10-30T23:31:11.968Z,,0,,,NaN,,,,,,false,,,,599385.2000000002,599385,,599384.7999999998,,599397.597,8,400,,,
sequence,flow.Sequence,4_122,2023-10-30T23:31:11.968Z,,0,,,3720.5870000000577,completion,,,,,false,,,,599385.2999999998,599385,595647.747,595661.7999999998,595664.413,599397.597,8,400,,,
trial,html.Screen,4_123_0,2023-10-30T23:31:15.236Z,,0,3,,3255.202999999863,response,ISIC_8301536.JPG,8,ISIC_0028910.JPG,ISIC_0028910.JPG,false,0,keypress(z),500,602653.4000000004,602652.7999999998,599380.931,599385.2999999998,599397.597,602681.165,8,400,24,,ISIC_8301536.JPG
break,html.Screen,4_123_1,2023-10-30T23:31:15.237Z,,0,,,NaN,,,,,,false,,,,602654.4000000004,602654.2000000002,,602653.5999999996,,602681.165,8,400,,,
break_continue,html.Screen,4_123_2,2023-10-30T23:31:15.238Z,,0,,,NaN,,,,,,false,,,,602654.9000000004,602654.7000000002,,602654.5999999996,,602681.165,8,400,,,
sequence,flow.Sequence,4_123,2023-10-30T23:31:15.238Z,,0,,,3257.1030000002356,completion,,,,,false,,,,602655.0999999996,602654.7000000002,599380.931,599385.2999999998,599397.597,602681.165,8,400,,,
trial,html.Screen,4_124_0,2023-10-30T23:31:20.763Z,,0,3,,5498.035000000149,response,ISIC_1805921.JPG,8,ISIC_8101493.JPG,ISIC_1805921.JPG,false,1,keypress(m),500,608179.7000000002,608179.2000000002,602664.499,602655.2999999998,602681.165,608180.945,8,400,25,,ISIC_8101493.JPG
break,html.Screen,4_124_1,2023-10-30T23:31:20.764Z,,0,,,NaN,,,,,,false,,,,608180.7000000002,608180.5,,608180,,608180.945,8,400,,,
break_continue,html.Screen,4_124_2,2023-10-30T23:31:20.764Z,,0,,,NaN,,,,,,false,,,,608181.2000000002,608181,,608180.9000000004,,608180.945,8,400,,,
sequence,flow.Sequence,4_124,2023-10-30T23:31:20.764Z,,0,,,5499.834999999963,completion,,,,,false,,,,608181.2999999998,608181,602664.499,602655.0999999996,602681.165,608180.945,8,400,,,
trial,html.Screen,4_125_0,2023-10-30T23:31:26.081Z,,0,3,,5316.7550000002375,response,ISIC_0014826.JPG,8,ISIC_0025219.JPG,ISIC_0014826.JPG,false,1,keypress(m),500,613498.2000000002,613497.7000000002,608164.279,608181.2999999998,608180.945,613514.344,8,400,26,,ISIC_0025219.JPG
break,html.Screen,4_125_1,2023-10-30T23:31:26.082Z,,0,,,NaN,,,,,,false,,,,613499.2999999998,613499.0999999996,,613498.5,,613514.344,8,400,,,
break_continue,html.Screen,4_125_2,2023-10-30T23:31:26.083Z,,0,,,NaN,,,,,,false,,,,613499.7000000002,613499.5999999996,,613499.5,,613514.344,8,400,,,
sequence,flow.Sequence,4_125,2023-10-30T23:31:26.083Z,,0,,,5318.654999999679,completion,,,,,false,,,,613500,613499.5999999996,608164.279,608181.2999999998,608180.945,613514.344,8,400,,,
trial,html.Screen,4_126_0,2023-10-30T23:31:30.279Z,,0,3,,4181.655999999959,response,ISIC_0054527.JPG,7,ISIC_9473492.JPG,ISIC_9473492.JPG,false,0,keypress(z),500,617696.4000000004,617696,613497.678,613500.0999999996,613514.344,617697.51,8,400,27,,ISIC_0054527.JPG
