sender,sender_type,sender_id,timestamp,meta,,blockNo,condition,duration,ended_on,img_left,img_reveal,img_right,loser,practice,response,response_action,selection_duration,time_commit,time_end,time_render,time_run,time_show,time_switch,total_blocks,total_trials,trialNo,url,winner
informed_consent,html.Screen,0,2023-09-06T19:16:51.820Z,"{""labjs_version"":""20.2.4"",""labjs_build"":{""flavor"":""production"",""commit"":""f5b4a49f956347addd546a832a3327688c2c0fef""},""location"":""https://run.pavlovia.org/MurrayBennett/melanoma-2afc/?participant=60fe2c4662ca0c1aa5e6016a&STUDY_ID=64f8c92207ba404bcb356c90&SESSION_ID=64f8d0176f7189af94049569&platform=prolific"",""userAgent"":""Mozilla/5.0 (Windows NT 10.0; Win64; x64) AppleWebKit/537.36 (KHTML, like Gecko) Chrome/111.0.0.0 Safari/537.36"",""platform"":""Win32"",""language"":""en-US"",""locale"":""en-US"",""timeZone"":""America/New_York"",""timezoneOffset"":240,""screen_width"":1536,""screen_height"":864,""scroll_width"":1536,""scroll_height"":706,""window_innerWidth"":1536,""window_innerHeight"":754,""devicePixelRatio"":1.25}",,,,3918.337,response,,,,,,consent,click button,,6280.300001144409,6278.5,2343.519,2354.800001144409,2360.163,6292.552,,,,"{""participant"":""60fe2c4662ca0c1aa5e6016a"",""STUDY_ID"":""64f8c92207ba404bcb356c90"",""SESSION_ID"":""64f8d0176f7189af94049569"",""platform"":""prolific""}",
Welcome,html.Screen,1,2023-09-06T19:17:08.568Z,,,,uniform,16733.84800152588,response,,,,,,continue,click button,,23027.5,23026.40000152588,6275.942,6280.60000038147,6292.552,23038.41,,,,,
trial,html.Screen,2_0_0,2023-09-06T19:17:12.826Z,,0,0,,4246.59,response,ISIC_0025593.JPG,,ISIC_0063388.JPG,ISIC_0025593.JPG,true,1,keypress(m),500,27285.5,27285,23022.105,23027.80000114441,23038.41,27304.592,1,6,1,,ISIC_0063388.JPG
sequence,flow.Sequence,2_0,2023-09-06T19:17:12.826Z,,0,,,4246.59,completion,,,,,true,,,,27286.20000076294,27285,23022.105,23027.70000076294,23038.41,27304.592,1,6,,,
trial,html.Screen,2_1_0,2023-09-06T19:17:17.627Z,,0,0,,4781.208001144409,response,ISIC_1309015.JPG,,ISIC_0028178.JPG,ISIC_0028178.JPG,true,0,keypress(z),500,32086.5,32085.80000114441,27271.33,27286.5,27304.592,32102.995,1,6,2,,ISIC_1309015.JPG
sequence,flow.Sequence,2_1,2023-09-06T19:17:17.627Z,,0,,,4781.208001144409,completion,,,,,true,,,,32087.5,32085.80000114441,27271.33,27286.40000152588,27304.592,32102.995,1,6,,,
trial,html.Screen,2_2_0,2023-09-06T19:17:20.616Z,,0,0,,2972.505000000001,response,ISIC_0031128.JPG,,ISIC_3314853.JPG,ISIC_0031128.JPG,true,1,keypress(m),500,35076.20000076294,35075.5,32086.378,32087.80000114441,32102.995,35085.603,1,6,3,,ISIC_3314853.JPG
sequence,flow.Sequence,2_2,2023-09-06T19:17:20.617Z,,0,,,2972.505000000001,completion,,,,,true,,,,35077,35075.5,32086.378,32087.60000038147,32102.995,35085.603,1,6,,,
trial,html.Screen,2_3_0,2023-09-06T19:17:23.434Z,,0,0,,2807.896999999997,response,ISIC_0031612.JPG,,ISIC_8980141.JPG,ISIC_0031612.JPG,true,1,keypress(m),500,37893.90000152588,37893.5,35068.952,35077.40000152588,35085.603,37901.524,1,6,4,,ISIC_8980141.JPG
sequence,flow.Sequence,2_3,2023-09-06T19:17:23.435Z,,0,,,2807.896999999997,completion,,,,,true,,,,37894.60000038147,37893.5,35068.952,35077.30000114441,35085.603,37901.524,1,6,,,
trial,html.Screen,2_4_0,2023-09-06T19:17:26.668Z,,0,0,,3225.7760011444116,response,ISIC_1197737.JPG,,ISIC_9721604.JPG,ISIC_1197737.JPG,true,1,keypress(m),500,41127.80000114441,41127.30000114441,37884.937,37895.10000038147,37901.524,41134.058,1,6,5,,ISIC_9721604.JPG
sequence,flow.Sequence,2_4,2023-09-06T19:17:26.669Z,,0,,,3225.7760011444116,completion,,,,,true,,,,41128.60000038147,41127.30000114441,37884.937,37894.90000152588,37901.524,41134.058,1,6,,,
trial,html.Screen,2_5_0,2023-09-06T19:17:29.670Z,,0,0,,2994.9420000000027,response,ISIC_0025346.JPG,,ISIC_0010681.JPG,ISIC_0025346.JPG,true,1,keypress(m),500,44129.5,44129,41117.524,41128.90000152588,41134.058,44133.304,1,6,6,,ISIC_0010681.JPG
sequence,flow.Sequence,2_5,2023-09-06T19:17:29.670Z,,0,,,2994.9420000000027,completion,,,,,true,,,,44130.10000038147,44129,41117.524,41128.80000114441,41134.058,44133.304,1,6,,,
loop,flow.Loop,2,2023-09-06T19:17:29.671Z,,,,,21090.59,completion,,,,,true,,,,44130.5,44129,23022.105,23027.70000076294,23038.41,44133.304,1,6,,,
exp_instructions,html.Screen,3,2023-09-06T19:17:32.655Z,,,,,2980.896000762943,response,,,,,,continue,keypress(Space),,47115.20000076294,47114.20000076294,44116.757,44130.70000076294,44133.304,47132.598,,,,,
trial,html.Screen,4_0_0,2023-09-06T19:17:36.368Z,,0,1,,3695.1020007629413,response,ISIC_4322723.JPG,9,ISIC_4882123.JPG,ISIC_4882123.JPG,false,0,keypress(z),500,50828.20000076294,50827.70000076294,47099.69,47115.70000076294,47132.598,50831.719,8,400,1,,ISIC_4322723.JPG
break,html.Screen,4_0_1,2023-09-06T19:17:36.370Z,,0,,,NaN,,,,,,false,,,,50830.10000038147,50829.60000038147,,50828.5,,50831.719,8,400,,,
break_continue,html.Screen,4_0_2,2023-09-06T19:17:36.371Z,,0,,,NaN,,,,,,false,,,,50831.20000076294,50830.90000152588,,50830.40000152588,,50831.719,8,400,,,
sequence,flow.Sequence,4_0,2023-09-06T19:17:36.372Z,,0,,,3698.3020015258808,completion,,,,,false,,,,50831.70000076294,50830.90000152588,47099.69,47115.60000038147,47132.598,50831.719,8,400,,,
trial,html.Screen,4_1_0,2023-09-06T19:17:40.794Z,,0,1,,4421.781000000003,response,ISIC_9382494.JPG,10,ISIC_8350973.JPG,ISIC_8350973.JPG,false,0,keypress(z),500,55253.90000152588,55253.5,50815.149,50832.20000076294,50831.719,55263.915,8,400,2,,ISIC_9382494.JPG
break,html.Screen,4_1_1,2023-09-06T19:17:40.796Z,,0,,,NaN,,,,,,false,,,,55255.5,55255,,55254.30000114441,,55263.915,8,400,,,
break_continue,html.Screen,4_1_2,2023-09-06T19:17:40.796Z,,0,,,NaN,,,,,,false,,,,55256.10000038147,55255.80000114441,,55255.60000038147,,55263.915,8,400,,,
sequence,flow.Sequence,4_1,2023-09-06T19:17:40.796Z,,0,,,4424.081001144412,completion,,,,,false,,,,55256.40000152588,55255.80000114441,50815.149,50832,50831.719,55263.915,8,400,,,
trial,html.Screen,4_2_0,2023-09-06T19:17:44.991Z,,0,1,,4186.185000381469,response,ISIC_1768733.JPG,6,ISIC_0350472.JPG,ISIC_0350472.JPG,false,0,keypress(z),500,59450.5,59450.10000038147,55247.824,55256.60000038147,55263.915,59462.914,8,400,3,,ISIC_1768733.JPG
break,html.Screen,4_2_1,2023-09-06T19:17:44.992Z,,0,,,NaN,,,,,,false,,,,59452.40000152588,59451.60000038147,,59450.90000152588,,59462.914,8,400,,,
break_continue,html.Screen,4_2_2,2023-09-06T19:17:44.993Z,,0,,,NaN,,,,,,false,,,,59453.30000114441,59453.10000038147,,59452.70000076294,,59462.914,8,400,,,
sequence,flow.Sequence,4_2,2023-09-06T19:17:44.994Z,,0,,,4189.185000381469,completion,,,,,false,,,,59453.90000152588,59453.10000038147,55247.824,55256.60000038147,55263.915,59462.914,8,400,,,
trial,html.Screen,4_3_0,2023-09-06T19:17:47.841Z,,0,1,,2837.2860007629424,response,ISIC_0030921.JPG,11,ISIC_0066328.JPG,ISIC_0030921.JPG,false,1,keypress(m),500,62300.60000038147,62300.20000076294,59446.349,59454.30000114441,59462.914,62312.218,8,400,4,,ISIC_0066328.JPG
break,html.Screen,4_3_1,2023-09-06T19:17:47.843Z,,0,,,NaN,,,,,,false,,,,62302,62301.5,,62301,,62312.218,8,400,,,
break_continue,html.Screen,4_3_2,2023-09-06T19:17:47.843Z,,0,,,NaN,,,,,,false,,,,62302.70000076294,62302.5,,62302.30000114441,,62312.218,8,400,,,
sequence,flow.Sequence,4_3,2023-09-06T19:17:47.844Z,,0,,,2839.586000000003,completion,,,,,false,,,,62303,62302.5,59446.349,59454.20000076294,59462.914,62312.218,8,400,,,
trial,html.Screen,4_4_0,2023-09-06T19:17:50.821Z,,0,1,,2967.9820007629387,response,ISIC_4848047.JPG,8,ISIC_0033232.JPG,ISIC_0033232.JPG,false,0,keypress(z),500,65280.5,65280.20000076294,62295.635,62303.20000076294,62312.218,65311.521,8,400,5,,ISIC_4848047.JPG
break,html.Screen,4_4_1,2023-09-06T19:17:50.823Z,,0,,,NaN,,,,,,false,,,,65281.90000152588,65281.40000152588,,65280.90000152588,,65311.521,8,400,,,
break_continue,html.Screen,4_4_2,2023-09-06T19:17:50.823Z,,0,,,NaN,,,,,,false,,,,65282.40000152588,65282.20000076294,,65282,,65311.521,8,400,,,
sequence,flow.Sequence,4_4,2023-09-06T19:17:50.823Z,,0,,,2969.9820007629387,completion,,,,,false,,,,65282.60000038147,65282.20000076294,62295.635,62303.10000038147,62312.218,65311.521,8,400,,,
trial,html.Screen,4_5_0,2023-09-06T19:17:55.390Z,,0,1,,4537.879001525878,response,ISIC_7618133.JPG,11,ISIC_0013867.JPG,ISIC_7618133.JPG,false,1,keypress(m),500,69849.60000038147,69849.40000152588,65294.822,65282.90000152588,65311.521,69860.332,8,400,6,,ISIC_0013867.JPG
break,html.Screen,4_5_1,2023-09-06T19:17:55.391Z,,0,,,NaN,,,,,,false,,,,69850.20000076294,69850,,69849.70000076294,,69860.332,8,400,,,
break_continue,html.Screen,4_5_2,2023-09-06T19:17:55.391Z,,0,,,NaN,,,,,,false,,,,69850.60000038147,69850.40000152588,,69850.30000114441,,69860.332,8,400,,,
sequence,flow.Sequence,4_5,2023-09-06T19:17:55.391Z,,0,,,4538.879001525878,completion,,,,,false,,,,69850.80000114441,69850.40000152588,65294.822,65282.80000114441,65311.521,69860.332,8,400,,,
trial,html.Screen,4_6_0,2023-09-06T19:17:58.160Z,,0,1,,2758.8680007629446,response,ISIC_0011305.JPG,12,ISIC_0015250.JPG,ISIC_0015250.JPG,false,0,keypress(z),500,72619.70000076294,72619.20000076294,69844.2,69850.90000152588,69860.332,72626.367,8,400,7,,ISIC_0011305.JPG
break,html.Screen,4_6_1,2023-09-06T19:17:58.162Z,,0,,,NaN,,,,,,false,,,,72621.30000114441,72620.60000038147,,72620.20000076294,,72626.367,8,400,,,
break_continue,html.Screen,4_6_2,2023-09-06T19:17:58.163Z,,0,,,NaN,,,,,,false,,,,72621.80000114441,72621.60000038147,,72621.5,,72626.367,8,400,,,
sequence,flow.Sequence,4_6,2023-09-06T19:17:58.163Z,,0,,,2761.268000381475,completion,,,,,false,,,,72622.10000038147,72621.60000038147,69844.2,69850.80000114441,69860.332,72626.367,8,400,,,
trial,html.Screen,4_7_0,2023-09-06T19:18:01.210Z,,0,1,,3042.6330000000016,response,ISIC_0026300.JPG,9,ISIC_3617159.JPG,ISIC_0026300.JPG,false,1,keypress(m),500,75669.40000152588,75669,72609.738,72622.30000114441,72626.367,75675.609,8,400,8,,ISIC_3617159.JPG
break,html.Screen,4_7_1,2023-09-06T19:18:01.212Z,,0,,,NaN,,,,,,false,,,,75670.80000114441,75670.20000076294,,75669.70000076294,,75675.609,8,400,,,
break_continue,html.Screen,4_7_2,2023-09-06T19:18:01.212Z,,0,,,NaN,,,,,,false,,,,75671.40000152588,75671.10000038147,,75671,,75675.609,8,400,,,
sequence,flow.Sequence,4_7,2023-09-06T19:18:01.212Z,,0,,,3044.7330003814714,completion,,,,,false,,,,75671.60000038147,75671.10000038147,72609.738,72622.20000076294,72626.367,75675.609,8,400,,,
trial,html.Screen,4_8_0,2023-09-06T19:18:05.023Z,,0,1,,3806.491000381473,response,ISIC_0002026.JPG,9,ISIC_0024656.JPG,ISIC_0024656.JPG,false,0,keypress(z),500,79482.5,79482.10000038147,75659.427,75671.90000152588,75675.609,79491.392,8,400,9,,ISIC_0002026.JPG
break,html.Screen,4_8_1,2023-09-06T19:18:05.025Z,,0,,,NaN,,,,,,false,,,,79483.90000152588,79483.40000152588,,79482.80000114441,,79491.392,8,400,,,
break_continue,html.Screen,4_8_2,2023-09-06T19:18:05.025Z,,0,,,NaN,,,,,,false,,,,79484.5,79484.30000114441,,79484.20000076294,,79491.392,8,400,,,
sequence,flow.Sequence,4_8,2023-09-06T19:18:05.026Z,,0,,,3808.6910011444124,completion,,,,,false,,,,79484.80000114441,79484.30000114441,75659.427,75671.90000152588,75675.609,79491.392,8,400,,,
trial,html.Screen,4_9_0,2023-09-06T19:18:08.224Z,,0,1,,3191.408001144402,response,ISIC_5312584.JPG,5,ISIC_0031545.JPG,ISIC_0031545.JPG,false,0,keypress(z),500,82683.30000114441,82682.80000114441,79474.902,79485.10000038147,79491.392,82690.577,8,400,10,,ISIC_5312584.JPG
break,html.Screen,4_9_1,2023-09-06T19:18:08.226Z,,0,,,NaN,,,,,,false,,,,82684.70000076294,82684.10000038147,,82683.5,,82690.577,8,400,,,
break_continue,html.Screen,4_9_2,2023-09-06T19:18:08.226Z,,0,,,NaN,,,,,,false,,,,82685.40000152588,82685.20000076294,,82685,,82690.577,8,400,,,
sequence,flow.Sequence,4_9,2023-09-06T19:18:08.226Z,,0,,,3193.8080007629324,completion,,,,,false,,,,82685.70000076294,82685.20000076294,79474.902,79485,79491.392,82690.577,8,400,,,
trial,html.Screen,4_10_0,2023-09-06T19:18:12.463Z,,0,1,,4230.922999999995,response,ISIC_4350093.JPG,16,ISIC_3094758.JPG,ISIC_3094758.JPG,false,0,keypress(z),500,86921.80000114441,86921.5,82674.366,82686,82690.577,86939.72,8,400,11,,ISIC_4350093.JPG
break,html.Screen,4_10_1,2023-09-06T19:18:12.464Z,,0,,,NaN,,,,,,false,,,,86923.30000114441,86922.80000114441,,86922.20000076294,,86939.72,8,400,,,
break_continue,html.Screen,4_10_2,2023-09-06T19:18:12.465Z,,0,,,NaN,,,,,,false,,,,86923.90000152588,86923.70000076294,,86923.5,,86939.72,8,400,,,
sequence,flow.Sequence,4_10,2023-09-06T19:18:12.465Z,,0,,,4233.123000762935,completion,,,,,false,,,,86924.20000076294,86923.70000076294,82674.366,82685.90000152588,82690.577,86939.72,8,400,,,
trial,html.Screen,4_11_0,2023-09-06T19:18:15.966Z,,0,1,,3485.580001144408,response,ISIC_8969883.JPG,5,ISIC_0068012.JPG,ISIC_0068012.JPG,false,0,keypress(z),500,90425.60000038147,90425.30000114441,86906.701,86924.40000152588,86939.72,90438.834,8,400,12,,ISIC_8969883.JPG
break,html.Screen,4_11_1,2023-09-06T19:18:15.968Z,,0,,,NaN,,,,,,false,,,,90427.30000114441,90426.80000114441,,90426,,90438.834,8,400,,,
break_continue,html.Screen,4_11_2,2023-09-06T19:18:15.969Z,,0,,,NaN,,,,,,false,,,,90428,90427.70000076294,,90427.5,,90438.834,8,400,,,
sequence,flow.Sequence,4_11,2023-09-06T19:18:15.969Z,,0,,,3487.9800007629383,completion,,,,,false,,,,90428.30000114441,90427.70000076294,86906.701,86924.40000152588,86939.72,90438.834,8,400,,,
trial,html.Screen,4_12_0,2023-09-06T19:18:18.964Z,,0,1,,2983.5660015258763,response,ISIC_0068106.JPG,9,ISIC_0233487.JPG,ISIC_0068106.JPG,false,1,keypress(m),500,93422.80000114441,93422.40000152588,90422.333,90428.60000038147,90438.834,93438.307,8,400,13,,ISIC_0233487.JPG
break,html.Screen,4_12_1,2023-09-06T19:18:18.965Z,,0,,,NaN,,,,,,false,,,,93424.10000038147,93423.60000038147,,93423.10000038147,,93438.307,8,400,,,
break_continue,html.Screen,4_12_2,2023-09-06T19:18:18.965Z,,0,,,NaN,,,,,,false,,,,93424.70000076294,93424.5,,93424.40000152588,,93438.307,8,400,,,
sequence,flow.Sequence,4_12,2023-09-06T19:18:18.966Z,,0,,,2985.6659999999974,completion,,,,,false,,,,93425,93424.5,90422.333,90428.5,90438.834,93438.307,8,400,,,
trial,html.Screen,4_13_0,2023-09-06T19:18:24.780Z,,0,1,,5800.692999999999,response,ISIC_0034086.JPG,8,ISIC_0011810.JPG,ISIC_0034086.JPG,false,1,keypress(m),500,99239.30000114441,99239,93421.779,93425.10000038147,93438.307,99253.169,8,400,14,,ISIC_0011810.JPG
break,html.Screen,4_13_1,2023-09-06T19:18:24.781Z,,0,,,NaN,,,,,,false,,,,99240.60000038147,99240.10000038147,,99239.60000038147,,99253.169,8,400,,,
break_continue,html.Screen,4_13_2,2023-09-06T19:18:24.782Z,,0,,,NaN,,,,,,false,,,,99241.10000038147,99240.90000152588,,99240.80000114441,,99253.169,8,400,,,
sequence,flow.Sequence,4_13,2023-09-06T19:18:24.782Z,,0,,,5802.593001525878,completion,,,,,false,,,,99241.40000152588,99240.90000152588,93421.779,93425.10000038147,93438.307,99253.169,8,400,,,
trial,html.Screen,4_14_0,2023-09-06T19:18:27.612Z,,0,1,,2818.031000762945,response,ISIC_6773367.JPG,8,ISIC_0006108.JPG,ISIC_6773367.JPG,false,1,keypress(m),500,102071.60000038147,102071.20000076294,99237.014,99241.70000076294,99253.169,102086.199,8,400,15,,ISIC_0006108.JPG
break,html.Screen,4_14_1,2023-09-06T19:18:27.614Z,,0,,,NaN,,,,,,false,,,,102072.90000152588,102072.30000114441,,102071.90000152588,,102086.199,8,400,,,
break_continue,html.Screen,4_14_2,2023-09-06T19:18:27.614Z,,0,,,NaN,,,,,,false,,,,102073.5,102073.30000114441,,102073.10000038147,,102086.199,8,400,,,
sequence,flow.Sequence,4_14,2023-09-06T19:18:27.615Z,,0,,,2820.1310011444148,completion,,,,,false,,,,102073.80000114441,102073.30000114441,99237.014,99241.60000038147,99253.169,102086.199,8,400,,,
trial,html.Screen,4_15_0,2023-09-06T19:18:30.741Z,,0,1,,3113.501000762946,response,ISIC_0027986.JPG,13,ISIC_0034074.JPG,ISIC_0034074.JPG,false,0,keypress(z),500,105200,105199.70000076294,102069.236,102074,102086.199,105230.986,8,400,16,,ISIC_0027986.JPG
break,html.Screen,4_15_1,2023-09-06T19:18:30.742Z,,0,,,NaN,,,,,,false,,,,105201.40000152588,105200.90000152588,,105200.40000152588,,105230.986,8,400,,,
break_continue,html.Screen,4_15_2,2023-09-06T19:18:30.743Z,,0,,,NaN,,,,,,false,,,,105202,105201.90000152588,,105201.70000076294,,105230.986,8,400,,,
sequence,flow.Sequence,4_15,2023-09-06T19:18:30.743Z,,0,,,3115.7010015258857,completion,,,,,false,,,,105202.40000152588,105201.90000152588,102069.236,102074,102086.199,105230.986,8,400,,,
trial,html.Screen,4_16_0,2023-09-06T19:18:35.444Z,,0,1,,4671.814001144405,response,ISIC_0032782.JPG,13,ISIC_0060700.JPG,ISIC_0032782.JPG,false,1,keypress(m),500,109903.20000076294,109902.80000114441,105185.573,105202.60000038147,105230.986,109917.203,8,400,17,,ISIC_0060700.JPG
break,html.Screen,4_16_1,2023-09-06T19:18:35.445Z,,0,,,NaN,,,,,,false,,,,109904.70000076294,109904.10000038147,,109903.5,,109917.203,8,400,,,
break_continue,html.Screen,4_16_2,2023-09-06T19:18:35.446Z,,0,,,NaN,,,,,,false,,,,109905.40000152588,109905.10000038147,,109904.90000152588,,109917.203,8,400,,,
sequence,flow.Sequence,4_16,2023-09-06T19:18:35.446Z,,0,,,4674.114000381465,completion,,,,,false,,,,109905.60000038147,109905.10000038147,105185.573,105202.5,105230.986,109917.203,8,400,,,
trial,html.Screen,4_17_0,2023-09-06T19:18:38.815Z,,0,1,,3357.197001525885,response,ISIC_3246746.JPG,5,ISIC_2863397.JPG,ISIC_3246746.JPG,false,1,keypress(m),500,113274.60000038147,113274.40000152588,109901.083,109905.90000152588,109917.203,113283.097,8,400,18,,ISIC_2863397.JPG
break,html.Screen,4_17_1,2023-09-06T19:18:38.817Z,,0,,,NaN,,,,,,false,,,,113275.90000152588,113275.60000038147,,113274.90000152588,,113283.097,8,400,,,
break_continue,html.Screen,4_17_2,2023-09-06T19:18:38.817Z,,0,,,NaN,,,,,,false,,,,113276.60000038147,113276.40000152588,,113276.20000076294,,113283.097,8,400,,,
sequence,flow.Sequence,4_17,2023-09-06T19:18:38.818Z,,0,,,3359.197001525885,completion,,,,,false,,,,113276.90000152588,113276.40000152588,109901.083,109905.80000114441,109917.203,113283.097,8,400,,,
trial,html.Screen,4_18_0,2023-09-06T19:18:42.822Z,,0,1,,3998.0030003814754,response,ISIC_9876515.JPG,7,ISIC_0024298.JPG,ISIC_0024298.JPG,false,0,keypress(z),500,117281.5,117281.10000038147,113266.937,113277.10000038147,113283.097,117298.758,8,400,19,,ISIC_9876515.JPG
break,html.Screen,4_18_1,2023-09-06T19:18:42.824Z,,0,,,NaN,,,,,,false,,,,117282.90000152588,117282.30000114441,,117281.80000114441,,117298.758,8,400,,,
break_continue,html.Screen,4_18_2,2023-09-06T19:18:42.824Z,,0,,,NaN,,,,,,false,,,,117283.60000038147,117283.30000114441,,117283.20000076294,,117298.758,8,400,,,
sequence,flow.Sequence,4_18,2023-09-06T19:18:42.825Z,,0,,,4000.203001144415,completion,,,,,false,,,,117283.80000114441,117283.30000114441,113266.937,113277,113283.097,117298.758,8,400,,,
trial,html.Screen,4_19_0,2023-09-06T19:18:45.812Z,,0,1,,2971.942000762938,response,ISIC_0033059.JPG,8,ISIC_7915065.JPG,ISIC_0033059.JPG,false,1,keypress(m),500,120271.10000038147,120270.70000076294,117282.178,117284.20000076294,117298.758,120281.4,8,400,20,,ISIC_7915065.JPG
break,html.Screen,4_19_1,2023-09-06T19:18:45.814Z,,0,,,NaN,,,,,,false,,,,120272.80000114441,120272.20000076294,,120271.5,,120281.4,8,400,,,
break_continue,html.Screen,4_19_2,2023-09-06T19:18:45.814Z,,0,,,NaN,,,,,,false,,,,120273.70000076294,120273.40000152588,,120273.20000076294,,120281.4,8,400,,,
sequence,flow.Sequence,4_19,2023-09-06T19:18:45.815Z,,0,,,2974.6420015258773,completion,,,,,false,,,,120274.10000038147,120273.40000152588,117282.178,117284.10000038147,117298.758,120281.4,8,400,,,
trial,html.Screen,4_20_0,2023-09-06T19:18:48.623Z,,0,1,,2800.100000000006,response,ISIC_5491641.JPG,5,ISIC_0066784.JPG,ISIC_0066784.JPG,false,0,keypress(z),500,123082,123081.5,120265.217,120274.5,120281.4,123097.766,8,400,21,,ISIC_5491641.JPG
break,html.Screen,4_20_1,2023-09-06T19:18:48.624Z,,0,,,NaN,,,,,,false,,,,123083.5,123082.90000152588,,123082.30000114441,,123097.766,8,400,,,
break_continue,html.Screen,4_20_2,2023-09-06T19:18:48.625Z,,0,,,NaN,,,,,,false,,,,123084.10000038147,123083.90000152588,,123083.70000076294,,123097.766,8,400,,,
sequence,flow.Sequence,4_20,2023-09-06T19:18:48.625Z,,0,,,2802.5000015258847,completion,,,,,false,,,,123084.40000152588,123083.90000152588,120265.217,120274.40000152588,120281.4,123097.766,8,400,,,
trial,html.Screen,4_21_0,2023-09-06T19:18:51.483Z,,0,1,,2843.6340015258756,response,ISIC_0064095.JPG,5,ISIC_0028998.JPG,ISIC_0064095.JPG,false,1,keypress(m),500,125941.80000114441,125941.40000152588,123080.819,123084.60000038147,123097.766,125946.644,8,400,22,,ISIC_0028998.JPG
break,html.Screen,4_21_1,2023-09-06T19:18:51.484Z,,0,,,NaN,,,,,,false,,,,125943.20000076294,125942.80000114441,,125942.10000038147,,125946.644,8,400,,,
break_continue,html.Screen,4_21_2,2023-09-06T19:18:51.485Z,,0,,,NaN,,,,,,false,,,,125943.90000152588,125943.70000076294,,125943.5,,125946.644,8,400,,,
sequence,flow.Sequence,4_21,2023-09-06T19:18:51.485Z,,0,,,2845.934000762936,completion,,,,,false,,,,125944.10000038147,125943.70000076294,123080.819,123084.5,123097.766,125946.644,8,400,,,
trial,html.Screen,4_22_0,2023-09-06T19:18:54.166Z,,0,1,,2678.4560003814695,response,ISIC_3779093.JPG,11,ISIC_2797576.JPG,ISIC_3779093.JPG,false,1,keypress(m),500,128625.5,128625.10000038147,125930.147,125944.40000152588,125946.644,128629.332,8,400,23,,ISIC_2797576.JPG
break,html.Screen,4_22_1,2023-09-06T19:18:54.168Z,,0,,,NaN,,,,,,false,,,,128626.80000114441,128626.30000114441,,128625.80000114441,,128629.332,8,400,,,
break_continue,html.Screen,4_22_2,2023-09-06T19:18:54.168Z,,0,,,NaN,,,,,,false,,,,128627.30000114441,128627.10000038147,,128627,,128629.332,8,400,,,
sequence,flow.Sequence,4_22,2023-09-06T19:18:54.168Z,,0,,,2680.4560003814695,completion,,,,,false,,,,128627.5,128627.10000038147,125930.147,125944.30000114441,125946.644,128629.332,8,400,,,
trial,html.Screen,4_23_0,2023-09-06T19:18:57.304Z,,0,1,,3133.668000000005,response,ISIC_4534608.JPG,13,ISIC_6561111.JPG,ISIC_4534608.JPG,false,1,keypress(m),500,131763.40000152588,131763,128613.153,128627.80000114441,128629.332,131778.604,8,400,24,,ISIC_6561111.JPG
break,html.Screen,4_23_1,2023-09-06T19:18:57.306Z,,0,,,NaN,,,,,,false,,,,131764.8000011444,131764.40000152588,,131763.8000011444,,131778.604,8,400,,,
break_continue,html.Screen,4_23_2,2023-09-06T19:18:57.306Z,,0,,,NaN,,,,,,false,,,,131765.5,131765.3000011444,,131765.10000038147,,131778.604,8,400,,,
sequence,flow.Sequence,4_23,2023-09-06T19:18:57.307Z,,0,,,3135.9680011444143,completion,,,,,false,,,,131765.8000011444,131765.3000011444,128613.153,128627.70000076294,128629.332,131778.604,8,400,,,
trial,html.Screen,4_24_0,2023-09-06T19:19:00.336Z,,0,1,,3016.296001525887,response,ISIC_7236842.JPG,5,ISIC_0063053.JPG,ISIC_0063053.JPG,false,0,keypress(z),500,134795.3000011444,134794.90000152588,131762.4,131766,131778.604,134811.672,8,400,25,,ISIC_7236842.JPG
break,html.Screen,4_24_1,2023-09-06T19:19:00.337Z,,0,,,NaN,,,,,,false,,,,134796.5,134796,,134795.5,,134811.672,8,400,,,
break_continue,html.Screen,4_24_2,2023-09-06T19:19:00.338Z,,0,,,NaN,,,,,,false,,,,134797.20000076294,134797,,134796.8000011444,,134811.672,8,400,,,
sequence,flow.Sequence,4_24,2023-09-06T19:19:00.338Z,,0,,,3018.396000000008,completion,,,,,false,,,,134797.5,134797,131762.4,131766,131778.604,134811.672,8,400,,,
trial,html.Screen,4_25_0,2023-09-06T19:19:03.103Z,,0,1,,2750.3280000000086,response,ISIC_4136591.JPG,13,ISIC_3836576.JPG,ISIC_4136591.JPG,false,1,keypress(m),500,137562.40000152588,137562,134794.991,134797.60000038147,134811.672,137577.615,8,400,26,,ISIC_3836576.JPG
break,html.Screen,4_25_1,2023-09-06T19:19:03.104Z,,0,,,NaN,,,,,,false,,,,137563.60000038147,137563.3000011444,,137562.70000076294,,137577.615,8,400,,,
break_continue,html.Screen,4_25_2,2023-09-06T19:19:03.105Z,,0,,,NaN,,,,,,false,,,,137564.3000011444,137564.10000038147,,137563.90000152588,,137577.615,8,400,,,
sequence,flow.Sequence,4_25,2023-09-06T19:19:03.105Z,,0,,,2752.4280003814783,completion,,,,,false,,,,137564.5,137564.10000038147,134794.991,134797.60000038147,134811.672,137577.615,8,400,,,
trial,html.Screen,4_26_0,2023-09-06T19:19:06.105Z,,0,1,,2986.0850007629488,response,ISIC_0065728.JPG,6,ISIC_0011698.JPG,ISIC_0065728.JPG,false,1,keypress(m),500,140564,140563.70000076294,137560.996,137564.70000076294,137577.615,140576.506,8,400,27,,ISIC_0011698.JPG
break,html.Screen,4_26_1,2023-09-06T19:19:06.106Z,,0,,,NaN,,,,,,false,,,,140565.5,140564.90000152588,,140564.40000152588,,140576.506,8,400,,,
break_continue,html.Screen,4_26_2,2023-09-06T19:19:06.107Z,,0,,,NaN,,,,,,false,,,,140566.20000076294,140566,,140565.70000076294,,140576.506,8,400,,,
sequence,flow.Sequence,4_26,2023-09-06T19:19:06.107Z,,0,,,2988.3850000000093,completion,,,,,false,,,,140566.40000152588,140566,137560.996,137564.70000076294,137577.615,140576.506,8,400,,,
trial,html.Screen,4_27_0,2023-09-06T19:19:09.268Z,,0,1,,3150.094000381476,response,ISIC_4116224.JPG,7,ISIC_0013777.JPG,ISIC_4116224.JPG,false,1,keypress(m),500,143727,143726.60000038147,140559.866,140566.70000076294,140576.506,143742.756,8,400,28,,ISIC_0013777.JPG
break,html.Screen,4_27_1,2023-09-06T19:19:09.269Z,,0,,,NaN,,,,,,false,,,,143728.3000011444,143727.8000011444,,143727.40000152588,,143742.756,8,400,,,
break_continue,html.Screen,4_27_2,2023-09-06T19:19:09.270Z,,0,,,NaN,,,,,,false,,,,143728.8000011444,143728.70000076294,,143728.40000152588,,143742.756,8,400,,,
sequence,flow.Sequence,4_27,2023-09-06T19:19:09.270Z,,0,,,3152.1940007629455,completion,,,,,false,,,,143729.10000038147,143728.70000076294,140559.866,140566.60000038147,140576.506,143742.756,8,400,,,
trial,html.Screen,4_28_0,2023-09-06T19:19:12.005Z,,0,1,,2721.0440011444152,response,ISIC_0008162.JPG,11,ISIC_0055039.JPG,ISIC_0055039.JPG,false,0,keypress(z),500,146464.20000076294,146463.8000011444,143725.732,143729.40000152588,143742.756,146475.121,8,400,29,,ISIC_0008162.JPG
break,html.Screen,4_28_1,2023-09-06T19:19:12.006Z,,0,,,NaN,,,,,,false,,,,146465.5,146465,,146464.5,,146475.121,8,400,,,
break_continue,html.Screen,4_28_2,2023-09-06T19:19:12.007Z,,0,,,NaN,,,,,,false,,,,146466,146465.90000152588,,146465.70000076294,,146475.121,8,400,,,
sequence,flow.Sequence,4_28,2023-09-06T19:19:12.007Z,,0,,,2723.144001525885,completion,,,,,false,,,,146466.3000011444,146465.90000152588,143725.732,143729.3000011444,143742.756,146475.121,8,400,,,
trial,html.Screen,4_29_0,2023-09-06T19:19:15.603Z,,0,1,,3586.279001525865,response,ISIC_0057655.JPG,6,ISIC_0010476.JPG,ISIC_0057655.JPG,false,1,keypress(m),500,150061.70000076294,150061.40000152588,146458.409,146466.5,146475.121,150074.307,8,400,30,,ISIC_0010476.JPG
break,html.Screen,4_29_1,2023-09-06T19:19:15.604Z,,0,,,NaN,,,,,,false,,,,150063.10000038147,150062.5,,150062,,150074.307,8,400,,,
break_continue,html.Screen,4_29_2,2023-09-06T19:19:15.604Z,,0,,,NaN,,,,,,false,,,,150063.70000076294,150063.5,,150063.3000011444,,150074.307,8,400,,,
sequence,flow.Sequence,4_29,2023-09-06T19:19:15.605Z,,0,,,3588.3789999999863,completion,,,,,false,,,,150064,150063.5,146458.409,146466.5,146475.121,150074.307,8,400,,,
trial,html.Screen,4_30_0,2023-09-06T19:19:18.990Z,,0,1,,3374.9930011444085,response,ISIC_2412888.JPG,7,ISIC_0010734.JPG,ISIC_0010734.JPG,false,0,keypress(z),500,153449.60000038147,153449.3000011444,150057.91,150064.10000038147,150074.307,153456.604,8,400,31,,ISIC_2412888.JPG
break,html.Screen,4_30_1,2023-09-06T19:19:18.992Z,,0,,,NaN,,,,,,false,,,,153451.20000076294,153450.5,,153450,,153456.604,8,400,,,
break_continue,html.Screen,4_30_2,2023-09-06T19:19:18.993Z,,0,,,NaN,,,,,,false,,,,153451.90000152588,153451.70000076294,,153451.5,,153456.604,8,400,,,
sequence,flow.Sequence,4_30,2023-09-06T19:19:18.993Z,,0,,,3377.3930007629388,completion,,,,,false,,,,153452.3000011444,153451.70000076294,150057.91,150064.10000038147,150074.307,153456.604,8,400,,,
trial,html.Screen,4_31_0,2023-09-06T19:19:23.544Z,,0,1,,4546.696001144417,response,ISIC_3086579.JPG,0,ISIC_1135213.JPG,ISIC_3086579.JPG,false,1,keypress(m),500,158003.70000076294,158003.3000011444,153440.437,153452.60000038147,153456.604,158030.612,8,400,32,,ISIC_1135213.JPG
break,html.Screen,4_31_1,2023-09-06T19:19:23.546Z,,0,,,NaN,,,,,,false,,,,158004.90000152588,158004.40000152588,,158004,,158030.612,8,400,,,
break_continue,html.Screen,4_31_2,2023-09-06T19:19:23.546Z,,0,,,NaN,,,,,,false,,,,158005.40000152588,158005.20000076294,,158005,,158030.612,8,400,,,
sequence,flow.Sequence,4_31,2023-09-06T19:19:23.546Z,,0,,,4548.596000762947,completion,,,,,false,,,,158005.70000076294,158005.20000076294,153440.437,153452.5,153456.604,158030.612,8,400,,,
trial,html.Screen,4_32_0,2023-09-06T19:19:26.466Z,,0,1,,2893.988000381476,response,ISIC_0069250.JPG,13,ISIC_0014366.JPG,ISIC_0069250.JPG,false,1,keypress(m),500,160924.90000152588,160924.60000038147,157989.329,158005.8000011444,158030.612,160938.492,8,400,33,,ISIC_0014366.JPG
break,html.Screen,4_32_1,2023-09-06T19:19:26.467Z,,0,,,NaN,,,,,,false,,,,160926.10000038147,160925.60000038147,,160925.20000076294,,160938.492,8,400,,,
break_continue,html.Screen,4_32_2,2023-09-06T19:19:26.468Z,,0,,,NaN,,,,,,false,,,,160926.8000011444,160926.60000038147,,160926.40000152588,,160938.492,8,400,,,
sequence,flow.Sequence,4_32,2023-09-06T19:19:26.468Z,,0,,,2895.988000381476,completion,,,,,false,,,,160927,160926.60000038147,157989.329,158005.8000011444,158030.612,160938.492,8,400,,,
trial,html.Screen,4_33_0,2023-09-06T19:19:29.307Z,,0,1,,2827.4080015258805,response,ISIC_0057963.JPG,13,ISIC_1509635.JPG,ISIC_0057963.JPG,false,1,keypress(m),500,163766.40000152588,163765.90000152588,160921.946,160927.3000011444,160938.492,163770.796,8,400,34,,ISIC_1509635.JPG
break,html.Screen,4_33_1,2023-09-06T19:19:29.309Z,,0,,,NaN,,,,,,false,,,,163767.8000011444,163767.20000076294,,163766.70000076294,,163770.796,8,400,,,
break_continue,html.Screen,4_33_2,2023-09-06T19:19:29.309Z,,0,,,NaN,,,,,,false,,,,163768.5,163768.20000076294,,163768,,163770.796,8,400,,,
sequence,flow.Sequence,4_33,2023-09-06T19:19:29.310Z,,0,,,2829.708000762941,completion,,,,,false,,,,163768.70000076294,163768.20000076294,160921.946,160927.20000076294,160938.492,163770.796,8,400,,,
trial,html.Screen,4_34_0,2023-09-06T19:19:31.987Z,,0,1,,2675.104001525877,response,ISIC_0027620.JPG,13,ISIC_4014307.JPG,ISIC_0027620.JPG,false,1,keypress(m),500,166446.20000076294,166445.90000152588,163754.151,163769,163770.796,166453.419,8,400,35,,ISIC_4014307.JPG
break,html.Screen,4_34_1,2023-09-06T19:19:31.988Z,,0,,,NaN,,,,,,false,,,,166447.70000076294,166447.10000038147,,166446.60000038147,,166453.419,8,400,,,
break_continue,html.Screen,4_34_2,2023-09-06T19:19:31.989Z,,0,,,NaN,,,,,,false,,,,166448.3000011444,166448.10000038147,,166447.90000152588,,166453.419,8,400,,,
sequence,flow.Sequence,4_34,2023-09-06T19:19:31.989Z,,0,,,2677.3040003814676,completion,,,,,false,,,,166448.70000076294,166448.10000038147,163754.151,163768.90000152588,163770.796,166453.419,8,400,,,
trial,html.Screen,4_35_0,2023-09-06T19:19:34.674Z,,0,1,,2679.781000762945,response,ISIC_3950753.JPG,14,ISIC_0032272.JPG,ISIC_0032272.JPG,false,0,keypress(z),500,169133.60000038147,169133.20000076294,166437.278,166448.8000011444,166453.419,169136.119,8,400,36,,ISIC_3950753.JPG
break,html.Screen,4_35_1,2023-09-06T19:19:34.676Z,,0,,,NaN,,,,,,false,,,,169135.10000038147,169134.8000011444,,169133.90000152588,,169136.119,8,400,,,
break_continue,html.Screen,4_35_2,2023-09-06T19:19:34.676Z,,0,,,NaN,,,,,,false,,,,169135.70000076294,169135.5,,169135.3000011444,,169136.119,8,400,,,
sequence,flow.Sequence,4_35,2023-09-06T19:19:34.677Z,,0,,,2682.0810000000056,completion,,,,,false,,,,169135.90000152588,169135.5,166437.278,166448.8000011444,166453.419,169136.119,8,400,,,
trial,html.Screen,4_36_0,2023-09-06T19:19:37.356Z,,0,1,,2678.781001525873,response,ISIC_0054229.JPG,5,ISIC_0010940.JPG,ISIC_0054229.JPG,false,1,keypress(m),500,171815.20000076294,171814.90000152588,169119.549,169136.40000152588,169136.119,171818.79,8,400,37,,ISIC_0010940.JPG
break,html.Screen,4_36_1,2023-09-06T19:19:37.358Z,,0,,,NaN,,,,,,false,,,,171816.8000011444,171816.3000011444,,171815.60000038147,,171818.79,8,400,,,
break_continue,html.Screen,4_36_2,2023-09-06T19:19:37.358Z,,0,,,NaN,,,,,,false,,,,171817.60000038147,171817.40000152588,,171817,,171818.79,8,400,,,
sequence,flow.Sequence,4_36,2023-09-06T19:19:37.359Z,,0,,,2681.281001525873,completion,,,,,false,,,,171818,171817.40000152588,169119.549,169136.10000038147,169136.119,171818.79,8,400,,,
trial,html.Screen,4_37_0,2023-09-06T19:19:40.085Z,,0,1,,2724.8100003814616,response,ISIC_0010653.JPG,6,ISIC_7293697.JPG,ISIC_0010653.JPG,false,1,keypress(m),500,174544,174543.60000038147,171802.609,171818.40000152588,171818.79,174551.451,8,400,38,,ISIC_7293697.JPG
break,html.Screen,4_37_1,2023-09-06T19:19:40.086Z,,0,,,NaN,,,,,,false,,,,174545.20000076294,174544.8000011444,,174544.3000011444,,174551.451,8,400,,,
break_continue,html.Screen,4_37_2,2023-09-06T19:19:40.087Z,,0,,,NaN,,,,,,false,,,,174545.90000152588,174545.5,,174545.5,,174551.451,8,400,,,
sequence,flow.Sequence,4_37,2023-09-06T19:19:40.087Z,,0,,,2726.709999999992,completion,,,,,false,,,,174546.40000152588,174545.5,171802.609,171818.20000076294,171818.79,174551.451,8,400,,,
trial,html.Screen,4_38_0,2023-09-06T19:19:43.998Z,,0,1,,3905.149000381469,response,ISIC_0032522.JPG,6,ISIC_0060380.JPG,ISIC_0032522.JPG,false,1,keypress(m),500,178456.90000152588,178456.60000038147,174534.808,174546.5,174551.451,178467.19,8,400,39,,ISIC_0060380.JPG
break,html.Screen,4_38_1,2023-09-06T19:19:43.999Z,,0,,,NaN,,,,,,false,,,,178458.5,178457.8000011444,,178457.3000011444,,178467.19,8,400,,,
break_continue,html.Screen,4_38_2,2023-09-06T19:19:44.000Z,,0,,,NaN,,,,,,false,,,,178459.10000038147,178458.90000152588,,178458.70000076294,,178467.19,8,400,,,
sequence,flow.Sequence,4_38,2023-09-06T19:19:44.000Z,,0,,,3907.449001525878,completion,,,,,false,,,,178459.40000152588,178458.90000152588,174534.808,174546.5,174551.451,178467.19,8,400,,,
trial,html.Screen,4_39_0,2023-09-06T19:19:46.928Z,,0,1,,2919.7100015258766,response,ISIC_0953317.JPG,14,ISIC_2524005.JPG,ISIC_0953317.JPG,false,1,keypress(m),500,181387.5,181386.90000152588,178451.01,178459.60000038147,178467.19,181399.772,8,400,40,,ISIC_2524005.JPG
break,html.Screen,4_39_1,2023-09-06T19:19:46.930Z,,0,,,NaN,,,,,,false,,,,181389,181388.60000038147,,181387.8000011444,,181399.772,8,400,,,
break_continue,html.Screen,4_39_2,2023-09-06T19:19:46.931Z,,0,,,NaN,,,,,,false,,,,181389.8000011444,181389.60000038147,,181389.40000152588,,181399.772,8,400,,,
sequence,flow.Sequence,4_39,2023-09-06T19:19:46.931Z,,0,,,2922.4100003814674,completion,,,,,false,,,,181390.20000076294,181389.60000038147,178451.01,178459.5,178467.19,181399.772,8,400,,,
trial,html.Screen,4_40_0,2023-09-06T19:19:49.677Z,,0,1,,2736.028001144412,response,ISIC_4502605.JPG,2,ISIC_0027669.JPG,ISIC_0027669.JPG,false,0,keypress(z),500,184136.20000076294,184135.8000011444,181383.601,181390.5,181399.772,184149.201,8,400,41,,ISIC_4502605.JPG
break,html.Screen,4_40_1,2023-09-06T19:19:49.678Z,,0,,,NaN,,,,,,false,,,,184137.60000038147,184137,,184136.60000038147,,184149.201,8,400,,,
break_continue,html.Screen,4_40_2,2023-09-06T19:19:49.679Z,,0,,,NaN,,,,,,false,,,,184138.3000011444,184138,,184137.8000011444,,184149.201,8,400,,,
sequence,flow.Sequence,4_40,2023-09-06T19:19:49.679Z,,0,,,2738.228000000003,completion,,,,,false,,,,184138.5,184138,181383.601,181390.40000152588,181399.772,184149.201,8,400,,,
trial,html.Screen,4_41_0,2023-09-06T19:19:54.756Z,,0,1,,5065.899000381469,response,ISIC_0058781.JPG,11,ISIC_0070463.JPG,ISIC_0070463.JPG,false,0,keypress(z),500,189215.40000152588,189215.10000038147,184132.932,184138.8000011444,184149.201,189231.187,8,400,42,,ISIC_0058781.JPG
break,html.Screen,4_41_1,2023-09-06T19:19:54.758Z,,0,,,NaN,,,,,,false,,,,189216.70000076294,189216.40000152588,,189215.8000011444,,189231.187,8,400,,,
break_continue,html.Screen,4_41_2,2023-09-06T19:19:54.758Z,,0,,,NaN,,,,,,false,,,,189217.3000011444,189217.10000038147,,189216.90000152588,,189231.187,8,400,,,
sequence,flow.Sequence,4_41,2023-09-06T19:19:54.758Z,,0,,,5067.899000381469,completion,,,,,false,,,,189217.60000038147,189217.10000038147,184132.932,184138.70000076294,184149.201,189231.187,8,400,,,
trial,html.Screen,4_42_0,2023-09-06T19:19:57.457Z,,0,1,,2684.8129999999946,response,ISIC_0056771.JPG,12,ISIC_0028420.JPG,ISIC_0056771.JPG,false,1,keypress(m),500,191916.40000152588,191916,189215.009,189217.90000152588,189231.187,191930.971,8,400,43,,ISIC_0028420.JPG
break,html.Screen,4_42_1,2023-09-06T19:19:57.458Z,,0,,,NaN,,,,,,false,,,,191917.60000038147,191917.20000076294,,191916.70000076294,,191930.971,8,400,,,
break_continue,html.Screen,4_42_2,2023-09-06T19:19:57.459Z,,0,,,NaN,,,,,,false,,,,191918.20000076294,191918.10000038147,,191917.90000152588,,191930.971,8,400,,,
sequence,flow.Sequence,4_42,2023-09-06T19:19:57.459Z,,0,,,2686.9130003814644,completion,,,,,false,,,,191918.5,191918.10000038147,189215.009,189217.8000011444,189231.187,191930.971,8,400,,,
trial,html.Screen,4_43_0,2023-09-06T19:20:00.427Z,,0,1,,2954.4290015258885,response,ISIC_0062980.JPG,6,ISIC_0063180.JPG,ISIC_0062980.JPG,false,1,keypress(m),500,194885.8000011444,194885.40000152588,191914.352,191918.70000076294,191930.971,194896.617,8,400,44,,ISIC_0063180.JPG
break,html.Screen,4_43_1,2023-09-06T19:20:00.428Z,,0,,,NaN,,,,,,false,,,,194887,194886.60000038147,,194886.10000038147,,194896.617,8,400,,,
break_continue,html.Screen,4_43_2,2023-09-06T19:20:00.428Z,,0,,,NaN,,,,,,false,,,,194887.70000076294,194887.40000152588,,194887.3000011444,,194896.617,8,400,,,
sequence,flow.Sequence,4_43,2023-09-06T19:20:00.429Z,,0,,,2956.4290015258885,completion,,,,,false,,,,194888,194887.40000152588,191914.352,191918.60000038147,191930.971,194896.617,8,400,,,
trial,html.Screen,4_44_0,2023-09-06T19:20:03.334Z,,0,1,,2896.583000762941,response,ISIC_0032192.JPG,4,ISIC_9566964.JPG,ISIC_0032192.JPG,false,1,keypress(m),500,197793.60000038147,197793.20000076294,194880.304,194888.10000038147,194896.617,197795.743,8,400,45,,ISIC_9566964.JPG
break,html.Screen,4_44_1,2023-09-06T19:20:03.336Z,,0,,,NaN,,,,,,false,,,,197794.8000011444,197794.40000152588,,197793.8000011444,,197795.743,8,400,,,
break_continue,html.Screen,4_44_2,2023-09-06T19:20:03.336Z,,0,,,NaN,,,,,,false,,,,197795.40000152588,197795.20000076294,,197795.10000038147,,197795.743,8,400,,,
sequence,flow.Sequence,4_44,2023-09-06T19:20:03.336Z,,0,,,2898.583000762941,completion,,,,,false,,,,197795.70000076294,197795.20000076294,194880.304,194888,194896.617,197795.743,8,400,,,
trial,html.Screen,4_45_0,2023-09-06T19:20:06.084Z,,0,1,,2747.357000381482,response,ISIC_8368872.JPG,4,ISIC_0066429.JPG,ISIC_0066429.JPG,false,0,keypress(z),500,200543.40000152588,200543.10000038147,197779.605,197795.90000152588,197795.743,200571.438,8,400,46,,ISIC_8368872.JPG
break,html.Screen,4_45_1,2023-09-06T19:20:06.085Z,,0,,,NaN,,,,,,false,,,,200544.60000038147,200544,,200543.60000038147,,200571.438,8,400,,,
break_continue,html.Screen,4_45_2,2023-09-06T19:20:06.086Z,,0,,,NaN,,,,,,false,,,,200545.20000076294,200545,,200544.90000152588,,200571.438,8,400,,,
sequence,flow.Sequence,4_45,2023-09-06T19:20:06.086Z,,0,,,2749.2570000000123,completion,,,,,false,,,,200545.5,200545,197779.605,197795.8000011444,197795.743,200571.438,8,400,,,
trial,html.Screen,4_46_0,2023-09-06T19:20:08.903Z,,0,1,,2790.3620011444145,response,ISIC_0779920.JPG,8,ISIC_0000139.JPG,ISIC_0000139.JPG,false,0,keypress(z),500,203362.10000038147,203361.8000011444,200528.932,200545.70000076294,200571.438,203377.739,8,400,47,,ISIC_0779920.JPG
break,html.Screen,4_46_1,2023-09-06T19:20:08.904Z,,0,,,NaN,,,,,,false,,,,203363.5,203362.90000152588,,203362.40000152588,,203377.739,8,400,,,
break_continue,html.Screen,4_46_2,2023-09-06T19:20:08.905Z,,0,,,NaN,,,,,,false,,,,203364.10000038147,203363.90000152588,,203363.70000076294,,203377.739,8,400,,,
sequence,flow.Sequence,4_46,2023-09-06T19:20:08.905Z,,0,,,2792.4620015258843,completion,,,,,false,,,,203364.3000011444,203363.90000152588,200528.932,200545.70000076294,200571.438,203377.739,8,400,,,
trial,html.Screen,4_47_0,2023-09-06T19:20:11.741Z,,0,1,,2821.8610003814683,response,ISIC_6423964.JPG,7,ISIC_0066399.JPG,ISIC_0066399.JPG,false,0,keypress(z),500,206199.90000152588,206199.60000038147,203361.56,203364.5,203377.739,206210.379,8,400,48,,ISIC_6423964.JPG
break,html.Screen,4_47_1,2023-09-06T19:20:11.742Z,,0,,,NaN,,,,,,false,,,,206201.3000011444,206200.8000011444,,206200.3000011444,,206210.379,8,400,,,
break_continue,html.Screen,4_47_2,2023-09-06T19:20:11.743Z,,0,,,NaN,,,,,,false,,,,206201.90000152588,206201.70000076294,,206201.5,,206210.379,8,400,,,
sequence,flow.Sequence,4_47,2023-09-06T19:20:11.743Z,,0,,,2823.961000762938,completion,,,,,false,,,,206202.20000076294,206201.70000076294,203361.56,203364.5,203377.739,206210.379,8,400,,,
trial,html.Screen,4_48_0,2023-09-06T19:20:14.544Z,,0,1,,2792.0210015258926,response,ISIC_0000152.JPG,0,ISIC_3775417.JPG,ISIC_0000152.JPG,false,1,keypress(m),500,209002.8000011444,209002.40000152588,206194.197,206202.3000011444,206210.379,209009.703,8,400,49,,ISIC_3775417.JPG
break,html.Screen,4_48_1,2023-09-06T19:20:14.545Z,,0,,,NaN,,,,,,false,,,,209003.90000152588,209003.5,,209003,,209009.703,8,400,,,
break_continue,html.Screen,4_48_2,2023-09-06T19:20:14.545Z,,0,,,NaN,,,,,,false,,,,209004.40000152588,209004.3000011444,,209004.20000076294,,209009.703,8,400,,,
sequence,flow.Sequence,4_48,2023-09-06T19:20:14.546Z,,0,,,2793.921001144423,completion,,,,,false,,,,209004.70000076294,209004.3000011444,206194.197,206202.3000011444,206210.379,209009.703,8,400,,,
trial,html.Screen,4_49_0,2023-09-06T19:20:17.203Z,,0,1,,2652.497000762931,response,ISIC_0031598.JPG,13,ISIC_0032993.JPG,ISIC_0032993.JPG,false,0,keypress(z),500,211662.70000076294,211662.20000076294,208993.522,209004.90000152588,209009.703,211676.182,8,400,50,,ISIC_0031598.JPG
break,html.Screen,4_49_1,2023-09-06T19:20:27.199Z,,0,,,9997.130000000005,timeout,,,,,false,,,,221658.3000011444,221656.665,211659.543,211663,211676.182,221673.312,8,400,,,
break_continue,html.Screen,4_49_2,2023-09-06T19:20:28.510Z,,0,,,1267.9880011444038,response,,,,,false,continue,keypress(Space),,222968.90000152588,222941.3000011444,221656.665,221658.8000011444,221673.312,222972.973,8,400,,,
sequence,flow.Sequence,4_49,2023-09-06T19:20:28.510Z,,0,,,13931.5970011444,completion,,,,,false,,,,222969.40000152588,222941.3000011444,208993.522,209004.90000152588,209009.703,222972.973,8,400,,,
trial,html.Screen,4_50_0,2023-09-06T19:20:31.206Z,,0,2,,2691.6270003814716,response,ISIC_1470245.JPG,9,ISIC_0030852.JPG,ISIC_0030852.JPG,false,0,keypress(z),500,225665.10000038147,225664.60000038147,222956.465,222969.70000076294,222972.973,225672.36,8,400,1,,ISIC_1470245.JPG
break,html.Screen,4_50_1,2023-09-06T19:20:31.208Z,,0,,,NaN,,,,,,false,,,,225666.70000076294,225666.10000038147,,225665.5,,225672.36,8,400,,,
break_continue,html.Screen,4_50_2,2023-09-06T19:20:31.208Z,,0,,,NaN,,,,,,false,,,,225667.5,225667.3000011444,,225667,,225672.36,8,400,,,
sequence,flow.Sequence,4_50,2023-09-06T19:20:31.209Z,,0,,,2694.327001144411,completion,,,,,false,,,,225667.8000011444,225667.3000011444,222956.465,222969.60000038147,222972.973,225672.36,8,400,,,
trial,html.Screen,4_51_0,2023-09-06T19:20:33.919Z,,0,2,,2705.040001525893,response,ISIC_0013141.JPG,14,ISIC_4312841.JPG,ISIC_0013141.JPG,false,1,keypress(m),500,228377.70000076294,228377.40000152588,225656.135,225668.10000038147,225672.36,228388.28,8,400,2,,ISIC_4312841.JPG
break,html.Screen,4_51_1,2023-09-06T19:20:33.920Z,,0,,,NaN,,,,,,false,,,,228379.20000076294,228378.8000011444,,228378,,228388.28,8,400,,,
break_continue,html.Screen,4_51_2,2023-09-06T19:20:33.921Z,,0,,,NaN,,,,,,false,,,,228379.90000152588,228379.70000076294,,228379.40000152588,,228388.28,8,400,,,
sequence,flow.Sequence,4_51,2023-09-06T19:20:33.921Z,,0,,,2707.3400007629534,completion,,,,,false,,,,228380.3000011444,228379.70000076294,225656.135,225668,225672.36,228388.28,8,400,,,
trial,html.Screen,4_52_0,2023-09-06T19:20:36.516Z,,0,2,,2586.62000152588,response,ISIC_1560272.JPG,8,ISIC_5150200.JPG,ISIC_1560272.JPG,false,1,keypress(m),500,230975.5,230974.90000152588,228371.805,228380.5,228388.28,230987.753,8,400,3,,ISIC_5150200.JPG
break,html.Screen,4_52_1,2023-09-06T19:20:36.518Z,,0,,,NaN,,,,,,false,,,,230977.10000038147,230976.70000076294,,230975.90000152588,,230987.753,8,400,,,
break_continue,html.Screen,4_52_2,2023-09-06T19:20:36.519Z,,0,,,NaN,,,,,,false,,,,230977.70000076294,230977.60000038147,,230977.3000011444,,230987.753,8,400,,,
sequence,flow.Sequence,4_52,2023-09-06T19:20:36.519Z,,0,,,2589.320000381471,completion,,,,,false,,,,230978,230977.60000038147,228371.805,228380.40000152588,228388.28,230987.753,8,400,,,
trial,html.Screen,4_53_0,2023-09-06T19:20:39.107Z,,0,2,,2577.8470003814728,response,ISIC_0000287.JPG,11,ISIC_7658729.JPG,ISIC_0000287.JPG,false,1,keypress(m),500,233565.90000152588,233565.60000038147,230971.115,230978.3000011444,230987.753,233570.349,8,400,4,,ISIC_7658729.JPG
break,html.Screen,4_53_1,2023-09-06T19:20:39.108Z,,0,,,NaN,,,,,,false,,,,233567.20000076294,233566.70000076294,,233566.3000011444,,233570.349,8,400,,,
break_continue,html.Screen,4_53_2,2023-09-06T19:20:39.109Z,,0,,,NaN,,,,,,false,,,,233567.8000011444,233567.70000076294,,233567.5,,233570.349,8,400,,,
sequence,flow.Sequence,4_53,2023-09-06T19:20:39.109Z,,0,,,2579.9470007629425,completion,,,,,false,,,,233568.10000038147,233567.70000076294,230971.115,230978.20000076294,230987.753,233570.349,8,400,,,
trial,html.Screen,4_54_0,2023-09-06T19:20:41.743Z,,0,2,,2631.351000762952,response,ISIC_3518299.JPG,15,ISIC_0010046.JPG,ISIC_0010046.JPG,false,0,keypress(z),500,236202,236201.70000076294,233554.177,233568.40000152588,233570.349,236236.397,8,400,5,,ISIC_3518299.JPG
break,html.Screen,4_54_1,2023-09-06T19:20:41.744Z,,0,,,NaN,,,,,,false,,,,236203.3000011444,236202.90000152588,,236202.40000152588,,236236.397,8,400,,,
break_continue,html.Screen,4_54_2,2023-09-06T19:20:41.745Z,,0,,,NaN,,,,,,false,,,,236203.90000152588,236203.70000076294,,236203.60000038147,,236236.397,8,400,,,
sequence,flow.Sequence,4_54,2023-09-06T19:20:41.745Z,,0,,,2633.351000762952,completion,,,,,false,,,,236204.10000038147,236203.70000076294,233554.177,233568.20000076294,233570.349,236236.397,8,400,,,
trial,html.Screen,4_55_0,2023-09-06T19:20:44.385Z,,0,2,,2607.403001144412,response,ISIC_5278307.JPG,8,ISIC_4652186.JPG,ISIC_5278307.JPG,false,1,keypress(m),500,238844.20000076294,238843.8000011444,236220.14,236204.40000152588,236236.397,238852.371,8,400,6,,ISIC_4652186.JPG
break,html.Screen,4_55_1,2023-09-06T19:20:44.386Z,,0,,,NaN,,,,,,false,,,,238845.60000038147,238845,,238844.60000038147,,238852.371,8,400,,,
break_continue,html.Screen,4_55_2,2023-09-06T19:20:44.387Z,,0,,,NaN,,,,,,false,,,,238846.10000038147,238845.90000152588,,238845.70000076294,,238852.371,8,400,,,
sequence,flow.Sequence,4_55,2023-09-06T19:20:44.387Z,,0,,,2609.5030015258817,completion,,,,,false,,,,238846.40000152588,238845.90000152588,236220.14,236204.3000011444,236236.397,238852.371,8,400,,,
trial,html.Screen,4_56_0,2023-09-06T19:20:47.799Z,,0,2,,3405.1289999999863,response,ISIC_7528996.JPG,6,ISIC_0067804.JPG,ISIC_0067804.JPG,false,0,keypress(z),500,242257.90000152588,242257.5,238835.8,238846.60000038147,238852.371,242268.212,8,400,7,,ISIC_7528996.JPG
break,html.Screen,4_56_1,2023-09-06T19:20:47.800Z,,0,,,NaN,,,,,,false,,,,242259.5,242259,,242258.3000011444,,242268.212,8,400,,,
break_continue,html.Screen,4_56_2,2023-09-06T19:20:47.801Z,,0,,,NaN,,,,,,false,,,,242260.20000076294,242259.90000152588,,242259.70000076294,,242268.212,8,400,,,
sequence,flow.Sequence,4_56,2023-09-06T19:20:47.801Z,,0,,,3407.529001525865,completion,,,,,false,,,,242260.5,242259.90000152588,238835.8,238846.5,238852.371,242268.212,8,400,,,
trial,html.Screen,4_57_0,2023-09-06T19:20:50.706Z,,0,2,,2896.2880000000005,response,ISIC_0834745.JPG,12,ISIC_5413788.JPG,ISIC_5413788.JPG,false,0,keypress(z),500,245164.90000152588,245164.5,242251.603,242260.60000038147,242268.212,245167.527,8,400,8,,ISIC_0834745.JPG
break,html.Screen,4_57_1,2023-09-06T19:20:50.707Z,,0,,,NaN,,,,,,false,,,,245166.20000076294,245165.70000076294,,245165.10000038147,,245167.527,8,400,,,
break_continue,html.Screen,4_57_2,2023-09-06T19:20:50.708Z,,0,,,NaN,,,,,,false,,,,245166.90000152588,245166.60000038147,,245166.40000152588,,245167.527,8,400,,,
sequence,flow.Sequence,4_57,2023-09-06T19:20:50.708Z,,0,,,2898.38800038147,completion,,,,,false,,,,245167.10000038147,245166.60000038147,242251.603,242260.60000038147,242268.212,245167.527,8,400,,,
trial,html.Screen,4_58_0,2023-09-06T19:20:55.057Z,,0,2,,4348.073000381468,response,ISIC_0000462.JPG,11,ISIC_0069633.JPG,ISIC_0069633.JPG,false,0,keypress(z),500,249516.20000076294,249515.60000038147,245151.398,245167.40000152588,245167.527,249533.634,8,400,9,,ISIC_0000462.JPG
break,html.Screen,4_58_1,2023-09-06T19:20:55.058Z,,0,,,NaN,,,,,,false,,,,249517.5,249516.90000152588,,249516.5,,249533.634,8,400,,,
break_continue,html.Screen,4_58_2,2023-09-06T19:20:55.059Z,,0,,,NaN,,,,,,false,,,,249518,249517.8000011444,,249517.70000076294,,249533.634,8,400,,,
sequence,flow.Sequence,4_58,2023-09-06T19:20:55.059Z,,0,,,4350.273001144407,completion,,,,,false,,,,249518.20000076294,249517.8000011444,245151.398,245167.40000152588,245167.527,249533.634,8,400,,,
trial,html.Screen,4_59_0,2023-09-06T19:20:57.834Z,,0,2,,2759.5660007629485,response,ISIC_4130478.JPG,13,ISIC_0054914.JPG,ISIC_0054914.JPG,false,0,keypress(z),500,252293.60000038147,252293.20000076294,249516.942,249518.5,249533.634,252315.74,8,400,10,,ISIC_4130478.JPG
break,html.Screen,4_59_1,2023-09-06T19:20:57.836Z,,0,,,NaN,,,,,,false,,,,252294.70000076294,252294.40000152588,,252293.90000152588,,252315.74,8,400,,,
break_continue,html.Screen,4_59_2,2023-09-06T19:20:57.836Z,,0,,,NaN,,,,,,false,,,,252295.40000152588,252295.10000038147,,252295,,252315.74,8,400,,,
sequence,flow.Sequence,4_59,2023-09-06T19:20:57.836Z,,0,,,2761.466000381479,completion,,,,,false,,,,252295.60000038147,252295.10000038147,249516.942,249518.40000152588,249533.634,252315.74,8,400,,,
trial,html.Screen,4_60_0,2023-09-06T19:21:00.500Z,,0,2,,2643.4600007629488,response,ISIC_0026559.JPG,12,ISIC_0007678.JPG,ISIC_0026559.JPG,false,1,keypress(m),500,254959.60000038147,254959.20000076294,252299.22,252295.90000152588,252315.74,254965.114,8,400,11,,ISIC_0007678.JPG
break,html.Screen,4_60_1,2023-09-06T19:21:00.502Z,,0,,,NaN,,,,,,false,,,,254960.90000152588,254960.3000011444,,254959.90000152588,,254965.114,8,400,,,
break_continue,html.Screen,4_60_2,2023-09-06T19:21:00.502Z,,0,,,NaN,,,,,,false,,,,254961.40000152588,254961.20000076294,,254961,,254965.114,8,400,,,
sequence,flow.Sequence,4_60,2023-09-06T19:21:00.502Z,,0,,,2645.4600007629488,completion,,,,,false,,,,254961.70000076294,254961.20000076294,252299.22,252295.8000011444,252315.74,254965.114,8,400,,,
trial,html.Screen,4_61_0,2023-09-06T19:21:03.915Z,,0,2,,3408.8859999999986,response,ISIC_0011697.JPG,11,ISIC_9745562.JPG,ISIC_0011697.JPG,false,1,keypress(m),500,258374.3000011444,258374,254948.541,254961.90000152588,254965.114,258380.945,8,400,12,,ISIC_9745562.JPG
break,html.Screen,4_61_1,2023-09-06T19:21:03.916Z,,0,,,NaN,,,,,,false,,,,258375.5,258375.10000038147,,258374.60000038147,,258380.945,8,400,,,
break_continue,html.Screen,4_61_2,2023-09-06T19:21:03.917Z,,0,,,NaN,,,,,,false,,,,258376.3000011444,258376,,258375.8000011444,,258380.945,8,400,,,
sequence,flow.Sequence,4_61,2023-09-06T19:21:03.917Z,,0,,,3410.8859999999986,completion,,,,,false,,,,258376.60000038147,258376,254948.541,254961.8000011444,254965.114,258380.945,8,400,,,
trial,html.Screen,4_62_0,2023-09-06T19:21:08.499Z,,0,2,,4576.955001525872,response,ISIC_0510774.JPG,5,ISIC_2565206.JPG,ISIC_0510774.JPG,false,1,keypress(m),500,262958.10000038147,262957.9000015259,258364.785,258376.8000011444,258380.945,262963.107,8,400,13,,ISIC_2565206.JPG
break,html.Screen,4_62_1,2023-09-06T19:21:08.499Z,,0,,,NaN,,,,,,false,,,,262958.60000038147,262958.5,,262958.20000076294,,262963.107,8,400,,,
break_continue,html.Screen,4_62_2,2023-09-06T19:21:08.500Z,,0,,,NaN,,,,,,false,,,,262959,262958.8000011444,,262958.8000011444,,262963.107,8,400,,,
sequence,flow.Sequence,4_62,2023-09-06T19:21:08.500Z,,0,,,4577.855001144402,completion,,,,,false,,,,262959.10000038147,262958.8000011444,258364.785,258376.8000011444,258380.945,262963.107,8,400,,,
trial,html.Screen,4_63_0,2023-09-06T19:21:11.367Z,,0,2,,2862.693001144391,response,ISIC_2977718.JPG,13,ISIC_1014075.JPG,ISIC_2977718.JPG,false,1,keypress(m),500,265826.20000076294,265825.8000011444,262946.516,262959.20000076294,262963.107,265829.116,8,400,14,,ISIC_1014075.JPG
break,html.Screen,4_63_1,2023-09-06T19:21:11.369Z,,0,,,NaN,,,,,,false,,,,265828,265827.60000038147,,265826.8000011444,,265829.116,8,400,,,
break_continue,html.Screen,4_63_2,2023-09-06T19:21:11.369Z,,0,,,NaN,,,,,,false,,,,265828.60000038147,265828.4000015259,,265828.20000076294,,265829.116,8,400,,,
sequence,flow.Sequence,4_63,2023-09-06T19:21:11.370Z,,0,,,2865.2930015258607,completion,,,,,false,,,,265828.9000015259,265828.4000015259,262946.516,262959.20000076294,262963.107,265829.116,8,400,,,
trial,html.Screen,4_64_0,2023-09-06T19:21:14.137Z,,0,2,,2766.4840003814897,response,ISIC_0055513.JPG,15,ISIC_0197584.JPG,ISIC_0055513.JPG,false,1,keypress(m),500,268596,268595.60000038147,265812.866,265829.5,265829.116,268611.782,8,400,15,,ISIC_0197584.JPG
break,html.Screen,4_64_1,2023-09-06T19:21:14.138Z,,0,,,NaN,,,,,,false,,,,268597.3000011444,268596.70000076294,,268596.20000076294,,268611.782,8,400,,,
break_continue,html.Screen,4_64_2,2023-09-06T19:21:14.139Z,,0,,,NaN,,,,,,false,,,,268598.10000038147,268597.9000015259,,268597.60000038147,,268611.782,8,400,,,
sequence,flow.Sequence,4_64,2023-09-06T19:21:14.139Z,,0,,,2768.784001525899,completion,,,,,false,,,,268598.5,268597.9000015259,265812.866,265829.4000015259,265829.116,268611.782,8,400,,,
trial,html.Screen,4_65_0,2023-09-06T19:21:17.805Z,,0,2,,3651.918000762933,response,ISIC_0015245.JPG,13,ISIC_0025535.JPG,ISIC_0015245.JPG,false,1,keypress(m),500,272264.20000076294,272263.70000076294,268595.62,268598.8000011444,268611.782,272277.689,8,400,16,,ISIC_0025535.JPG
break,html.Screen,4_65_1,2023-09-06T19:21:17.806Z,,0,,,NaN,,,,,,false,,,,272265.70000076294,272265.3000011444,,272264.60000038147,,272277.689,8,400,,,
break_continue,html.Screen,4_65_2,2023-09-06T19:21:17.807Z,,0,,,NaN,,,,,,false,,,,272266.5,272266.3000011444,,272265.9000015259,,272277.689,8,400,,,
sequence,flow.Sequence,4_65,2023-09-06T19:21:17.808Z,,0,,,3654.5180011444027,completion,,,,,false,,,,272266.9000015259,272266.3000011444,268595.62,268598.70000076294,268611.782,272277.689,8,400,,,
trial,html.Screen,4_66_0,2023-09-06T19:21:20.868Z,,0,2,,3048.810999999987,response,ISIC_0014221.JPG,6,ISIC_4224064.JPG,ISIC_0014221.JPG,false,1,keypress(m),500,275327,275326.5,272261.408,272267.10000038147,272277.689,275343.448,8,400,17,,ISIC_4224064.JPG
break,html.Screen,4_66_1,2023-09-06T19:21:20.869Z,,0,,,NaN,,,,,,false,,,,275328.3000011444,275327.8000011444,,275327.4000015259,,275343.448,8,400,,,
break_continue,html.Screen,4_66_2,2023-09-06T19:21:20.870Z,,0,,,NaN,,,,,,false,,,,275328.8000011444,275328.60000038147,,275328.5,,275343.448,8,400,,,
sequence,flow.Sequence,4_66,2023-09-06T19:21:20.870Z,,0,,,3050.9110003814567,completion,,,,,false,,,,275329.10000038147,275328.60000038147,272261.408,272267.10000038147,272277.689,275343.448,8,400,,,
trial,html.Screen,4_67_0,2023-09-06T19:21:23.970Z,,0,2,,3085.152000381495,response,ISIC_0034039.JPG,14,ISIC_2693412.JPG,ISIC_0034039.JPG,false,1,keypress(m),500,278429.10000038147,278428.60000038147,275327.304,275329.20000076294,275343.448,278442.765,8,400,18,,ISIC_2693412.JPG
break,html.Screen,4_67_1,2023-09-06T19:21:23.971Z,,0,,,NaN,,,,,,false,,,,278430.60000038147,278430.10000038147,,278429.5,,278442.765,8,400,,,
break_continue,html.Screen,4_67_2,2023-09-06T19:21:23.972Z,,0,,,NaN,,,,,,false,,,,278431.20000076294,278431,,278430.8000011444,,278442.765,8,400,,,
sequence,flow.Sequence,4_67,2023-09-06T19:21:23.972Z,,0,,,3087.552000000025,completion,,,,,false,,,,278431.5,278431,275327.304,275329.20000076294,275343.448,278442.765,8,400,,,
trial,html.Screen,4_68_0,2023-09-06T19:21:27.633Z,,0,2,,3648.734999999986,response,ISIC_0013775.JPG,8,ISIC_2376016.JPG,ISIC_0013775.JPG,false,1,keypress(m),500,282091.9000015259,282091.5,278426.57,278431.60000038147,278442.765,282108.613,8,400,19,,ISIC_2376016.JPG
break,html.Screen,4_68_1,2023-09-06T19:21:27.634Z,,0,,,NaN,,,,,,false,,,,282093.60000038147,282093,,282092.20000076294,,282108.613,8,400,,,
break_continue,html.Screen,4_68_2,2023-09-06T19:21:27.635Z,,0,,,NaN,,,,,,false,,,,282094.4000015259,282094,,282093.8000011444,,282108.613,8,400,,,
sequence,flow.Sequence,4_68,2023-09-06T19:21:27.636Z,,0,,,3651.234999999986,completion,,,,,false,,,,282094.9000015259,282094,278426.57,278431.60000038147,278442.765,282108.613,8,400,,,
trial,html.Screen,4_69_0,2023-09-06T19:21:32.370Z,,0,2,,4719.886999999988,response,ISIC_9276931.JPG,5,ISIC_4459125.JPG,ISIC_9276931.JPG,false,1,keypress(m),500,286828.9000015259,286828.5,282091.898,282095.3000011444,282108.613,286840.705,8,400,20,,ISIC_4459125.JPG
break,html.Screen,4_69_1,2023-09-06T19:21:32.371Z,,0,,,NaN,,,,,,false,,,,286830.60000038147,286829.9000015259,,286829.20000076294,,286840.705,8,400,,,
break_continue,html.Screen,4_69_2,2023-09-06T19:21:32.372Z,,0,,,NaN,,,,,,false,,,,286831.4000015259,286831.10000038147,,286830.9000015259,,286840.705,8,400,,,
sequence,flow.Sequence,4_69,2023-09-06T19:21:32.373Z,,0,,,4722.487000381458,completion,,,,,false,,,,286831.9000015259,286831.10000038147,282091.898,282095.20000076294,282108.613,286840.705,8,400,,,
trial,html.Screen,4_70_0,2023-09-06T19:21:35.637Z,,0,2,,3255.495000762923,response,ISIC_0030462.JPG,17,ISIC_0061315.JPG,ISIC_0061315.JPG,false,0,keypress(z),500,290096.70000076294,290096.20000076294,286824.082,286832.10000038147,286840.705,290106.507,8,400,21,,ISIC_0030462.JPG
break,html.Screen,4_70_1,2023-09-06T19:21:35.639Z,,0,,,NaN,,,,,,false,,,,290098,290097.60000038147,,290097,,290106.507,8,400,,,
break_continue,html.Screen,4_70_2,2023-09-06T19:21:35.639Z,,0,,,NaN,,,,,,false,,,,290098.5,290098.3000011444,,290098.20000076294,,290106.507,8,400,,,
sequence,flow.Sequence,4_70,2023-09-06T19:21:35.640Z,,0,,,3257.595001144393,completion,,,,,false,,,,290098.8000011444,290098.3000011444,286824.082,286832,286840.705,290106.507,8,400,,,
trial,html.Screen,4_71_0,2023-09-06T19:21:38.467Z,,0,2,,2818.8930015258957,response,ISIC_0003217.JPG,11,ISIC_0061293.JPG,ISIC_0061293.JPG,false,0,keypress(z),500,292925.8000011444,292925.4000015259,290089.928,290099,290106.507,292939.219,8,400,22,,ISIC_0003217.JPG
break,html.Screen,4_71_1,2023-09-06T19:21:38.468Z,,0,,,NaN,,,,,,false,,,,292927.4000015259,292926.8000011444,,292926.10000038147,,292939.219,8,400,,,
break_continue,html.Screen,4_71_2,2023-09-06T19:21:38.469Z,,0,,,NaN,,,,,,false,,,,292928,292927.8000011444,,292927.60000038147,,292939.219,8,400,,,
sequence,flow.Sequence,4_71,2023-09-06T19:21:38.469Z,,0,,,2821.293001144426,completion,,,,,false,,,,292928.4000015259,292927.8000011444,290089.928,290098.9000015259,290106.507,292939.219,8,400,,,
trial,html.Screen,4_72_0,2023-09-06T19:21:41.175Z,,0,2,,2694.2810000000172,response,ISIC_1330008.JPG,7,ISIC_9538419.JPG,ISIC_1330008.JPG,false,1,keypress(m),500,295633.9000015259,295633.5,292923.01,292928.60000038147,292939.219,295638.524,8,400,23,,ISIC_9538419.JPG
break,html.Screen,4_72_1,2023-09-06T19:21:41.176Z,,0,,,NaN,,,,,,false,,,,295635.3000011444,295634.8000011444,,295634.20000076294,,295638.524,8,400,,,
break_continue,html.Screen,4_72_2,2023-09-06T19:21:41.177Z,,0,,,NaN,,,,,,false,,,,295635.9000015259,295635.70000076294,,295635.5,,295638.524,8,400,,,
sequence,flow.Sequence,4_72,2023-09-06T19:21:41.177Z,,0,,,2696.4810007629567,completion,,,,,false,,,,295636.20000076294,295635.70000076294,292923.01,292928.5,292939.219,295638.524,8,400,,,
trial,html.Screen,4_73_0,2023-09-06T19:21:44.855Z,,0,2,,3675.476000000024,response,ISIC_0013813.JPG,7,ISIC_0062713.JPG,ISIC_0062713.JPG,false,0,keypress(z),500,299314.5,299314,295622.362,295636.4000015259,295638.524,299320.931,8,400,24,,ISIC_0013813.JPG
break,html.Screen,4_73_1,2023-09-06T19:21:44.857Z,,0,,,NaN,,,,,,false,,,,299315.9000015259,299315.20000076294,,299314.70000076294,,299320.931,8,400,,,
break_continue,html.Screen,4_73_2,2023-09-06T19:21:44.857Z,,0,,,NaN,,,,,,false,,,,299316.4000015259,299316.20000076294,,299316,,299320.931,8,400,,,
sequence,flow.Sequence,4_73,2023-09-06T19:21:44.857Z,,0,,,3677.6760007629637,completion,,,,,false,,,,299316.70000076294,299316.20000076294,295622.362,295636.4000015259,295638.524,299320.931,8,400,,,
trial,html.Screen,4_74_0,2023-09-06T19:21:47.523Z,,0,2,,2660.769000762957,response,ISIC_4534608.JPG,8,ISIC_0002675.JPG,ISIC_4534608.JPG,false,1,keypress(m),500,301982.20000076294,301981.70000076294,299304.63,299316.9000015259,299320.931,301986.972,8,400,25,,ISIC_0002675.JPG
break,html.Screen,4_74_1,2023-09-06T19:21:47.524Z,,0,,,NaN,,,,,,false,,,,301983.5,301983,,301982.5,,301986.972,8,400,,,
break_continue,html.Screen,4_74_2,2023-09-06T19:21:47.525Z,,0,,,NaN,,,,,,false,,,,301984.20000076294,301983.9000015259,,301983.8000011444,,301986.972,8,400,,,
sequence,flow.Sequence,4_74,2023-09-06T19:21:47.525Z,,0,,,2662.9690015258966,completion,,,,,false,,,,301984.4000015259,301983.9000015259,299304.63,299316.8000011444,299320.931,301986.972,8,400,,,
trial,html.Screen,4_75_0,2023-09-06T19:21:51.574Z,,0,2,,4046.2280007629306,response,ISIC_0026141.JPG,6,ISIC_0070852.JPG,ISIC_0070852.JPG,false,0,keypress(z),500,306033.5,306033.20000076294,301970.792,301984.60000038147,301986.972,306035.955,8,400,26,,ISIC_0026141.JPG
break,html.Screen,4_75_1,2023-09-06T19:21:51.576Z,,0,,,NaN,,,,,,false,,,,306035.20000076294,306034.5,,306033.8000011444,,306035.955,8,400,,,
break_continue,html.Screen,4_75_2,2023-09-06T19:21:51.577Z,,0,,,NaN,,,,,,false,,,,306035.9000015259,306035.70000076294,,306035.5,,306035.955,8,400,,,
sequence,flow.Sequence,4_75,2023-09-06T19:21:51.577Z,,0,,,4048.7280007629306,completion,,,,,false,,,,306036.4000015259,306035.70000076294,301970.792,301984.60000038147,301986.972,306035.955,8,400,,,
trial,html.Screen,4_76_0,2023-09-06T19:21:54.200Z,,0,2,,2622.745000762923,response,ISIC_5005961.JPG,8,ISIC_4154293.JPG,ISIC_4154293.JPG,false,0,keypress(z),500,308659.10000038147,308658.70000076294,306019.803,306036.70000076294,306035.955,308668.667,8,400,27,,ISIC_5005961.JPG
break,html.Screen,4_76_1,2023-09-06T19:21:54.201Z,,0,,,NaN,,,,,,false,,,,308660.60000038147,308660.10000038147,,308659.3000011444,,308668.667,8,400,,,
break_continue,html.Screen,4_76_2,2023-09-06T19:21:54.202Z,,0,,,NaN,,,,,,false,,,,308661.20000076294,308661,,308660.8000011444,,308668.667,8,400,,,
sequence,flow.Sequence,4_76,2023-09-06T19:21:54.202Z,,0,,,2625.0449999999837,completion,,,,,false,,,,308661.5,308661,306019.803,306036.60000038147,306035.955,308668.667,8,400,,,
trial,html.Screen,4_77_0,2023-09-06T19:21:57.564Z,,0,2,,3354.233001525863,response,ISIC_6398669.JPG,8,ISIC_0668772.JPG,ISIC_0668772.JPG,false,0,keypress(z),500,312023.3000011444,312022.9000015259,308652.075,308661.9000015259,308668.667,312034.487,8,400,28,,ISIC_6398669.JPG
break,html.Screen,4_77_1,2023-09-06T19:21:57.566Z,,0,,,NaN,,,,,,false,,,,312024.9000015259,312024.20000076294,,312023.70000076294,,312034.487,8,400,,,
break_continue,html.Screen,4_77_2,2023-09-06T19:21:57.566Z,,0,,,NaN,,,,,,false,,,,312025.5,312025.3000011444,,312025.10000038147,,312034.487,8,400,,,
sequence,flow.Sequence,4_77,2023-09-06T19:21:57.566Z,,0,,,3356.6330011443933,completion,,,,,false,,,,312025.8000011444,312025.3000011444,308652.075,308661.8000011444,308668.667,312034.487,8,400,,,
trial,html.Screen,4_78_0,2023-09-06T19:22:00.443Z,,0,2,,2867.512999999977,response,ISIC_0055498.JPG,5,ISIC_0059485.JPG,ISIC_0055498.JPG,false,1,keypress(m),500,314902.5,314902,312018.296,312026,312034.487,314917.139,8,400,29,,ISIC_0059485.JPG
break,html.Screen,4_78_1,2023-09-06T19:22:00.445Z,,0,,,NaN,,,,,,false,,,,314904.20000076294,314903.60000038147,,314903,,314917.139,8,400,,,
break_continue,html.Screen,4_78_2,2023-09-06T19:22:00.446Z,,0,,,NaN,,,,,,false,,,,314904.8000011444,314904.60000038147,,314904.4000015259,,314917.139,8,400,,,
sequence,flow.Sequence,4_78,2023-09-06T19:22:00.446Z,,0,,,2870.113000381447,completion,,,,,false,,,,314905.10000038147,314904.60000038147,312018.296,312025.9000015259,312034.487,314917.139,8,400,,,
trial,html.Screen,4_79_0,2023-09-06T19:22:03.502Z,,0,2,,3043.6610011443845,response,ISIC_0011884.JPG,5,ISIC_6024335.JPG,ISIC_0011884.JPG,false,1,keypress(m),500,317961.20000076294,317960.8000011444,314900.547,314905.4000015259,314917.139,317966.438,8,400,30,,ISIC_6024335.JPG
break,html.Screen,4_79_1,2023-09-06T19:22:03.503Z,,0,,,NaN,,,,,,false,,,,317962.60000038147,317962,,317961.5,,317966.438,8,400,,,
break_continue,html.Screen,4_79_2,2023-09-06T19:22:03.504Z,,0,,,NaN,,,,,,false,,,,317963.20000076294,317963,,317962.8000011444,,317966.438,8,400,,,
sequence,flow.Sequence,4_79,2023-09-06T19:22:03.504Z,,0,,,3045.8609999999753,completion,,,,,false,,,,317963.5,317963,314900.547,314905.3000011444,314917.139,317966.438,8,400,,,
trial,html.Screen,4_80_0,2023-09-06T19:22:06.185Z,,0,2,,2677.8620011443854,response,ISIC_8630818.JPG,8,ISIC_3545622.JPG,ISIC_3545622.JPG,false,0,keypress(z),500,320644.70000076294,320644.3000011444,317950.236,317963.70000076294,317966.438,320649.065,8,400,31,,ISIC_8630818.JPG
break,html.Screen,4_80_1,2023-09-06T19:22:06.187Z,,0,,,NaN,,,,,,false,,,,320646,320645.5,,320644.9000015259,,320649.065,8,400,,,
break_continue,html.Screen,4_80_2,2023-09-06T19:22:06.187Z,,0,,,NaN,,,,,,false,,,,320646.5,320646.3000011444,,320646.20000076294,,320649.065,8,400,,,
sequence,flow.Sequence,4_80,2023-09-06T19:22:06.188Z,,0,,,2679.8620011443854,completion,,,,,false,,,,320646.9000015259,320646.3000011444,317950.236,317963.60000038147,317966.438,320649.065,8,400,,,
trial,html.Screen,4_81_0,2023-09-06T19:22:11.073Z,,0,2,,4882.735001144407,response,ISIC_0032922.JPG,5,ISIC_0010962.JPG,ISIC_0010962.JPG,false,0,keypress(z),500,325532.3000011444,325531.8000011444,320632.913,320647.10000038147,320649.065,325547.883,8,400,32,,ISIC_0032922.JPG
break,html.Screen,4_81_1,2023-09-06T19:22:11.075Z,,0,,,NaN,,,,,,false,,,,325534,325533.60000038147,,325532.60000038147,,325547.883,8,400,,,
break_continue,html.Screen,4_81_2,2023-09-06T19:22:11.075Z,,0,,,NaN,,,,,,false,,,,325534.70000076294,325534.5,,325534.3000011444,,325547.883,8,400,,,
sequence,flow.Sequence,4_81,2023-09-06T19:22:11.076Z,,0,,,4885.434999999998,completion,,,,,false,,,,325535,325534.5,320632.913,320647,320649.065,325547.883,8,400,,,
trial,html.Screen,4_82_0,2023-09-06T19:22:13.726Z,,0,2,,2637.6170000000275,response,ISIC_5721677.JPG,7,ISIC_4347535.JPG,ISIC_4347535.JPG,false,0,keypress(z),500,328185.8000011444,328185.5,325531.272,325535.3000011444,325547.883,328197.213,8,400,33,,ISIC_5721677.JPG
break,html.Screen,4_82_1,2023-09-06T19:22:13.728Z,,0,,,NaN,,,,,,false,,,,328187.20000076294,328186.8000011444,,328186,,328197.213,8,400,,,
break_continue,html.Screen,4_82_2,2023-09-06T19:22:13.729Z,,0,,,NaN,,,,,,false,,,,328188,328187.70000076294,,328187.60000038147,,328197.213,8,400,,,
sequence,flow.Sequence,4_82,2023-09-06T19:22:13.729Z,,0,,,2639.817000762967,completion,,,,,false,,,,328188.5,328187.70000076294,325531.272,325535.3000011444,325547.883,328197.213,8,400,,,
trial,html.Screen,4_83_0,2023-09-06T19:22:16.463Z,,0,2,,2724.18700152589,response,ISIC_0014088.JPG,14,ISIC_8423326.JPG,ISIC_0014088.JPG,false,1,keypress(m),500,330921.8000011444,330921.4000015259,328181.045,328188.8000011444,328197.213,330929.879,8,400,34,,ISIC_8423326.JPG
break,html.Screen,4_83_1,2023-09-06T19:22:16.464Z,,0,,,NaN,,,,,,false,,,,330923.10000038147,330922.60000038147,,330922.10000038147,,330929.879,8,400,,,
break_continue,html.Screen,4_83_2,2023-09-06T19:22:16.464Z,,0,,,NaN,,,,,,false,,,,330923.70000076294,330923.4000015259,,330923.3000011444,,330929.879,8,400,,,
sequence,flow.Sequence,4_83,2023-09-06T19:22:16.465Z,,0,,,2726.18700152589,completion,,,,,false,,,,330924,330923.4000015259,328181.045,328188.70000076294,328197.213,330929.879,8,400,,,
trial,html.Screen,4_84_0,2023-09-06T19:22:19.377Z,,0,2,,2906.0210015258635,response,ISIC_4728200.JPG,6,ISIC_9685928.JPG,ISIC_9685928.JPG,false,0,keypress(z),500,333836.20000076294,333835.9000015259,330913.233,330924.10000038147,330929.879,333845.824,8,400,35,,ISIC_4728200.JPG
break,html.Screen,4_84_1,2023-09-06T19:22:19.378Z,,0,,,NaN,,,,,,false,,,,333837.5,333836.9000015259,,333836.5,,333845.824,8,400,,,
break_continue,html.Screen,4_84_2,2023-09-06T19:22:19.379Z,,0,,,NaN,,,,,,false,,,,333838.10000038147,333837.9000015259,,333837.70000076294,,333845.824,8,400,,,
sequence,flow.Sequence,4_84,2023-09-06T19:22:19.379Z,,0,,,2908.0210015258635,completion,,,,,false,,,,333838.3000011444,333837.9000015259,330913.233,330924,330929.879,333845.824,8,400,,,
trial,html.Screen,4_85_0,2023-09-06T19:22:22.270Z,,0,2,,2882.7760003814474,response,ISIC_8206667.JPG,13,ISIC_0013316.JPG,ISIC_0013316.JPG,false,0,keypress(z),500,336728.9000015259,336728.60000038147,333829.278,333838.4000015259,333845.824,336745.117,8,400,36,,ISIC_8206667.JPG
break,html.Screen,4_85_1,2023-09-06T19:22:22.271Z,,0,,,NaN,,,,,,false,,,,336730.20000076294,336729.70000076294,,336729.20000076294,,336745.117,8,400,,,
break_continue,html.Screen,4_85_2,2023-09-06T19:22:22.271Z,,0,,,NaN,,,,,,false,,,,336730.70000076294,336730.60000038147,,336730.3000011444,,336745.117,8,400,,,
sequence,flow.Sequence,4_85,2023-09-06T19:22:22.272Z,,0,,,2884.7760003814474,completion,,,,,false,,,,336731,336730.60000038147,333829.278,333838.4000015259,333845.824,336745.117,8,400,,,
trial,html.Screen,4_86_0,2023-09-06T19:22:25.747Z,,0,2,,3460.2830015258514,response,ISIC_7923008.JPG,11,ISIC_0897876.JPG,ISIC_7923008.JPG,false,1,keypress(m),500,340205.8000011444,340205.4000015259,336728.529,336731.20000076294,336745.117,340210.944,8,400,37,,ISIC_0897876.JPG
break,html.Screen,4_86_1,2023-09-06T19:22:25.748Z,,0,,,NaN,,,,,,false,,,,340207.10000038147,340206.60000038147,,340206.10000038147,,340210.944,8,400,,,
break_continue,html.Screen,4_86_2,2023-09-06T19:22:25.748Z,,0,,,NaN,,,,,,false,,,,340207.60000038147,340207.4000015259,,340207.20000076294,,340210.944,8,400,,,
sequence,flow.Sequence,4_86,2023-09-06T19:22:25.749Z,,0,,,3462.2830015258514,completion,,,,,false,,,,340207.9000015259,340207.4000015259,336728.529,336731.20000076294,336745.117,340210.944,8,400,,,
trial,html.Screen,4_87_0,2023-09-06T19:22:28.715Z,,0,2,,2962.7560007629218,response,ISIC_0033424.JPG,11,ISIC_5933341.JPG,ISIC_0033424.JPG,false,1,keypress(m),500,343174.10000038147,343173.70000076294,340194.777,340208,340210.944,343176.884,8,400,38,,ISIC_5933341.JPG
break,html.Screen,4_87_1,2023-09-06T19:22:28.716Z,,0,,,NaN,,,,,,false,,,,343175.4000015259,343174.9000015259,,343174.3000011444,,343176.884,8,400,,,
break_continue,html.Screen,4_87_2,2023-09-06T19:22:28.717Z,,0,,,NaN,,,,,,false,,,,343175.9000015259,343175.70000076294,,343175.60000038147,,343176.884,8,400,,,
sequence,flow.Sequence,4_87,2023-09-06T19:22:28.717Z,,0,,,2964.7560007629218,completion,,,,,false,,,,343176.20000076294,343175.70000076294,340194.777,340208,340210.944,343176.884,8,400,,,
trial,html.Screen,4_88_0,2023-09-06T19:22:31.563Z,,0,2,,2845.516001525859,response,ISIC_6385296.JPG,7,ISIC_7799968.JPG,ISIC_6385296.JPG,false,1,keypress(m),500,346022.70000076294,346022.4000015259,343160.713,343176.4000015259,343176.884,346026.183,8,400,39,,ISIC_7799968.JPG
break,html.Screen,4_88_1,2023-09-06T19:22:31.565Z,,0,,,NaN,,,,,,false,,,,346024.10000038147,346023.5,,346023,,346026.183,8,400,,,
break_continue,html.Screen,4_88_2,2023-09-06T19:22:31.566Z,,0,,,NaN,,,,,,false,,,,346024.9000015259,346024.60000038147,,346024.4000015259,,346026.183,8,400,,,
sequence,flow.Sequence,4_88,2023-09-06T19:22:31.566Z,,0,,,2847.7160003814497,completion,,,,,false,,,,346025.10000038147,346024.60000038147,343160.713,343176.4000015259,343176.884,346026.183,8,400,,,
trial,html.Screen,4_89_0,2023-09-06T19:22:34.364Z,,0,2,,2796.816999999981,response,ISIC_4750271.JPG,6,ISIC_7130929.JPG,ISIC_4750271.JPG,false,1,keypress(m),500,348823.4000015259,348823,346009.613,346025.3000011444,346026.183,348843.592,8,400,40,,ISIC_7130929.JPG
break,html.Screen,4_89_1,2023-09-06T19:22:34.366Z,,0,,,NaN,,,,,,false,,,,348824.9000015259,348824.20000076294,,348823.70000076294,,348843.592,8,400,,,
break_continue,html.Screen,4_89_2,2023-09-06T19:22:34.366Z,,0,,,NaN,,,,,,false,,,,348825.5,348825.20000076294,,348825,,348843.592,8,400,,,
sequence,flow.Sequence,4_89,2023-09-06T19:22:34.367Z,,0,,,2799.0170007629204,completion,,,,,false,,,,348825.8000011444,348825.20000076294,346009.613,346025.3000011444,346026.183,348843.592,8,400,,,
trial,html.Screen,4_90_0,2023-09-06T19:22:37.103Z,,0,2,,2718.8080015258747,response,ISIC_6231450.JPG,5,ISIC_6654619.JPG,ISIC_6231450.JPG,false,1,keypress(m),500,351562.70000076294,351562.4000015259,348809.339,348826,348843.592,351575.05,8,400,41,,ISIC_6654619.JPG
break,html.Screen,4_90_1,2023-09-06T19:22:37.105Z,,0,,,NaN,,,,,,false,,,,351564,351563.4000015259,,351562.9000015259,,351575.05,8,400,,,
break_continue,html.Screen,4_90_2,2023-09-06T19:22:37.105Z,,0,,,NaN,,,,,,false,,,,351564.60000038147,351564.4000015259,,351564.10000038147,,351575.05,8,400,,,
sequence,flow.Sequence,4_90,2023-09-06T19:22:37.105Z,,0,,,2720.8080015258747,completion,,,,,false,,,,351564.8000011444,351564.4000015259,348809.339,348825.9000015259,348843.592,351575.05,8,400,,,
trial,html.Screen,4_91_0,2023-09-06T19:22:40.093Z,,0,2,,2976.9500000000116,response,ISIC_5620802.JPG,6,ISIC_2885086.JPG,ISIC_5620802.JPG,false,1,keypress(m),500,354552.3000011444,354552,351558.663,351565,351575.05,354557.459,8,400,42,,ISIC_2885086.JPG
break,html.Screen,4_91_1,2023-09-06T19:22:40.094Z,,0,,,NaN,,,,,,false,,,,354553.70000076294,354553.10000038147,,354552.60000038147,,354557.459,8,400,,,
break_continue,html.Screen,4_91_2,2023-09-06T19:22:40.095Z,,0,,,NaN,,,,,,false,,,,354554.3000011444,354554,,354553.8000011444,,354557.459,8,400,,,
sequence,flow.Sequence,4_91,2023-09-06T19:22:40.095Z,,0,,,2978.9500000000116,completion,,,,,false,,,,354554.60000038147,354554,351558.663,351564.9000015259,351575.05,354557.459,8,400,,,
trial,html.Screen,4_92_0,2023-09-06T19:22:43.226Z,,0,2,,3127.0410000000265,response,ISIC_4170698.JPG,6,ISIC_6773367.JPG,ISIC_4170698.JPG,false,1,keypress(m),500,357684.9000015259,357684.5,354540.875,354554.70000076294,354557.459,357690.002,8,400,43,,ISIC_6773367.JPG
break,html.Screen,4_92_1,2023-09-06T19:22:43.227Z,,0,,,NaN,,,,,,false,,,,357686.10000038147,357685.60000038147,,357685.20000076294,,357690.002,8,400,,,
break_continue,html.Screen,4_92_2,2023-09-06T19:22:43.227Z,,0,,,NaN,,,,,,false,,,,357686.5,357686.3000011444,,357686.3000011444,,357690.002,8,400,,,
sequence,flow.Sequence,4_92,2023-09-06T19:22:43.227Z,,0,,,3128.8410011444357,completion,,,,,false,,,,357686.70000076294,357686.3000011444,354540.875,354554.70000076294,354557.459,357690.002,8,400,,,
trial,html.Screen,4_93_0,2023-09-06T19:22:46.336Z,,0,2,,3104.7980011444306,response,ISIC_0010227.JPG,5,ISIC_5122042.JPG,ISIC_0010227.JPG,false,1,keypress(m),500,360795.20000076294,360794.8000011444,357673.834,357686.9000015259,357690.002,360805.902,8,400,44,,ISIC_5122042.JPG
break,html.Screen,4_93_1,2023-09-06T19:22:46.337Z,,0,,,NaN,,,,,,false,,,,360796.5,360795.9000015259,,360795.5,,360805.902,8,400,,,
break_continue,html.Screen,4_93_2,2023-09-06T19:22:46.338Z,,0,,,NaN,,,,,,false,,,,360796.9000015259,360796.70000076294,,360796.60000038147,,360805.902,8,400,,,
sequence,flow.Sequence,4_93,2023-09-06T19:22:46.338Z,,0,,,3106.698000762961,completion,,,,,false,,,,360797.20000076294,360796.70000076294,357673.834,357686.9000015259,357690.002,360805.902,8,400,,,
trial,html.Screen,4_94_0,2023-09-06T19:22:49.428Z,,0,2,,3081.2980007629376,response,ISIC_0011692.JPG,12,ISIC_9740245.JPG,ISIC_0011692.JPG,false,1,keypress(m),500,363887.5,363887.20000076294,360789.559,360797.4000015259,360805.902,363905.619,8,400,45,,ISIC_9740245.JPG
break,html.Screen,4_94_1,2023-09-06T19:22:49.429Z,,0,,,NaN,,,,,,false,,,,363888.60000038147,363888.20000076294,,363887.8000011444,,363905.619,8,400,,,
break_continue,html.Screen,4_94_2,2023-09-06T19:22:49.430Z,,0,,,NaN,,,,,,false,,,,363889.20000076294,363888.9000015259,,363888.9000015259,,363905.619,8,400,,,
sequence,flow.Sequence,4_94,2023-09-06T19:22:49.430Z,,0,,,3082.998001525877,completion,,,,,false,,,,363889.4000015259,363888.9000015259,360789.559,360797.3000011444,360805.902,363905.619,8,400,,,
trial,html.Screen,4_95_0,2023-09-06T19:22:54.166Z,,0,2,,4718.681001144403,response,ISIC_0055996.JPG,6,ISIC_0071972.JPG,ISIC_0055996.JPG,false,1,keypress(m),500,368624.70000076294,368624.3000011444,363872.33,363889.5,363905.619,368637.351,8,400,46,,ISIC_0071972.JPG
break,html.Screen,4_95_1,2023-09-06T19:22:54.167Z,,0,,,NaN,,,,,,false,,,,368626.5,368626,,368625.10000038147,,368637.351,8,400,,,
break_continue,html.Screen,4_95_2,2023-09-06T19:22:54.168Z,,0,,,NaN,,,,,,false,,,,368627.20000076294,368626.9000015259,,368626.8000011444,,368637.351,8,400,,,
sequence,flow.Sequence,4_95,2023-09-06T19:22:54.168Z,,0,,,4721.281001525873,completion,,,,,false,,,,368627.5,368626.9000015259,363872.33,363889.5,363905.619,368637.351,8,400,,,
trial,html.Screen,4_96_0,2023-09-06T19:22:57.281Z,,0,2,,3102.7490003814455,response,ISIC_0054146.JPG,12,ISIC_0006302.JPG,ISIC_0054146.JPG,false,1,keypress(m),500,371740.5,371740.10000038147,368621.192,368627.70000076294,368637.351,371753.316,8,400,47,,ISIC_0006302.JPG
break,html.Screen,4_96_1,2023-09-06T19:22:57.283Z,,0,,,NaN,,,,,,false,,,,371741.9000015259,371741.3000011444,,371740.8000011444,,371753.316,8,400,,,
break_continue,html.Screen,4_96_2,2023-09-06T19:22:57.283Z,,0,,,NaN,,,,,,false,,,,371742.5,371742.20000076294,,371742.10000038147,,371753.316,8,400,,,
sequence,flow.Sequence,4_96,2023-09-06T19:22:57.284Z,,0,,,3104.8490007629152,completion,,,,,false,,,,371742.70000076294,371742.20000076294,368621.192,368627.70000076294,368637.351,371753.316,8,400,,,
trial,html.Screen,4_97_0,2023-09-06T19:23:00.472Z,,0,2,,3177.284000381478,response,ISIC_2974214.JPG,12,ISIC_9864402.JPG,ISIC_2974214.JPG,false,1,keypress(m),500,374931,374930.60000038147,371737.102,371743,371753.316,374935.81,8,400,48,,ISIC_9864402.JPG
break,html.Screen,4_97_1,2023-09-06T19:23:00.473Z,,0,,,NaN,,,,,,false,,,,374932.3000011444,374931.8000011444,,374931.3000011444,,374935.81,8,400,,,
break_continue,html.Screen,4_97_2,2023-09-06T19:23:00.474Z,,0,,,NaN,,,,,,false,,,,374932.9000015259,374932.8000011444,,374932.5,,374935.81,8,400,,,
sequence,flow.Sequence,4_97,2023-09-06T19:23:00.474Z,,0,,,3179.4840011444176,completion,,,,,false,,,,374933.3000011444,374932.8000011444,371737.102,371742.9000015259,371753.316,374935.81,8,400,,,
trial,html.Screen,4_98_0,2023-09-06T19:23:03.540Z,,0,2,,3062.6900000000023,response,ISIC_0031745.JPG,9,ISIC_0010777.JPG,ISIC_0031745.JPG,false,1,keypress(m),500,377999,377998.5,374919.642,374933.5,374935.81,378001.727,8,400,49,,ISIC_0010777.JPG
break,html.Screen,4_98_1,2023-09-06T19:23:03.541Z,,0,,,NaN,,,,,,false,,,,378000.5,377999.9000015259,,377999.4000015259,,378001.727,8,400,,,
break_continue,html.Screen,4_98_2,2023-09-06T19:23:03.542Z,,0,,,NaN,,,,,,false,,,,378001.10000038147,378000.8000011444,,378000.60000038147,,378001.727,8,400,,,
sequence,flow.Sequence,4_98,2023-09-06T19:23:03.542Z,,0,,,3064.9900011444115,completion,,,,,false,,,,378001.4000015259,378000.8000011444,374919.642,374933.4000015259,374935.81,378001.727,8,400,,,
trial,html.Screen,4_99_0,2023-09-06T19:23:06.767Z,,0,2,,3224.0730011443957,response,ISIC_9268487.JPG,12,ISIC_2337786.JPG,ISIC_9268487.JPG,false,1,keypress(m),500,381226.10000038147,381225.8000011444,377985.547,378001.5,378001.727,381234.225,8,400,50,,ISIC_2337786.JPG
break,html.Screen,4_99_1,2023-09-06T19:23:16.758Z,,0,,,9997.645000000019,timeout,,,,,false,,,,391217.3000011444,391215.267,381217.702,381226.5,381234.225,391231.87,8,400,,,
break_continue,html.Screen,4_99_2,2023-09-06T19:23:17.906Z,,0,,,1069.2300003814744,response,,,,,false,continue,keypress(Space),,392365,392301.10000038147,391215.267,391217.60000038147,391231.87,392381.512,8,400,,,
sequence,flow.Sequence,4_99,2023-09-06T19:23:17.906Z,,0,,,14299.373000381456,completion,,,,,false,,,,392365.60000038147,392301.10000038147,377985.547,378001.5,378001.727,392381.512,8,400,,,
trial,html.Screen,4_100_0,2023-09-06T19:23:21.475Z,,0,3,,3552.088000381482,response,ISIC_8901784.JPG,6,ISIC_5536710.JPG,ISIC_5536710.JPG,false,0,keypress(z),500,395934,395933.60000038147,392365.084,392366,392381.512,395947.286,8,400,1,,ISIC_8901784.JPG
break,html.Screen,4_100_1,2023-09-06T19:23:21.476Z,,0,,,NaN,,,,,,false,,,,395935.3000011444,395935,,395934.3000011444,,395947.286,8,400,,,
break_continue,html.Screen,4_100_2,2023-09-06T19:23:21.477Z,,0,,,NaN,,,,,,false,,,,395935.9000015259,395935.70000076294,,395935.5,,395947.286,8,400,,,
sequence,flow.Sequence,4_100,2023-09-06T19:23:21.477Z,,0,,,3554.1880007629516,completion,,,,,false,,,,395936.10000038147,395935.70000076294,392365.084,392366,392381.512,395947.286,8,400,,,
trial,html.Screen,4_101_0,2023-09-06T19:23:24.496Z,,0,3,,3007.4140007629176,response,ISIC_0027238.JPG,5,ISIC_0064559.JPG,ISIC_0027238.JPG,false,1,keypress(m),500,398955,398954.70000076294,395930.754,395936.20000076294,395947.286,398963.264,8,400,2,,ISIC_0064559.JPG
break,html.Screen,4_101_1,2023-09-06T19:23:24.497Z,,0,,,NaN,,,,,,false,,,,398956.3000011444,398955.70000076294,,398955.3000011444,,398963.264,8,400,,,
break_continue,html.Screen,4_101_2,2023-09-06T19:23:24.498Z,,0,,,NaN,,,,,,false,,,,398956.8000011444,398956.60000038147,,398956.4000015259,,398963.264,8,400,,,
sequence,flow.Sequence,4_101,2023-09-06T19:23:24.498Z,,0,,,3009.314000381448,completion,,,,,false,,,,398957.10000038147,398956.60000038147,395930.754,395936.20000076294,395947.286,398963.264,8,400,,,
trial,html.Screen,4_102_0,2023-09-06T19:23:27.807Z,,0,3,,3302.5360011443845,response,ISIC_9410044.JPG,7,ISIC_0193456.JPG,ISIC_0193456.JPG,false,0,keypress(z),500,402266.20000076294,402265.8000011444,398947.087,398957.20000076294,398963.264,402279.118,8,400,3,,ISIC_9410044.JPG
break,html.Screen,4_102_1,2023-09-06T19:23:27.808Z,,0,,,NaN,,,,,,false,,,,402267.60000038147,402267.10000038147,,402266.5,,402279.118,8,400,,,
break_continue,html.Screen,4_102_2,2023-09-06T19:23:27.809Z,,0,,,NaN,,,,,,false,,,,402268.20000076294,402268.10000038147,,402267.9000015259,,402279.118,8,400,,,
sequence,flow.Sequence,4_102,2023-09-06T19:23:27.809Z,,0,,,3304.836000381445,completion,,,,,false,,,,402268.5,402268.10000038147,398947.087,398957.20000076294,398963.264,402279.118,8,400,,,
trial,html.Screen,4_103_0,2023-09-06T19:23:30.516Z,,0,3,,2695.982000381453,response,ISIC_3342474.JPG,6,ISIC_8866896.JPG,ISIC_3342474.JPG,false,1,keypress(m),500,404975.4000015259,404975.10000038147,402262.839,402268.70000076294,402279.118,404978.466,8,400,4,,ISIC_8866896.JPG
break,html.Screen,4_103_1,2023-09-06T19:23:30.518Z,,0,,,NaN,,,,,,false,,,,404976.9000015259,404976.3000011444,,404975.70000076294,,404978.466,8,400,,,
break_continue,html.Screen,4_103_2,2023-09-06T19:23:30.518Z,,0,,,NaN,,,,,,false,,,,404977.5,404977.3000011444,,404977.10000038147,,404978.466,8,400,,,
sequence,flow.Sequence,4_103,2023-09-06T19:23:30.519Z,,0,,,2698.1820011443924,completion,,,,,false,,,,404977.70000076294,404977.3000011444,402262.839,402268.70000076294,402279.118,404978.466,8,400,,,
trial,html.Screen,4_104_0,2023-09-06T19:23:33.211Z,,0,3,,2691.033999999985,response,ISIC_8752021.JPG,7,ISIC_0000226.JPG,ISIC_0000226.JPG,false,0,keypress(z),500,407670,407669.5,404962.305,404978,404978.466,407677.784,8,400,5,,ISIC_8752021.JPG
break,html.Screen,4_104_1,2023-09-06T19:23:33.212Z,,0,,,NaN,,,,,,false,,,,407671.60000038147,407671,,407670.4000015259,,407677.784,8,400,,,
break_continue,html.Screen,4_104_2,2023-09-06T19:23:33.213Z,,0,,,NaN,,,,,,false,,,,407672.20000076294,407671.9000015259,,407671.8000011444,,407677.784,8,400,,,
sequence,flow.Sequence,4_104,2023-09-06T19:23:33.213Z,,0,,,2693.434001525864,completion,,,,,false,,,,407672.5,407671.9000015259,404962.305,404978,404978.466,407677.784,8,400,,,
trial,html.Screen,4_105_0,2023-09-06T19:23:36.214Z,,0,3,,2995.016001144424,response,ISIC_0074311.JPG,7,ISIC_7327423.JPG,ISIC_0074311.JPG,false,1,keypress(m),500,410673.10000038147,410672.8000011444,407661.642,407672.70000076294,407677.784,410677.081,8,400,6,,ISIC_7327423.JPG
break,html.Screen,4_105_1,2023-09-06T19:23:36.215Z,,0,,,NaN,,,,,,false,,,,410674.60000038147,410674.20000076294,,410673.5,,410677.081,8,400,,,
break_continue,html.Screen,4_105_2,2023-09-06T19:23:36.216Z,,0,,,NaN,,,,,,false,,,,410675.20000076294,410675,,410674.9000015259,,410677.081,8,400,,,
sequence,flow.Sequence,4_105,2023-09-06T19:23:36.216Z,,0,,,2997.216000000015,completion,,,,,false,,,,410675.60000038147,410675,407661.642,407672.60000038147,407677.784,410677.081,8,400,,,
trial,html.Screen,4_106_0,2023-09-06T19:23:38.925Z,,0,3,,2707.119000762934,response,ISIC_9639931.JPG,11,ISIC_2000959.JPG,ISIC_2000959.JPG,false,0,keypress(z),500,413384.60000038147,413384.20000076294,410660.885,410675.8000011444,410677.081,413393.031,8,400,7,,ISIC_9639931.JPG
break,html.Screen,4_106_1,2023-09-06T19:23:38.927Z,,0,,,NaN,,,,,,false,,,,413386.3000011444,413385.60000038147,,413385,,413393.031,8,400,,,
break_continue,html.Screen,4_106_2,2023-09-06T19:23:38.928Z,,0,,,NaN,,,,,,false,,,,413387.10000038147,413386.8000011444,,413386.60000038147,,413393.031,8,400,,,
sequence,flow.Sequence,4_106,2023-09-06T19:23:38.928Z,,0,,,2709.7190011444036,completion,,,,,false,,,,413387.5,413386.8000011444,410660.885,410675.70000076294,410677.081,413393.031,8,400,,,
trial,html.Screen,4_107_0,2023-09-06T19:23:41.664Z,,0,3,,2729.8690015258617,response,ISIC_0011697.JPG,5,ISIC_8563961.JPG,ISIC_0011697.JPG,false,1,keypress(m),500,416123.4000015259,416122.9000015259,413376.87,413387.8000011444,413393.031,416125.7,8,400,8,,ISIC_8563961.JPG
break,html.Screen,4_107_1,2023-09-06T19:23:41.665Z,,0,,,NaN,,,,,,false,,,,416124.5,416124,,416123.5,,416125.7,8,400,,,
break_continue,html.Screen,4_107_2,2023-09-06T19:23:41.666Z,,0,,,NaN,,,,,,false,,,,416125.10000038147,416124.8000011444,,416124.70000076294,,416125.7,8,400,,,
sequence,flow.Sequence,4_107,2023-09-06T19:23:41.666Z,,0,,,2731.769001144392,completion,,,,,false,,,,416125.3000011444,416124.8000011444,413376.87,413387.70000076294,413393.031,416125.7,8,400,,,
trial,html.Screen,4_108_0,2023-09-06T19:23:44.413Z,,0,3,,2746.2000015258673,response,ISIC_6292348.JPG,10,ISIC_5048571.JPG,ISIC_5048571.JPG,false,0,keypress(z),500,418872.20000076294,418871.9000015259,416109.555,416125.5,416125.7,418875.071,8,400,9,,ISIC_6292348.JPG
break,html.Screen,4_108_1,2023-09-06T19:23:44.414Z,,0,,,NaN,,,,,,false,,,,418873.5,418872.9000015259,,418872.4000015259,,418875.071,8,400,,,
break_continue,html.Screen,4_108_2,2023-09-06T19:23:44.415Z,,0,,,NaN,,,,,,false,,,,418874,418873.8000011444,,418873.70000076294,,418875.071,8,400,,,
sequence,flow.Sequence,4_108,2023-09-06T19:23:44.415Z,,0,,,2748.1000011443975,completion,,,,,false,,,,418874.3000011444,418873.8000011444,416109.555,416125.4000015259,416125.7,418875.071,8,400,,,
trial,html.Screen,4_109_0,2023-09-06T19:23:47.188Z,,0,3,,2771.629000762943,response,ISIC_0011895.JPG,7,ISIC_0032420.JPG,ISIC_0011895.JPG,false,1,keypress(m),500,421647.10000038147,421646.70000076294,418858.855,418874.4000015259,418875.071,421657.781,8,400,10,,ISIC_0032420.JPG
break,html.Screen,4_109_1,2023-09-06T19:23:47.189Z,,0,,,NaN,,,,,,false,,,,421648.3000011444,421647.9000015259,,421647.3000011444,,421657.781,8,400,,,
break_continue,html.Screen,4_109_2,2023-09-06T19:23:47.190Z,,0,,,NaN,,,,,,false,,,,421649,421648.70000076294,,421648.60000038147,,421657.781,8,400,,,
sequence,flow.Sequence,4_109,2023-09-06T19:23:47.190Z,,0,,,2773.629000762943,completion,,,,,false,,,,421649.20000076294,421648.70000076294,418858.855,418874.4000015259,418875.071,421657.781,8,400,,,
trial,html.Screen,4_110_0,2023-09-06T19:23:50.015Z,,0,3,,2815.7189999999828,response,ISIC_3436033.JPG,9,ISIC_6215631.JPG,ISIC_6215631.JPG,false,0,keypress(z),500,424473.9000015259,424473.5,421641.518,421649.4000015259,421657.781,424490.792,8,400,11,,ISIC_3436033.JPG
break,html.Screen,4_110_1,2023-09-06T19:23:50.016Z,,0,,,NaN,,,,,,false,,,,424475.20000076294,424474.70000076294,,424474.20000076294,,424490.792,8,400,,,
break_continue,html.Screen,4_110_2,2023-09-06T19:23:50.016Z,,0,,,NaN,,,,,,false,,,,424475.60000038147,424475.5,,424475.3000011444,,424490.792,8,400,,,
sequence,flow.Sequence,4_110,2023-09-06T19:23:50.017Z,,0,,,2817.7189999999828,completion,,,,,false,,,,424476,424475.5,421641.518,421649.3000011444,421657.781,424490.792,8,400,,,
trial,html.Screen,4_111_0,2023-09-06T19:23:53.116Z,,0,3,,3084.108001525863,response,ISIC_7235128.JPG,13,ISIC_0011757.JPG,ISIC_0011757.JPG,false,0,keypress(z),500,427575.20000076294,427574.9000015259,424473.877,424476.20000076294,424490.792,427589.986,8,400,12,,ISIC_7235128.JPG
break,html.Screen,4_111_1,2023-09-06T19:23:53.117Z,,0,,,NaN,,,,,,false,,,,427576.5,427576,,427575.5,,427589.986,8,400,,,
break_continue,html.Screen,4_111_2,2023-09-06T19:23:53.118Z,,0,,,NaN,,,,,,false,,,,427577,427576.9000015259,,427576.70000076294,,427589.986,8,400,,,
sequence,flow.Sequence,4_111,2023-09-06T19:23:53.118Z,,0,,,3086.108001525863,completion,,,,,false,,,,427577.20000076294,427576.9000015259,424473.877,424476.10000038147,424490.792,427589.986,8,400,,,
trial,html.Screen,4_112_0,2023-09-06T19:23:56.596Z,,0,3,,3465.0140000000247,response,ISIC_2266312.JPG,12,ISIC_3985031.JPG,ISIC_3985031.JPG,false,0,keypress(z),500,431055.4000015259,431055,427573.348,427577.5,427589.986,431072.073,8,400,13,,ISIC_2266312.JPG
break,html.Screen,4_112_1,2023-09-06T19:23:56.598Z,,0,,,NaN,,,,,,false,,,,431056.9000015259,431056.20000076294,,431055.70000076294,,431072.073,8,400,,,
break_continue,html.Screen,4_112_2,2023-09-06T19:23:56.598Z,,0,,,NaN,,,,,,false,,,,431057.70000076294,431057.4000015259,,431057.20000076294,,431072.073,8,400,,,
sequence,flow.Sequence,4_112,2023-09-06T19:23:56.599Z,,0,,,3467.4140015259036,completion,,,,,false,,,,431058.10000038147,431057.4000015259,427573.348,427577.4000015259,427589.986,431072.073,8,400,,,
trial,html.Screen,4_113_0,2023-09-06T19:23:59.647Z,,0,3,,3033.827001525904,response,ISIC_4958578.JPG,6,ISIC_8096177.JPG,ISIC_4958578.JPG,false,1,keypress(m),500,434106.20000076294,434105.9000015259,431055.912,431058.3000011444,431072.073,434121.753,8,400,14,,ISIC_8096177.JPG
break,html.Screen,4_113_1,2023-09-06T19:23:59.648Z,,0,,,NaN,,,,,,false,,,,434107.60000038147,434107,,434106.5,,434121.753,8,400,,,
break_continue,html.Screen,4_113_2,2023-09-06T19:23:59.649Z,,0,,,NaN,,,,,,false,,,,434108,434107.9000015259,,434107.70000076294,,434121.753,8,400,,,
sequence,flow.Sequence,4_113,2023-09-06T19:23:59.649Z,,0,,,3035.827001525904,completion,,,,,false,,,,434108.3000011444,434107.9000015259,431055.912,431058.3000011444,431072.073,434121.753,8,400,,,
trial,html.Screen,4_114_0,2023-09-06T19:24:02.905Z,,0,3,,3242.147001525853,response,ISIC_2153401.JPG,14,ISIC_0013736.JPG,ISIC_2153401.JPG,false,1,keypress(m),500,437364.20000076294,437363.9000015259,434105.147,434108.60000038147,434121.753,437370.606,8,400,15,,ISIC_0013736.JPG
break,html.Screen,4_114_1,2023-09-06T19:24:02.906Z,,0,,,NaN,,,,,,false,,,,437365.70000076294,437365.10000038147,,437364.60000038147,,437370.606,8,400,,,
break_continue,html.Screen,4_114_2,2023-09-06T19:24:02.907Z,,0,,,NaN,,,,,,false,,,,437366.3000011444,437366.10000038147,,437366,,437370.606,8,400,,,
sequence,flow.Sequence,4_114,2023-09-06T19:24:02.907Z,,0,,,3244.3470003814436,completion,,,,,false,,,,437366.60000038147,437366.10000038147,434105.147,434108.4000015259,434121.753,437370.606,8,400,,,
trial,html.Screen,4_115_0,2023-09-06T19:24:06.000Z,,0,3,,3088.393999999971,response,ISIC_0027407.JPG,5,ISIC_7575957.JPG,ISIC_0027407.JPG,false,1,keypress(m),500,440459.4000015259,440459,437354.359,437366.9000015259,437370.606,440469.841,8,400,16,,ISIC_7575957.JPG
break,html.Screen,4_115_1,2023-09-06T19:24:06.001Z,,0,,,NaN,,,,,,false,,,,440460.70000076294,440460.20000076294,,440459.70000076294,,440469.841,8,400,,,
break_continue,html.Screen,4_115_2,2023-09-06T19:24:06.002Z,,0,,,NaN,,,,,,false,,,,440461.10000038147,440461,,440460.8000011444,,440469.841,8,400,,,
sequence,flow.Sequence,4_115,2023-09-06T19:24:06.002Z,,0,,,3090.393999999971,completion,,,,,false,,,,440461.4000015259,440461,437354.359,437366.70000076294,437370.606,440469.841,8,400,,,
trial,html.Screen,4_116_0,2023-09-06T19:24:09.248Z,,0,3,,3237.4590011443943,response,ISIC_0033027.JPG,11,ISIC_0063753.JPG,ISIC_0063753.JPG,false,0,keypress(z),500,443707.5,443707.3000011444,440453.594,440461.60000038147,440469.841,443718.91,8,400,17,,ISIC_0033027.JPG
break,html.Screen,4_116_1,2023-09-06T19:24:09.249Z,,0,,,NaN,,,,,,false,,,,443708.10000038147,443708,,443707.70000076294,,443718.91,8,400,,,
break_continue,html.Screen,4_116_2,2023-09-06T19:24:09.249Z,,0,,,NaN,,,,,,false,,,,443708.4000015259,443708.3000011444,,443708.20000076294,,443718.91,8,400,,,
sequence,flow.Sequence,4_116,2023-09-06T19:24:09.249Z,,0,,,3238.4590011443943,completion,,,,,false,,,,443708.60000038147,443708.3000011444,440453.594,440461.60000038147,440469.841,443718.91,8,400,,,
trial,html.Screen,4_117_0,2023-09-06T19:24:11.979Z,,0,3,,2718.790000762965,response,ISIC_3966064.JPG,4,ISIC_9403390.JPG,ISIC_3966064.JPG,false,1,keypress(m),500,446437.9000015259,446437.70000076294,443702.322,443708.60000038147,443718.91,446452.061,8,400,18,,ISIC_9403390.JPG
break,html.Screen,4_117_1,2023-09-06T19:24:11.980Z,,0,,,NaN,,,,,,false,,,,446439.20000076294,446438.70000076294,,446438.20000076294,,446452.061,8,400,,,
break_continue,html.Screen,4_117_2,2023-09-06T19:24:11.981Z,,0,,,NaN,,,,,,false,,,,446439.70000076294,446439.60000038147,,446439.5,,446452.061,8,400,,,
sequence,flow.Sequence,4_117,2023-09-06T19:24:11.981Z,,0,,,2720.6900003814953,completion,,,,,false,,,,446440.10000038147,446439.60000038147,443702.322,443708.60000038147,443718.91,446452.061,8,400,,,
trial,html.Screen,4_118_0,2023-09-06T19:24:14.979Z,,0,3,,2985.839001525892,response,ISIC_6507492.JPG,8,ISIC_0013277.JPG,ISIC_0013277.JPG,false,0,keypress(z),500,449438.3000011444,449437.9000015259,446435.471,446440.3000011444,446452.061,449450.994,8,400,19,,ISIC_6507492.JPG
break,html.Screen,4_118_1,2023-09-06T19:24:14.980Z,,0,,,NaN,,,,,,false,,,,449439.60000038147,449439.10000038147,,449438.60000038147,,449450.994,8,400,,,
break_continue,html.Screen,4_118_2,2023-09-06T19:24:14.981Z,,0,,,NaN,,,,,,false,,,,449440.5,449440.3000011444,,449440.10000038147,,449450.994,8,400,,,
sequence,flow.Sequence,4_118,2023-09-06T19:24:14.982Z,,0,,,2988.239001144422,completion,,,,,false,,,,449440.8000011444,449440.3000011444,446435.471,446440.20000076294,446452.061,449450.994,8,400,,,
trial,html.Screen,4_119_0,2023-09-06T19:24:17.779Z,,0,3,,2787.005999999994,response,ISIC_8835545.JPG,9,ISIC_0010901.JPG,ISIC_0010901.JPG,false,0,keypress(z),500,452238.4000015259,452238,449434.305,449441,449450.994,452250.227,8,400,20,,ISIC_8835545.JPG
break,html.Screen,4_119_1,2023-09-06T19:24:17.781Z,,0,,,NaN,,,,,,false,,,,452239.8000011444,452239.3000011444,,452238.8000011444,,452250.227,8,400,,,
break_continue,html.Screen,4_119_2,2023-09-06T19:24:17.781Z,,0,,,NaN,,,,,,false,,,,452240.3000011444,452240.10000038147,,452240,,452250.227,8,400,,,
sequence,flow.Sequence,4_119,2023-09-06T19:24:17.781Z,,0,,,2789.1060003814637,completion,,,,,false,,,,452240.60000038147,452240.10000038147,449434.305,449441,449450.994,452250.227,8,400,,,
trial,html.Screen,4_120_0,2023-09-06T19:24:21.206Z,,0,3,,3414.6730015258654,response,ISIC_8790198.JPG,14,ISIC_0170101.JPG,ISIC_0170101.JPG,false,0,keypress(z),500,455665.20000076294,455664.9000015259,452234.08,452240.8000011444,452250.227,455682.946,8,400,21,,ISIC_8790198.JPG
break,html.Screen,4_120_1,2023-09-06T19:24:21.207Z,,0,,,NaN,,,,,,false,,,,455666.5,455665.9000015259,,455665.4000015259,,455682.946,8,400,,,
break_continue,html.Screen,4_120_2,2023-09-06T19:24:21.208Z,,0,,,NaN,,,,,,false,,,,455667,455666.8000011444,,455666.60000038147,,455682.946,8,400,,,
sequence,flow.Sequence,4_120,2023-09-06T19:24:21.208Z,,0,,,3416.5730011443957,completion,,,,,false,,,,455667.20000076294,455666.8000011444,452234.08,452240.60000038147,452250.227,455682.946,8,400,,,
trial,html.Screen,4_121_0,2023-09-06T19:24:25.172Z,,0,3,,3948.0540000000037,response,ISIC_0032561.JPG,13,ISIC_0054671.JPG,ISIC_0054671.JPG,false,0,keypress(z),500,459631.4000015259,459631,455649.91,455667.4000015259,455682.946,459648.848,8,400,22,,ISIC_0032561.JPG
break,html.Screen,4_121_1,2023-09-06T19:24:25.173Z,,0,,,NaN,,,,,,false,,,,459632.70000076294,459632.20000076294,,459631.70000076294,,459648.848,8,400,,,
break_continue,html.Screen,4_121_2,2023-09-06T19:24:25.174Z,,0,,,NaN,,,,,,false,,,,459633.20000076294,459633,,459632.8000011444,,459648.848,8,400,,,
sequence,flow.Sequence,4_121,2023-09-06T19:24:25.174Z,,0,,,3950.0540000000037,completion,,,,,false,,,,459633.5,459633,455649.91,455667.3000011444,455682.946,459648.848,8,400,,,
trial,html.Screen,4_122_0,2023-09-06T19:24:27.863Z,,0,3,,2672.952001144411,response,ISIC_1348538.JPG,13,ISIC_5204796.JPG,ISIC_5204796.JPG,false,0,keypress(z),500,462321.9000015259,462321.8000011444,459631.807,459633.70000076294,459648.848,462331.04,8,400,23,,ISIC_1348538.JPG
break,html.Screen,4_122_1,2023-09-06T19:24:27.863Z,,0,,,NaN,,,,,,false,,,,462322.70000076294,462322.4000015259,,462322.10000038147,,462331.04,8,400,,,
break_continue,html.Screen,4_122_2,2023-09-06T19:24:27.864Z,,0,,,NaN,,,,,,false,,,,462323.10000038147,462322.9000015259,,462322.9000015259,,462331.04,8,400,,,
sequence,flow.Sequence,4_122,2023-09-06T19:24:27.864Z,,0,,,2674.0520015258808,completion,,,,,false,,,,462323.20000076294,462322.9000015259,459631.807,459633.60000038147,459648.848,462331.04,8,400,,,
trial,html.Screen,4_123_0,2023-09-06T19:24:31.260Z,,0,3,,3387.76000114443,response,ISIC_0011276.JPG,5,ISIC_2804864.JPG,ISIC_0011276.JPG,false,1,keypress(m),500,465719.20000076294,465718.8000011444,462314.37,462323.4000015259,462331.04,465730.251,8,400,24,,ISIC_2804864.JPG
break,html.Screen,4_123_1,2023-09-06T19:24:31.261Z,,0,,,NaN,,,,,,false,,,,465720.60000038147,465720,,465719.4000015259,,465730.251,8,400,,,
break_continue,html.Screen,4_123_2,2023-09-06T19:24:31.262Z,,0,,,NaN,,,,,,false,,,,465721.3000011444,465721.10000038147,,465720.9000015259,,465730.251,8,400,,,
sequence,flow.Sequence,4_123,2023-09-06T19:24:31.262Z,,0,,,3390.0600003814907,completion,,,,,false,,,,465721.5,465721.10000038147,462314.37,462323.4000015259,462331.04,465730.251,8,400,,,
trial,html.Screen,4_124_0,2023-09-06T19:24:34.950Z,,0,3,,3678.54900114442,response,ISIC_0002549.JPG,14,ISIC_7104307.JPG,ISIC_7104307.JPG,false,0,keypress(z),500,469409.20000076294,469408.8000011444,465713.659,465721.8000011444,465730.251,469412.701,8,400,25,,ISIC_0002549.JPG
break,html.Screen,4_124_1,2023-09-06T19:24:34.951Z,,0,,,NaN,,,,,,false,,,,469410.60000038147,469410,,469409.60000038147,,469412.701,8,400,,,
break_continue,html.Screen,4_124_2,2023-09-06T19:24:34.952Z,,0,,,NaN,,,,,,false,,,,469411.20000076294,469411,,469410.8000011444,,469412.701,8,400,,,
sequence,flow.Sequence,4_124,2023-09-06T19:24:34.952Z,,0,,,3680.7490000000107,completion,,,,,false,,,,469411.5,469411,465713.659,465721.8000011444,465730.251,469412.701,8,400,,,
trial,html.Screen,4_125_0,2023-09-06T19:24:38.383Z,,0,3,,3429.4990007629385,response,ISIC_5791954.JPG,8,ISIC_0055393.JPG,ISIC_0055393.JPG,false,0,keypress(z),500,472842.60000038147,472842.20000076294,469396.166,469411.60000038147,469412.701,472845.183,8,400,26,,ISIC_5791954.JPG
break,html.Screen,4_125_1,2023-09-06T19:24:38.385Z,,0,,,NaN,,,,,,false,,,,472843.8000011444,472843.3000011444,,472842.8000011444,,472845.183,8,400,,,
break_continue,html.Screen,4_125_2,2023-09-06T19:24:38.385Z,,0,,,NaN,,,,,,false,,,,472844.4000015259,472844.10000038147,,472844,,472845.183,8,400,,,
sequence,flow.Sequence,4_125,2023-09-06T19:24:38.385Z,,0,,,3431.399000381469,completion,,,,,false,,,,472844.70000076294,472844.10000038147,469396.166,469411.60000038147,469412.701,472845.183,8,400,,,
