sender,sender_type,sender_id,timestamp,meta,,blockNo,condition,duration,ended_on,img_left,img_reveal,img_right,loser,practice,response,response_action,selection_duration,time_commit,time_end,time_render,time_run,time_show,time_switch,total_blocks,total_trials,trialNo,url,winner
informed_consent,html.Screen,0,2023-09-08T19:46:30.866Z,"{""labjs_version"":""20.2.4"",""labjs_build"":{""flavor"":""production"",""commit"":""f5b4a49f956347addd546a832a3327688c2c0fef""},""location"":""https://run.pavlovia.org/MurrayBennett/melanoma-2afc/?participant=646c312d759924e49fa17ac7&STUDY_ID=64f8c92207ba404bcb356c90&SESSION_ID=64fb79f4726850c0f3ba4637&platform=prolific"",""userAgent"":""Mozilla/5.0 (Windows NT 10.0; Win64; x64) AppleWebKit/537.36 (KHTML, like Gecko) Chrome/116.0.0.0 Safari/537.36 Edg/116.0.1938.69"",""platform"":""Win32"",""language"":""en-US"",""locale"":""en-US"",""timeZone"":""America/Chicago"",""timezoneOffset"":300,""screen_width"":1366,""screen_height"":768,""scroll_width"":1358,""scroll_height"":564,""window_innerWidth"":1358,""window_innerHeight"":612,""devicePixelRatio"":1}",,,,14548.787999988079,response,,,,,,consent,click button,,17203.5,17199.19999998808,2300.857,2652.5999999940395,2650.412,17236.203,,,,"{""participant"":""646c312d759924e49fa17ac7"",""STUDY_ID"":""64f8c92207ba404bcb356c90"",""SESSION_ID"":""64fb79f4726850c0f3ba4637"",""platform"":""prolific""}",
Welcome,html.Screen,1,2023-09-08T19:48:00.232Z,,,,uniform,89331.79699999999,response,,,,,,continue,click button,,106568.79999999702,106568,17186.499,17204.29999999702,17236.203,106581.754,,,,,
trial,html.Screen,2_0_0,2023-09-08T19:48:10.556Z,,0,0,,10310.746,response,ISIC_0025593.JPG,,ISIC_0063388.JPG,ISIC_0025593.JPG,true,1,keypress(m),500,116893.39999999106,116892.5,106565.286,106569.09999999404,106581.754,116905.173,1,6,1,,ISIC_0063388.JPG
sequence,flow.Sequence,2_0,2023-09-08T19:48:10.557Z,,0,,,10310.746,completion,,,,,true,,,,116894.5,116892.5,106565.286,106569.09999999404,106581.754,116905.173,1,6,,,
trial,html.Screen,2_1_0,2023-09-08T19:48:16.581Z,,0,0,,6012.226999991064,response,ISIC_0028178.JPG,,ISIC_1309015.JPG,ISIC_1309015.JPG,true,0,keypress(z),500,122918,122917.39999999106,116888.436,116895.09999999404,116905.173,122932.586,1,6,2,,ISIC_0028178.JPG
sequence,flow.Sequence,2_1,2023-09-08T19:48:16.581Z,,0,,,6012.226999991064,completion,,,,,true,,,,122918.79999999702,122917.39999999106,116888.436,116895,116905.173,122932.586,1,6,,,
trial,html.Screen,2_2_0,2023-09-08T19:48:19.929Z,,0,0,,3332.9140000000043,response,ISIC_0031128.JPG,,ISIC_3314853.JPG,ISIC_0031128.JPG,true,1,keypress(m),500,126266.29999999702,126265.5,122916.061,122919.29999999702,122932.586,126279.319,1,6,3,,ISIC_3314853.JPG
sequence,flow.Sequence,2_2,2023-09-08T19:48:19.930Z,,0,,,3332.9140000000043,completion,,,,,true,,,,126267.09999999404,126265.5,122916.061,122919.09999999404,122932.586,126279.319,1,6,,,
trial,html.Screen,2_3_0,2023-09-08T19:48:22.933Z,,0,0,,2990.080999991056,response,ISIC_0031612.JPG,,ISIC_8980141.JPG,ISIC_0031612.JPG,true,1,keypress(m),500,129270.09999999404,129269.39999999106,126263.062,126267.69999998808,126279.319,129276.395,1,6,4,,ISIC_8980141.JPG
sequence,flow.Sequence,2_3,2023-09-08T19:48:22.934Z,,0,,,2990.080999991056,completion,,,,,true,,,,129271.19999998808,129269.39999999106,126263.062,126267.5,126279.319,129276.395,1,6,,,
trial,html.Screen,2_4_0,2023-09-08T19:48:27.050Z,,0,0,,4110.504999991055,response,ISIC_9721604.JPG,,ISIC_1197737.JPG,ISIC_1197737.JPG,true,0,keypress(z),500,133387.69999998808,133386.89999999106,129259.78,129271.79999999702,129276.395,133405.594,1,6,5,,ISIC_9721604.JPG
sequence,flow.Sequence,2_4,2023-09-08T19:48:27.051Z,,0,,,4110.504999991055,completion,,,,,true,,,,133388.59999999404,133386.89999999106,129259.78,129271.59999999404,129276.395,133405.594,1,6,,,
trial,html.Screen,2_5_0,2023-09-08T19:48:30.463Z,,0,0,,3394.0059999940277,response,ISIC_0010681.JPG,,ISIC_0025346.JPG,ISIC_0025346.JPG,true,0,keypress(z),500,136800.39999999106,136799.59999999404,133389.342,133389.19999998808,133405.594,136818.857,1,6,6,,ISIC_0010681.JPG
sequence,flow.Sequence,2_5,2023-09-08T19:48:30.464Z,,0,,,3394.0059999940277,completion,,,,,true,,,,136801.29999999702,136799.59999999404,133389.342,133389,133405.594,136818.857,1,6,,,
loop,flow.Loop,2,2023-09-08T19:48:30.465Z,,,,,30217.84599999404,completion,,,,,true,,,,136802,136799.59999999404,106565.286,106569.09999999404,106581.754,136818.857,1,6,,,
exp_instructions,html.Screen,3,2023-09-08T19:48:34.734Z,,,,,4251.2429999940505,response,,,,,,continue,keypress(Space),,141071.59999999404,141070.09999999404,136802.817,136802.29999999702,136818.857,141081.432,,,,,
trial,html.Screen,4_0_0,2023-09-08T19:48:38.014Z,,0,1,,3269.5679999999993,response,ISIC_0911264.JPG,5,ISIC_0000274.JPG,ISIC_0000274.JPG,false,0,keypress(z),500,144351.59999999404,144351,141065.634,141072.19999998808,141081.432,144361.58,8,400,1,,ISIC_0911264.JPG
break,html.Screen,4_0_1,2023-09-08T19:48:38.017Z,,0,,,NaN,,,,,,false,,,,144354.19999998808,144353.5,,144352.09999999404,,144361.58,8,400,,,
break_continue,html.Screen,4_0_2,2023-09-08T19:48:38.018Z,,0,,,NaN,,,,,,false,,,,144355.5,144355,,144354.59999999404,,144361.58,8,400,,,
sequence,flow.Sequence,4_0,2023-09-08T19:48:38.019Z,,0,,,3273.5679999999993,completion,,,,,false,,,,144356,144355,141065.634,141072.09999999404,141081.432,144361.58,8,400,,,
trial,html.Screen,4_1_0,2023-09-08T19:48:41.659Z,,0,1,,3634.319999991072,response,ISIC_7505369.JPG,6,ISIC_6517852.JPG,ISIC_6517852.JPG,false,0,keypress(z),500,147996.5,147995.89999999106,144345.081,144356.39999999106,144361.58,148007.893,8,400,2,,ISIC_7505369.JPG
break,html.Screen,4_1_1,2023-09-08T19:48:41.661Z,,0,,,NaN,,,,,,false,,,,147998.5,147997.89999999106,,147997,,148007.893,8,400,,,
break_continue,html.Screen,4_1_2,2023-09-08T19:48:41.662Z,,0,,,NaN,,,,,,false,,,,147999.5,147999.09999999404,,147998.89999999106,,148007.893,8,400,,,
sequence,flow.Sequence,4_1,2023-09-08T19:48:41.663Z,,0,,,3637.5199999940523,completion,,,,,false,,,,148000,147999.09999999404,144345.081,144356.19999998808,144361.58,148007.893,8,400,,,
trial,html.Screen,4_2_0,2023-09-08T19:48:44.786Z,,0,1,,3115.406999997009,response,ISIC_0056717.JPG,6,ISIC_0054025.JPG,ISIC_0056717.JPG,false,1,keypress(m),500,151123.89999999106,151123.29999999702,147991.135,148000.39999999106,148007.893,151138.257,8,400,3,,ISIC_0054025.JPG
break,html.Screen,4_2_1,2023-09-08T19:48:44.788Z,,0,,,NaN,,,,,,false,,,,151125.79999999702,151125.29999999702,,151124.39999999106,,151138.257,8,400,,,
break_continue,html.Screen,4_2_2,2023-09-08T19:48:44.790Z,,0,,,NaN,,,,,,false,,,,151127,151126.69999998808,,151126.29999999702,,151138.257,8,400,,,
sequence,flow.Sequence,4_2,2023-09-08T19:48:44.790Z,,0,,,3118.806999988068,completion,,,,,false,,,,151127.5,151126.69999998808,147991.135,148000.29999999702,148007.893,151138.257,8,400,,,
trial,html.Screen,4_3_0,2023-09-08T19:48:47.724Z,,0,1,,2922.5429999970074,response,ISIC_5507066.JPG,6,ISIC_0024900.JPG,ISIC_0024900.JPG,false,0,keypress(z),500,154061.39999999106,154060.79999999702,151121.674,151127.89999999106,151138.257,154068.783,8,400,4,,ISIC_5507066.JPG
break,html.Screen,4_3_1,2023-09-08T19:48:47.726Z,,0,,,NaN,,,,,,false,,,,154063.29999999702,154062.79999999702,,154061.89999999106,,154068.783,8,400,,,
break_continue,html.Screen,4_3_2,2023-09-08T19:48:47.727Z,,0,,,NaN,,,,,,false,,,,154064.5,154063.89999999106,,154063.69999998808,,154068.783,8,400,,,
sequence,flow.Sequence,4_3,2023-09-08T19:48:47.728Z,,0,,,2925.642999991047,completion,,,,,false,,,,154065,154063.89999999106,151121.674,151127.79999999702,151138.257,154068.783,8,400,,,
trial,html.Screen,4_4_0,2023-09-08T19:48:50.410Z,,0,1,,2677.4169999880833,response,ISIC_0024265.JPG,5,ISIC_0013610.JPG,ISIC_0024265.JPG,false,1,keypress(m),500,156746.89999999106,156746.19999998808,154051.932,154065.39999999106,154068.783,156766.45,8,400,5,,ISIC_0013610.JPG
break,html.Screen,4_4_1,2023-09-08T19:48:50.411Z,,0,,,NaN,,,,,,false,,,,156748.69999998808,156748.19999998808,,156747.39999999106,,156766.45,8,400,,,
break_continue,html.Screen,4_4_2,2023-09-08T19:48:50.412Z,,0,,,NaN,,,,,,false,,,,156749.69999998808,156749.39999999106,,156749.09999999404,,156766.45,8,400,,,
sequence,flow.Sequence,4_4,2023-09-08T19:48:50.413Z,,0,,,2680.6169999910635,completion,,,,,false,,,,156750.19999998808,156749.39999999106,154051.932,154065.29999999702,154068.783,156766.45,8,400,,,
trial,html.Screen,4_5_0,2023-09-08T19:48:53.764Z,,0,1,,3334.5499999999884,response,ISIC_0056247.JPG,5,ISIC_0028472.JPG,ISIC_0056247.JPG,false,1,keypress(m),500,160101.59999999404,160101,156732.731,156750.69999998808,156766.45,160112.792,8,400,6,,ISIC_0028472.JPG
break,html.Screen,4_5_1,2023-09-08T19:48:53.766Z,,0,,,NaN,,,,,,false,,,,160103.5,160103,,160102.29999999702,,160112.792,8,400,,,
break_continue,html.Screen,4_5_2,2023-09-08T19:48:53.767Z,,0,,,NaN,,,,,,false,,,,160104.69999998808,160104.29999999702,,160103.89999999106,,160112.792,8,400,,,
sequence,flow.Sequence,4_5,2023-09-08T19:48:53.768Z,,0,,,3337.849999997008,completion,,,,,false,,,,160105.19999998808,160104.29999999702,156732.731,156750.5,156766.45,160112.792,8,400,,,
trial,html.Screen,4_6_0,2023-09-08T19:48:56.844Z,,0,1,,3068.4079999880923,response,ISIC_0000473.JPG,5,ISIC_0026314.JPG,ISIC_0000473.JPG,false,1,keypress(m),500,163181.69999998808,163181.19999998808,160096.342,160105.59999999404,160112.792,163193.04,8,400,7,,ISIC_0026314.JPG
break,html.Screen,4_6_1,2023-09-08T19:48:56.846Z,,0,,,NaN,,,,,,false,,,,163183.59999999404,163183.09999999404,,163182.19999998808,,163193.04,8,400,,,
break_continue,html.Screen,4_6_2,2023-09-08T19:48:56.847Z,,0,,,NaN,,,,,,false,,,,163184.5,163184.19999998808,,163183.79999999702,,163193.04,8,400,,,
sequence,flow.Sequence,4_6,2023-09-08T19:48:56.848Z,,0,,,3071.4079999880923,completion,,,,,false,,,,163185.09999999404,163184.19999998808,160096.342,160105.39999999106,160112.792,163193.04,8,400,,,
trial,html.Screen,4_7_0,2023-09-08T19:49:04.373Z,,0,1,,7516.259999997012,response,ISIC_0055491.JPG,5,ISIC_0013997.JPG,ISIC_0013997.JPG,false,0,keypress(z),500,170709.89999999106,170709.29999999702,163176.833,163185.5,163193.04,170718.963,8,400,8,,ISIC_0055491.JPG
break,html.Screen,4_7_1,2023-09-08T19:49:04.374Z,,0,,,NaN,,,,,,false,,,,170711.69999998808,170711.19999998808,,170710.39999999106,,170718.963,8,400,,,
break_continue,html.Screen,4_7_2,2023-09-08T19:49:04.375Z,,0,,,NaN,,,,,,false,,,,170712.59999999404,170712.39999999106,,170712.09999999404,,170718.963,8,400,,,
sequence,flow.Sequence,4_7,2023-09-08T19:49:04.376Z,,0,,,7519.359999991051,completion,,,,,false,,,,170713.09999999404,170712.39999999106,163176.833,163185.29999999702,163193.04,170718.963,8,400,,,
trial,html.Screen,4_8_0,2023-09-08T19:49:08.717Z,,0,1,,4334.537000000011,response,ISIC_0060827.JPG,5,ISIC_7555812.JPG,ISIC_0060827.JPG,false,1,keypress(m),500,175054.09999999404,175053.5,170702.683,170713.5,170718.963,175064.793,8,400,9,,ISIC_7555812.JPG
break,html.Screen,4_8_1,2023-09-08T19:49:08.719Z,,0,,,NaN,,,,,,false,,,,175056.59999999404,175055.89999999106,,175055,,175064.793,8,400,,,
break_continue,html.Screen,4_8_2,2023-09-08T19:49:08.720Z,,0,,,NaN,,,,,,false,,,,175057.79999999702,175057.5,,175057.19999998808,,175064.793,8,400,,,
sequence,flow.Sequence,4_8,2023-09-08T19:49:08.721Z,,0,,,4338.537000000011,completion,,,,,false,,,,175058.19999998808,175057.5,170702.683,170713.39999999106,170718.963,175064.793,8,400,,,
trial,html.Screen,4_9_0,2023-09-08T19:49:18.645Z,,0,1,,9917.206999999995,response,ISIC_9183042.JPG,5,ISIC_0005762.JPG,ISIC_0005762.JPG,false,0,keypress(z),500,184982.39999999106,184982,175048.487,175058.69999998808,175064.793,185004.928,8,400,10,,ISIC_9183042.JPG
break,html.Screen,4_9_1,2023-09-08T19:49:18.647Z,,0,,,NaN,,,,,,false,,,,184984.19999998808,184983.69999998808,,184983,,185004.928,8,400,,,
break_continue,html.Screen,4_9_2,2023-09-08T19:49:18.650Z,,0,,,NaN,,,,,,false,,,,184987,184984.79999999702,,184984.5,,185004.928,8,400,,,
sequence,flow.Sequence,4_9,2023-09-08T19:49:18.650Z,,0,,,9920.006999997015,completion,,,,,false,,,,184987.59999999404,184984.79999999702,175048.487,175058.5,175064.793,185004.928,8,400,,,
trial,html.Screen,4_10_0,2023-09-08T19:49:23.573Z,,0,1,,4904.471999991045,response,ISIC_9109847.JPG,6,ISIC_0059219.JPG,ISIC_0059219.JPG,false,0,keypress(z),500,189909.89999999106,189909.39999999106,184988.385,184988,185004.928,189916.795,8,400,11,,ISIC_9109847.JPG
break,html.Screen,4_10_1,2023-09-08T19:49:23.574Z,,0,,,NaN,,,,,,false,,,,189911.69999998808,189911.29999999702,,189910.39999999106,,189916.795,8,400,,,
break_continue,html.Screen,4_10_2,2023-09-08T19:49:23.575Z,,0,,,NaN,,,,,,false,,,,189912.69999998808,189912.39999999106,,189912.09999999404,,189916.795,8,400,,,
sequence,flow.Sequence,4_10,2023-09-08T19:49:23.576Z,,0,,,4907.471999991045,completion,,,,,false,,,,189913.19999998808,189912.39999999106,184988.385,184987.89999999106,185004.928,189916.795,8,400,,,
trial,html.Screen,4_11_0,2023-09-08T19:49:27.341Z,,0,1,,3760.8049999940267,response,ISIC_6413346.JPG,6,ISIC_0030970.JPG,ISIC_6413346.JPG,false,1,keypress(m),500,193678.09999999404,193677.59999999404,189900.292,189913.5,189916.795,193696.39,8,400,12,,ISIC_0030970.JPG
break,html.Screen,4_11_1,2023-09-08T19:49:27.342Z,,0,,,NaN,,,,,,false,,,,193679.69999998808,193679.29999999702,,193678.5,,193696.39,8,400,,,
break_continue,html.Screen,4_11_2,2023-09-08T19:49:27.343Z,,0,,,NaN,,,,,,false,,,,193680.59999999404,193680.29999999702,,193680.09999999404,,193696.39,8,400,,,
sequence,flow.Sequence,4_11,2023-09-08T19:49:27.344Z,,0,,,3763.504999997007,completion,,,,,false,,,,193681,193680.29999999702,189900.292,189913.39999999106,189916.795,193696.39,8,400,,,
trial,html.Screen,4_12_0,2023-09-08T19:49:32.889Z,,0,1,,5529.709999994026,response,ISIC_0033148.JPG,5,ISIC_0032226.JPG,ISIC_0032226.JPG,false,0,keypress(z),500,199226.69999998808,199226.09999999404,193680.094,193681.29999999702,193696.39,199240.988,8,400,13,,ISIC_0033148.JPG
break,html.Screen,4_12_1,2023-09-08T19:49:32.891Z,,0,,,NaN,,,,,,false,,,,199228.69999998808,199228.09999999404,,199227.19999998808,,199240.988,8,400,,,
break_continue,html.Screen,4_12_2,2023-09-08T19:49:32.892Z,,0,,,NaN,,,,,,false,,,,199229.79999999702,199229.39999999106,,199229,,199240.988,8,400,,,
sequence,flow.Sequence,4_12,2023-09-08T19:49:32.893Z,,0,,,5533.009999991045,completion,,,,,false,,,,199230.29999999702,199229.39999999106,193680.094,193681.19999998808,193696.39,199240.988,8,400,,,
trial,html.Screen,4_13_0,2023-09-08T19:49:37.429Z,,0,1,,4525.011999999988,response,ISIC_0014527.JPG,6,ISIC_7349772.JPG,ISIC_0014527.JPG,false,1,keypress(m),500,203766.59999999404,203766,199224.419,199230.69999998808,199240.988,203769.925,8,400,14,,ISIC_7349772.JPG
break,html.Screen,4_13_1,2023-09-08T19:49:37.431Z,,0,,,NaN,,,,,,false,,,,203768.19999998808,203767.69999998808,,203767.09999999404,,203769.925,8,400,,,
break_continue,html.Screen,4_13_2,2023-09-08T19:49:37.432Z,,0,,,NaN,,,,,,false,,,,203769,203768.79999999702,,203768.39999999106,,203769.925,8,400,,,
sequence,flow.Sequence,4_13,2023-09-08T19:49:37.432Z,,0,,,4527.811999997008,completion,,,,,false,,,,203769.39999999106,203768.79999999702,199224.419,199230.59999999404,199240.988,203769.925,8,400,,,
trial,html.Screen,4_14_0,2023-09-08T19:49:44.189Z,,0,1,,6755.974999991071,response,ISIC_0000150.JPG,5,ISIC_3448630.JPG,ISIC_3448630.JPG,false,0,keypress(z),500,210526.39999999106,210525.89999999106,203753.582,203769.79999999702,203769.925,210529.988,8,400,15,,ISIC_0000150.JPG
break,html.Screen,4_14_1,2023-09-08T19:49:44.191Z,,0,,,NaN,,,,,,false,,,,210528.39999999106,210527.89999999106,,210527,,210529.988,8,400,,,
break_continue,html.Screen,4_14_2,2023-09-08T19:49:44.192Z,,0,,,NaN,,,,,,false,,,,210529.69999998808,210529.19999998808,,210528.79999999702,,210529.988,8,400,,,
sequence,flow.Sequence,4_14,2023-09-08T19:49:44.193Z,,0,,,6759.274999988091,completion,,,,,false,,,,210530.09999999404,210529.19999998808,203753.582,203769.69999998808,203769.925,210529.988,8,400,,,
trial,html.Screen,4_15_0,2023-09-08T19:49:49.894Z,,0,1,,5701.211999988067,response,ISIC_0067170.JPG,5,ISIC_7127760.JPG,ISIC_7127760.JPG,false,0,keypress(z),500,216231.59999999404,216231.19999998808,210513.644,210530.5,210529.988,216241.072,8,400,16,,ISIC_0067170.JPG
break,html.Screen,4_15_1,2023-09-08T19:49:49.896Z,,0,,,NaN,,,,,,false,,,,216233.29999999702,216232.79999999702,,216232.09999999404,,216241.072,8,400,,,
break_continue,html.Screen,4_15_2,2023-09-08T19:49:49.897Z,,0,,,NaN,,,,,,false,,,,216234.09999999404,216233.79999999702,,216233.59999999404,,216241.072,8,400,,,
sequence,flow.Sequence,4_15,2023-09-08T19:49:49.897Z,,0,,,5703.811999997008,completion,,,,,false,,,,216234.5,216233.79999999702,210513.644,210530.39999999106,210529.988,216241.072,8,400,,,
trial,html.Screen,4_16_0,2023-09-08T19:49:53.597Z,,0,1,,3693.027999994054,response,ISIC_0055931.JPG,5,ISIC_7319686.JPG,ISIC_0055931.JPG,false,1,keypress(m),500,219934.79999999702,219934.09999999404,216224.825,216234.79999999702,216241.072,219954.327,8,400,17,,ISIC_7319686.JPG
break,html.Screen,4_16_1,2023-09-08T19:49:53.599Z,,0,,,NaN,,,,,,false,,,,219936.59999999404,219936.09999999404,,219935.29999999702,,219954.327,8,400,,,
break_continue,html.Screen,4_16_2,2023-09-08T19:49:53.600Z,,0,,,NaN,,,,,,false,,,,219937.69999998808,219937.29999999702,,219937,,219954.327,8,400,,,
sequence,flow.Sequence,4_16,2023-09-08T19:49:53.601Z,,0,,,3696.227999997034,completion,,,,,false,,,,219938.09999999404,219937.29999999702,216224.825,216234.79999999702,216241.072,219954.327,8,400,,,
trial,html.Screen,4_17_0,2023-09-08T19:49:56.987Z,,0,1,,3369.572999991069,response,ISIC_8752021.JPG,5,ISIC_0070447.JPG,ISIC_0070447.JPG,false,0,keypress(z),500,223324.5,223323.89999999106,219921.181,219938.5,219954.327,223334.075,8,400,18,,ISIC_8752021.JPG
break,html.Screen,4_17_1,2023-09-08T19:49:56.989Z,,0,,,NaN,,,,,,false,,,,223326.29999999702,223325.69999998808,,223324.89999999106,,223334.075,8,400,,,
break_continue,html.Screen,4_17_2,2023-09-08T19:49:56.990Z,,0,,,NaN,,,,,,false,,,,223327.39999999106,223327,,223326.59999999404,,223334.075,8,400,,,
sequence,flow.Sequence,4_17,2023-09-08T19:49:56.990Z,,0,,,3372.67300000001,completion,,,,,false,,,,223327.89999999106,223327,219921.181,219938.39999999106,219954.327,223334.075,8,400,,,
trial,html.Screen,4_18_0,2023-09-08T19:50:03.894Z,,0,1,,6897.024999994028,response,ISIC_0025735.JPG,5,ISIC_0025499.JPG,ISIC_0025499.JPG,false,0,keypress(z),500,230231.59999999404,230231.09999999404,223317.445,223328.29999999702,223334.075,230243.898,8,400,19,,ISIC_0025735.JPG
break,html.Screen,4_18_1,2023-09-08T19:50:03.896Z,,0,,,NaN,,,,,,false,,,,230233.5,230233,,230232.19999998808,,230243.898,8,400,,,
break_continue,html.Screen,4_18_2,2023-09-08T19:50:03.897Z,,0,,,NaN,,,,,,false,,,,230234.39999999106,230234.19999998808,,230233.79999999702,,230243.898,8,400,,,
sequence,flow.Sequence,4_18,2023-09-08T19:50:03.898Z,,0,,,6900.124999988067,completion,,,,,false,,,,230235.09999999404,230234.19999998808,223317.445,223328.09999999404,223334.075,230243.898,8,400,,,
trial,html.Screen,4_19_0,2023-09-08T19:50:06.670Z,,0,1,,2763.4019999970333,response,ISIC_7889838.JPG,6,ISIC_3922602.JPG,ISIC_7889838.JPG,false,1,keypress(m),500,233007.79999999702,233007.29999999702,230227.415,230235.5,230243.898,233024.59,8,400,20,,ISIC_3922602.JPG
break,html.Screen,4_19_1,2023-09-08T19:50:06.672Z,,0,,,NaN,,,,,,false,,,,233009.69999998808,233009.19999998808,,233008.39999999106,,233024.59,8,400,,,
break_continue,html.Screen,4_19_2,2023-09-08T19:50:06.673Z,,0,,,NaN,,,,,,false,,,,233010.59999999404,233010.29999999702,,233010,,233024.59,8,400,,,
sequence,flow.Sequence,4_19,2023-09-08T19:50:06.674Z,,0,,,2766.4019999970333,completion,,,,,false,,,,233011.19999998808,233010.29999999702,230227.415,230235.39999999106,230243.898,233024.59,8,400,,,
trial,html.Screen,4_20_0,2023-09-08T19:50:10.726Z,,0,1,,4038.4100000000035,response,ISIC_6557642.JPG,5,ISIC_0031233.JPG,ISIC_0031233.JPG,false,0,keypress(z),500,237063.59999999404,237063,233007.954,233011.5,233024.59,237070.527,8,400,21,,ISIC_6557642.JPG
break,html.Screen,4_20_1,2023-09-08T19:50:10.728Z,,0,,,NaN,,,,,,false,,,,237065.5,237065,,237064.09999999404,,237070.527,8,400,,,
break_continue,html.Screen,4_20_2,2023-09-08T19:50:10.729Z,,0,,,NaN,,,,,,false,,,,237066.5,237066.19999998808,,237065.89999999106,,237070.527,8,400,,,
sequence,flow.Sequence,4_20,2023-09-08T19:50:10.730Z,,0,,,4041.6099999880826,completion,,,,,false,,,,237067.09999999404,237066.19999998808,233007.954,233011.39999999106,233024.59,237070.527,8,400,,,
trial,html.Screen,4_21_0,2023-09-08T19:50:19.571Z,,0,1,,8837.772999997018,response,ISIC_6906476.JPG,6,ISIC_0028534.JPG,ISIC_6906476.JPG,false,1,keypress(m),500,245908.79999999702,245908.29999999702,237054.484,237067.5,237070.527,245929.395,8,400,22,,ISIC_0028534.JPG
break,html.Screen,4_21_1,2023-09-08T19:50:19.573Z,,0,,,NaN,,,,,,false,,,,245910.59999999404,245910.19999998808,,245909.29999999702,,245929.395,8,400,,,
break_continue,html.Screen,4_21_2,2023-09-08T19:50:19.574Z,,0,,,NaN,,,,,,false,,,,245911.5,245911.29999999702,,245911,,245929.395,8,400,,,
sequence,flow.Sequence,4_21,2023-09-08T19:50:19.574Z,,0,,,8840.772999997018,completion,,,,,false,,,,245912.09999999404,245911.29999999702,237054.484,237067.29999999702,237070.527,245929.395,8,400,,,
trial,html.Screen,4_22_0,2023-09-08T19:50:23.979Z,,0,1,,4386.80499998809,response,ISIC_9476244.JPG,5,ISIC_0189336.JPG,ISIC_9476244.JPG,false,1,keypress(m),500,250316.79999999702,250316.19999998808,245895.601,245912.39999999106,245929.395,250324.178,8,400,23,,ISIC_0189336.JPG
break,html.Screen,4_22_1,2023-09-08T19:50:23.981Z,,0,,,NaN,,,,,,false,,,,250318.5,250318.09999999404,,250317.19999998808,,250324.178,8,400,,,
break_continue,html.Screen,4_22_2,2023-09-08T19:50:23.982Z,,0,,,NaN,,,,,,false,,,,250319.5,250319.19999998808,,250318.79999999702,,250324.178,8,400,,,
sequence,flow.Sequence,4_22,2023-09-08T19:50:23.982Z,,0,,,4389.80499998809,completion,,,,,false,,,,250319.89999999106,250319.19999998808,245895.601,245912.29999999702,245929.395,250324.178,8,400,,,
trial,html.Screen,4_23_0,2023-09-08T19:50:28.039Z,,0,1,,4051.6219999970053,response,ISIC_7761711.JPG,5,ISIC_0011496.JPG,ISIC_0011496.JPG,false,0,keypress(z),500,254376.39999999106,254375.79999999702,250307.528,250320.39999999106,250324.178,254386.904,8,400,24,,ISIC_7761711.JPG
break,html.Screen,4_23_1,2023-09-08T19:50:28.041Z,,0,,,NaN,,,,,,false,,,,254378.19999998808,254377.69999998808,,254377,,254386.904,8,400,,,
break_continue,html.Screen,4_23_2,2023-09-08T19:50:28.042Z,,0,,,NaN,,,,,,false,,,,254379.19999998808,254378.89999999106,,254378.5,,254386.904,8,400,,,
sequence,flow.Sequence,4_23,2023-09-08T19:50:28.042Z,,0,,,4054.721999991045,completion,,,,,false,,,,254379.69999998808,254378.89999999106,250307.528,250320.19999998808,250324.178,254386.904,8,400,,,
trial,html.Screen,4_24_0,2023-09-08T19:50:33.743Z,,0,1,,5693.19599999403,response,ISIC_1308081.JPG,5,ISIC_3568218.JPG,ISIC_3568218.JPG,false,0,keypress(z),500,260080.59999999404,260080.09999999404,254370.531,254380,254386.904,260097.895,8,400,25,,ISIC_1308081.JPG
break,html.Screen,4_24_1,2023-09-08T19:50:33.745Z,,0,,,NaN,,,,,,false,,,,260082.29999999702,260081.89999999106,,260081.09999999404,,260097.895,8,400,,,
break_continue,html.Screen,4_24_2,2023-09-08T19:50:33.746Z,,0,,,NaN,,,,,,false,,,,260083.29999999702,260083,,260082.69999998808,,260097.895,8,400,,,
sequence,flow.Sequence,4_24,2023-09-08T19:50:33.746Z,,0,,,5696.09599999999,completion,,,,,false,,,,260083.79999999702,260083,254370.531,254379.89999999106,254386.904,260097.895,8,400,,,
trial,html.Screen,4_25_0,2023-09-08T19:50:39.094Z,,0,1,,5333.20499999405,response,ISIC_8629635.JPG,5,ISIC_9696502.JPG,ISIC_8629635.JPG,false,1,keypress(m),500,265431.59999999404,265431.09999999404,260081.919,260084.09999999404,260097.895,265442.716,8,400,26,,ISIC_9696502.JPG
break,html.Screen,4_25_1,2023-09-08T19:50:39.096Z,,0,,,NaN,,,,,,false,,,,265433.39999999106,265433,,265432.09999999404,,265442.716,8,400,,,
break_continue,html.Screen,4_25_2,2023-09-08T19:50:39.097Z,,0,,,NaN,,,,,,false,,,,265434.5,265434.1999999881,,265433.89999999106,,265442.716,8,400,,,
sequence,flow.Sequence,4_25,2023-09-08T19:50:39.097Z,,0,,,5336.30499998809,completion,,,,,false,,,,265435.09999999404,265434.1999999881,260081.919,260084.09999999404,260097.895,265442.716,8,400,,,
trial,html.Screen,4_26_0,2023-09-08T19:50:46.750Z,,0,1,,7644.183999991044,response,ISIC_1414751.JPG,6,ISIC_1814941.JPG,ISIC_1414751.JPG,false,1,keypress(m),500,273087.59999999404,273086.89999999106,265426.361,265435.39999999106,265442.716,273101.899,8,400,27,,ISIC_1814941.JPG
break,html.Screen,4_26_1,2023-09-08T19:50:46.752Z,,0,,,NaN,,,,,,false,,,,273089.5,273089,,273088,,273101.899,8,400,,,
break_continue,html.Screen,4_26_2,2023-09-08T19:50:46.753Z,,0,,,NaN,,,,,,false,,,,273090.6999999881,273090.299999997,,273090,,273101.899,8,400,,,
sequence,flow.Sequence,4_26,2023-09-08T19:50:46.753Z,,0,,,7647.583999997005,completion,,,,,false,,,,273091.09999999404,273090.299999997,265426.361,265435.299999997,265442.716,273101.899,8,400,,,
trial,html.Screen,4_27_0,2023-09-08T19:50:51.917Z,,0,1,,5152.200999994064,response,ISIC_0072030.JPG,5,ISIC_5388485.JPG,ISIC_0072030.JPG,false,1,keypress(m),500,278254.5,278254.09999999404,273085.321,273091.5,273101.899,278263.406,8,400,28,,ISIC_5388485.JPG
break,html.Screen,4_27_1,2023-09-08T19:50:51.918Z,,0,,,NaN,,,,,,false,,,,278255.59999999404,278255.39999999106,,278254.799999997,,278263.406,8,400,,,
break_continue,html.Screen,4_27_2,2023-09-08T19:50:51.919Z,,0,,,NaN,,,,,,false,,,,278256.299999997,278256.09999999404,,278255.799999997,,278263.406,8,400,,,
sequence,flow.Sequence,4_27,2023-09-08T19:50:51.919Z,,0,,,5154.200999994064,completion,,,,,false,,,,278256.59999999404,278256.09999999404,273085.321,273091.39999999106,273101.899,278263.406,8,400,,,
trial,html.Screen,4_28_0,2023-09-08T19:50:57.961Z,,0,1,,6034.693999994022,response,ISIC_0011150.JPG,5,ISIC_4136351.JPG,ISIC_4136351.JPG,false,0,keypress(z),500,284298.59999999404,284298.09999999404,278247.148,278256.799999997,278263.406,284307.559,8,400,29,,ISIC_0011150.JPG
break,html.Screen,4_28_1,2023-09-08T19:50:57.963Z,,0,,,NaN,,,,,,false,,,,284300.39999999106,284300,,284299.1999999881,,284307.559,8,400,,,
break_continue,html.Screen,4_28_2,2023-09-08T19:50:57.964Z,,0,,,NaN,,,,,,false,,,,284301.39999999106,284301.09999999404,,284300.799999997,,284307.559,8,400,,,
sequence,flow.Sequence,4_28,2023-09-08T19:50:57.964Z,,0,,,6037.693999994022,completion,,,,,false,,,,284301.799999997,284301.09999999404,278247.148,278256.6999999881,278263.406,284307.559,8,400,,,
trial,html.Screen,4_29_0,2023-09-08T19:51:03.304Z,,0,1,,5333.540999994031,response,ISIC_9709101.JPG,6,ISIC_7306535.JPG,ISIC_7306535.JPG,false,0,keypress(z),500,289641.6999999881,289641.09999999404,284291.456,284302.1999999881,284307.559,289652.215,8,400,30,,ISIC_9709101.JPG
break,html.Screen,4_29_1,2023-09-08T19:51:03.306Z,,0,,,NaN,,,,,,false,,,,289643.1999999881,289642.799999997,,289642.1999999881,,289652.215,8,400,,,
break_continue,html.Screen,4_29_2,2023-09-08T19:51:03.306Z,,0,,,NaN,,,,,,false,,,,289644,289643.799999997,,289643.5,,289652.215,8,400,,,
sequence,flow.Sequence,4_29,2023-09-08T19:51:03.307Z,,0,,,5336.240999997011,completion,,,,,false,,,,289644.5,289643.799999997,284291.456,284302.09999999404,284307.559,289652.215,8,400,,,
trial,html.Screen,4_30_0,2023-09-08T19:51:07.758Z,,0,1,,4442.9849999880535,response,ISIC_0011994.JPG,5,ISIC_0028394.JPG,ISIC_0011994.JPG,false,1,keypress(m),500,294095.6999999881,294095.1999999881,289635.541,289644.799999997,289652.215,294114.888,8,400,31,,ISIC_0028394.JPG
break,html.Screen,4_30_1,2023-09-08T19:51:07.760Z,,0,,,NaN,,,,,,false,,,,294097.39999999106,294097,,294096.1999999881,,294114.888,8,400,,,
break_continue,html.Screen,4_30_2,2023-09-08T19:51:07.761Z,,0,,,NaN,,,,,,false,,,,294098.299999997,294097.89999999106,,294097.6999999881,,294114.888,8,400,,,
sequence,flow.Sequence,4_30,2023-09-08T19:51:07.761Z,,0,,,4445.684999991034,completion,,,,,false,,,,294098.799999997,294097.89999999106,289635.541,289644.6999999881,289652.215,294114.888,8,400,,,
trial,html.Screen,4_31_0,2023-09-08T19:51:11.687Z,,0,1,,3909.4119999970426,response,ISIC_0000043.JPG,5,ISIC_9462738.JPG,ISIC_9462738.JPG,false,0,keypress(z),500,298024.799999997,298024.299999997,294081.472,294099.1999999881,294114.888,298044.358,8,400,32,,ISIC_0000043.JPG
break,html.Screen,4_31_1,2023-09-08T19:51:11.689Z,,0,,,NaN,,,,,,false,,,,298026.6999999881,298026.1999999881,,298025.39999999106,,298044.358,8,400,,,
break_continue,html.Screen,4_31_2,2023-09-08T19:51:11.690Z,,0,,,NaN,,,,,,false,,,,298027.59999999404,298027.299999997,,298027.09999999404,,298044.358,8,400,,,
sequence,flow.Sequence,4_31,2023-09-08T19:51:11.690Z,,0,,,3912.4119999970426,completion,,,,,false,,,,298028.09999999404,298027.299999997,294081.472,294099,294114.888,298044.358,8,400,,,
trial,html.Screen,4_32_0,2023-09-08T19:51:16.126Z,,0,1,,4418.941999997012,response,ISIC_0027234.JPG,4,ISIC_0003345.JPG,ISIC_0027234.JPG,false,1,keypress(m),500,302463.89999999106,302463.299999997,298011.58,298028.5,298044.358,302473.031,8,400,33,,ISIC_0003345.JPG
break,html.Screen,4_32_1,2023-09-08T19:51:16.128Z,,0,,,NaN,,,,,,false,,,,302465.59999999404,302465.1999999881,,302464.5,,302473.031,8,400,,,
break_continue,html.Screen,4_32_2,2023-09-08T19:51:16.129Z,,0,,,NaN,,,,,,false,,,,302466.6999999881,302466.299999997,,302465.89999999106,,302473.031,8,400,,,
sequence,flow.Sequence,4_32,2023-09-08T19:51:16.130Z,,0,,,4421.941999997012,completion,,,,,false,,,,302467.1999999881,302466.299999997,298011.58,298028.39999999106,298044.358,302473.031,8,400,,,
trial,html.Screen,4_33_0,2023-09-08T19:51:20.359Z,,0,1,,4222.468999999983,response,ISIC_4654965.JPG,4,ISIC_9141817.JPG,ISIC_9141817.JPG,false,0,keypress(z),500,306696.299999997,306695.5,302456.232,302467.5,302473.031,306702.177,8,400,34,,ISIC_4654965.JPG
break,html.Screen,4_33_1,2023-09-08T19:51:20.361Z,,0,,,NaN,,,,,,false,,,,306698.39999999106,306697.89999999106,,306697.09999999404,,306702.177,8,400,,,
break_continue,html.Screen,4_33_2,2023-09-08T19:51:20.362Z,,0,,,NaN,,,,,,false,,,,306699.59999999404,306699.1999999881,,306698.799999997,,306702.177,8,400,,,
sequence,flow.Sequence,4_33,2023-09-08T19:51:20.363Z,,0,,,4226.168999988062,completion,,,,,false,,,,306700.09999999404,306699.1999999881,302456.232,302467.39999999106,302473.031,306702.177,8,400,,,
trial,html.Screen,4_34_0,2023-09-08T19:51:27.519Z,,0,1,,7153.322999999975,response,ISIC_0028086.JPG,6,ISIC_1440377.JPG,ISIC_0028086.JPG,false,1,keypress(m),500,313856.09999999404,313855.5,306685.534,306700.5,306702.177,313861.938,8,400,35,,ISIC_1440377.JPG
break,html.Screen,4_34_1,2023-09-08T19:51:27.520Z,,0,,,NaN,,,,,,false,,,,313857.799999997,313857.39999999106,,313856.59999999404,,313861.938,8,400,,,
break_continue,html.Screen,4_34_2,2023-09-08T19:51:27.521Z,,0,,,NaN,,,,,,false,,,,313858.89999999106,313858.59999999404,,313858.299999997,,313861.938,8,400,,,
sequence,flow.Sequence,4_34,2023-09-08T19:51:27.522Z,,0,,,7156.422999994014,completion,,,,,false,,,,313859.299999997,313858.59999999404,306685.534,306700.39999999106,306702.177,313861.938,8,400,,,
trial,html.Screen,4_35_0,2023-09-08T19:51:31.478Z,,0,1,,3953.0619999999763,response,ISIC_0032836.JPG,5,ISIC_5961333.JPG,ISIC_0032836.JPG,false,1,keypress(m),500,317815.59999999404,317815,313845.683,313859.6999999881,313861.938,317824.656,8,400,36,,ISIC_5961333.JPG
break,html.Screen,4_35_1,2023-09-08T19:51:31.480Z,,0,,,NaN,,,,,,false,,,,317817.5,317817,,317816.1999999881,,317824.656,8,400,,,
break_continue,html.Screen,4_35_2,2023-09-08T19:51:31.481Z,,0,,,NaN,,,,,,false,,,,317818.39999999106,317818.09999999404,,317817.799999997,,317824.656,8,400,,,
sequence,flow.Sequence,4_35,2023-09-08T19:51:31.482Z,,0,,,3956.161999994016,completion,,,,,false,,,,317818.89999999106,317818.09999999404,313845.683,313859.59999999404,313861.938,317824.656,8,400,,,
trial,html.Screen,4_36_0,2023-09-08T19:51:41.090Z,,0,1,,9602.343999999983,response,ISIC_0032762.JPG,5,ISIC_6000407.JPG,ISIC_0032762.JPG,false,1,keypress(m),500,327427.59999999404,327427,317808.362,317819.299999997,317824.656,327431.876,8,400,37,,ISIC_6000407.JPG
break,html.Screen,4_36_1,2023-09-08T19:51:41.092Z,,0,,,NaN,,,,,,false,,,,327429.39999999106,327429,,327428.09999999404,,327431.876,8,400,,,
break_continue,html.Screen,4_36_2,2023-09-08T19:51:41.093Z,,0,,,NaN,,,,,,false,,,,327430.39999999106,327430,,327429.6999999881,,327431.876,8,400,,,
sequence,flow.Sequence,4_36,2023-09-08T19:51:41.093Z,,0,,,9605.343999999983,completion,,,,,false,,,,327430.799999997,327430,317808.362,317819.1999999881,317824.656,327431.876,8,400,,,
trial,html.Screen,4_37_0,2023-09-08T19:51:46.864Z,,0,1,,5768.52399999107,response,ISIC_0059846.JPG,5,ISIC_7519274.JPG,ISIC_0059846.JPG,false,1,keypress(m),500,333201,333200.39999999106,327415.142,327431.1999999881,327431.876,333209.506,8,400,38,,ISIC_7519274.JPG
break,html.Screen,4_37_1,2023-09-08T19:51:46.865Z,,0,,,NaN,,,,,,false,,,,333202.799999997,333202.299999997,,333201.59999999404,,333209.506,8,400,,,
break_continue,html.Screen,4_37_2,2023-09-08T19:51:46.866Z,,0,,,NaN,,,,,,false,,,,333203.89999999106,333203.5,,333203.1999999881,,333209.506,8,400,,,
sequence,flow.Sequence,4_37,2023-09-08T19:51:46.867Z,,0,,,5771.624000000011,completion,,,,,false,,,,333204.299999997,333203.5,327415.142,327431.09999999404,327431.876,333209.506,8,400,,,
trial,html.Screen,4_38_0,2023-09-08T19:51:48.905Z,,0,1,,2032.1939999880851,response,ISIC_4414811.JPG,6,ISIC_0032823.JPG,ISIC_4414811.JPG,false,1,keypress(m),500,335242,335241.6999999881,333192.955,333204.59999999404,333209.506,335257.542,8,400,39,,ISIC_0032823.JPG
break,html.Screen,4_38_1,2023-09-08T19:51:48.906Z,,0,,,NaN,,,,,,false,,,,335243.09999999404,335242.89999999106,,335242.39999999106,,335257.542,8,400,,,
break_continue,html.Screen,4_38_2,2023-09-08T19:51:48.906Z,,0,,,NaN,,,,,,false,,,,335243.59999999404,335243.39999999106,,335243.299999997,,335257.542,8,400,,,
sequence,flow.Sequence,4_38,2023-09-08T19:51:48.906Z,,0,,,2033.8939999910654,completion,,,,,false,,,,335243.799999997,335243.39999999106,333192.955,333204.5,333209.506,335257.542,8,400,,,
trial,html.Screen,4_39_0,2023-09-08T19:51:50.926Z,,0,1,,2004.757999997004,response,ISIC_0029660.JPG,6,ISIC_2720426.JPG,ISIC_0029660.JPG,false,1,keypress(m),500,337263.09999999404,337262.299999997,335241.241,335244.09999999404,335257.542,337272.145,8,400,40,,ISIC_2720426.JPG
break,html.Screen,4_39_1,2023-09-08T19:51:50.928Z,,0,,,NaN,,,,,,false,,,,337264.89999999106,337264.5,,337263.6999999881,,337272.145,8,400,,,
break_continue,html.Screen,4_39_2,2023-09-08T19:51:50.929Z,,0,,,NaN,,,,,,false,,,,337265.89999999106,337265.59999999404,,337265.299999997,,337272.145,8,400,,,
sequence,flow.Sequence,4_39,2023-09-08T19:51:50.929Z,,0,,,2008.0579999940237,completion,,,,,false,,,,337266.39999999106,337265.59999999404,335241.241,335244,335257.542,337272.145,8,400,,,
trial,html.Screen,4_40_0,2023-09-08T19:51:53.034Z,,0,1,,2098.3549999999814,response,ISIC_8431648.JPG,5,ISIC_0016033.JPG,ISIC_0016033.JPG,false,0,keypress(z),500,339371,339370.5,337255.732,337266.799999997,337272.145,339386.86,8,400,41,,ISIC_8431648.JPG
break,html.Screen,4_40_1,2023-09-08T19:51:53.035Z,,0,,,NaN,,,,,,false,,,,339372.59999999404,339372.1999999881,,339371.5,,339386.86,8,400,,,
break_continue,html.Screen,4_40_2,2023-09-08T19:51:53.036Z,,0,,,NaN,,,,,,false,,,,339373.6999999881,339373.39999999106,,339373,,339386.86,8,400,,,
sequence,flow.Sequence,4_40,2023-09-08T19:51:53.037Z,,0,,,2101.2549999910407,completion,,,,,false,,,,339374.09999999404,339373.39999999106,337255.732,337266.6999999881,337272.145,339386.86,8,400,,,
trial,html.Screen,4_41_0,2023-09-08T19:51:55.057Z,,0,1,,2006.640000000014,response,ISIC_2596574.JPG,5,ISIC_0878793.JPG,ISIC_0878793.JPG,false,0,keypress(z),500,341393.89999999106,341393.5,339370.634,339374.6999999881,339386.86,341401.477,8,400,42,,ISIC_2596574.JPG
break,html.Screen,4_41_1,2023-09-08T19:51:55.058Z,,0,,,NaN,,,,,,false,,,,341395.59999999404,341395.09999999404,,341394.5,,341401.477,8,400,,,
break_continue,html.Screen,4_41_2,2023-09-08T19:51:55.059Z,,0,,,NaN,,,,,,false,,,,341396.39999999106,341396.09999999404,,341395.89999999106,,341401.477,8,400,,,
sequence,flow.Sequence,4_41,2023-09-08T19:51:55.059Z,,0,,,2009.2399999940535,completion,,,,,false,,,,341396.799999997,341396.09999999404,339370.634,339374.59999999404,339386.86,341401.477,8,400,,,
trial,html.Screen,4_42_0,2023-09-08T19:52:02.615Z,,0,1,,7550.622999994026,response,ISIC_4418545.JPG,5,ISIC_0002774.JPG,ISIC_4418545.JPG,false,1,keypress(m),500,348952.59999999404,348952.09999999404,341384.678,341397.1999999881,341401.477,348960.69,8,400,43,,ISIC_0002774.JPG
break,html.Screen,4_42_1,2023-09-08T19:52:02.617Z,,0,,,NaN,,,,,,false,,,,348954.59999999404,348954.09999999404,,348953.39999999106,,348960.69,8,400,,,
break_continue,html.Screen,4_42_2,2023-09-08T19:52:02.618Z,,0,,,NaN,,,,,,false,,,,348955.799999997,348955.5,,348955,,348960.69,8,400,,,
sequence,flow.Sequence,4_42,2023-09-08T19:52:02.619Z,,0,,,7554.0229999999865,completion,,,,,false,,,,348956.39999999106,348955.5,341384.678,341397.09999999404,341401.477,348960.69,8,400,,,
trial,html.Screen,4_43_0,2023-09-08T19:52:09.119Z,,0,1,,6495.009999988077,response,ISIC_0163812.JPG,5,ISIC_4007322.JPG,ISIC_4007322.JPG,false,0,keypress(z),500,355456.1999999881,355455.6999999881,348944.497,348956.6999999881,348960.69,355471.04,8,400,44,,ISIC_0163812.JPG
break,html.Screen,4_43_1,2023-09-08T19:52:09.121Z,,0,,,NaN,,,,,,false,,,,355458,355457.5,,355456.6999999881,,355471.04,8,400,,,
break_continue,html.Screen,4_43_2,2023-09-08T19:52:09.122Z,,0,,,NaN,,,,,,false,,,,355459.09999999404,355458.799999997,,355458.39999999106,,355471.04,8,400,,,
sequence,flow.Sequence,4_43,2023-09-08T19:52:09.122Z,,0,,,6498.109999997017,completion,,,,,false,,,,355459.59999999404,355458.799999997,348944.497,348956.59999999404,348960.69,355471.04,8,400,,,
trial,html.Screen,4_44_0,2023-09-08T19:52:12.523Z,,0,1,,3389.460000000021,response,ISIC_0028397.JPG,6,ISIC_9741917.JPG,ISIC_9741917.JPG,false,0,keypress(z),500,358860.89999999106,358860.5,355454.588,355459.89999999106,355471.04,358884.357,8,400,45,,ISIC_0028397.JPG
break,html.Screen,4_44_1,2023-09-08T19:52:12.525Z,,0,,,NaN,,,,,,false,,,,358862,358861.799999997,,358861.299999997,,358884.357,8,400,,,
break_continue,html.Screen,4_44_2,2023-09-08T19:52:12.525Z,,0,,,NaN,,,,,,false,,,,358862.6999999881,358862.5,,358862.299999997,,358884.357,8,400,,,
sequence,flow.Sequence,4_44,2023-09-08T19:52:12.526Z,,0,,,3391.460000000021,completion,,,,,false,,,,358863,358862.5,355454.588,355459.799999997,355471.04,358884.357,8,400,,,
trial,html.Screen,4_45_0,2023-09-08T19:52:21.937Z,,0,1,,9389.942999997002,response,ISIC_0058138.JPG,5,ISIC_0032182.JPG,ISIC_0032182.JPG,false,0,keypress(z),500,368274.6999999881,368274.299999997,358867.83,358863.299999997,358884.357,368291.911,8,400,46,,ISIC_0058138.JPG
break,html.Screen,4_45_1,2023-09-08T19:52:21.939Z,,0,,,NaN,,,,,,false,,,,368276.59999999404,368276.1999999881,,368275.299999997,,368291.911,8,400,,,
break_continue,html.Screen,4_45_2,2023-09-08T19:52:21.940Z,,0,,,NaN,,,,,,false,,,,368277.59999999404,368277.299999997,,368277,,368291.911,8,400,,,
sequence,flow.Sequence,4_45,2023-09-08T19:52:21.941Z,,0,,,9392.942999997002,completion,,,,,false,,,,368278,368277.299999997,358867.83,358863.1999999881,358884.357,368291.911,8,400,,,
trial,html.Screen,4_46_0,2023-09-08T19:52:25.945Z,,0,1,,3989.6889999940176,response,ISIC_0033967.JPG,5,ISIC_9211072.JPG,ISIC_9211072.JPG,false,0,keypress(z),500,372282,372281.59999999404,368275.476,368278.39999999106,368291.911,372287.881,8,400,47,,ISIC_0033967.JPG
break,html.Screen,4_46_1,2023-09-08T19:52:25.946Z,,0,,,NaN,,,,,,false,,,,372283.89999999106,372283.39999999106,,372282.59999999404,,372287.881,8,400,,,
break_continue,html.Screen,4_46_2,2023-09-08T19:52:25.947Z,,0,,,NaN,,,,,,false,,,,372284.89999999106,372284.59999999404,,372284.1999999881,,372287.881,8,400,,,
sequence,flow.Sequence,4_46,2023-09-08T19:52:25.948Z,,0,,,3992.6889999940176,completion,,,,,false,,,,372285.39999999106,372284.59999999404,368275.476,368278.299999997,368291.911,372287.881,8,400,,,
trial,html.Screen,4_47_0,2023-09-08T19:52:29.333Z,,0,1,,3381.918999997026,response,ISIC_6284312.JPG,5,ISIC_0975874.JPG,ISIC_6284312.JPG,false,1,keypress(m),500,375670.39999999106,375669.799999997,372271.399,372285.799999997,372287.881,375684.556,8,400,48,,ISIC_0975874.JPG
break,html.Screen,4_47_1,2023-09-08T19:52:29.335Z,,0,,,NaN,,,,,,false,,,,375672.1999999881,375671.799999997,,375671,,375684.556,8,400,,,
break_continue,html.Screen,4_47_2,2023-09-08T19:52:29.336Z,,0,,,NaN,,,,,,false,,,,375673.299999997,375673,,375672.6999999881,,375684.556,8,400,,,
sequence,flow.Sequence,4_47,2023-09-08T19:52:29.336Z,,0,,,3385.119000000006,completion,,,,,false,,,,375673.89999999106,375673,372271.399,372285.6999999881,372287.881,375684.556,8,400,,,
trial,html.Screen,4_48_0,2023-09-08T19:52:32.349Z,,0,1,,3001.2439999970375,response,ISIC_2203239.JPG,5,ISIC_0015156.JPG,ISIC_0015156.JPG,false,0,keypress(z),500,378686.1999999881,378685.799999997,375667.975,375674.1999999881,375684.556,378698.2,8,400,49,,ISIC_2203239.JPG
break,html.Screen,4_48_1,2023-09-08T19:52:32.350Z,,0,,,NaN,,,,,,false,,,,378687.5,378687.1999999881,,378686.59999999404,,378698.2,8,400,,,
break_continue,html.Screen,4_48_2,2023-09-08T19:52:32.351Z,,0,,,NaN,,,,,,false,,,,378688.09999999404,378687.89999999106,,378687.6999999881,,378698.2,8,400,,,
sequence,flow.Sequence,4_48,2023-09-08T19:52:32.351Z,,0,,,3003.343999991077,completion,,,,,false,,,,378688.39999999106,378687.89999999106,375667.975,375674.09999999404,375684.556,378698.2,8,400,,,
trial,html.Screen,4_49_0,2023-09-08T19:52:39.477Z,,0,1,,7115.199999991048,response,ISIC_0026236.JPG,5,ISIC_7171090.JPG,ISIC_7171090.JPG,false,0,keypress(z),500,385814.09999999404,385813.39999999106,378681.612,378688.6999999881,378698.2,385824.494,8,400,50,,ISIC_0026236.JPG
break,html.Screen,4_49_1,2023-09-08T19:52:49.479Z,,0,,,10006.963999999978,timeout,,,,,false,,,,395816.09999999404,395814.923,385807.834,385814.799999997,385824.494,395831.458,8,400,,,
break_continue,html.Screen,4_49_2,2023-09-08T19:52:51.119Z,,0,,,1604.0420000000158,response,,,,,false,continue,keypress(Space),,397456.89999999106,397435.5,395814.923,395816.1999999881,395831.458,397462.984,8,400,,,
sequence,flow.Sequence,4_49,2023-09-08T19:52:51.120Z,,0,,,18737.29999999999,completion,,,,,false,,,,397457.09999999404,397435.5,378681.612,378688.59999999404,378698.2,397462.984,8,400,,,
trial,html.Screen,4_50_0,2023-09-08T19:52:56.340Z,,0,2,,5214.215999988082,response,ISIC_0026484.JPG,5,ISIC_1195689.JPG,ISIC_0026484.JPG,false,1,keypress(m),500,402677.799999997,402677.1999999881,397446.318,397458.299999997,397462.984,402691.381,8,400,1,,ISIC_1195689.JPG
break,html.Screen,4_50_1,2023-09-08T19:52:56.342Z,,0,,,NaN,,,,,,false,,,,402679.59999999404,402679.09999999404,,402678.39999999106,,402691.381,8,400,,,
break_continue,html.Screen,4_50_2,2023-09-08T19:52:56.343Z,,0,,,NaN,,,,,,false,,,,402680.59999999404,402680.1999999881,,402679.89999999106,,402691.381,8,400,,,
sequence,flow.Sequence,4_50,2023-09-08T19:52:56.344Z,,0,,,5217.215999988082,completion,,,,,false,,,,402681.09999999404,402680.1999999881,397446.318,397458.1999999881,397462.984,402691.381,8,400,,,
trial,html.Screen,4_51_0,2023-09-08T19:53:00.110Z,,0,2,,3756.119000000006,response,ISIC_0027130.JPG,5,ISIC_0067893.JPG,ISIC_0027130.JPG,false,1,keypress(m),500,406447.59999999404,406447.5,402674.959,402681.5,402691.381,406454.073,8,400,2,,ISIC_0067893.JPG
break,html.Screen,4_51_1,2023-09-08T19:53:00.111Z,,0,,,NaN,,,,,,false,,,,406448,406447.89999999106,,406447.6999999881,,406454.073,8,400,,,
break_continue,html.Screen,4_51_2,2023-09-08T19:53:00.111Z,,0,,,NaN,,,,,,false,,,,406448.299999997,406448.1999999881,,406448.1999999881,,406454.073,8,400,,,
sequence,flow.Sequence,4_51,2023-09-08T19:53:00.111Z,,0,,,3756.818999988085,completion,,,,,false,,,,406448.299999997,406448.1999999881,402674.959,402681.39999999106,402691.381,406454.073,8,400,,,
trial,html.Screen,4_52_0,2023-09-08T19:53:05.027Z,,0,2,,4909.626999988104,response,ISIC_0004140.JPG,6,ISIC_4659355.JPG,ISIC_0004140.JPG,false,1,keypress(m),500,411364.299999997,411363.6999999881,406437.779,406448.39999999106,406454.073,411399.34,8,400,3,,ISIC_4659355.JPG
break,html.Screen,4_52_1,2023-09-08T19:53:05.029Z,,0,,,NaN,,,,,,false,,,,411366.09999999404,411365.59999999404,,411364.6999999881,,411399.34,8,400,,,
break_continue,html.Screen,4_52_2,2023-09-08T19:53:05.030Z,,0,,,NaN,,,,,,false,,,,411367.299999997,411366.89999999106,,411366.5,,411399.34,8,400,,,
sequence,flow.Sequence,4_52,2023-09-08T19:53:05.031Z,,0,,,4912.826999991084,completion,,,,,false,,,,411368,411366.89999999106,406437.779,406448.39999999106,406454.073,411399.34,8,400,,,
trial,html.Screen,4_53_0,2023-09-08T19:53:08.506Z,,0,2,,3443.459999996994,response,ISIC_0033967.JPG,5,ISIC_5703909.JPG,ISIC_5703909.JPG,false,0,keypress(z),500,414843.39999999106,414842.799999997,411382.827,411368.299999997,411399.34,414863.081,8,400,4,,ISIC_0033967.JPG
break,html.Screen,4_53_1,2023-09-08T19:53:08.508Z,,0,,,NaN,,,,,,false,,,,414845.09999999404,414844.6999999881,,414843.89999999106,,414863.081,8,400,,,
break_continue,html.Screen,4_53_2,2023-09-08T19:53:08.509Z,,0,,,NaN,,,,,,false,,,,414846.1999999881,414845.799999997,,414845.5,,414863.081,8,400,,,
sequence,flow.Sequence,4_53,2023-09-08T19:53:08.509Z,,0,,,3446.459999996994,completion,,,,,false,,,,414846.6999999881,414845.799999997,411382.827,411368.299999997,411399.34,414863.081,8,400,,,
trial,html.Screen,4_54_0,2023-09-08T19:53:12.900Z,,0,2,,4373.318999991054,response,ISIC_0026081.JPG,5,ISIC_0033121.JPG,ISIC_0026081.JPG,false,1,keypress(m),500,419237,419236.39999999106,414829.685,414847,414863.081,419241.769,8,400,5,,ISIC_0033121.JPG
break,html.Screen,4_54_1,2023-09-08T19:53:12.901Z,,0,,,NaN,,,,,,false,,,,419238.799999997,419238.39999999106,,419237.59999999404,,419241.769,8,400,,,
break_continue,html.Screen,4_54_2,2023-09-08T19:53:12.902Z,,0,,,NaN,,,,,,false,,,,419239.799999997,419239.5,,419239.1999999881,,419241.769,8,400,,,
sequence,flow.Sequence,4_54,2023-09-08T19:53:12.903Z,,0,,,4376.418999999994,completion,,,,,false,,,,419240.1999999881,419239.5,414829.685,414846.89999999106,414863.081,419241.769,8,400,,,
trial,html.Screen,4_55_0,2023-09-08T19:53:16.219Z,,0,2,,3314.231000000029,response,ISIC_7889838.JPG,5,ISIC_3978280.JPG,ISIC_3978280.JPG,false,0,keypress(z),500,422556.5,422556,419225.429,419240.59999999404,419241.769,422571.849,8,400,6,,ISIC_7889838.JPG
break,html.Screen,4_55_1,2023-09-08T19:53:16.221Z,,0,,,NaN,,,,,,false,,,,422558.09999999404,422557.6999999881,,422556.89999999106,,422571.849,8,400,,,
break_continue,html.Screen,4_55_2,2023-09-08T19:53:16.222Z,,0,,,NaN,,,,,,false,,,,422558.89999999106,422558.59999999404,,422558.299999997,,422571.849,8,400,,,
sequence,flow.Sequence,4_55,2023-09-08T19:53:16.222Z,,0,,,3316.8309999940684,completion,,,,,false,,,,422559.299999997,422558.59999999404,419225.429,419240.5,419241.769,422571.849,8,400,,,
trial,html.Screen,4_56_0,2023-09-08T19:53:21.860Z,,0,2,,5624.450999997032,response,ISIC_5721677.JPG,5,ISIC_3428523.JPG,ISIC_5721677.JPG,false,1,keypress(m),500,428196.89999999106,428196.299999997,422555.187,422559.5,422571.849,428217.63,8,400,7,,ISIC_3428523.JPG
break,html.Screen,4_56_1,2023-09-08T19:53:21.861Z,,0,,,NaN,,,,,,false,,,,428198.6999999881,428198.299999997,,428197.5,,428217.63,8,400,,,
break_continue,html.Screen,4_56_2,2023-09-08T19:53:21.862Z,,0,,,NaN,,,,,,false,,,,428199.59999999404,428199.299999997,,428199,,428217.63,8,400,,,
sequence,flow.Sequence,4_56,2023-09-08T19:53:21.863Z,,0,,,5627.450999997032,completion,,,,,false,,,,428200.09999999404,428199.299999997,422555.187,422559.5,422571.849,428217.63,8,400,,,
trial,html.Screen,4_57_0,2023-09-08T19:53:28.891Z,,0,2,,7009.669999997015,response,ISIC_9193127.JPG,5,ISIC_6256797.JPG,ISIC_9193127.JPG,false,1,keypress(m),500,435227.89999999106,435227.299999997,428183.211,428200.5,428217.63,435242.691,8,400,8,,ISIC_6256797.JPG
break,html.Screen,4_57_1,2023-09-08T19:53:28.892Z,,0,,,NaN,,,,,,false,,,,435229.6999999881,435229.1999999881,,435228.39999999106,,435242.691,8,400,,,
break_continue,html.Screen,4_57_2,2023-09-08T19:53:28.893Z,,0,,,NaN,,,,,,false,,,,435230.59999999404,435230.299999997,,435230.09999999404,,435242.691,8,400,,,
sequence,flow.Sequence,4_57,2023-09-08T19:53:28.894Z,,0,,,7012.669999997015,completion,,,,,false,,,,435231.09999999404,435230.299999997,428183.211,428200.39999999106,428217.63,435242.691,8,400,,,
trial,html.Screen,4_58_0,2023-09-08T19:53:32.261Z,,0,2,,3355.2089999910677,response,ISIC_0060937.JPG,6,ISIC_0056425.JPG,ISIC_0056425.JPG,false,0,keypress(z),500,438598.5,438597.89999999106,435226.263,435231.5,435242.691,438606.155,8,400,9,,ISIC_0060937.JPG
break,html.Screen,4_58_1,2023-09-08T19:53:32.263Z,,0,,,NaN,,,,,,false,,,,438600.1999999881,438599.799999997,,438598.89999999106,,438606.155,8,400,,,
break_continue,html.Screen,4_58_2,2023-09-08T19:53:32.264Z,,0,,,NaN,,,,,,false,,,,438601.299999997,438601,,438600.59999999404,,438606.155,8,400,,,
sequence,flow.Sequence,4_58,2023-09-08T19:53:32.264Z,,0,,,3358.3090000000084,completion,,,,,false,,,,438601.6999999881,438601,435226.263,435231.39999999106,435242.691,438606.155,8,400,,,
trial,html.Screen,4_59_0,2023-09-08T19:53:37.356Z,,0,2,,5086.244999991031,response,ISIC_0064982.JPG,5,ISIC_3274493.JPG,ISIC_0064982.JPG,false,1,keypress(m),500,443692.89999999106,443692.39999999106,438589.54,438602.09999999404,438606.155,443701.141,8,400,10,,ISIC_3274493.JPG
break,html.Screen,4_59_1,2023-09-08T19:53:37.358Z,,0,,,NaN,,,,,,false,,,,443694.799999997,443694.299999997,,443693.5,,443701.141,8,400,,,
break_continue,html.Screen,4_59_2,2023-09-08T19:53:37.359Z,,0,,,NaN,,,,,,false,,,,443695.799999997,443695.39999999106,,443695.09999999404,,443701.141,8,400,,,
sequence,flow.Sequence,4_59,2023-09-08T19:53:37.359Z,,0,,,5089.244999991031,completion,,,,,false,,,,443696.5,443695.39999999106,438589.54,438602,438606.155,443701.141,8,400,,,
trial,html.Screen,4_60_0,2023-09-08T19:53:40.804Z,,0,2,,3439.8589999999967,response,ISIC_4326917.JPG,6,ISIC_7981097.JPG,ISIC_4326917.JPG,false,1,keypress(m),500,447141.59999999404,447141,443684.583,443697,443701.141,447147.733,8,400,11,,ISIC_7981097.JPG
break,html.Screen,4_60_1,2023-09-08T19:53:40.806Z,,0,,,NaN,,,,,,false,,,,447143.299999997,447142.89999999106,,447142.09999999404,,447147.733,8,400,,,
break_continue,html.Screen,4_60_2,2023-09-08T19:53:40.807Z,,0,,,NaN,,,,,,false,,,,447144.5,447144,,447143.799999997,,447147.733,8,400,,,
sequence,flow.Sequence,4_60,2023-09-08T19:53:40.808Z,,0,,,3442.8589999999967,completion,,,,,false,,,,447144.89999999106,447144,443684.583,443696.799999997,443701.141,447147.733,8,400,,,
trial,html.Screen,4_61_0,2023-09-08T19:53:44.475Z,,0,2,,3664.2669999999925,response,ISIC_3901421.JPG,5,ISIC_0046331.JPG,ISIC_0046331.JPG,false,0,keypress(z),500,450812.5,450812,447131.318,447145.299999997,447147.733,450827.434,8,400,12,,ISIC_3901421.JPG
break,html.Screen,4_61_1,2023-09-08T19:53:44.477Z,,0,,,NaN,,,,,,false,,,,450814.299999997,450813.89999999106,,450813.09999999404,,450827.434,8,400,,,
break_continue,html.Screen,4_61_2,2023-09-08T19:53:44.478Z,,0,,,NaN,,,,,,false,,,,450815.1999999881,450814.89999999106,,450814.6999999881,,450827.434,8,400,,,
sequence,flow.Sequence,4_61,2023-09-08T19:53:44.478Z,,0,,,3667.166999991052,completion,,,,,false,,,,450815.799999997,450814.89999999106,447131.318,447145.1999999881,447147.733,450827.434,8,400,,,
trial,html.Screen,4_62_0,2023-09-08T19:53:49.555Z,,0,2,,5063.965999991051,response,ISIC_4024062.JPG,6,ISIC_0563516.JPG,ISIC_4024062.JPG,false,1,keypress(m),500,455892,455891.39999999106,450810.885,450816.39999999106,450827.434,455905.72,8,400,13,,ISIC_0563516.JPG
break,html.Screen,4_62_1,2023-09-08T19:53:49.557Z,,0,,,NaN,,,,,,false,,,,455893.799999997,455893.299999997,,455892.5,,455905.72,8,400,,,
break_continue,html.Screen,4_62_2,2023-09-08T19:53:49.557Z,,0,,,NaN,,,,,,false,,,,455894.6999999881,455894.39999999106,,455894.1999999881,,455905.72,8,400,,,
sequence,flow.Sequence,4_62,2023-09-08T19:53:49.558Z,,0,,,5066.965999991051,completion,,,,,false,,,,455895.299999997,455894.39999999106,450810.885,450816.299999997,450827.434,455905.72,8,400,,,
trial,html.Screen,4_63_0,2023-09-08T19:53:54.522Z,,0,2,,4953.079999997048,response,ISIC_0024694.JPG,6,ISIC_0060559.JPG,ISIC_0060559.JPG,false,0,keypress(z),500,460859.299999997,460858.799999997,455889.433,455895.6999999881,455905.72,460884.139,8,400,14,,ISIC_0024694.JPG
break,html.Screen,4_63_1,2023-09-08T19:53:54.524Z,,0,,,NaN,,,,,,false,,,,460860.89999999106,460860.5,,460859.6999999881,,460884.139,8,400,,,
break_continue,html.Screen,4_63_2,2023-09-08T19:53:54.524Z,,0,,,NaN,,,,,,false,,,,460861.59999999404,460861.299999997,,460861.09999999404,,460884.139,8,400,,,
sequence,flow.Sequence,4_63,2023-09-08T19:53:54.525Z,,0,,,4955.579999997048,completion,,,,,false,,,,460862,460861.299999997,455889.433,455895.59999999404,455905.72,460884.139,8,400,,,
trial,html.Screen,4_64_0,2023-09-08T19:54:02.324Z,,0,2,,7776.560999988054,response,ISIC_0046422.JPG,5,ISIC_0026802.JPG,ISIC_0026802.JPG,false,0,keypress(z),500,468661.1999999881,468660.6999999881,460867.642,460862.39999999106,460884.139,468676.524,8,400,15,,ISIC_0046422.JPG
break,html.Screen,4_64_1,2023-09-08T19:54:02.326Z,,0,,,NaN,,,,,,false,,,,468663.09999999404,468662.6999999881,,468661.799999997,,468676.524,8,400,,,
break_continue,html.Screen,4_64_2,2023-09-08T19:54:02.327Z,,0,,,NaN,,,,,,false,,,,468664.09999999404,468663.799999997,,468663.5,,468676.524,8,400,,,
sequence,flow.Sequence,4_64,2023-09-08T19:54:02.327Z,,0,,,7779.660999996995,completion,,,,,false,,,,468664.6999999881,468663.799999997,460867.642,460862.299999997,460884.139,468676.524,8,400,,,
trial,html.Screen,4_65_0,2023-09-08T19:54:06.592Z,,0,2,,4252.075999994064,response,ISIC_5671175.JPG,4,ISIC_0014919.JPG,ISIC_0014919.JPG,false,0,keypress(z),500,472929.1999999881,472928.59999999404,468659.972,468665,468676.524,472939,8,400,16,,ISIC_5671175.JPG
break,html.Screen,4_65_1,2023-09-08T19:54:06.594Z,,0,,,NaN,,,,,,false,,,,472930.89999999106,472930.5,,472929.6999999881,,472939,8,400,,,
break_continue,html.Screen,4_65_2,2023-09-08T19:54:06.595Z,,0,,,NaN,,,,,,false,,,,472931.799999997,472931.59999999404,,472931.1999999881,,472939,8,400,,,
sequence,flow.Sequence,4_65,2023-09-08T19:54:06.595Z,,0,,,4255.075999994064,completion,,,,,false,,,,472932.299999997,472931.59999999404,468659.972,468664.89999999106,468676.524,472939,8,400,,,
trial,html.Screen,4_66_0,2023-09-08T19:54:11.095Z,,0,2,,4492.399999991059,response,ISIC_0010852.JPG,5,ISIC_5941314.JPG,ISIC_0010852.JPG,false,1,keypress(m),500,477432,477431.39999999106,472922.546,472932.799999997,472939,477451.46,8,400,17,,ISIC_5941314.JPG
break,html.Screen,4_66_1,2023-09-08T19:54:11.096Z,,0,,,NaN,,,,,,false,,,,477433.799999997,477433.299999997,,477432.59999999404,,477451.46,8,400,,,
break_continue,html.Screen,4_66_2,2023-09-08T19:54:11.097Z,,0,,,NaN,,,,,,false,,,,477434.59999999404,477434.39999999106,,477434,,477451.46,8,400,,,
sequence,flow.Sequence,4_66,2023-09-08T19:54:11.098Z,,0,,,4495.399999991059,completion,,,,,false,,,,477434.799999997,477434.39999999106,472922.546,472932.59999999404,472939,477451.46,8,400,,,
trial,html.Screen,4_67_0,2023-09-08T19:54:17.662Z,,0,2,,6547.139999994019,response,ISIC_0030423.JPG,5,ISIC_0067235.JPG,ISIC_0030423.JPG,false,1,keypress(m),500,483999.299999997,483998.59999999404,477418.062,477435,477451.46,484011.59,8,400,18,,ISIC_0067235.JPG
break,html.Screen,4_67_1,2023-09-08T19:54:17.664Z,,0,,,NaN,,,,,,false,,,,484001.09999999404,484000.59999999404,,483999.799999997,,484011.59,8,400,,,
break_continue,html.Screen,4_67_2,2023-09-08T19:54:17.665Z,,0,,,NaN,,,,,,false,,,,484002,484001.799999997,,484001.5,,484011.59,8,400,,,
sequence,flow.Sequence,4_67,2023-09-08T19:54:17.665Z,,0,,,6550.339999996999,completion,,,,,false,,,,484002.59999999404,484001.799999997,477418.062,477434.89999999106,477451.46,484011.59,8,400,,,
trial,html.Screen,4_68_0,2023-09-08T19:54:23.014Z,,0,2,,5338.909999999974,response,ISIC_1962845.JPG,6,ISIC_3430953.JPG,ISIC_1962845.JPG,false,1,keypress(m),500,489351,489350.5,483995.276,484003,484011.59,489356.336,8,400,19,,ISIC_3430953.JPG
break,html.Screen,4_68_1,2023-09-08T19:54:23.015Z,,0,,,NaN,,,,,,false,,,,489352.89999999106,489352.5,,489351.6999999881,,489356.336,8,400,,,
break_continue,html.Screen,4_68_2,2023-09-08T19:54:23.016Z,,0,,,NaN,,,,,,false,,,,489353.89999999106,489353.59999999404,,489353.299999997,,489356.336,8,400,,,
sequence,flow.Sequence,4_68,2023-09-08T19:54:23.017Z,,0,,,5342.009999994014,completion,,,,,false,,,,489354.39999999106,489353.59999999404,483995.276,484002.799999997,484011.59,489356.336,8,400,,,
trial,html.Screen,4_69_0,2023-09-08T19:54:26.740Z,,0,2,,3720.2639999940293,response,ISIC_9896801.JPG,6,ISIC_3981425.JPG,ISIC_3981425.JPG,false,0,keypress(z),500,493077.09999999404,493076.59999999404,489339.713,489354.799999997,489356.336,493085.995,8,400,20,,ISIC_9896801.JPG
break,html.Screen,4_69_1,2023-09-08T19:54:26.742Z,,0,,,NaN,,,,,,false,,,,493079,493078.5,,493077.6999999881,,493085.995,8,400,,,
break_continue,html.Screen,4_69_2,2023-09-08T19:54:26.743Z,,0,,,NaN,,,,,,false,,,,493080,493079.59999999404,,493079.39999999106,,493085.995,8,400,,,
sequence,flow.Sequence,4_69,2023-09-08T19:54:26.743Z,,0,,,3723.2639999940293,completion,,,,,false,,,,493080.59999999404,493079.59999999404,489339.713,489354.6999999881,489356.336,493085.995,8,400,,,
trial,html.Screen,4_70_0,2023-09-08T19:54:30.892Z,,0,2,,4142.505000000005,response,ISIC_6268546.JPG,5,ISIC_5005869.JPG,ISIC_6268546.JPG,false,1,keypress(m),500,497229,497228.5,493069.698,493080.89999999106,493085.995,497248.895,8,400,21,,ISIC_5005869.JPG
break,html.Screen,4_70_1,2023-09-08T19:54:30.893Z,,0,,,NaN,,,,,,false,,,,497230.799999997,497230.39999999106,,497229.5,,497248.895,8,400,,,
break_continue,html.Screen,4_70_2,2023-09-08T19:54:30.894Z,,0,,,NaN,,,,,,false,,,,497231.89999999106,497231.5,,497231.1999999881,,497248.895,8,400,,,
sequence,flow.Sequence,4_70,2023-09-08T19:54:30.895Z,,0,,,4145.505000000005,completion,,,,,false,,,,497232.39999999106,497231.5,493069.698,493080.6999999881,493085.995,497248.895,8,400,,,
trial,html.Screen,4_71_0,2023-09-08T19:54:32.920Z,,0,2,,2008.4049999970011,response,ISIC_0073156.JPG,5,ISIC_0963536.JPG,ISIC_0073156.JPG,false,1,keypress(m),500,499257.6999999881,499257.299999997,497215.544,497232.59999999404,497248.895,499279.789,8,400,22,,ISIC_0963536.JPG
break,html.Screen,4_71_1,2023-09-08T19:54:32.921Z,,0,,,NaN,,,,,,false,,,,499258.6999999881,499258.5,,499258,,499279.789,8,400,,,
break_continue,html.Screen,4_71_2,2023-09-08T19:54:32.922Z,,0,,,NaN,,,,,,false,,,,499259.39999999106,499259.09999999404,,499258.89999999106,,499279.789,8,400,,,
sequence,flow.Sequence,4_71,2023-09-08T19:54:32.922Z,,0,,,2010.204999994021,completion,,,,,false,,,,499259.59999999404,499259.09999999404,497215.544,497232.5,497248.895,499279.789,8,400,,,
trial,html.Screen,4_72_0,2023-09-08T19:54:34.942Z,,0,2,,1999.1109999910695,response,ISIC_8789051.JPG,6,ISIC_8397077.JPG,ISIC_8789051.JPG,false,1,keypress(m),500,501279.39999999106,501278.89999999106,499263.177,499259.799999997,499279.789,501294.68,8,400,23,,ISIC_8397077.JPG
break,html.Screen,4_72_1,2023-09-08T19:54:34.944Z,,0,,,NaN,,,,,,false,,,,501281.39999999106,501281,,501280.09999999404,,501294.68,8,400,,,
break_continue,html.Screen,4_72_2,2023-09-08T19:54:34.945Z,,0,,,NaN,,,,,,false,,,,501282.39999999106,501282.09999999404,,501281.6999999881,,501294.68,8,400,,,
sequence,flow.Sequence,4_72,2023-09-08T19:54:34.945Z,,0,,,2002.3109999940498,completion,,,,,false,,,,501282.89999999106,501282.09999999404,499263.177,499259.6999999881,499279.789,501294.68,8,400,,,
trial,html.Screen,4_73_0,2023-09-08T19:54:40.214Z,,0,2,,5256.619999997027,response,ISIC_7145788.JPG,5,ISIC_3009564.JPG,ISIC_3009564.JPG,false,0,keypress(z),500,506551.799999997,506551.299999997,501278.07,501283.299999997,501294.68,506556.1,8,400,24,,ISIC_7145788.JPG
break,html.Screen,4_73_1,2023-09-08T19:54:40.216Z,,0,,,NaN,,,,,,false,,,,506553.5,506553,,506552.299999997,,506556.1,8,400,,,
break_continue,html.Screen,4_73_2,2023-09-08T19:54:40.217Z,,0,,,NaN,,,,,,false,,,,506554.299999997,506554,,506553.6999999881,,506556.1,8,400,,,
sequence,flow.Sequence,4_73,2023-09-08T19:54:40.217Z,,0,,,5259.320000000007,completion,,,,,false,,,,506554.6999999881,506554,501278.07,501283.1999999881,501294.68,506556.1,8,400,,,
trial,html.Screen,4_74_0,2023-09-08T19:54:45.363Z,,0,2,,5143.900000000023,response,ISIC_0010772.JPG,5,ISIC_0057328.JPG,ISIC_0010772.JPG,false,1,keypress(m),500,511700.59999999404,511700,506539.467,506554.89999999106,506556.1,511717.649,8,400,25,,ISIC_0057328.JPG
break,html.Screen,4_74_1,2023-09-08T19:54:45.365Z,,0,,,NaN,,,,,,false,,,,511702.6999999881,511702.1999999881,,511701.39999999106,,511717.649,8,400,,,
break_continue,html.Screen,4_74_2,2023-09-08T19:54:45.366Z,,0,,,NaN,,,,,,false,,,,511703.89999999106,511703.5,,511703,,511717.649,8,400,,,
sequence,flow.Sequence,4_74,2023-09-08T19:54:45.367Z,,0,,,5147.400000000023,completion,,,,,false,,,,511704.39999999106,511703.5,506539.467,506554.89999999106,506556.1,511717.649,8,400,,,
trial,html.Screen,4_75_0,2023-09-08T19:54:48.492Z,,0,2,,3111.7509999910835,response,ISIC_0032357.JPG,6,ISIC_3590814.JPG,ISIC_3590814.JPG,false,0,keypress(z),500,514830,514829.39999999106,511701.34,511704.799999997,511717.649,514847.89,8,400,26,,ISIC_0032357.JPG
break,html.Screen,4_75_1,2023-09-08T19:54:48.494Z,,0,,,NaN,,,,,,false,,,,514831.799999997,514831.39999999106,,514830.5,,514847.89,8,400,,,
break_continue,html.Screen,4_75_2,2023-09-08T19:54:48.495Z,,0,,,NaN,,,,,,false,,,,514832.799999997,514832.5,,514832.1999999881,,514847.89,8,400,,,
sequence,flow.Sequence,4_75,2023-09-08T19:54:48.496Z,,0,,,3114.851000000024,completion,,,,,false,,,,514833.299999997,514832.5,511701.34,511704.6999999881,511717.649,514847.89,8,400,,,
trial,html.Screen,4_76_0,2023-09-08T19:54:52.646Z,,0,2,,4135.209999994026,response,ISIC_0172020.JPG,5,ISIC_8378321.JPG,ISIC_8378321.JPG,false,0,keypress(z),500,518983.6999999881,518983.09999999404,514831.528,514833.6999999881,514847.89,518993.896,8,400,27,,ISIC_0172020.JPG
break,html.Screen,4_76_1,2023-09-08T19:54:52.648Z,,0,,,NaN,,,,,,false,,,,518985.59999999404,518985.1999999881,,518984.299999997,,518993.896,8,400,,,
break_continue,html.Screen,4_76_2,2023-09-08T19:54:52.649Z,,0,,,NaN,,,,,,false,,,,518986.6999999881,518986.39999999106,,518986,,518993.896,8,400,,,
sequence,flow.Sequence,4_76,2023-09-08T19:54:52.650Z,,0,,,4138.509999991045,completion,,,,,false,,,,518987.1999999881,518986.39999999106,514831.528,514833.59999999404,514847.89,518993.896,8,400,,,
trial,html.Screen,4_77_0,2023-09-08T19:54:57.757Z,,0,2,,5100.303999988071,response,ISIC_0054025.JPG,4,ISIC_0011099.JPG,ISIC_0011099.JPG,false,0,keypress(z),500,524094.89999999106,524094.1999999881,518977.369,518987.5,518993.896,524105.537,8,400,28,,ISIC_0054025.JPG
break,html.Screen,4_77_1,2023-09-08T19:54:57.759Z,,0,,,NaN,,,,,,false,,,,524096.799999997,524096.1999999881,,524095.39999999106,,524105.537,8,400,,,
break_continue,html.Screen,4_77_2,2023-09-08T19:54:57.760Z,,0,,,NaN,,,,,,false,,,,524097.799999997,524097.39999999106,,524097.09999999404,,524105.537,8,400,,,
sequence,flow.Sequence,4_77,2023-09-08T19:54:57.761Z,,0,,,5103.503999991051,completion,,,,,false,,,,524098.299999997,524097.39999999106,518977.369,518987.5,518993.896,524105.537,8,400,,,
trial,html.Screen,4_78_0,2023-09-08T19:55:01.958Z,,0,2,,4189.462999999989,response,ISIC_0063961.JPG,5,ISIC_7728263.JPG,ISIC_0063961.JPG,false,1,keypress(m),500,528295.5,528295,524088.987,524098.6999999881,524105.537,528301.427,8,400,29,,ISIC_7728263.JPG
break,html.Screen,4_78_1,2023-09-08T19:55:01.960Z,,0,,,NaN,,,,,,false,,,,528297.299999997,528296.799999997,,528296.099999994,,528301.427,8,400,,,
break_continue,html.Screen,4_78_2,2023-09-08T19:55:01.961Z,,0,,,NaN,,,,,,false,,,,528298.1999999881,528297.8999999911,,528297.5,,528301.427,8,400,,,
sequence,flow.Sequence,4_78,2023-09-08T19:55:01.961Z,,0,,,4192.362999991048,completion,,,,,false,,,,528298.599999994,528297.8999999911,524088.987,524098.5,524105.537,528301.427,8,400,,,
trial,html.Screen,4_79_0,2023-09-08T19:55:05.277Z,,0,2,,3312.072999999975,response,ISIC_5679004.JPG,5,ISIC_0032680.JPG,ISIC_0032680.JPG,false,0,keypress(z),500,531614,531613.5,528284.751,528299,528301.427,531631.461,8,400,30,,ISIC_5679004.JPG
break,html.Screen,4_79_1,2023-09-08T19:55:05.278Z,,0,,,NaN,,,,,,false,,,,531616,531615.5,,531614.599999994,,531631.461,8,400,,,
break_continue,html.Screen,4_79_2,2023-09-08T19:55:05.280Z,,0,,,NaN,,,,,,false,,,,531617.099999994,531616.799999997,,531616.3999999911,,531631.461,8,400,,,
sequence,flow.Sequence,4_79,2023-09-08T19:55:05.280Z,,0,,,3315.3729999969946,completion,,,,,false,,,,531617.599999994,531616.799999997,528284.751,528298.8999999911,528301.427,531631.461,8,400,,,
trial,html.Screen,4_80_0,2023-09-08T19:55:09.844Z,,0,2,,4549.738999988069,response,ISIC_3209501.JPG,5,ISIC_0862745.JPG,ISIC_3209501.JPG,false,1,keypress(m),500,536181.799999997,536181.1999999881,531615.279,531617.8999999911,531631.461,536193.596,8,400,31,,ISIC_0862745.JPG
break,html.Screen,4_80_1,2023-09-08T19:55:09.846Z,,0,,,NaN,,,,,,false,,,,536183.5,536183,,536182.299999997,,536193.596,8,400,,,
break_continue,html.Screen,4_80_2,2023-09-08T19:55:09.847Z,,0,,,NaN,,,,,,false,,,,536184.5,536184.1999999881,,536183.799999997,,536193.596,8,400,,,
sequence,flow.Sequence,4_80,2023-09-08T19:55:09.847Z,,0,,,4552.738999988069,completion,,,,,false,,,,536184.8999999911,536184.1999999881,531615.279,531617.799999997,531631.461,536193.596,8,400,,,
trial,html.Screen,4_81_0,2023-09-08T19:55:13.596Z,,0,2,,3739.50399999402,response,ISIC_8492957.JPG,5,ISIC_0069891.JPG,ISIC_8492957.JPG,false,1,keypress(m),500,539933.599999994,539933.099999994,536177.148,536185.299999997,536193.596,539940.028,8,400,32,,ISIC_0069891.JPG
break,html.Screen,4_81_1,2023-09-08T19:55:13.598Z,,0,,,NaN,,,,,,false,,,,539935.099999994,539934.6999999881,,539934.099999994,,539940.028,8,400,,,
break_continue,html.Screen,4_81_2,2023-09-08T19:55:13.599Z,,0,,,NaN,,,,,,false,,,,539936,539935.6999999881,,539935.3999999911,,539940.028,8,400,,,
sequence,flow.Sequence,4_81,2023-09-08T19:55:13.599Z,,0,,,3742.1039999880595,completion,,,,,false,,,,539936.3999999911,539935.6999999881,536177.148,536185.1999999881,536193.596,539940.028,8,400,,,
trial,html.Screen,4_82_0,2023-09-08T19:55:17.046Z,,0,2,,3442.37199999101,response,ISIC_6162545.JPG,5,ISIC_8799674.JPG,ISIC_6162545.JPG,false,1,keypress(m),500,543383,543382.3999999911,539923.742,539936.799999997,539940.028,543386.626,8,400,33,,ISIC_8799674.JPG
break,html.Screen,4_82_1,2023-09-08T19:55:17.047Z,,0,,,NaN,,,,,,false,,,,543384.799999997,543384.1999999881,,543383.5,,543386.626,8,400,,,
break_continue,html.Screen,4_82_2,2023-09-08T19:55:17.048Z,,0,,,NaN,,,,,,false,,,,543385.599999994,543385.3999999911,,543385.099999994,,543386.626,8,400,,,
sequence,flow.Sequence,4_82,2023-09-08T19:55:17.049Z,,0,,,3445.37199999101,completion,,,,,false,,,,543386.1999999881,543385.3999999911,539923.742,539936.6999999881,539940.028,543386.626,8,400,,,
trial,html.Screen,4_83_0,2023-09-08T19:55:24.541Z,,0,2,,7491.573999988032,response,ISIC_0033578.JPG,5,ISIC_0012057.JPG,ISIC_0012057.JPG,false,0,keypress(z),500,550878.6999999881,550878.1999999881,543370.049,543386.5,543386.626,550895.9,8,400,34,,ISIC_0033578.JPG
break,html.Screen,4_83_1,2023-09-08T19:55:24.543Z,,0,,,NaN,,,,,,false,,,,550880.5,550880,,550879.1999999881,,550895.9,8,400,,,
break_continue,html.Screen,4_83_2,2023-09-08T19:55:24.544Z,,0,,,NaN,,,,,,false,,,,550881.3999999911,550881.099999994,,550880.799999997,,550895.9,8,400,,,
sequence,flow.Sequence,4_83,2023-09-08T19:55:24.544Z,,0,,,7494.473999993992,completion,,,,,false,,,,550881.799999997,550881.099999994,543370.049,543386.3999999911,543386.626,550895.9,8,400,,,
trial,html.Screen,4_84_0,2023-09-08T19:55:31.652Z,,0,2,,7093.199999994016,response,ISIC_4296456.JPG,5,ISIC_5486460.JPG,ISIC_5486460.JPG,false,0,keypress(z),500,557989.6999999881,557989.099999994,550879.531,550882.1999999881,550895.9,558005.573,8,400,35,,ISIC_4296456.JPG
break,html.Screen,4_84_1,2023-09-08T19:55:31.654Z,,0,,,NaN,,,,,,false,,,,557991.3999999911,557990.799999997,,557990.099999994,,558005.573,8,400,,,
break_continue,html.Screen,4_84_2,2023-09-08T19:55:31.655Z,,0,,,NaN,,,,,,false,,,,557992.3999999911,557992,,557991.6999999881,,558005.573,8,400,,,
sequence,flow.Sequence,4_84,2023-09-08T19:55:31.655Z,,0,,,7096.099999999977,completion,,,,,false,,,,557992.799999997,557992,550879.531,550882.099999994,550895.9,558005.573,8,400,,,
trial,html.Screen,4_85_0,2023-09-08T19:55:34.847Z,,0,2,,3178.626999988104,response,ISIC_6966230.JPG,6,ISIC_0011176.JPG,ISIC_0011176.JPG,false,0,keypress(z),500,561184.6999999881,561184.1999999881,557988.846,557993.1999999881,558005.573,561202.489,8,400,36,,ISIC_6966230.JPG
break,html.Screen,4_85_1,2023-09-08T19:55:34.849Z,,0,,,NaN,,,,,,false,,,,561186.3999999911,561186,,561185.1999999881,,561202.489,8,400,,,
break_continue,html.Screen,4_85_2,2023-09-08T19:55:34.850Z,,0,,,NaN,,,,,,false,,,,561187.3999999911,561187,,561186.799999997,,561202.489,8,400,,,
sequence,flow.Sequence,4_85,2023-09-08T19:55:34.850Z,,0,,,3181.427000000025,completion,,,,,false,,,,561187.8999999911,561187,557988.846,557993.099999994,558005.573,561202.489,8,400,,,
trial,html.Screen,4_86_0,2023-09-08T19:55:39.785Z,,0,2,,4919.310999997077,response,ISIC_0062223.JPG,5,ISIC_0061371.JPG,ISIC_0062223.JPG,false,1,keypress(m),500,566122.3999999911,566121.799999997,561186.12,561188.1999999881,561202.489,566131.013,8,400,37,,ISIC_0061371.JPG
break,html.Screen,4_86_1,2023-09-08T19:55:39.787Z,,0,,,NaN,,,,,,false,,,,566124.099999994,566123.799999997,,566122.8999999911,,566131.013,8,400,,,
break_continue,html.Screen,4_86_2,2023-09-08T19:55:39.788Z,,0,,,NaN,,,,,,false,,,,566125.1999999881,566124.799999997,,566124.599999994,,566131.013,8,400,,,
sequence,flow.Sequence,4_86,2023-09-08T19:55:39.788Z,,0,,,4922.310999997077,completion,,,,,false,,,,566125.799999997,566124.799999997,561186.12,561188.099999994,561202.489,566131.013,8,400,,,
trial,html.Screen,4_87_0,2023-09-08T19:55:43.825Z,,0,2,,4030.7869999969844,response,ISIC_9088774.JPG,5,ISIC_1894133.JPG,ISIC_1894133.JPG,false,0,keypress(z),500,570162.3999999911,570161.799999997,566114.541,566126.1999999881,566131.013,570176.91,8,400,38,,ISIC_9088774.JPG
break,html.Screen,4_87_1,2023-09-08T19:55:43.827Z,,0,,,NaN,,,,,,false,,,,570164.099999994,570163.599999994,,570162.8999999911,,570176.91,8,400,,,
break_continue,html.Screen,4_87_2,2023-09-08T19:55:43.828Z,,0,,,NaN,,,,,,false,,,,570165.299999997,570165,,570164.5,,570176.91,8,400,,,
sequence,flow.Sequence,4_87,2023-09-08T19:55:43.828Z,,0,,,4033.9869999999646,completion,,,,,false,,,,570165.6999999881,570165,566114.541,566126,566131.013,570176.91,8,400,,,
trial,html.Screen,4_88_0,2023-09-08T19:55:46.906Z,,0,2,,3065.889999996987,response,ISIC_0029898.JPG,6,ISIC_1477056.JPG,ISIC_0029898.JPG,false,1,keypress(m),500,573243.299999997,573242.799999997,570160.759,570166,570176.91,573270.883,8,400,39,,ISIC_1477056.JPG
break,html.Screen,4_88_1,2023-09-08T19:55:46.908Z,,0,,,NaN,,,,,,false,,,,573245.099999994,573244.599999994,,573243.799999997,,573270.883,8,400,,,
break_continue,html.Screen,4_88_2,2023-09-08T19:55:46.909Z,,0,,,NaN,,,,,,false,,,,573246.099999994,573245.799999997,,573245.3999999911,,573270.883,8,400,,,
sequence,flow.Sequence,4_88,2023-09-08T19:55:46.909Z,,0,,,3068.889999996987,completion,,,,,false,,,,573246.5,573245.799999997,570160.759,570166,570176.91,573270.883,8,400,,,
trial,html.Screen,4_89_0,2023-09-08T19:55:50.487Z,,0,2,,3552.716999994009,response,ISIC_0008952.JPG,6,ISIC_0067012.JPG,ISIC_0067012.JPG,false,0,keypress(z),500,576824.6999999881,576823.599999994,573240.747,573246.8999999911,573270.883,576837.108,8,400,40,,ISIC_0008952.JPG
break,html.Screen,4_89_1,2023-09-08T19:55:50.489Z,,0,,,NaN,,,,,,false,,,,576826.799999997,576826.099999994,,576825.3999999911,,576837.108,8,400,,,
break_continue,html.Screen,4_89_2,2023-09-08T19:55:50.490Z,,0,,,NaN,,,,,,false,,,,576827.799999997,576827.3999999911,,576827.099999994,,576837.108,8,400,,,
sequence,flow.Sequence,4_89,2023-09-08T19:55:50.491Z,,0,,,3556.5169999910286,completion,,,,,false,,,,576828.299999997,576827.3999999911,573240.747,573246.799999997,573270.883,576837.108,8,400,,,
trial,html.Screen,4_90_0,2023-09-08T19:55:54.609Z,,0,2,,4108.991999994032,response,ISIC_1877535.JPG,5,ISIC_0033616.JPG,ISIC_1877535.JPG,false,1,keypress(m),500,580946.6999999881,580946.099999994,576820.824,576828.799999997,576837.108,580949.729,8,400,41,,ISIC_0033616.JPG
break,html.Screen,4_90_1,2023-09-08T19:55:54.611Z,,0,,,NaN,,,,,,false,,,,580948.1999999881,580947.799999997,,580947,,580949.729,8,400,,,
break_continue,html.Screen,4_90_2,2023-09-08T19:55:54.612Z,,0,,,NaN,,,,,,false,,,,580949.099999994,580948.799999997,,580948.5,,580949.729,8,400,,,
sequence,flow.Sequence,4_90,2023-09-08T19:55:54.612Z,,0,,,4111.691999997012,completion,,,,,false,,,,580949.599999994,580948.799999997,576820.824,576828.599999994,576837.108,580949.729,8,400,,,
trial,html.Screen,4_91_0,2023-09-08T19:55:59.112Z,,0,2,,4499.0709999969695,response,ISIC_5157775.JPG,6,ISIC_5675703.JPG,ISIC_5675703.JPG,false,0,keypress(z),500,585449.3999999911,585448.799999997,580933.332,580950,580949.729,585461.992,8,400,42,,ISIC_5157775.JPG
break,html.Screen,4_91_1,2023-09-08T19:55:59.114Z,,0,,,NaN,,,,,,false,,,,585451.099999994,585450.6999999881,,585449.799999997,,585461.992,8,400,,,
break_continue,html.Screen,4_91_2,2023-09-08T19:55:59.115Z,,0,,,NaN,,,,,,false,,,,585452.099999994,585451.799999997,,585451.3999999911,,585461.992,8,400,,,
sequence,flow.Sequence,4_91,2023-09-08T19:55:59.115Z,,0,,,4502.0709999969695,completion,,,,,false,,,,585452.599999994,585451.799999997,580933.332,580949.799999997,580949.729,585461.992,8,400,,,
trial,html.Screen,4_92_0,2023-09-08T19:56:05.763Z,,0,2,,6638.10799999407,response,ISIC_0026208.JPG,5,ISIC_5964676.JPG,ISIC_0026208.JPG,false,1,keypress(m),500,592100.6999999881,592100.099999994,585445.547,585452.8999999911,585461.992,592105.472,8,400,43,,ISIC_5964676.JPG
break,html.Screen,4_92_1,2023-09-08T19:56:05.765Z,,0,,,NaN,,,,,,false,,,,592102.5,592102.099999994,,592101.299999997,,592105.472,8,400,,,
break_continue,html.Screen,4_92_2,2023-09-08T19:56:05.766Z,,0,,,NaN,,,,,,false,,,,592103.599999994,592103.299999997,,592102.8999999911,,592105.472,8,400,,,
sequence,flow.Sequence,4_92,2023-09-08T19:56:05.767Z,,0,,,6641.3079999970505,completion,,,,,false,,,,592104.099999994,592103.299999997,585445.547,585452.799999997,585461.992,592105.472,8,400,,,
trial,html.Screen,4_93_0,2023-09-08T19:56:16.587Z,,0,2,,10818.127999994089,response,ISIC_0025379.JPG,5,ISIC_0007749.JPG,ISIC_0025379.JPG,false,1,keypress(m),500,602924.099999994,602923.599999994,592089.081,592104.5,592105.472,602928.153,8,400,44,,ISIC_0007749.JPG
break,html.Screen,4_93_1,2023-09-08T19:56:16.589Z,,0,,,NaN,,,,,,false,,,,602926.099999994,602925.3999999911,,602924.6999999881,,602928.153,8,400,,,
break_continue,html.Screen,4_93_2,2023-09-08T19:56:16.590Z,,0,,,NaN,,,,,,false,,,,602927.3999999911,602927,,602926.599999994,,602928.153,8,400,,,
sequence,flow.Sequence,4_93,2023-09-08T19:56:16.590Z,,0,,,10821.52800000005,completion,,,,,false,,,,602928,602927,592089.081,592104.3999999911,592105.472,602928.153,8,400,,,
trial,html.Screen,4_94_0,2023-09-08T19:56:19.909Z,,0,2,,3317.5469999880297,response,ISIC_3313701.JPG,5,ISIC_0063190.JPG,ISIC_0063190.JPG,false,0,keypress(z),500,606246.1999999881,606245.6999999881,602911.869,602930.099999994,602928.153,606258.197,8,400,45,,ISIC_3313701.JPG
break,html.Screen,4_94_1,2023-09-08T19:56:19.911Z,,0,,,NaN,,,,,,false,,,,606248,606247.5,,606246.799999997,,606258.197,8,400,,,
break_continue,html.Screen,4_94_2,2023-09-08T19:56:19.911Z,,0,,,NaN,,,,,,false,,,,606249,606248.6999999881,,606248.3999999911,,606258.197,8,400,,,
sequence,flow.Sequence,4_94,2023-09-08T19:56:19.912Z,,0,,,3320.5469999880297,completion,,,,,false,,,,606249.5,606248.6999999881,602911.869,602930,602928.153,606258.197,8,400,,,
trial,html.Screen,4_95_0,2023-09-08T19:56:24.844Z,,0,2,,4922.502999988035,response,ISIC_0067397.JPG,5,ISIC_7694069.JPG,ISIC_0067397.JPG,false,1,keypress(m),500,611181.299999997,611180.6999999881,606241.63,606249.799999997,606258.197,611186.761,8,400,46,,ISIC_7694069.JPG
break,html.Screen,4_95_1,2023-09-08T19:56:24.846Z,,0,,,NaN,,,,,,false,,,,611183,611182.599999994,,611181.799999997,,611186.761,8,400,,,
break_continue,html.Screen,4_95_2,2023-09-08T19:56:24.846Z,,0,,,NaN,,,,,,false,,,,611184,611183.599999994,,611183.299999997,,611186.761,8,400,,,
sequence,flow.Sequence,4_95,2023-09-08T19:56:24.847Z,,0,,,4925.402999993996,completion,,,,,false,,,,611184.3999999911,611183.599999994,606241.63,606249.6999999881,606258.197,611186.761,8,400,,,
trial,html.Screen,4_96_0,2023-09-08T19:56:28.570Z,,0,2,,3720.038999996963,response,ISIC_3529778.JPG,5,ISIC_0070217.JPG,ISIC_3529778.JPG,false,1,keypress(m),500,614907.3999999911,614906.799999997,611170.296,611184.799999997,611186.761,614916.441,8,400,47,,ISIC_0070217.JPG
break,html.Screen,4_96_1,2023-09-08T19:56:28.572Z,,0,,,NaN,,,,,,false,,,,614909.1999999881,614908.6999999881,,614907.8999999911,,614916.441,8,400,,,
break_continue,html.Screen,4_96_2,2023-09-08T19:56:28.573Z,,0,,,NaN,,,,,,false,,,,614910.099999994,614909.799999997,,614909.5,,614916.441,8,400,,,
sequence,flow.Sequence,4_96,2023-09-08T19:56:28.573Z,,0,,,3723.038999996963,completion,,,,,false,,,,614910.599999994,614909.799999997,611170.296,611184.6999999881,611186.761,614916.441,8,400,,,
trial,html.Screen,4_97_0,2023-09-08T19:56:32.082Z,,0,2,,3502.158999994048,response,ISIC_9588065.JPG,5,ISIC_2634356.JPG,ISIC_9588065.JPG,false,1,keypress(m),500,618419.099999994,618418.599999994,614899.88,614910.8999999911,614916.441,618429.554,8,400,48,,ISIC_2634356.JPG
break,html.Screen,4_97_1,2023-09-08T19:56:32.083Z,,0,,,NaN,,,,,,false,,,,618420.8999999911,618420.3999999911,,618419.599999994,,618429.554,8,400,,,
break_continue,html.Screen,4_97_2,2023-09-08T19:56:32.084Z,,0,,,NaN,,,,,,false,,,,618421.799999997,618421.5,,618421.1999999881,,618429.554,8,400,,,
sequence,flow.Sequence,4_97,2023-09-08T19:56:32.085Z,,0,,,3505.0590000000084,completion,,,,,false,,,,618422.1999999881,618421.5,614899.88,614910.799999997,614916.441,618429.554,8,400,,,
trial,html.Screen,4_98_0,2023-09-08T19:56:35.769Z,,0,2,,3676.045999994036,response,ISIC_0029150.JPG,5,ISIC_0029163.JPG,ISIC_0029163.JPG,false,0,keypress(z),500,622106.099999994,622105.599999994,618413.244,618422.599999994,618429.554,622126.91,8,400,49,,ISIC_0029150.JPG
break,html.Screen,4_98_1,2023-09-08T19:56:35.771Z,,0,,,NaN,,,,,,false,,,,622108.1999999881,622107.6999999881,,622106.8999999911,,622126.91,8,400,,,
break_continue,html.Screen,4_98_2,2023-09-08T19:56:35.772Z,,0,,,NaN,,,,,,false,,,,622109.3999999911,622109.099999994,,622108.599999994,,622126.91,8,400,,,
sequence,flow.Sequence,4_98,2023-09-08T19:56:35.772Z,,0,,,3679.545999994036,completion,,,,,false,,,,622109.8999999911,622109.099999994,618413.244,618422.5,618429.554,622126.91,8,400,,,
trial,html.Screen,4_99_0,2023-09-08T19:56:46.056Z,,0,2,,10265.889999996987,response,ISIC_0059041.JPG,5,ISIC_0011095.JPG,ISIC_0011095.JPG,false,0,keypress(z),500,632393.3999999911,632392.799999997,622092.8,622110.299999997,622126.91,632399.139,8,400,50,,ISIC_0059041.JPG
break,html.Screen,4_99_1,2023-09-08T19:56:56.053Z,,0,,,10007.097000000067,timeout,,,,,false,,,,642390.5,642389.517,632382.94,632394,632399.139,642406.236,8,400,,,
break_continue,html.Screen,4_99_2,2023-09-08T19:57:00.387Z,,0,,,4305.9639999880455,response,,,,,false,continue,keypress(Space),,646724.299999997,646712.1999999881,642389.517,642390.599999994,642406.236,646734.981,8,400,,,
sequence,flow.Sequence,4_99,2023-09-08T19:57:00.387Z,,0,,,24585.289999988046,completion,,,,,false,,,,646724.3999999911,646712.1999999881,622092.8,622110.1999999881,622126.91,646734.981,8,400,,,
trial,html.Screen,4_100_0,2023-09-08T19:57:07.643Z,,0,3,,7244.618999994011,response,ISIC_9086288.JPG,5,ISIC_0008724.JPG,ISIC_9086288.JPG,false,1,keypress(m),500,653980.099999994,653979.599999994,646718.484,646724.5,646734.981,653994.686,8,400,1,,ISIC_0008724.JPG
break,html.Screen,4_100_1,2023-09-08T19:57:07.644Z,,0,,,NaN,,,,,,false,,,,653981.8999999911,653981.5,,653980.6999999881,,653994.686,8,400,,,
break_continue,html.Screen,4_100_2,2023-09-08T19:57:07.645Z,,0,,,NaN,,,,,,false,,,,653982.8999999911,653982.5,,653982.1999999881,,653994.686,8,400,,,
sequence,flow.Sequence,4_100,2023-09-08T19:57:07.646Z,,0,,,7247.518999999971,completion,,,,,false,,,,653983.299999997,653982.5,646718.484,646724.3999999911,646734.981,653994.686,8,400,,,
trial,html.Screen,4_101_0,2023-09-08T19:57:13.186Z,,0,3,,5528.113999997033,response,ISIC_7236842.JPG,5,ISIC_6253295.JPG,ISIC_6253295.JPG,false,0,keypress(z),500,659523.3999999911,659522.799999997,653978.253,653983.6999999881,653994.686,659539.292,8,400,2,,ISIC_7236842.JPG
break,html.Screen,4_101_1,2023-09-08T19:57:13.188Z,,0,,,NaN,,,,,,false,,,,659525.099999994,659524.6999999881,,659523.8999999911,,659539.292,8,400,,,
break_continue,html.Screen,4_101_2,2023-09-08T19:57:13.189Z,,0,,,NaN,,,,,,false,,,,659526.099999994,659525.799999997,,659525.3999999911,,659539.292,8,400,,,
sequence,flow.Sequence,4_101,2023-09-08T19:57:13.189Z,,0,,,5531.113999997033,completion,,,,,false,,,,659526.599999994,659525.799999997,653978.253,653983.599999994,653994.686,659539.292,8,400,,,
trial,html.Screen,4_102_0,2023-09-08T19:57:16.607Z,,0,3,,3404.1079999910435,response,ISIC_7206167.JPG,6,ISIC_4226975.JPG,ISIC_4226975.JPG,false,0,keypress(z),500,662944,662943.3999999911,659522.875,659526.8999999911,659539.292,662952.515,8,400,3,,ISIC_7206167.JPG
break,html.Screen,4_102_1,2023-09-08T19:57:16.608Z,,0,,,NaN,,,,,,false,,,,662945.799999997,662945.299999997,,662944.5,,662952.515,8,400,,,
break_continue,html.Screen,4_102_2,2023-09-08T19:57:16.609Z,,0,,,NaN,,,,,,false,,,,662946.6999999881,662946.3999999911,,662946.099999994,,662952.515,8,400,,,
sequence,flow.Sequence,4_102,2023-09-08T19:57:16.610Z,,0,,,3407.1079999910435,completion,,,,,false,,,,662947.1999999881,662946.3999999911,659522.875,659526.799999997,659539.292,662952.515,8,400,,,
trial,html.Screen,4_103_0,2023-09-08T19:57:21.990Z,,0,3,,5373.784999997006,response,ISIC_9799596.JPG,6,ISIC_0033512.JPG,ISIC_0033512.JPG,false,0,keypress(z),500,668327,668326.299999997,662936.024,662947.599999994,662952.515,668330.639,8,400,4,,ISIC_9799596.JPG
break,html.Screen,4_103_1,2023-09-08T19:57:21.991Z,,0,,,NaN,,,,,,false,,,,668328.799999997,668328.299999997,,668327.5,,668330.639,8,400,,,
break_continue,html.Screen,4_103_2,2023-09-08T19:57:21.992Z,,0,,,NaN,,,,,,false,,,,668329.799999997,668329.3999999911,,668329.099999994,,668330.639,8,400,,,
sequence,flow.Sequence,4_103,2023-09-08T19:57:21.993Z,,0,,,5376.884999991045,completion,,,,,false,,,,668330.1999999881,668329.3999999911,662936.024,662947.5,662952.515,668330.639,8,400,,,
trial,html.Screen,4_104_0,2023-09-08T19:57:26.893Z,,0,3,,4898.8610000000335,response,ISIC_4137545.JPG,5,ISIC_0010807.JPG,ISIC_0010807.JPG,false,0,keypress(z),500,673230.099999994,673229.5,668314.093,668330.599999994,668330.639,673242.456,8,400,5,,ISIC_4137545.JPG
break,html.Screen,4_104_1,2023-09-08T19:57:26.894Z,,0,,,NaN,,,,,,false,,,,673231.8999999911,673231.3999999911,,673230.599999994,,673242.456,8,400,,,
break_continue,html.Screen,4_104_2,2023-09-08T19:57:26.896Z,,0,,,NaN,,,,,,false,,,,673233,673232.599999994,,673232.299999997,,673242.456,8,400,,,
sequence,flow.Sequence,4_104,2023-09-08T19:57:26.896Z,,0,,,4901.960999994073,completion,,,,,false,,,,673233.599999994,673232.599999994,668314.093,668330.5,668330.639,673242.456,8,400,,,
trial,html.Screen,4_105_0,2023-09-08T19:57:30.740Z,,0,3,,3834.343999997014,response,ISIC_0024779.JPG,6,ISIC_5202231.JPG,ISIC_5202231.JPG,false,0,keypress(z),500,677077.3999999911,677076.799999997,673225.951,673233.8999999911,673242.456,677088.666,8,400,6,,ISIC_0024779.JPG
break,html.Screen,4_105_1,2023-09-08T19:57:30.742Z,,0,,,NaN,,,,,,false,,,,677079,677078.599999994,,677077.799999997,,677088.666,8,400,,,
break_continue,html.Screen,4_105_2,2023-09-08T19:57:30.743Z,,0,,,NaN,,,,,,false,,,,677080,677079.6999999881,,677079.3999999911,,677088.666,8,400,,,
sequence,flow.Sequence,4_105,2023-09-08T19:57:30.743Z,,0,,,3837.2439999880735,completion,,,,,false,,,,677080.5,677079.6999999881,673225.951,673233.8999999911,673242.456,677088.666,8,400,,,
trial,html.Screen,4_106_0,2023-09-08T19:57:34.382Z,,0,3,,3630.3340000000317,response,ISIC_9622250.JPG,6,ISIC_0033804.JPG,ISIC_0033804.JPG,false,0,keypress(z),500,680719.599999994,680719,677072.233,677080.799999997,677088.666,680735.162,8,400,7,,ISIC_9622250.JPG
break,html.Screen,4_106_1,2023-09-08T19:57:34.384Z,,0,,,NaN,,,,,,false,,,,680721.299999997,680720.799999997,,680720,,680735.162,8,400,,,
break_continue,html.Screen,4_106_2,2023-09-08T19:57:34.385Z,,0,,,NaN,,,,,,false,,,,680722.1999999881,680722,,680721.599999994,,680735.162,8,400,,,
sequence,flow.Sequence,4_106,2023-09-08T19:57:34.385Z,,0,,,3633.3340000000317,completion,,,,,false,,,,680722.6999999881,680722,677072.233,677080.6999999881,677088.666,680735.162,8,400,,,
trial,html.Screen,4_107_0,2023-09-08T19:57:37.787Z,,0,3,,3388.9379999940284,response,ISIC_0058047.JPG,5,ISIC_4649440.JPG,ISIC_0058047.JPG,false,1,keypress(m),500,684124.599999994,684124.099999994,680718.75,680723.099999994,680735.162,684131.823,8,400,8,,ISIC_4649440.JPG
break,html.Screen,4_107_1,2023-09-08T19:57:37.789Z,,0,,,NaN,,,,,,false,,,,684126.599999994,684126.099999994,,684125.1999999881,,684131.823,8,400,,,
break_continue,html.Screen,4_107_2,2023-09-08T19:57:37.790Z,,0,,,NaN,,,,,,false,,,,684127.599999994,684127.1999999881,,684127,,684131.823,8,400,,,
sequence,flow.Sequence,4_107,2023-09-08T19:57:37.791Z,,0,,,3392.037999988068,completion,,,,,false,,,,684128.099999994,684127.1999999881,680718.75,680723,680735.162,684131.823,8,400,,,
trial,html.Screen,4_108_0,2023-09-08T19:57:41.378Z,,0,3,,3583.177000000025,response,ISIC_0014809.JPG,5,ISIC_0026915.JPG,ISIC_0014809.JPG,false,1,keypress(m),500,687715.6999999881,687715,684115.323,684128.3999999911,684131.823,687728.225,8,400,9,,ISIC_0026915.JPG
break,html.Screen,4_108_1,2023-09-08T19:57:41.380Z,,0,,,NaN,,,,,,false,,,,687717.5,687717,,687716.1999999881,,687728.225,8,400,,,
break_continue,html.Screen,4_108_2,2023-09-08T19:57:41.381Z,,0,,,NaN,,,,,,false,,,,687718.5,687718.099999994,,687717.799999997,,687728.225,8,400,,,
sequence,flow.Sequence,4_108,2023-09-08T19:57:41.381Z,,0,,,3586.2769999940647,completion,,,,,false,,,,687718.8999999911,687718.099999994,684115.323,684128.299999997,684131.823,687728.225,8,400,,,
trial,html.Screen,4_109_0,2023-09-08T19:57:45.881Z,,0,3,,4490.074999997043,response,ISIC_3653492.JPG,5,ISIC_0000462.JPG,ISIC_0000462.JPG,false,0,keypress(z),500,692218.8999999911,692218.299999997,687711.725,687719.099999994,687728.225,692223.81,8,400,10,,ISIC_3653492.JPG
break,html.Screen,4_109_1,2023-09-08T19:57:45.883Z,,0,,,NaN,,,,,,false,,,,692220.6999999881,692220.1999999881,,692219.3999999911,,692223.81,8,400,,,
break_continue,html.Screen,4_109_2,2023-09-08T19:57:45.884Z,,0,,,NaN,,,,,,false,,,,692221.799999997,692221.5,,692221.1999999881,,692223.81,8,400,,,
sequence,flow.Sequence,4_109,2023-09-08T19:57:45.885Z,,0,,,4493.275000000023,completion,,,,,false,,,,692222.3999999911,692221.5,687711.725,687719,687728.225,692223.81,8,400,,,
trial,html.Screen,4_110_0,2023-09-08T19:57:51.752Z,,0,3,,5865.289999993984,response,ISIC_0028746.JPG,6,ISIC_2316159.JPG,ISIC_0028746.JPG,false,1,keypress(m),500,698089.6999999881,698089.099999994,692207.432,692222.6999999881,692223.81,698101.36,8,400,11,,ISIC_2316159.JPG
break,html.Screen,4_110_1,2023-09-08T19:57:51.754Z,,0,,,NaN,,,,,,false,,,,698091.3999999911,698090.8999999911,,698090.099999994,,698101.36,8,400,,,
break_continue,html.Screen,4_110_2,2023-09-08T19:57:51.755Z,,0,,,NaN,,,,,,false,,,,698092.3999999911,698092,,698091.6999999881,,698101.36,8,400,,,
sequence,flow.Sequence,4_110,2023-09-08T19:57:51.755Z,,0,,,5868.189999999944,completion,,,,,false,,,,698092.799999997,698092,692207.432,692222.599999994,692223.81,698101.36,8,400,,,
trial,html.Screen,4_111_0,2023-09-08T19:58:03.256Z,,0,3,,11522.34600000002,timeout,ISIC_0010316.JPG,6,ISIC_2779787.JPG,,false,,,500,709593,709592.3999999911,698084.701,698093.099999994,698101.36,709623.706,8,400,12,,
break,html.Screen,4_111_1,2023-09-08T19:58:03.257Z,,0,,,NaN,,,,,,false,,,,709594.3999999911,709594,,709593.3999999911,,709623.706,8,400,,,
break_continue,html.Screen,4_111_2,2023-09-08T19:58:03.258Z,,0,,,NaN,,,,,,false,,,,709595.3999999911,709595,,709594.799999997,,709623.706,8,400,,,
sequence,flow.Sequence,4_111,2023-09-08T19:58:03.258Z,,0,,,11493.640000000014,completion,,,,,false,,,,709595.6999999881,709595,698084.701,698093.099999994,698101.36,709623.706,8,400,,,
trial,html.Screen,4_112_0,2023-09-08T19:58:07.941Z,,0,3,,4653.893999994034,response,ISIC_2839431.JPG,5,ISIC_0061475.JPG,ISIC_0061475.JPG,false,0,keypress(z),500,714278.5,714277.599999994,709606.829,709596.099999994,709623.706,714285.565,8,400,13,,ISIC_2839431.JPG
break,html.Screen,4_112_1,2023-09-08T19:58:07.943Z,,0,,,NaN,,,,,,false,,,,714280.299999997,714279.799999997,,714279,,714285.565,8,400,,,
break_continue,html.Screen,4_112_2,2023-09-08T19:58:07.944Z,,0,,,NaN,,,,,,false,,,,714281.1999999881,714280.8999999911,,714280.599999994,,714285.565,8,400,,,
sequence,flow.Sequence,4_112,2023-09-08T19:58:07.944Z,,0,,,4657.193999991054,completion,,,,,false,,,,714281.6999999881,714280.8999999911,709606.829,709596,709623.706,714285.565,8,400,,,
trial,html.Screen,4_113_0,2023-09-08T19:58:13.901Z,,0,3,,5952.734999997076,response,ISIC_0004789.JPG,5,ISIC_5476277.JPG,ISIC_0004789.JPG,false,1,keypress(m),500,720238.8999999911,720238.299999997,714269.786,714281.8999999911,714285.565,720246.425,8,400,14,,ISIC_5476277.JPG
break,html.Screen,4_113_1,2023-09-08T19:58:13.903Z,,0,,,NaN,,,,,,false,,,,720240.6999999881,720240.1999999881,,720239.3999999911,,720246.425,8,400,,,
break_continue,html.Screen,4_113_2,2023-09-08T19:58:13.904Z,,0,,,NaN,,,,,,false,,,,720241.5,720241.1999999881,,720240.8999999911,,720246.425,8,400,,,
sequence,flow.Sequence,4_113,2023-09-08T19:58:13.905Z,,0,,,5955.634999988135,completion,,,,,false,,,,720242,720241.1999999881,714269.786,714281.8999999911,714285.565,720246.425,8,400,,,
trial,html.Screen,4_114_0,2023-09-08T19:58:18.485Z,,0,3,,4575.2749999880325,response,ISIC_0061803.JPG,5,ISIC_8412096.JPG,ISIC_0061803.JPG,false,1,keypress(m),500,724822.299999997,724821.6999999881,720230.051,720242.3999999911,720246.425,724842.728,8,400,15,,ISIC_8412096.JPG
break,html.Screen,4_114_1,2023-09-08T19:58:18.487Z,,0,,,NaN,,,,,,false,,,,724824.299999997,724823.799999997,,724822.799999997,,724842.728,8,400,,,
break_continue,html.Screen,4_114_2,2023-09-08T19:58:18.488Z,,0,,,NaN,,,,,,false,,,,724825.299999997,724824.8999999911,,724824.6999999881,,724842.728,8,400,,,
sequence,flow.Sequence,4_114,2023-09-08T19:58:18.488Z,,0,,,4578.474999991013,completion,,,,,false,,,,724825.799999997,724824.8999999911,720230.051,720242.299999997,720246.425,724842.728,8,400,,,
trial,html.Screen,4_115_0,2023-09-08T19:58:21.933Z,,0,3,,3427.1719999910565,response,ISIC_0028181.JPG,5,ISIC_0011493.JPG,ISIC_0011493.JPG,false,0,keypress(z),500,728270.5,728269.8999999911,724808.477,724826.1999999881,724842.728,728288.486,8,400,16,,ISIC_0028181.JPG
break,html.Screen,4_115_1,2023-09-08T19:58:21.935Z,,0,,,NaN,,,,,,false,,,,728272.299999997,728271.8999999911,,728271,,728288.486,8,400,,,
break_continue,html.Screen,4_115_2,2023-09-08T19:58:21.936Z,,0,,,NaN,,,,,,false,,,,728273.299999997,728272.8999999911,,728272.599999994,,728288.486,8,400,,,
sequence,flow.Sequence,4_115,2023-09-08T19:58:21.936Z,,0,,,3430.1719999910565,completion,,,,,false,,,,728273.799999997,728272.8999999911,724808.477,724826.099999994,724842.728,728288.486,8,400,,,
trial,html.Screen,4_116_0,2023-09-08T19:58:25.385Z,,0,3,,3433.2139999880455,response,ISIC_7137995.JPG,6,ISIC_5376036.JPG,ISIC_5376036.JPG,false,0,keypress(z),500,731722.299999997,731721.6999999881,728271.754,728274.099999994,728288.486,731735.103,8,400,17,,ISIC_7137995.JPG
break,html.Screen,4_116_1,2023-09-08T19:58:25.387Z,,0,,,NaN,,,,,,false,,,,731724.1999999881,731723.6999999881,,731722.799999997,,731735.103,8,400,,,
break_continue,html.Screen,4_116_2,2023-09-08T19:58:25.388Z,,0,,,NaN,,,,,,false,,,,731725.099999994,731724.799999997,,731724.599999994,,731735.103,8,400,,,
sequence,flow.Sequence,4_116,2023-09-08T19:58:25.388Z,,0,,,3436.3139999969862,completion,,,,,false,,,,731725.6999999881,731724.799999997,728271.754,728274.099999994,728288.486,731735.103,8,400,,,
trial,html.Screen,4_117_0,2023-09-08T19:58:29.216Z,,0,3,,3818.4969999940367,response,ISIC_2030997.JPG,5,ISIC_0025218.JPG,ISIC_2030997.JPG,false,1,keypress(m),500,735553.8999999911,735553.599999994,731718.713,731726,731735.103,735564.627,8,400,18,,ISIC_0025218.JPG
break,html.Screen,4_117_1,2023-09-08T19:58:29.218Z,,0,,,NaN,,,,,,false,,,,735555.5,735555,,735554.099999994,,735564.627,8,400,,,
break_continue,html.Screen,4_117_2,2023-09-08T19:58:29.219Z,,0,,,NaN,,,,,,false,,,,735556.299999997,735555.8999999911,,735555.6999999881,,735564.627,8,400,,,
sequence,flow.Sequence,4_117,2023-09-08T19:58:29.219Z,,0,,,3820.7969999910565,completion,,,,,false,,,,735556.6999999881,735555.8999999911,731718.713,731726,731735.103,735564.627,8,400,,,
trial,html.Screen,4_118_0,2023-09-08T19:58:32.647Z,,0,3,,3419.5729999881005,response,ISIC_2147549.JPG,5,ISIC_0011698.JPG,ISIC_0011698.JPG,false,0,keypress(z),500,738984.799999997,738984.1999999881,735548.482,735557,735564.627,738994.616,8,400,19,,ISIC_2147549.JPG
break,html.Screen,4_118_1,2023-09-08T19:58:32.649Z,,0,,,NaN,,,,,,false,,,,738986.599999994,738986.1999999881,,738985.299999997,,738994.616,8,400,,,
break_continue,html.Screen,4_118_2,2023-09-08T19:58:32.650Z,,0,,,NaN,,,,,,false,,,,738987.799999997,738987.5,,738987.099999994,,738994.616,8,400,,,
sequence,flow.Sequence,4_118,2023-09-08T19:58:32.651Z,,0,,,3422.8730000000214,completion,,,,,false,,,,738988.299999997,738987.5,735548.482,735556.799999997,735564.627,738994.616,8,400,,,
trial,html.Screen,4_119_0,2023-09-08T19:58:44.148Z,,0,3,,11522.069999999949,timeout,ISIC_8637134.JPG,4,ISIC_0024737.JPG,,false,,,500,750485.6999999881,750485.099999994,738978.064,738988.6999999881,738994.616,750516.686,8,400,20,,
break,html.Screen,4_119_1,2023-09-08T19:58:44.150Z,,0,,,NaN,,,,,,false,,,,750487.3999999911,750486.8999999911,,750486.099999994,,750516.686,8,400,,,
break_continue,html.Screen,4_119_2,2023-09-08T19:58:44.151Z,,0,,,NaN,,,,,,false,,,,750488.299999997,750488,,750487.6999999881,,750516.686,8,400,,,
sequence,flow.Sequence,4_119,2023-09-08T19:58:44.151Z,,0,,,11493.383999999962,completion,,,,,false,,,,750488.799999997,750488,738978.064,738988.599999994,738994.616,750516.686,8,400,,,
trial,html.Screen,4_120_0,2023-09-08T19:58:48.203Z,,0,3,,4023.7139999910723,response,ISIC_0062468.JPG,5,ISIC_0060589.JPG,ISIC_0062468.JPG,false,1,keypress(m),500,754540.8999999911,754540.3999999911,750500.02,750489,750516.686,754546.074,8,400,21,,ISIC_0060589.JPG
break,html.Screen,4_120_1,2023-09-08T19:58:48.205Z,,0,,,NaN,,,,,,false,,,,754542.3999999911,754542.099999994,,754541.299999997,,754546.074,8,400,,,
break_continue,html.Screen,4_120_2,2023-09-08T19:58:48.206Z,,0,,,NaN,,,,,,false,,,,754543.299999997,754542.8999999911,,754542.799999997,,754546.074,8,400,,,
sequence,flow.Sequence,4_120,2023-09-08T19:58:48.206Z,,0,,,4026.2139999910723,completion,,,,,false,,,,754543.6999999881,754542.8999999911,750500.02,750489,750516.686,754546.074,8,400,,,
trial,html.Screen,4_121_0,2023-09-08T19:58:51.444Z,,0,3,,3235.325999991037,response,ISIC_7824688.JPG,6,ISIC_0946923.JPG,ISIC_7824688.JPG,false,1,keypress(m),500,757781.8999999911,757781.3999999911,754530.429,754544,754546.074,757792.838,8,400,22,,ISIC_0946923.JPG
break,html.Screen,4_121_1,2023-09-08T19:58:51.446Z,,0,,,NaN,,,,,,false,,,,757783.1999999881,757782.799999997,,757782.099999994,,757792.838,8,400,,,
break_continue,html.Screen,4_121_2,2023-09-08T19:58:51.447Z,,0,,,NaN,,,,,,false,,,,757784.1999999881,757783.799999997,,757783.5,,757792.838,8,400,,,
sequence,flow.Sequence,4_121,2023-09-08T19:58:51.447Z,,0,,,3237.7259999969974,completion,,,,,false,,,,757784.5,757783.799999997,754530.429,754543.8999999911,754546.074,757792.838,8,400,,,
trial,html.Screen,4_122_0,2023-09-08T19:58:55.614Z,,0,3,,4157.761999994051,response,ISIC_6289346.JPG,5,ISIC_0000024.JPG,ISIC_0000024.JPG,false,0,keypress(z),500,761951.1999999881,761950.599999994,757776.781,757784.6999999881,757792.838,761955.416,8,400,23,,ISIC_6289346.JPG
break,html.Screen,4_122_1,2023-09-08T19:58:55.616Z,,0,,,NaN,,,,,,false,,,,761953.099999994,761952.599999994,,761951.6999999881,,761955.416,8,400,,,
break_continue,html.Screen,4_122_2,2023-09-08T19:58:55.617Z,,0,,,NaN,,,,,,false,,,,761954.1999999881,761953.8999999911,,761953.5,,761955.416,8,400,,,
sequence,flow.Sequence,4_122,2023-09-08T19:58:55.617Z,,0,,,4161.0619999910705,completion,,,,,false,,,,761954.799999997,761953.8999999911,757776.781,757784.599999994,757792.838,761955.416,8,400,,,
trial,html.Screen,4_123_0,2023-09-08T19:58:59.350Z,,0,3,,3731.7839999881107,response,ISIC_0029606.JPG,5,ISIC_0070822.JPG,ISIC_0070822.JPG,false,0,keypress(z),500,765687.6999999881,765687.1999999881,761938.733,761955.1999999881,761955.416,765701.706,8,400,24,,ISIC_0029606.JPG
break,html.Screen,4_123_1,2023-09-08T19:58:59.352Z,,0,,,NaN,,,,,,false,,,,765689.099999994,765688.799999997,,765688.099999994,,765701.706,8,400,,,
break_continue,html.Screen,4_123_2,2023-09-08T19:58:59.352Z,,0,,,NaN,,,,,,false,,,,765690,765689.6999999881,,765689.3999999911,,765701.706,8,400,,,
sequence,flow.Sequence,4_123,2023-09-08T19:58:59.353Z,,0,,,3734.2839999881107,completion,,,,,false,,,,765690.3999999911,765689.6999999881,761938.733,761955.099999994,761955.416,765701.706,8,400,,,
trial,html.Screen,4_124_0,2023-09-08T19:59:02.941Z,,0,3,,3575.9939999880735,response,ISIC_2449919.JPG,4,ISIC_3342474.JPG,ISIC_3342474.JPG,false,0,keypress(z),500,769278.299999997,769277.6999999881,765685.32,765690.6999999881,765701.706,769299.706,8,400,25,,ISIC_2449919.JPG
break,html.Screen,4_124_1,2023-09-08T19:59:02.942Z,,0,,,NaN,,,,,,false,,,,769280,769279.599999994,,769278.799999997,,769299.706,8,400,,,
break_continue,html.Screen,4_124_2,2023-09-08T19:59:02.943Z,,0,,,NaN,,,,,,false,,,,769281,769280.6999999881,,769280.3999999911,,769299.706,8,400,,,
sequence,flow.Sequence,4_124,2023-09-08T19:59:02.944Z,,0,,,3578.9939999880735,completion,,,,,false,,,,769281.5,769280.6999999881,765685.32,765690.599999994,765701.706,769299.706,8,400,,,
trial,html.Screen,4_125_0,2023-09-08T19:59:06.664Z,,0,3,,3701.6939999910537,response,ISIC_7008969.JPG,5,ISIC_8124900.JPG,ISIC_7008969.JPG,false,1,keypress(m),500,773002,773001.3999999911,769265.161,769281.799999997,769299.706,773011.226,8,400,26,,ISIC_8124900.JPG
break,html.Screen,4_125_1,2023-09-08T19:59:06.666Z,,0,,,NaN,,,,,,false,,,,773003.799999997,773003.3999999911,,773002.599999994,,773011.226,8,400,,,
break_continue,html.Screen,4_125_2,2023-09-08T19:59:06.667Z,,0,,,NaN,,,,,,false,,,,773004.799999997,773004.5,,773004.1999999881,,773011.226,8,400,,,
sequence,flow.Sequence,4_125,2023-09-08T19:59:06.668Z,,0,,,3704.7939999999944,completion,,,,,false,,,,773005.299999997,773004.5,769265.161,769281.799999997,769299.706,773011.226,8,400,,,
trial,html.Screen,4_126_0,2023-09-08T19:59:10.982Z,,0,3,,4307.573999996996,response,ISIC_1611503.JPG,5,ISIC_4220326.JPG,ISIC_1611503.JPG,false,1,keypress(m),500,777319.3999999911,777318.799999997,772994.711,773005.5,773011.226,777323.728,8,400,27,,ISIC_4220326.JPG
break,html.Screen,4_126_1,2023-09-08T19:59:10.984Z,,0,,,NaN,,,,,,false,,,,777321.099999994,777320.599999994,,777319.8999999911,,777323.728,8,400,,,
