sender,sender_type,sender_id,timestamp,meta,,blockNo,condition,duration,ended_on,img_left,img_reveal,img_right,loser,practice,response,response_action,selection_duration,time_commit,time_end,time_render,time_run,time_show,time_switch,total_blocks,total_trials,trialNo,url,winner
informed_consent,html.Screen,0,2023-09-08T18:43:20.659Z,"{""labjs_version"":""20.2.4"",""labjs_build"":{""flavor"":""production"",""commit"":""f5b4a49f956347addd546a832a3327688c2c0fef""},""location"":""https://run.pavlovia.org/MurrayBennett/melanoma-2afc/?participant=5ef8e0fc2ce3c6644665e347&STUDY_ID=64f8c92207ba404bcb356c90&SESSION_ID=64fb6b28bfefa03355d2ff83&platform=prolific"",""userAgent"":""Mozilla/5.0 (Windows NT 10.0; Win64; x64; rv:109.0) Gecko/20100101 Firefox/117.0"",""platform"":""Win32"",""language"":""en-US"",""locale"":""en-US"",""timeZone"":""America/Los_Angeles"",""timezoneOffset"":420,""screen_width"":1536,""screen_height"":864,""scroll_width"":1536,""scroll_height"":691,""window_innerWidth"":1536,""window_innerHeight"":739,""devicePixelRatio"":1.25}",,,,3472.64,response,,,,,,consent,click button,,7000,6986,3496.7,3489,3513.36,7012.3,,,,"{""participant"":""5ef8e0fc2ce3c6644665e347"",""STUDY_ID"":""64f8c92207ba404bcb356c90"",""SESSION_ID"":""64fb6b28bfefa03355d2ff83"",""platform"":""prolific""}",
Welcome,html.Screen,1,2023-09-08T18:43:42.513Z,,,,colourful,21834.7,response,,,,,,continue,click button,,28853,28847,6999.16,7001,7012.3,28854.82,,,,,
trial,html.Screen,2_0_0,2023-09-08T18:43:45.658Z,,0,0,,3143.1800000000003,response,ISIC_0063388.JPG,,ISIC_0025593.JPG,ISIC_0025593.JPG,true,0,keypress(z),500,31998,31998,28851.24,28854,28854.82,32000.58,1,6,1,,ISIC_0063388.JPG
sequence,flow.Sequence,2_0,2023-09-08T18:43:45.659Z,,0,,,3143.1800000000003,completion,,,,,true,,,,31999,31998,28851.24,28854,28854.82,32000.58,1,6,,,
trial,html.Screen,2_1_0,2023-09-08T18:43:48.712Z,,0,0,,3051.4199999999983,response,ISIC_0028178.JPG,,ISIC_1309015.JPG,ISIC_1309015.JPG,true,0,keypress(z),500,35053,35052,31999.88,32000,32000.58,35054.44,1,6,2,,ISIC_0028178.JPG
sequence,flow.Sequence,2_1,2023-09-08T18:43:48.713Z,,0,,,3051.4199999999983,completion,,,,,true,,,,35053,35052,31999.88,31999,32000.58,35054.44,1,6,,,
trial,html.Screen,2_2_0,2023-09-08T18:43:51.579Z,,0,0,,2864.5599999999977,response,ISIC_3314853.JPG,,ISIC_0031128.JPG,ISIC_3314853.JPG,true,1,keypress(m),500,37920,37919,35053.78,35054,35054.44,37921.4,1,6,3,,ISIC_0031128.JPG
sequence,flow.Sequence,2_2,2023-09-08T18:43:51.579Z,,0,,,2864.5599999999977,completion,,,,,true,,,,37920,37919,35053.78,35054,35054.44,37921.4,1,6,,,
trial,html.Screen,2_3_0,2023-09-08T18:43:54.587Z,,0,0,,3004.5999999999985,response,ISIC_8980141.JPG,,ISIC_0031612.JPG,ISIC_8980141.JPG,true,1,keypress(m),500,40927,40926,37920.68,37921,37921.4,40928.54,1,6,4,,ISIC_0031612.JPG
sequence,flow.Sequence,2_3,2023-09-08T18:43:54.587Z,,0,,,3004.5999999999985,completion,,,,,true,,,,40928,40926,37920.68,37921,37921.4,40928.54,1,6,,,
trial,html.Screen,2_4_0,2023-09-08T18:43:57.467Z,,0,0,,2878.459999999999,response,ISIC_1197737.JPG,,ISIC_9721604.JPG,ISIC_9721604.JPG,true,0,keypress(z),500,43807,43807,40927.86,40928,40928.54,43808.84,1,6,5,,ISIC_1197737.JPG
sequence,flow.Sequence,2_4,2023-09-08T18:43:57.467Z,,0,,,2878.459999999999,completion,,,,,true,,,,43808,43807,40927.86,40928,40928.54,43808.84,1,6,,,
trial,html.Screen,2_5_0,2023-09-08T18:44:00.613Z,,0,0,,3144.1600000000035,response,ISIC_0010681.JPG,,ISIC_0025346.JPG,ISIC_0025346.JPG,true,0,keypress(z),500,46953,46953,43808.3,43808,43808.84,46954.94,1,6,6,,ISIC_0010681.JPG
sequence,flow.Sequence,2_5,2023-09-08T18:44:00.613Z,,0,,,3144.1600000000035,completion,,,,,true,,,,46954,46953,43808.3,43808,43808.84,46954.94,1,6,,,
loop,flow.Loop,2,2023-09-08T18:44:00.614Z,,,,,18098.18,completion,,,,,true,,,,46954,46953,28851.24,28854,28854.82,46954.94,1,6,,,
exp_instructions,html.Screen,3,2023-09-08T18:44:10.579Z,,,,,9953.059999999998,response,,,,,,continue,keypress(Space),,56918,56908,46954.22,46954,46954.94,56919.54,,,,,
trial,html.Screen,4_0_0,2023-09-08T18:44:14.178Z,,0,1,,3598.459999999999,response,ISIC_0061184.JPG,0,ISIC_3728352.JPG,ISIC_3728352.JPG,false,0,keypress(z),500,60519,60518,56918.98,56919,56919.54,60519.42,8,400,1,,ISIC_0061184.JPG
break,html.Screen,4_0_1,2023-09-08T18:44:14.180Z,,0,,,NaN,,,,,,false,,,,60520,60519,,60519,,60519.42,8,400,,,
break_continue,html.Screen,4_0_2,2023-09-08T18:44:14.181Z,,0,,,NaN,,,,,,false,,,,60521,60520,,60520,,60519.42,8,400,,,
sequence,flow.Sequence,4_0,2023-09-08T18:44:14.182Z,,0,,,3600.459999999999,completion,,,,,false,,,,60521,60520,56918.98,56919,56919.54,60519.42,8,400,,,
trial,html.Screen,4_1_0,2023-09-08T18:44:20.234Z,,0,1,,6054.580000000002,response,ISIC_0026198.JPG,13,ISIC_1805921.JPG,ISIC_1805921.JPG,false,0,keypress(z),500,66574,66574,60518.7,60522,60519.42,66574.58,8,400,2,,ISIC_0026198.JPG
break,html.Screen,4_1_1,2023-09-08T18:44:20.234Z,,0,,,NaN,,,,,,false,,,,66574,66574,,66574,,66574.58,8,400,,,
break_continue,html.Screen,4_1_2,2023-09-08T18:44:20.236Z,,0,,,NaN,,,,,,false,,,,66576,66576,,66576,,66574.58,8,400,,,
sequence,flow.Sequence,4_1,2023-09-08T18:44:20.236Z,,0,,,6056.580000000002,completion,,,,,false,,,,66577,66576,60518.7,60522,60519.42,66574.58,8,400,,,
trial,html.Screen,4_2_0,2023-09-08T18:44:23.781Z,,0,1,,3546.4199999999983,response,ISIC_1607865.JPG,12,ISIC_0029150.JPG,ISIC_0029150.JPG,false,0,keypress(z),500,70122,70121,66573.86,66577,66574.58,70124.26,8,400,3,,ISIC_1607865.JPG
break,html.Screen,4_2_1,2023-09-08T18:44:23.783Z,,0,,,NaN,,,,,,false,,,,70123,70123,,70122,,70124.26,8,400,,,
break_continue,html.Screen,4_2_2,2023-09-08T18:44:23.783Z,,0,,,NaN,,,,,,false,,,,70124,70124,,70124,,70124.26,8,400,,,
sequence,flow.Sequence,4_2,2023-09-08T18:44:23.784Z,,0,,,3549.4199999999983,completion,,,,,false,,,,70124,70124,66573.86,66577,66574.58,70124.26,8,400,,,
trial,html.Screen,4_3_0,2023-09-08T18:44:26.857Z,,0,1,,3071.7400000000052,response,ISIC_0027102.JPG,19,ISIC_3750329.JPG,ISIC_3750329.JPG,false,0,keypress(z),500,73196,73196,70121.88,70124,70124.26,73197.52,8,400,4,,ISIC_0027102.JPG
break,html.Screen,4_3_1,2023-09-08T18:44:26.857Z,,0,,,NaN,,,,,,false,,,,73197,73197,,73197,,73197.52,8,400,,,
break_continue,html.Screen,4_3_2,2023-09-08T18:44:26.858Z,,0,,,NaN,,,,,,false,,,,73198,73197,,73197,,73197.52,8,400,,,
sequence,flow.Sequence,4_3,2023-09-08T18:44:26.858Z,,0,,,3072.7400000000052,completion,,,,,false,,,,73198,73197,70121.88,70124,70124.26,73197.52,8,400,,,
trial,html.Screen,4_4_0,2023-09-08T18:44:30.111Z,,0,1,,3251.479999999996,response,ISIC_8679617.JPG,1,ISIC_5396394.JPG,ISIC_8679617.JPG,false,1,keypress(m),500,76452,76449,73197.1,73198,73197.52,76472.04,8,400,5,,ISIC_5396394.JPG
break,html.Screen,4_4_1,2023-09-08T18:44:30.114Z,,0,,,NaN,,,,,,false,,,,76454,76454,,76453,,76472.04,8,400,,,
break_continue,html.Screen,4_4_2,2023-09-08T18:44:30.114Z,,0,,,NaN,,,,,,false,,,,76455,76454,,76454,,76472.04,8,400,,,
sequence,flow.Sequence,4_4,2023-09-08T18:44:30.115Z,,0,,,3256.479999999996,completion,,,,,false,,,,76455,76454,73197.1,73198,73197.52,76472.04,8,400,,,
trial,html.Screen,4_5_0,2023-09-08T18:44:33.188Z,,0,1,,3055.9600000000064,response,ISIC_5247383.JPG,17,ISIC_0027072.JPG,ISIC_5247383.JPG,false,1,keypress(m),500,79528,79528,76455.38,76455,76472.04,79529.6,8,400,6,,ISIC_0027072.JPG
break,html.Screen,4_5_1,2023-09-08T18:44:33.189Z,,0,,,NaN,,,,,,false,,,,79530,79529,,79529,,79529.6,8,400,,,
break_continue,html.Screen,4_5_2,2023-09-08T18:44:33.191Z,,0,,,NaN,,,,,,false,,,,79531,79530,,79530,,79529.6,8,400,,,
sequence,flow.Sequence,4_5,2023-09-08T18:44:33.191Z,,0,,,3057.9600000000064,completion,,,,,false,,,,79531,79530,76455.38,76455,76472.04,79529.6,8,400,,,
trial,html.Screen,4_6_0,2023-09-08T18:44:37.615Z,,0,1,,4424.399999999994,response,ISIC_8650516.JPG,0,ISIC_3273370.JPG,ISIC_8650516.JPG,false,1,keypress(m),500,83955,83954,79528.86,79532,79529.6,83957.48,8,400,7,,ISIC_3273370.JPG
break,html.Screen,4_6_1,2023-09-08T18:44:37.616Z,,0,,,NaN,,,,,,false,,,,83957,83956,,83955,,83957.48,8,400,,,
break_continue,html.Screen,4_6_2,2023-09-08T18:44:37.618Z,,0,,,NaN,,,,,,false,,,,83958,83957,,83957,,83957.48,8,400,,,
sequence,flow.Sequence,4_6,2023-09-08T18:44:37.619Z,,0,,,4427.399999999994,completion,,,,,false,,,,83958,83957,79528.86,79532,79529.6,83957.48,8,400,,,
trial,html.Screen,4_7_0,2023-09-08T18:44:41.445Z,,0,1,,3826.520000000004,response,ISIC_3203344.JPG,1,ISIC_4810500.JPG,ISIC_4810500.JPG,false,0,keypress(z),500,87785,87784,83955.8,83959,83957.48,87786.1,8,400,8,,ISIC_3203344.JPG
break,html.Screen,4_7_1,2023-09-08T18:44:41.446Z,,0,,,NaN,,,,,,false,,,,87786,87786,,87785,,87786.1,8,400,,,
break_continue,html.Screen,4_7_2,2023-09-08T18:44:41.447Z,,0,,,NaN,,,,,,false,,,,87787,87787,,87786,,87786.1,8,400,,,
sequence,flow.Sequence,4_7,2023-09-08T18:44:41.448Z,,0,,,3829.520000000004,completion,,,,,false,,,,87787,87787,83955.8,83959,83957.48,87786.1,8,400,,,
trial,html.Screen,4_8_0,2023-09-08T18:44:44.684Z,,0,1,,3237.899999999994,response,ISIC_1797795.JPG,27,ISIC_0031941.JPG,ISIC_1797795.JPG,false,1,keypress(m),500,91025,91024,87785.38,87788,87786.1,91025.46,8,400,9,,ISIC_0031941.JPG
break,html.Screen,4_8_1,2023-09-08T18:44:44.685Z,,0,,,NaN,,,,,,false,,,,91026,91026,,91025,,91025.46,8,400,,,
break_continue,html.Screen,4_8_2,2023-09-08T18:44:44.686Z,,0,,,NaN,,,,,,false,,,,91026,91026,,91026,,91025.46,8,400,,,
sequence,flow.Sequence,4_8,2023-09-08T18:44:44.686Z,,0,,,3239.899999999994,completion,,,,,false,,,,91027,91026,87785.38,87788,87786.1,91025.46,8,400,,,
trial,html.Screen,4_9_0,2023-09-08T18:44:47.607Z,,0,1,,2920.5399999999936,response,ISIC_2256461.JPG,6,ISIC_0034075.JPG,ISIC_2256461.JPG,false,1,keypress(m),500,93947,93946,91024.8,91027,91025.46,93966.12,8,400,10,,ISIC_0034075.JPG
break,html.Screen,4_9_1,2023-09-08T18:44:47.608Z,,0,,,NaN,,,,,,false,,,,93948,93948,,93947,,93966.12,8,400,,,
break_continue,html.Screen,4_9_2,2023-09-08T18:44:47.609Z,,0,,,NaN,,,,,,false,,,,93949,93949,,93948,,93966.12,8,400,,,
sequence,flow.Sequence,4_9,2023-09-08T18:44:47.609Z,,0,,,2923.5399999999936,completion,,,,,false,,,,93949,93949,91024.8,91027,91025.46,93966.12,8,400,,,
trial,html.Screen,4_10_0,2023-09-08T18:44:50.310Z,,0,1,,2683.8800000000047,response,ISIC_0029868.JPG,2,ISIC_5646706.JPG,ISIC_5646706.JPG,false,0,keypress(z),500,96650,96650,93949.48,93950,93966.12,96651.3,8,400,11,,ISIC_0029868.JPG
break,html.Screen,4_10_1,2023-09-08T18:44:50.312Z,,0,,,NaN,,,,,,false,,,,96651,96651,,96650,,96651.3,8,400,,,
break_continue,html.Screen,4_10_2,2023-09-08T18:44:50.313Z,,0,,,NaN,,,,,,false,,,,96652,96652,,96652,,96651.3,8,400,,,
sequence,flow.Sequence,4_10,2023-09-08T18:44:50.313Z,,0,,,2685.8800000000047,completion,,,,,false,,,,96653,96652,93949.48,93950,93966.12,96651.3,8,400,,,
trial,html.Screen,4_11_0,2023-09-08T18:44:54.749Z,,0,1,,4437.699999999997,response,ISIC_5699175.JPG,1,ISIC_0010609.JPG,ISIC_0010609.JPG,false,0,keypress(z),500,101089,101089,96650.56,96653,96651.3,101089.62,8,400,12,,ISIC_5699175.JPG
break,html.Screen,4_11_1,2023-09-08T18:44:54.750Z,,0,,,NaN,,,,,,false,,,,101090,101090,,101089,,101089.62,8,400,,,
break_continue,html.Screen,4_11_2,2023-09-08T18:44:54.750Z,,0,,,NaN,,,,,,false,,,,101090,101090,,101090,,101089.62,8,400,,,
sequence,flow.Sequence,4_11,2023-09-08T18:44:54.750Z,,0,,,4438.699999999997,completion,,,,,false,,,,101090,101090,96650.56,96653,96651.3,101089.62,8,400,,,
trial,html.Screen,4_12_0,2023-09-08T18:44:58.094Z,,0,1,,3344.3800000000047,response,ISIC_8354042.JPG,11,ISIC_8764927.JPG,ISIC_8354042.JPG,false,1,keypress(m),500,104435,104434,101089.14,101091,101089.62,104435.96,8,400,13,,ISIC_8764927.JPG
break,html.Screen,4_12_1,2023-09-08T18:44:58.096Z,,0,,,NaN,,,,,,false,,,,104436,104436,,104435,,104435.96,8,400,,,
break_continue,html.Screen,4_12_2,2023-09-08T18:44:58.097Z,,0,,,NaN,,,,,,false,,,,104437,104437,,104436,,104435.96,8,400,,,
sequence,flow.Sequence,4_12,2023-09-08T18:44:58.097Z,,0,,,3347.3800000000047,completion,,,,,false,,,,104437,104437,101089.14,101090,101089.62,104435.96,8,400,,,
trial,html.Screen,4_13_0,2023-09-08T18:45:01.471Z,,0,1,,3376.0399999999936,response,ISIC_8584748.JPG,10,ISIC_5437785.JPG,ISIC_8584748.JPG,false,1,keypress(m),500,107812,107812,104435.26,104438,104435.96,107812.12,8,400,14,,ISIC_5437785.JPG
break,html.Screen,4_13_1,2023-09-08T18:45:01.472Z,,0,,,NaN,,,,,,false,,,,107813,107812,,107812,,107812.12,8,400,,,
break_continue,html.Screen,4_13_2,2023-09-08T18:45:01.472Z,,0,,,NaN,,,,,,false,,,,107813,107813,,107813,,107812.12,8,400,,,
sequence,flow.Sequence,4_13,2023-09-08T18:45:01.472Z,,0,,,3377.0399999999936,completion,,,,,false,,,,107813,107813,104435.26,104438,104435.96,107812.12,8,400,,,
trial,html.Screen,4_14_0,2023-09-08T18:45:04.698Z,,0,1,,3225.8800000000047,response,ISIC_2152875.JPG,2,ISIC_0066114.JPG,ISIC_2152875.JPG,false,1,keypress(m),500,111038,111038,107811.64,107813,107812.12,111060.3,8,400,15,,ISIC_0066114.JPG
break,html.Screen,4_14_1,2023-09-08T18:45:04.699Z,,0,,,NaN,,,,,,false,,,,111039,111039,,111038,,111060.3,8,400,,,
break_continue,html.Screen,4_14_2,2023-09-08T18:45:04.700Z,,0,,,NaN,,,,,,false,,,,111040,111040,,111040,,111060.3,8,400,,,
sequence,flow.Sequence,4_14,2023-09-08T18:45:04.700Z,,0,,,3227.8800000000047,completion,,,,,false,,,,111041,111040,107811.64,107813,107812.12,111060.3,8,400,,,
trial,html.Screen,4_15_0,2023-09-08T18:45:07.707Z,,0,1,,2986.699999999997,response,ISIC_1543770.JPG,13,ISIC_0071857.JPG,ISIC_1543770.JPG,false,1,keypress(m),500,114047,114047,111043.7,111041,111060.3,114048.52,8,400,16,,ISIC_0071857.JPG
break,html.Screen,4_15_1,2023-09-08T18:45:07.709Z,,0,,,NaN,,,,,,false,,,,114049,114048,,114048,,114048.52,8,400,,,
break_continue,html.Screen,4_15_2,2023-09-08T18:45:07.710Z,,0,,,NaN,,,,,,false,,,,114050,114049,,114049,,114048.52,8,400,,,
sequence,flow.Sequence,4_15,2023-09-08T18:45:07.710Z,,0,,,2988.699999999997,completion,,,,,false,,,,114050,114049,111043.7,111041,111060.3,114048.52,8,400,,,
trial,html.Screen,4_16_0,2023-09-08T18:45:10.841Z,,0,1,,3132.479999999996,response,ISIC_9183042.JPG,18,ISIC_0011032.JPG,ISIC_9183042.JPG,false,1,keypress(m),500,117181,117181,114047.84,114051,114048.52,117182.1,8,400,17,,ISIC_0011032.JPG
break,html.Screen,4_16_1,2023-09-08T18:45:10.842Z,,0,,,NaN,,,,,,false,,,,117183,117182,,117182,,117182.1,8,400,,,
break_continue,html.Screen,4_16_2,2023-09-08T18:45:10.843Z,,0,,,NaN,,,,,,false,,,,117184,117183,,117183,,117182.1,8,400,,,
sequence,flow.Sequence,4_16,2023-09-08T18:45:10.843Z,,0,,,3134.479999999996,completion,,,,,false,,,,117184,117183,114047.84,114051,114048.52,117182.1,8,400,,,
trial,html.Screen,4_17_0,2023-09-08T18:45:13.817Z,,0,1,,2975.899999999994,response,ISIC_9122215.JPG,0,ISIC_7966295.JPG,ISIC_7966295.JPG,false,0,keypress(z),500,120158,120158,117181.44,117184,117182.1,120158.28,8,400,18,,ISIC_9122215.JPG
break,html.Screen,4_17_1,2023-09-08T18:45:13.818Z,,0,,,NaN,,,,,,false,,,,120159,120158,,120158,,120158.28,8,400,,,
break_continue,html.Screen,4_17_2,2023-09-08T18:45:13.818Z,,0,,,NaN,,,,,,false,,,,120159,120159,,120159,,120158.28,8,400,,,
sequence,flow.Sequence,4_17,2023-09-08T18:45:13.818Z,,0,,,2976.899999999994,completion,,,,,false,,,,120159,120159,117181.44,117184,117182.1,120158.28,8,400,,,
trial,html.Screen,4_18_0,2023-09-08T18:45:16.537Z,,0,1,,2718.720000000001,response,ISIC_3336353.JPG,21,ISIC_0011501.JPG,ISIC_3336353.JPG,false,1,keypress(m),500,122877,122877,120157.92,120159,120158.28,122878.26,8,400,19,,ISIC_0011501.JPG
break,html.Screen,4_18_1,2023-09-08T18:45:16.538Z,,0,,,NaN,,,,,,false,,,,122878,122878,,122877,,122878.26,8,400,,,
break_continue,html.Screen,4_18_2,2023-09-08T18:45:16.539Z,,0,,,NaN,,,,,,false,,,,122879,122878,,122878,,122878.26,8,400,,,
sequence,flow.Sequence,4_18,2023-09-08T18:45:16.539Z,,0,,,2719.720000000001,completion,,,,,false,,,,122879,122878,120157.92,120159,120158.28,122878.26,8,400,,,
trial,html.Screen,4_19_0,2023-09-08T18:45:19.268Z,,0,1,,2728.7400000000052,response,ISIC_5982769.JPG,12,ISIC_0060817.JPG,ISIC_5982769.JPG,false,1,keypress(m),500,125607,125607,122877.64,122879,122878.26,125608.38,8,400,20,,ISIC_0060817.JPG
break,html.Screen,4_19_1,2023-09-08T18:45:19.269Z,,0,,,NaN,,,,,,false,,,,125609,125608,,125607,,125608.38,8,400,,,
break_continue,html.Screen,4_19_2,2023-09-08T18:45:19.269Z,,0,,,NaN,,,,,,false,,,,125609,125609,,125609,,125608.38,8,400,,,
sequence,flow.Sequence,4_19,2023-09-08T18:45:19.269Z,,0,,,2730.7400000000052,completion,,,,,false,,,,125610,125609,122877.64,122879,122878.26,125608.38,8,400,,,
trial,html.Screen,4_20_0,2023-09-08T18:45:22.946Z,,0,1,,3678.6199999999953,response,ISIC_6517082.JPG,15,ISIC_0058781.JPG,ISIC_6517082.JPG,false,1,keypress(m),500,129287,129287,125607.68,125610,125608.38,129288.16,8,400,21,,ISIC_0058781.JPG
break,html.Screen,4_20_1,2023-09-08T18:45:22.947Z,,0,,,NaN,,,,,,false,,,,129288,129288,,129287,,129288.16,8,400,,,
break_continue,html.Screen,4_20_2,2023-09-08T18:45:22.947Z,,0,,,NaN,,,,,,false,,,,129288,129288,,129288,,129288.16,8,400,,,
sequence,flow.Sequence,4_20,2023-09-08T18:45:22.948Z,,0,,,3679.6199999999953,completion,,,,,false,,,,129289,129288,125607.68,125610,125608.38,129288.16,8,400,,,
trial,html.Screen,4_21_0,2023-09-08T18:45:26.160Z,,0,1,,3211.8399999999965,response,ISIC_5833015.JPG,3,ISIC_3596877.JPG,ISIC_5833015.JPG,false,1,keypress(m),500,132500,132500,129287.08,129289,129288.16,132503.04,8,400,22,,ISIC_3596877.JPG
break,html.Screen,4_21_1,2023-09-08T18:45:26.160Z,,0,,,NaN,,,,,,false,,,,132501,132501,,132500,,132503.04,8,400,,,
break_continue,html.Screen,4_21_2,2023-09-08T18:45:26.161Z,,0,,,NaN,,,,,,false,,,,132502,132501,,132501,,132503.04,8,400,,,
sequence,flow.Sequence,4_21,2023-09-08T18:45:26.161Z,,0,,,3212.8399999999965,completion,,,,,false,,,,132502,132501,129287.08,129289,129288.16,132503.04,8,400,,,
trial,html.Screen,4_22_0,2023-09-08T18:45:29.030Z,,0,1,,2867.959999999992,response,ISIC_6971606.JPG,16,ISIC_7460560.JPG,ISIC_7460560.JPG,false,0,keypress(z),500,135371,135371,132500.54,132502,132503.04,135371.66,8,400,23,,ISIC_6971606.JPG
break,html.Screen,4_22_1,2023-09-08T18:45:29.032Z,,0,,,NaN,,,,,,false,,,,135372,135372,,135371,,135371.66,8,400,,,
break_continue,html.Screen,4_22_2,2023-09-08T18:45:29.032Z,,0,,,NaN,,,,,,false,,,,135373,135373,,135372,,135371.66,8,400,,,
sequence,flow.Sequence,4_22,2023-09-08T18:45:29.032Z,,0,,,2869.959999999992,completion,,,,,false,,,,135373,135373,132500.54,132502,132503.04,135371.66,8,400,,,
trial,html.Screen,4_23_0,2023-09-08T18:45:33.168Z,,0,1,,4136.3399999999965,response,ISIC_9590080.JPG,21,ISIC_0061972.JPG,ISIC_9590080.JPG,false,1,keypress(m),500,139508,139508,135370.94,135373,135371.66,139509.04,8,400,24,,ISIC_0061972.JPG
break,html.Screen,4_23_1,2023-09-08T18:45:33.169Z,,0,,,NaN,,,,,,false,,,,139510,139509,,139509,,139509.04,8,400,,,
break_continue,html.Screen,4_23_2,2023-09-08T18:45:33.170Z,,0,,,NaN,,,,,,false,,,,139510,139510,,139510,,139509.04,8,400,,,
sequence,flow.Sequence,4_23,2023-09-08T18:45:33.170Z,,0,,,4138.3399999999965,completion,,,,,false,,,,139510,139510,135370.94,135373,135371.66,139509.04,8,400,,,
trial,html.Screen,4_24_0,2023-09-08T18:45:36.658Z,,0,1,,3488.959999999992,response,ISIC_1910158.JPG,18,ISIC_0010145.JPG,ISIC_1910158.JPG,false,1,keypress(m),500,142998,142998,139508.36,139511,139509.04,142999.58,8,400,25,,ISIC_0010145.JPG
break,html.Screen,4_24_1,2023-09-08T18:45:36.660Z,,0,,,NaN,,,,,,false,,,,143000,142999,,142999,,142999.58,8,400,,,
break_continue,html.Screen,4_24_2,2023-09-08T18:45:36.660Z,,0,,,NaN,,,,,,false,,,,143001,143001,,143000,,142999.58,8,400,,,
sequence,flow.Sequence,4_24,2023-09-08T18:45:36.661Z,,0,,,3491.959999999992,completion,,,,,false,,,,143001,143001,139508.36,139511,139509.04,142999.58,8,400,,,
trial,html.Screen,4_25_0,2023-09-08T18:45:40.472Z,,0,1,,3812.420000000013,response,ISIC_2023592.JPG,27,ISIC_6228471.JPG,ISIC_6228471.JPG,false,0,keypress(z),500,146812,146812,142998.9,143002,142999.58,146814.9,8,400,26,,ISIC_2023592.JPG
break,html.Screen,4_25_1,2023-09-08T18:45:40.473Z,,0,,,NaN,,,,,,false,,,,146813,146813,,146812,,146814.9,8,400,,,
break_continue,html.Screen,4_25_2,2023-09-08T18:45:40.474Z,,0,,,NaN,,,,,,false,,,,146814,146814,,146814,,146814.9,8,400,,,
sequence,flow.Sequence,4_25,2023-09-08T18:45:40.475Z,,0,,,3814.420000000013,completion,,,,,false,,,,146814,146814,142998.9,143001,142999.58,146814.9,8,400,,,
trial,html.Screen,4_26_0,2023-09-08T18:45:43.399Z,,0,1,,2924.100000000006,response,ISIC_0057048.JPG,7,ISIC_3151260.JPG,ISIC_3151260.JPG,false,0,keypress(z),500,149739,149739,146812.7,146815,146814.9,149739.92,8,400,27,,ISIC_0057048.JPG
break,html.Screen,4_26_1,2023-09-08T18:45:43.400Z,,0,,,NaN,,,,,,false,,,,149740,149740,,149739,,149739.92,8,400,,,
break_continue,html.Screen,4_26_2,2023-09-08T18:45:43.401Z,,0,,,NaN,,,,,,false,,,,149741,149741,,149740,,149739.92,8,400,,,
sequence,flow.Sequence,4_26,2023-09-08T18:45:43.401Z,,0,,,2926.100000000006,completion,,,,,false,,,,149741,149741,146812.7,146815,146814.9,149739.92,8,400,,,
trial,html.Screen,4_27_0,2023-09-08T18:45:46.968Z,,0,1,,3568.079999999987,response,ISIC_0025081.JPG,30,ISIC_0025929.JPG,ISIC_0025929.JPG,false,0,keypress(z),500,153308,153308,149739.18,149742,149739.92,153308.84,8,400,28,,ISIC_0025081.JPG
break,html.Screen,4_27_1,2023-09-08T18:45:46.969Z,,0,,,NaN,,,,,,false,,,,153309,153309,,153308,,153308.84,8,400,,,
break_continue,html.Screen,4_27_2,2023-09-08T18:45:46.969Z,,0,,,NaN,,,,,,false,,,,153309,153309,,153309,,153308.84,8,400,,,
sequence,flow.Sequence,4_27,2023-09-08T18:45:46.969Z,,0,,,3569.079999999987,completion,,,,,false,,,,153309,153309,149739.18,149741,149739.92,153308.84,8,400,,,
trial,html.Screen,4_28_0,2023-09-08T18:45:51.393Z,,0,1,,4424.1600000000035,response,ISIC_9726155.JPG,22,ISIC_0064660.JPG,ISIC_9726155.JPG,false,1,keypress(m),500,157733,157733,153308.4,153310,153308.84,157734.9,8,400,29,,ISIC_0064660.JPG
break,html.Screen,4_28_1,2023-09-08T18:45:51.395Z,,0,,,NaN,,,,,,false,,,,157735,157734,,157734,,157734.9,8,400,,,
break_continue,html.Screen,4_28_2,2023-09-08T18:45:51.395Z,,0,,,NaN,,,,,,false,,,,157735,157735,,157735,,157734.9,8,400,,,
sequence,flow.Sequence,4_28,2023-09-08T18:45:51.396Z,,0,,,4426.1600000000035,completion,,,,,false,,,,157736,157735,153308.4,153310,153308.84,157734.9,8,400,,,
trial,html.Screen,4_29_0,2023-09-08T18:45:54.532Z,,0,1,,3137.100000000006,response,ISIC_0027659.JPG,5,ISIC_0026738.JPG,ISIC_0027659.JPG,false,1,keypress(m),500,160872,160872,157734.18,157736,157734.9,160872.12,8,400,30,,ISIC_0026738.JPG
break,html.Screen,4_29_1,2023-09-08T18:45:54.532Z,,0,,,NaN,,,,,,false,,,,160873,160872,,160872,,160872.12,8,400,,,
break_continue,html.Screen,4_29_2,2023-09-08T18:45:54.533Z,,0,,,NaN,,,,,,false,,,,160873,160873,,160873,,160872.12,8,400,,,
sequence,flow.Sequence,4_29,2023-09-08T18:45:54.533Z,,0,,,3138.100000000006,completion,,,,,false,,,,160873,160873,157734.18,157736,157734.9,160872.12,8,400,,,
trial,html.Screen,4_30_0,2023-09-08T18:45:57.542Z,,0,1,,3008.8800000000047,response,ISIC_0013652.JPG,3,ISIC_0027693.JPG,ISIC_0013652.JPG,false,1,keypress(m),500,163881,163881,160871.58,160873,160872.12,163882.4,8,400,31,,ISIC_0027693.JPG
break,html.Screen,4_30_1,2023-09-08T18:45:57.542Z,,0,,,NaN,,,,,,false,,,,163882,163882,,163881,,163882.4,8,400,,,
break_continue,html.Screen,4_30_2,2023-09-08T18:45:57.543Z,,0,,,NaN,,,,,,false,,,,163883,163883,,163883,,163882.4,8,400,,,
sequence,flow.Sequence,4_30,2023-09-08T18:45:57.543Z,,0,,,3010.8800000000047,completion,,,,,false,,,,163883,163883,160871.58,160873,160872.12,163882.4,8,400,,,
trial,html.Screen,4_31_0,2023-09-08T18:46:00.617Z,,0,1,,3074.600000000006,response,ISIC_0024244.JPG,0,ISIC_7642500.JPG,ISIC_7642500.JPG,false,0,keypress(z),500,166958,166957,163881.7,163884,163882.4,166959.02,8,400,32,,ISIC_0024244.JPG
break,html.Screen,4_31_1,2023-09-08T18:46:00.619Z,,0,,,NaN,,,,,,false,,,,166959,166959,,166958,,166959.02,8,400,,,
break_continue,html.Screen,4_31_2,2023-09-08T18:46:00.620Z,,0,,,NaN,,,,,,false,,,,166960,166960,,166959,,166959.02,8,400,,,
sequence,flow.Sequence,4_31,2023-09-08T18:46:00.620Z,,0,,,3077.600000000006,completion,,,,,false,,,,166960,166960,163881.7,163884,163882.4,166959.02,8,400,,,
trial,html.Screen,4_32_0,2023-09-08T18:46:04.065Z,,0,1,,3444.9800000000105,response,ISIC_2867416.JPG,19,ISIC_0032226.JPG,ISIC_2867416.JPG,false,1,keypress(m),500,170404,170404,166958.26,166960,166959.02,170406.84,8,400,33,,ISIC_0032226.JPG
break,html.Screen,4_32_1,2023-09-08T18:46:04.065Z,,0,,,NaN,,,,,,false,,,,170405,170405,,170404,,170406.84,8,400,,,
break_continue,html.Screen,4_32_2,2023-09-08T18:46:04.066Z,,0,,,NaN,,,,,,false,,,,170405,170405,,170405,,170406.84,8,400,,,
sequence,flow.Sequence,4_32,2023-09-08T18:46:04.066Z,,0,,,3445.9800000000105,completion,,,,,false,,,,170405,170405,166958.26,166960,166959.02,170406.84,8,400,,,
trial,html.Screen,4_33_0,2023-09-08T18:46:09.516Z,,0,1,,5449.1600000000035,response,ISIC_1453146.JPG,12,ISIC_0072773.JPG,ISIC_1453146.JPG,false,1,keypress(m),500,175857,175856,170404.78,170405,170406.84,175857.18,8,400,34,,ISIC_0072773.JPG
break,html.Screen,4_33_1,2023-09-08T18:46:09.517Z,,0,,,NaN,,,,,,false,,,,175857,175857,,175857,,175857.18,8,400,,,
break_continue,html.Screen,4_33_2,2023-09-08T18:46:09.518Z,,0,,,NaN,,,,,,false,,,,175858,175857,,175857,,175857.18,8,400,,,
sequence,flow.Sequence,4_33,2023-09-08T18:46:09.518Z,,0,,,5450.1600000000035,completion,,,,,false,,,,175858,175857,170404.78,170405,170406.84,175857.18,8,400,,,
trial,html.Screen,4_34_0,2023-09-08T18:46:13.617Z,,0,1,,4099.820000000007,response,ISIC_0071966.JPG,6,ISIC_8649055.JPG,ISIC_0071966.JPG,false,1,keypress(m),500,179957,179957,175856.72,175858,175857.18,179958.16,8,400,35,,ISIC_8649055.JPG
break,html.Screen,4_34_1,2023-09-08T18:46:13.618Z,,0,,,NaN,,,,,,false,,,,179958,179958,,179957,,179958.16,8,400,,,
break_continue,html.Screen,4_34_2,2023-09-08T18:46:13.619Z,,0,,,NaN,,,,,,false,,,,179958,179958,,179958,,179958.16,8,400,,,
sequence,flow.Sequence,4_34,2023-09-08T18:46:13.619Z,,0,,,4100.820000000007,completion,,,,,false,,,,179959,179958,175856.72,175858,175857.18,179958.16,8,400,,,
trial,html.Screen,4_35_0,2023-09-08T18:46:16.416Z,,0,1,,2797.8399999999965,response,ISIC_7748144.JPG,27,ISIC_0025796.JPG,ISIC_7748144.JPG,false,1,keypress(m),500,182756,182756,179957.7,179959,179958.16,182757.42,8,400,36,,ISIC_0025796.JPG
break,html.Screen,4_35_1,2023-09-08T18:46:16.418Z,,0,,,NaN,,,,,,false,,,,182758,182757,,182757,,182757.42,8,400,,,
break_continue,html.Screen,4_35_2,2023-09-08T18:46:16.418Z,,0,,,NaN,,,,,,false,,,,182758,182758,,182758,,182757.42,8,400,,,
sequence,flow.Sequence,4_35,2023-09-08T18:46:16.418Z,,0,,,2799.8399999999965,completion,,,,,false,,,,182759,182758,179957.7,179959,179958.16,182757.42,8,400,,,
trial,html.Screen,4_36_0,2023-09-08T18:46:20.152Z,,0,1,,3734.579999999987,response,ISIC_0034287.JPG,27,ISIC_8298434.JPG,ISIC_8298434.JPG,false,0,keypress(z),500,186492,186492,182756.68,182759,182757.42,186492.74,8,400,37,,ISIC_0034287.JPG
break,html.Screen,4_36_1,2023-09-08T18:46:20.153Z,,0,,,NaN,,,,,,false,,,,186492,186492,,186492,,186492.74,8,400,,,
break_continue,html.Screen,4_36_2,2023-09-08T18:46:20.153Z,,0,,,NaN,,,,,,false,,,,186493,186493,,186493,,186492.74,8,400,,,
sequence,flow.Sequence,4_36,2023-09-08T18:46:20.153Z,,0,,,3735.579999999987,completion,,,,,false,,,,186493,186493,182756.68,182759,182757.42,186492.74,8,400,,,
trial,html.Screen,4_37_0,2023-09-08T18:46:26.060Z,,0,1,,5906.260000000009,response,ISIC_0058408.JPG,30,ISIC_4459528.JPG,ISIC_4459528.JPG,false,0,keypress(z),500,192400,192399,186492.28,186493,186492.74,192400.58,8,400,38,,ISIC_0058408.JPG
break,html.Screen,4_37_1,2023-09-08T18:46:26.061Z,,0,,,NaN,,,,,,false,,,,192401,192400,,192400,,192400.58,8,400,,,
break_continue,html.Screen,4_37_2,2023-09-08T18:46:26.061Z,,0,,,NaN,,,,,,false,,,,192402,192401,,192401,,192400.58,8,400,,,
sequence,flow.Sequence,4_37,2023-09-08T18:46:26.061Z,,0,,,5908.260000000009,completion,,,,,false,,,,192402,192401,186492.28,186493,186492.74,192400.58,8,400,,,
trial,html.Screen,4_38_0,2023-09-08T18:46:29.893Z,,0,1,,3832.420000000013,response,ISIC_9555291.JPG,18,ISIC_9716860.JPG,ISIC_9555291.JPG,false,1,keypress(m),500,196233,196233,192399.84,192402,192400.58,196234.5,8,400,39,,ISIC_9716860.JPG
break,html.Screen,4_38_1,2023-09-08T18:46:29.895Z,,0,,,NaN,,,,,,false,,,,196235,196234,,196234,,196234.5,8,400,,,
break_continue,html.Screen,4_38_2,2023-09-08T18:46:29.895Z,,0,,,NaN,,,,,,false,,,,196235,196235,,196235,,196234.5,8,400,,,
sequence,flow.Sequence,4_38,2023-09-08T18:46:29.896Z,,0,,,3834.420000000013,completion,,,,,false,,,,196236,196235,192399.84,192402,192400.58,196234.5,8,400,,,
trial,html.Screen,4_39_0,2023-09-08T18:46:35.134Z,,0,1,,5239.5,response,ISIC_2031626.JPG,18,ISIC_7482149.JPG,ISIC_7482149.JPG,false,0,keypress(z),500,201474,201474,196233.78,196236,196234.5,201479.62,8,400,40,,ISIC_2031626.JPG
break,html.Screen,4_39_1,2023-09-08T18:46:35.136Z,,0,,,NaN,,,,,,false,,,,201476,201476,,201475,,201479.62,8,400,,,
break_continue,html.Screen,4_39_2,2023-09-08T18:46:35.136Z,,0,,,NaN,,,,,,false,,,,201477,201477,,201476,,201479.62,8,400,,,
sequence,flow.Sequence,4_39,2023-09-08T18:46:35.137Z,,0,,,5242.5,completion,,,,,false,,,,201477,201477,196233.78,196236,196234.5,201479.62,8,400,,,
trial,html.Screen,4_40_0,2023-09-08T18:46:39.416Z,,0,1,,4276.380000000005,response,ISIC_4393704.JPG,2,ISIC_4808298.JPG,ISIC_4808298.JPG,false,0,keypress(z),500,205757,205756,201474.92,201477,201479.62,205757.84,8,400,41,,ISIC_4393704.JPG
break,html.Screen,4_40_1,2023-09-08T18:46:39.417Z,,0,,,NaN,,,,,,false,,,,205758,205758,,205757,,205757.84,8,400,,,
break_continue,html.Screen,4_40_2,2023-09-08T18:46:39.419Z,,0,,,NaN,,,,,,false,,,,205759,205758,,205758,,205757.84,8,400,,,
sequence,flow.Sequence,4_40,2023-09-08T18:46:39.419Z,,0,,,4278.380000000005,completion,,,,,false,,,,205759,205758,201474.92,201477,201479.62,205757.84,8,400,,,
trial,html.Screen,4_41_0,2023-09-08T18:46:43.878Z,,0,1,,4460.1600000000035,response,ISIC_0026879.JPG,4,ISIC_0072136.JPG,ISIC_0072136.JPG,false,0,keypress(z),500,210218,210218,205757.08,205759,205757.84,210219.5,8,400,42,,ISIC_0026879.JPG
break,html.Screen,4_41_1,2023-09-08T18:46:43.880Z,,0,,,NaN,,,,,,false,,,,210220,210219,,210219,,210219.5,8,400,,,
break_continue,html.Screen,4_41_2,2023-09-08T18:46:43.881Z,,0,,,NaN,,,,,,false,,,,210220,210220,,210220,,210219.5,8,400,,,
sequence,flow.Sequence,4_41,2023-09-08T18:46:43.881Z,,0,,,4462.1600000000035,completion,,,,,false,,,,210221,210220,205757.08,205759,205757.84,210219.5,8,400,,,
trial,html.Screen,4_42_0,2023-09-08T18:46:47.629Z,,0,1,,3749.5,response,ISIC_5960765.JPG,1,ISIC_1862691.JPG,ISIC_5960765.JPG,false,1,keypress(m),500,213970,213969,210219.12,210221,210219.5,213970.7,8,400,43,,ISIC_1862691.JPG
break,html.Screen,4_42_1,2023-09-08T18:46:47.631Z,,0,,,NaN,,,,,,false,,,,213972,213971,,213970,,213970.7,8,400,,,
break_continue,html.Screen,4_42_2,2023-09-08T18:46:47.632Z,,0,,,NaN,,,,,,false,,,,213972,213972,,213972,,213970.7,8,400,,,
sequence,flow.Sequence,4_42,2023-09-08T18:46:47.632Z,,0,,,3752.5,completion,,,,,false,,,,213973,213972,210219.12,210221,210219.5,213970.7,8,400,,,
trial,html.Screen,4_43_0,2023-09-08T18:46:52.494Z,,0,1,,4863.299999999988,response,ISIC_0027936.JPG,26,ISIC_1782911.JPG,ISIC_1782911.JPG,false,0,keypress(z),500,218834,218834,213970.02,213973,213970.7,218835.44,8,400,44,,ISIC_0027936.JPG
break,html.Screen,4_43_1,2023-09-08T18:46:52.495Z,,0,,,NaN,,,,,,false,,,,218836,218835,,218835,,218835.44,8,400,,,
break_continue,html.Screen,4_43_2,2023-09-08T18:46:52.496Z,,0,,,NaN,,,,,,false,,,,218837,218836,,218836,,218835.44,8,400,,,
sequence,flow.Sequence,4_43,2023-09-08T18:46:52.496Z,,0,,,4865.299999999988,completion,,,,,false,,,,218837,218836,213970.02,213973,213970.7,218835.44,8,400,,,
trial,html.Screen,4_44_0,2023-09-08T18:46:56.653Z,,0,1,,4156.559999999998,response,ISIC_2528656.JPG,2,ISIC_4619789.JPG,ISIC_2528656.JPG,false,1,keypress(m),500,222992,222992,218834.68,218837,218835.44,222993.7,8,400,45,,ISIC_4619789.JPG
break,html.Screen,4_44_1,2023-09-08T18:46:56.656Z,,0,,,NaN,,,,,,false,,,,222996,222994,,222992,,222993.7,8,400,,,
break_continue,html.Screen,4_44_2,2023-09-08T18:46:56.657Z,,0,,,NaN,,,,,,false,,,,222997,222997,,222996,,222993.7,8,400,,,
sequence,flow.Sequence,4_44,2023-09-08T18:46:56.658Z,,0,,,4161.559999999998,completion,,,,,false,,,,222997,222997,218834.68,218837,218835.44,222993.7,8,400,,,
trial,html.Screen,4_45_0,2023-09-08T18:47:00.050Z,,0,1,,3396.2999999999884,response,ISIC_0032516.JPG,12,ISIC_0033325.JPG,ISIC_0032516.JPG,false,1,keypress(m),500,226390,226390,222992.98,222997,222993.7,226390.76,8,400,46,,ISIC_0033325.JPG
break,html.Screen,4_45_1,2023-09-08T18:47:00.050Z,,0,,,NaN,,,,,,false,,,,226391,226391,,226391,,226390.76,8,400,,,
break_continue,html.Screen,4_45_2,2023-09-08T18:47:00.051Z,,0,,,NaN,,,,,,false,,,,226391,226391,,226391,,226390.76,8,400,,,
sequence,flow.Sequence,4_45,2023-09-08T18:47:00.052Z,,0,,,3397.2999999999884,completion,,,,,false,,,,226391,226391,222992.98,222997,222993.7,226390.76,8,400,,,
trial,html.Screen,4_46_0,2023-09-08T18:47:03.270Z,,0,1,,3218.2399999999907,response,ISIC_5897134.JPG,18,ISIC_0033616.JPG,ISIC_5897134.JPG,false,1,keypress(m),500,229610,229609,226390.3,226391,226390.76,229610.8,8,400,47,,ISIC_0033616.JPG
break,html.Screen,4_46_1,2023-09-08T18:47:03.271Z,,0,,,NaN,,,,,,false,,,,229611,229611,,229610,,229610.8,8,400,,,
break_continue,html.Screen,4_46_2,2023-09-08T18:47:03.271Z,,0,,,NaN,,,,,,false,,,,229612,229611,,229611,,229610.8,8,400,,,
sequence,flow.Sequence,4_46,2023-09-08T18:47:03.272Z,,0,,,3220.2399999999907,completion,,,,,false,,,,229612,229611,226390.3,226391,226390.76,229610.8,8,400,,,
trial,html.Screen,4_47_0,2023-09-08T18:47:07.649Z,,0,1,,4377.200000000012,response,ISIC_1445277.JPG,5,ISIC_0058255.JPG,ISIC_0058255.JPG,false,0,keypress(z),500,233988,233988,229610.14,229612,229610.8,233989.7,8,400,48,,ISIC_1445277.JPG
break,html.Screen,4_47_1,2023-09-08T18:47:07.650Z,,0,,,NaN,,,,,,false,,,,233990,233989,,233989,,233989.7,8,400,,,
break_continue,html.Screen,4_47_2,2023-09-08T18:47:07.651Z,,0,,,NaN,,,,,,false,,,,233991,233991,,233990,,233989.7,8,400,,,
sequence,flow.Sequence,4_47,2023-09-08T18:47:07.651Z,,0,,,4380.200000000012,completion,,,,,false,,,,233991,233991,229610.14,229612,229610.8,233989.7,8,400,,,
trial,html.Screen,4_48_0,2023-09-08T18:47:10.868Z,,0,1,,3217.2999999999884,response,ISIC_6375439.JPG,14,ISIC_2872107.JPG,ISIC_2872107.JPG,false,0,keypress(z),500,237207,237207,233989,233991,233989.7,237208.84,8,400,49,,ISIC_6375439.JPG
break,html.Screen,4_48_1,2023-09-08T18:47:10.869Z,,0,,,NaN,,,,,,false,,,,237209,237209,,237208,,237208.84,8,400,,,
break_continue,html.Screen,4_48_2,2023-09-08T18:47:10.870Z,,0,,,NaN,,,,,,false,,,,237210,237210,,237209,,237208.84,8,400,,,
sequence,flow.Sequence,4_48,2023-09-08T18:47:10.870Z,,0,,,3220.2999999999884,completion,,,,,false,,,,237210,237210,233989,233991,233989.7,237208.84,8,400,,,
trial,html.Screen,4_49_0,2023-09-08T18:47:13.968Z,,0,1,,3098.1600000000035,response,ISIC_3478437.JPG,5,ISIC_3368468.JPG,ISIC_3368468.JPG,false,0,keypress(z),500,240308,240307,237208.08,237210,237208.84,240309.08,8,400,50,,ISIC_3478437.JPG
break,html.Screen,4_49_1,2023-09-08T18:47:23.957Z,,0,,,10003.960000000021,timeout,,,,,false,,,,250298,250296.38,240308.38,240308,240309.08,250313.04,8,400,,,
break_continue,html.Screen,4_49_2,2023-09-08T18:47:24.691Z,,0,,,704.9599999999919,response,,,,,false,continue,keypress(Space),,251031,251018,250296.38,250298,250313.04,251031.4,8,400,,,
sequence,flow.Sequence,4_49,2023-09-08T18:47:24.691Z,,0,,,13809.160000000003,completion,,,,,false,,,,251031,251018,237208.08,237210,237208.84,251031.4,8,400,,,
trial,html.Screen,4_50_0,2023-09-08T18:47:28.199Z,,0,2,,3507.600000000006,response,ISIC_1074939.JPG,20,ISIC_7351443.JPG,ISIC_7351443.JPG,false,0,keypress(z),500,254539,254539,251031.06,251031,251031.4,254540.24,8,400,1,,ISIC_1074939.JPG
break,html.Screen,4_50_1,2023-09-08T18:47:28.200Z,,0,,,NaN,,,,,,false,,,,254541,254540,,254540,,254540.24,8,400,,,
break_continue,html.Screen,4_50_2,2023-09-08T18:47:28.201Z,,0,,,NaN,,,,,,false,,,,254541,254541,,254541,,254540.24,8,400,,,
sequence,flow.Sequence,4_50,2023-09-08T18:47:28.201Z,,0,,,3509.600000000006,completion,,,,,false,,,,254542,254541,251031.06,251031,251031.4,254540.24,8,400,,,
trial,html.Screen,4_51_0,2023-09-08T18:47:31.368Z,,0,2,,3166.7600000000093,response,ISIC_0058906.JPG,4,ISIC_3319229.JPG,ISIC_3319229.JPG,false,0,keypress(z),500,257708,257707,254539.42,254542,254540.24,257710.64,8,400,2,,ISIC_0058906.JPG
break,html.Screen,4_51_1,2023-09-08T18:47:31.369Z,,0,,,NaN,,,,,,false,,,,257709,257708,,257708,,257710.64,8,400,,,
break_continue,html.Screen,4_51_2,2023-09-08T18:47:31.370Z,,0,,,NaN,,,,,,false,,,,257710,257710,,257709,,257710.64,8,400,,,
sequence,flow.Sequence,4_51,2023-09-08T18:47:31.370Z,,0,,,3169.7600000000093,completion,,,,,false,,,,257710,257710,254539.42,254542,254540.24,257710.64,8,400,,,
trial,html.Screen,4_52_0,2023-09-08T18:47:35.627Z,,0,2,,4257.359999999986,response,ISIC_5065360.JPG,12,ISIC_0028109.JPG,ISIC_5065360.JPG,false,1,keypress(m),500,261968,261968,257708.2,257711,257710.64,261968.86,8,400,3,,ISIC_0028109.JPG
break,html.Screen,4_52_1,2023-09-08T18:47:35.629Z,,0,,,NaN,,,,,,false,,,,261970,261969,,261969,,261968.86,8,400,,,
break_continue,html.Screen,4_52_2,2023-09-08T18:47:35.630Z,,0,,,NaN,,,,,,false,,,,261970,261970,,261970,,261968.86,8,400,,,
sequence,flow.Sequence,4_52,2023-09-08T18:47:35.630Z,,0,,,4259.359999999986,completion,,,,,false,,,,261971,261970,257708.2,257710,257710.64,261968.86,8,400,,,
trial,html.Screen,4_53_0,2023-09-08T18:47:39.745Z,,0,2,,4117.140000000014,response,ISIC_0068438.JPG,27,ISIC_7973598.JPG,ISIC_7973598.JPG,false,0,keypress(z),500,266086,266086,261968.14,261971,261968.86,266091.08,8,400,4,,ISIC_0068438.JPG
break,html.Screen,4_53_1,2023-09-08T18:47:39.747Z,,0,,,NaN,,,,,,false,,,,266087,266087,,266086,,266091.08,8,400,,,
break_continue,html.Screen,4_53_2,2023-09-08T18:47:39.747Z,,0,,,NaN,,,,,,false,,,,266088,266088,,266088,,266091.08,8,400,,,
sequence,flow.Sequence,4_53,2023-09-08T18:47:39.748Z,,0,,,4119.140000000014,completion,,,,,false,,,,266088,266088,261968.14,261971,261968.86,266091.08,8,400,,,
trial,html.Screen,4_54_0,2023-09-08T18:47:44.166Z,,0,2,,4415.919999999984,response,ISIC_1685962.JPG,17,ISIC_4966148.JPG,ISIC_4966148.JPG,false,0,keypress(z),500,270507,270507,266086.16,266089,266091.08,270507.34,8,400,5,,ISIC_1685962.JPG
break,html.Screen,4_54_1,2023-09-08T18:47:44.168Z,,0,,,NaN,,,,,,false,,,,270508,270508,,270507,,270507.34,8,400,,,
break_continue,html.Screen,4_54_2,2023-09-08T18:47:44.168Z,,0,,,NaN,,,,,,false,,,,270508,270508,,270508,,270507.34,8,400,,,
sequence,flow.Sequence,4_54,2023-09-08T18:47:44.169Z,,0,,,4416.919999999984,completion,,,,,false,,,,270509,270508,266086.16,266089,266091.08,270507.34,8,400,,,
trial,html.Screen,4_55_0,2023-09-08T18:47:47.117Z,,0,2,,2948.6599999999744,response,ISIC_0029118.JPG,4,ISIC_7664137.JPG,ISIC_7664137.JPG,false,0,keypress(z),500,273457,273456,270506.76,270509,270507.34,273457.74,8,400,6,,ISIC_0029118.JPG
break,html.Screen,4_55_1,2023-09-08T18:47:47.118Z,,0,,,NaN,,,,,,false,,,,273458,273458,,273457,,273457.74,8,400,,,
break_continue,html.Screen,4_55_2,2023-09-08T18:47:47.119Z,,0,,,NaN,,,,,,false,,,,273459,273459,,273458,,273457.74,8,400,,,
sequence,flow.Sequence,4_55,2023-09-08T18:47:47.119Z,,0,,,2951.6599999999744,completion,,,,,false,,,,273460,273459,270506.76,270509,270507.34,273457.74,8,400,,,
trial,html.Screen,4_56_0,2023-09-08T18:47:50.695Z,,0,2,,3577.2600000000093,response,ISIC_9407690.JPG,0,ISIC_9485536.JPG,ISIC_9485536.JPG,false,0,keypress(z),500,277035,277035,273457.12,273460,273457.74,277037.44,8,400,7,,ISIC_9407690.JPG
break,html.Screen,4_56_1,2023-09-08T18:47:50.696Z,,0,,,NaN,,,,,,false,,,,277037,277036,,277036,,277037.44,8,400,,,
break_continue,html.Screen,4_56_2,2023-09-08T18:47:50.696Z,,0,,,NaN,,,,,,false,,,,277037,277037,,277037,,277037.44,8,400,,,
sequence,flow.Sequence,4_56,2023-09-08T18:47:50.697Z,,0,,,3579.2600000000093,completion,,,,,false,,,,277038,277037,273457.12,273460,273457.74,277037.44,8,400,,,
trial,html.Screen,4_57_0,2023-09-08T18:47:54.182Z,,0,2,,3484.5599999999977,response,ISIC_2355513.JPG,2,ISIC_7349772.JPG,ISIC_2355513.JPG,false,1,keypress(m),500,280522,280522,277035.26,277038,277037.44,280522.74,8,400,8,,ISIC_7349772.JPG
break,html.Screen,4_57_1,2023-09-08T18:47:54.183Z,,0,,,NaN,,,,,,false,,,,280523,280522,,280522,,280522.74,8,400,,,
break_continue,html.Screen,4_57_2,2023-09-08T18:47:54.183Z,,0,,,NaN,,,,,,false,,,,280523,280523,,280523,,280522.74,8,400,,,
sequence,flow.Sequence,4_57,2023-09-08T18:47:54.183Z,,0,,,3485.5599999999977,completion,,,,,false,,,,280523,280523,277035.26,277038,277037.44,280522.74,8,400,,,
trial,html.Screen,4_58_0,2023-09-08T18:47:57.493Z,,0,2,,3310.2600000000093,response,ISIC_0032046.JPG,21,ISIC_0010036.JPG,ISIC_0032046.JPG,false,1,keypress(m),500,283833,283833,280522.22,280524,280522.74,283834.32,8,400,9,,ISIC_0010036.JPG
break,html.Screen,4_58_1,2023-09-08T18:47:57.494Z,,0,,,NaN,,,,,,false,,,,283835,283834,,283833,,283834.32,8,400,,,
break_continue,html.Screen,4_58_2,2023-09-08T18:47:57.495Z,,0,,,NaN,,,,,,false,,,,283835,283835,,283835,,283834.32,8,400,,,
sequence,flow.Sequence,4_58,2023-09-08T18:47:57.495Z,,0,,,3312.2600000000093,completion,,,,,false,,,,283836,283835,280522.22,280524,280522.74,283834.32,8,400,,,
trial,html.Screen,4_59_0,2023-09-08T18:48:00.362Z,,0,2,,2867.679999999993,response,ISIC_2294790.JPG,0,ISIC_0030681.JPG,ISIC_2294790.JPG,false,1,keypress(m),500,286703,286702,283833.58,283836,283834.32,286703.3,8,400,10,,ISIC_0030681.JPG
break,html.Screen,4_59_1,2023-09-08T18:48:00.363Z,,0,,,NaN,,,,,,false,,,,286704,286703,,286703,,286703.3,8,400,,,
break_continue,html.Screen,4_59_2,2023-09-08T18:48:00.364Z,,0,,,NaN,,,,,,false,,,,286704,286704,,286704,,286703.3,8,400,,,
sequence,flow.Sequence,4_59,2023-09-08T18:48:00.364Z,,0,,,2869.679999999993,completion,,,,,false,,,,286704,286704,283833.58,283836,283834.32,286703.3,8,400,,,
trial,html.Screen,4_60_0,2023-09-08T18:48:03.230Z,,0,2,,2865.7000000000116,response,ISIC_0060893.JPG,14,ISIC_0034065.JPG,ISIC_0034065.JPG,false,0,keypress(z),500,289570,289569,286702.58,286705,286703.3,289570.34,8,400,11,,ISIC_0060893.JPG
break,html.Screen,4_60_1,2023-09-08T18:48:03.230Z,,0,,,NaN,,,,,,false,,,,289571,289571,,289570,,289570.34,8,400,,,
break_continue,html.Screen,4_60_2,2023-09-08T18:48:03.231Z,,0,,,NaN,,,,,,false,,,,289571,289571,,289571,,289570.34,8,400,,,
sequence,flow.Sequence,4_60,2023-09-08T18:48:03.232Z,,0,,,2867.7000000000116,completion,,,,,false,,,,289571,289571,286702.58,286704,286703.3,289570.34,8,400,,,
trial,html.Screen,4_61_0,2023-09-08T18:48:06.053Z,,0,2,,2823.6599999999744,response,ISIC_8929288.JPG,30,ISIC_5810696.JPG,ISIC_8929288.JPG,false,1,keypress(m),500,292394,292394,289569.62,289572,289570.34,292398.9,8,400,12,,ISIC_5810696.JPG
break,html.Screen,4_61_1,2023-09-08T18:48:06.055Z,,0,,,NaN,,,,,,false,,,,292394,292394,,292394,,292398.9,8,400,,,
break_continue,html.Screen,4_61_2,2023-09-08T18:48:06.055Z,,0,,,NaN,,,,,,false,,,,292395,292395,,292395,,292398.9,8,400,,,
sequence,flow.Sequence,4_61,2023-09-08T18:48:06.055Z,,0,,,2824.6599999999744,completion,,,,,false,,,,292395,292395,289569.62,289572,289570.34,292398.9,8,400,,,
trial,html.Screen,4_62_0,2023-09-08T18:48:10.007Z,,0,2,,3948.0999999999767,response,ISIC_0005681.JPG,19,ISIC_0012678.JPG,ISIC_0005681.JPG,false,1,keypress(m),500,296348,296347,292393.88,292397,292398.9,296349.12,8,400,13,,ISIC_0012678.JPG
break,html.Screen,4_62_1,2023-09-08T18:48:10.010Z,,0,,,NaN,,,,,,false,,,,296349,296349,,296348,,296349.12,8,400,,,
break_continue,html.Screen,4_62_2,2023-09-08T18:48:10.010Z,,0,,,NaN,,,,,,false,,,,296351,296350,,296350,,296349.12,8,400,,,
sequence,flow.Sequence,4_62,2023-09-08T18:48:10.011Z,,0,,,3951.0999999999767,completion,,,,,false,,,,296351,296350,292393.88,292397,292398.9,296349.12,8,400,,,
trial,html.Screen,4_63_0,2023-09-08T18:48:12.937Z,,0,2,,2927.8800000000047,response,ISIC_0010754.JPG,13,ISIC_0061941.JPG,ISIC_0010754.JPG,false,1,keypress(m),500,299277,299277,296348.38,296352,296349.12,299279.84,8,400,14,,ISIC_0061941.JPG
break,html.Screen,4_63_1,2023-09-08T18:48:12.938Z,,0,,,NaN,,,,,,false,,,,299278,299278,,299277,,299279.84,8,400,,,
break_continue,html.Screen,4_63_2,2023-09-08T18:48:12.939Z,,0,,,NaN,,,,,,false,,,,299279,299278,,299278,,299279.84,8,400,,,
sequence,flow.Sequence,4_63,2023-09-08T18:48:12.939Z,,0,,,2928.8800000000047,completion,,,,,false,,,,299279,299278,296348.38,296351,296349.12,299279.84,8,400,,,
trial,html.Screen,4_64_0,2023-09-08T18:48:16.689Z,,0,2,,3749.1599999999744,response,ISIC_6780662.JPG,14,ISIC_0004955.JPG,ISIC_0004955.JPG,false,0,keypress(z),500,303029,303029,299277.6,299279,299279.84,303030.16,8,400,15,,ISIC_6780662.JPG
break,html.Screen,4_64_1,2023-09-08T18:48:16.690Z,,0,,,NaN,,,,,,false,,,,303031,303030,,303030,,303030.16,8,400,,,
break_continue,html.Screen,4_64_2,2023-09-08T18:48:16.691Z,,0,,,NaN,,,,,,false,,,,303031,303031,,303031,,303030.16,8,400,,,
sequence,flow.Sequence,4_64,2023-09-08T18:48:16.691Z,,0,,,3751.1599999999744,completion,,,,,false,,,,303031,303031,299277.6,299279,299279.84,303030.16,8,400,,,
trial,html.Screen,4_65_0,2023-09-08T18:48:20.221Z,,0,2,,3530.8400000000256,response,ISIC_0982855.JPG,13,ISIC_2935987.JPG,ISIC_2935987.JPG,false,0,keypress(z),500,306562,306561,303029.32,303031,303030.16,306562.04,8,400,16,,ISIC_0982855.JPG
break,html.Screen,4_65_1,2023-09-08T18:48:20.222Z,,0,,,NaN,,,,,,false,,,,306562,306562,,306562,,306562.04,8,400,,,
break_continue,html.Screen,4_65_2,2023-09-08T18:48:20.223Z,,0,,,NaN,,,,,,false,,,,306562,306562,,306562,,306562.04,8,400,,,
sequence,flow.Sequence,4_65,2023-09-08T18:48:20.223Z,,0,,,3531.8400000000256,completion,,,,,false,,,,306563,306562,303029.32,303031,303030.16,306562.04,8,400,,,
trial,html.Screen,4_66_0,2023-09-08T18:48:23.024Z,,0,2,,2801.960000000021,response,ISIC_0028696.JPG,30,ISIC_0060266.JPG,ISIC_0028696.JPG,false,1,keypress(m),500,309364,309364,306561.56,306563,306562.04,309364.86,8,400,17,,ISIC_0060266.JPG
break,html.Screen,4_66_1,2023-09-08T18:48:23.025Z,,0,,,NaN,,,,,,false,,,,309365,309364,,309364,,309364.86,8,400,,,
break_continue,html.Screen,4_66_2,2023-09-08T18:48:23.025Z,,0,,,NaN,,,,,,false,,,,309365,309365,,309365,,309364.86,8,400,,,
sequence,flow.Sequence,4_66,2023-09-08T18:48:23.026Z,,0,,,2802.960000000021,completion,,,,,false,,,,309365,309365,306561.56,306563,306562.04,309364.86,8,400,,,
trial,html.Screen,4_67_0,2023-09-08T18:48:26.797Z,,0,2,,3772.140000000014,response,ISIC_2430937.JPG,3,ISIC_6779421.JPG,ISIC_6779421.JPG,false,0,keypress(z),500,313137,313137,309364.38,309365,309364.86,313141.8,8,400,18,,ISIC_2430937.JPG
break,html.Screen,4_67_1,2023-09-08T18:48:26.798Z,,0,,,NaN,,,,,,false,,,,313139,313138,,313138,,313141.8,8,400,,,
break_continue,html.Screen,4_67_2,2023-09-08T18:48:26.799Z,,0,,,NaN,,,,,,false,,,,313139,313139,,313139,,313141.8,8,400,,,
sequence,flow.Sequence,4_67,2023-09-08T18:48:26.800Z,,0,,,3774.140000000014,completion,,,,,false,,,,313140,313139,309364.38,309365,309364.86,313141.8,8,400,,,
trial,html.Screen,4_68_0,2023-09-08T18:48:30.893Z,,0,2,,4091.2000000000116,response,ISIC_9579506.JPG,2,ISIC_0027556.JPG,ISIC_9579506.JPG,false,1,keypress(m),500,317234,317233,313137.74,313140,313141.8,317234.28,8,400,19,,ISIC_0027556.JPG
break,html.Screen,4_68_1,2023-09-08T18:48:30.894Z,,0,,,NaN,,,,,,false,,,,317235,317235,,317234,,317234.28,8,400,,,
break_continue,html.Screen,4_68_2,2023-09-08T18:48:30.895Z,,0,,,NaN,,,,,,false,,,,317236,317235,,317235,,317234.28,8,400,,,
sequence,flow.Sequence,4_68,2023-09-08T18:48:30.895Z,,0,,,4093.2000000000116,completion,,,,,false,,,,317236,317235,313137.74,313140,313141.8,317234.28,8,400,,,
trial,html.Screen,4_69_0,2023-09-08T18:48:34.852Z,,0,2,,3957.719999999972,response,ISIC_9910791.JPG,16,ISIC_0072624.JPG,ISIC_9910791.JPG,false,1,keypress(m),500,321192,321192,317233.6,317236,317234.28,321192.94,8,400,20,,ISIC_0072624.JPG
break,html.Screen,4_69_1,2023-09-08T18:48:34.853Z,,0,,,NaN,,,,,,false,,,,321193,321192,,321192,,321192.94,8,400,,,
break_continue,html.Screen,4_69_2,2023-09-08T18:48:34.854Z,,0,,,NaN,,,,,,false,,,,321193,321193,,321193,,321192.94,8,400,,,
sequence,flow.Sequence,4_69,2023-09-08T18:48:34.854Z,,0,,,3958.719999999972,completion,,,,,false,,,,321194,321193,317233.6,317236,317234.28,321192.94,8,400,,,
trial,html.Screen,4_70_0,2023-09-08T18:48:38.622Z,,0,2,,3769.0599999999977,response,ISIC_0029343.JPG,16,ISIC_3136228.JPG,ISIC_3136228.JPG,false,0,keypress(z),500,324962,324962,321192.26,321194,321192.94,324962.78,8,400,21,,ISIC_0029343.JPG
break,html.Screen,4_70_1,2023-09-08T18:48:38.623Z,,0,,,NaN,,,,,,false,,,,324963,324963,,324962,,324962.78,8,400,,,
break_continue,html.Screen,4_70_2,2023-09-08T18:48:38.624Z,,0,,,NaN,,,,,,false,,,,324964,324964,,324963,,324962.78,8,400,,,
sequence,flow.Sequence,4_70,2023-09-08T18:48:38.624Z,,0,,,3771.0599999999977,completion,,,,,false,,,,324964,324964,321192.26,321194,321192.94,324962.78,8,400,,,
trial,html.Screen,4_71_0,2023-09-08T18:48:42.148Z,,0,2,,3526.219999999972,response,ISIC_3424207.JPG,11,ISIC_8244535.JPG,ISIC_3424207.JPG,false,1,keypress(m),500,328489,328489,324962.06,324965,324962.78,328490.34,8,400,22,,ISIC_8244535.JPG
break,html.Screen,4_71_1,2023-09-08T18:48:42.150Z,,0,,,NaN,,,,,,false,,,,328490,328490,,328489,,328490.34,8,400,,,
break_continue,html.Screen,4_71_2,2023-09-08T18:48:42.151Z,,0,,,NaN,,,,,,false,,,,328491,328491,,328490,,328490.34,8,400,,,
sequence,flow.Sequence,4_71,2023-09-08T18:48:42.152Z,,0,,,3528.219999999972,completion,,,,,false,,,,328491,328491,324962.06,324964,324962.78,328490.34,8,400,,,
trial,html.Screen,4_72_0,2023-09-08T18:48:45.504Z,,0,2,,3352.6599999999744,response,ISIC_0378399.JPG,1,ISIC_0067333.JPG,ISIC_0378399.JPG,false,1,keypress(m),500,331843,331843,328489.42,328492,328490.34,331844.48,8,400,23,,ISIC_0067333.JPG
break,html.Screen,4_72_1,2023-09-08T18:48:45.505Z,,0,,,NaN,,,,,,false,,,,331845,331845,,331844,,331844.48,8,400,,,
break_continue,html.Screen,4_72_2,2023-09-08T18:48:45.505Z,,0,,,NaN,,,,,,false,,,,331845,331845,,331845,,331844.48,8,400,,,
sequence,flow.Sequence,4_72,2023-09-08T18:48:45.505Z,,0,,,3354.6599999999744,completion,,,,,false,,,,331845,331845,328489.42,328492,328490.34,331844.48,8,400,,,
trial,html.Screen,4_73_0,2023-09-08T18:48:49.145Z,,0,2,,3640.5200000000186,response,ISIC_5602724.JPG,15,ISIC_0071869.JPG,ISIC_5602724.JPG,false,1,keypress(m),500,335485,335485,331844,331845,331844.48,335485.9,8,400,24,,ISIC_0071869.JPG
break,html.Screen,4_73_1,2023-09-08T18:48:49.146Z,,0,,,NaN,,,,,,false,,,,335486,335485,,335485,,335485.9,8,400,,,
break_continue,html.Screen,4_73_2,2023-09-08T18:48:49.146Z,,0,,,NaN,,,,,,false,,,,335486,335486,,335486,,335485.9,8,400,,,
sequence,flow.Sequence,4_73,2023-09-08T18:48:49.147Z,,0,,,3641.5200000000186,completion,,,,,false,,,,335486,335486,331844,331845,331844.48,335485.9,8,400,,,
trial,html.Screen,4_74_0,2023-09-08T18:48:52.834Z,,0,2,,3689.0999999999767,response,ISIC_0033278.JPG,3,ISIC_8268025.JPG,ISIC_8268025.JPG,false,0,keypress(z),500,339175,339175,335485.48,335486,335485.9,339175.58,8,400,25,,ISIC_0033278.JPG
break,html.Screen,4_74_1,2023-09-08T18:48:52.835Z,,0,,,NaN,,,,,,false,,,,339176,339176,,339175,,339175.58,8,400,,,
break_continue,html.Screen,4_74_2,2023-09-08T18:48:52.836Z,,0,,,NaN,,,,,,false,,,,339177,339177,,339176,,339175.58,8,400,,,
sequence,flow.Sequence,4_74,2023-09-08T18:48:52.836Z,,0,,,3691.0999999999767,completion,,,,,false,,,,339177,339177,335485.48,335486,335485.9,339175.58,8,400,,,
trial,html.Screen,4_75_0,2023-09-08T18:48:55.996Z,,0,2,,3160.4199999999837,response,ISIC_0032856.JPG,16,ISIC_8892236.JPG,ISIC_8892236.JPG,false,0,keypress(z),500,342336,342336,339174.94,339177,339175.58,342337.16,8,400,26,,ISIC_0032856.JPG
break,html.Screen,4_75_1,2023-09-08T18:48:55.997Z,,0,,,NaN,,,,,,false,,,,342337,342337,,342337,,342337.16,8,400,,,
break_continue,html.Screen,4_75_2,2023-09-08T18:48:55.998Z,,0,,,NaN,,,,,,false,,,,342338,342338,,342337,,342337.16,8,400,,,
sequence,flow.Sequence,4_75,2023-09-08T18:48:55.998Z,,0,,,3162.4199999999837,completion,,,,,false,,,,342338,342338,339174.94,339177,339175.58,342337.16,8,400,,,
trial,html.Screen,4_76_0,2023-09-08T18:48:59.059Z,,0,2,,3062.8400000000256,response,ISIC_7945429.JPG,27,ISIC_7107030.JPG,ISIC_7107030.JPG,false,0,keypress(z),500,345400,345400,342336.58,342338,342337.16,345430.9,8,400,27,,ISIC_7945429.JPG
break,html.Screen,4_76_1,2023-09-08T18:48:59.060Z,,0,,,NaN,,,,,,false,,,,345401,345401,,345400,,345430.9,8,400,,,
break_continue,html.Screen,4_76_2,2023-09-08T18:48:59.061Z,,0,,,NaN,,,,,,false,,,,345402,345402,,345402,,345430.9,8,400,,,
sequence,flow.Sequence,4_76,2023-09-08T18:48:59.062Z,,0,,,3064.8400000000256,completion,,,,,false,,,,345402,345402,342336.58,342338,342337.16,345430.9,8,400,,,
trial,html.Screen,4_77_0,2023-09-08T18:49:02.726Z,,0,2,,3635.0999999999767,response,ISIC_0009879.JPG,17,ISIC_0027839.JPG,ISIC_0009879.JPG,false,1,keypress(m),500,349067,349066,345414.28,345403,345430.9,349096.36,8,400,28,,ISIC_0027839.JPG
break,html.Screen,4_77_1,2023-09-08T18:49:02.728Z,,0,,,NaN,,,,,,false,,,,349068,349068,,349067,,349096.36,8,400,,,
break_continue,html.Screen,4_77_2,2023-09-08T18:49:02.728Z,,0,,,NaN,,,,,,false,,,,349069,349068,,349068,,349096.36,8,400,,,
sequence,flow.Sequence,4_77,2023-09-08T18:49:02.729Z,,0,,,3637.0999999999767,completion,,,,,false,,,,349069,349068,345414.28,345403,345430.9,349096.36,8,400,,,
trial,html.Screen,4_78_0,2023-09-08T18:49:05.764Z,,0,2,,3007.640000000014,response,ISIC_0053674.JPG,0,ISIC_5520533.JPG,ISIC_5520533.JPG,false,0,keypress(z),500,352105,352104,349079.7,349069,349096.36,352105.68,8,400,29,,ISIC_0053674.JPG
break,html.Screen,4_78_1,2023-09-08T18:49:05.766Z,,0,,,NaN,,,,,,false,,,,352106,352106,,352105,,352105.68,8,400,,,
break_continue,html.Screen,4_78_2,2023-09-08T18:49:05.767Z,,0,,,NaN,,,,,,false,,,,352107,352107,,352106,,352105.68,8,400,,,
sequence,flow.Sequence,4_78,2023-09-08T18:49:05.767Z,,0,,,3010.640000000014,completion,,,,,false,,,,352107,352107,349079.7,349069,349096.36,352105.68,8,400,,,
trial,html.Screen,4_79_0,2023-09-08T18:49:09.035Z,,0,2,,3269.320000000007,response,ISIC_7096389.JPG,30,ISIC_6280523.JPG,ISIC_6280523.JPG,false,0,keypress(z),500,355375,355375,352104.96,352107,352105.68,355394.16,8,400,30,,ISIC_7096389.JPG
break,html.Screen,4_79_1,2023-09-08T18:49:09.036Z,,0,,,NaN,,,,,,false,,,,355376,355376,,355375,,355394.16,8,400,,,
break_continue,html.Screen,4_79_2,2023-09-08T18:49:09.036Z,,0,,,NaN,,,,,,false,,,,355376,355376,,355376,,355394.16,8,400,,,
sequence,flow.Sequence,4_79,2023-09-08T18:49:09.036Z,,0,,,3270.320000000007,completion,,,,,false,,,,355377,355376,352104.96,352107,352105.68,355394.16,8,400,,,
trial,html.Screen,4_80_0,2023-09-08T18:49:12.167Z,,0,2,,3112.8400000000256,response,ISIC_0028757.JPG,17,ISIC_5273029.JPG,ISIC_5273029.JPG,false,0,keypress(z),500,358507,358507,355377.5,355377,355394.16,358509.82,8,400,31,,ISIC_0028757.JPG
break,html.Screen,4_80_1,2023-09-08T18:49:12.168Z,,0,,,NaN,,,,,,false,,,,358508,358508,,358508,,358509.82,8,400,,,
break_continue,html.Screen,4_80_2,2023-09-08T18:49:12.169Z,,0,,,NaN,,,,,,false,,,,358509,358509,,358509,,358509.82,8,400,,,
sequence,flow.Sequence,4_80,2023-09-08T18:49:12.169Z,,0,,,3114.8400000000256,completion,,,,,false,,,,358509,358509,355377.5,355377,355394.16,358509.82,8,400,,,
trial,html.Screen,4_81_0,2023-09-08T18:49:15.998Z,,0,2,,3827.179999999993,response,ISIC_5170766.JPG,17,ISIC_0207349.JPG,ISIC_0207349.JPG,false,0,keypress(z),500,362338,362337,358507.16,358510,358509.82,362341.84,8,400,32,,ISIC_5170766.JPG
break,html.Screen,4_81_1,2023-09-08T18:49:15.999Z,,0,,,NaN,,,,,,false,,,,362339,362339,,362338,,362341.84,8,400,,,
break_continue,html.Screen,4_81_2,2023-09-08T18:49:16.000Z,,0,,,NaN,,,,,,false,,,,362340,362340,,362339,,362341.84,8,400,,,
sequence,flow.Sequence,4_81,2023-09-08T18:49:16.000Z,,0,,,3830.179999999993,completion,,,,,false,,,,362340,362340,358507.16,358510,358509.82,362341.84,8,400,,,
trial,html.Screen,4_82_0,2023-09-08T18:49:19.878Z,,0,2,,3876.1599999999744,response,ISIC_0055759.JPG,0,ISIC_0030281.JPG,ISIC_0055759.JPG,false,1,keypress(m),500,366218,366218,362338.08,362340,362341.84,366218.82,8,400,33,,ISIC_0030281.JPG
break,html.Screen,4_82_1,2023-09-08T18:49:19.879Z,,0,,,NaN,,,,,,false,,,,366219,366219,,366218,,366218.82,8,400,,,
break_continue,html.Screen,4_82_2,2023-09-08T18:49:19.879Z,,0,,,NaN,,,,,,false,,,,366220,366220,,366219,,366218.82,8,400,,,
sequence,flow.Sequence,4_82,2023-09-08T18:49:19.880Z,,0,,,3878.1599999999744,completion,,,,,false,,,,366220,366220,362338.08,362340,362341.84,366218.82,8,400,,,
trial,html.Screen,4_83_0,2023-09-08T18:49:22.826Z,,0,2,,2946.179999999993,response,ISIC_8382969.JPG,2,ISIC_0032645.JPG,ISIC_8382969.JPG,false,1,keypress(m),500,369166,369165,366218.1,366221,366218.82,369166.58,8,400,34,,ISIC_0032645.JPG
break,html.Screen,4_83_1,2023-09-08T18:49:22.826Z,,0,,,NaN,,,,,,false,,,,369167,369166,,369166,,369166.58,8,400,,,
break_continue,html.Screen,4_83_2,2023-09-08T18:49:22.828Z,,0,,,NaN,,,,,,false,,,,369168,369167,,369167,,369166.58,8,400,,,
sequence,flow.Sequence,4_83,2023-09-08T18:49:22.828Z,,0,,,2948.179999999993,completion,,,,,false,,,,369168,369167,366218.1,366221,366218.82,369166.58,8,400,,,
trial,html.Screen,4_84_0,2023-09-08T18:49:26.843Z,,0,2,,4015.4199999999837,response,ISIC_6556622.JPG,15,ISIC_4781223.JPG,ISIC_6556622.JPG,false,1,keypress(m),500,373182,373182,369165.84,369168,369166.58,373182.94,8,400,35,,ISIC_4781223.JPG
break,html.Screen,4_84_1,2023-09-08T18:49:26.843Z,,0,,,NaN,,,,,,false,,,,373183,373183,,373182,,373182.94,8,400,,,
break_continue,html.Screen,4_84_2,2023-09-08T18:49:26.843Z,,0,,,NaN,,,,,,false,,,,373183,373183,,373183,,373182.94,8,400,,,
sequence,flow.Sequence,4_84,2023-09-08T18:49:26.843Z,,0,,,4016.4199999999837,completion,,,,,false,,,,373183,373183,369165.84,369168,369166.58,373182.94,8,400,,,
trial,html.Screen,4_85_0,2023-09-08T18:49:31.525Z,,0,2,,4683.059999999998,response,ISIC_0069488.JPG,24,ISIC_0728350.JPG,ISIC_0069488.JPG,false,1,keypress(m),500,377866,377866,373182.6,373184,373182.94,377869.88,8,400,36,,ISIC_0728350.JPG
break,html.Screen,4_85_1,2023-09-08T18:49:31.527Z,,0,,,NaN,,,,,,false,,,,377867,377867,,377866,,377869.88,8,400,,,
break_continue,html.Screen,4_85_2,2023-09-08T18:49:31.527Z,,0,,,NaN,,,,,,false,,,,377867,377867,,377867,,377869.88,8,400,,,
sequence,flow.Sequence,4_85,2023-09-08T18:49:31.528Z,,0,,,4684.059999999998,completion,,,,,false,,,,377868,377867,373182.6,373184,373182.94,377869.88,8,400,,,
trial,html.Screen,4_86_0,2023-09-08T18:49:35.307Z,,0,2,,3776.1199999999953,response,ISIC_6496370.JPG,18,ISIC_0059341.JPG,ISIC_6496370.JPG,false,1,keypress(m),500,381647,381646,377866.34,377868,377869.88,381651.9,8,400,37,,ISIC_0059341.JPG
break,html.Screen,4_86_1,2023-09-08T18:49:35.308Z,,0,,,NaN,,,,,,false,,,,381648,381647,,381647,,381651.9,8,400,,,
break_continue,html.Screen,4_86_2,2023-09-08T18:49:35.308Z,,0,,,NaN,,,,,,false,,,,381649,381648,,381648,,381651.9,8,400,,,
sequence,flow.Sequence,4_86,2023-09-08T18:49:35.309Z,,0,,,3778.1199999999953,completion,,,,,false,,,,381649,381648,377866.34,377868,377869.88,381651.9,8,400,,,
trial,html.Screen,4_87_0,2023-09-08T18:49:38.654Z,,0,2,,3342.0999999999767,response,ISIC_0026207.JPG,30,ISIC_0067338.JPG,ISIC_0067338.JPG,false,0,keypress(z),500,384994,384994,381647.38,381649,381651.9,385000.82,8,400,38,,ISIC_0026207.JPG
break,html.Screen,4_87_1,2023-09-08T18:49:38.656Z,,0,,,NaN,,,,,,false,,,,384996,384996,,384995,,385000.82,8,400,,,
break_continue,html.Screen,4_87_2,2023-09-08T18:49:38.657Z,,0,,,NaN,,,,,,false,,,,384997,384997,,384996,,385000.82,8,400,,,
sequence,flow.Sequence,4_87,2023-09-08T18:49:38.657Z,,0,,,3345.0999999999767,completion,,,,,false,,,,384998,384997,381647.38,381649,381651.9,385000.82,8,400,,,
trial,html.Screen,4_88_0,2023-09-08T18:49:42.039Z,,0,2,,3378.179999999993,response,ISIC_0026094.JPG,19,ISIC_5434229.JPG,ISIC_5434229.JPG,false,0,keypress(z),500,388379,388379,384994.96,384998,385000.82,388382.96,8,400,39,,ISIC_0026094.JPG
break,html.Screen,4_88_1,2023-09-08T18:49:42.041Z,,0,,,NaN,,,,,,false,,,,388381,388380,,388380,,388382.96,8,400,,,
break_continue,html.Screen,4_88_2,2023-09-08T18:49:42.041Z,,0,,,NaN,,,,,,false,,,,388382,388381,,388381,,388382.96,8,400,,,
sequence,flow.Sequence,4_88,2023-09-08T18:49:42.042Z,,0,,,3380.179999999993,completion,,,,,false,,,,388382,388381,384994.96,384998,385000.82,388382.96,8,400,,,
trial,html.Screen,4_89_0,2023-09-08T18:49:46.728Z,,0,2,,4685.039999999979,response,ISIC_0009298.JPG,13,ISIC_0000078.JPG,ISIC_0009298.JPG,false,1,keypress(m),500,393068,393068,388379.6,388382,388382.96,393068.72,8,400,40,,ISIC_0000078.JPG
break,html.Screen,4_89_1,2023-09-08T18:49:46.728Z,,0,,,NaN,,,,,,false,,,,393069,393069,,393068,,393068.72,8,400,,,
break_continue,html.Screen,4_89_2,2023-09-08T18:49:46.729Z,,0,,,NaN,,,,,,false,,,,393069,393069,,393069,,393068.72,8,400,,,
sequence,flow.Sequence,4_89,2023-09-08T18:49:46.729Z,,0,,,4686.039999999979,completion,,,,,false,,,,393070,393069,388379.6,388382,388382.96,393068.72,8,400,,,
trial,html.Screen,4_90_0,2023-09-08T18:49:50.961Z,,0,2,,4232.280000000028,response,ISIC_0056326.JPG,1,ISIC_0399220.JPG,ISIC_0056326.JPG,false,1,keypress(m),500,397301,397301,393068,393070,393068.72,397302.86,8,400,41,,ISIC_0399220.JPG
break,html.Screen,4_90_1,2023-09-08T18:49:50.962Z,,0,,,NaN,,,,,,false,,,,397302,397302,,397301,,397302.86,8,400,,,
break_continue,html.Screen,4_90_2,2023-09-08T18:49:50.963Z,,0,,,NaN,,,,,,false,,,,397303,397303,,397303,,397302.86,8,400,,,
sequence,flow.Sequence,4_90,2023-09-08T18:49:50.963Z,,0,,,4234.280000000028,completion,,,,,false,,,,397303,397303,393068,393070,393068.72,397302.86,8,400,,,
trial,html.Screen,4_91_0,2023-09-08T18:49:54.221Z,,0,2,,3258.140000000014,response,ISIC_0010663.JPG,16,ISIC_7300631.JPG,ISIC_7300631.JPG,false,0,keypress(z),500,400561,400561,397301.6,397304,397302.86,400562.12,8,400,42,,ISIC_0010663.JPG
break,html.Screen,4_91_1,2023-09-08T18:49:54.222Z,,0,,,NaN,,,,,,false,,,,400562,400562,,400561,,400562.12,8,400,,,
break_continue,html.Screen,4_91_2,2023-09-08T18:49:54.223Z,,0,,,NaN,,,,,,false,,,,400563,400562,,400562,,400562.12,8,400,,,
sequence,flow.Sequence,4_91,2023-09-08T18:49:54.223Z,,0,,,3259.140000000014,completion,,,,,false,,,,400563,400562,397301.6,397304,397302.86,400562.12,8,400,,,
trial,html.Screen,4_92_0,2023-09-08T18:49:58.491Z,,0,2,,4267.880000000005,response,ISIC_8338755.JPG,22,ISIC_8300954.JPG,ISIC_8300954.JPG,false,0,keypress(z),500,404831,404830,400561.42,400563,400562.12,404831.62,8,400,43,,ISIC_8338755.JPG
break,html.Screen,4_92_1,2023-09-08T18:49:58.491Z,,0,,,NaN,,,,,,false,,,,404832,404832,,404831,,404831.62,8,400,,,
break_continue,html.Screen,4_92_2,2023-09-08T18:49:58.493Z,,0,,,NaN,,,,,,false,,,,404833,404832,,404832,,404831.62,8,400,,,
sequence,flow.Sequence,4_92,2023-09-08T18:49:58.493Z,,0,,,4269.880000000005,completion,,,,,false,,,,404833,404832,400561.42,400563,400562.12,404831.62,8,400,,,
trial,html.Screen,4_93_0,2023-09-08T18:50:01.860Z,,0,2,,3368.3800000000047,response,ISIC_0027238.JPG,15,ISIC_0024745.JPG,ISIC_0024745.JPG,false,0,keypress(z),500,408200,408200,404830.88,404834,404831.62,408200.86,8,400,44,,ISIC_0027238.JPG
break,html.Screen,4_93_1,2023-09-08T18:50:01.860Z,,0,,,NaN,,,,,,false,,,,408201,408201,,408200,,408200.86,8,400,,,
break_continue,html.Screen,4_93_2,2023-09-08T18:50:01.861Z,,0,,,NaN,,,,,,false,,,,408202,408201,,408201,,408200.86,8,400,,,
sequence,flow.Sequence,4_93,2023-09-08T18:50:01.861Z,,0,,,3369.3800000000047,completion,,,,,false,,,,408202,408201,404830.88,404834,404831.62,408200.86,8,400,,,
trial,html.Screen,4_94_0,2023-09-08T18:50:04.872Z,,0,2,,3011.140000000014,response,ISIC_2937407.JPG,19,ISIC_3389704.JPG,ISIC_2937407.JPG,false,1,keypress(m),500,411212,411212,408200.3,408202,408200.86,411212.7,8,400,45,,ISIC_3389704.JPG
break,html.Screen,4_94_1,2023-09-08T18:50:04.873Z,,0,,,NaN,,,,,,false,,,,411213,411213,,411212,,411212.7,8,400,,,
break_continue,html.Screen,4_94_2,2023-09-08T18:50:04.873Z,,0,,,NaN,,,,,,false,,,,411213,411213,,411213,,411212.7,8,400,,,
sequence,flow.Sequence,4_94,2023-09-08T18:50:04.873Z,,0,,,3012.140000000014,completion,,,,,false,,,,411213,411213,408200.3,408202,408200.86,411212.7,8,400,,,
trial,html.Screen,4_95_0,2023-09-08T18:50:08.215Z,,0,2,,3343.2999999999884,response,ISIC_0067733.JPG,27,ISIC_3561065.JPG,ISIC_3561065.JPG,false,0,keypress(z),500,414556,414556,411212.24,411213,411212.7,414556.5,8,400,46,,ISIC_0067733.JPG
break,html.Screen,4_95_1,2023-09-08T18:50:08.217Z,,0,,,NaN,,,,,,false,,,,414557,414557,,414556,,414556.5,8,400,,,
break_continue,html.Screen,4_95_2,2023-09-08T18:50:08.217Z,,0,,,NaN,,,,,,false,,,,414557,414557,,414557,,414556.5,8,400,,,
sequence,flow.Sequence,4_95,2023-09-08T18:50:08.218Z,,0,,,3344.2999999999884,completion,,,,,false,,,,414557,414557,411212.24,411213,411212.7,414556.5,8,400,,,
trial,html.Screen,4_96_0,2023-09-08T18:50:13.153Z,,0,2,,4935.5,response,ISIC_6891226.JPG,13,ISIC_0026043.JPG,ISIC_6891226.JPG,false,1,keypress(m),500,419493,419492,414555.8,414558,414556.5,419494.08,8,400,47,,ISIC_0026043.JPG
break,html.Screen,4_96_1,2023-09-08T18:50:13.155Z,,0,,,NaN,,,,,,false,,,,419494,419494,,419493,,419494.08,8,400,,,
break_continue,html.Screen,4_96_2,2023-09-08T18:50:13.155Z,,0,,,NaN,,,,,,false,,,,419495,419494,,419494,,419494.08,8,400,,,
sequence,flow.Sequence,4_96,2023-09-08T18:50:13.155Z,,0,,,4937.5,completion,,,,,false,,,,419495,419494,414555.8,414557,414556.5,419494.08,8,400,,,
trial,html.Screen,4_97_0,2023-09-08T18:50:17.718Z,,0,2,,4563.919999999984,response,ISIC_4474170.JPG,8,ISIC_0009975.JPG,ISIC_4474170.JPG,false,1,keypress(m),500,424058,424058,419493.42,419495,419494.08,424058.88,8,400,48,,ISIC_0009975.JPG
break,html.Screen,4_97_1,2023-09-08T18:50:17.719Z,,0,,,NaN,,,,,,false,,,,424059,424058,,424058,,424058.88,8,400,,,
break_continue,html.Screen,4_97_2,2023-09-08T18:50:17.719Z,,0,,,NaN,,,,,,false,,,,424059,424059,,424059,,424058.88,8,400,,,
sequence,flow.Sequence,4_97,2023-09-08T18:50:17.720Z,,0,,,4564.919999999984,completion,,,,,false,,,,424059,424059,419493.42,419495,419494.08,424058.88,8,400,,,
trial,html.Screen,4_98_0,2023-09-08T18:50:22.207Z,,0,2,,4487.119999999995,response,ISIC_0027378.JPG,7,ISIC_6377613.JPG,ISIC_6377613.JPG,false,0,keypress(z),500,428546,428546,424058.44,424059,424058.88,428547.64,8,400,49,,ISIC_0027378.JPG
break,html.Screen,4_98_1,2023-09-08T18:50:22.208Z,,0,,,NaN,,,,,,false,,,,428547,428547,,428546,,428547.64,8,400,,,
break_continue,html.Screen,4_98_2,2023-09-08T18:50:22.208Z,,0,,,NaN,,,,,,false,,,,428548,428548,,428548,,428547.64,8,400,,,
sequence,flow.Sequence,4_98,2023-09-08T18:50:22.209Z,,0,,,4489.119999999995,completion,,,,,false,,,,428548,428548,424058.44,424059,424058.88,428547.64,8,400,,,
trial,html.Screen,4_99_0,2023-09-08T18:50:25.891Z,,0,2,,3682.359999999986,response,ISIC_5476277.JPG,28,ISIC_0055136.JPG,ISIC_5476277.JPG,false,1,keypress(m),500,432231,432230,428546.9,428549,428547.64,432232,8,400,50,,ISIC_0055136.JPG
break,html.Screen,4_99_1,2023-09-08T18:50:35.875Z,,0,,,9999.299999999988,timeout,,,,,false,,,,442216,442214.64,432231.22,432231,432232,442231.3,8,400,,,
break_continue,html.Screen,4_99_2,2023-09-08T18:50:36.778Z,,0,,,864.7000000000116,response,,,,,false,continue,keypress(Space),,443119,443096,442214.64,442216,442231.3,443119.48,8,400,,,
sequence,flow.Sequence,4_99,2023-09-08T18:50:36.779Z,,0,,,14548.359999999986,completion,,,,,false,,,,443119,443096,428546.9,428549,428547.64,443119.48,8,400,,,
trial,html.Screen,4_100_0,2023-09-08T18:50:40.797Z,,0,3,,4016.5200000000186,response,ISIC_0063157.JPG,8,ISIC_8959410.JPG,ISIC_8959410.JPG,false,0,keypress(z),500,447137,447136,443119.08,443119,443119.48,447137.76,8,400,1,,ISIC_0063157.JPG
break,html.Screen,4_100_1,2023-09-08T18:50:40.797Z,,0,,,NaN,,,,,,false,,,,447138,447138,,447137,,447137.76,8,400,,,
break_continue,html.Screen,4_100_2,2023-09-08T18:50:40.799Z,,0,,,NaN,,,,,,false,,,,447139,447139,,447138,,447137.76,8,400,,,
sequence,flow.Sequence,4_100,2023-09-08T18:50:40.799Z,,0,,,4019.5200000000186,completion,,,,,false,,,,447139,447139,443119.08,443119,443119.48,447137.76,8,400,,,
trial,html.Screen,4_101_0,2023-09-08T18:50:43.942Z,,0,3,,3144.2399999999907,response,ISIC_6681802.JPG,4,ISIC_0000572.JPG,ISIC_0000572.JPG,false,0,keypress(z),500,450282,450282,447136.74,447139,447137.76,450283.48,8,400,2,,ISIC_6681802.JPG
break,html.Screen,4_101_1,2023-09-08T18:50:43.943Z,,0,,,NaN,,,,,,false,,,,450284,450283,,450283,,450283.48,8,400,,,
break_continue,html.Screen,4_101_2,2023-09-08T18:50:43.944Z,,0,,,NaN,,,,,,false,,,,450284,450284,,450284,,450283.48,8,400,,,
sequence,flow.Sequence,4_101,2023-09-08T18:50:43.944Z,,0,,,3146.2399999999907,completion,,,,,false,,,,450284,450284,447136.74,447139,447137.76,450283.48,8,400,,,
trial,html.Screen,4_102_0,2023-09-08T18:50:46.780Z,,0,3,,2836.5200000000186,response,ISIC_0032531.JPG,0,ISIC_4969996.JPG,ISIC_4969996.JPG,false,0,keypress(z),500,453120,453120,450282.78,450285,450283.48,453121.08,8,400,3,,ISIC_0032531.JPG
break,html.Screen,4_102_1,2023-09-08T18:50:46.781Z,,0,,,NaN,,,,,,false,,,,453121,453121,,453120,,453121.08,8,400,,,
break_continue,html.Screen,4_102_2,2023-09-08T18:50:46.782Z,,0,,,NaN,,,,,,false,,,,453122,453122,,453122,,453121.08,8,400,,,
sequence,flow.Sequence,4_102,2023-09-08T18:50:46.782Z,,0,,,2838.5200000000186,completion,,,,,false,,,,453123,453122,450282.78,450285,450283.48,453121.08,8,400,,,
trial,html.Screen,4_103_0,2023-09-08T18:50:50.175Z,,0,3,,3393.9199999999837,response,ISIC_0046693.JPG,2,ISIC_6168754.JPG,ISIC_6168754.JPG,false,0,keypress(z),500,456515,456515,453120.34,453123,453121.08,456516.3,8,400,4,,ISIC_0046693.JPG
break,html.Screen,4_103_1,2023-09-08T18:50:50.176Z,,0,,,NaN,,,,,,false,,,,456516,456516,,456515,,456516.3,8,400,,,
break_continue,html.Screen,4_103_2,2023-09-08T18:50:50.177Z,,0,,,NaN,,,,,,false,,,,456517,456517,,456516,,456516.3,8,400,,,
sequence,flow.Sequence,4_103,2023-09-08T18:50:50.177Z,,0,,,3395.9199999999837,completion,,,,,false,,,,456517,456517,453120.34,453123,453121.08,456516.3,8,400,,,
trial,html.Screen,4_104_0,2023-09-08T18:50:53.545Z,,0,3,,3368.7000000000116,response,ISIC_0024652.JPG,1,ISIC_0071901.JPG,ISIC_0024652.JPG,false,1,keypress(m),500,459885,459885,456515.56,456518,456516.3,459885.72,8,400,5,,ISIC_0071901.JPG
break,html.Screen,4_104_1,2023-09-08T18:50:53.546Z,,0,,,NaN,,,,,,false,,,,459886,459886,,459885,,459885.72,8,400,,,
break_continue,html.Screen,4_104_2,2023-09-08T18:50:53.547Z,,0,,,NaN,,,,,,false,,,,459886,459886,,459886,,459885.72,8,400,,,
sequence,flow.Sequence,4_104,2023-09-08T18:50:53.547Z,,0,,,3369.7000000000116,completion,,,,,false,,,,459887,459886,456515.56,456518,456516.3,459885.72,8,400,,,
trial,html.Screen,4_105_0,2023-09-08T18:50:57.804Z,,0,3,,4258.280000000028,response,ISIC_0054317.JPG,12,ISIC_8630818.JPG,ISIC_8630818.JPG,false,0,keypress(z),500,464144,464144,459885.02,459887,459885.72,464144.96,8,400,6,,ISIC_0054317.JPG
break,html.Screen,4_105_1,2023-09-08T18:50:57.805Z,,0,,,NaN,,,,,,false,,,,464145,464145,,464144,,464144.96,8,400,,,
break_continue,html.Screen,4_105_2,2023-09-08T18:50:57.805Z,,0,,,NaN,,,,,,false,,,,464146,464146,,464145,,464144.96,8,400,,,
sequence,flow.Sequence,4_105,2023-09-08T18:50:57.806Z,,0,,,4260.280000000028,completion,,,,,false,,,,464146,464146,459885.02,459887,459885.72,464144.96,8,400,,,
trial,html.Screen,4_106_0,2023-09-08T18:51:01.016Z,,0,3,,3211.039999999979,response,ISIC_8477065.JPG,0,ISIC_7090336.JPG,ISIC_8477065.JPG,false,1,keypress(m),500,467356,467356,464144.24,464146,464144.96,467357.26,8,400,7,,ISIC_7090336.JPG
break,html.Screen,4_106_1,2023-09-08T18:51:01.017Z,,0,,,NaN,,,,,,false,,,,467357,467357,,467356,,467357.26,8,400,,,
break_continue,html.Screen,4_106_2,2023-09-08T18:51:01.018Z,,0,,,NaN,,,,,,false,,,,467358,467358,,467357,,467357.26,8,400,,,
sequence,flow.Sequence,4_106,2023-09-08T18:51:01.018Z,,0,,,3213.039999999979,completion,,,,,false,,,,467358,467358,464144.24,464146,464144.96,467357.26,8,400,,,
trial,html.Screen,4_107_0,2023-09-08T18:51:04.874Z,,0,3,,3856.7399999999907,response,ISIC_8495875.JPG,13,ISIC_0030101.JPG,ISIC_8495875.JPG,false,1,keypress(m),500,471214,471214,467356.5,467359,467357.26,471215.02,8,400,8,,ISIC_0030101.JPG
break,html.Screen,4_107_1,2023-09-08T18:51:04.875Z,,0,,,NaN,,,,,,false,,,,471216,471215,,471215,,471215.02,8,400,,,
break_continue,html.Screen,4_107_2,2023-09-08T18:51:04.876Z,,0,,,NaN,,,,,,false,,,,471216,471216,,471216,,471215.02,8,400,,,
sequence,flow.Sequence,4_107,2023-09-08T18:51:04.876Z,,0,,,3858.7399999999907,completion,,,,,false,,,,471217,471216,467356.5,467359,467357.26,471215.02,8,400,,,
trial,html.Screen,4_108_0,2023-09-08T18:51:08.287Z,,0,3,,3410.9799999999814,response,ISIC_0067412.JPG,5,ISIC_0032685.JPG,ISIC_0067412.JPG,false,1,keypress(m),500,474626,474626,471214.32,471217,471215.02,474627.66,8,400,9,,ISIC_0032685.JPG
break,html.Screen,4_108_1,2023-09-08T18:51:08.288Z,,0,,,NaN,,,,,,false,,,,474628,474628,,474626,,474627.66,8,400,,,
break_continue,html.Screen,4_108_2,2023-09-08T18:51:08.288Z,,0,,,NaN,,,,,,false,,,,474629,474629,,474629,,474627.66,8,400,,,
sequence,flow.Sequence,4_108,2023-09-08T18:51:08.289Z,,0,,,3413.9799999999814,completion,,,,,false,,,,474629,474629,471214.32,471217,471215.02,474627.66,8,400,,,
trial,html.Screen,4_109_0,2023-09-08T18:51:11.631Z,,0,3,,3344.3400000000256,response,ISIC_8389361.JPG,13,ISIC_0058255.JPG,ISIC_0058255.JPG,false,0,keypress(z),500,477972,477972,474626.94,474629,474627.66,477972.56,8,400,10,,ISIC_8389361.JPG
break,html.Screen,4_109_1,2023-09-08T18:51:11.633Z,,0,,,NaN,,,,,,false,,,,477973,477973,,477972,,477972.56,8,400,,,
break_continue,html.Screen,4_109_2,2023-09-08T18:51:11.634Z,,0,,,NaN,,,,,,false,,,,477974,477974,,477973,,477972.56,8,400,,,
sequence,flow.Sequence,4_109,2023-09-08T18:51:11.634Z,,0,,,3346.3400000000256,completion,,,,,false,,,,477974,477974,474626.94,474629,474627.66,477972.56,8,400,,,
trial,html.Screen,4_110_0,2023-09-08T18:51:14.797Z,,0,3,,3163.4400000000023,response,ISIC_0032858.JPG,17,ISIC_9680433.JPG,ISIC_9680433.JPG,false,0,keypress(z),500,481137,481136,477971.9,477975,477972.56,481168.16,8,400,11,,ISIC_0032858.JPG
break,html.Screen,4_110_1,2023-09-08T18:51:14.798Z,,0,,,NaN,,,,,,false,,,,481138,481138,,481137,,481168.16,8,400,,,
break_continue,html.Screen,4_110_2,2023-09-08T18:51:14.799Z,,0,,,NaN,,,,,,false,,,,481139,481139,,481138,,481168.16,8,400,,,
sequence,flow.Sequence,4_110,2023-09-08T18:51:14.799Z,,0,,,3166.4400000000023,completion,,,,,false,,,,481139,481139,477971.9,477975,477972.56,481168.16,8,400,,,
trial,html.Screen,4_111_0,2023-09-08T18:51:19.110Z,,0,3,,4282.840000000026,response,ISIC_7915065.JPG,2,ISIC_5409902.JPG,ISIC_5409902.JPG,false,0,keypress(z),500,485451,485451,481151.58,481139,481168.16,485451.62,8,400,12,,ISIC_7915065.JPG
break,html.Screen,4_111_1,2023-09-08T18:51:19.111Z,,0,,,NaN,,,,,,false,,,,485452,485452,,485451,,485451.62,8,400,,,
break_continue,html.Screen,4_111_2,2023-09-08T18:51:19.112Z,,0,,,NaN,,,,,,false,,,,485453,485453,,485452,,485451.62,8,400,,,
sequence,flow.Sequence,4_111,2023-09-08T18:51:19.112Z,,0,,,4284.840000000026,completion,,,,,false,,,,485453,485453,481151.58,481139,481168.16,485451.62,8,400,,,
trial,html.Screen,4_112_0,2023-09-08T18:51:22.970Z,,0,3,,3857.3800000000047,response,ISIC_0033042.JPG,30,ISIC_4375524.JPG,ISIC_4375524.JPG,false,0,keypress(z),500,489309,489309,485450.94,485453,485451.62,489310.24,8,400,13,,ISIC_0033042.JPG
break,html.Screen,4_112_1,2023-09-08T18:51:22.970Z,,0,,,NaN,,,,,,false,,,,489310,489310,,489309,,489310.24,8,400,,,
break_continue,html.Screen,4_112_2,2023-09-08T18:51:22.971Z,,0,,,NaN,,,,,,false,,,,489311,489311,,489311,,489310.24,8,400,,,
sequence,flow.Sequence,4_112,2023-09-08T18:51:22.971Z,,0,,,3859.3800000000047,completion,,,,,false,,,,489311,489311,485450.94,485453,485451.62,489310.24,8,400,,,
trial,html.Screen,4_113_0,2023-09-08T18:51:26.036Z,,0,3,,3065.7600000000093,response,ISIC_6201199.JPG,9,ISIC_0027253.JPG,ISIC_6201199.JPG,false,1,keypress(m),500,492377,492376,489309.54,489312,489310.24,492381,8,400,14,,ISIC_0027253.JPG
break,html.Screen,4_113_1,2023-09-08T18:51:26.038Z,,0,,,NaN,,,,,,false,,,,492378,492378,,492377,,492381,8,400,,,
break_continue,html.Screen,4_113_2,2023-09-08T18:51:26.038Z,,0,,,NaN,,,,,,false,,,,492379,492378,,492378,,492381,8,400,,,
sequence,flow.Sequence,4_113,2023-09-08T18:51:26.038Z,,0,,,3067.7600000000093,completion,,,,,false,,,,492379,492378,489309.54,489311,489310.24,492381,8,400,,,
trial,html.Screen,4_114_0,2023-09-08T18:51:28.995Z,,0,3,,2954,response,ISIC_6759173.JPG,14,ISIC_5908780.JPG,ISIC_5908780.JPG,false,0,keypress(z),500,495336,495335,492376.7,492379,492381,495363.4,8,400,15,,ISIC_6759173.JPG
break,html.Screen,4_114_1,2023-09-08T18:51:28.996Z,,0,,,NaN,,,,,,false,,,,495337,495337,,495336,,495363.4,8,400,,,
break_continue,html.Screen,4_114_2,2023-09-08T18:51:28.997Z,,0,,,NaN,,,,,,false,,,,495338,495337,,495337,,495363.4,8,400,,,
sequence,flow.Sequence,4_114,2023-09-08T18:51:28.997Z,,0,,,2956,completion,,,,,false,,,,495338,495337,492376.7,492379,492381,495363.4,8,400,,,
trial,html.Screen,4_115_0,2023-09-08T18:51:32.404Z,,0,3,,3379.5999999999767,response,ISIC_0015079.JPG,14,ISIC_0057374.JPG,ISIC_0057374.JPG,false,0,keypress(z),500,498743,498743,495346.74,495338,495363.4,498744.78,8,400,16,,ISIC_0015079.JPG
break,html.Screen,4_115_1,2023-09-08T18:51:32.405Z,,0,,,NaN,,,,,,false,,,,498745,498745,,498745,,498744.78,8,400,,,
break_continue,html.Screen,4_115_2,2023-09-08T18:51:32.405Z,,0,,,NaN,,,,,,false,,,,498745,498745,,498745,,498744.78,8,400,,,
sequence,flow.Sequence,4_115,2023-09-08T18:51:32.406Z,,0,,,3381.5999999999767,completion,,,,,false,,,,498746,498745,495346.74,495338,495363.4,498744.78,8,400,,,
trial,html.Screen,4_116_0,2023-09-08T18:51:35.522Z,,0,3,,3116.219999999972,response,ISIC_0011348.JPG,0,ISIC_0028220.JPG,ISIC_0011348.JPG,false,1,keypress(m),500,501861,501861,498744.2,498746,498744.78,501862.54,8,400,17,,ISIC_0028220.JPG
break,html.Screen,4_116_1,2023-09-08T18:51:35.523Z,,0,,,NaN,,,,,,false,,,,501862,501862,,501861,,501862.54,8,400,,,
break_continue,html.Screen,4_116_2,2023-09-08T18:51:35.523Z,,0,,,NaN,,,,,,false,,,,501863,501863,,501863,,501862.54,8,400,,,
sequence,flow.Sequence,4_116,2023-09-08T18:51:35.524Z,,0,,,3118.219999999972,completion,,,,,false,,,,501864,501863,498744.2,498746,498744.78,501862.54,8,400,,,
trial,html.Screen,4_117_0,2023-09-08T18:51:39.911Z,,0,3,,4388.460000000021,response,ISIC_0031203.JPG,29,ISIC_0027492.JPG,ISIC_0027492.JPG,false,0,keypress(z),500,506252,506251,501861.86,501864,501862.54,506252.8,8,400,18,,ISIC_0031203.JPG
break,html.Screen,4_117_1,2023-09-08T18:51:39.912Z,,0,,,NaN,,,,,,false,,,,506253,506252,,506252,,506252.8,8,400,,,
break_continue,html.Screen,4_117_2,2023-09-08T18:51:39.913Z,,0,,,NaN,,,,,,false,,,,506254,506253,,506253,,506252.8,8,400,,,
sequence,flow.Sequence,4_117,2023-09-08T18:51:39.913Z,,0,,,4390.460000000021,completion,,,,,false,,,,506254,506253,501861.86,501864,501862.54,506252.8,8,400,,,
trial,html.Screen,4_118_0,2023-09-08T18:51:44.324Z,,0,3,,4411.200000000012,response,ISIC_0292775.JPG,1,ISIC_0033416.JPG,ISIC_0292775.JPG,false,1,keypress(m),500,510665,510664,506252.1,506254,506252.8,510666.16,8,400,19,,ISIC_0033416.JPG
break,html.Screen,4_118_1,2023-09-08T18:51:44.326Z,,0,,,NaN,,,,,,false,,,,510666,510666,,510665,,510666.16,8,400,,,
break_continue,html.Screen,4_118_2,2023-09-08T18:51:44.327Z,,0,,,NaN,,,,,,false,,,,510667,510667,,510666,,510666.16,8,400,,,
sequence,flow.Sequence,4_118,2023-09-08T18:51:44.327Z,,0,,,4414.200000000012,completion,,,,,false,,,,510667,510667,506252.1,506254,506252.8,510666.16,8,400,,,
trial,html.Screen,4_119_0,2023-09-08T18:51:47.276Z,,0,3,,2949.8400000000256,response,ISIC_0030508.JPG,5,ISIC_5568525.JPG,ISIC_5568525.JPG,false,0,keypress(z),500,513616,513616,510665.22,510667,510666.16,513616.9,8,400,20,,ISIC_0030508.JPG
break,html.Screen,4_119_1,2023-09-08T18:51:47.277Z,,0,,,NaN,,,,,,false,,,,513617,513617,,513617,,513616.9,8,400,,,
break_continue,html.Screen,4_119_2,2023-09-08T18:51:47.277Z,,0,,,NaN,,,,,,false,,,,513617,513617,,513617,,513616.9,8,400,,,
sequence,flow.Sequence,4_119,2023-09-08T18:51:47.277Z,,0,,,2950.8400000000256,completion,,,,,false,,,,513618,513617,510665.22,510667,510666.16,513616.9,8,400,,,
trial,html.Screen,4_120_0,2023-09-08T18:51:50.074Z,,0,3,,2797.0999999999767,response,ISIC_8190708.JPG,11,ISIC_0046647.JPG,ISIC_8190708.JPG,false,1,keypress(m),500,516414,516414,513616.42,513618,513616.9,516414.86,8,400,21,,ISIC_0046647.JPG
break,html.Screen,4_120_1,2023-09-08T18:51:50.075Z,,0,,,NaN,,,,,,false,,,,516415,516415,,516414,,516414.86,8,400,,,
break_continue,html.Screen,4_120_2,2023-09-08T18:51:50.075Z,,0,,,NaN,,,,,,false,,,,516416,516415,,516415,,516414.86,8,400,,,
sequence,flow.Sequence,4_120,2023-09-08T18:51:50.076Z,,0,,,2798.0999999999767,completion,,,,,false,,,,516416,516415,513616.42,513618,513616.9,516414.86,8,400,,,
trial,html.Screen,4_121_0,2023-09-08T18:51:52.863Z,,0,3,,2788.140000000014,response,ISIC_5404908.JPG,2,ISIC_0056984.JPG,ISIC_0056984.JPG,false,0,keypress(z),500,519203,519203,516414.22,516416,516414.86,519205.32,8,400,22,,ISIC_5404908.JPG
break,html.Screen,4_121_1,2023-09-08T18:51:52.864Z,,0,,,NaN,,,,,,false,,,,519204,519204,,519203,,519205.32,8,400,,,
break_continue,html.Screen,4_121_2,2023-09-08T18:51:52.865Z,,0,,,NaN,,,,,,false,,,,519205,519205,,519204,,519205.32,8,400,,,
sequence,flow.Sequence,4_121,2023-09-08T18:51:52.865Z,,0,,,2790.140000000014,completion,,,,,false,,,,519205,519205,516414.22,516416,516414.86,519205.32,8,400,,,
trial,html.Screen,4_122_0,2023-09-08T18:51:56.488Z,,0,3,,3622.679999999993,response,ISIC_0062709.JPG,0,ISIC_0062864.JPG,ISIC_0062709.JPG,false,1,keypress(m),500,522829,522828,519202.96,519206,519205.32,522829.42,8,400,23,,ISIC_0062864.JPG
break,html.Screen,4_122_1,2023-09-08T18:51:56.490Z,,0,,,NaN,,,,,,false,,,,522830,522829,,522829,,522829.42,8,400,,,
break_continue,html.Screen,4_122_2,2023-09-08T18:51:56.490Z,,0,,,NaN,,,,,,false,,,,522830,522830,,522830,,522829.42,8,400,,,
sequence,flow.Sequence,4_122,2023-09-08T18:51:56.491Z,,0,,,3624.679999999993,completion,,,,,false,,,,522830,522830,519202.96,519205,519205.32,522829.42,8,400,,,
trial,html.Screen,4_123_0,2023-09-08T18:51:59.355Z,,0,3,,2865.5800000000163,response,ISIC_6960446.JPG,31,ISIC_0033968.JPG,ISIC_6960446.JPG,false,1,keypress(m),500,525696,525695,522828.72,522830,522829.42,525696.44,8,400,24,,ISIC_0033968.JPG
break,html.Screen,4_123_1,2023-09-08T18:51:59.357Z,,0,,,NaN,,,,,,false,,,,525697,525697,,525696,,525696.44,8,400,,,
break_continue,html.Screen,4_123_2,2023-09-08T18:51:59.358Z,,0,,,NaN,,,,,,false,,,,525698,525698,,525697,,525696.44,8,400,,,
sequence,flow.Sequence,4_123,2023-09-08T18:51:59.358Z,,0,,,2868.5800000000163,completion,,,,,false,,,,525698,525698,522828.72,522830,522829.42,525696.44,8,400,,,
trial,html.Screen,4_124_0,2023-09-08T18:52:04.459Z,,0,3,,5102.560000000056,response,ISIC_3180213.JPG,15,ISIC_0030407.JPG,ISIC_0030407.JPG,false,0,keypress(z),500,530799,530799,525695.7,525698,525696.44,530801.4,8,400,25,,ISIC_3180213.JPG
break,html.Screen,4_124_1,2023-09-08T18:52:04.460Z,,0,,,NaN,,,,,,false,,,,530801,530800,,530800,,530801.4,8,400,,,
break_continue,html.Screen,4_124_2,2023-09-08T18:52:04.461Z,,0,,,NaN,,,,,,false,,,,530801,530801,,530801,,530801.4,8,400,,,
sequence,flow.Sequence,4_124,2023-09-08T18:52:04.462Z,,0,,,5104.560000000056,completion,,,,,false,,,,530802,530801,525695.7,525698,525696.44,530801.4,8,400,,,
trial,html.Screen,4_125_0,2023-09-08T18:52:07.811Z,,0,3,,3349.5999999999767,response,ISIC_0058926.JPG,30,ISIC_3624318.JPG,ISIC_3624318.JPG,false,0,keypress(z),500,534151,534151,530799.46,530802,530801.4,534152.68,8,400,26,,ISIC_0058926.JPG
break,html.Screen,4_125_1,2023-09-08T18:52:07.813Z,,0,,,NaN,,,,,,false,,,,534153,534153,,534152,,534152.68,8,400,,,
break_continue,html.Screen,4_125_2,2023-09-08T18:52:07.813Z,,0,,,NaN,,,,,,false,,,,534154,534154,,534153,,534152.68,8,400,,,
sequence,flow.Sequence,4_125,2023-09-08T18:52:07.814Z,,0,,,3352.5999999999767,completion,,,,,false,,,,534154,534154,530799.46,530802,530801.4,534152.68,8,400,,,
trial,html.Screen,4_126_0,2023-09-08T18:52:12.293Z,,0,3,,4479.319999999949,response,ISIC_0068217.JPG,1,ISIC_0070003.JPG,ISIC_0068217.JPG,false,1,keypress(m),500,538633,538632,534151.98,534154,534152.68,538634.04,8,400,27,,ISIC_0070003.JPG
break,html.Screen,4_126_1,2023-09-08T18:52:12.294Z,,0,,,NaN,,,,,,false,,,,538634,538634,,538633,,538634.04,8,400,,,
break_continue,html.Screen,4_126_2,2023-09-08T18:52:12.295Z,,0,,,NaN,,,,,,false,,,,538635,538635,,538634,,538634.04,8,400,,,
sequence,flow.Sequence,4_126,2023-09-08T18:52:12.295Z,,0,,,4482.319999999949,completion,,,,,false,,,,538635,538635,534151.98,534154,534152.68,538634.04,8,400,,,
trial,html.Screen,4_127_0,2023-09-08T18:52:15.918Z,,0,3,,3623.9599999999627,response,ISIC_7783346.JPG,11,ISIC_0057015.JPG,ISIC_7783346.JPG,false,1,keypress(m),500,542258,542258,538633.34,538635,538634.04,542264.18,8,400,28,,ISIC_0057015.JPG
break,html.Screen,4_127_1,2023-09-08T18:52:15.920Z,,0,,,NaN,,,,,,false,,,,542260,542259,,542258,,542264.18,8,400,,,
break_continue,html.Screen,4_127_2,2023-09-08T18:52:15.920Z,,0,,,NaN,,,,,,false,,,,542261,542261,,542261,,542264.18,8,400,,,
sequence,flow.Sequence,4_127,2023-09-08T18:52:15.921Z,,0,,,3626.9599999999627,completion,,,,,false,,,,542261,542261,538633.34,538635,538634.04,542264.18,8,400,,,
trial,html.Screen,4_128_0,2023-09-08T18:52:23.070Z,,0,3,,7145.819999999949,response,ISIC_0067318.JPG,11,ISIC_0033713.JPG,ISIC_0033713.JPG,false,0,keypress(z),500,549411,549410,542258.92,542261,542264.18,549411.16,8,400,29,,ISIC_0067318.JPG
break,html.Screen,4_128_1,2023-09-08T18:52:23.071Z,,0,,,NaN,,,,,,false,,,,549412,549411,,549411,,549411.16,8,400,,,
break_continue,html.Screen,4_128_2,2023-09-08T18:52:23.072Z,,0,,,NaN,,,,,,false,,,,549413,549412,,549412,,549411.16,8,400,,,
sequence,flow.Sequence,4_128,2023-09-08T18:52:23.072Z,,0,,,7147.819999999949,completion,,,,,false,,,,549413,549412,542258.92,542261,542264.18,549411.16,8,400,,,
trial,html.Screen,4_129_0,2023-09-08T18:52:26.251Z,,0,3,,3180.8399999999674,response,ISIC_9114539.JPG,30,ISIC_9088073.JPG,ISIC_9088073.JPG,false,0,keypress(z),500,552592,552592,549410.44,549413,549411.16,552594.02,8,400,30,,ISIC_9114539.JPG
break,html.Screen,4_129_1,2023-09-08T18:52:26.252Z,,0,,,NaN,,,,,,false,,,,552593,552593,,552592,,552594.02,8,400,,,
break_continue,html.Screen,4_129_2,2023-09-08T18:52:26.253Z,,0,,,NaN,,,,,,false,,,,552594,552594,,552594,,552594.02,8,400,,,
sequence,flow.Sequence,4_129,2023-09-08T18:52:26.254Z,,0,,,3182.8399999999674,completion,,,,,false,,,,552595,552594,549410.44,549413,549411.16,552594.02,8,400,,,
trial,html.Screen,4_130_0,2023-09-08T18:52:29.342Z,,0,3,,3087.9799999999814,response,ISIC_0031629.JPG,2,ISIC_2784686.JPG,ISIC_2784686.JPG,false,0,keypress(z),500,555683,555682,552592.06,552595,552594.02,555683.52,8,400,31,,ISIC_0031629.JPG
break,html.Screen,4_130_1,2023-09-08T18:52:29.343Z,,0,,,NaN,,,,,,false,,,,555683,555683,,555683,,555683.52,8,400,,,
break_continue,html.Screen,4_130_2,2023-09-08T18:52:29.344Z,,0,,,NaN,,,,,,false,,,,555684,555684,,555683,,555683.52,8,400,,,
sequence,flow.Sequence,4_130,2023-09-08T18:52:29.344Z,,0,,,3089.9799999999814,completion,,,,,false,,,,555684,555684,552592.06,552595,552594.02,555683.52,8,400,,,
trial,html.Screen,4_131_0,2023-09-08T18:52:32.258Z,,0,3,,2914.4799999999814,response,ISIC_4906385.JPG,17,ISIC_0360988.JPG,ISIC_0360988.JPG,false,0,keypress(z),500,558598,558598,555683.06,555684,555683.52,558599.32,8,400,32,,ISIC_4906385.JPG
break,html.Screen,4_131_1,2023-09-08T18:52:32.259Z,,0,,,NaN,,,,,,false,,,,558599,558599,,558598,,558599.32,8,400,,,
break_continue,html.Screen,4_131_2,2023-09-08T18:52:32.260Z,,0,,,NaN,,,,,,false,,,,558600,558600,,558599,,558599.32,8,400,,,
sequence,flow.Sequence,4_131,2023-09-08T18:52:32.261Z,,0,,,2916.4799999999814,completion,,,,,false,,,,558600,558600,555683.06,555684,555683.52,558599.32,8,400,,,
trial,html.Screen,4_132_0,2023-09-08T18:52:35.268Z,,0,3,,3008.680000000051,response,ISIC_0758797.JPG,2,ISIC_0033122.JPG,ISIC_0758797.JPG,false,1,keypress(m),500,561608,561608,558598.6,558601,558599.32,561609.36,8,400,33,,ISIC_0033122.JPG
break,html.Screen,4_132_1,2023-09-08T18:52:35.269Z,,0,,,NaN,,,,,,false,,,,561609,561609,,561609,,561609.36,8,400,,,
break_continue,html.Screen,4_132_2,2023-09-08T18:52:35.270Z,,0,,,NaN,,,,,,false,,,,561610,561610,,561610,,561609.36,8,400,,,
sequence,flow.Sequence,4_132,2023-09-08T18:52:35.271Z,,0,,,3010.680000000051,completion,,,,,false,,,,561611,561610,558598.6,558601,558599.32,561609.36,8,400,,,
trial,html.Screen,4_133_0,2023-09-08T18:52:38.179Z,,0,3,,2908.640000000014,response,ISIC_0071901.JPG,4,ISIC_0012260.JPG,ISIC_0012260.JPG,false,0,keypress(z),500,564519,564518,561608.64,561611,561609.36,564523.24,8,400,34,,ISIC_0071901.JPG
break,html.Screen,4_133_1,2023-09-08T18:52:38.180Z,,0,,,NaN,,,,,,false,,,,564520,564520,,564519,,564523.24,8,400,,,
break_continue,html.Screen,4_133_2,2023-09-08T18:52:38.181Z,,0,,,NaN,,,,,,false,,,,564521,564521,,564520,,564523.24,8,400,,,
sequence,flow.Sequence,4_133,2023-09-08T18:52:38.181Z,,0,,,2911.640000000014,completion,,,,,false,,,,564521,564521,561608.64,561611,561609.36,564523.24,8,400,,,
trial,html.Screen,4_134_0,2023-09-08T18:52:42.532Z,,0,3,,4348.760000000009,response,ISIC_8479104.JPG,13,ISIC_1113629.JPG,ISIC_8479104.JPG,false,1,keypress(m),500,568872,568872,564518.76,564521,564523.24,568873.04,8,400,35,,ISIC_1113629.JPG
break,html.Screen,4_134_1,2023-09-08T18:52:42.533Z,,0,,,NaN,,,,,,false,,,,568873,568873,,568872,,568873.04,8,400,,,
break_continue,html.Screen,4_134_2,2023-09-08T18:52:42.533Z,,0,,,NaN,,,,,,false,,,,568874,568873,,568873,,568873.04,8,400,,,
sequence,flow.Sequence,4_134,2023-09-08T18:52:42.533Z,,0,,,4349.760000000009,completion,,,,,false,,,,568874,568873,564518.76,564521,564523.24,568873.04,8,400,,,
trial,html.Screen,4_135_0,2023-09-08T18:52:47.505Z,,0,3,,4971.959999999963,response,ISIC_4894802.JPG,15,ISIC_9301809.JPG,ISIC_9301809.JPG,false,0,keypress(z),500,573846,573845,568872.48,568874,568873.04,573846.12,8,400,36,,ISIC_4894802.JPG
break,html.Screen,4_135_1,2023-09-08T18:52:47.506Z,,0,,,NaN,,,,,,false,,,,573847,573846,,573846,,573846.12,8,400,,,
break_continue,html.Screen,4_135_2,2023-09-08T18:52:47.507Z,,0,,,NaN,,,,,,false,,,,573847,573847,,573847,,573846.12,8,400,,,
sequence,flow.Sequence,4_135,2023-09-08T18:52:47.507Z,,0,,,4973.959999999963,completion,,,,,false,,,,573847,573847,568872.48,568874,568873.04,573846.12,8,400,,,
trial,html.Screen,4_136_0,2023-09-08T18:52:52.760Z,,0,3,,5253.880000000005,response,ISIC_0061583.JPG,15,ISIC_9543945.JPG,ISIC_9543945.JPG,false,0,keypress(z),500,579101,579100,573845.68,573847,573846.12,579101.32,8,400,37,,ISIC_0061583.JPG
break,html.Screen,4_136_1,2023-09-08T18:52:52.761Z,,0,,,NaN,,,,,,false,,,,579102,579102,,579101,,579101.32,8,400,,,
break_continue,html.Screen,4_136_2,2023-09-08T18:52:52.762Z,,0,,,NaN,,,,,,false,,,,579102,579102,,579102,,579101.32,8,400,,,
sequence,flow.Sequence,4_136,2023-09-08T18:52:52.762Z,,0,,,5255.880000000005,completion,,,,,false,,,,579102,579102,573845.68,573847,573846.12,579101.32,8,400,,,
trial,html.Screen,4_137_0,2023-09-08T18:52:56.373Z,,0,3,,3611.680000000051,response,ISIC_0012653.JPG,13,ISIC_8642938.JPG,ISIC_8642938.JPG,false,0,keypress(z),500,582713,582713,579100.6,579102,579101.32,582717.12,8,400,38,,ISIC_0012653.JPG
break,html.Screen,4_137_1,2023-09-08T18:52:56.374Z,,0,,,NaN,,,,,,false,,,,582715,582714,,582713,,582717.12,8,400,,,
break_continue,html.Screen,4_137_2,2023-09-08T18:52:56.375Z,,0,,,NaN,,,,,,false,,,,582715,582715,,582715,,582717.12,8,400,,,
sequence,flow.Sequence,4_137,2023-09-08T18:52:56.375Z,,0,,,3613.680000000051,completion,,,,,false,,,,582716,582715,579100.6,579102,579101.32,582717.12,8,400,,,
trial,html.Screen,4_138_0,2023-09-08T18:53:00.811Z,,0,3,,4434.880000000005,response,ISIC_0070588.JPG,14,ISIC_0065204.JPG,ISIC_0065204.JPG,false,0,keypress(z),500,587152,587152,582713.24,582716,582717.12,587153.04,8,400,39,,ISIC_0070588.JPG
break,html.Screen,4_138_1,2023-09-08T18:53:00.812Z,,0,,,NaN,,,,,,false,,,,587153,587153,,587152,,587153.04,8,400,,,
break_continue,html.Screen,4_138_2,2023-09-08T18:53:00.814Z,,0,,,NaN,,,,,,false,,,,587154,587154,,587154,,587153.04,8,400,,,
sequence,flow.Sequence,4_138,2023-09-08T18:53:00.814Z,,0,,,4436.880000000005,completion,,,,,false,,,,587154,587154,582713.24,582716,582717.12,587153.04,8,400,,,
trial,html.Screen,4_139_0,2023-09-08T18:53:05.133Z,,0,3,,4318.959999999963,response,ISIC_0059341.JPG,20,ISIC_0024585.JPG,ISIC_0024585.JPG,false,0,keypress(z),500,591473,591472,587152.2,587154,587153.04,591473.62,8,400,40,,ISIC_0059341.JPG
break,html.Screen,4_139_1,2023-09-08T18:53:05.133Z,,0,,,NaN,,,,,,false,,,,591473,591473,,591473,,591473.62,8,400,,,
break_continue,html.Screen,4_139_2,2023-09-08T18:53:05.134Z,,0,,,NaN,,,,,,false,,,,591474,591474,,591474,,591473.62,8,400,,,
sequence,flow.Sequence,4_139,2023-09-08T18:53:05.135Z,,0,,,4320.959999999963,completion,,,,,false,,,,591474,591474,587152.2,587154,587153.04,591473.62,8,400,,,
trial,html.Screen,4_140_0,2023-09-08T18:53:09.802Z,,0,3,,4668.380000000005,response,ISIC_8194467.JPG,1,ISIC_8634334.JPG,ISIC_8634334.JPG,false,0,keypress(z),500,596143,596142,591473.06,591474,591473.62,596145.92,8,400,41,,ISIC_8194467.JPG
break,html.Screen,4_140_1,2023-09-08T18:53:09.803Z,,0,,,NaN,,,,,,false,,,,596144,596144,,596143,,596145.92,8,400,,,
break_continue,html.Screen,4_140_2,2023-09-08T18:53:09.804Z,,0,,,NaN,,,,,,false,,,,596145,596145,,596144,,596145.92,8,400,,,
sequence,flow.Sequence,4_140,2023-09-08T18:53:09.805Z,,0,,,4671.380000000005,completion,,,,,false,,,,596145,596145,591473.06,591474,591473.62,596145.92,8,400,,,
trial,html.Screen,4_141_0,2023-09-08T18:53:13.903Z,,0,3,,4096.079999999958,response,ISIC_0025489.JPG,13,ISIC_9667297.JPG,ISIC_9667297.JPG,false,0,keypress(z),500,600242,600242,596142.56,596145,596145.92,600244.52,8,400,42,,ISIC_0025489.JPG
break,html.Screen,4_141_1,2023-09-08T18:53:13.903Z,,0,,,NaN,,,,,,false,,,,600244,600243,,600243,,600244.52,8,400,,,
break_continue,html.Screen,4_141_2,2023-09-08T18:53:13.905Z,,0,,,NaN,,,,,,false,,,,600245,600244,,600244,,600244.52,8,400,,,
sequence,flow.Sequence,4_141,2023-09-08T18:53:13.905Z,,0,,,4098.079999999958,completion,,,,,false,,,,600245,600244,596142.56,596145,596145.92,600244.52,8,400,,,
trial,html.Screen,4_142_0,2023-09-08T18:53:17.452Z,,0,3,,3547.4799999999814,response,ISIC_8916136.JPG,0,ISIC_0056391.JPG,ISIC_8916136.JPG,false,1,keypress(m),500,603792,603792,600242.76,600246,600244.52,603792.86,8,400,43,,ISIC_0056391.JPG
break,html.Screen,4_142_1,2023-09-08T18:53:17.453Z,,0,,,NaN,,,,,,false,,,,603793,603793,,603793,,603792.86,8,400,,,
break_continue,html.Screen,4_142_2,2023-09-08T18:53:17.453Z,,0,,,NaN,,,,,,false,,,,603793,603793,,603793,,603792.86,8,400,,,
sequence,flow.Sequence,4_142,2023-09-08T18:53:17.453Z,,0,,,3548.4799999999814,completion,,,,,false,,,,603794,603793,600242.76,600245,600244.52,603792.86,8,400,,,
trial,html.Screen,4_143_0,2023-09-08T18:53:21.212Z,,0,3,,3759.140000000014,response,ISIC_7919133.JPG,5,ISIC_0027936.JPG,ISIC_7919133.JPG,false,1,keypress(m),500,607552,607552,603792.14,603794,603792.86,607553.46,8,400,44,,ISIC_0027936.JPG
break,html.Screen,4_143_1,2023-09-08T18:53:21.214Z,,0,,,NaN,,,,,,false,,,,607554,607553,,607552,,607553.46,8,400,,,
break_continue,html.Screen,4_143_2,2023-09-08T18:53:21.214Z,,0,,,NaN,,,,,,false,,,,607554,607554,,607554,,607553.46,8,400,,,
sequence,flow.Sequence,4_143,2023-09-08T18:53:21.215Z,,0,,,3761.140000000014,completion,,,,,false,,,,607555,607554,603792.14,603794,603792.86,607553.46,8,400,,,
trial,html.Screen,4_144_0,2023-09-08T18:53:25.280Z,,0,3,,4066.5400000000373,response,ISIC_0004140.JPG,3,ISIC_0069361.JPG,ISIC_0004140.JPG,false,1,keypress(m),500,611621,611620,607552.72,607555,607553.46,611623.96,8,400,45,,ISIC_0069361.JPG
break,html.Screen,4_144_1,2023-09-08T18:53:25.282Z,,0,,,NaN,,,,,,false,,,,611622,611622,,611621,,611623.96,8,400,,,
break_continue,html.Screen,4_144_2,2023-09-08T18:53:25.282Z,,0,,,NaN,,,,,,false,,,,611623,611623,,611622,,611623.96,8,400,,,
sequence,flow.Sequence,4_144,2023-09-08T18:53:25.282Z,,0,,,4069.5400000000373,completion,,,,,false,,,,611623,611623,607552.72,607555,607553.46,611623.96,8,400,,,
trial,html.Screen,4_145_0,2023-09-08T18:53:28.587Z,,0,3,,3303.0400000000373,response,ISIC_0054248.JPG,4,ISIC_9842269.JPG,ISIC_9842269.JPG,false,0,keypress(z),500,614927,614927,611620.58,611623,611623.96,614927.72,8,400,46,,ISIC_0054248.JPG
break,html.Screen,4_145_1,2023-09-08T18:53:28.588Z,,0,,,NaN,,,,,,false,,,,614928,614928,,614927,,614927.72,8,400,,,
break_continue,html.Screen,4_145_2,2023-09-08T18:53:28.589Z,,0,,,NaN,,,,,,false,,,,614929,614928,,614928,,614927.72,8,400,,,
sequence,flow.Sequence,4_145,2023-09-08T18:53:28.589Z,,0,,,3304.0400000000373,completion,,,,,false,,,,614929,614928,611620.58,611623,611623.96,614927.72,8,400,,,
trial,html.Screen,4_146_0,2023-09-08T18:53:31.554Z,,0,3,,2966.280000000028,response,ISIC_0053763.JPG,19,ISIC_3213469.JPG,ISIC_3213469.JPG,false,0,keypress(z),500,617894,617894,614927,614929,614927.72,617895.14,8,400,47,,ISIC_0053763.JPG
break,html.Screen,4_146_1,2023-09-08T18:53:31.556Z,,0,,,NaN,,,,,,false,,,,617895,617895,,617894,,617895.14,8,400,,,
break_continue,html.Screen,4_146_2,2023-09-08T18:53:31.556Z,,0,,,NaN,,,,,,false,,,,617896,617896,,617895,,617895.14,8,400,,,
sequence,flow.Sequence,4_146,2023-09-08T18:53:31.557Z,,0,,,2968.280000000028,completion,,,,,false,,,,617896,617896,614927,614929,614927.72,617895.14,8,400,,,
trial,html.Screen,4_147_0,2023-09-08T18:53:34.408Z,,0,3,,2852.859999999986,response,ISIC_9141065.JPG,5,ISIC_0025755.JPG,ISIC_9141065.JPG,false,1,keypress(m),500,620749,620748,617894.42,617896,617895.14,620749.96,8,400,48,,ISIC_0025755.JPG
break,html.Screen,4_147_1,2023-09-08T18:53:34.410Z,,0,,,NaN,,,,,,false,,,,620750,620750,,620749,,620749.96,8,400,,,
break_continue,html.Screen,4_147_2,2023-09-08T18:53:34.410Z,,0,,,NaN,,,,,,false,,,,620751,620751,,620750,,620749.96,8,400,,,
sequence,flow.Sequence,4_147,2023-09-08T18:53:34.411Z,,0,,,2855.859999999986,completion,,,,,false,,,,620751,620751,617894.42,617896,617895.14,620749.96,8,400,,,
trial,html.Screen,4_148_0,2023-09-08T18:53:38.235Z,,0,3,,3825.0400000000373,response,ISIC_0033569.JPG,1,ISIC_6676776.JPG,ISIC_6676776.JPG,false,0,keypress(z),500,624575,624575,620749.22,620751,620749.96,624576.06,8,400,49,,ISIC_0033569.JPG
break,html.Screen,4_148_1,2023-09-08T18:53:38.237Z,,0,,,NaN,,,,,,false,,,,624576,624576,,624575,,624576.06,8,400,,,
break_continue,html.Screen,4_148_2,2023-09-08T18:53:38.237Z,,0,,,NaN,,,,,,false,,,,624577,624576,,624576,,624576.06,8,400,,,
sequence,flow.Sequence,4_148,2023-09-08T18:53:38.237Z,,0,,,3826.0400000000373,completion,,,,,false,,,,624577,624576,620749.22,620751,620749.96,624576.06,8,400,,,
trial,html.Screen,4_149_0,2023-09-08T18:53:42.513Z,,0,3,,4276.939999999944,response,ISIC_4603706.JPG,0,ISIC_0004679.JPG,ISIC_4603706.JPG,false,1,keypress(m),500,628853,628853,624575.36,624577,624576.06,628853.66,8,400,50,,ISIC_0004679.JPG
break,html.Screen,4_149_1,2023-09-08T18:53:52.492Z,,0,,,9994.29999999993,timeout,,,,,false,,,,638833,638831.3,628853.16,628853,628853.66,638847.96,8,400,,,
break_continue,html.Screen,4_149_2,2023-09-08T18:53:53.191Z,,0,,,654.0400000000373,response,,,,,false,continue,keypress(Space),,639532,639502,638831.3,638833,638847.96,639532.18,8,400,,,
sequence,flow.Sequence,4_149,2023-09-08T18:53:53.192Z,,0,,,14925.939999999944,completion,,,,,false,,,,639532,639502,624575.36,624577,624576.06,639532.18,8,400,,,
trial,html.Screen,4_150_0,2023-09-08T18:53:56.886Z,,0,4,,3694.819999999949,response,ISIC_6449065.JPG,6,ISIC_2680640.JPG,ISIC_2680640.JPG,false,0,keypress(z),500,643227,643227,639531.88,639532,639532.18,643229.9,8,400,1,,ISIC_6449065.JPG
break,html.Screen,4_150_1,2023-09-08T18:53:56.888Z,,0,,,NaN,,,,,,false,,,,643228,643228,,643227,,643229.9,8,400,,,
