sender,sender_type,sender_id,timestamp,meta,,blockNo,condition,duration,ended_on,img_left,img_reveal,img_right,loser,practice,response,response_action,selection_duration,time_commit,time_end,time_render,time_run,time_show,time_switch,total_blocks,total_trials,trialNo,url,winner
informed_consent,html.Screen,0,2023-11-06T21:06:00.551Z,"{""labjs_version"":""20.2.4"",""labjs_build"":{""flavor"":""production"",""commit"":""f5b4a49f956347addd546a832a3327688c2c0fef""},""location"":""https://run.pavlovia.org/MurrayBennett/melanoma-2afc/?participant=65637&platform=sona"",""userAgent"":""Mozilla/5.0 (Macintosh; Intel Mac OS X 10_15_7) AppleWebKit/537.36 (KHTML, like Gecko) Chrome/118.0.0.0 Safari/537.36"",""platform"":""MacIntel"",""language"":""en-US"",""locale"":""en-US"",""timeZone"":""America/Chicago"",""timezoneOffset"":360,""screen_width"":1440,""screen_height"":900,""scroll_width"":1440,""scroll_height"":735,""window_innerWidth"":1440,""window_innerHeight"":783,""devicePixelRatio"":1}",,,,2407.722000011921,response,,,,,,consent,click button,,4736.70000000298,4724.300000011921,2299.911,2311,2316.578,4783.294,,,,"{""participant"":""65637"",""platform"":""sona""}",
Welcome,html.Screen,1,2023-11-06T21:06:03.533Z,,,,uniform,2911.006000011921,response,,,,,,continue,click button,,7718.70000000298,7694.300000011921,4733.293,4737.20000000298,4783.294,7733.353,,,,,
trial,html.Screen,2_0_0,2023-11-06T21:06:08.628Z,,0,0,,5079.947000011921,response,ISIC_0025593.JPG,,ISIC_0063388.JPG,ISIC_0063388.JPG,true,0,keypress(z),500,12813.60000000894,12813.300000011921,7716.686,7719.100000008941,7733.353,12817.277,1,6,1,,ISIC_0025593.JPG
sequence,flow.Sequence,2_0,2023-11-06T21:06:08.628Z,,0,,,5079.947000011921,completion,,,,,true,,,,12813.800000011921,12813.300000011921,7716.686,7719.100000008941,7733.353,12817.277,1,6,,,
trial,html.Screen,2_1_0,2023-11-06T21:06:14.663Z,,0,0,,6030.62300000596,response,ISIC_0028178.JPG,,ISIC_1309015.JPG,ISIC_0028178.JPG,true,1,keypress(m),500,18848.20000000298,18847.90000000596,12800.61,12813.90000000596,12817.277,18850.731,1,6,2,,ISIC_1309015.JPG
sequence,flow.Sequence,2_1,2023-11-06T21:06:14.663Z,,0,,,6030.62300000596,completion,,,,,true,,,,18848.5,18847.90000000596,12800.61,12813.90000000596,12817.277,18850.731,1,6,,,
trial,html.Screen,2_2_0,2023-11-06T21:06:20.653Z,,0,0,,5986.769,response,ISIC_3314853.JPG,,ISIC_0031128.JPG,ISIC_3314853.JPG,true,1,keypress(m),500,24837.80000001192,24837.5,18834.064,18848.70000000298,18850.731,24851.421,1,6,3,,ISIC_0031128.JPG
sequence,flow.Sequence,2_2,2023-11-06T21:06:20.653Z,,0,,,5986.769,completion,,,,,true,,,,24838.10000000894,24837.5,18834.064,18848.60000000894,18850.731,24851.421,1,6,,,
trial,html.Screen,2_3_0,2023-11-06T21:06:25.604Z,,0,0,,4937.0790000000015,response,ISIC_8980141.JPG,,ISIC_0031612.JPG,ISIC_0031612.JPG,true,0,keypress(z),500,29788.80000001192,29788.5,24834.754,24838.60000000894,24851.421,29801.52,1,6,4,,ISIC_8980141.JPG
sequence,flow.Sequence,2_3,2023-11-06T21:06:25.604Z,,0,,,4937.0790000000015,completion,,,,,true,,,,29789.20000000298,29788.5,24834.754,24838.5,24851.421,29801.52,1,6,,,
trial,html.Screen,2_4_0,2023-11-06T21:06:30.188Z,,0,0,,4571.08000000894,response,ISIC_1197737.JPG,,ISIC_9721604.JPG,ISIC_1197737.JPG,true,1,keypress(m),500,34373,34372.60000000894,29784.853,29789.40000000596,29801.52,34384.945,1,6,5,,ISIC_9721604.JPG
sequence,flow.Sequence,2_4,2023-11-06T21:06:30.189Z,,0,,,4571.08000000894,completion,,,,,true,,,,34373.5,34372.60000000894,29784.853,29789.40000000596,29801.52,34384.945,1,6,,,
trial,html.Screen,2_5_0,2023-11-06T21:06:33.233Z,,0,0,,3032.9550000059608,response,ISIC_0010681.JPG,,ISIC_0025346.JPG,ISIC_0025346.JPG,true,0,keypress(z),500,37418.20000000298,37417.90000000596,34368.278,34373.80000001192,34384.945,37435.483,1,6,6,,ISIC_0010681.JPG
sequence,flow.Sequence,2_5,2023-11-06T21:06:33.234Z,,0,,,3032.9550000059608,completion,,,,,true,,,,37418.70000000298,37417.90000000596,34368.278,34373.70000000298,34384.945,37435.483,1,6,,,
loop,flow.Loop,2,2023-11-06T21:06:33.234Z,,,,,29684.54700000596,completion,,,,,true,,,,37419,37417.90000000596,7716.686,7719,7733.353,37435.483,1,6,,,
exp_instructions,html.Screen,3,2023-11-06T21:06:45.778Z,,,,,12517.91700000596,response,,,,,,continue,keypress(Space),,49962.70000000298,49953.40000000596,37418.816,37419.10000000894,37435.483,49969.067,,,,,
trial,html.Screen,4_0_0,2023-11-06T21:06:51.928Z,,0,1,,6142.932999999997,response,ISIC_8635849.JPG,7,ISIC_7330564.JPG,ISIC_8635849.JPG,false,1,keypress(m),500,56112.20000000298,56112,49952.4,49963.30000001192,49969.067,56119.93,8,400,1,,ISIC_7330564.JPG
break,html.Screen,4_0_1,2023-11-06T21:06:51.929Z,,0,,,NaN,,,,,,false,,,,56113.60000000894,56113.10000000894,,56112.5,,56119.93,8,400,,,
break_continue,html.Screen,4_0_2,2023-11-06T21:06:51.930Z,,0,,,NaN,,,,,,false,,,,56114.30000001192,56114.10000000894,,56113.80000001192,,56119.93,8,400,,,
sequence,flow.Sequence,4_0,2023-11-06T21:06:51.930Z,,0,,,6145.033000008938,completion,,,,,false,,,,56114.5,56114.10000000894,49952.4,49963.30000001192,49969.067,56119.93,8,400,,,
trial,html.Screen,4_1_0,2023-11-06T21:06:59.486Z,,0,1,,7549.77000000298,response,ISIC_0054670.JPG,5,ISIC_0065943.JPG,ISIC_0054670.JPG,false,1,keypress(m),500,63669.90000000596,63669.70000000298,56103.263,56114.80000001192,56119.93,63687.375,8,400,2,,ISIC_0065943.JPG
break,html.Screen,4_1_1,2023-11-06T21:06:59.487Z,,0,,,NaN,,,,,,false,,,,63670.5,63670.40000000596,,63670.10000000894,,63687.375,8,400,,,
break_continue,html.Screen,4_1_2,2023-11-06T21:06:59.487Z,,0,,,NaN,,,,,,false,,,,63670.70000000298,63670.70000000298,,63670.60000000894,,63687.375,8,400,,,
sequence,flow.Sequence,4_1,2023-11-06T21:06:59.487Z,,0,,,7550.77000000298,completion,,,,,false,,,,63670.90000000596,63670.70000000298,56103.263,56114.80000001192,56119.93,63687.375,8,400,,,
trial,html.Screen,4_2_0,2023-11-06T21:07:04.002Z,,0,1,,4498.725000008941,response,ISIC_6663112.JPG,7,ISIC_0058676.JPG,ISIC_0058676.JPG,false,0,keypress(z),500,68186.20000000298,68186.10000000894,63670.708,63671,63687.375,68204.132,8,400,3,,ISIC_6663112.JPG
break,html.Screen,4_2_1,2023-11-06T21:07:04.003Z,,0,,,NaN,,,,,,false,,,,68186.90000000596,68186.70000000298,,68186.40000000596,,68204.132,8,400,,,
break_continue,html.Screen,4_2_2,2023-11-06T21:07:04.004Z,,0,,,NaN,,,,,,false,,,,68187.30000001192,68187.20000000298,,68187.10000000894,,68204.132,8,400,,,
sequence,flow.Sequence,4_2,2023-11-06T21:07:04.004Z,,0,,,4499.82500000298,completion,,,,,false,,,,68187.5,68187.20000000298,63670.708,63671,63687.375,68204.132,8,400,,,
trial,html.Screen,4_3_0,2023-11-06T21:07:08.856Z,,0,1,,4834.368000000002,response,ISIC_0033287.JPG,7,ISIC_0012434.JPG,ISIC_0033287.JPG,false,1,keypress(m),500,73039.90000000596,73038.5,68187.465,68187.60000000894,68204.132,73054.229,8,400,4,,ISIC_0012434.JPG
break,html.Screen,4_3_1,2023-11-06T21:07:08.857Z,,0,,,NaN,,,,,,false,,,,73040.70000000298,73040.5,,73040.10000000894,,73054.229,8,400,,,
break_continue,html.Screen,4_3_2,2023-11-06T21:07:08.858Z,,0,,,NaN,,,,,,false,,,,73041.30000001192,73041.10000000894,,73040.90000000596,,73054.229,8,400,,,
sequence,flow.Sequence,4_3,2023-11-06T21:07:08.858Z,,0,,,4836.968000008943,completion,,,,,false,,,,73041.40000000596,73041.10000000894,68187.465,68187.60000000894,68204.132,73054.229,8,400,,,
trial,html.Screen,4_4_0,2023-11-06T21:07:12.078Z,,0,1,,3206.7709999999934,response,ISIC_1690909.JPG,6,ISIC_4509525.JPG,ISIC_4509525.JPG,false,0,keypress(z),500,76261.20000000298,76261,73037.562,73041.60000000894,73054.229,76271.451,8,400,5,,ISIC_1690909.JPG
break,html.Screen,4_4_1,2023-11-06T21:07:12.079Z,,0,,,NaN,,,,,,false,,,,76262.40000000596,76262,,76261.5,,76271.451,8,400,,,
break_continue,html.Screen,4_4_2,2023-11-06T21:07:12.079Z,,0,,,NaN,,,,,,false,,,,76263,76262.90000000596,,76262.60000000894,,76271.451,8,400,,,
sequence,flow.Sequence,4_4,2023-11-06T21:07:12.080Z,,0,,,3208.671000005954,completion,,,,,false,,,,76263.30000001192,76262.90000000596,73037.562,73041.60000000894,73054.229,76271.451,8,400,,,
trial,html.Screen,4_5_0,2023-11-06T21:07:16.644Z,,0,1,,4555.4490000059595,response,ISIC_7231192.JPG,6,ISIC_2731621.JPG,ISIC_7231192.JPG,false,1,keypress(m),500,80827.10000000894,80826.90000000596,76254.784,76263.40000000596,76271.451,80838.209,8,400,6,,ISIC_2731621.JPG
break,html.Screen,4_5_1,2023-11-06T21:07:16.645Z,,0,,,NaN,,,,,,false,,,,80828.20000000298,80827.90000000596,,80827.40000000596,,80838.209,8,400,,,
break_continue,html.Screen,4_5_2,2023-11-06T21:07:16.645Z,,0,,,NaN,,,,,,false,,,,80828.70000000298,80828.5,,80828.30000001192,,80838.209,8,400,,,
sequence,flow.Sequence,4_5,2023-11-06T21:07:16.646Z,,0,,,4557.048999999999,completion,,,,,false,,,,80829,80828.5,76254.784,76263.40000000596,76271.451,80838.209,8,400,,,
trial,html.Screen,4_6_0,2023-11-06T21:07:20.217Z,,0,1,,3561.391000008938,response,ISIC_0034317.JPG,7,ISIC_0032604.JPG,ISIC_0032604.JPG,false,0,keypress(z),500,84399.90000000596,84399.60000000894,80821.542,80829.20000000298,80838.209,84405.439,8,400,7,,ISIC_0034317.JPG
break,html.Screen,4_6_1,2023-11-06T21:07:20.218Z,,0,,,NaN,,,,,,false,,,,84401,84400.60000000894,,84400.10000000894,,84405.439,8,400,,,
break_continue,html.Screen,4_6_2,2023-11-06T21:07:20.218Z,,0,,,NaN,,,,,,false,,,,84401.60000000894,84401.40000000596,,84401.10000000894,,84405.439,8,400,,,
sequence,flow.Sequence,4_6,2023-11-06T21:07:20.218Z,,0,,,3563.191000005958,completion,,,,,false,,,,84401.70000000298,84401.40000000596,80821.542,80829.10000000894,80838.209,84405.439,8,400,,,
trial,html.Screen,4_7_0,2023-11-06T21:07:24.238Z,,0,1,,4015.8610000119224,response,ISIC_0033479.JPG,6,ISIC_0058863.JPG,ISIC_0033479.JPG,false,1,keypress(m),500,88421.5,88421.30000001192,84388.772,84402,84405.439,88438.853,8,400,8,,ISIC_0058863.JPG
break,html.Screen,4_7_1,2023-11-06T21:07:24.239Z,,0,,,NaN,,,,,,false,,,,88422.60000000894,88422.20000000298,,88421.80000001192,,88438.853,8,400,,,
break_continue,html.Screen,4_7_2,2023-11-06T21:07:24.240Z,,0,,,NaN,,,,,,false,,,,88423.30000001192,88423.20000000298,,88422.80000001192,,88438.853,8,400,,,
sequence,flow.Sequence,4_7,2023-11-06T21:07:24.240Z,,0,,,4017.7610000029817,completion,,,,,false,,,,88423.5,88423.20000000298,84388.772,84401.90000000596,84405.439,88438.853,8,400,,,
trial,html.Screen,4_8_0,2023-11-06T21:07:29.655Z,,0,1,,5399.347000002977,response,ISIC_2486088.JPG,7,ISIC_8775014.JPG,ISIC_8775014.JPG,false,0,keypress(z),500,93838.5,93838.20000000298,88422.186,88423.80000001192,88438.853,93855.628,8,400,9,,ISIC_2486088.JPG
break,html.Screen,4_8_1,2023-11-06T21:07:29.657Z,,0,,,NaN,,,,,,false,,,,93839.60000000894,93839.30000001192,,93838.70000000298,,93855.628,8,400,,,
break_continue,html.Screen,4_8_2,2023-11-06T21:07:29.657Z,,0,,,NaN,,,,,,false,,,,93840.10000000894,93840,,93839.80000001192,,93855.628,8,400,,,
sequence,flow.Sequence,4_8,2023-11-06T21:07:29.657Z,,0,,,5401.146999999997,completion,,,,,false,,,,93840.30000001192,93840,88422.186,88423.70000000298,88438.853,93855.628,8,400,,,
trial,html.Screen,4_9_0,2023-11-06T21:07:34.171Z,,0,1,,4498.172000011924,response,ISIC_0806138.JPG,6,ISIC_5584185.JPG,ISIC_0806138.JPG,false,1,keypress(m),500,98354,98353.80000001192,93838.961,93840.5,93855.628,98372.876,8,400,10,,ISIC_5584185.JPG
break,html.Screen,4_9_1,2023-11-06T21:07:34.172Z,,0,,,NaN,,,,,,false,,,,98355,98354.70000000298,,98354.30000001192,,98372.876,8,400,,,
break_continue,html.Screen,4_9_2,2023-11-06T21:07:34.173Z,,0,,,NaN,,,,,,false,,,,98355.5,98355.30000001192,,98355.20000000298,,98372.876,8,400,,,
sequence,flow.Sequence,4_9,2023-11-06T21:07:34.173Z,,0,,,4499.672000011924,completion,,,,,false,,,,98355.70000000298,98355.30000001192,93838.961,93840.40000000596,93855.628,98372.876,8,400,,,
trial,html.Screen,4_10_0,2023-11-06T21:07:38.064Z,,0,1,,3873.224000008937,response,ISIC_0005769.JPG,7,ISIC_0026595.JPG,ISIC_0026595.JPG,false,0,keypress(z),500,102246.40000000596,102246.10000000894,98356.209,98355.80000001192,98372.876,102256.287,8,400,11,,ISIC_0005769.JPG
break,html.Screen,4_10_1,2023-11-06T21:07:38.065Z,,0,,,NaN,,,,,,false,,,,102248.10000000894,102247.5,,102246.70000000298,,102256.287,8,400,,,
break_continue,html.Screen,4_10_2,2023-11-06T21:07:38.066Z,,0,,,NaN,,,,,,false,,,,102248.80000001192,102248.60000000894,,102248.30000001192,,102256.287,8,400,,,
sequence,flow.Sequence,4_10,2023-11-06T21:07:38.066Z,,0,,,3875.724000008937,completion,,,,,false,,,,102249,102248.60000000894,98356.209,98355.80000001192,98372.876,102256.287,8,400,,,
trial,html.Screen,4_11_0,2023-11-06T21:07:42.038Z,,0,1,,3964.2130000000034,response,ISIC_0033204.JPG,5,ISIC_3989526.JPG,ISIC_0033204.JPG,false,1,keypress(m),500,106220.80000001192,106220.5,102239.62,102249.20000000298,102256.287,106223.578,8,400,12,,ISIC_3989526.JPG
break,html.Screen,4_11_1,2023-11-06T21:07:42.039Z,,0,,,NaN,,,,,,false,,,,106221.80000001192,106221.5,,106221,,106223.578,8,400,,,
break_continue,html.Screen,4_11_2,2023-11-06T21:07:42.040Z,,0,,,NaN,,,,,,false,,,,106222.40000000596,106222.20000000298,,106222,,106223.578,8,400,,,
sequence,flow.Sequence,4_11,2023-11-06T21:07:42.040Z,,0,,,3965.9130000029836,completion,,,,,false,,,,106222.5,106222.20000000298,102239.62,102249.10000000894,102256.287,106223.578,8,400,,,
trial,html.Screen,4_12_0,2023-11-06T21:07:46.221Z,,0,1,,4179.722000011927,response,ISIC_0013457.JPG,6,ISIC_0064879.JPG,ISIC_0064879.JPG,false,0,keypress(z),500,110403.5,110403.30000001192,106206.911,106222.80000001192,106223.578,110406.995,8,400,13,,ISIC_0013457.JPG
break,html.Screen,4_12_1,2023-11-06T21:07:46.222Z,,0,,,NaN,,,,,,false,,,,110404.60000000894,110404.30000001192,,110403.80000001192,,110406.995,8,400,,,
break_continue,html.Screen,4_12_2,2023-11-06T21:07:46.223Z,,0,,,NaN,,,,,,false,,,,110405.20000000298,110405.10000000894,,110404.80000001192,,110406.995,8,400,,,
sequence,flow.Sequence,4_12,2023-11-06T21:07:46.224Z,,0,,,4181.522000008947,completion,,,,,false,,,,110406.70000000298,110405.10000000894,106206.911,106222.60000000894,106223.578,110406.995,8,400,,,
trial,html.Screen,4_13_0,2023-11-06T21:07:50.824Z,,0,1,,4599.005000000005,response,ISIC_0011858.JPG,8,ISIC_0064669.JPG,ISIC_0011858.JPG,false,1,keypress(m),500,115006.80000001192,115006,110390.328,110407,110406.995,115023.754,8,400,14,,ISIC_0064669.JPG
break,html.Screen,4_13_1,2023-11-06T21:07:50.826Z,,0,,,NaN,,,,,,false,,,,115008.40000000596,115008.10000000894,,115007.30000001192,,115023.754,8,400,,,
break_continue,html.Screen,4_13_2,2023-11-06T21:07:50.827Z,,0,,,NaN,,,,,,false,,,,115009.10000000894,115008.90000000596,,115008.70000000298,,115023.754,8,400,,,
sequence,flow.Sequence,4_13,2023-11-06T21:07:50.827Z,,0,,,4601.905000005965,completion,,,,,false,,,,115009.40000000596,115008.90000000596,110390.328,110406.90000000596,110406.995,115023.754,8,400,,,
trial,html.Screen,4_14_0,2023-11-06T21:07:54.593Z,,0,1,,3751.84600000894,response,ISIC_0455743.JPG,8,ISIC_0033384.JPG,ISIC_0033384.JPG,false,0,keypress(z),500,118775.80000001192,118775.60000000894,115007.087,115009.5,115023.754,118790.985,8,400,15,,ISIC_0455743.JPG
break,html.Screen,4_14_1,2023-11-06T21:07:54.595Z,,0,,,NaN,,,,,,false,,,,118776.80000001192,118776.5,,118776.10000000894,,118790.985,8,400,,,
break_continue,html.Screen,4_14_2,2023-11-06T21:07:54.595Z,,0,,,NaN,,,,,,false,,,,118777.40000000596,118777.30000001192,,118777,,118790.985,8,400,,,
sequence,flow.Sequence,4_14,2023-11-06T21:07:54.595Z,,0,,,3753.54600001192,completion,,,,,false,,,,118777.60000000894,118777.30000001192,115007.087,115009.5,115023.754,118790.985,8,400,,,
trial,html.Screen,4_15_0,2023-11-06T21:07:58.553Z,,0,1,,3943.91500000596,response,ISIC_3779093.JPG,6,ISIC_0059423.JPG,ISIC_0059423.JPG,false,0,keypress(z),500,122735.10000000894,122734.90000000596,118774.318,118777.80000001192,118790.985,122741.064,8,400,16,,ISIC_3779093.JPG
break,html.Screen,4_15_1,2023-11-06T21:07:58.554Z,,0,,,NaN,,,,,,false,,,,122736.20000000298,122735.90000000596,,122735.30000001192,,122741.064,8,400,,,
break_continue,html.Screen,4_15_2,2023-11-06T21:07:58.555Z,,0,,,NaN,,,,,,false,,,,122736.80000001192,122736.60000000894,,122736.40000000596,,122741.064,8,400,,,
sequence,flow.Sequence,4_15,2023-11-06T21:07:58.555Z,,0,,,3945.61500000894,completion,,,,,false,,,,122737,122736.60000000894,118774.318,118777.70000000298,118790.985,122741.064,8,400,,,
trial,html.Screen,4_16_0,2023-11-06T21:08:02.529Z,,0,1,,3969.4360000000015,response,ISIC_0033204.JPG,7,ISIC_0057495.JPG,ISIC_0033204.JPG,false,1,keypress(m),500,126710.70000000298,126710.5,122724.397,122737.20000000298,122741.064,126724.959,8,400,17,,ISIC_0057495.JPG
break,html.Screen,4_16_1,2023-11-06T21:08:02.530Z,,0,,,NaN,,,,,,false,,,,126711.80000001192,126711.5,,126711,,126724.959,8,400,,,
break_continue,html.Screen,4_16_2,2023-11-06T21:08:02.530Z,,0,,,NaN,,,,,,false,,,,126712.30000001192,126712.20000000298,,126711.90000000596,,126724.959,8,400,,,
sequence,flow.Sequence,4_16,2023-11-06T21:08:02.531Z,,0,,,3971.1360000029817,completion,,,,,false,,,,126712.60000000894,126712.20000000298,122724.397,122737.10000000894,122741.064,126724.959,8,400,,,
trial,html.Screen,4_17_0,2023-11-06T21:08:08.380Z,,0,1,,5836.741000002978,response,ISIC_5988539.JPG,9,ISIC_4595741.JPG,ISIC_5988539.JPG,false,1,keypress(m),500,132562.10000000894,132561.70000000298,126708.292,126712.80000001192,126724.959,132575.076,8,400,18,,ISIC_4595741.JPG
break,html.Screen,4_17_1,2023-11-06T21:08:08.381Z,,0,,,NaN,,,,,,false,,,,132563,132562.70000000298,,132562.30000001192,,132575.076,8,400,,,
break_continue,html.Screen,4_17_2,2023-11-06T21:08:08.382Z,,0,,,NaN,,,,,,false,,,,132563.80000001192,132563.60000000894,,132563.10000000894,,132575.076,8,400,,,
sequence,flow.Sequence,4_17,2023-11-06T21:08:08.382Z,,0,,,5838.641000008938,completion,,,,,false,,,,132564.10000000894,132563.60000000894,126708.292,126712.70000000298,126724.959,132575.076,8,400,,,
trial,html.Screen,4_18_0,2023-11-06T21:08:13.922Z,,0,1,,5527.923999999999,response,ISIC_9019691.JPG,5,ISIC_1782911.JPG,ISIC_9019691.JPG,false,1,keypress(m),500,138103.30000001192,138103,132558.409,132564.30000001192,132575.076,138109.012,8,400,19,,ISIC_1782911.JPG
break,html.Screen,4_18_1,2023-11-06T21:08:13.923Z,,0,,,NaN,,,,,,false,,,,138104.20000000298,138103.90000000596,,138103.5,,138109.012,8,400,,,
break_continue,html.Screen,4_18_2,2023-11-06T21:08:13.923Z,,0,,,NaN,,,,,,false,,,,138104.90000000596,138104.60000000894,,138104.5,,138109.012,8,400,,,
sequence,flow.Sequence,4_18,2023-11-06T21:08:13.923Z,,0,,,5529.52400000894,completion,,,,,false,,,,138105.10000000894,138104.60000000894,132558.409,132564.30000001192,132575.076,138109.012,8,400,,,
trial,html.Screen,4_19_0,2023-11-06T21:08:18.297Z,,0,1,,4368.988000000012,response,ISIC_0064860.JPG,5,ISIC_0009911.JPG,ISIC_0009911.JPG,false,0,keypress(z),500,142478.40000000596,142478,138092.345,138105.30000001192,138109.012,142492.433,8,400,20,,ISIC_0064860.JPG
break,html.Screen,4_19_1,2023-11-06T21:08:18.298Z,,0,,,NaN,,,,,,false,,,,142479.20000000298,142479,,142478.5,,142492.433,8,400,,,
break_continue,html.Screen,4_19_2,2023-11-06T21:08:18.299Z,,0,,,NaN,,,,,,false,,,,142480.10000000894,142479.80000001192,,142479.40000000596,,142492.433,8,400,,,
sequence,flow.Sequence,4_19,2023-11-06T21:08:18.299Z,,0,,,4370.788000011933,completion,,,,,false,,,,142480.70000000298,142479.80000001192,138092.345,138105.30000001192,138109.012,142492.433,8,400,,,
trial,html.Screen,4_20_0,2023-11-06T21:08:22.481Z,,0,1,,4169.367000011931,response,ISIC_0054651.JPG,5,ISIC_5555140.JPG,ISIC_0054651.JPG,false,1,keypress(m),500,146662,146661.80000001192,142475.766,142480.90000000596,142492.433,146675.85,8,400,21,,ISIC_5555140.JPG
break,html.Screen,4_20_1,2023-11-06T21:08:22.482Z,,0,,,NaN,,,,,,false,,,,146663.10000000894,146662.90000000596,,146662.30000001192,,146675.85,8,400,,,
break_continue,html.Screen,4_20_2,2023-11-06T21:08:22.482Z,,0,,,NaN,,,,,,false,,,,146663.80000001192,146663.60000000894,,146663.30000001192,,146675.85,8,400,,,
sequence,flow.Sequence,4_20,2023-11-06T21:08:22.483Z,,0,,,4171.167000008951,completion,,,,,false,,,,146664,146663.60000000894,142475.766,142480.90000000596,142492.433,146675.85,8,400,,,
trial,html.Screen,4_21_0,2023-11-06T21:08:26.744Z,,0,1,,4248.950000011915,response,ISIC_0760740.JPG,7,ISIC_1039970.JPG,ISIC_1039970.JPG,false,0,keypress(z),500,150925,150924.80000001192,146659.183,146664.20000000298,146675.85,150926.415,8,400,22,,ISIC_0760740.JPG
break,html.Screen,4_21_1,2023-11-06T21:08:26.745Z,,0,,,NaN,,,,,,false,,,,150926,150925.80000001192,,150925.30000001192,,150926.415,8,400,,,
break_continue,html.Screen,4_21_2,2023-11-06T21:08:26.745Z,,0,,,NaN,,,,,,false,,,,150926.70000000298,150926.5,,150926.10000000894,,150926.415,8,400,,,
sequence,flow.Sequence,4_21,2023-11-06T21:08:26.746Z,,0,,,4250.649999999994,completion,,,,,false,,,,150927,150926.5,146659.183,146664.10000000894,146675.85,150926.415,8,400,,,
trial,html.Screen,4_22_0,2023-11-06T21:08:32.206Z,,0,1,,5460.885000011913,response,ISIC_0010850.JPG,6,ISIC_0027305.JPG,ISIC_0027305.JPG,false,0,keypress(z),500,156387.5,156387.30000001192,150909.748,150927.30000001192,150926.415,156393.191,8,400,23,,ISIC_0010850.JPG
break,html.Screen,4_22_1,2023-11-06T21:08:32.207Z,,0,,,NaN,,,,,,false,,,,156388.60000000894,156388.30000001192,,156387.80000001192,,156393.191,8,400,,,
break_continue,html.Screen,4_22_2,2023-11-06T21:08:32.208Z,,0,,,NaN,,,,,,false,,,,156389.10000000894,156389,,156388.70000000298,,156393.191,8,400,,,
sequence,flow.Sequence,4_22,2023-11-06T21:08:32.208Z,,0,,,5462.584999999992,completion,,,,,false,,,,156389.30000001192,156389,150909.748,150927.20000000298,150926.415,156393.191,8,400,,,
trial,html.Screen,4_23_0,2023-11-06T21:08:38.180Z,,0,1,,5967.609000011929,response,ISIC_0031900.JPG,6,ISIC_0031005.JPG,ISIC_0031005.JPG,false,0,keypress(z),500,162361,162360.80000001192,156376.524,156389.5,156393.191,162377.154,8,400,24,,ISIC_0031900.JPG
break,html.Screen,4_23_1,2023-11-06T21:08:38.181Z,,0,,,NaN,,,,,,false,,,,162362,162361.70000000298,,162361.20000000298,,162377.154,8,400,,,
break_continue,html.Screen,4_23_2,2023-11-06T21:08:38.182Z,,0,,,NaN,,,,,,false,,,,162362.60000000894,162362.5,,162362.20000000298,,162377.154,8,400,,,
sequence,flow.Sequence,4_23,2023-11-06T21:08:38.182Z,,0,,,5969.309000000008,completion,,,,,false,,,,162362.70000000298,162362.5,156376.524,156389.5,156393.191,162377.154,8,400,,,
trial,html.Screen,4_24_0,2023-11-06T21:08:43.723Z,,0,1,,5526.546000002971,response,ISIC_0024720.JPG,6,ISIC_5333058.JPG,ISIC_5333058.JPG,false,0,keypress(z),500,167903.90000000596,167903.70000000298,162360.487,162362.90000000596,162377.154,167910.598,8,400,25,,ISIC_0024720.JPG
break,html.Screen,4_24_1,2023-11-06T21:08:43.724Z,,0,,,NaN,,,,,,false,,,,167905.10000000894,167904.80000001192,,167904.30000001192,,167910.598,8,400,,,
break_continue,html.Screen,4_24_2,2023-11-06T21:08:43.725Z,,0,,,NaN,,,,,,false,,,,167905.90000000596,167905.70000000298,,167905.30000001192,,167910.598,8,400,,,
sequence,flow.Sequence,4_24,2023-11-06T21:08:43.725Z,,0,,,5528.546000002971,completion,,,,,false,,,,167906.10000000894,167905.70000000298,162360.487,162362.90000000596,162377.154,167910.598,8,400,,,
trial,html.Screen,4_25_0,2023-11-06T21:08:49.552Z,,0,1,,5821.702000011923,response,ISIC_4624973.JPG,7,ISIC_0028226.JPG,ISIC_4624973.JPG,false,1,keypress(m),500,173732.5,173732.30000001192,167893.931,167906.30000001192,167910.598,173744.545,8,400,26,,ISIC_0028226.JPG
break,html.Screen,4_25_1,2023-11-06T21:08:49.553Z,,0,,,NaN,,,,,,false,,,,173733.5,173733.30000001192,,173732.80000001192,,173744.545,8,400,,,
break_continue,html.Screen,4_25_2,2023-11-06T21:08:49.553Z,,0,,,NaN,,,,,,false,,,,173734.10000000894,173733.90000000596,,173733.70000000298,,173744.545,8,400,,,
sequence,flow.Sequence,4_25,2023-11-06T21:08:49.554Z,,0,,,5823.302000005962,completion,,,,,false,,,,173734.30000001192,173733.90000000596,167893.931,167906.30000001192,167910.598,173744.545,8,400,,,
trial,html.Screen,4_26_0,2023-11-06T21:08:55.926Z,,0,1,,6361.855000005948,response,ISIC_6380209.JPG,5,ISIC_5063476.JPG,ISIC_6380209.JPG,false,1,keypress(m),500,180106.70000000298,180106.40000000596,173727.878,173734.5,173744.545,180128.482,8,400,27,,ISIC_5063476.JPG
break,html.Screen,4_26_1,2023-11-06T21:08:55.927Z,,0,,,NaN,,,,,,false,,,,180107.60000000894,180107.40000000596,,180106.90000000596,,180128.482,8,400,,,
break_continue,html.Screen,4_26_2,2023-11-06T21:08:55.928Z,,0,,,NaN,,,,,,false,,,,180108.20000000298,180108,,180107.80000001192,,180128.482,8,400,,,
sequence,flow.Sequence,4_26,2023-11-06T21:08:55.928Z,,0,,,6363.454999999987,completion,,,,,false,,,,180108.40000000596,180108,173727.878,173734.40000000596,173744.545,180128.482,8,400,,,
trial,html.Screen,4_27_0,2023-11-06T21:09:01.133Z,,0,1,,5184.818000011932,response,ISIC_4175400.JPG,6,ISIC_0032975.JPG,ISIC_0032975.JPG,false,0,keypress(z),500,185313.60000000894,185313.30000001192,180111.815,180108.60000000894,180128.482,185328.586,8,400,28,,ISIC_4175400.JPG
break,html.Screen,4_27_1,2023-11-06T21:09:01.134Z,,0,,,NaN,,,,,,false,,,,185314.70000000298,185314.40000000596,,185313.90000000596,,185328.586,8,400,,,
break_continue,html.Screen,4_27_2,2023-11-06T21:09:01.135Z,,0,,,NaN,,,,,,false,,,,185315.20000000298,185315.10000000894,,185314.80000001192,,185328.586,8,400,,,
sequence,flow.Sequence,4_27,2023-11-06T21:09:01.135Z,,0,,,5186.618000008952,completion,,,,,false,,,,185315.5,185315.10000000894,180111.815,180108.5,180128.482,185328.586,8,400,,,
trial,html.Screen,4_28_0,2023-11-06T21:09:06.323Z,,0,1,,5174.61400000297,response,ISIC_0054395.JPG,7,ISIC_0030610.JPG,ISIC_0030610.JPG,false,0,keypress(z),500,190503.5,190503.20000000298,185311.919,185315.60000000894,185328.586,190512.545,8,400,29,,ISIC_0054395.JPG
break,html.Screen,4_28_1,2023-11-06T21:09:06.324Z,,0,,,NaN,,,,,,false,,,,190504.40000000596,190504.10000000894,,190503.70000000298,,190512.545,8,400,,,
break_continue,html.Screen,4_28_2,2023-11-06T21:09:06.325Z,,0,,,NaN,,,,,,false,,,,190505.5,190505.30000001192,,190504.70000000298,,190512.545,8,400,,,
sequence,flow.Sequence,4_28,2023-11-06T21:09:06.326Z,,0,,,5176.714000011911,completion,,,,,false,,,,190505.80000001192,190505.30000001192,185311.919,185315.60000000894,185328.586,190512.545,8,400,,,
trial,html.Screen,4_29_0,2023-11-06T21:09:13.401Z,,0,1,,7067.954999999987,response,ISIC_1305537.JPG,8,ISIC_1394786.JPG,ISIC_1394786.JPG,false,0,keypress(z),500,197580.80000001192,197580.5,190495.878,190506.10000000894,190512.545,197596.02,8,400,30,,ISIC_1305537.JPG
break,html.Screen,4_29_1,2023-11-06T21:09:13.402Z,,0,,,NaN,,,,,,false,,,,197581.80000001192,197581.5,,197581.10000000894,,197596.02,8,400,,,
break_continue,html.Screen,4_29_2,2023-11-06T21:09:13.402Z,,0,,,NaN,,,,,,false,,,,197582.30000001192,197582.20000000298,,197581.90000000596,,197596.02,8,400,,,
sequence,flow.Sequence,4_29,2023-11-06T21:09:13.403Z,,0,,,7069.655000002967,completion,,,,,false,,,,197582.60000000894,197582.20000000298,190495.878,190506,190512.545,197596.02,8,400,,,
trial,html.Screen,4_30_0,2023-11-06T21:09:17.765Z,,0,1,,4348.180000002991,response,ISIC_8436194.JPG,7,ISIC_4871616.JPG,ISIC_4871616.JPG,false,0,keypress(z),500,201944.40000000596,201944.20000000298,197579.353,197582.70000000298,197596.02,201946.59,8,400,31,,ISIC_8436194.JPG
break,html.Screen,4_30_1,2023-11-06T21:09:17.766Z,,0,,,NaN,,,,,,false,,,,201945.40000000596,201945.20000000298,,201944.70000000298,,201946.59,8,400,,,
break_continue,html.Screen,4_30_2,2023-11-06T21:09:17.766Z,,0,,,NaN,,,,,,false,,,,201946,201945.80000001192,,201945.60000000894,,201946.59,8,400,,,
sequence,flow.Sequence,4_30,2023-11-06T21:09:17.766Z,,0,,,4349.780000011931,completion,,,,,false,,,,201946.20000000298,201945.80000001192,197579.353,197582.60000000894,197596.02,201946.59,8,400,,,
trial,html.Screen,4_31_0,2023-11-06T21:09:21.055Z,,0,1,,3287.4100000000035,response,ISIC_4620425.JPG,6,ISIC_0060705.JPG,ISIC_4620425.JPG,false,1,keypress(m),500,205234.30000001192,205234,201929.923,201946.30000001192,201946.59,205246.656,8,400,32,,ISIC_0060705.JPG
break,html.Screen,4_31_1,2023-11-06T21:09:21.056Z,,0,,,NaN,,,,,,false,,,,205235.30000001192,205235,,205234.60000000894,,205246.656,8,400,,,
break_continue,html.Screen,4_31_2,2023-11-06T21:09:21.056Z,,0,,,NaN,,,,,,false,,,,205235.90000000596,205235.70000000298,,205235.40000000596,,205246.656,8,400,,,
sequence,flow.Sequence,4_31,2023-11-06T21:09:21.056Z,,0,,,3289.1100000029837,completion,,,,,false,,,,205236.20000000298,205235.70000000298,201929.923,201946.30000001192,201946.59,205246.656,8,400,,,
trial,html.Screen,4_32_0,2023-11-06T21:09:25.383Z,,0,1,,4315.944000008953,response,ISIC_6255494.JPG,7,ISIC_0058906.JPG,ISIC_6255494.JPG,false,1,keypress(m),500,209562.80000001192,209562.60000000894,205229.989,205236.30000001192,205246.656,209563.885,8,400,33,,ISIC_0058906.JPG
break,html.Screen,4_32_1,2023-11-06T21:09:25.384Z,,0,,,NaN,,,,,,false,,,,209563.90000000596,209563.60000000894,,209563.10000000894,,209563.885,8,400,,,
break_continue,html.Screen,4_32_2,2023-11-06T21:09:25.385Z,,0,,,NaN,,,,,,false,,,,209564.5,209564.30000001192,,209564.10000000894,,209563.885,8,400,,,
sequence,flow.Sequence,4_32,2023-11-06T21:09:25.385Z,,0,,,4317.644000011933,completion,,,,,false,,,,209564.80000001192,209564.30000001192,205229.989,205236.30000001192,205246.656,209563.885,8,400,,,
trial,html.Screen,4_33_0,2023-11-06T21:09:30.082Z,,0,1,,4697.215000008931,response,ISIC_6978997.JPG,8,ISIC_0011276.JPG,ISIC_0011276.JPG,false,0,keypress(z),500,214261.20000000298,214261.10000000894,209547.218,209565,209563.885,214263.979,8,400,34,,ISIC_6978997.JPG
break,html.Screen,4_33_1,2023-11-06T21:09:30.083Z,,0,,,NaN,,,,,,false,,,,214262.70000000298,214262.40000000596,,214261.90000000596,,214263.979,8,400,,,
break_continue,html.Screen,4_33_2,2023-11-06T21:09:30.084Z,,0,,,NaN,,,,,,false,,,,214263.20000000298,214263.10000000894,,214262.90000000596,,214263.979,8,400,,,
sequence,flow.Sequence,4_33,2023-11-06T21:09:30.084Z,,0,,,4699.215000008931,completion,,,,,false,,,,214263.40000000596,214263.10000000894,209547.218,209565,209563.885,214263.979,8,400,,,
trial,html.Screen,4_34_0,2023-11-06T21:09:35.943Z,,0,1,,5857.621000008949,response,ISIC_0062546.JPG,5,ISIC_3916064.JPG,ISIC_0062546.JPG,false,1,keypress(m),500,220121.90000000596,220121.60000000894,214247.312,214263.5,214263.979,220131.251,8,400,35,,ISIC_3916064.JPG
break,html.Screen,4_34_1,2023-11-06T21:09:35.944Z,,0,,,NaN,,,,,,false,,,,220122.90000000596,220122.70000000298,,220122.20000000298,,220131.251,8,400,,,
break_continue,html.Screen,4_34_2,2023-11-06T21:09:35.944Z,,0,,,NaN,,,,,,false,,,,220123.5,220123.40000000596,,220123.10000000894,,220131.251,8,400,,,
sequence,flow.Sequence,4_34,2023-11-06T21:09:35.945Z,,0,,,5859.421000005968,completion,,,,,false,,,,220123.80000001192,220123.40000000596,214247.312,214263.5,214263.979,220131.251,8,400,,,
trial,html.Screen,4_35_0,2023-11-06T21:09:38.959Z,,0,1,,3005.949000002991,response,ISIC_0011210.JPG,6,ISIC_1689678.JPG,ISIC_1689678.JPG,false,0,keypress(z),500,223137.80000001192,223137.20000000298,220114.584,220123.90000000596,220131.251,223147.978,8,400,36,,ISIC_0011210.JPG
break,html.Screen,4_35_1,2023-11-06T21:09:38.961Z,,0,,,NaN,,,,,,false,,,,223139.90000000596,223139.60000000894,,223138.80000001192,,223147.978,8,400,,,
break_continue,html.Screen,4_35_2,2023-11-06T21:09:38.961Z,,0,,,NaN,,,,,,false,,,,223140.5,223140.40000000596,,223140.10000000894,,223147.978,8,400,,,
sequence,flow.Sequence,4_35,2023-11-06T21:09:38.962Z,,0,,,3009.149000005971,completion,,,,,false,,,,223140.80000001192,223140.40000000596,220114.584,220123.90000000596,220131.251,223147.978,8,400,,,
trial,html.Screen,4_36_0,2023-11-06T21:09:42.292Z,,0,1,,3322.822000011918,response,ISIC_0789732.JPG,6,ISIC_0014559.JPG,ISIC_0014559.JPG,false,0,keypress(z),500,226471.10000000894,226470.80000001192,223131.311,223140.90000000596,223147.978,226481.378,8,400,37,,ISIC_0789732.JPG
break,html.Screen,4_36_1,2023-11-06T21:09:42.293Z,,0,,,NaN,,,,,,false,,,,226472,226471.80000001192,,226471.30000001192,,226481.378,8,400,,,
break_continue,html.Screen,4_36_2,2023-11-06T21:09:42.294Z,,0,,,NaN,,,,,,false,,,,226472.60000000894,226472.5,,226472.20000000298,,226481.378,8,400,,,
sequence,flow.Sequence,4_36,2023-11-06T21:09:42.294Z,,0,,,3324.521999999997,completion,,,,,false,,,,226472.80000001192,226472.5,223131.311,223140.80000001192,223147.978,226481.378,8,400,,,
trial,html.Screen,4_37_0,2023-11-06T21:09:45.467Z,,0,1,,3164.8220000029833,response,ISIC_0064986.JPG,6,ISIC_2555494.JPG,ISIC_0064986.JPG,false,1,keypress(m),500,229646.40000000596,229646.20000000298,226464.711,226473,226481.378,229648.108,8,400,38,,ISIC_2555494.JPG
break,html.Screen,4_37_1,2023-11-06T21:09:45.468Z,,0,,,NaN,,,,,,false,,,,229647.40000000596,229647.10000000894,,229646.60000000894,,229648.108,8,400,,,
break_continue,html.Screen,4_37_2,2023-11-06T21:09:45.469Z,,0,,,NaN,,,,,,false,,,,229647.90000000596,229647.70000000298,,229647.5,,229648.108,8,400,,,
sequence,flow.Sequence,4_37,2023-11-06T21:09:45.469Z,,0,,,3166.3220000029833,completion,,,,,false,,,,229648.10000000894,229647.70000000298,226464.711,226472.90000000596,226481.378,229648.108,8,400,,,
trial,html.Screen,4_38_0,2023-11-06T21:09:48.353Z,,0,1,,2883.092000002973,response,ISIC_0031977.JPG,6,ISIC_7600621.JPG,ISIC_7600621.JPG,false,0,keypress(z),500,232531.5,232531.20000000298,229631.441,229648.40000000596,229648.108,232548.652,8,400,39,,ISIC_0031977.JPG
break,html.Screen,4_38_1,2023-11-06T21:09:48.354Z,,0,,,NaN,,,,,,false,,,,232532.5,232532.30000001192,,232531.80000001192,,232548.652,8,400,,,
break_continue,html.Screen,4_38_2,2023-11-06T21:09:48.354Z,,0,,,NaN,,,,,,false,,,,232533,232533,,232532.60000000894,,232548.652,8,400,,,
sequence,flow.Sequence,4_38,2023-11-06T21:09:48.354Z,,0,,,2884.8919999999925,completion,,,,,false,,,,232533.30000001192,232533,229631.441,229648.30000001192,229648.108,232548.652,8,400,,,
trial,html.Screen,4_39_0,2023-11-06T21:09:53.159Z,,0,1,,4788.347999999998,response,ISIC_9929097.JPG,7,ISIC_0033916.JPG,ISIC_9929097.JPG,false,1,keypress(m),500,237337.30000001192,237337,232531.985,232533.5,232548.652,237348.748,8,400,40,,ISIC_0033916.JPG
break,html.Screen,4_39_1,2023-11-06T21:09:53.160Z,,0,,,NaN,,,,,,false,,,,237338.40000000596,237338.10000000894,,237337.70000000298,,237348.748,8,400,,,
break_continue,html.Screen,4_39_2,2023-11-06T21:09:53.160Z,,0,,,NaN,,,,,,false,,,,237338.80000001192,237338.70000000298,,237338.5,,237348.748,8,400,,,
sequence,flow.Sequence,4_39,2023-11-06T21:09:53.160Z,,0,,,4790.048000002978,completion,,,,,false,,,,237339.10000000894,237338.70000000298,232531.985,232533.40000000596,232548.652,237348.748,8,400,,,
trial,html.Screen,4_40_0,2023-11-06T21:09:56.016Z,,0,1,,2846.0520000119286,response,ISIC_0060656.JPG,7,ISIC_9828853.JPG,ISIC_0060656.JPG,false,1,keypress(m),500,240195,240194.80000001192,237332.081,237339.40000000596,237348.748,240199.282,8,400,41,,ISIC_9828853.JPG
break,html.Screen,4_40_1,2023-11-06T21:09:56.017Z,,0,,,NaN,,,,,,false,,,,240195.90000000596,240195.70000000298,,240195.20000000298,,240199.282,8,400,,,
break_continue,html.Screen,4_40_2,2023-11-06T21:09:56.018Z,,0,,,NaN,,,,,,false,,,,240196.40000000596,240196.40000000596,,240196.10000000894,,240199.282,8,400,,,
sequence,flow.Sequence,4_40,2023-11-06T21:09:56.018Z,,0,,,2847.652000005968,completion,,,,,false,,,,240196.60000000894,240196.40000000596,237332.081,237339.30000001192,237348.748,240199.282,8,400,,,
trial,html.Screen,4_41_0,2023-11-06T21:10:01.340Z,,0,1,,5319.318000008934,response,ISIC_0027479.JPG,7,ISIC_0026020.JPG,ISIC_0026020.JPG,false,0,keypress(z),500,245518.80000001192,245518.60000000894,240182.615,240197,240199.282,245532.722,8,400,42,,ISIC_0027479.JPG
break,html.Screen,4_41_1,2023-11-06T21:10:01.341Z,,0,,,NaN,,,,,,false,,,,245519.90000000596,245519.5,,245519,,245532.722,8,400,,,
break_continue,html.Screen,4_41_2,2023-11-06T21:10:01.342Z,,0,,,NaN,,,,,,false,,,,245520.40000000596,245520.20000000298,,245520,,245532.722,8,400,,,
sequence,flow.Sequence,4_41,2023-11-06T21:10:01.342Z,,0,,,5320.918000002974,completion,,,,,false,,,,245520.5,245520.20000000298,240182.615,240196.90000000596,240199.282,245532.722,8,400,,,
trial,html.Screen,4_42_0,2023-11-06T21:10:05.667Z,,0,1,,4312.478000002971,response,ISIC_0029374.JPG,4,ISIC_3436139.JPG,ISIC_3436139.JPG,false,0,keypress(z),500,249845.40000000596,249845.20000000298,245516.055,245520.80000001192,245532.722,249849.475,8,400,43,,ISIC_0029374.JPG
break,html.Screen,4_42_1,2023-11-06T21:10:05.668Z,,0,,,NaN,,,,,,false,,,,249846.40000000596,249846.10000000894,,249845.70000000298,,249849.475,8,400,,,
break_continue,html.Screen,4_42_2,2023-11-06T21:10:05.669Z,,0,,,NaN,,,,,,false,,,,249846.90000000596,249846.80000001192,,249846.60000000894,,249849.475,8,400,,,
sequence,flow.Sequence,4_42,2023-11-06T21:10:05.669Z,,0,,,4314.078000011912,completion,,,,,false,,,,249847.10000000894,249846.80000001192,245516.055,245520.70000000298,245532.722,249849.475,8,400,,,
trial,html.Screen,4_43_0,2023-11-06T21:10:09.720Z,,0,1,,4048.9250000059546,response,ISIC_6000407.JPG,8,ISIC_4468148.JPG,ISIC_6000407.JPG,false,1,keypress(m),500,253898.70000000298,253898.40000000596,249832.808,249847.40000000596,249849.475,253900.037,8,400,44,,ISIC_4468148.JPG
break,html.Screen,4_43_1,2023-11-06T21:10:09.721Z,,0,,,NaN,,,,,,false,,,,253899.5,253899.30000001192,,253898.80000001192,,253900.037,8,400,,,
break_continue,html.Screen,4_43_2,2023-11-06T21:10:09.722Z,,0,,,NaN,,,,,,false,,,,253900.10000000894,253900,,253899.70000000298,,253900.037,8,400,,,
sequence,flow.Sequence,4_43,2023-11-06T21:10:09.722Z,,0,,,4050.524999999994,completion,,,,,false,,,,253900.30000001192,253900,249832.808,249847.30000001192,249849.475,253900.037,8,400,,,
trial,html.Screen,4_44_0,2023-11-06T21:10:13.121Z,,0,1,,3398.7630000119098,response,ISIC_4362713.JPG,5,ISIC_5087951.JPG,ISIC_5087951.JPG,false,0,keypress(z),500,257299.10000000894,257298.80000001192,253883.37,253900.5,253900.037,257300.105,8,400,45,,ISIC_4362713.JPG
break,html.Screen,4_44_1,2023-11-06T21:10:13.122Z,,0,,,NaN,,,,,,false,,,,257300.10000000894,257299.90000000596,,257299.30000001192,,257300.105,8,400,,,
break_continue,html.Screen,4_44_2,2023-11-06T21:10:13.122Z,,0,,,NaN,,,,,,false,,,,257300.70000000298,257300.5,,257300.30000001192,,257300.105,8,400,,,
sequence,flow.Sequence,4_44,2023-11-06T21:10:13.123Z,,0,,,3400.462999999989,completion,,,,,false,,,,257300.80000001192,257300.5,253883.37,253900.40000000596,253900.037,257300.105,8,400,,,
trial,html.Screen,4_45_0,2023-11-06T21:10:18.264Z,,0,1,,5141.19500001191,response,ISIC_7492046.JPG,8,ISIC_0068924.JPG,ISIC_0068924.JPG,false,0,keypress(z),500,262441.5,262441.3000000119,257283.438,257301.10000000894,257300.105,262450.746,8,400,46,,ISIC_7492046.JPG
break,html.Screen,4_45_1,2023-11-06T21:10:18.264Z,,0,,,NaN,,,,,,false,,,,262442.40000000596,262442.200000003,,262441.700000003,,262450.746,8,400,,,
break_continue,html.Screen,4_45_2,2023-11-06T21:10:18.265Z,,0,,,NaN,,,,,,false,,,,262443.200000003,262442.90000000596,,262442.700000003,,262450.746,8,400,,,
sequence,flow.Sequence,4_45,2023-11-06T21:10:18.266Z,,0,,,5142.79500000595,completion,,,,,false,,,,262443.60000000894,262442.90000000596,257283.438,257300.90000000596,257300.105,262450.746,8,400,,,
trial,html.Screen,4_46_0,2023-11-06T21:10:21.456Z,,0,1,,3182.5540000119363,response,ISIC_0058950.JPG,4,ISIC_0032181.JPG,ISIC_0032181.JPG,false,0,keypress(z),500,265633.5,265633.3000000119,262434.079,262443.700000003,262450.746,265650.81,8,400,47,,ISIC_0058950.JPG
break,html.Screen,4_46_1,2023-11-06T21:10:21.457Z,,0,,,NaN,,,,,,false,,,,265634.5,265634.200000003,,265633.700000003,,265650.81,8,400,,,
break_continue,html.Screen,4_46_2,2023-11-06T21:10:21.457Z,,0,,,NaN,,,,,,false,,,,265635,265634.8000000119,,265634.700000003,,265650.81,8,400,,,
sequence,flow.Sequence,4_46,2023-11-06T21:10:21.457Z,,0,,,3184.0540000119363,completion,,,,,false,,,,265635.3000000119,265634.8000000119,262434.079,262443.700000003,262450.746,265650.81,8,400,,,
trial,html.Screen,4_47_0,2023-11-06T21:10:24.521Z,,0,1,,3047.790000008943,response,ISIC_0057556.JPG,5,ISIC_0031325.JPG,ISIC_0057556.JPG,false,1,keypress(m),500,268698.90000000596,268698.60000000894,265634.143,265635.40000000596,265650.81,268700.871,8,400,48,,ISIC_0031325.JPG
break,html.Screen,4_47_1,2023-11-06T21:10:24.522Z,,0,,,NaN,,,,,,false,,,,268699.8000000119,268699.60000000894,,268699.200000003,,268700.871,8,400,,,
break_continue,html.Screen,4_47_2,2023-11-06T21:10:24.523Z,,0,,,NaN,,,,,,false,,,,268700.40000000596,268700.200000003,,268700.10000000894,,268700.871,8,400,,,
sequence,flow.Sequence,4_47,2023-11-06T21:10:24.523Z,,0,,,3049.3900000029826,completion,,,,,false,,,,268700.60000000894,268700.200000003,265634.143,265635.40000000596,265650.81,268700.871,8,400,,,
trial,html.Screen,4_48_0,2023-11-06T21:10:28.206Z,,0,1,,3682.1290000000154,response,ISIC_8389650.JPG,7,ISIC_1985436.JPG,ISIC_1985436.JPG,false,0,keypress(z),500,272383.3000000119,272383,268684.204,268700.8000000119,268700.871,272401.444,8,400,49,,ISIC_8389650.JPG
break,html.Screen,4_48_1,2023-11-06T21:10:28.209Z,,0,,,NaN,,,,,,false,,,,272386.700000003,272386,,272384,,272401.444,8,400,,,
break_continue,html.Screen,4_48_2,2023-11-06T21:10:28.210Z,,0,,,NaN,,,,,,false,,,,272387.3000000119,272387.10000000894,,272386.90000000596,,272401.444,8,400,,,
sequence,flow.Sequence,4_48,2023-11-06T21:10:28.210Z,,0,,,3686.229000008956,completion,,,,,false,,,,272387.5,272387.10000000894,268684.204,268700.8000000119,268700.871,272401.444,8,400,,,
trial,html.Screen,4_49_0,2023-11-06T21:10:31.206Z,,0,1,,2982.2560000029625,response,ISIC_7651944.JPG,7,ISIC_7260492.JPG,ISIC_7260492.JPG,false,0,keypress(z),500,275383.90000000596,275383.700000003,272384.777,272387.700000003,272401.444,275384.837,8,400,50,,ISIC_7651944.JPG
break,html.Screen,4_49_1,2023-11-06T21:10:41.194Z,,0,,,10000.677000000025,timeout,,,,,false,,,,285371.5,285368.847,275368.17,275384.200000003,275384.837,285385.514,8,400,,,
break_continue,html.Screen,4_49_2,2023-11-06T21:10:42.506Z,,0,,,1278.8860000059358,response,,,,,false,continue,keypress(Space),,286682.90000000596,286664.40000000596,285368.847,285371.700000003,285385.514,286685.54,8,400,,,
sequence,flow.Sequence,4_49,2023-11-06T21:10:42.506Z,,0,,,14262.956000005943,completion,,,,,false,,,,286683,286664.40000000596,272384.777,272387.700000003,272401.444,286685.54,8,400,,,
trial,html.Screen,4_50_0,2023-11-06T21:10:47.599Z,,0,2,,5090.460000000021,response,ISIC_4918571.JPG,6,ISIC_3613012.JPG,ISIC_4918571.JPG,false,1,keypress(m),500,291776.3000000119,291776,286668.873,286683.200000003,286685.54,291785.642,8,400,1,,ISIC_3613012.JPG
break,html.Screen,4_50_1,2023-11-06T21:10:47.600Z,,0,,,NaN,,,,,,false,,,,291777.200000003,291776.90000000596,,291776.5,,291785.642,8,400,,,
break_continue,html.Screen,4_50_2,2023-11-06T21:10:47.601Z,,0,,,NaN,,,,,,false,,,,291777.8000000119,291777.60000000894,,291777.40000000596,,291785.642,8,400,,,
sequence,flow.Sequence,4_50,2023-11-06T21:10:47.601Z,,0,,,5092.060000008962,completion,,,,,false,,,,291777.90000000596,291777.60000000894,286668.873,286683.10000000894,286685.54,291785.642,8,400,,,
trial,html.Screen,4_51_0,2023-11-06T21:10:52.581Z,,0,2,,4972.058000002988,response,ISIC_0027666.JPG,7,ISIC_0032516.JPG,ISIC_0032516.JPG,false,0,keypress(z),500,296758,296757.700000003,291768.975,291778.200000003,291785.642,296769.552,8,400,2,,ISIC_0027666.JPG
break,html.Screen,4_51_1,2023-11-06T21:10:52.582Z,,0,,,NaN,,,,,,false,,,,296758.90000000596,296758.60000000894,,296758.200000003,,296769.552,8,400,,,
break_continue,html.Screen,4_51_2,2023-11-06T21:10:52.582Z,,0,,,NaN,,,,,,false,,,,296759.5,296759.3000000119,,296759.10000000894,,296769.552,8,400,,,
sequence,flow.Sequence,4_51,2023-11-06T21:10:52.583Z,,0,,,4973.658000011928,completion,,,,,false,,,,296759.60000000894,296759.3000000119,291768.975,291778.10000000894,291785.642,296769.552,8,400,,,
trial,html.Screen,4_52_0,2023-11-06T21:10:57.740Z,,0,2,,5147.248000011896,response,ISIC_0062525.JPG,6,ISIC_0054941.JPG,ISIC_0054941.JPG,false,0,keypress(z),500,301917,301916.8000000119,296752.885,296759.90000000596,296769.552,301919.655,8,400,3,,ISIC_0062525.JPG
break,html.Screen,4_52_1,2023-11-06T21:10:57.741Z,,0,,,NaN,,,,,,false,,,,301918.10000000894,301917.8000000119,,301917.3000000119,,301919.655,8,400,,,
break_continue,html.Screen,4_52_2,2023-11-06T21:10:57.742Z,,0,,,NaN,,,,,,false,,,,301918.60000000894,301918.5,,301918.3000000119,,301919.655,8,400,,,
sequence,flow.Sequence,4_52,2023-11-06T21:10:57.742Z,,0,,,5148.947999999975,completion,,,,,false,,,,301918.8000000119,301918.5,296752.885,296759.8000000119,296769.552,301919.655,8,400,,,
trial,html.Screen,4_53_0,2023-11-06T21:11:04.226Z,,0,2,,6482.7450000059325,response,ISIC_5361404.JPG,7,ISIC_0031203.JPG,ISIC_5361404.JPG,false,1,keypress(m),500,308402.700000003,308402.40000000596,301902.988,301920.5,301919.655,308403.599,8,400,4,,ISIC_0031203.JPG
break,html.Screen,4_53_1,2023-11-06T21:11:04.227Z,,0,,,NaN,,,,,,false,,,,308403.700000003,308403.3000000119,,308402.90000000596,,308403.599,8,400,,,
break_continue,html.Screen,4_53_2,2023-11-06T21:11:04.228Z,,0,,,NaN,,,,,,false,,,,308404.200000003,308404,,308403.90000000596,,308403.599,8,400,,,
sequence,flow.Sequence,4_53,2023-11-06T21:11:04.228Z,,0,,,6484.344999999972,completion,,,,,false,,,,308404.40000000596,308404,301902.988,301920.3000000119,301919.655,308403.599,8,400,,,
trial,html.Screen,4_54_0,2023-11-06T21:11:11.848Z,,0,2,,7620.801000005973,response,ISIC_9482842.JPG,6,ISIC_2232883.JPG,ISIC_2232883.JPG,false,0,keypress(z),500,316024.700000003,316024.40000000596,308386.932,308404.60000000894,308403.599,316037.73,8,400,5,,ISIC_9482842.JPG
break,html.Screen,4_54_1,2023-11-06T21:11:11.849Z,,0,,,NaN,,,,,,false,,,,316025.700000003,316025.40000000596,,316024.90000000596,,316037.73,8,400,,,
break_continue,html.Screen,4_54_2,2023-11-06T21:11:11.850Z,,0,,,NaN,,,,,,false,,,,316026.200000003,316026,,316025.8000000119,,316037.73,8,400,,,
sequence,flow.Sequence,4_54,2023-11-06T21:11:11.850Z,,0,,,7622.401000000013,completion,,,,,false,,,,316026.40000000596,316026,308386.932,308404.5,308403.599,316037.73,8,400,,,
trial,html.Screen,4_55_0,2023-11-06T21:11:16.638Z,,0,2,,4775.770000000019,response,ISIC_0011099.JPG,6,ISIC_3213469.JPG,ISIC_3213469.JPG,false,0,keypress(z),500,320813.90000000596,320813.5,316021.063,316026.60000000894,316037.73,320821.159,8,400,6,,ISIC_0011099.JPG
break,html.Screen,4_55_1,2023-11-06T21:11:16.639Z,,0,,,NaN,,,,,,false,,,,320814.8000000119,320814.5,,320814.10000000894,,320821.159,8,400,,,
break_continue,html.Screen,4_55_2,2023-11-06T21:11:16.639Z,,0,,,NaN,,,,,,false,,,,320815.3000000119,320815.10000000894,,320814.90000000596,,320821.159,8,400,,,
sequence,flow.Sequence,4_55,2023-11-06T21:11:16.639Z,,0,,,4777.370000008959,completion,,,,,false,,,,320815.5,320815.10000000894,316021.063,316026.5,316037.73,320821.159,8,400,,,
trial,html.Screen,4_56_0,2023-11-06T21:11:22.296Z,,0,2,,5650.441000008956,response,ISIC_6370977.JPG,6,ISIC_0008447.JPG,ISIC_0008447.JPG,false,0,keypress(z),500,326471.90000000596,326471.60000000894,320804.492,320815.8000000119,320821.159,326488.431,8,400,7,,ISIC_6370977.JPG
break,html.Screen,4_56_1,2023-11-06T21:11:22.297Z,,0,,,NaN,,,,,,false,,,,326472.8000000119,326472.5,,326472.10000000894,,326488.431,8,400,,,
break_continue,html.Screen,4_56_2,2023-11-06T21:11:22.297Z,,0,,,NaN,,,,,,false,,,,326473.40000000596,326473.3000000119,,326473,,326488.431,8,400,,,
sequence,flow.Sequence,4_56,2023-11-06T21:11:22.298Z,,0,,,5652.141000011936,completion,,,,,false,,,,326473.60000000894,326473.3000000119,320804.492,320815.700000003,320821.159,326488.431,8,400,,,
trial,html.Screen,4_57_0,2023-11-06T21:11:25.872Z,,0,2,,3559.3690000119386,response,ISIC_0519386.JPG,7,ISIC_6618851.JPG,ISIC_0519386.JPG,false,1,keypress(m),500,330048.10000000894,330047.8000000119,326471.764,326473.8000000119,326488.431,330055.169,8,400,8,,ISIC_6618851.JPG
break,html.Screen,4_57_1,2023-11-06T21:11:25.873Z,,0,,,NaN,,,,,,false,,,,330049,330048.8000000119,,330048.3000000119,,330055.169,8,400,,,
break_continue,html.Screen,4_57_2,2023-11-06T21:11:25.874Z,,0,,,NaN,,,,,,false,,,,330049.60000000894,330049.40000000596,,330049.200000003,,330055.169,8,400,,,
sequence,flow.Sequence,4_57,2023-11-06T21:11:25.874Z,,0,,,3560.969000005978,completion,,,,,false,,,,330049.8000000119,330049.40000000596,326471.764,326473.700000003,326488.431,330055.169,8,400,,,
trial,html.Screen,4_58_0,2023-11-06T21:11:29.686Z,,0,2,,3806.1310000119265,response,ISIC_5527224.JPG,8,ISIC_9015182.JPG,ISIC_5527224.JPG,false,1,keypress(m),500,333861.5,333861.3000000119,330038.502,330050,330055.169,333871.912,8,400,9,,ISIC_9015182.JPG
break,html.Screen,4_58_1,2023-11-06T21:11:29.687Z,,0,,,NaN,,,,,,false,,,,333862.60000000894,333862.200000003,,333861.700000003,,333871.912,8,400,,,
break_continue,html.Screen,4_58_2,2023-11-06T21:11:29.687Z,,0,,,NaN,,,,,,false,,,,333863.3000000119,333863,,333862.8000000119,,333871.912,8,400,,,
sequence,flow.Sequence,4_58,2023-11-06T21:11:29.688Z,,0,,,3807.8310000000056,completion,,,,,false,,,,333863.5,333863,330038.502,330050,330055.169,333871.912,8,400,,,
trial,html.Screen,4_59_0,2023-11-06T21:11:33.069Z,,0,2,,3372.8880000119098,response,ISIC_0033893.JPG,8,ISIC_5221917.JPG,ISIC_5221917.JPG,false,0,keypress(z),500,337245.10000000894,337244.8000000119,333855.245,333863.700000003,333871.912,337255.808,8,400,10,,ISIC_0033893.JPG
break,html.Screen,4_59_1,2023-11-06T21:11:33.073Z,,0,,,NaN,,,,,,false,,,,337248.200000003,337247.700000003,,337245.40000000596,,337255.808,8,400,,,
break_continue,html.Screen,4_59_2,2023-11-06T21:11:33.073Z,,0,,,NaN,,,,,,false,,,,337249.200000003,337249,,337248.700000003,,337255.808,8,400,,,
sequence,flow.Sequence,4_59,2023-11-06T21:11:33.074Z,,0,,,3377.087999999989,completion,,,,,false,,,,337249.700000003,337249,333855.245,333863.60000000894,333871.912,337255.808,8,400,,,
trial,html.Screen,4_60_0,2023-11-06T21:11:35.990Z,,0,2,,2909.5920000059414,response,ISIC_0066366.JPG,6,ISIC_5092834.JPG,ISIC_0066366.JPG,false,1,keypress(m),500,340165.8000000119,340165.40000000596,337239.141,337249.90000000596,337255.808,340172.533,8,400,11,,ISIC_5092834.JPG
break,html.Screen,4_60_1,2023-11-06T21:11:35.991Z,,0,,,NaN,,,,,,false,,,,340166.700000003,340166.40000000596,,340166,,340172.533,8,400,,,
break_continue,html.Screen,4_60_2,2023-11-06T21:11:35.992Z,,0,,,NaN,,,,,,false,,,,340167.200000003,340167,,340166.8000000119,,340172.533,8,400,,,
sequence,flow.Sequence,4_60,2023-11-06T21:11:35.992Z,,0,,,2911.191999999981,completion,,,,,false,,,,340167.40000000596,340167,337239.141,337249.8000000119,337255.808,340172.533,8,400,,,
trial,html.Screen,4_61_0,2023-11-06T21:11:39.487Z,,0,2,,3489.467000000004,response,ISIC_0033047.JPG,8,ISIC_0033573.JPG,ISIC_0033047.JPG,false,1,keypress(m),500,343662.3000000119,343662,340155.866,340167.60000000894,340172.533,343672.603,8,400,12,,ISIC_0033573.JPG
break,html.Screen,4_61_1,2023-11-06T21:11:39.489Z,,0,,,NaN,,,,,,false,,,,343664.3000000119,343664,,343663.5,,343672.603,8,400,,,
break_continue,html.Screen,4_61_2,2023-11-06T21:11:39.489Z,,0,,,NaN,,,,,,false,,,,343664.90000000596,343664.60000000894,,343664.5,,343672.603,8,400,,,
sequence,flow.Sequence,4_61,2023-11-06T21:11:39.489Z,,0,,,3492.067000008945,completion,,,,,false,,,,343665.10000000894,343664.60000000894,340155.866,340167.60000000894,340172.533,343672.603,8,400,,,
trial,html.Screen,4_62_0,2023-11-06T21:11:43.446Z,,0,2,,3948.396999999997,response,ISIC_0028759.JPG,6,ISIC_0011645.JPG,ISIC_0011645.JPG,false,0,keypress(z),500,347621.200000003,347621,343655.936,343665.200000003,343672.603,347623.194,8,400,13,,ISIC_0028759.JPG
break,html.Screen,4_62_1,2023-11-06T21:11:43.447Z,,0,,,NaN,,,,,,false,,,,347622.200000003,347621.90000000596,,347621.5,,347623.194,8,400,,,
break_continue,html.Screen,4_62_2,2023-11-06T21:11:43.447Z,,0,,,NaN,,,,,,false,,,,347622.700000003,347622.5,,347622.40000000596,,347623.194,8,400,,,
sequence,flow.Sequence,4_62,2023-11-06T21:11:43.447Z,,0,,,3949.896999999997,completion,,,,,false,,,,347623,347622.5,343655.936,343665.200000003,343672.603,347623.194,8,400,,,
trial,html.Screen,4_63_0,2023-11-06T21:11:46.428Z,,0,2,,2980.3059999999823,response,ISIC_9906378.JPG,7,ISIC_0071040.JPG,ISIC_0071040.JPG,false,0,keypress(z),500,350603.8000000119,350603.5,347606.527,347623.10000000894,347623.194,350606.587,8,400,14,,ISIC_9906378.JPG
break,html.Screen,4_63_1,2023-11-06T21:11:46.429Z,,0,,,NaN,,,,,,false,,,,350604.8000000119,350604.5,,350604.10000000894,,350606.587,8,400,,,
break_continue,html.Screen,4_63_2,2023-11-06T21:11:46.430Z,,0,,,NaN,,,,,,false,,,,350605.3000000119,350605.200000003,,350605,,350606.587,8,400,,,
sequence,flow.Sequence,4_63,2023-11-06T21:11:46.430Z,,0,,,2982.0060000029625,completion,,,,,false,,,,350605.60000000894,350605.200000003,347606.527,347623.10000000894,347623.194,350606.587,8,400,,,
trial,html.Screen,4_64_0,2023-11-06T21:11:50.581Z,,0,2,,4149.313000005961,response,ISIC_0025550.JPG,8,ISIC_0844312.JPG,ISIC_0844312.JPG,false,0,keypress(z),500,354756.200000003,354755.90000000596,350589.92,350605.8000000119,350606.587,354773.337,8,400,15,,ISIC_0025550.JPG
break,html.Screen,4_64_1,2023-11-06T21:11:50.582Z,,0,,,NaN,,,,,,false,,,,354757.200000003,354756.90000000596,,354756.40000000596,,354773.337,8,400,,,
break_continue,html.Screen,4_64_2,2023-11-06T21:11:50.582Z,,0,,,NaN,,,,,,false,,,,354757.700000003,354757.5,,354757.3000000119,,354773.337,8,400,,,
sequence,flow.Sequence,4_64,2023-11-06T21:11:50.583Z,,0,,,4150.9130000000005,completion,,,,,false,,,,354757.90000000596,354757.5,350589.92,350605.700000003,350606.587,354773.337,8,400,,,
trial,html.Screen,4_65_0,2023-11-06T21:11:54.249Z,,0,2,,3650.763000008941,response,ISIC_0028275.JPG,5,ISIC_0058716.JPG,ISIC_0028275.JPG,false,1,keypress(m),500,358424.3000000119,358424.10000000894,354756.67,354758.10000000894,354773.337,358440.568,8,400,16,,ISIC_0058716.JPG
break,html.Screen,4_65_1,2023-11-06T21:11:54.250Z,,0,,,NaN,,,,,,false,,,,358425.5,358425.10000000894,,358424.5,,358440.568,8,400,,,
break_continue,html.Screen,4_65_2,2023-11-06T21:11:54.251Z,,0,,,NaN,,,,,,false,,,,358426.200000003,358425.90000000596,,358425.700000003,,358440.568,8,400,,,
sequence,flow.Sequence,4_65,2023-11-06T21:11:54.251Z,,0,,,3652.563000005961,completion,,,,,false,,,,358426.40000000596,358425.90000000596,354756.67,354758.10000000894,354773.337,358440.568,8,400,,,
trial,html.Screen,4_66_0,2023-11-06T21:12:00.590Z,,0,2,,6323.931999999972,response,ISIC_0060897.JPG,6,ISIC_7535412.JPG,ISIC_0060897.JPG,false,1,keypress(m),500,364764.700000003,364764.5,358423.901,358426.700000003,358440.568,364790.695,8,400,17,,ISIC_7535412.JPG
break,html.Screen,4_66_1,2023-11-06T21:12:00.591Z,,0,,,NaN,,,,,,false,,,,364765.700000003,364765.40000000596,,364765,,364790.695,8,400,,,
break_continue,html.Screen,4_66_2,2023-11-06T21:12:00.591Z,,0,,,NaN,,,,,,false,,,,364766.200000003,364766.10000000894,,364765.8000000119,,364790.695,8,400,,,
sequence,flow.Sequence,4_66,2023-11-06T21:12:00.592Z,,0,,,6325.532000008912,completion,,,,,false,,,,364766.5,364766.10000000894,358423.901,358426.60000000894,358440.568,364790.695,8,400,,,
trial,html.Screen,4_67_0,2023-11-06T21:12:07.077Z,,0,2,,6460.304999999993,response,ISIC_0013052.JPG,5,ISIC_0292775.JPG,ISIC_0292775.JPG,false,0,keypress(z),500,371251.3000000119,371251,364774.028,364766.60000000894,364790.695,371258.005,8,400,18,,ISIC_0013052.JPG
break,html.Screen,4_67_1,2023-11-06T21:12:07.078Z,,0,,,NaN,,,,,,false,,,,371252.40000000596,371251.90000000596,,371251.40000000596,,371258.005,8,400,,,
break_continue,html.Screen,4_67_2,2023-11-06T21:12:07.078Z,,0,,,NaN,,,,,,false,,,,371253.10000000894,371253,,371252.60000000894,,371258.005,8,400,,,
sequence,flow.Sequence,4_67,2023-11-06T21:12:07.079Z,,0,,,6462.304999999993,completion,,,,,false,,,,371253.40000000596,371253,364774.028,364766.5,364790.695,371258.005,8,400,,,
trial,html.Screen,4_68_0,2023-11-06T21:12:13.137Z,,0,2,,6052.695000002976,response,ISIC_7460111.JPG,8,ISIC_0015200.JPG,ISIC_0015200.JPG,false,0,keypress(z),500,377311.10000000894,377310.700000003,371241.338,371253.60000000894,371258.005,377324.793,8,400,19,,ISIC_7460111.JPG
break,html.Screen,4_68_1,2023-11-06T21:12:13.138Z,,0,,,NaN,,,,,,false,,,,377312.10000000894,377311.8000000119,,377311.3000000119,,377324.793,8,400,,,
break_continue,html.Screen,4_68_2,2023-11-06T21:12:13.138Z,,0,,,NaN,,,,,,false,,,,377312.8000000119,377312.60000000894,,377312.3000000119,,377324.793,8,400,,,
sequence,flow.Sequence,4_68,2023-11-06T21:12:13.138Z,,0,,,6054.595000008936,completion,,,,,false,,,,377313.10000000894,377312.60000000894,371241.338,371253.5,371258.005,377324.793,8,400,,,
trial,html.Screen,4_69_0,2023-11-06T21:12:19.148Z,,0,2,,5997.507000011916,response,ISIC_1869829.JPG,6,ISIC_1161370.JPG,ISIC_1869829.JPG,false,1,keypress(m),500,383322.700000003,383322.3000000119,377308.126,377313.200000003,377324.793,383325.389,8,400,20,,ISIC_1161370.JPG
break,html.Screen,4_69_1,2023-11-06T21:12:19.149Z,,0,,,NaN,,,,,,false,,,,383323.60000000894,383323.40000000596,,383322.90000000596,,383325.389,8,400,,,
break_continue,html.Screen,4_69_2,2023-11-06T21:12:19.151Z,,0,,,NaN,,,,,,false,,,,383325.5,383325.40000000596,,383325,,383325.389,8,400,,,
sequence,flow.Sequence,4_69,2023-11-06T21:12:19.151Z,,0,,,6000.607000005955,completion,,,,,false,,,,383325.8000000119,383325.40000000596,377308.126,377313.200000003,377324.793,383325.389,8,400,,,
trial,html.Screen,4_70_0,2023-11-06T21:12:28.436Z,,0,2,,9284.311000002956,response,ISIC_4246086.JPG,8,ISIC_7797853.JPG,ISIC_7797853.JPG,false,0,keypress(z),500,392610,392609.700000003,383308.722,383326,383325.389,392626.23,8,400,21,,ISIC_4246086.JPG
break,html.Screen,4_70_1,2023-11-06T21:12:28.437Z,,0,,,NaN,,,,,,false,,,,392611,392610.700000003,,392610.200000003,,392626.23,8,400,,,
break_continue,html.Screen,4_70_2,2023-11-06T21:12:28.437Z,,0,,,NaN,,,,,,false,,,,392611.5,392611.3000000119,,392611,,392626.23,8,400,,,
sequence,flow.Sequence,4_70,2023-11-06T21:12:28.438Z,,0,,,9285.911000011896,completion,,,,,false,,,,392611.700000003,392611.3000000119,383308.722,383326,383325.389,392626.23,8,400,,,
trial,html.Screen,4_71_0,2023-11-06T21:12:34.297Z,,0,2,,5844.57000001194,response,ISIC_0982757.JPG,7,ISIC_0027445.JPG,ISIC_0027445.JPG,false,0,keypress(z),500,398471.10000000894,398470.8000000119,392609.563,392611.90000000596,392626.23,398476.347,8,400,22,,ISIC_0982757.JPG
break,html.Screen,4_71_1,2023-11-06T21:12:34.298Z,,0,,,NaN,,,,,,false,,,,398472.10000000894,398471.8000000119,,398471.3000000119,,398476.347,8,400,,,
break_continue,html.Screen,4_71_2,2023-11-06T21:12:34.299Z,,0,,,NaN,,,,,,false,,,,398472.700000003,398472.5,,398472.3000000119,,398476.347,8,400,,,
sequence,flow.Sequence,4_71,2023-11-06T21:12:34.299Z,,0,,,5846.270000000019,completion,,,,,false,,,,398472.90000000596,398472.5,392609.563,392611.8000000119,392626.23,398476.347,8,400,,,
trial,html.Screen,4_72_0,2023-11-06T21:12:39.135Z,,0,2,,4831.953000011912,response,ISIC_0011987.JPG,8,ISIC_4084359.JPG,ISIC_4084359.JPG,false,0,keypress(z),500,403308.60000000894,403308.3000000119,398459.68,398473.10000000894,398476.347,403310.269,8,400,23,,ISIC_0011987.JPG
break,html.Screen,4_72_1,2023-11-06T21:12:39.136Z,,0,,,NaN,,,,,,false,,,,403309.60000000894,403309.200000003,,403308.8000000119,,403310.269,8,400,,,
break_continue,html.Screen,4_72_2,2023-11-06T21:12:39.136Z,,0,,,NaN,,,,,,false,,,,403310.10000000894,403309.90000000596,,403309.700000003,,403310.269,8,400,,,
sequence,flow.Sequence,4_72,2023-11-06T21:12:39.137Z,,0,,,4833.553000005952,completion,,,,,false,,,,403310.3000000119,403309.90000000596,398459.68,398473,398476.347,403310.269,8,400,,,
trial,html.Screen,4_73_0,2023-11-06T21:12:44.179Z,,0,2,,5042.431000003009,response,ISIC_0032561.JPG,7,ISIC_7763042.JPG,ISIC_0032561.JPG,false,1,keypress(m),500,408353,408352.700000003,403293.602,403310.5,403310.269,408377.037,8,400,24,,ISIC_7763042.JPG
break,html.Screen,4_73_1,2023-11-06T21:12:44.180Z,,0,,,NaN,,,,,,false,,,,408353.90000000596,408353.700000003,,408353.3000000119,,408377.037,8,400,,,
break_continue,html.Screen,4_73_2,2023-11-06T21:12:44.181Z,,0,,,NaN,,,,,,false,,,,408354.5,408354.40000000596,,408354.10000000894,,408377.037,8,400,,,
sequence,flow.Sequence,4_73,2023-11-06T21:12:44.181Z,,0,,,5044.131000005989,completion,,,,,false,,,,408354.60000000894,408354.40000000596,403293.602,403310.5,403310.269,408377.037,8,400,,,
trial,html.Screen,4_74_0,2023-11-06T21:12:50.047Z,,0,2,,5842.962999999989,response,ISIC_0010596.JPG,6,ISIC_0057759.JPG,ISIC_0057759.JPG,false,0,keypress(z),500,414220.200000003,414220,408360.37,408354.90000000596,408377.037,414227.66,8,400,25,,ISIC_0010596.JPG
break,html.Screen,4_74_1,2023-11-06T21:12:50.048Z,,0,,,NaN,,,,,,false,,,,414221.200000003,414221,,414220.40000000596,,414227.66,8,400,,,
break_continue,html.Screen,4_74_2,2023-11-06T21:12:50.048Z,,0,,,NaN,,,,,,false,,,,414221.700000003,414221.60000000894,,414221.40000000596,,414227.66,8,400,,,
sequence,flow.Sequence,4_74,2023-11-06T21:12:50.049Z,,0,,,5844.5630000089295,completion,,,,,false,,,,414222,414221.60000000894,408360.37,408354.8000000119,408377.037,414227.66,8,400,,,
trial,html.Screen,4_75_0,2023-11-06T21:12:53.639Z,,0,2,,3583.9400000089663,response,ISIC_0062456.JPG,7,ISIC_3389695.JPG,ISIC_3389695.JPG,false,0,keypress(z),500,417811.90000000596,417811.60000000894,414210.993,414222.10000000894,414227.66,417827.732,8,400,26,,ISIC_0062456.JPG
break,html.Screen,4_75_1,2023-11-06T21:12:53.640Z,,0,,,NaN,,,,,,false,,,,417813,417812.700000003,,417812.10000000894,,417827.732,8,400,,,
break_continue,html.Screen,4_75_2,2023-11-06T21:12:53.640Z,,0,,,NaN,,,,,,false,,,,417813.5,417813.40000000596,,417813.200000003,,417827.732,8,400,,,
sequence,flow.Sequence,4_75,2023-11-06T21:12:53.640Z,,0,,,3585.740000005986,completion,,,,,false,,,,417813.700000003,417813.40000000596,414210.993,414222.10000000894,414227.66,417827.732,8,400,,,
trial,html.Screen,4_76_0,2023-11-06T21:12:56.316Z,,0,2,,2660.968000002962,response,ISIC_0011057.JPG,9,ISIC_8714502.JPG,ISIC_0011057.JPG,false,1,keypress(m),500,420489,420488.700000003,417811.065,417813.90000000596,417827.732,420494.452,8,400,27,,ISIC_8714502.JPG
break,html.Screen,4_76_1,2023-11-06T21:12:56.317Z,,0,,,NaN,,,,,,false,,,,420490,420489.8000000119,,420489.3000000119,,420494.452,8,400,,,
break_continue,html.Screen,4_76_2,2023-11-06T21:12:56.317Z,,0,,,NaN,,,,,,false,,,,420490.700000003,420490.40000000596,,420490.3000000119,,420494.452,8,400,,,
sequence,flow.Sequence,4_76,2023-11-06T21:12:56.318Z,,0,,,2662.6680000059423,completion,,,,,false,,,,420490.90000000596,420490.40000000596,417811.065,417813.90000000596,417827.732,420494.452,8,400,,,
trial,html.Screen,4_77_0,2023-11-06T21:12:59.014Z,,0,2,,2692.3480000119307,response,ISIC_0033318.JPG,8,ISIC_0029736.JPG,ISIC_0029736.JPG,false,0,keypress(z),500,423187,423186.8000000119,420477.785,420491.10000000894,420494.452,423211.173,8,400,28,,ISIC_0033318.JPG
break,html.Screen,4_77_1,2023-11-06T21:12:59.015Z,,0,,,NaN,,,,,,false,,,,423188,423187.8000000119,,423187.3000000119,,423211.173,8,400,,,
break_continue,html.Screen,4_77_2,2023-11-06T21:12:59.015Z,,0,,,NaN,,,,,,false,,,,423188.5,423188.40000000596,,423188.200000003,,423211.173,8,400,,,
sequence,flow.Sequence,4_77,2023-11-06T21:12:59.016Z,,0,,,2693.9480000059702,completion,,,,,false,,,,423188.700000003,423188.40000000596,420477.785,420491.10000000894,420494.452,423211.173,8,400,,,
trial,html.Screen,4_78_0,2023-11-06T21:13:01.391Z,,0,2,,2352.82699999999,response,ISIC_0026394.JPG,7,ISIC_3058800.JPG,ISIC_3058800.JPG,false,0,keypress(z),500,425564.200000003,425564,423177.839,423189,423211.173,425578.364,8,400,29,,ISIC_0026394.JPG
break,html.Screen,4_78_1,2023-11-06T21:13:01.392Z,,0,,,NaN,,,,,,false,,,,425565.200000003,425565,,425564.5,,425578.364,8,400,,,
break_continue,html.Screen,4_78_2,2023-11-06T21:13:01.393Z,,0,,,NaN,,,,,,false,,,,425565.8000000119,425565.60000000894,,425565.40000000596,,425578.364,8,400,,,
sequence,flow.Sequence,4_78,2023-11-06T21:13:01.393Z,,0,,,2354.427000008931,completion,,,,,false,,,,425566,425565.60000000894,423177.839,423188.90000000596,423211.173,425578.364,8,400,,,
trial,html.Screen,4_79_0,2023-11-06T21:13:04.468Z,,0,2,,3062.836000002979,response,ISIC_0061418.JPG,7,ISIC_6003500.JPG,ISIC_0061418.JPG,false,1,keypress(m),500,428641.5,428641.200000003,425561.697,425566.200000003,425578.364,428645.092,8,400,30,,ISIC_6003500.JPG
break,html.Screen,4_79_1,2023-11-06T21:13:04.469Z,,0,,,NaN,,,,,,false,,,,428642.5,428642.200000003,,428641.700000003,,428645.092,8,400,,,
break_continue,html.Screen,4_79_2,2023-11-06T21:13:04.470Z,,0,,,NaN,,,,,,false,,,,428642.90000000596,428642.90000000596,,428642.60000000894,,428645.092,8,400,,,
sequence,flow.Sequence,4_79,2023-11-06T21:13:04.470Z,,0,,,3064.536000005959,completion,,,,,false,,,,428643.10000000894,428642.90000000596,425561.697,425566.10000000894,425578.364,428645.092,8,400,,,
trial,html.Screen,4_80_0,2023-11-06T21:13:07.035Z,,0,2,,2562.108000002976,response,ISIC_4184050.JPG,7,ISIC_0024512.JPG,ISIC_0024512.JPG,false,0,keypress(z),500,431207.40000000596,431207.200000003,428628.425,428643.40000000596,428645.092,431211.81,8,400,31,,ISIC_4184050.JPG
break,html.Screen,4_80_1,2023-11-06T21:13:07.035Z,,0,,,NaN,,,,,,false,,,,431208.40000000596,431208.200000003,,431207.60000000894,,431211.81,8,400,,,
break_continue,html.Screen,4_80_2,2023-11-06T21:13:07.036Z,,0,,,NaN,,,,,,false,,,,431208.90000000596,431208.8000000119,,431208.5,,431211.81,8,400,,,
sequence,flow.Sequence,4_80,2023-11-06T21:13:07.036Z,,0,,,2563.7080000119167,completion,,,,,false,,,,431209.10000000894,431208.8000000119,428628.425,428643.3000000119,428645.092,431211.81,8,400,,,
trial,html.Screen,4_81_0,2023-11-06T21:13:10.498Z,,0,2,,3458.790000008943,response,ISIC_0054705.JPG,6,ISIC_0056155.JPG,ISIC_0056155.JPG,false,0,keypress(z),500,434670.700000003,434670.60000000894,431195.143,431209.200000003,431211.81,434679.022,8,400,32,,ISIC_0054705.JPG
break,html.Screen,4_81_1,2023-11-06T21:13:10.499Z,,0,,,NaN,,,,,,false,,,,434671.700000003,434671.40000000596,,434671,,434679.022,8,400,,,
break_continue,html.Screen,4_81_2,2023-11-06T21:13:10.499Z,,0,,,NaN,,,,,,false,,,,434672.200000003,434672.10000000894,,434671.8000000119,,434679.022,8,400,,,
sequence,flow.Sequence,4_81,2023-11-06T21:13:10.500Z,,0,,,3460.290000008943,completion,,,,,false,,,,434672.40000000596,434672.10000000894,431195.143,431209.200000003,431211.81,434679.022,8,400,,,
trial,html.Screen,4_82_0,2023-11-06T21:13:13.294Z,,0,2,,2787.678000002983,response,ISIC_1737600.JPG,6,ISIC_0010611.JPG,ISIC_1737600.JPG,false,1,keypress(m),500,437466.90000000596,437466.700000003,434662.355,434672.60000000894,434679.022,437479.078,8,400,33,,ISIC_0010611.JPG
break,html.Screen,4_82_1,2023-11-06T21:13:13.295Z,,0,,,NaN,,,,,,false,,,,437467.90000000596,437467.60000000894,,437467.200000003,,437479.078,8,400,,,
break_continue,html.Screen,4_82_2,2023-11-06T21:13:13.296Z,,0,,,NaN,,,,,,false,,,,437468.40000000596,437468.200000003,,437468,,437479.078,8,400,,,
sequence,flow.Sequence,4_82,2023-11-06T21:13:13.296Z,,0,,,2789.178000002983,completion,,,,,false,,,,437468.700000003,437468.200000003,434662.355,434672.60000000894,434679.022,437479.078,8,400,,,
trial,html.Screen,4_83_0,2023-11-06T21:13:16.485Z,,0,2,,3178.522000008961,response,ISIC_0010742.JPG,8,ISIC_2894223.JPG,ISIC_0010742.JPG,false,1,keypress(m),500,440657.90000000596,440657.60000000894,437462.411,437468.8000000119,437479.078,440662.475,8,400,34,,ISIC_2894223.JPG
break,html.Screen,4_83_1,2023-11-06T21:13:16.486Z,,0,,,NaN,,,,,,false,,,,440658.8000000119,440658.60000000894,,440658.10000000894,,440662.475,8,400,,,
break_continue,html.Screen,4_83_2,2023-11-06T21:13:16.487Z,,0,,,NaN,,,,,,false,,,,440659.3000000119,440659.200000003,,440659,,440662.475,8,400,,,
sequence,flow.Sequence,4_83,2023-11-06T21:13:16.487Z,,0,,,3180.1220000030007,completion,,,,,false,,,,440659.60000000894,440659.200000003,437462.411,437468.8000000119,437479.078,440662.475,8,400,,,
trial,html.Screen,4_84_0,2023-11-06T21:13:19.979Z,,0,2,,3488.9250000059837,response,ISIC_0000296.JPG,6,ISIC_6917681.JPG,ISIC_0000296.JPG,false,1,keypress(m),500,444151.60000000894,444151.40000000596,440645.808,440659.700000003,440662.475,444163.04,8,400,35,,ISIC_6917681.JPG
break,html.Screen,4_84_1,2023-11-06T21:13:19.980Z,,0,,,NaN,,,,,,false,,,,444152.60000000894,444152.3000000119,,444151.8000000119,,444163.04,8,400,,,
break_continue,html.Screen,4_84_2,2023-11-06T21:13:19.981Z,,0,,,NaN,,,,,,false,,,,444153.10000000894,444153,,444152.700000003,,444163.04,8,400,,,
sequence,flow.Sequence,4_84,2023-11-06T21:13:19.981Z,,0,,,3490.5250000000233,completion,,,,,false,,,,444153.40000000596,444153,440645.808,440659.700000003,440662.475,444163.04,8,400,,,
trial,html.Screen,4_85_0,2023-11-06T21:13:23.027Z,,0,2,,3036.160000003001,response,ISIC_5555140.JPG,6,ISIC_0054770.JPG,ISIC_0054770.JPG,false,0,keypress(z),500,447199.40000000596,447199.200000003,444146.373,444153.700000003,444163.04,447213.101,8,400,36,,ISIC_5555140.JPG
break,html.Screen,4_85_1,2023-11-06T21:13:23.028Z,,0,,,NaN,,,,,,false,,,,447200.40000000596,447200.10000000894,,447199.60000000894,,447213.101,8,400,,,
break_continue,html.Screen,4_85_2,2023-11-06T21:13:23.028Z,,0,,,NaN,,,,,,false,,,,447200.90000000596,447200.8000000119,,447200.5,,447213.101,8,400,,,
sequence,flow.Sequence,4_85,2023-11-06T21:13:23.029Z,,0,,,3037.760000011942,completion,,,,,false,,,,447201.10000000894,447200.8000000119,444146.373,444153.60000000894,444163.04,447213.101,8,400,,,
trial,html.Screen,4_86_0,2023-11-06T21:13:26.313Z,,0,2,,3272.1990000118967,response,ISIC_0592973.JPG,7,ISIC_0027839.JPG,ISIC_0027839.JPG,false,0,keypress(z),500,450485.60000000894,450485.3000000119,447196.434,447201.40000000596,447213.101,450496.5,8,400,37,,ISIC_0592973.JPG
break,html.Screen,4_86_1,2023-11-06T21:13:26.314Z,,0,,,NaN,,,,,,false,,,,450486.60000000894,450486.40000000596,,450485.90000000596,,450496.5,8,400,,,
break_continue,html.Screen,4_86_2,2023-11-06T21:13:26.315Z,,0,,,NaN,,,,,,false,,,,450487.200000003,450487.10000000894,,450486.8000000119,,450496.5,8,400,,,
sequence,flow.Sequence,4_86,2023-11-06T21:13:26.315Z,,0,,,3273.9990000089165,completion,,,,,false,,,,450487.5,450487.10000000894,447196.434,447201.3000000119,447213.101,450496.5,8,400,,,
trial,html.Screen,4_87_0,2023-11-06T21:13:29.054Z,,0,2,,2729.1000000089407,response,ISIC_3273370.JPG,6,ISIC_0033962.JPG,ISIC_0033962.JPG,false,0,keypress(z),500,453225.8000000119,453225.60000000894,450479.833,450487.700000003,450496.5,453229.888,8,400,38,,ISIC_3273370.JPG
break,html.Screen,4_87_1,2023-11-06T21:13:29.054Z,,0,,,NaN,,,,,,false,,,,453226.700000003,453226.5,,453226.10000000894,,453229.888,8,400,,,
break_continue,html.Screen,4_87_2,2023-11-06T21:13:29.055Z,,0,,,NaN,,,,,,false,,,,453227.3000000119,453227.10000000894,,453226.90000000596,,453229.888,8,400,,,
sequence,flow.Sequence,4_87,2023-11-06T21:13:29.055Z,,0,,,2730.6000000089407,completion,,,,,false,,,,453227.700000003,453227.10000000894,450479.833,450487.60000000894,450496.5,453229.888,8,400,,,
trial,html.Screen,4_88_0,2023-11-06T21:13:32.147Z,,0,2,,3089.112000000023,response,ISIC_0753112.JPG,5,ISIC_0918078.JPG,ISIC_0753112.JPG,false,1,keypress(m),500,456319.3000000119,456319,453213.221,453227.8000000119,453229.888,456330.433,8,400,39,,ISIC_0918078.JPG
break,html.Screen,4_88_1,2023-11-06T21:13:32.148Z,,0,,,NaN,,,,,,false,,,,456320.200000003,456320,,456319.5,,456330.433,8,400,,,
break_continue,html.Screen,4_88_2,2023-11-06T21:13:32.149Z,,0,,,NaN,,,,,,false,,,,456320.700000003,456320.60000000894,,456320.40000000596,,456330.433,8,400,,,
sequence,flow.Sequence,4_88,2023-11-06T21:13:32.149Z,,0,,,3090.7120000089635,completion,,,,,false,,,,456321.10000000894,456320.60000000894,453213.221,453227.8000000119,453229.888,456330.433,8,400,,,
trial,html.Screen,4_89_0,2023-11-06T21:13:34.810Z,,0,2,,2651.367000011902,response,ISIC_0028780.JPG,6,ISIC_8618835.JPG,ISIC_8618835.JPG,false,0,keypress(z),500,458982,458981.8000000119,456313.766,456321.200000003,456330.433,458997.153,8,400,40,,ISIC_0028780.JPG
break,html.Screen,4_89_1,2023-11-06T21:13:34.811Z,,0,,,NaN,,,,,,false,,,,458982.90000000596,458982.700000003,,458982.200000003,,458997.153,8,400,,,
break_continue,html.Screen,4_89_2,2023-11-06T21:13:34.811Z,,0,,,NaN,,,,,,false,,,,458983.5,458983.3000000119,,458983.10000000894,,458997.153,8,400,,,
sequence,flow.Sequence,4_89,2023-11-06T21:13:34.812Z,,0,,,2652.867000011902,completion,,,,,false,,,,458983.8000000119,458983.3000000119,456313.766,456321.200000003,456330.433,458997.153,8,400,,,
trial,html.Screen,4_90_0,2023-11-06T21:13:37.521Z,,0,2,,2695.347000000009,response,ISIC_0024229.JPG,7,ISIC_7462953.JPG,ISIC_7462953.JPG,false,0,keypress(z),500,461692.90000000596,461692.5,458980.486,458983.90000000596,458997.153,461697.207,8,400,41,,ISIC_0024229.JPG
break,html.Screen,4_90_1,2023-11-06T21:13:37.522Z,,0,,,NaN,,,,,,false,,,,461693.90000000596,461693.60000000894,,461693.10000000894,,461697.207,8,400,,,
break_continue,html.Screen,4_90_2,2023-11-06T21:13:37.522Z,,0,,,NaN,,,,,,false,,,,461694.40000000596,461694.3000000119,,461694,,461697.207,8,400,,,
sequence,flow.Sequence,4_90,2023-11-06T21:13:37.523Z,,0,,,2697.14700001193,completion,,,,,false,,,,461694.60000000894,461694.3000000119,458980.486,458983.90000000596,458997.153,461697.207,8,400,,,
trial,html.Screen,4_91_0,2023-11-06T21:13:40.362Z,,0,2,,2836.393000008946,response,ISIC_3727059.JPG,5,ISIC_0310134.JPG,ISIC_3727059.JPG,false,1,keypress(m),500,464533.8000000119,464533.60000000894,461680.54,461694.90000000596,461697.207,464547.749,8,400,42,,ISIC_0310134.JPG
break,html.Screen,4_91_1,2023-11-06T21:13:40.363Z,,0,,,NaN,,,,,,false,,,,464534.8000000119,464534.60000000894,,464534.10000000894,,464547.749,8,400,,,
break_continue,html.Screen,4_91_2,2023-11-06T21:13:40.363Z,,0,,,NaN,,,,,,false,,,,464535.3000000119,464535.200000003,,464535,,464547.749,8,400,,,
sequence,flow.Sequence,4_91,2023-11-06T21:13:40.364Z,,0,,,2837.9930000029854,completion,,,,,false,,,,464535.700000003,464535.200000003,461680.54,461694.8000000119,461697.207,464547.749,8,400,,,
trial,html.Screen,4_92_0,2023-11-06T21:13:43.616Z,,0,2,,3239.35100000893,response,ISIC_7798358.JPG,5,ISIC_8438811.JPG,ISIC_7798358.JPG,false,1,keypress(m),500,467787.5,467787.10000000894,464531.082,464535.90000000596,464547.749,467797.814,8,400,43,,ISIC_8438811.JPG
break,html.Screen,4_92_1,2023-11-06T21:13:43.617Z,,0,,,NaN,,,,,,false,,,,467788.5,467788.10000000894,,467787.700000003,,467797.814,8,400,,,
break_continue,html.Screen,4_92_2,2023-11-06T21:13:43.617Z,,0,,,NaN,,,,,,false,,,,467789,467788.8000000119,,467788.60000000894,,467797.814,8,400,,,
sequence,flow.Sequence,4_92,2023-11-06T21:13:43.617Z,,0,,,3241.05100001191,completion,,,,,false,,,,467789.200000003,467788.8000000119,464531.082,464535.90000000596,464547.749,467797.814,8,400,,,
trial,html.Screen,4_93_0,2023-11-06T21:13:46.216Z,,0,2,,2589.986000011908,response,ISIC_4814912.JPG,9,ISIC_8814612.JPG,ISIC_4814912.JPG,false,1,keypress(m),500,470388,470387.8000000119,467781.147,467789.40000000596,467797.814,470397.866,8,400,44,,ISIC_8814612.JPG
break,html.Screen,4_93_1,2023-11-06T21:13:46.217Z,,0,,,NaN,,,,,,false,,,,470389,470388.700000003,,470388.3000000119,,470397.866,8,400,,,
break_continue,html.Screen,4_93_2,2023-11-06T21:13:46.218Z,,0,,,NaN,,,,,,false,,,,470389.5,470389.40000000596,,470389.200000003,,470397.866,8,400,,,
sequence,flow.Sequence,4_93,2023-11-06T21:13:46.218Z,,0,,,2591.5860000059474,completion,,,,,false,,,,470389.8000000119,470389.40000000596,467781.147,467789.3000000119,467797.814,470397.866,8,400,,,
trial,html.Screen,4_94_0,2023-11-06T21:13:48.718Z,,0,2,,2491.434000011941,response,ISIC_2395624.JPG,5,ISIC_0025702.JPG,ISIC_2395624.JPG,false,1,keypress(m),500,472889.60000000894,472889.3000000119,470381.199,470390,470397.866,472897.916,8,400,45,,ISIC_0025702.JPG
break,html.Screen,4_94_1,2023-11-06T21:13:48.719Z,,0,,,NaN,,,,,,false,,,,472890.5,472890.200000003,,472889.8000000119,,472897.916,8,400,,,
break_continue,html.Screen,4_94_2,2023-11-06T21:13:48.719Z,,0,,,NaN,,,,,,false,,,,472891.10000000894,472890.90000000596,,472890.700000003,,472897.916,8,400,,,
sequence,flow.Sequence,4_94,2023-11-06T21:13:48.720Z,,0,,,2493.0340000059805,completion,,,,,false,,,,472891.3000000119,472890.90000000596,470381.199,470389.90000000596,470397.866,472897.916,8,400,,,
trial,html.Screen,4_95_0,2023-11-06T21:13:52.133Z,,0,2,,3406.5839999999735,response,ISIC_8295834.JPG,6,ISIC_6759173.JPG,ISIC_8295834.JPG,false,1,keypress(m),500,476304.8000000119,476304.5,472881.249,472891.5,472897.916,476331.794,8,400,46,,ISIC_6759173.JPG
break,html.Screen,4_95_1,2023-11-06T21:13:52.134Z,,0,,,NaN,,,,,,false,,,,476305.700000003,476305.5,,476305,,476331.794,8,400,,,
break_continue,html.Screen,4_95_2,2023-11-06T21:13:52.135Z,,0,,,NaN,,,,,,false,,,,476306.5,476306.3000000119,,476306.10000000894,,476331.794,8,400,,,
sequence,flow.Sequence,4_95,2023-11-06T21:13:52.135Z,,0,,,3408.3840000118944,completion,,,,,false,,,,476306.700000003,476306.3000000119,472881.249,472891.5,472897.916,476331.794,8,400,,,
trial,html.Screen,4_96_0,2023-11-06T21:13:54.974Z,,0,2,,2813.906000002986,response,ISIC_9126343.JPG,7,ISIC_0068924.JPG,ISIC_0068924.JPG,false,0,keypress(z),500,479145.90000000596,479145.700000003,476315.127,476306.90000000596,476331.794,479148.517,8,400,47,,ISIC_9126343.JPG
break,html.Screen,4_96_1,2023-11-06T21:13:54.975Z,,0,,,NaN,,,,,,false,,,,479146.90000000596,479146.60000000894,,479146.200000003,,479148.517,8,400,,,
break_continue,html.Screen,4_96_2,2023-11-06T21:13:54.976Z,,0,,,NaN,,,,,,false,,,,479147.5,479147.3000000119,,479147.10000000894,,479148.517,8,400,,,
sequence,flow.Sequence,4_96,2023-11-06T21:13:54.976Z,,0,,,2815.5060000119265,completion,,,,,false,,,,479147.8000000119,479147.3000000119,476315.127,476306.8000000119,476331.794,479148.517,8,400,,,
trial,html.Screen,4_97_0,2023-11-06T21:13:57.739Z,,0,2,,2761.2830000119284,response,ISIC_0053725.JPG,8,ISIC_0030969.JPG,ISIC_0030969.JPG,false,0,keypress(z),500,481910.200000003,481909.8000000119,479131.85,479148,479148.517,481915.239,8,400,48,,ISIC_0053725.JPG
break,html.Screen,4_97_1,2023-11-06T21:13:57.740Z,,0,,,NaN,,,,,,false,,,,481911.200000003,481911,,481910.5,,481915.239,8,400,,,
break_continue,html.Screen,4_97_2,2023-11-06T21:13:57.740Z,,0,,,NaN,,,,,,false,,,,481911.90000000596,481911.700000003,,481911.40000000596,,481915.239,8,400,,,
sequence,flow.Sequence,4_97,2023-11-06T21:13:57.741Z,,0,,,2763.1830000029877,completion,,,,,false,,,,481912,481911.700000003,479131.85,479147.90000000596,479148.517,481915.239,8,400,,,
trial,html.Screen,4_98_0,2023-11-06T21:14:00.593Z,,0,2,,2848.8610000089393,response,ISIC_6483504.JPG,5,ISIC_0032490.JPG,ISIC_0032490.JPG,false,0,keypress(z),500,484764.40000000596,484764.10000000894,481898.572,481912.3000000119,481915.239,484765.779,8,400,49,,ISIC_6483504.JPG
break,html.Screen,4_98_1,2023-11-06T21:14:00.594Z,,0,,,NaN,,,,,,false,,,,484765.5,484765.200000003,,484764.60000000894,,484765.779,8,400,,,
break_continue,html.Screen,4_98_2,2023-11-06T21:14:00.595Z,,0,,,NaN,,,,,,false,,,,484766.10000000894,484765.8000000119,,484765.60000000894,,484765.779,8,400,,,
sequence,flow.Sequence,4_98,2023-11-06T21:14:00.595Z,,0,,,2850.5610000119195,completion,,,,,false,,,,484766.3000000119,484765.8000000119,481898.572,481912.10000000894,481915.239,484765.779,8,400,,,
trial,html.Screen,4_99_0,2023-11-06T21:14:04.013Z,,0,2,,3418.421000003,response,ISIC_0071594.JPG,6,ISIC_5591622.JPG,ISIC_5591622.JPG,false,0,keypress(z),500,488184.5,488184.200000003,484749.112,484766.5,484765.779,488199.181,8,400,50,,ISIC_0071594.JPG
break,html.Screen,4_99_1,2023-11-06T21:14:14.015Z,,0,,,10000.676000000036,timeout,,,,,false,,,,498185.60000000894,498183.19,488182.514,488184.8000000119,488199.181,498199.857,8,400,,,
break_continue,html.Screen,4_99_2,2023-11-06T21:14:14.790Z,,0,,,738.3430000029621,response,,,,,false,continue,keypress(Space),,498961.10000000894,498938.200000003,498183.19,498186.90000000596,498199.857,498966.539,8,400,,,
sequence,flow.Sequence,4_99,2023-11-06T21:14:14.790Z,,0,,,14172.421000003,completion,,,,,false,,,,498961.200000003,498938.200000003,484749.112,484766.5,484765.779,498966.539,8,400,,,
trial,html.Screen,4_100_0,2023-11-06T21:14:19.180Z,,0,3,,4383.96100000001,response,ISIC_0024441.JPG,8,ISIC_0000074.JPG,ISIC_0000074.JPG,false,0,keypress(z),500,503350.8000000119,503350.5,498949.872,498961.40000000596,498966.539,503366.627,8,400,1,,ISIC_0024441.JPG
break,html.Screen,4_100_1,2023-11-06T21:14:19.181Z,,0,,,NaN,,,,,,false,,,,503351.8000000119,503351.5,,503351,,503366.627,8,400,,,
break_continue,html.Screen,4_100_2,2023-11-06T21:14:19.182Z,,0,,,NaN,,,,,,false,,,,503352.40000000596,503352.200000003,,503351.90000000596,,503366.627,8,400,,,
sequence,flow.Sequence,4_100,2023-11-06T21:14:19.182Z,,0,,,4385.6610000029905,completion,,,,,false,,,,503352.5,503352.200000003,498949.872,498961.40000000596,498966.539,503366.627,8,400,,,
trial,html.Screen,4_101_0,2023-11-06T21:14:22.577Z,,0,3,,3380.6730000119423,response,ISIC_7515794.JPG,7,ISIC_0058331.JPG,ISIC_7515794.JPG,false,1,keypress(m),500,506747.60000000894,506747.3000000119,503349.96,503352.700000003,503366.627,506750.506,8,400,2,,ISIC_0058331.JPG
break,html.Screen,4_101_1,2023-11-06T21:14:22.578Z,,0,,,NaN,,,,,,false,,,,506748.5,506748.3000000119,,506747.8000000119,,506750.506,8,400,,,
break_continue,html.Screen,4_101_2,2023-11-06T21:14:22.578Z,,0,,,NaN,,,,,,false,,,,506749.10000000894,506748.90000000596,,506748.700000003,,506750.506,8,400,,,
sequence,flow.Sequence,4_101,2023-11-06T21:14:22.579Z,,0,,,3382.273000005982,completion,,,,,false,,,,506749.3000000119,506748.90000000596,503349.96,503352.700000003,503366.627,506750.506,8,400,,,
trial,html.Screen,4_102_0,2023-11-06T21:14:25.226Z,,0,3,,2645.294000011927,response,ISIC_0000421.JPG,6,ISIC_7947847.JPG,ISIC_0000421.JPG,false,1,keypress(m),500,509396.10000000894,509395.8000000119,506733.839,506749.5,506750.506,509400.559,8,400,3,,ISIC_7947847.JPG
break,html.Screen,4_102_1,2023-11-06T21:14:25.227Z,,0,,,NaN,,,,,,false,,,,509397.200000003,509396.90000000596,,509396.40000000596,,509400.559,8,400,,,
break_continue,html.Screen,4_102_2,2023-11-06T21:14:25.229Z,,0,,,NaN,,,,,,false,,,,509399.40000000596,509399.10000000894,,509398.700000003,,509400.559,8,400,,,
sequence,flow.Sequence,4_102,2023-11-06T21:14:25.229Z,,0,,,2648.5940000089468,completion,,,,,false,,,,509399.60000000894,509399.10000000894,506733.839,506749.40000000596,506750.506,509400.559,8,400,,,
trial,html.Screen,4_103_0,2023-11-06T21:14:28.181Z,,0,3,,2950.7410000119125,response,ISIC_0030135.JPG,8,ISIC_0008162.JPG,ISIC_0030135.JPG,false,1,keypress(m),500,512351.60000000894,512351.3000000119,509383.892,509399.8000000119,509400.559,512367.285,8,400,4,,ISIC_0008162.JPG
break,html.Screen,4_103_1,2023-11-06T21:14:28.182Z,,0,,,NaN,,,,,,false,,,,512352.60000000894,512352.3000000119,,512351.90000000596,,512367.285,8,400,,,
break_continue,html.Screen,4_103_2,2023-11-06T21:14:28.183Z,,0,,,NaN,,,,,,false,,,,512353.10000000894,512352.90000000596,,512352.700000003,,512367.285,8,400,,,
sequence,flow.Sequence,4_103,2023-11-06T21:14:28.183Z,,0,,,2952.341000005952,completion,,,,,false,,,,512353.40000000596,512352.90000000596,509383.892,509399.700000003,509400.559,512367.285,8,400,,,
trial,html.Screen,4_104_0,2023-11-06T21:14:30.924Z,,0,3,,2727.0150000119465,response,ISIC_8684147.JPG,8,ISIC_7724635.JPG,ISIC_8684147.JPG,false,1,keypress(m),500,515094.5,515094.3000000119,512350.618,512353.5,512367.285,515101.159,8,400,5,,ISIC_7724635.JPG
break,html.Screen,4_104_1,2023-11-06T21:14:30.925Z,,0,,,NaN,,,,,,false,,,,515095.40000000596,515095.200000003,,515094.8000000119,,515101.159,8,400,,,
break_continue,html.Screen,4_104_2,2023-11-06T21:14:30.926Z,,0,,,NaN,,,,,,false,,,,515096.10000000894,515095.90000000596,,515095.60000000894,,515101.159,8,400,,,
sequence,flow.Sequence,4_104,2023-11-06T21:14:30.926Z,,0,,,2728.615000005986,completion,,,,,false,,,,515096.3000000119,515095.90000000596,512350.618,512353.5,512367.285,515101.159,8,400,,,
trial,html.Screen,4_105_0,2023-11-06T21:14:34.385Z,,0,3,,3453.541000002995,response,ISIC_3133127.JPG,8,ISIC_6227920.JPG,ISIC_6227920.JPG,false,0,keypress(z),500,518555,518554.700000003,515084.492,515096.5,515101.159,518567.895,8,400,6,,ISIC_3133127.JPG
break,html.Screen,4_105_1,2023-11-06T21:14:34.386Z,,0,,,NaN,,,,,,false,,,,518555.90000000596,518555.700000003,,518555.200000003,,518567.895,8,400,,,
break_continue,html.Screen,4_105_2,2023-11-06T21:14:34.386Z,,0,,,NaN,,,,,,false,,,,518556.5,518556.3000000119,,518556.10000000894,,518567.895,8,400,,,
sequence,flow.Sequence,4_105,2023-11-06T21:14:34.386Z,,0,,,3455.141000011936,completion,,,,,false,,,,518556.700000003,518556.3000000119,515084.492,515096.40000000596,515101.159,518567.895,8,400,,,
trial,html.Screen,4_106_0,2023-11-06T21:14:37.320Z,,0,3,,2922.205000008922,response,ISIC_6004197.JPG,10,ISIC_9568138.JPG,ISIC_9568138.JPG,false,0,keypress(z),500,521490.3000000119,521490.10000000894,518551.228,518556.90000000596,518567.895,521501.287,8,400,7,,ISIC_6004197.JPG
break,html.Screen,4_106_1,2023-11-06T21:14:37.321Z,,0,,,NaN,,,,,,false,,,,521491.3000000119,521491,,521490.60000000894,,521501.287,8,400,,,
break_continue,html.Screen,4_106_2,2023-11-06T21:14:37.322Z,,0,,,NaN,,,,,,false,,,,521491.90000000596,521491.700000003,,521491.5,,521501.287,8,400,,,
sequence,flow.Sequence,4_106,2023-11-06T21:14:37.322Z,,0,,,2923.8050000029616,completion,,,,,false,,,,521492.10000000894,521491.700000003,518551.228,518556.8000000119,518567.895,521501.287,8,400,,,
trial,html.Screen,4_107_0,2023-11-06T21:14:40.928Z,,0,3,,3596.6130000059493,response,ISIC_0032645.JPG,8,ISIC_0065062.JPG,ISIC_0065062.JPG,false,0,keypress(z),500,525098.200000003,525097.900000006,521484.62,521492.3000000119,521501.287,525118.515,8,400,8,,ISIC_0032645.JPG
break,html.Screen,4_107_1,2023-11-06T21:14:40.929Z,,0,,,NaN,,,,,,false,,,,525099.200000003,525098.900000006,,525098.400000006,,525118.515,8,400,,,
break_continue,html.Screen,4_107_2,2023-11-06T21:14:40.930Z,,0,,,NaN,,,,,,false,,,,525099.700000003,525099.6000000089,,525099.400000006,,525118.515,8,400,,,
sequence,flow.Sequence,4_107,2023-11-06T21:14:40.930Z,,0,,,3598.3130000089295,completion,,,,,false,,,,525100,525099.6000000089,521484.62,521492.200000003,521501.287,525118.515,8,400,,,
trial,html.Screen,4_108_0,2023-11-06T21:14:44.265Z,,0,3,,3316.1850000029663,response,ISIC_8635849.JPG,8,ISIC_3761253.JPG,ISIC_3761253.JPG,false,0,keypress(z),500,528434.900000006,528434.700000003,525101.848,525100.200000003,525118.515,528451.915,8,400,9,,ISIC_8635849.JPG
break,html.Screen,4_108_1,2023-11-06T21:14:44.266Z,,0,,,NaN,,,,,,false,,,,528435.8000000119,528435.5,,528435.1000000089,,528451.915,8,400,,,
break_continue,html.Screen,4_108_2,2023-11-06T21:14:44.266Z,,0,,,NaN,,,,,,false,,,,528436.400000006,528436.200000003,,528436,,528451.915,8,400,,,
sequence,flow.Sequence,4_108,2023-11-06T21:14:44.267Z,,0,,,3317.6850000029663,completion,,,,,false,,,,528436.6000000089,528436.200000003,525101.848,525100.1000000089,525118.515,528451.915,8,400,,,
trial,html.Screen,4_109_0,2023-11-06T21:14:48.781Z,,0,3,,4498.385000011884,response,ISIC_2384274.JPG,7,ISIC_0030641.JPG,ISIC_2384274.JPG,false,1,keypress(m),500,532950.5,532950.3000000119,528435.248,528436.700000003,528451.915,532952.005,8,400,10,,ISIC_0030641.JPG
break,html.Screen,4_109_1,2023-11-06T21:14:48.781Z,,0,,,NaN,,,,,,false,,,,532951.200000003,532951,,532950.6000000089,,532952.005,8,400,,,
break_continue,html.Screen,4_109_2,2023-11-06T21:14:48.782Z,,0,,,NaN,,,,,,false,,,,532951.6000000089,532951.6000000089,,532951.400000006,,532952.005,8,400,,,
sequence,flow.Sequence,4_109,2023-11-06T21:14:48.782Z,,0,,,4499.685000008903,completion,,,,,false,,,,532951.900000006,532951.6000000089,528435.248,528436.700000003,528451.915,532952.005,8,400,,,
trial,html.Screen,4_110_0,2023-11-06T21:14:53.681Z,,0,3,,4898.395000005956,response,ISIC_0034246.JPG,7,ISIC_2071966.JPG,ISIC_2071966.JPG,false,0,keypress(z),500,537850.700000003,537850.400000006,532935.338,532952,532952.005,537852.58,8,400,11,,ISIC_0034246.JPG
break,html.Screen,4_110_1,2023-11-06T21:14:53.682Z,,0,,,NaN,,,,,,false,,,,537851.700000003,537851.400000006,,537850.900000006,,537852.58,8,400,,,
break_continue,html.Screen,4_110_2,2023-11-06T21:14:53.682Z,,0,,,NaN,,,,,,false,,,,537852.200000003,537852,,537851.8000000119,,537852.58,8,400,,,
sequence,flow.Sequence,4_110,2023-11-06T21:14:53.683Z,,0,,,4899.994999999995,completion,,,,,false,,,,537852.400000006,537852,532935.338,532951.900000006,532952.005,537852.58,8,400,,,
trial,html.Screen,4_111_0,2023-11-06T21:14:58.261Z,,0,3,,4578.020000008983,response,ISIC_3430953.JPG,6,ISIC_8479913.JPG,ISIC_3430953.JPG,false,1,keypress(m),500,542430.900000006,542430.6000000089,537835.913,537852.6000000089,537852.58,542436.005,8,400,12,,ISIC_8479913.JPG
break,html.Screen,4_111_1,2023-11-06T21:14:58.262Z,,0,,,NaN,,,,,,false,,,,542431.900000006,542431.6000000089,,542431.1000000089,,542436.005,8,400,,,
break_continue,html.Screen,4_111_2,2023-11-06T21:14:58.263Z,,0,,,NaN,,,,,,false,,,,542432.400000006,542432.3000000119,,542432,,542436.005,8,400,,,
sequence,flow.Sequence,4_111,2023-11-06T21:14:58.263Z,,0,,,4579.720000011963,completion,,,,,false,,,,542432.6000000089,542432.3000000119,537835.913,537852.5,537852.58,542436.005,8,400,,,
trial,html.Screen,4_112_0,2023-11-06T21:15:04.955Z,,0,3,,6687.795000011916,response,ISIC_1927858.JPG,6,ISIC_0054982.JPG,ISIC_0054982.JPG,false,0,keypress(z),500,549124,549123.8000000119,542419.338,542432.8000000119,542436.005,549136.743,8,400,13,,ISIC_1927858.JPG
break,html.Screen,4_112_1,2023-11-06T21:15:04.956Z,,0,,,NaN,,,,,,false,,,,549125,549124.700000003,,549124.3000000119,,549136.743,8,400,,,
break_continue,html.Screen,4_112_2,2023-11-06T21:15:04.956Z,,0,,,NaN,,,,,,false,,,,549125.5,549125.3000000119,,549125.1000000089,,549136.743,8,400,,,
sequence,flow.Sequence,4_112,2023-11-06T21:15:04.956Z,,0,,,6689.295000011916,completion,,,,,false,,,,549125.700000003,549125.3000000119,542419.338,542432.8000000119,542436.005,549136.743,8,400,,,
trial,html.Screen,4_113_0,2023-11-06T21:15:07.584Z,,0,3,,2616.7569999999832,response,ISIC_2355374.JPG,7,ISIC_6652978.JPG,ISIC_2355374.JPG,false,1,keypress(m),500,551753.700000003,551753.5,549120.076,549125.900000006,549136.743,551770.129,8,400,14,,ISIC_6652978.JPG
break,html.Screen,4_113_1,2023-11-06T21:15:07.585Z,,0,,,NaN,,,,,,false,,,,551754.6000000089,551754.400000006,,551754,,551770.129,8,400,,,
break_continue,html.Screen,4_113_2,2023-11-06T21:15:07.586Z,,0,,,NaN,,,,,,false,,,,551755.200000003,551755,,551754.8000000119,,551770.129,8,400,,,
sequence,flow.Sequence,4_113,2023-11-06T21:15:07.586Z,,0,,,2618.2569999999832,completion,,,,,false,,,,551755.400000006,551755,549120.076,549125.8000000119,549136.743,551770.129,8,400,,,
trial,html.Screen,4_114_0,2023-11-06T21:15:10.152Z,,0,3,,2550.571000003023,response,ISIC_0070852.JPG,6,ISIC_0011130.JPG,ISIC_0070852.JPG,false,1,keypress(m),500,554320.900000006,554320.700000003,551753.462,551755.6000000089,551770.129,554336.847,8,400,15,,ISIC_0011130.JPG
break,html.Screen,4_114_1,2023-11-06T21:15:10.153Z,,0,,,NaN,,,,,,false,,,,554321.900000006,554321.6000000089,,554321.1000000089,,554336.847,8,400,,,
break_continue,html.Screen,4_114_2,2023-11-06T21:15:10.153Z,,0,,,NaN,,,,,,false,,,,554322.400000006,554322.200000003,,554322.1000000089,,554336.847,8,400,,,
sequence,flow.Sequence,4_114,2023-11-06T21:15:10.153Z,,0,,,2552.071000003023,completion,,,,,false,,,,554322.6000000089,554322.200000003,551753.462,551755.5,551770.129,554336.847,8,400,,,
trial,html.Screen,4_115_0,2023-11-06T21:15:12.976Z,,0,3,,2808.1530000000494,response,ISIC_8428097.JPG,7,ISIC_6131393.JPG,ISIC_8428097.JPG,false,1,keypress(m),500,557145.200000003,557145,554320.18,554322.8000000119,554336.847,557153.57,8,400,16,,ISIC_6131393.JPG
break,html.Screen,4_115_1,2023-11-06T21:15:12.977Z,,0,,,NaN,,,,,,false,,,,557146.200000003,557145.900000006,,557145.5,,557153.57,8,400,,,
break_continue,html.Screen,4_115_2,2023-11-06T21:15:12.978Z,,0,,,NaN,,,,,,false,,,,557146.700000003,557146.6000000089,,557146.3000000119,,557153.57,8,400,,,
sequence,flow.Sequence,4_115,2023-11-06T21:15:12.978Z,,0,,,2809.75300000899,completion,,,,,false,,,,557146.900000006,557146.6000000089,554320.18,554322.8000000119,554336.847,557153.57,8,400,,,
trial,html.Screen,4_116_0,2023-11-06T21:15:15.624Z,,0,3,,2638.930000000051,response,ISIC_0070092.JPG,7,ISIC_9780632.JPG,ISIC_0070092.JPG,false,1,keypress(m),500,559792.700000003,559792.5,557136.903,557147.1000000089,557153.57,559804.12,8,400,17,,ISIC_9780632.JPG
break,html.Screen,4_116_1,2023-11-06T21:15:15.625Z,,0,,,NaN,,,,,,false,,,,559793.700000003,559793.5,,559793,,559804.12,8,400,,,
break_continue,html.Screen,4_116_2,2023-11-06T21:15:15.625Z,,0,,,NaN,,,,,,false,,,,559794.200000003,559794.1000000089,,559793.900000006,,559804.12,8,400,,,
sequence,flow.Sequence,4_116,2023-11-06T21:15:15.625Z,,0,,,2640.530000008992,completion,,,,,false,,,,559794.5,559794.1000000089,557136.903,557147,557153.57,559804.12,8,400,,,
trial,html.Screen,4_117_0,2023-11-06T21:15:17.981Z,,0,3,,2346.080000002985,response,ISIC_0060760.JPG,8,ISIC_5994286.JPG,ISIC_0060760.JPG,false,1,keypress(m),500,562150.5,562150.200000003,559787.453,559794.700000003,559804.12,562154.167,8,400,18,,ISIC_5994286.JPG
break,html.Screen,4_117_1,2023-11-06T21:15:17.982Z,,0,,,NaN,,,,,,false,,,,562151.400000006,562151.200000003,,562150.700000003,,562154.167,8,400,,,
break_continue,html.Screen,4_117_2,2023-11-06T21:15:17.983Z,,0,,,NaN,,,,,,false,,,,562152,562151.8000000119,,562151.6000000089,,562154.167,8,400,,,
sequence,flow.Sequence,4_117,2023-11-06T21:15:17.983Z,,0,,,2347.6800000119256,completion,,,,,false,,,,562152.200000003,562151.8000000119,559787.453,559794.700000003,559804.12,562154.167,8,400,,,
trial,html.Screen,4_118_0,2023-11-06T21:15:20.597Z,,0,3,,2610.933000008925,response,ISIC_0197873.JPG,6,ISIC_6535558.JPG,ISIC_6535558.JPG,false,0,keypress(z),500,564765.400000006,564765.1000000089,562137.5,562152.400000006,562154.167,564770.886,8,400,19,,ISIC_0197873.JPG
break,html.Screen,4_118_1,2023-11-06T21:15:20.598Z,,0,,,NaN,,,,,,false,,,,564766.5,564766.1000000089,,564765.6000000089,,564770.886,8,400,,,
break_continue,html.Screen,4_118_2,2023-11-06T21:15:20.598Z,,0,,,NaN,,,,,,false,,,,564767,564766.900000006,,564766.6000000089,,564770.886,8,400,,,
sequence,flow.Sequence,4_118,2023-11-06T21:15:20.598Z,,0,,,2612.7330000059446,completion,,,,,false,,,,564767.3000000119,564766.900000006,562137.5,562152.3000000119,562154.167,564770.886,8,400,,,
trial,html.Screen,4_119_0,2023-11-06T21:15:24.012Z,,0,3,,3409.8140000029234,response,ISIC_0070585.JPG,9,ISIC_3817292.JPG,ISIC_0070585.JPG,false,1,keypress(m),500,568180.900000006,568180.700000003,564754.219,564767.400000006,564770.886,568187.621,8,400,20,,ISIC_3817292.JPG
break,html.Screen,4_119_1,2023-11-06T21:15:24.013Z,,0,,,NaN,,,,,,false,,,,568182,568181.700000003,,568181.200000003,,568187.621,8,400,,,
break_continue,html.Screen,4_119_2,2023-11-06T21:15:24.014Z,,0,,,NaN,,,,,,false,,,,568182.700000003,568182.5,,568182.3000000119,,568187.621,8,400,,,
sequence,flow.Sequence,4_119,2023-11-06T21:15:24.014Z,,0,,,3411.613999999943,completion,,,,,false,,,,568182.900000006,568182.5,564754.219,564767.400000006,564770.886,568187.621,8,400,,,
trial,html.Screen,4_120_0,2023-11-06T21:15:26.712Z,,0,3,,2692.679000011878,response,ISIC_0033392.JPG,6,ISIC_0207349.JPG,ISIC_0033392.JPG,false,1,keypress(m),500,570880.6000000089,570880.3000000119,568170.954,568183.1000000089,568187.621,570888.152,8,400,21,,ISIC_0207349.JPG
break,html.Screen,4_120_1,2023-11-06T21:15:26.713Z,,0,,,NaN,,,,,,false,,,,570881.5,570881.3000000119,,570880.8000000119,,570888.152,8,400,,,
break_continue,html.Screen,4_120_2,2023-11-06T21:15:26.713Z,,0,,,NaN,,,,,,false,,,,570882,570881.900000006,,570881.700000003,,570888.152,8,400,,,
sequence,flow.Sequence,4_120,2023-11-06T21:15:26.714Z,,0,,,2694.2790000059176,completion,,,,,false,,,,570882.3000000119,570881.900000006,568170.954,568183,568187.621,570888.152,8,400,,,
trial,html.Screen,4_121_0,2023-11-06T21:15:31.101Z,,0,3,,4381.248000005959,response,ISIC_0067972.JPG,6,ISIC_0014336.JPG,ISIC_0014336.JPG,false,0,keypress(z),500,575269.700000003,575269.400000006,570871.485,570882.6000000089,570888.152,575271.573,8,400,22,,ISIC_0067972.JPG
break,html.Screen,4_121_1,2023-11-06T21:15:31.102Z,,0,,,NaN,,,,,,false,,,,575270.700000003,575270.400000006,,575269.900000006,,575271.573,8,400,,,
break_continue,html.Screen,4_121_2,2023-11-06T21:15:31.103Z,,0,,,NaN,,,,,,false,,,,575271.200000003,575271.1000000089,,575270.8000000119,,575271.573,8,400,,,
sequence,flow.Sequence,4_121,2023-11-06T21:15:31.103Z,,0,,,4382.948000008939,completion,,,,,false,,,,575271.5,575271.1000000089,570871.485,570882.5,570888.152,575271.573,8,400,,,
trial,html.Screen,4_122_0,2023-11-06T21:15:34.417Z,,0,3,,3314.227000011946,response,ISIC_0032626.JPG,6,ISIC_0010143.JPG,ISIC_0032626.JPG,false,1,keypress(m),500,578586,578585.8000000119,575254.906,575271.6000000089,575271.573,578588.306,8,400,23,,ISIC_0010143.JPG
break,html.Screen,4_122_1,2023-11-06T21:15:34.418Z,,0,,,NaN,,,,,,false,,,,578586.6000000089,578586.400000006,,578586.200000003,,578588.306,8,400,,,
break_continue,html.Screen,4_122_2,2023-11-06T21:15:34.419Z,,0,,,NaN,,,,,,false,,,,578587,578586.900000006,,578586.700000003,,578588.306,8,400,,,
sequence,flow.Sequence,4_122,2023-11-06T21:15:34.419Z,,0,,,3315.3270000059856,completion,,,,,false,,,,578587.1000000089,578586.900000006,575254.906,575271.5,575271.573,578588.306,8,400,,,
trial,html.Screen,4_123_0,2023-11-06T21:15:37.063Z,,0,3,,2642.894000002998,response,ISIC_0280912.JPG,6,ISIC_5157799.JPG,ISIC_0280912.JPG,false,1,keypress(m),500,581231.400000006,581231.200000003,578571.639,578587.3000000119,578588.306,581255.518,8,400,24,,ISIC_5157799.JPG
break,html.Screen,4_123_1,2023-11-06T21:15:37.064Z,,0,,,NaN,,,,,,false,,,,581232.400000006,581232.1000000089,,581231.700000003,,581255.518,8,400,,,
break_continue,html.Screen,4_123_2,2023-11-06T21:15:37.065Z,,0,,,NaN,,,,,,false,,,,581233.1000000089,581232.900000006,,581232.6000000089,,581255.518,8,400,,,
sequence,flow.Sequence,4_123,2023-11-06T21:15:37.065Z,,0,,,2644.594000005978,completion,,,,,false,,,,581233.5,581232.900000006,578571.639,578587.3000000119,578588.306,581255.518,8,400,,,
trial,html.Screen,4_124_0,2023-11-06T21:15:40.395Z,,0,3,,3307.68200000294,response,ISIC_7167479.JPG,6,ISIC_3942075.JPG,ISIC_3942075.JPG,false,0,keypress(z),500,584563.5,584563.200000003,581222.184,581233.700000003,581255.518,584572.251,8,400,25,,ISIC_7167479.JPG
break,html.Screen,4_124_1,2023-11-06T21:15:40.396Z,,0,,,NaN,,,,,,false,,,,584564.5,584564.200000003,,584563.8000000119,,584572.251,8,400,,,
break_continue,html.Screen,4_124_2,2023-11-06T21:15:40.397Z,,0,,,NaN,,,,,,false,,,,584565.200000003,584564.900000006,,584564.700000003,,584572.251,8,400,,,
sequence,flow.Sequence,4_124,2023-11-06T21:15:40.397Z,,0,,,3309.3820000059204,completion,,,,,false,,,,584565.6000000089,584564.900000006,581222.184,581233.6000000089,581255.518,584572.251,8,400,,,
trial,html.Screen,4_125_0,2023-11-06T21:15:43.617Z,,0,3,,3212.7489999999525,response,ISIC_5557806.JPG,6,ISIC_8325569.JPG,ISIC_8325569.JPG,false,0,keypress(z),500,587785.400000006,587785,584555.584,584565.8000000119,584572.251,587788.982,8,400,26,,ISIC_5557806.JPG
break,html.Screen,4_125_1,2023-11-06T21:15:43.618Z,,0,,,NaN,,,,,,false,,,,587786.3000000119,587786.1000000089,,587785.6000000089,,587788.982,8,400,,,
break_continue,html.Screen,4_125_2,2023-11-06T21:15:43.619Z,,0,,,NaN,,,,,,false,,,,587786.900000006,587786.6000000089,,587786.5,,587788.982,8,400,,,
sequence,flow.Sequence,4_125,2023-11-06T21:15:43.619Z,,0,,,3214.349000008893,completion,,,,,false,,,,587787.200000003,587786.6000000089,584555.584,584565.700000003,584572.251,587788.982,8,400,,,
trial,html.Screen,4_126_0,2023-11-06T21:15:46.844Z,,0,3,,3223.01800000004,response,ISIC_9596388.JPG,6,ISIC_1142962.JPG,ISIC_9596388.JPG,false,1,keypress(m),500,591012.3000000119,591012,587772.315,587787.400000006,587788.982,591022.865,8,400,27,,ISIC_1142962.JPG
break,html.Screen,4_126_1,2023-11-06T21:15:46.845Z,,0,,,NaN,,,,,,false,,,,591013.200000003,591013,,591012.5,,591022.865,8,400,,,
