sender,sender_type,sender_id,timestamp,meta,,blockNo,condition,duration,ended_on,img_left,img_reveal,img_right,loser,practice,response,response_action,selection_duration,time_commit,time_end,time_render,time_run,time_show,time_switch,total_blocks,total_trials,trialNo,url,winner
informed_consent,html.Screen,0,2023-05-02T15:33:36.726Z,"{""labjs_version"":""20.2.4"",""labjs_build"":{""flavor"":""production"",""commit"":""f5b4a49f956347addd546a832a3327688c2c0fef""},""location"":""https://run.pavlovia.org/MurrayBennett/melanoma-2afc/?participant=64826"",""userAgent"":""Mozilla/5.0 (Macintosh; Intel Mac OS X 10_15_7) AppleWebKit/537.36 (KHTML, like Gecko) Chrome/112.0.0.0 Safari/537.36"",""platform"":""MacIntel"",""language"":""en-US"",""locale"":""en-US"",""timeZone"":""America/Chicago"",""timezoneOffset"":300,""screen_width"":1280,""screen_height"":800,""scroll_width"":1280,""scroll_height"":580,""window_innerWidth"":1280,""window_innerHeight"":580,""devicePixelRatio"":2}",,,,3807.8489999970197,response,,,,,,consent,click button,,6825.89999999851,6823.79999999702,2999.296,3012.2999999970198,3015.951,6829.946,,,,"{""participant"":""64826""}",
Welcome,html.Screen,1,2023-05-02T15:33:38.163Z,,,,irregular,1429.054,response,,,,,,continue,click button,,8262.60000000149,8259,6813.291,6826,6829.946,8278.931,,,,,
trial,html.Screen,2_0_0,2023-05-02T15:33:47.398Z,,0,0,,9219.26899999553,response,ISIC_0061792.JPG,,ISIC_4679428.JPG,ISIC_0061792.JPG,true,1,keypress(m),500,17498.79999999702,17498.19999999553,8262.276,8262.79999999702,8278.931,17508.125,1,6,1,,ISIC_4679428.JPG
sequence,flow.Sequence,2_0,2023-05-02T15:33:47.399Z,,0,,,9219.26899999553,completion,,,,,true,,,,17499.39999999851,17498.19999999553,8262.276,8262.79999999702,8278.931,17508.125,1,6,,,
trial,html.Screen,2_1_0,2023-05-02T15:33:53.715Z,,0,0,,6308.17499999702,response,ISIC_0776486.JPG,,ISIC_5199497.JPG,ISIC_5199497.JPG,true,0,keypress(z),500,23816.5,23816.29999999702,17491.47,17499.60000000149,17508.125,23831.685,1,6,2,,ISIC_0776486.JPG
sequence,flow.Sequence,2_1,2023-05-02T15:33:53.716Z,,0,,,6308.17499999702,completion,,,,,true,,,,23816.60000000149,23816.29999999702,17491.47,17499.60000000149,17508.125,23831.685,1,6,,,
trial,html.Screen,2_2_0,2023-05-02T15:33:59.099Z,,0,0,,5368.6149999970185,response,ISIC_2556187.JPG,,ISIC_8575776.JPG,ISIC_2556187.JPG,true,1,keypress(m),500,29200.5,29200.29999999702,23815.03,23816.60000000149,23831.685,29213.696,1,6,3,,ISIC_8575776.JPG
sequence,flow.Sequence,2_2,2023-05-02T15:33:59.099Z,,0,,,5368.6149999970185,completion,,,,,true,,,,29200.79999999702,29200.29999999702,23815.03,23816.60000000149,23831.685,29213.696,1,6,,,
trial,html.Screen,2_3_0,2023-05-02T15:34:03.076Z,,0,0,,3963.90400000149,response,ISIC_8141769.JPG,,ISIC_9238366.JPG,ISIC_9238366.JPG,true,0,keypress(z),500,33177.89999999851,33177.60000000149,29197.041,29201,29213.696,33194.241,1,6,4,,ISIC_8141769.JPG
sequence,flow.Sequence,2_3,2023-05-02T15:34:03.077Z,,0,,,3963.90400000149,completion,,,,,true,,,,33178.29999999702,33177.60000000149,29197.041,29200.79999999702,29213.696,33194.241,1,6,,,
trial,html.Screen,2_4_0,2023-05-02T15:34:10.228Z,,0,0,,7135.058999997018,response,ISIC_8949026.JPG,,ISIC_9959593.JPG,ISIC_9959593.JPG,true,0,keypress(z),500,40329.79999999702,40329.29999999702,33177.586,33178.60000000149,33194.241,40345.315,1,6,5,,ISIC_8949026.JPG
sequence,flow.Sequence,2_4,2023-05-02T15:34:10.228Z,,0,,,7135.058999997018,completion,,,,,true,,,,40330.29999999702,40329.29999999702,33177.586,33178.5,33194.241,40345.315,1,6,,,
trial,html.Screen,2_5_0,2023-05-02T15:34:14.722Z,,0,0,,4479.084999998508,response,ISIC_0010479.JPG,,ISIC_0460240.JPG,ISIC_0460240.JPG,true,0,keypress(z),500,44824.79999999702,44824.39999999851,40328.66,40330.60000000149,40345.315,44842.165,1,6,6,,ISIC_0010479.JPG
sequence,flow.Sequence,2_5,2023-05-02T15:34:14.723Z,,0,,,4479.084999998508,completion,,,,,true,,,,44825.29999999702,44824.39999999851,40328.66,40330.5,40345.315,44842.165,1,6,,,
loop,flow.Loop,2,2023-05-02T15:34:14.723Z,,,,,36545.46899999851,completion,,,,,true,,,,44825.69999999553,44824.39999999851,8262.276,8262.69999999553,8278.931,44842.165,1,6,,,
exp_instructions,html.Screen,3,2023-05-02T15:34:21.188Z,,,,,6438.935000001489,response,,,,,,continue,keypress(Space),,51290.89999999851,51281.10000000149,44825.51,44825.79999999702,44842.165,51304.305,,,,,
trial,html.Screen,4_0_0,2023-05-02T15:34:28.515Z,,0,1,,7312.9949999970195,response,ISIC_0014867.JPG,,ISIC_5647697.JPG,ISIC_5647697.JPG,false,0,keypress(z),500,58617.69999999553,58617.29999999702,51287.65,51291.19999999553,51304.305,58620.951,8,400,1,,ISIC_0014867.JPG
break,html.Screen,4_0_1,2023-05-02T15:34:28.517Z,,0,,,NaN,,,,,,false,,,,58619.69999999553,58619.10000000149,,58618,,58620.951,8,400,,,
break_continue,html.Screen,4_0_2,2023-05-02T15:34:28.517Z,,0,,,NaN,,,,,,false,,,,58620.60000000149,58620.29999999702,,58619.89999999851,,58620.951,8,400,,,
sequence,flow.Sequence,4_0,2023-05-02T15:34:28.518Z,,0,,,7315.9949999970195,completion,,,,,false,,,,58620.89999999851,58620.29999999702,51287.65,51291.10000000149,51304.305,58620.951,8,400,,,
trial,html.Screen,4_1_0,2023-05-02T15:34:34.089Z,,0,1,,5571.248999995529,response,ISIC_2228511.JPG,,ISIC_4958578.JPG,ISIC_4958578.JPG,false,0,keypress(z),500,64192.69999999553,64192.19999999553,58604.296,58621.10000000149,58620.951,64200.376,8,400,2,,ISIC_2228511.JPG
break,html.Screen,4_1_1,2023-05-02T15:34:34.091Z,,0,,,NaN,,,,,,false,,,,64194.5,64194,,64193,,64200.376,8,400,,,
break_continue,html.Screen,4_1_2,2023-05-02T15:34:34.092Z,,0,,,NaN,,,,,,false,,,,64195.5,64195.19999999553,,64194.89999999851,,64200.376,8,400,,,
sequence,flow.Sequence,4_1,2023-05-02T15:34:34.092Z,,0,,,5574.248999995529,completion,,,,,false,,,,64195.79999999702,64195.19999999553,58604.296,58621.10000000149,58620.951,64200.376,8,400,,,
trial,html.Screen,4_2_0,2023-05-02T15:34:41.962Z,,0,1,,7865.624000000003,response,ISIC_1964243.JPG,,ISIC_0071797.JPG,ISIC_0071797.JPG,false,0,keypress(z),500,72066.39999999851,72066,64183.721,64196,64200.376,72085.503,8,400,3,,ISIC_1964243.JPG
break,html.Screen,4_2_1,2023-05-02T15:34:41.964Z,,0,,,NaN,,,,,,false,,,,72068.39999999851,72068,,72066.89999999851,,72085.503,8,400,,,
break_continue,html.Screen,4_2_2,2023-05-02T15:34:41.965Z,,0,,,NaN,,,,,,false,,,,72069.10000000149,72069,,72068.69999999553,,72085.503,8,400,,,
sequence,flow.Sequence,4_2,2023-05-02T15:34:41.965Z,,0,,,7868.624000000003,completion,,,,,false,,,,72069.29999999702,72069,64183.721,64195.89999999851,64200.376,72085.503,8,400,,,
trial,html.Screen,4_3_0,2023-05-02T15:34:48.370Z,,0,1,,6387.896999998513,response,ISIC_0024296.JPG,,ISIC_0000452.JPG,ISIC_0024296.JPG,false,1,keypress(m),500,78473.89999999851,78473.39999999851,72068.848,72069.60000000149,72085.503,78487.482,8,400,4,,ISIC_0000452.JPG
break,html.Screen,4_3_1,2023-05-02T15:34:48.371Z,,0,,,NaN,,,,,,false,,,,78475.69999999553,78475.29999999702,,78474.29999999702,,78487.482,8,400,,,
break_continue,html.Screen,4_3_2,2023-05-02T15:34:48.372Z,,0,,,NaN,,,,,,false,,,,78476.39999999851,78476.19999999553,,78475.89999999851,,78487.482,8,400,,,
sequence,flow.Sequence,4_3,2023-05-02T15:34:48.372Z,,0,,,6390.696999995533,completion,,,,,false,,,,78476.60000000149,78476.19999999553,72068.848,72069.5,72085.503,78487.482,8,400,,,
trial,html.Screen,4_4_0,2023-05-02T15:34:52.465Z,,0,1,,4081.9179999985063,response,ISIC_4552230.JPG,,ISIC_0071693.JPG,ISIC_0071693.JPG,false,0,keypress(z),500,82569.89999999851,82569.39999999851,78470.827,78476.89999999851,78487.482,82584.612,8,400,5,,ISIC_4552230.JPG
break,html.Screen,4_4_1,2023-05-02T15:34:52.467Z,,0,,,NaN,,,,,,false,,,,82571.69999999553,82571.29999999702,,82570.29999999702,,82584.612,8,400,,,
break_continue,html.Screen,4_4_2,2023-05-02T15:34:52.468Z,,0,,,NaN,,,,,,false,,,,82572.79999999702,82572.5,,82572.10000000149,,82584.612,8,400,,,
sequence,flow.Sequence,4_4,2023-05-02T15:34:52.469Z,,0,,,4085.0179999999964,completion,,,,,false,,,,82573.19999999553,82572.5,78470.827,78476.79999999702,78487.482,82584.612,8,400,,,
trial,html.Screen,4_5_0,2023-05-02T15:34:56.010Z,,0,1,,3530.087999995536,response,ISIC_7728263.JPG,,ISIC_9450906.JPG,ISIC_7728263.JPG,false,1,keypress(m),500,86114.79999999702,86114.69999999553,82567.957,82573.39999999851,82584.612,86132.127,8,400,6,,ISIC_9450906.JPG
break,html.Screen,4_5_1,2023-05-02T15:34:56.011Z,,0,,,NaN,,,,,,false,,,,86115.69999999553,86115.39999999851,,86115,,86132.127,8,400,,,
break_continue,html.Screen,4_5_2,2023-05-02T15:34:56.011Z,,0,,,NaN,,,,,,false,,,,86116,86116,,86115.79999999702,,86132.127,8,400,,,
sequence,flow.Sequence,4_5,2023-05-02T15:34:56.011Z,,0,,,3531.3880000000063,completion,,,,,false,,,,86116.19999999553,86116,82567.957,82573.29999999702,82584.612,86132.127,8,400,,,
trial,html.Screen,4_6_0,2023-05-02T15:34:59.401Z,,0,1,,3373.0729999955365,response,ISIC_0046635.JPG,,ISIC_0315631.JPG,ISIC_0046635.JPG,false,1,keypress(m),500,89505.5,89505.19999999553,86115.472,86116.29999999702,86132.127,89512.364,8,400,7,,ISIC_0315631.JPG
break,html.Screen,4_6_1,2023-05-02T15:34:59.402Z,,0,,,NaN,,,,,,false,,,,89507.39999999851,89506.79999999702,,89505.79999999702,,89512.364,8,400,,,
break_continue,html.Screen,4_6_2,2023-05-02T15:34:59.403Z,,0,,,NaN,,,,,,false,,,,89508,89507.79999999702,,89507.60000000149,,89512.364,8,400,,,
sequence,flow.Sequence,4_6,2023-05-02T15:34:59.403Z,,0,,,3375.6729999970266,completion,,,,,false,,,,89508.29999999702,89507.79999999702,86115.472,86116.29999999702,86132.127,89512.364,8,400,,,
trial,html.Screen,4_7_0,2023-05-02T15:35:02.282Z,,0,1,,2873.7360000014887,response,ISIC_0029112.JPG,,ISIC_0032721.JPG,ISIC_0032721.JPG,false,0,keypress(z),500,92386.79999999702,92386.10000000149,89495.709,89508.39999999851,89512.364,92393.679,8,400,8,,ISIC_0029112.JPG
break,html.Screen,4_7_1,2023-05-02T15:35:02.284Z,,0,,,NaN,,,,,,false,,,,92389,92388.5,,92387.39999999851,,92393.679,8,400,,,
break_continue,html.Screen,4_7_2,2023-05-02T15:35:02.284Z,,0,,,NaN,,,,,,false,,,,92389.60000000149,92389.5,,92389.19999999553,,92393.679,8,400,,,
sequence,flow.Sequence,4_7,2023-05-02T15:35:02.285Z,,0,,,2877.1359999999986,completion,,,,,false,,,,92389.79999999702,92389.5,89495.709,89508.39999999851,89512.364,92393.679,8,400,,,
trial,html.Screen,4_8_0,2023-05-02T15:35:05.593Z,,0,1,,3304.4210000014864,response,ISIC_0032656.JPG,,ISIC_0000452.JPG,ISIC_0032656.JPG,false,1,keypress(m),500,95698.5,95698.10000000149,92377.024,92390,92393.679,95708.024,8,400,9,,ISIC_0000452.JPG
break,html.Screen,4_8_1,2023-05-02T15:35:05.595Z,,0,,,NaN,,,,,,false,,,,95700.10000000149,95699.79999999702,,95698.79999999702,,95708.024,8,400,,,
break_continue,html.Screen,4_8_2,2023-05-02T15:35:05.595Z,,0,,,NaN,,,,,,false,,,,95700.79999999702,95700.69999999553,,95700.29999999702,,95708.024,8,400,,,
sequence,flow.Sequence,4_8,2023-05-02T15:35:05.596Z,,0,,,3307.020999995526,completion,,,,,false,,,,95701.10000000149,95700.69999999553,92377.024,92390,92393.679,95708.024,8,400,,,
trial,html.Screen,4_9_0,2023-05-02T15:35:09.712Z,,0,1,,4109.175999995525,response,ISIC_2546644.JPG,,ISIC_0063871.JPG,ISIC_0063871.JPG,false,0,keypress(z),500,99817.39999999851,99817.19999999553,95691.369,95701.29999999702,95708.024,99821.197,8,400,10,,ISIC_2546644.JPG
break,html.Screen,4_9_1,2023-05-02T15:35:09.713Z,,0,,,NaN,,,,,,false,,,,99818.69999999553,99818.19999999553,,99817.60000000149,,99821.197,8,400,,,
break_continue,html.Screen,4_9_2,2023-05-02T15:35:09.714Z,,0,,,NaN,,,,,,false,,,,99819.19999999553,99819.10000000149,,99818.79999999702,,99821.197,8,400,,,
sequence,flow.Sequence,4_9,2023-05-02T15:35:09.714Z,,0,,,4111.076000001485,completion,,,,,false,,,,99819.39999999851,99819.10000000149,95691.369,95701.29999999702,95708.024,99821.197,8,400,,,
trial,html.Screen,4_10_0,2023-05-02T15:35:13.002Z,,0,1,,3285.7029999985098,response,ISIC_0003111.JPG,,ISIC_8436666.JPG,ISIC_0003111.JPG,false,1,keypress(m),500,103107.39999999851,103106.89999999851,99804.542,99819.5,99821.197,103118.887,8,400,11,,ISIC_8436666.JPG
break,html.Screen,4_10_1,2023-05-02T15:35:13.003Z,,0,,,NaN,,,,,,false,,,,103109.29999999702,103108.79999999702,,103107.79999999702,,103118.887,8,400,,,
break_continue,html.Screen,4_10_2,2023-05-02T15:35:13.004Z,,0,,,NaN,,,,,,false,,,,103110,103109.89999999851,,103109.5,,103118.887,8,400,,,
sequence,flow.Sequence,4_10,2023-05-02T15:35:13.004Z,,0,,,3288.7029999985098,completion,,,,,false,,,,103110.29999999702,103109.89999999851,99804.542,99819.39999999851,99821.197,103118.887,8,400,,,
trial,html.Screen,4_11_0,2023-05-02T15:35:16.170Z,,0,1,,3156.5129999985074,response,ISIC_0012049.JPG,,ISIC_4081632.JPG,ISIC_0012049.JPG,false,1,keypress(m),500,106275.89999999851,106275.39999999851,103102.232,103110.60000000149,103118.887,106283.337,8,400,12,,ISIC_4081632.JPG
break,html.Screen,4_11_1,2023-05-02T15:35:16.172Z,,0,,,NaN,,,,,,false,,,,106277.79999999702,106277.29999999702,,106276.29999999702,,106283.337,8,400,,,
break_continue,html.Screen,4_11_2,2023-05-02T15:35:16.172Z,,0,,,NaN,,,,,,false,,,,106278.5,106278.19999999553,,106278,,106283.337,8,400,,,
sequence,flow.Sequence,4_11,2023-05-02T15:35:16.173Z,,0,,,3159.312999995527,completion,,,,,false,,,,106278.69999999553,106278.19999999553,103102.232,103110.39999999851,103118.887,106283.337,8,400,,,
trial,html.Screen,4_12_0,2023-05-02T15:35:19.015Z,,0,1,,2837.2630000014906,response,ISIC_0072173.JPG,,ISIC_0026309.JPG,ISIC_0026309.JPG,false,0,keypress(z),500,109120.79999999702,109120.60000000149,106266.682,106278.89999999851,106283.337,109131.342,8,400,13,,ISIC_0072173.JPG
break,html.Screen,4_12_1,2023-05-02T15:35:19.016Z,,0,,,NaN,,,,,,false,,,,109121.89999999851,109121.60000000149,,109120.89999999851,,109131.342,8,400,,,
break_continue,html.Screen,4_12_2,2023-05-02T15:35:19.016Z,,0,,,NaN,,,,,,false,,,,109122.19999999553,109122.19999999553,,109121.89999999851,,109131.342,8,400,,,
sequence,flow.Sequence,4_12,2023-05-02T15:35:19.016Z,,0,,,2838.86299999553,completion,,,,,false,,,,109122.39999999851,109122.19999999553,106266.682,106278.79999999702,106283.337,109131.342,8,400,,,
trial,html.Screen,4_13_0,2023-05-02T15:35:23.662Z,,0,1,,4637.258000001486,response,ISIC_8009880.JPG,,ISIC_5706908.JPG,ISIC_8009880.JPG,false,1,keypress(m),500,113769,113768.60000000149,109114.687,109122.5,109131.342,113772.465,8,400,14,,ISIC_5706908.JPG
break,html.Screen,4_13_1,2023-05-02T15:35:23.664Z,,0,,,NaN,,,,,,false,,,,113770.5,113770.10000000149,,113769.19999999553,,113772.465,8,400,,,
break_continue,html.Screen,4_13_2,2023-05-02T15:35:23.665Z,,0,,,NaN,,,,,,false,,,,113771.19999999553,113771,,113770.69999999553,,113772.465,8,400,,,
sequence,flow.Sequence,4_13,2023-05-02T15:35:23.665Z,,0,,,4639.657999999996,completion,,,,,false,,,,113771.39999999851,113771,109114.687,109122.5,109131.342,113772.465,8,400,,,
trial,html.Screen,4_14_0,2023-05-02T15:35:28.639Z,,0,1,,4972.834999997023,response,ISIC_3159924.JPG,,ISIC_0026671.JPG,ISIC_0026671.JPG,false,0,keypress(z),500,118745.69999999553,118745.29999999702,113755.81,113771.60000000149,113772.465,118768.965,8,400,15,,ISIC_3159924.JPG
break,html.Screen,4_14_1,2023-05-02T15:35:28.640Z,,0,,,NaN,,,,,,false,,,,118747.19999999553,118746.79999999702,,118746,,118768.965,8,400,,,
break_continue,html.Screen,4_14_2,2023-05-02T15:35:28.641Z,,0,,,NaN,,,,,,false,,,,118747.89999999851,118747.69999999553,,118747.39999999851,,118768.965,8,400,,,
sequence,flow.Sequence,4_14,2023-05-02T15:35:28.641Z,,0,,,4975.234999995533,completion,,,,,false,,,,118748.19999999553,118747.69999999553,113755.81,113771.60000000149,113772.465,118768.965,8,400,,,
trial,html.Screen,4_15_0,2023-05-02T15:35:31.430Z,,0,1,,2768.0350000000035,response,ISIC_0029913.JPG,,ISIC_7246852.JPG,ISIC_0029913.JPG,false,1,keypress(m),500,121537.39999999851,121537,118752.31,118748.19999999553,118768.965,121542.98,8,400,16,,ISIC_7246852.JPG
break,html.Screen,4_15_1,2023-05-02T15:35:31.432Z,,0,,,NaN,,,,,,false,,,,121539.29999999702,121538.79999999702,,121537.79999999702,,121542.98,8,400,,,
break_continue,html.Screen,4_15_2,2023-05-02T15:35:31.433Z,,0,,,NaN,,,,,,false,,,,121539.89999999851,121539.79999999702,,121539.39999999851,,121542.98,8,400,,,
sequence,flow.Sequence,4_15,2023-05-02T15:35:31.433Z,,0,,,2770.8349999970233,completion,,,,,false,,,,121540.19999999553,121539.79999999702,118752.31,118748.19999999553,118768.965,121542.98,8,400,,,
trial,html.Screen,4_16_0,2023-05-02T15:35:36.322Z,,0,1,,4886.120000001494,response,ISIC_0068427.JPG,,ISIC_0000569.JPG,ISIC_0068427.JPG,false,1,keypress(m),500,126429.5,126429.10000000149,121526.325,121540.39999999851,121542.98,126456.205,8,400,17,,ISIC_0000569.JPG
break,html.Screen,4_16_1,2023-05-02T15:35:36.324Z,,0,,,NaN,,,,,,false,,,,126431.10000000149,126430.69999999553,,126429.89999999851,,126456.205,8,400,,,
break_continue,html.Screen,4_16_2,2023-05-02T15:35:36.324Z,,0,,,NaN,,,,,,false,,,,126431.5,126431.39999999851,,126431.19999999553,,126456.205,8,400,,,
sequence,flow.Sequence,4_16,2023-05-02T15:35:36.324Z,,0,,,4888.419999998514,completion,,,,,false,,,,126431.69999999553,126431.39999999851,121526.325,121540.29999999702,121542.98,126456.205,8,400,,,
trial,html.Screen,4_17_0,2023-05-02T15:35:39.198Z,,0,1,,2849.094999997018,response,ISIC_7216266.JPG,,ISIC_1580034.JPG,ISIC_7216266.JPG,false,1,keypress(m),500,129305.79999999702,129305.29999999702,126439.55,126431.79999999702,126456.205,129320.865,8,400,18,,ISIC_1580034.JPG
break,html.Screen,4_17_1,2023-05-02T15:35:39.200Z,,0,,,NaN,,,,,,false,,,,129307.60000000149,129307.19999999553,,129306.19999999553,,129320.865,8,400,,,
break_continue,html.Screen,4_17_2,2023-05-02T15:35:39.201Z,,0,,,NaN,,,,,,false,,,,129308.29999999702,129308.10000000149,,129307.79999999702,,129320.865,8,400,,,
sequence,flow.Sequence,4_17,2023-05-02T15:35:39.201Z,,0,,,2851.8950000014884,completion,,,,,false,,,,129308.60000000149,129308.10000000149,126439.55,126431.79999999702,126456.205,129320.865,8,400,,,
trial,html.Screen,4_18_0,2023-05-02T15:35:42.462Z,,0,1,,3248.3349999955244,response,ISIC_1460249.JPG,,ISIC_2134975.JPG,ISIC_1460249.JPG,false,1,keypress(m),500,132569.6000000015,132569.19999999553,129304.21,129308.79999999702,129320.865,132580.734,8,400,19,,ISIC_2134975.JPG
break,html.Screen,4_18_1,2023-05-02T15:35:42.464Z,,0,,,NaN,,,,,,false,,,,132571.29999999702,132571,,132569.8999999985,,132580.734,8,400,,,
break_continue,html.Screen,4_18_2,2023-05-02T15:35:42.464Z,,0,,,NaN,,,,,,false,,,,132572,132571.8999999985,,132571.5,,132580.734,8,400,,,
sequence,flow.Sequence,4_18,2023-05-02T15:35:42.465Z,,0,,,3251.0349999985046,completion,,,,,false,,,,132572.19999999553,132571.8999999985,129304.21,129308.60000000149,129320.865,132580.734,8,400,,,
trial,html.Screen,4_19_0,2023-05-02T15:35:48.654Z,,0,1,,6180.565999997023,response,ISIC_0034107.JPG,,ISIC_1290821.JPG,ISIC_0034107.JPG,false,1,keypress(m),500,138761.69999999553,138761.29999999702,132564.079,132572.3999999985,132580.734,138776.394,8,400,20,,ISIC_1290821.JPG
break,html.Screen,4_19_1,2023-05-02T15:35:48.655Z,,0,,,NaN,,,,,,false,,,,138763.3999999985,138763,,138762,,138776.394,8,400,,,
break_continue,html.Screen,4_19_2,2023-05-02T15:35:48.656Z,,0,,,NaN,,,,,,false,,,,138764.1000000015,138763.8999999985,,138763.6000000015,,138776.394,8,400,,,
sequence,flow.Sequence,4_19,2023-05-02T15:35:48.656Z,,0,,,6183.165999998513,completion,,,,,false,,,,138764.29999999702,138763.8999999985,132564.079,132572.3999999985,132580.734,138776.394,8,400,,,
trial,html.Screen,4_20_0,2023-05-02T15:35:52.120Z,,0,1,,3451.6059999999998,response,ISIC_3239813.JPG,,ISIC_0059005.JPG,ISIC_3239813.JPG,false,1,keypress(m),500,142228.5,142228,138759.739,138764.6000000015,138776.394,142236.981,8,400,21,,ISIC_0059005.JPG
break,html.Screen,4_20_1,2023-05-02T15:35:52.122Z,,0,,,NaN,,,,,,false,,,,142230.19999999553,142229.79999999702,,142228.79999999702,,142236.981,8,400,,,
break_continue,html.Screen,4_20_2,2023-05-02T15:35:52.123Z,,0,,,NaN,,,,,,false,,,,142230.8999999985,142230.79999999702,,142230.3999999985,,142236.981,8,400,,,
sequence,flow.Sequence,4_20,2023-05-02T15:35:52.123Z,,0,,,3454.4059999970195,completion,,,,,false,,,,142231.19999999553,142230.79999999702,138759.739,138764.5,138776.394,142236.981,8,400,,,
trial,html.Screen,4_21_0,2023-05-02T15:35:57.911Z,,0,1,,5782.41899999851,response,ISIC_0055526.JPG,,ISIC_3601224.JPG,ISIC_3601224.JPG,false,0,keypress(z),500,148019.79999999702,148019.3999999985,142220.326,142231.3999999985,142236.981,148032.921,8,400,22,,ISIC_0055526.JPG
break,html.Screen,4_21_1,2023-05-02T15:35:57.913Z,,0,,,NaN,,,,,,false,,,,148021.6000000015,148021.19999999553,,148020.19999999553,,148032.921,8,400,,,
break_continue,html.Screen,4_21_2,2023-05-02T15:35:57.914Z,,0,,,NaN,,,,,,false,,,,148022.19999999553,148022.1000000015,,148021.79999999702,,148032.921,8,400,,,
sequence,flow.Sequence,4_21,2023-05-02T15:35:57.914Z,,0,,,5785.11900000149,completion,,,,,false,,,,148022.5,148022.1000000015,142220.326,142231.29999999702,142236.981,148032.921,8,400,,,
trial,html.Screen,4_22_0,2023-05-02T15:36:00.925Z,,0,1,,3000.3789999970177,response,ISIC_0028338.JPG,,ISIC_4212044.JPG,ISIC_4212044.JPG,false,0,keypress(z),500,151033.69999999553,151033.29999999702,148016.266,148022.6000000015,148032.921,151047.476,8,400,23,,ISIC_0028338.JPG
break,html.Screen,4_22_1,2023-05-02T15:36:00.927Z,,0,,,NaN,,,,,,false,,,,151035.3999999985,151035,,151034,,151047.476,8,400,,,
break_continue,html.Screen,4_22_2,2023-05-02T15:36:00.927Z,,0,,,NaN,,,,,,false,,,,151036,151035.8999999985,,151035.6000000015,,151047.476,8,400,,,
sequence,flow.Sequence,4_22,2023-05-02T15:36:00.928Z,,0,,,3002.978999998508,completion,,,,,false,,,,151036.29999999702,151035.8999999985,148016.266,148022.6000000015,148032.921,151047.476,8,400,,,
trial,html.Screen,4_23_0,2023-05-02T15:36:05.159Z,,0,1,,4219.823999997025,response,ISIC_0072694.JPG,,ISIC_0011694.JPG,ISIC_0072694.JPG,false,1,keypress(m),500,155267.69999999553,155267.29999999702,151030.821,151036.5,151047.476,155272.48,8,400,24,,ISIC_0011694.JPG
break,html.Screen,4_23_1,2023-05-02T15:36:05.161Z,,0,,,NaN,,,,,,false,,,,155269.3999999985,155269.1000000015,,155268.1000000015,,155272.48,8,400,,,
break_continue,html.Screen,4_23_2,2023-05-02T15:36:05.161Z,,0,,,NaN,,,,,,false,,,,155270.19999999553,155269.8999999985,,155269.69999999553,,155272.48,8,400,,,
sequence,flow.Sequence,4_23,2023-05-02T15:36:05.161Z,,0,,,4222.423999998515,completion,,,,,false,,,,155270.3999999985,155269.8999999985,151030.821,151036.5,151047.476,155272.48,8,400,,,
trial,html.Screen,4_24_0,2023-05-02T15:36:08.284Z,,0,1,,3120.1200000014796,response,ISIC_0591226.JPG,,ISIC_0032873.JPG,ISIC_0032873.JPG,false,0,keypress(z),500,158393,158392.6000000015,155255.825,155270.6000000015,155272.48,158403.62,8,400,25,,ISIC_0591226.JPG
break,html.Screen,4_24_1,2023-05-02T15:36:08.285Z,,0,,,NaN,,,,,,false,,,,158394.6000000015,158394.29999999702,,158393.29999999702,,158403.62,8,400,,,
break_continue,html.Screen,4_24_2,2023-05-02T15:36:08.286Z,,0,,,NaN,,,,,,false,,,,158395.29999999702,158395.1000000015,,158394.79999999702,,158403.62,8,400,,,
sequence,flow.Sequence,4_24,2023-05-02T15:36:08.286Z,,0,,,3122.6200000014796,completion,,,,,false,,,,158395.6000000015,158395.1000000015,155255.825,155270.5,155272.48,158403.62,8,400,,,
trial,html.Screen,4_25_0,2023-05-02T15:36:11.804Z,,0,1,,3509.0799999955343,response,ISIC_0060999.JPG,,ISIC_0026619.JPG,ISIC_0060999.JPG,false,1,keypress(m),500,161913,161912.69999999553,158386.965,158395.79999999702,158403.62,161917.825,8,400,26,,ISIC_0026619.JPG
break,html.Screen,4_25_1,2023-05-02T15:36:11.805Z,,0,,,NaN,,,,,,false,,,,161914.79999999702,161914.3999999985,,161913.29999999702,,161917.825,8,400,,,
break_continue,html.Screen,4_25_2,2023-05-02T15:36:11.806Z,,0,,,NaN,,,,,,false,,,,161915.3999999985,161915.19999999553,,161915,,161917.825,8,400,,,
sequence,flow.Sequence,4_25,2023-05-02T15:36:11.806Z,,0,,,3511.5799999955343,completion,,,,,false,,,,161915.6000000015,161915.19999999553,158386.965,158395.69999999553,158403.62,161917.825,8,400,,,
trial,html.Screen,4_26_0,2023-05-02T15:36:14.729Z,,0,1,,2919.7750000014785,response,ISIC_0027190.JPG,,ISIC_0011924.JPG,ISIC_0011924.JPG,false,0,keypress(z),500,164838,164837.6000000015,161901.17,161915.69999999553,161917.825,164854.883,8,400,27,,ISIC_0027190.JPG
break,html.Screen,4_26_1,2023-05-02T15:36:14.730Z,,0,,,NaN,,,,,,false,,,,164839.79999999702,164839.3999999985,,164838.3999999985,,164854.883,8,400,,,
break_continue,html.Screen,4_26_2,2023-05-02T15:36:14.731Z,,0,,,NaN,,,,,,false,,,,164840.3999999985,164840.19999999553,,164839.8999999985,,164854.883,8,400,,,
sequence,flow.Sequence,4_26,2023-05-02T15:36:14.731Z,,0,,,2922.374999995518,completion,,,,,false,,,,164840.69999999553,164840.19999999553,161901.17,161915.6000000015,161917.825,164854.883,8,400,,,
trial,html.Screen,4_27_0,2023-05-02T15:36:18.060Z,,0,1,,3314.416999997018,response,ISIC_9870885.JPG,,ISIC_8036544.JPG,ISIC_8036544.JPG,false,0,keypress(z),500,168169.79999999702,168169.29999999702,164838.228,164840.79999999702,164854.883,168185.883,8,400,28,,ISIC_9870885.JPG
break,html.Screen,4_27_1,2023-05-02T15:36:18.062Z,,0,,,NaN,,,,,,false,,,,168171.6000000015,168171.1000000015,,168170.19999999553,,168185.883,8,400,,,
break_continue,html.Screen,4_27_2,2023-05-02T15:36:18.063Z,,0,,,NaN,,,,,,false,,,,168172.19999999553,168172.1000000015,,168171.69999999553,,168185.883,8,400,,,
sequence,flow.Sequence,4_27,2023-05-02T15:36:18.063Z,,0,,,3317.2170000014885,completion,,,,,false,,,,168172.69999999553,168172.1000000015,164838.228,164840.69999999553,164854.883,168185.883,8,400,,,
trial,html.Screen,4_28_0,2023-05-02T15:36:20.908Z,,0,1,,2831.416999997018,response,ISIC_1122023.JPG,,ISIC_0011848.JPG,ISIC_1122023.JPG,false,1,keypress(m),500,171017.69999999553,171017.29999999702,168169.228,168172.8999999985,168185.883,171033.888,8,400,29,,ISIC_0011848.JPG
break,html.Screen,4_28_1,2023-05-02T15:36:20.909Z,,0,,,NaN,,,,,,false,,,,171019.29999999702,171019,,171018,,171033.888,8,400,,,
break_continue,html.Screen,4_28_2,2023-05-02T15:36:20.910Z,,0,,,NaN,,,,,,false,,,,171020,171019.79999999702,,171019.5,,171033.888,8,400,,,
sequence,flow.Sequence,4_28,2023-05-02T15:36:20.910Z,,0,,,2833.916999997018,completion,,,,,false,,,,171020.29999999702,171019.79999999702,168169.228,168172.79999999702,168185.883,171033.888,8,400,,,
trial,html.Screen,4_29_0,2023-05-02T15:36:23.902Z,,0,1,,2977.6119999999937,response,ISIC_4811165.JPG,,ISIC_9716860.JPG,ISIC_9716860.JPG,false,0,keypress(z),500,174011.79999999702,174011.5,171017.233,171020.3999999985,171033.888,174024.122,8,400,30,,ISIC_4811165.JPG
break,html.Screen,4_29_1,2023-05-02T15:36:23.904Z,,0,,,NaN,,,,,,false,,,,174013.6000000015,174013.29999999702,,174012.29999999702,,174024.122,8,400,,,
break_continue,html.Screen,4_29_2,2023-05-02T15:36:23.904Z,,0,,,NaN,,,,,,false,,,,174014.3999999985,174014.19999999553,,174013.8999999985,,174024.122,8,400,,,
sequence,flow.Sequence,4_29,2023-05-02T15:36:23.905Z,,0,,,2980.3119999955234,completion,,,,,false,,,,174014.69999999553,174014.19999999553,171017.233,171020.3999999985,171033.888,174024.122,8,400,,,
trial,html.Screen,4_30_0,2023-05-02T15:36:26.846Z,,0,1,,2931.377999999997,response,ISIC_0032540.JPG,,ISIC_5307086.JPG,ISIC_0032540.JPG,false,1,keypress(m),500,176955.79999999702,176955.5,174007.467,174014.79999999702,174024.122,176972.057,8,400,31,,ISIC_5307086.JPG
break,html.Screen,4_30_1,2023-05-02T15:36:26.847Z,,0,,,NaN,,,,,,false,,,,176957.69999999553,176957.29999999702,,176956.19999999553,,176972.057,8,400,,,
break_continue,html.Screen,4_30_2,2023-05-02T15:36:26.848Z,,0,,,NaN,,,,,,false,,,,176958.3999999985,176958.29999999702,,176957.8999999985,,176972.057,8,400,,,
sequence,flow.Sequence,4_30,2023-05-02T15:36:26.848Z,,0,,,2934.1779999970167,completion,,,,,false,,,,176958.69999999553,176958.29999999702,174007.467,174014.69999999553,174024.122,176972.057,8,400,,,
trial,html.Screen,4_31_0,2023-05-02T15:36:29.739Z,,0,1,,2877.142999995529,response,ISIC_5065360.JPG,,ISIC_6345354.JPG,ISIC_6345354.JPG,false,0,keypress(z),500,179849.5,179849.19999999553,176955.402,176958.8999999985,176972.057,179853.372,8,400,32,,ISIC_5065360.JPG
break,html.Screen,4_31_1,2023-05-02T15:36:29.741Z,,0,,,NaN,,,,,,false,,,,179851.19999999553,179850.79999999702,,179849.8999999985,,179853.372,8,400,,,
break_continue,html.Screen,4_31_2,2023-05-02T15:36:29.741Z,,0,,,NaN,,,,,,false,,,,179851.79999999702,179851.6000000015,,179851.3999999985,,179853.372,8,400,,,
sequence,flow.Sequence,4_31,2023-05-02T15:36:29.742Z,,0,,,2879.5430000014894,completion,,,,,false,,,,179852.1000000015,179851.6000000015,176955.402,176958.8999999985,176972.057,179853.372,8,400,,,
trial,html.Screen,4_32_0,2023-05-02T15:36:32.805Z,,0,1,,3062.127999999997,response,ISIC_1251811.JPG,,ISIC_3892947.JPG,ISIC_1251811.JPG,false,1,keypress(m),500,182916,182915.5,179836.717,179852.19999999553,179853.372,182917.892,8,400,33,,ISIC_3892947.JPG
break,html.Screen,4_32_1,2023-05-02T15:36:32.807Z,,0,,,NaN,,,,,,false,,,,182917.8999999985,182917.3999999985,,182916.5,,182917.892,8,400,,,
break_continue,html.Screen,4_32_2,2023-05-02T15:36:32.808Z,,0,,,NaN,,,,,,false,,,,182918.6000000015,182918.3999999985,,182918.1000000015,,182917.892,8,400,,,
sequence,flow.Sequence,4_32,2023-05-02T15:36:32.808Z,,0,,,3065.027999998507,completion,,,,,false,,,,182918.79999999702,182918.3999999985,179836.717,179852.19999999553,179853.372,182917.892,8,400,,,
trial,html.Screen,4_33_0,2023-05-02T15:36:36.627Z,,0,1,,3819.5079999985173,response,ISIC_0002213.JPG,,ISIC_0029993.JPG,ISIC_0029993.JPG,false,0,keypress(z),500,186737.79999999702,186737.3999999985,182901.237,182919,182917.892,186756.074,8,400,34,,ISIC_0002213.JPG
break,html.Screen,4_33_1,2023-05-02T15:36:36.629Z,,0,,,NaN,,,,,,false,,,,186739.5,186739.19999999553,,186738.1000000015,,186756.074,8,400,,,
break_continue,html.Screen,4_33_2,2023-05-02T15:36:36.629Z,,0,,,NaN,,,,,,false,,,,186740.19999999553,186740,,186739.69999999553,,186756.074,8,400,,,
sequence,flow.Sequence,4_33,2023-05-02T15:36:36.630Z,,0,,,3822.1080000000075,completion,,,,,false,,,,186740.3999999985,186740,182901.237,182919,182917.892,186756.074,8,400,,,
trial,html.Screen,4_34_0,2023-05-02T15:36:40.274Z,,0,1,,3628.2259999970265,response,ISIC_9727132.JPG,,ISIC_6006795.JPG,ISIC_6006795.JPG,false,0,keypress(z),500,190384.69999999553,190384.29999999702,186739.419,186740.5,186756.074,190386.864,8,400,35,,ISIC_9727132.JPG
break,html.Screen,4_34_1,2023-05-02T15:36:40.275Z,,0,,,NaN,,,,,,false,,,,190386.19999999553,190385.8999999985,,190384.8999999985,,190386.864,8,400,,,
break_continue,html.Screen,4_34_2,2023-05-02T15:36:40.276Z,,0,,,NaN,,,,,,false,,,,190386.8999999985,190386.69999999553,,190386.5,,190386.864,8,400,,,
sequence,flow.Sequence,4_34,2023-05-02T15:36:40.276Z,,0,,,3630.6259999955364,completion,,,,,false,,,,190387.19999999553,190386.69999999553,186739.419,186740.5,186756.074,190386.864,8,400,,,
trial,html.Screen,4_35_0,2023-05-02T15:36:42.989Z,,0,1,,2712.6359999999986,response,ISIC_0001831.JPG,,ISIC_0011012.JPG,ISIC_0011012.JPG,false,0,keypress(z),500,193099.8999999985,193099.5,190370.209,190387.29999999702,190386.864,193101.629,8,400,36,,ISIC_0001831.JPG
break,html.Screen,4_35_1,2023-05-02T15:36:42.990Z,,0,,,NaN,,,,,,false,,,,193101.3999999985,193101.1000000015,,193100.19999999553,,193101.629,8,400,,,
break_continue,html.Screen,4_35_2,2023-05-02T15:36:42.991Z,,0,,,NaN,,,,,,false,,,,193102.1000000015,193101.8999999985,,193101.6000000015,,193101.629,8,400,,,
sequence,flow.Sequence,4_35,2023-05-02T15:36:42.991Z,,0,,,2715.0359999985085,completion,,,,,false,,,,193102.29999999702,193101.8999999985,190370.209,190387.29999999702,190386.864,193101.629,8,400,,,
trial,html.Screen,4_36_0,2023-05-02T15:36:45.778Z,,0,1,,2787.6709999970335,response,ISIC_0069617.JPG,,ISIC_0056749.JPG,ISIC_0056749.JPG,false,0,keypress(z),500,195889.69999999553,195889.29999999702,193084.974,193102.5,193101.629,195906.932,8,400,37,,ISIC_0069617.JPG
break,html.Screen,4_36_1,2023-05-02T15:36:45.780Z,,0,,,NaN,,,,,,false,,,,195891.29999999702,195890.8999999985,,195890,,195906.932,8,400,,,
break_continue,html.Screen,4_36_2,2023-05-02T15:36:45.781Z,,0,,,NaN,,,,,,false,,,,195892,195891.79999999702,,195891.3999999985,,195906.932,8,400,,,
sequence,flow.Sequence,4_36,2023-05-02T15:36:45.781Z,,0,,,2790.1709999970335,completion,,,,,false,,,,195892.1000000015,195891.79999999702,193084.974,193102.5,193101.629,195906.932,8,400,,,
trial,html.Screen,4_37_0,2023-05-02T15:36:49.226Z,,0,1,,3430.467999998509,response,ISIC_0028306.JPG,,ISIC_0070822.JPG,ISIC_0028306.JPG,false,1,keypress(m),500,199337.69999999553,199337.3999999985,195890.277,195892.29999999702,195906.932,199354.517,8,400,38,,ISIC_0070822.JPG
break,html.Screen,4_37_1,2023-05-02T15:36:49.228Z,,0,,,NaN,,,,,,false,,,,199339.29999999702,199338.8999999985,,199338.1000000015,,199354.517,8,400,,,
break_continue,html.Screen,4_37_2,2023-05-02T15:36:49.228Z,,0,,,NaN,,,,,,false,,,,199340,199339.79999999702,,199339.5,,199354.517,8,400,,,
sequence,flow.Sequence,4_37,2023-05-02T15:36:49.229Z,,0,,,3432.867999997019,completion,,,,,false,,,,199340.19999999553,199339.79999999702,195890.277,195892.29999999702,195906.932,199354.517,8,400,,,
trial,html.Screen,4_38_0,2023-05-02T15:36:52.074Z,,0,1,,2830.9830000000075,response,ISIC_0008621.JPG,,ISIC_1280780.JPG,ISIC_1280780.JPG,false,0,keypress(z),500,202186,202185.5,199337.862,199340.3999999985,199354.517,202202.522,8,400,39,,ISIC_0008621.JPG
break,html.Screen,4_38_1,2023-05-02T15:36:52.076Z,,0,,,NaN,,,,,,false,,,,202187.6000000015,202187.29999999702,,202186.3999999985,,202202.522,8,400,,,
break_continue,html.Screen,4_38_2,2023-05-02T15:36:52.077Z,,0,,,NaN,,,,,,false,,,,202188.29999999702,202188.19999999553,,202187.79999999702,,202202.522,8,400,,,
sequence,flow.Sequence,4_38,2023-05-02T15:36:52.077Z,,0,,,2833.682999995537,completion,,,,,false,,,,202188.5,202188.19999999553,199337.862,199340.3999999985,199354.517,202202.522,8,400,,,
trial,html.Screen,4_39_0,2023-05-02T15:36:54.748Z,,0,1,,2656.8779999985127,response,ISIC_6201695.JPG,,ISIC_1783062.JPG,ISIC_1783062.JPG,false,0,keypress(z),500,204859.79999999702,204859.3999999985,202185.867,202188.69999999553,202202.522,204873.061,8,400,40,,ISIC_6201695.JPG
break,html.Screen,4_39_1,2023-05-02T15:36:54.750Z,,0,,,NaN,,,,,,false,,,,204861.5,204861.1000000015,,204860.19999999553,,204873.061,8,400,,,
break_continue,html.Screen,4_39_2,2023-05-02T15:36:54.750Z,,0,,,NaN,,,,,,false,,,,204862.1000000015,204861.8999999985,,204861.69999999553,,204873.061,8,400,,,
sequence,flow.Sequence,4_39,2023-05-02T15:36:54.750Z,,0,,,2659.3779999985127,completion,,,,,false,,,,204862.29999999702,204861.8999999985,202185.867,202188.69999999553,202202.522,204873.061,8,400,,,
trial,html.Screen,4_40_0,2023-05-02T15:36:57.620Z,,0,1,,2858.439000000013,response,ISIC_0066149.JPG,,ISIC_0029205.JPG,ISIC_0029205.JPG,false,0,keypress(z),500,207731.8999999985,207731.5,204856.406,204862.5,204873.061,207737.721,8,400,41,,ISIC_0066149.JPG
break,html.Screen,4_40_1,2023-05-02T15:36:57.621Z,,0,,,NaN,,,,,,false,,,,207733.6000000015,207733.19999999553,,207732.29999999702,,207737.721,8,400,,,
break_continue,html.Screen,4_40_2,2023-05-02T15:36:57.622Z,,0,,,NaN,,,,,,false,,,,207734.19999999553,207734,,207733.69999999553,,207737.721,8,400,,,
sequence,flow.Sequence,4_40,2023-05-02T15:36:57.622Z,,0,,,2860.939000000013,completion,,,,,false,,,,207734.3999999985,207734,204856.406,204862.5,204873.061,207737.721,8,400,,,
trial,html.Screen,4_41_0,2023-05-02T15:37:00.513Z,,0,1,,2887.0789999970293,response,ISIC_5194705.JPG,,ISIC_2893340.JPG,ISIC_5194705.JPG,false,1,keypress(m),500,210625.19999999553,210624.79999999702,207721.066,207734.69999999553,207737.721,210635.691,8,400,42,,ISIC_2893340.JPG
break,html.Screen,4_41_1,2023-05-02T15:37:00.514Z,,0,,,NaN,,,,,,false,,,,210626.79999999702,210626.3999999985,,210625.5,,210635.691,8,400,,,
break_continue,html.Screen,4_41_2,2023-05-02T15:37:00.515Z,,0,,,NaN,,,,,,false,,,,210627.3999999985,210627.19999999553,,210627,,210635.691,8,400,,,
sequence,flow.Sequence,4_41,2023-05-02T15:37:00.515Z,,0,,,2889.478999995539,completion,,,,,false,,,,210627.69999999553,210627.19999999553,207721.066,207734.6000000015,207737.721,210635.691,8,400,,,
trial,html.Screen,4_42_0,2023-05-02T15:37:03.602Z,,0,1,,3078.3090000000084,response,ISIC_6171084.JPG,,ISIC_2829088.JPG,ISIC_6171084.JPG,false,1,keypress(m),500,213714.5,213714,210619.036,210627.8999999985,210635.691,213733.521,8,400,43,,ISIC_2829088.JPG
break,html.Screen,4_42_1,2023-05-02T15:37:03.604Z,,0,,,NaN,,,,,,false,,,,213716,213715.6000000015,,213714.69999999553,,213733.521,8,400,,,
break_continue,html.Screen,4_42_2,2023-05-02T15:37:03.604Z,,0,,,NaN,,,,,,false,,,,213716.6000000015,213716.5,,213716.19999999553,,213733.521,8,400,,,
sequence,flow.Sequence,4_42,2023-05-02T15:37:03.604Z,,0,,,3080.8090000000084,completion,,,,,false,,,,213716.8999999985,213716.5,210619.036,210627.8999999985,210635.691,213733.521,8,400,,,
trial,html.Screen,4_43_0,2023-05-02T15:37:06.642Z,,0,1,,3020.478999999992,response,ISIC_0256926.JPG,,ISIC_0010965.JPG,ISIC_0010965.JPG,false,0,keypress(z),500,216754.29999999702,216754,213716.866,213717,213733.521,216758.933,8,400,44,,ISIC_0256926.JPG
break,html.Screen,4_43_1,2023-05-02T15:37:06.644Z,,0,,,NaN,,,,,,false,,,,216756.19999999553,216755.79999999702,,216754.69999999553,,216758.933,8,400,,,
break_continue,html.Screen,4_43_2,2023-05-02T15:37:06.644Z,,0,,,NaN,,,,,,false,,,,216757,216756.79999999702,,216756.5,,216758.933,8,400,,,
sequence,flow.Sequence,4_43,2023-05-02T15:37:06.645Z,,0,,,3023.278999997012,completion,,,,,false,,,,216757.19999999553,216756.79999999702,213716.866,213717,213733.521,216758.933,8,400,,,
trial,html.Screen,4_44_0,2023-05-02T15:37:10.521Z,,0,1,,3874.2669999955397,response,ISIC_8764927.JPG,,ISIC_8979567.JPG,ISIC_8764927.JPG,false,1,keypress(m),500,220633.69999999553,220633.19999999553,216742.278,216757.3999999985,216758.933,220639.548,8,400,45,,ISIC_8979567.JPG
break,html.Screen,4_44_1,2023-05-02T15:37:10.522Z,,0,,,NaN,,,,,,false,,,,220635.29999999702,220635,,220634.1000000015,,220639.548,8,400,,,
break_continue,html.Screen,4_44_2,2023-05-02T15:37:10.523Z,,0,,,NaN,,,,,,false,,,,220636,220635.8999999985,,220635.5,,220639.548,8,400,,,
sequence,flow.Sequence,4_44,2023-05-02T15:37:10.523Z,,0,,,3876.96699999852,completion,,,,,false,,,,220636.1000000015,220635.8999999985,216742.278,216757.29999999702,216758.933,220639.548,8,400,,,
trial,html.Screen,4_45_0,2023-05-02T15:37:13.379Z,,0,1,,2851.95199999999,response,ISIC_0377965.JPG,,ISIC_9699426.JPG,ISIC_9699426.JPG,false,0,keypress(z),500,223491.79999999702,223491.5,220622.893,220636.29999999702,220639.548,223504.208,8,400,46,,ISIC_0377965.JPG
break,html.Screen,4_45_1,2023-05-02T15:37:13.380Z,,0,,,NaN,,,,,,false,,,,223493.6000000015,223493.19999999553,,223492.19999999553,,223504.208,8,400,,,
break_continue,html.Screen,4_45_2,2023-05-02T15:37:13.381Z,,0,,,NaN,,,,,,false,,,,223494.1000000015,223494,,223493.69999999553,,223504.208,8,400,,,
sequence,flow.Sequence,4_45,2023-05-02T15:37:13.381Z,,0,,,2854.45199999999,completion,,,,,false,,,,223494.3999999985,223494,220622.893,220636.29999999702,220639.548,223504.208,8,400,,,
trial,html.Screen,4_46_0,2023-05-02T15:37:16.497Z,,0,1,,3105.6919999984966,response,ISIC_4980328.JPG,,ISIC_1974152.JPG,ISIC_4980328.JPG,false,1,keypress(m),500,226610.3999999985,226609.8999999985,223487.553,223494.6000000015,223504.208,226620.468,8,400,47,,ISIC_1974152.JPG
break,html.Screen,4_46_1,2023-05-02T15:37:16.499Z,,0,,,NaN,,,,,,false,,,,226612.19999999553,226611.69999999553,,226610.6000000015,,226620.468,8,400,,,
break_continue,html.Screen,4_46_2,2023-05-02T15:37:16.500Z,,0,,,NaN,,,,,,false,,,,226612.8999999985,226612.79999999702,,226612.5,,226620.468,8,400,,,
sequence,flow.Sequence,4_46,2023-05-02T15:37:16.500Z,,0,,,3108.5919999970065,completion,,,,,false,,,,226613.19999999553,226612.79999999702,223487.553,223494.5,223504.208,226620.468,8,400,,,
trial,html.Screen,4_47_0,2023-05-02T15:37:20.400Z,,0,1,,3892.8319999970263,response,ISIC_0011490.JPG,,ISIC_7840728.JPG,ISIC_0011490.JPG,false,1,keypress(m),500,230513.69999999553,230513.29999999702,226603.813,226613.3999999985,226620.468,230517.738,8,400,48,,ISIC_7840728.JPG
break,html.Screen,4_47_1,2023-05-02T15:37:20.402Z,,0,,,NaN,,,,,,false,,,,230515.3999999985,230515,,230514.1000000015,,230517.738,8,400,,,
break_continue,html.Screen,4_47_2,2023-05-02T15:37:20.403Z,,0,,,NaN,,,,,,false,,,,230516,230515.8999999985,,230515.6000000015,,230517.738,8,400,,,
sequence,flow.Sequence,4_47,2023-05-02T15:37:20.403Z,,0,,,3895.4319999985164,completion,,,,,false,,,,230516.29999999702,230515.8999999985,226603.813,226613.29999999702,226620.468,230517.738,8,400,,,
trial,html.Screen,4_48_0,2023-05-02T15:37:23.095Z,,0,1,,2690.9619999955175,response,ISIC_0015133.JPG,,ISIC_8160596.JPG,ISIC_0015133.JPG,false,1,keypress(m),500,233209.1000000015,233208.69999999553,230501.083,230516.5,230517.738,233215.848,8,400,49,,ISIC_8160596.JPG
break,html.Screen,4_48_1,2023-05-02T15:37:23.097Z,,0,,,NaN,,,,,,false,,,,233210.69999999553,233210.29999999702,,233209.3999999985,,233215.848,8,400,,,
break_continue,html.Screen,4_48_2,2023-05-02T15:37:23.098Z,,0,,,NaN,,,,,,false,,,,233211.29999999702,233211.19999999553,,233210.8999999985,,233215.848,8,400,,,
sequence,flow.Sequence,4_48,2023-05-02T15:37:23.098Z,,0,,,2693.4619999955175,completion,,,,,false,,,,233211.6000000015,233211.19999999553,230501.083,230516.3999999985,230517.738,233215.848,8,400,,,
trial,html.Screen,4_49_0,2023-05-02T15:37:26.247Z,,0,1,,3144.5519999985117,response,ISIC_7109582.JPG,,ISIC_9182492.JPG,ISIC_7109582.JPG,false,1,keypress(m),500,236360.79999999702,236360.3999999985,233199.193,233211.79999999702,233215.848,236364.261,8,400,50,,ISIC_9182492.JPG
break,html.Screen,4_49_1,2023-05-02T15:37:31.235Z,,0,,,4996.5,timeout,,,,,false,,,,241348.8999999985,241344.106,236347.606,236361.19999999553,236364.261,241360.761,8,400,,,
break_continue,html.Screen,4_49_2,2023-05-02T15:37:36.909Z,,0,,,5642.438999995531,response,,,,,false,continue,keypress(Space),,247023.8999999985,247003.19999999553,241344.106,241349.19999999553,241360.761,247040.116,8,400,,,
sequence,flow.Sequence,4_49,2023-05-02T15:37:36.910Z,,0,,,13787.351999995532,completion,,,,,false,,,,247024.1000000015,247003.19999999553,233199.193,233211.79999999702,233215.848,247040.116,8,400,,,
trial,html.Screen,4_50_0,2023-05-02T15:37:40.137Z,,0,2,,3211.0839999955206,response,ISIC_0030817.JPG,,ISIC_0001831.JPG,ISIC_0030817.JPG,false,1,keypress(m),500,250251.6000000015,250251.19999999553,247023.461,247024.19999999553,247040.116,250266.181,8,400,1,,ISIC_0001831.JPG
break,html.Screen,4_50_1,2023-05-02T15:37:40.139Z,,0,,,NaN,,,,,,false,,,,250253.29999999702,250253,,250252,,250266.181,8,400,,,
break_continue,html.Screen,4_50_2,2023-05-02T15:37:40.139Z,,0,,,NaN,,,,,,false,,,,250253.8999999985,250253.79999999702,,250253.6000000015,,250266.181,8,400,,,
sequence,flow.Sequence,4_50,2023-05-02T15:37:40.140Z,,0,,,3213.6839999970107,completion,,,,,false,,,,250254.19999999553,250253.79999999702,247023.461,247024.1000000015,247040.116,250266.181,8,400,,,
trial,html.Screen,4_51_0,2023-05-02T15:37:43.809Z,,0,2,,3657.7189999984985,response,ISIC_8687105.JPG,,ISIC_0025397.JPG,ISIC_8687105.JPG,false,1,keypress(m),500,253924.29999999702,253923.8999999985,250249.526,250254.3999999985,250266.181,253930.281,8,400,2,,ISIC_0025397.JPG
break,html.Screen,4_51_1,2023-05-02T15:37:43.811Z,,0,,,NaN,,,,,,false,,,,253925.8999999985,253925.5,,253924.5,,253930.281,8,400,,,
break_continue,html.Screen,4_51_2,2023-05-02T15:37:43.812Z,,0,,,NaN,,,,,,false,,,,253926.6000000015,253926.3999999985,,253926,,253930.281,8,400,,,
sequence,flow.Sequence,4_51,2023-05-02T15:37:43.812Z,,0,,,3660.2189999984985,completion,,,,,false,,,,253926.79999999702,253926.3999999985,250249.526,250254.3999999985,250266.181,253930.281,8,400,,,
trial,html.Screen,4_52_0,2023-05-02T15:37:46.660Z,,0,2,,2844.0189999970316,response,ISIC_0034172.JPG,,ISIC_0006983.JPG,ISIC_0034172.JPG,false,1,keypress(m),500,256774.69999999553,256774.29999999702,253913.626,253927,253930.281,256778.286,8,400,3,,ISIC_0006983.JPG
break,html.Screen,4_52_1,2023-05-02T15:37:46.661Z,,0,,,NaN,,,,,,false,,,,256776.5,256776,,256775,,256778.286,8,400,,,
break_continue,html.Screen,4_52_2,2023-05-02T15:37:46.662Z,,0,,,NaN,,,,,,false,,,,256777.29999999702,256777.1000000015,,256776.79999999702,,256778.286,8,400,,,
sequence,flow.Sequence,4_52,2023-05-02T15:37:46.662Z,,0,,,2846.819000001502,completion,,,,,false,,,,256777.5,256777.1000000015,253913.626,253927,253930.281,256778.286,8,400,,,
trial,html.Screen,4_53_0,2023-05-02T15:37:50.118Z,,0,2,,3455.013999997027,response,ISIC_6780662.JPG,,ISIC_0029170.JPG,ISIC_0029170.JPG,false,0,keypress(z),500,260233.69999999553,260233.29999999702,256761.631,256777.69999999553,256778.286,260247.683,8,400,4,,ISIC_6780662.JPG
break,html.Screen,4_53_1,2023-05-02T15:37:50.120Z,,0,,,NaN,,,,,,false,,,,260235.3999999985,260235,,260234.1000000015,,260247.683,8,400,,,
break_continue,html.Screen,4_53_2,2023-05-02T15:37:50.121Z,,0,,,NaN,,,,,,false,,,,260236,260235.79999999702,,260235.6000000015,,260247.683,8,400,,,
sequence,flow.Sequence,4_53,2023-05-02T15:37:50.121Z,,0,,,3457.513999997027,completion,,,,,false,,,,260236.19999999553,260235.79999999702,256761.631,256777.69999999553,256778.286,260247.683,8,400,,,
trial,html.Screen,4_54_0,2023-05-02T15:37:52.880Z,,0,2,,2747.71699999852,response,ISIC_0034104.JPG,,ISIC_0028328.JPG,ISIC_0034104.JPG,false,1,keypress(m),500,262995.799999997,262995.3999999985,260231.028,260236.29999999702,260247.683,263012.413,8,400,5,,ISIC_0028328.JPG
break,html.Screen,4_54_1,2023-05-02T15:37:52.882Z,,0,,,NaN,,,,,,false,,,,262997.5,262997.1000000015,,262996.19999999553,,263012.413,8,400,,,
break_continue,html.Screen,4_54_2,2023-05-02T15:37:52.883Z,,0,,,NaN,,,,,,false,,,,262998.1000000015,262998,,262997.69999999553,,263012.413,8,400,,,
sequence,flow.Sequence,4_54,2023-05-02T15:37:52.883Z,,0,,,2750.31700000001,completion,,,,,false,,,,262998.3999999985,262998,260231.028,260236.29999999702,260247.683,263012.413,8,400,,,
trial,html.Screen,4_55_0,2023-05-02T15:37:57.015Z,,0,2,,4117.5869999999995,response,ISIC_0032951.JPG,,ISIC_1560272.JPG,ISIC_0032951.JPG,false,1,keypress(m),500,267130.299999997,267130,262995.758,262998.5,263012.413,267142.853,8,400,6,,ISIC_1560272.JPG
break,html.Screen,4_55_1,2023-05-02T15:37:57.017Z,,0,,,NaN,,,,,,false,,,,267132.299999997,267131.299999997,,267130.5,,267142.853,8,400,,,
break_continue,html.Screen,4_55_2,2023-05-02T15:37:57.017Z,,0,,,NaN,,,,,,false,,,,267133,267132.799999997,,267132.5,,267142.853,8,400,,,
sequence,flow.Sequence,4_55,2023-05-02T15:37:57.018Z,,0,,,4120.386999997019,completion,,,,,false,,,,267133.299999997,267132.799999997,262995.758,262998.5,263012.413,267142.853,8,400,,,
trial,html.Screen,4_56_0,2023-05-02T15:37:59.953Z,,0,2,,2925.046999998507,response,ISIC_8451869.JPG,,ISIC_1696845.JPG,ISIC_1696845.JPG,false,0,keypress(z),500,270068.299999997,270067.8999999985,267126.198,267133.5,267142.853,270079.262,8,400,7,,ISIC_8451869.JPG
break,html.Screen,4_56_1,2023-05-02T15:37:59.954Z,,0,,,NaN,,,,,,false,,,,270070,270069.6000000015,,270068.69999999553,,270079.262,8,400,,,
break_continue,html.Screen,4_56_2,2023-05-02T15:37:59.955Z,,0,,,NaN,,,,,,false,,,,270070.69999999553,270070.5,,270070.19999999553,,270079.262,8,400,,,
sequence,flow.Sequence,4_56,2023-05-02T15:37:59.955Z,,0,,,2927.646999999997,completion,,,,,false,,,,270070.8999999985,270070.5,267126.198,267133.3999999985,267142.853,270079.262,8,400,,,
trial,html.Screen,4_57_0,2023-05-02T15:38:02.751Z,,0,2,,2787.738000000012,response,ISIC_6443700.JPG,,ISIC_0068886.JPG,ISIC_0068886.JPG,false,0,keypress(z),500,272867.5,272867,270062.607,270071,270079.262,272877.302,8,400,8,,ISIC_6443700.JPG
break,html.Screen,4_57_1,2023-05-02T15:38:02.753Z,,0,,,NaN,,,,,,false,,,,272869.19999999553,272868.69999999553,,272867.8999999985,,272877.302,8,400,,,
break_continue,html.Screen,4_57_2,2023-05-02T15:38:02.754Z,,0,,,NaN,,,,,,false,,,,272869.799999997,272869.6000000015,,272869.3999999985,,272877.302,8,400,,,
sequence,flow.Sequence,4_57,2023-05-02T15:38:02.754Z,,0,,,2790.338000001502,completion,,,,,false,,,,272870.1000000015,272869.6000000015,270062.607,270071,270079.262,272877.302,8,400,,,
trial,html.Screen,4_58_0,2023-05-02T15:38:05.446Z,,0,2,,2684.197999999975,response,ISIC_0026694.JPG,,ISIC_0000168.JPG,ISIC_0000168.JPG,false,0,keypress(z),500,275561.799999997,275561.5,272860.647,272870.19999999553,272877.302,275575.412,8,400,9,,ISIC_0026694.JPG
break,html.Screen,4_58_1,2023-05-02T15:38:05.447Z,,0,,,NaN,,,,,,false,,,,275563.3999999985,275563,,275562.1000000015,,275575.412,8,400,,,
break_continue,html.Screen,4_58_2,2023-05-02T15:38:05.448Z,,0,,,NaN,,,,,,false,,,,275564.1000000015,275563.799999997,,275563.6000000015,,275575.412,8,400,,,
sequence,flow.Sequence,4_58,2023-05-02T15:38:05.448Z,,0,,,2686.4979999969946,completion,,,,,false,,,,275564.299999997,275563.799999997,272860.647,272870.1000000015,272877.302,275575.412,8,400,,,
trial,html.Screen,4_59_0,2023-05-02T15:38:08.402Z,,0,2,,2942.587999999989,response,ISIC_0069264.JPG,,ISIC_2092911.JPG,ISIC_0069264.JPG,false,1,keypress(m),500,278518.6000000015,278518,275558.757,275564.5,275575.412,278523.347,8,400,10,,ISIC_2092911.JPG
break,html.Screen,4_59_1,2023-05-02T15:38:08.404Z,,0,,,NaN,,,,,,false,,,,278520.19999999553,278519.799999997,,278518.8999999985,,278523.347,8,400,,,
break_continue,html.Screen,4_59_2,2023-05-02T15:38:08.404Z,,0,,,NaN,,,,,,false,,,,278520.799999997,278520.69999999553,,278520.3999999985,,278523.347,8,400,,,
sequence,flow.Sequence,4_59,2023-05-02T15:38:08.405Z,,0,,,2945.2879999955185,completion,,,,,false,,,,278521.1000000015,278520.69999999553,275558.757,275564.5,275575.412,278523.347,8,400,,,
trial,html.Screen,4_60_0,2023-05-02T15:38:10.866Z,,0,2,,2458.652999999991,response,ISIC_6362735.JPG,,ISIC_0068015.JPG,ISIC_0068015.JPG,false,0,keypress(z),500,280982.3999999985,280982,278506.692,278521.299999997,278523.347,280989.934,8,400,11,,ISIC_6362735.JPG
break,html.Screen,4_60_1,2023-05-02T15:38:10.868Z,,0,,,NaN,,,,,,false,,,,280984.1000000015,280983.69999999553,,280982.69999999553,,280989.934,8,400,,,
break_continue,html.Screen,4_60_2,2023-05-02T15:38:10.868Z,,0,,,NaN,,,,,,false,,,,280984.69999999553,280984.6000000015,,280984.299999997,,280989.934,8,400,,,
sequence,flow.Sequence,4_60,2023-05-02T15:38:10.869Z,,0,,,2461.2530000014813,completion,,,,,false,,,,280985,280984.6000000015,278506.692,278521.19999999553,278523.347,280989.934,8,400,,,
trial,html.Screen,4_61_0,2023-05-02T15:38:13.519Z,,0,2,,2645.4659999985015,response,ISIC_0031401.JPG,,ISIC_4793961.JPG,ISIC_4793961.JPG,false,0,keypress(z),500,283635.799999997,283635.3999999985,280973.279,280985.19999999553,280989.934,283638.079,8,400,12,,ISIC_0031401.JPG
break,html.Screen,4_61_1,2023-05-02T15:38:13.521Z,,0,,,NaN,,,,,,false,,,,283637.5,283637,,283636.1000000015,,283638.079,8,400,,,
break_continue,html.Screen,4_61_2,2023-05-02T15:38:13.522Z,,0,,,NaN,,,,,,false,,,,283638.1000000015,283638,,283637.69999999553,,283638.079,8,400,,,
sequence,flow.Sequence,4_61,2023-05-02T15:38:13.522Z,,0,,,2648.0659999999916,completion,,,,,false,,,,283638.3999999985,283638,280973.279,280985.1000000015,280989.934,283638.079,8,400,,,
trial,html.Screen,4_62_0,2023-05-02T15:38:16.013Z,,0,2,,2491.6209999955026,response,ISIC_0067727.JPG,,ISIC_0053555.JPG,ISIC_0053555.JPG,false,0,keypress(z),500,286129.8999999985,286129.69999999553,283621.424,283638.6000000015,283638.079,286136.329,8,400,13,,ISIC_0067727.JPG
break,html.Screen,4_62_1,2023-05-02T15:38:16.014Z,,0,,,NaN,,,,,,false,,,,286130.8999999985,286130.69999999553,,286130.1000000015,,286136.329,8,400,,,
break_continue,html.Screen,4_62_2,2023-05-02T15:38:16.014Z,,0,,,NaN,,,,,,false,,,,286131.19999999553,286131.1000000015,,286131,,286136.329,8,400,,,
sequence,flow.Sequence,4_62,2023-05-02T15:38:16.015Z,,0,,,2493.021000001463,completion,,,,,false,,,,286131.3999999985,286131.1000000015,283621.424,283638.6000000015,283638.079,286136.329,8,400,,,
trial,html.Screen,4_63_0,2023-05-02T15:38:18.597Z,,0,2,,2577.070999998483,response,ISIC_2119925.JPG,,ISIC_0026518.JPG,ISIC_0026518.JPG,false,0,keypress(z),500,288713.799999997,288713.3999999985,286119.674,286131.5,286136.329,288717.854,8,400,14,,ISIC_2119925.JPG
break,html.Screen,4_63_1,2023-05-02T15:38:18.598Z,,0,,,NaN,,,,,,false,,,,288715.3999999985,288715.1000000015,,288714.19999999553,,288717.854,8,400,,,
break_continue,html.Screen,4_63_2,2023-05-02T15:38:18.599Z,,0,,,NaN,,,,,,false,,,,288716.1000000015,288715.799999997,,288715.6000000015,,288717.854,8,400,,,
sequence,flow.Sequence,4_63,2023-05-02T15:38:18.599Z,,0,,,2579.4709999969928,completion,,,,,false,,,,288716.299999997,288715.799999997,286119.674,286131.5,286136.329,288717.854,8,400,,,
trial,html.Screen,4_64_0,2023-05-02T15:38:21.268Z,,0,2,,2667.3459999955376,response,ISIC_0058206.JPG,,ISIC_0033369.JPG,ISIC_0033369.JPG,false,0,keypress(z),500,291385.5,291385.19999999553,288701.199,288716.3999999985,288717.854,291394.353,8,400,15,,ISIC_0058206.JPG
break,html.Screen,4_64_1,2023-05-02T15:38:21.270Z,,0,,,NaN,,,,,,false,,,,291387.3999999985,291387,,291385.799999997,,291394.353,8,400,,,
break_continue,html.Screen,4_64_2,2023-05-02T15:38:21.271Z,,0,,,NaN,,,,,,false,,,,291388.1000000015,291387.8999999985,,291387.6000000015,,291394.353,8,400,,,
sequence,flow.Sequence,4_64,2023-05-02T15:38:21.271Z,,0,,,2670.045999998518,completion,,,,,false,,,,291388.299999997,291387.8999999985,288701.199,288716.3999999985,288717.854,291394.353,8,400,,,
trial,html.Screen,4_65_0,2023-05-02T15:38:24.487Z,,0,2,,3209.046999998507,response,ISIC_0032624.JPG,,ISIC_1530981.JPG,ISIC_1530981.JPG,false,0,keypress(z),500,294603.799999997,294603.3999999985,291377.698,291388.5,291394.353,294608.768,8,400,16,,ISIC_0032624.JPG
break,html.Screen,4_65_1,2023-05-02T15:38:24.488Z,,0,,,NaN,,,,,,false,,,,294605.5,294605.1000000015,,294604.19999999553,,294608.768,8,400,,,
break_continue,html.Screen,4_65_2,2023-05-02T15:38:24.489Z,,0,,,NaN,,,,,,false,,,,294606.1000000015,294606,,294605.69999999553,,294608.768,8,400,,,
sequence,flow.Sequence,4_65,2023-05-02T15:38:24.489Z,,0,,,3211.646999999997,completion,,,,,false,,,,294606.3999999985,294606,291377.698,291388.3999999985,291394.353,294608.768,8,400,,,
trial,html.Screen,4_66_0,2023-05-02T15:38:27.628Z,,0,2,,3135.8320000015083,response,ISIC_0025369.JPG,,ISIC_6670242.JPG,ISIC_6670242.JPG,false,0,keypress(z),500,297745.1000000015,297744.6000000015,294592.113,294606.5,294608.768,297756.563,8,400,17,,ISIC_0025369.JPG
break,html.Screen,4_66_1,2023-05-02T15:38:27.629Z,,0,,,NaN,,,,,,false,,,,297746.69999999553,297746.3999999985,,297745.3999999985,,297756.563,8,400,,,
break_continue,html.Screen,4_66_2,2023-05-02T15:38:27.630Z,,0,,,NaN,,,,,,false,,,,297747.3999999985,297747.19999999553,,297747,,297756.563,8,400,,,
sequence,flow.Sequence,4_66,2023-05-02T15:38:27.630Z,,0,,,3138.431999995548,completion,,,,,false,,,,297747.69999999553,297747.19999999553,294592.113,294606.5,294608.768,297756.563,8,400,,,
trial,html.Screen,4_67_0,2023-05-02T15:38:30.620Z,,0,2,,2980.336999998486,response,ISIC_0028126.JPG,,ISIC_0010597.JPG,ISIC_0010597.JPG,false,0,keypress(z),500,300737.299999997,300736.8999999985,297739.908,297747.8999999985,297756.563,300754.463,8,400,18,,ISIC_0028126.JPG
break,html.Screen,4_67_1,2023-05-02T15:38:30.621Z,,0,,,NaN,,,,,,false,,,,300739.1000000015,300738.6000000015,,300737.6000000015,,300754.463,8,400,,,
break_continue,html.Screen,4_67_2,2023-05-02T15:38:30.622Z,,0,,,NaN,,,,,,false,,,,300739.69999999553,300739.5,,300739.19999999553,,300754.463,8,400,,,
sequence,flow.Sequence,4_67,2023-05-02T15:38:30.622Z,,0,,,2982.9369999999763,completion,,,,,false,,,,300739.8999999985,300739.5,297739.908,297747.8999999985,297756.563,300754.463,8,400,,,
trial,html.Screen,4_68_0,2023-05-02T15:38:33.475Z,,0,2,,2838.336999997031,response,ISIC_0029318.JPG,,ISIC_8752021.JPG,ISIC_8752021.JPG,false,0,keypress(z),500,303593,303592.799999997,300737.808,300740.1000000015,300754.463,303602.468,8,400,19,,ISIC_0029318.JPG
break,html.Screen,4_68_1,2023-05-02T15:38:33.476Z,,0,,,NaN,,,,,,false,,,,303593.8999999985,303593.6000000015,,303593.19999999553,,303602.468,8,400,,,
break_continue,html.Screen,4_68_2,2023-05-02T15:38:33.476Z,,0,,,NaN,,,,,,false,,,,303594.19999999553,303594.19999999553,,303593.8999999985,,303602.468,8,400,,,
sequence,flow.Sequence,4_68,2023-05-02T15:38:33.477Z,,0,,,2839.736999995541,completion,,,,,false,,,,303594.3999999985,303594.19999999553,300737.808,300740,300754.463,303602.468,8,400,,,
trial,html.Screen,4_69_0,2023-05-02T15:38:36.110Z,,0,2,,2625.5320000000065,response,ISIC_0064060.JPG,,ISIC_0002613.JPG,ISIC_0064060.JPG,false,1,keypress(m),500,306228.3999999985,306228,303585.813,303594.5,303602.468,306233.958,8,400,20,,ISIC_0002613.JPG
break,html.Screen,4_69_1,2023-05-02T15:38:36.112Z,,0,,,NaN,,,,,,false,,,,306230.19999999553,306229.6000000015,,306228.799999997,,306233.958,8,400,,,
break_continue,html.Screen,4_69_2,2023-05-02T15:38:36.113Z,,0,,,NaN,,,,,,false,,,,306230.799999997,306230.6000000015,,306230.299999997,,306233.958,8,400,,,
sequence,flow.Sequence,4_69,2023-05-02T15:38:36.113Z,,0,,,2628.1320000014966,completion,,,,,false,,,,306231,306230.6000000015,303585.813,303594.5,303602.468,306233.958,8,400,,,
trial,html.Screen,4_70_0,2023-05-02T15:38:38.734Z,,0,2,,2617.4419999985257,response,ISIC_9912475.JPG,,ISIC_0000445.JPG,ISIC_9912475.JPG,false,1,keypress(m),500,308851.799999997,308851.3999999985,306217.303,306231.19999999553,306233.958,308865.448,8,400,21,,ISIC_0000445.JPG
break,html.Screen,4_70_1,2023-05-02T15:38:38.735Z,,0,,,NaN,,,,,,false,,,,308853.6000000015,308853.1000000015,,308852.19999999553,,308865.448,8,400,,,
break_continue,html.Screen,4_70_2,2023-05-02T15:38:38.736Z,,0,,,NaN,,,,,,false,,,,308854.19999999553,308854,,308853.69999999553,,308865.448,8,400,,,
sequence,flow.Sequence,4_70,2023-05-02T15:38:38.736Z,,0,,,2620.042000000016,completion,,,,,false,,,,308854.5,308854,306217.303,306231.19999999553,306233.958,308865.448,8,400,,,
trial,html.Screen,4_71_0,2023-05-02T15:38:41.827Z,,0,2,,3079.851999997045,response,ISIC_9555580.JPG,,ISIC_7266462.JPG,ISIC_9555580.JPG,false,1,keypress(m),500,311945.799999997,311945.299999997,308848.793,308854.6000000015,308865.448,311962.032,8,400,22,,ISIC_7266462.JPG
break,html.Screen,4_71_1,2023-05-02T15:38:41.829Z,,0,,,NaN,,,,,,false,,,,311947.69999999553,311947.19999999553,,311946.19999999553,,311962.032,8,400,,,
break_continue,html.Screen,4_71_2,2023-05-02T15:38:41.830Z,,0,,,NaN,,,,,,false,,,,311948.299999997,311948.1000000015,,311947.8999999985,,311962.032,8,400,,,
sequence,flow.Sequence,4_71,2023-05-02T15:38:41.830Z,,0,,,3082.6520000015153,completion,,,,,false,,,,311948.6000000015,311948.1000000015,308848.793,308854.6000000015,308865.448,311962.032,8,400,,,
trial,html.Screen,4_72_0,2023-05-02T15:38:44.397Z,,0,2,,2553.3679999985034,response,ISIC_0000140.JPG,,ISIC_0007678.JPG,ISIC_0000140.JPG,false,1,keypress(m),500,314515.799999997,314515.3999999985,311945.377,311948.799999997,311962.032,314526.902,8,400,23,,ISIC_0007678.JPG
break,html.Screen,4_72_1,2023-05-02T15:38:44.399Z,,0,,,NaN,,,,,,false,,,,314517.299999997,314516.8999999985,,314516,,314526.902,8,400,,,
break_continue,html.Screen,4_72_2,2023-05-02T15:38:44.399Z,,0,,,NaN,,,,,,false,,,,314517.8999999985,314517.799999997,,314517.3999999985,,314526.902,8,400,,,
sequence,flow.Sequence,4_72,2023-05-02T15:38:44.400Z,,0,,,2555.7679999970132,completion,,,,,false,,,,314518.19999999553,314517.799999997,311945.377,311948.69999999553,311962.032,314526.902,8,400,,,
trial,html.Screen,4_73_0,2023-05-02T15:38:47.075Z,,0,2,,2666.497999998508,response,ISIC_5278307.JPG,,ISIC_0067653.JPG,ISIC_5278307.JPG,false,1,keypress(m),500,317193.69999999553,317193.3999999985,314510.247,314518.299999997,314526.902,317208.357,8,400,24,,ISIC_0067653.JPG
break,html.Screen,4_73_1,2023-05-02T15:38:47.077Z,,0,,,NaN,,,,,,false,,,,317195.299999997,317194.8999999985,,317194.1000000015,,317208.357,8,400,,,
break_continue,html.Screen,4_73_2,2023-05-02T15:38:47.077Z,,0,,,NaN,,,,,,false,,,,317196,317195.8999999985,,317195.5,,317208.357,8,400,,,
sequence,flow.Sequence,4_73,2023-05-02T15:38:47.078Z,,0,,,2668.997999998508,completion,,,,,false,,,,317196.299999997,317195.8999999985,314510.247,314518.299999997,314526.902,317208.357,8,400,,,
trial,html.Screen,4_74_0,2023-05-02T15:38:49.549Z,,0,2,,2458.9429999970016,response,ISIC_0046693.JPG,,ISIC_2874218.JPG,ISIC_0046693.JPG,false,1,keypress(m),500,319667.6000000015,319667.299999997,317191.702,317196.3999999985,317208.357,319683.738,8,400,25,,ISIC_2874218.JPG
break,html.Screen,4_74_1,2023-05-02T15:38:49.551Z,,0,,,NaN,,,,,,false,,,,319669.299999997,319669,,319668,,319683.738,8,400,,,
break_continue,html.Screen,4_74_2,2023-05-02T15:38:49.551Z,,0,,,NaN,,,,,,false,,,,319669.8999999985,319669.799999997,,319669.5,,319683.738,8,400,,,
sequence,flow.Sequence,4_74,2023-05-02T15:38:49.551Z,,0,,,2461.4429999970016,completion,,,,,false,,,,319670.19999999553,319669.799999997,317191.702,317196.3999999985,317208.357,319683.738,8,400,,,
trial,html.Screen,4_75_0,2023-05-02T15:38:52.547Z,,0,2,,2981.4619999955175,response,ISIC_6692344.JPG,,ISIC_0061624.JPG,ISIC_6692344.JPG,false,1,keypress(m),500,322665.6000000015,322665.19999999553,319667.083,319670.3999999985,319683.738,322681.638,8,400,26,,ISIC_0061624.JPG
break,html.Screen,4_75_1,2023-05-02T15:38:52.548Z,,0,,,NaN,,,,,,false,,,,322667.1000000015,322666.69999999553,,322665.8999999985,,322681.638,8,400,,,
break_continue,html.Screen,4_75_2,2023-05-02T15:38:52.549Z,,0,,,NaN,,,,,,false,,,,322667.799999997,322667.6000000015,,322667.299999997,,322681.638,8,400,,,
sequence,flow.Sequence,4_75,2023-05-02T15:38:52.549Z,,0,,,2983.862000001478,completion,,,,,false,,,,322668,322667.6000000015,319667.083,319670.299999997,319683.738,322681.638,8,400,,,
trial,html.Screen,4_76_0,2023-05-02T15:38:55.263Z,,0,2,,2700.0619999955525,response,ISIC_8569205.JPG,,ISIC_0029652.JPG,ISIC_0029652.JPG,false,0,keypress(z),500,325382.1000000015,325381.69999999553,322664.983,322668.19999999553,322681.638,325396.403,8,400,27,,ISIC_8569205.JPG
break,html.Screen,4_76_1,2023-05-02T15:38:55.265Z,,0,,,NaN,,,,,,false,,,,325383.8999999985,325383.5,,325382.5,,325396.403,8,400,,,
break_continue,html.Screen,4_76_2,2023-05-02T15:38:55.265Z,,0,,,NaN,,,,,,false,,,,325384.6000000015,325384.299999997,,325384.1000000015,,325396.403,8,400,,,
sequence,flow.Sequence,4_76,2023-05-02T15:38:55.266Z,,0,,,2702.6619999970426,completion,,,,,false,,,,325384.799999997,325384.299999997,322664.983,322668.19999999553,322681.638,325396.403,8,400,,,
trial,html.Screen,4_77_0,2023-05-02T15:38:58.099Z,,0,2,,2820.8969999970286,response,ISIC_1508215.JPG,,ISIC_5934948.JPG,ISIC_5934948.JPG,false,0,keypress(z),500,328218.19999999553,328217.299999997,325379.748,325385.1000000015,325396.403,328227.753,8,400,28,,ISIC_1508215.JPG
break,html.Screen,4_77_1,2023-05-02T15:38:58.101Z,,0,,,NaN,,,,,,false,,,,328219.8999999985,328219.5,,328218.5,,328227.753,8,400,,,
break_continue,html.Screen,4_77_2,2023-05-02T15:38:58.101Z,,0,,,NaN,,,,,,false,,,,328220.5,328220.299999997,,328220,,328227.753,8,400,,,
sequence,flow.Sequence,4_77,2023-05-02T15:38:58.101Z,,0,,,2823.8969999970286,completion,,,,,false,,,,328220.799999997,328220.299999997,325379.748,325385,325396.403,328227.753,8,400,,,
trial,html.Screen,4_78_0,2023-05-02T15:39:00.916Z,,0,2,,2807.646999998484,response,ISIC_0033087.JPG,,ISIC_8429798.JPG,ISIC_8429798.JPG,false,0,keypress(z),500,331035.799999997,331035.3999999985,328211.098,328220.8999999985,328227.753,331041.844,8,400,29,,ISIC_0033087.JPG
break,html.Screen,4_78_1,2023-05-02T15:39:00.918Z,,0,,,NaN,,,,,,false,,,,331037.3999999985,331037.1000000015,,331036.1000000015,,331041.844,8,400,,,
break_continue,html.Screen,4_78_2,2023-05-02T15:39:00.919Z,,0,,,NaN,,,,,,false,,,,331038.1000000015,331037.8999999985,,331037.6000000015,,331041.844,8,400,,,
sequence,flow.Sequence,4_78,2023-05-02T15:39:00.919Z,,0,,,2810.146999998484,completion,,,,,false,,,,331038.299999997,331037.8999999985,328211.098,328220.799999997,328227.753,331041.844,8,400,,,
trial,html.Screen,4_79_0,2023-05-02T15:39:03.612Z,,0,2,,2689.455999997037,response,ISIC_0765585.JPG,,ISIC_8156101.JPG,ISIC_0765585.JPG,false,1,keypress(m),500,333731.69999999553,333731.299999997,331025.189,331038.5,331041.844,333739.954,8,400,30,,ISIC_8156101.JPG
break,html.Screen,4_79_1,2023-05-02T15:39:03.614Z,,0,,,NaN,,,,,,false,,,,333733.3999999985,333733,,333732.1000000015,,333739.954,8,400,,,
break_continue,html.Screen,4_79_2,2023-05-02T15:39:03.614Z,,0,,,NaN,,,,,,false,,,,333734.19999999553,333734,,333733.69999999553,,333739.954,8,400,,,
sequence,flow.Sequence,4_79,2023-05-02T15:39:03.615Z,,0,,,2692.1560000000172,completion,,,,,false,,,,333734.3999999985,333734,331025.189,331038.3999999985,331041.844,333739.954,8,400,,,
trial,html.Screen,4_80_0,2023-05-02T15:39:06.402Z,,0,2,,2781.2459999955026,response,ISIC_6814221.JPG,,ISIC_0059846.JPG,ISIC_0059846.JPG,false,0,keypress(z),500,336521.69999999553,336521.19999999553,333723.299,333734.6000000015,333739.954,336537.994,8,400,31,,ISIC_6814221.JPG
break,html.Screen,4_80_1,2023-05-02T15:39:06.404Z,,0,,,NaN,,,,,,false,,,,336523.299999997,336523,,336522,,336537.994,8,400,,,
break_continue,html.Screen,4_80_2,2023-05-02T15:39:06.404Z,,0,,,NaN,,,,,,false,,,,336524,336523.799999997,,336523.6000000015,,336537.994,8,400,,,
sequence,flow.Sequence,4_80,2023-05-02T15:39:06.404Z,,0,,,2783.8459999969928,completion,,,,,false,,,,336524.19999999553,336523.799999997,333723.299,333734.6000000015,333739.954,336537.994,8,400,,,
trial,html.Screen,4_81_0,2023-05-02T15:39:09.218Z,,0,2,,2799.3059999970137,response,ISIC_0000155.JPG,,ISIC_0029705.JPG,ISIC_0000155.JPG,false,1,keypress(m),500,339337.69999999553,339337.299999997,336521.339,336524.3999999985,336537.994,339352.689,8,400,32,,ISIC_0029705.JPG
break,html.Screen,4_81_1,2023-05-02T15:39:09.219Z,,0,,,NaN,,,,,,false,,,,339339.3999999985,339339,,339338.1000000015,,339352.689,8,400,,,
break_continue,html.Screen,4_81_2,2023-05-02T15:39:09.220Z,,0,,,NaN,,,,,,false,,,,339340,339339.8999999985,,339339.6000000015,,339352.689,8,400,,,
sequence,flow.Sequence,4_81,2023-05-02T15:39:09.220Z,,0,,,2801.905999998504,completion,,,,,false,,,,339340.299999997,339339.8999999985,336521.339,336524.299999997,336537.994,339352.689,8,400,,,
trial,html.Screen,4_82_0,2023-05-02T15:39:12.417Z,,0,2,,3184.5109999955166,response,ISIC_1708591.JPG,,ISIC_1838888.JPG,ISIC_1838888.JPG,false,0,keypress(z),500,342537.6000000015,342537.19999999553,339336.034,339340.3999999985,339352.689,342551.299,8,400,33,,ISIC_1708591.JPG
break,html.Screen,4_82_1,2023-05-02T15:39:12.419Z,,0,,,NaN,,,,,,false,,,,342539.299999997,342538.8999999985,,342538,,342551.299,8,400,,,
break_continue,html.Screen,4_82_2,2023-05-02T15:39:12.420Z,,0,,,NaN,,,,,,false,,,,342540,342539.69999999553,,342539.5,,342551.299,8,400,,,
sequence,flow.Sequence,4_82,2023-05-02T15:39:12.420Z,,0,,,3187.0109999955166,completion,,,,,false,,,,342540.19999999553,342539.69999999553,339336.034,339340.299999997,339352.689,342551.299,8,400,,,
trial,html.Screen,4_83_0,2023-05-02T15:39:14.972Z,,0,2,,2540.100999998511,response,ISIC_6882733.JPG,,ISIC_0025955.JPG,ISIC_0025955.JPG,false,0,keypress(z),500,345091.8999999985,345091.3999999985,342534.644,342540.3999999985,342551.299,345099.514,8,400,34,,ISIC_6882733.JPG
break,html.Screen,4_83_1,2023-05-02T15:39:14.973Z,,0,,,NaN,,,,,,false,,,,345093.5,345093.1000000015,,345092.19999999553,,345099.514,8,400,,,
break_continue,html.Screen,4_83_2,2023-05-02T15:39:14.974Z,,0,,,NaN,,,,,,false,,,,345094.19999999553,345094,,345093.69999999553,,345099.514,8,400,,,
sequence,flow.Sequence,4_83,2023-05-02T15:39:14.974Z,,0,,,2542.701000000001,completion,,,,,false,,,,345094.3999999985,345094,342534.644,342540.299999997,342551.299,345099.514,8,400,,,
trial,html.Screen,4_84_0,2023-05-02T15:39:21.425Z,,0,2,,6445.685999995505,response,ISIC_0032717.JPG,,ISIC_0027822.JPG,ISIC_0027822.JPG,false,0,keypress(z),500,351545.69999999553,351545.19999999553,345082.859,345094.6000000015,345099.514,351561.291,8,400,35,,ISIC_0032717.JPG
break,html.Screen,4_84_1,2023-05-02T15:39:21.427Z,,0,,,NaN,,,,,,false,,,,351547.299999997,351546.799999997,,351546,,351561.291,8,400,,,
break_continue,html.Screen,4_84_2,2023-05-02T15:39:21.427Z,,0,,,NaN,,,,,,false,,,,351547.8999999985,351547.69999999553,,351547.3999999985,,351561.291,8,400,,,
sequence,flow.Sequence,4_84,2023-05-02T15:39:21.427Z,,0,,,6448.185999995505,completion,,,,,false,,,,351548.1000000015,351547.69999999553,345082.859,345094.5,345099.514,351561.291,8,400,,,
trial,html.Screen,4_85_0,2023-05-02T15:39:24.753Z,,0,2,,3312.2089999999735,response,ISIC_0064692.JPG,,ISIC_0033807.JPG,ISIC_0033807.JPG,false,0,keypress(z),500,354873.799999997,354873.5,351544.636,351548.299999997,351561.291,354875.636,8,400,36,,ISIC_0064692.JPG
break,html.Screen,4_85_1,2023-05-02T15:39:24.754Z,,0,,,NaN,,,,,,false,,,,354875.3999999985,354875,,354874.19999999553,,354875.636,8,400,,,
break_continue,html.Screen,4_85_2,2023-05-02T15:39:24.755Z,,0,,,NaN,,,,,,false,,,,354876.19999999553,354875.8999999985,,354875.6000000015,,354875.636,8,400,,,
sequence,flow.Sequence,4_85,2023-05-02T15:39:24.755Z,,0,,,3314.6089999984833,completion,,,,,false,,,,354876.299999997,354875.8999999985,351544.636,351548.19999999553,351561.291,354875.636,8,400,,,
trial,html.Screen,4_86_0,2023-05-02T15:39:27.786Z,,0,2,,3031.2639999985113,response,ISIC_5396394.JPG,,ISIC_0031543.JPG,ISIC_5396394.JPG,false,1,keypress(m),500,357907.19999999553,357906.8999999985,354858.981,354876.6000000015,354875.636,357923.501,8,400,37,,ISIC_0031543.JPG
break,html.Screen,4_86_1,2023-05-02T15:39:27.787Z,,0,,,NaN,,,,,,false,,,,357908.3999999985,357908.1000000015,,357907.3999999985,,357923.501,8,400,,,
break_continue,html.Screen,4_86_2,2023-05-02T15:39:27.788Z,,0,,,NaN,,,,,,false,,,,357908.8999999985,357908.799999997,,357908.5,,357923.501,8,400,,,
sequence,flow.Sequence,4_86,2023-05-02T15:39:27.788Z,,0,,,3033.163999997021,completion,,,,,false,,,,357909.1000000015,357908.799999997,354858.981,354876.5,354875.636,357923.501,8,400,,,
trial,html.Screen,4_87_0,2023-05-02T15:39:30.464Z,,0,2,,2661.4990000000107,response,ISIC_7075474.JPG,,ISIC_0254517.JPG,ISIC_0254517.JPG,false,0,keypress(z),500,360585.19999999553,360585,357906.846,357909.19999999553,357923.501,360604.956,8,400,38,,ISIC_7075474.JPG
break,html.Screen,4_87_1,2023-05-02T15:39:30.465Z,,0,,,NaN,,,,,,false,,,,360586.19999999553,360585.8999999985,,360585.3999999985,,360604.956,8,400,,,
break_continue,html.Screen,4_87_2,2023-05-02T15:39:30.465Z,,0,,,NaN,,,,,,false,,,,360586.6000000015,360586.3999999985,,360586.19999999553,,360604.956,8,400,,,
sequence,flow.Sequence,4_87,2023-05-02T15:39:30.465Z,,0,,,2662.8989999985206,completion,,,,,false,,,,360586.6000000015,360586.3999999985,357906.846,357909.19999999553,357923.501,360604.956,8,400,,,
trial,html.Screen,4_88_0,2023-05-02T15:39:33.179Z,,0,2,,2695.0439999999944,response,ISIC_0030519.JPG,,ISIC_0012047.JPG,ISIC_0012047.JPG,false,0,keypress(z),500,363300.299999997,363300,360588.301,360586.799999997,360604.956,363306.798,8,400,39,,ISIC_0030519.JPG
break,html.Screen,4_88_1,2023-05-02T15:39:33.181Z,,0,,,NaN,,,,,,false,,,,363302,363301.69999999553,,363300.69999999553,,363306.798,8,400,,,
break_continue,html.Screen,4_88_2,2023-05-02T15:39:33.181Z,,0,,,NaN,,,,,,false,,,,363302.69999999553,363302.5,,363302.1000000015,,363306.798,8,400,,,
sequence,flow.Sequence,4_88,2023-05-02T15:39:33.181Z,,0,,,2697.5439999999944,completion,,,,,false,,,,363302.8999999985,363302.5,360588.301,360586.69999999553,360604.956,363306.798,8,400,,,
trial,html.Screen,4_89_0,2023-05-02T15:39:36.010Z,,0,2,,2824.6019999985,response,ISIC_0000393.JPG,,ISIC_7424320.JPG,ISIC_7424320.JPG,false,0,keypress(z),500,366131.6000000015,366131.3999999985,363290.143,363303.1000000015,363306.798,366138.148,8,400,40,,ISIC_0000393.JPG
break,html.Screen,4_89_1,2023-05-02T15:39:36.011Z,,0,,,NaN,,,,,,false,,,,366132.69999999553,366132.3999999985,,366131.8999999985,,366138.148,8,400,,,
break_continue,html.Screen,4_89_2,2023-05-02T15:39:36.012Z,,0,,,NaN,,,,,,false,,,,366133.1000000015,366133,,366132.8999999985,,366138.148,8,400,,,
sequence,flow.Sequence,4_89,2023-05-02T15:39:36.012Z,,0,,,2826.20199999999,completion,,,,,false,,,,366133.299999997,366133,363290.143,363303,363306.798,366138.148,8,400,,,
trial,html.Screen,4_90_0,2023-05-02T15:39:39.008Z,,0,2,,2991.051999995543,response,ISIC_0059037.JPG,,ISIC_0033075.JPG,ISIC_0033075.JPG,false,0,keypress(z),500,369129.3999999985,369129.19999999553,366121.493,366133.3999999985,366138.148,369136.048,8,400,41,,ISIC_0059037.JPG
break,html.Screen,4_90_1,2023-05-02T15:39:39.009Z,,0,,,NaN,,,,,,false,,,,369130.5,369130.299999997,,369129.6000000015,,369136.048,8,400,,,
break_continue,html.Screen,4_90_2,2023-05-02T15:39:39.009Z,,0,,,NaN,,,,,,false,,,,369131,369130.8999999985,,369130.69999999553,,369136.048,8,400,,,
sequence,flow.Sequence,4_90,2023-05-02T15:39:39.009Z,,0,,,2992.7519999985234,completion,,,,,false,,,,369131.19999999553,369130.8999999985,366121.493,366133.299999997,366138.148,369136.048,8,400,,,
trial,html.Screen,4_91_0,2023-05-02T15:39:41.581Z,,0,2,,2566.15199999552,response,ISIC_0027971.JPG,,ISIC_3306135.JPG,ISIC_3306135.JPG,false,0,keypress(z),500,371702.5,371702.19999999553,369119.393,369131.3999999985,369136.048,371717.573,8,400,42,,ISIC_0027971.JPG
break,html.Screen,4_91_1,2023-05-02T15:39:41.582Z,,0,,,NaN,,,,,,false,,,,371704.19999999553,371703.799999997,,371702.8999999985,,371717.573,8,400,,,
break_continue,html.Screen,4_91_2,2023-05-02T15:39:41.583Z,,0,,,NaN,,,,,,false,,,,371704.8999999985,371704.6000000015,,371704.3999999985,,371717.573,8,400,,,
sequence,flow.Sequence,4_91,2023-05-02T15:39:41.583Z,,0,,,2568.5520000014803,completion,,,,,false,,,,371705.1000000015,371704.6000000015,369119.393,369131.299999997,369136.048,371717.573,8,400,,,
trial,html.Screen,4_92_0,2023-05-02T15:39:44.044Z,,0,2,,2448.427000000025,response,ISIC_0023811.JPG,,ISIC_0069556.JPG,ISIC_0069556.JPG,false,0,keypress(z),500,374166.3999999985,374166,371700.918,371705.19999999553,371717.573,374179.058,8,400,43,,ISIC_0023811.JPG
break,html.Screen,4_92_1,2023-05-02T15:39:44.046Z,,0,,,NaN,,,,,,false,,,,374168.3999999985,374167.8999999985,,374166.69999999553,,374179.058,8,400,,,
break_continue,html.Screen,4_92_2,2023-05-02T15:39:44.047Z,,0,,,NaN,,,,,,false,,,,374169,374168.8999999985,,374168.5,,374179.058,8,400,,,
sequence,flow.Sequence,4_92,2023-05-02T15:39:44.047Z,,0,,,2451.326999998535,completion,,,,,false,,,,374169.299999997,374168.8999999985,371700.918,371705.19999999553,371717.573,374179.058,8,400,,,
trial,html.Screen,4_93_0,2023-05-02T15:39:46.743Z,,0,2,,2686.1419999955106,response,ISIC_0033059.JPG,,ISIC_0069633.JPG,ISIC_0033059.JPG,false,1,keypress(m),500,376865.6000000015,376865.19999999553,374162.403,374169.5,374179.058,376877.168,8,400,44,,ISIC_0069633.JPG
break,html.Screen,4_93_1,2023-05-02T15:39:46.745Z,,0,,,NaN,,,,,,false,,,,376867.19999999553,376866.69999999553,,376865.799999997,,376877.168,8,400,,,
break_continue,html.Screen,4_93_2,2023-05-02T15:39:46.746Z,,0,,,NaN,,,,,,false,,,,376867.799999997,376867.6000000015,,376867.299999997,,376877.168,8,400,,,
sequence,flow.Sequence,4_93,2023-05-02T15:39:46.746Z,,0,,,2688.542000001471,completion,,,,,false,,,,376868,376867.6000000015,374162.403,374169.3999999985,374179.058,376877.168,8,400,,,
trial,html.Screen,4_94_0,2023-05-02T15:39:49.775Z,,0,2,,3020.1319999970146,response,ISIC_0030597.JPG,,ISIC_9742891.JPG,ISIC_0030597.JPG,false,1,keypress(m),500,379897.69999999553,379897.299999997,376860.513,376868.19999999553,376877.168,379908.378,8,400,45,,ISIC_9742891.JPG
break,html.Screen,4_94_1,2023-05-02T15:39:49.777Z,,0,,,NaN,,,,,,false,,,,379899.19999999553,379898.8999999985,,379898,,379908.378,8,400,,,
break_continue,html.Screen,4_94_2,2023-05-02T15:39:49.777Z,,0,,,NaN,,,,,,false,,,,379899.799999997,379899.69999999553,,379899.3999999985,,379908.378,8,400,,,
sequence,flow.Sequence,4_94,2023-05-02T15:39:49.778Z,,0,,,3022.5319999955245,completion,,,,,false,,,,379900,379899.69999999553,376860.513,376868.1000000015,376877.168,379908.378,8,400,,,
trial,html.Screen,4_95_0,2023-05-02T15:39:51.839Z,,0,2,,2053.021999998484,response,ISIC_0032780.JPG,,ISIC_6822870.JPG,ISIC_6822870.JPG,false,1,keypress(m),500,381961.6000000015,381961.3999999985,379891.723,379900.19999999553,379908.378,381973.598,8,400,46,,ISIC_0032780.JPG
break,html.Screen,4_95_1,2023-05-02T15:39:51.840Z,,0,,,NaN,,,,,,false,,,,381962.799999997,381962.5,,381961.799999997,,381973.598,8,400,,,
break_continue,html.Screen,4_95_2,2023-05-02T15:39:51.841Z,,0,,,NaN,,,,,,false,,,,381963.299999997,381963.1000000015,,381963,,381973.598,8,400,,,
sequence,flow.Sequence,4_95,2023-05-02T15:39:51.841Z,,0,,,2054.722000001464,completion,,,,,false,,,,381963.3999999985,381963.1000000015,379891.723,379900.19999999553,379908.378,381973.598,8,400,,,
trial,html.Screen,4_96_0,2023-05-02T15:39:54.185Z,,0,2,,2333.8019999985117,response,ISIC_0483289.JPG,,ISIC_4129376.JPG,ISIC_4129376.JPG,false,1,keypress(m),500,384307.8999999985,384307.3999999985,381956.943,381963.6000000015,381973.598,384319.884,8,400,47,,ISIC_0483289.JPG
break,html.Screen,4_96_1,2023-05-02T15:39:54.187Z,,0,,,NaN,,,,,,false,,,,384309.69999999553,384309.19999999553,,384308.19999999553,,384319.884,8,400,,,
break_continue,html.Screen,4_96_2,2023-05-02T15:39:54.188Z,,0,,,NaN,,,,,,false,,,,384310.299999997,384310.1000000015,,384309.799999997,,384319.884,8,400,,,
sequence,flow.Sequence,4_96,2023-05-02T15:39:54.188Z,,0,,,2336.502000001492,completion,,,,,false,,,,384310.6000000015,384310.1000000015,381956.943,381963.5,381973.598,384319.884,8,400,,,
trial,html.Screen,4_97_0,2023-05-02T15:39:56.527Z,,0,2,,2329.3159999955096,response,ISIC_0059435.JPG,,ISIC_0072917.JPG,ISIC_0059435.JPG,false,1,keypress(m),500,386649.5,386649.19999999553,384303.229,384310.69999999553,384319.884,386651.584,8,400,48,,ISIC_0072917.JPG
break,html.Screen,4_97_1,2023-05-02T15:39:56.528Z,,0,,,NaN,,,,,,false,,,,386651.1000000015,386650.799999997,,386649.8999999985,,386651.584,8,400,,,
break_continue,html.Screen,4_97_2,2023-05-02T15:39:56.529Z,,0,,,NaN,,,,,,false,,,,386651.799999997,386651.6000000015,,386651.299999997,,386651.584,8,400,,,
sequence,flow.Sequence,4_97,2023-05-02T15:39:56.529Z,,0,,,2331.71600000147,completion,,,,,false,,,,386652,386651.6000000015,384303.229,384310.69999999553,384319.884,386651.584,8,400,,,
trial,html.Screen,4_98_0,2023-05-02T15:39:58.939Z,,0,2,,2410.2159999970463,response,ISIC_4821309.JPG,,ISIC_7787118.JPG,ISIC_7787118.JPG,false,0,keypress(z),500,389062.19999999553,389061.799999997,386634.929,386652.19999999553,386651.584,389066.559,8,400,49,,ISIC_4821309.JPG
break,html.Screen,4_98_1,2023-05-02T15:39:58.941Z,,0,,,NaN,,,,,,false,,,,389063.8999999985,389063.5,,389062.5,,389066.559,8,400,,,
break_continue,html.Screen,4_98_2,2023-05-02T15:39:58.942Z,,0,,,NaN,,,,,,false,,,,389064.5,389064.299999997,,389064,,389066.559,8,400,,,
sequence,flow.Sequence,4_98,2023-05-02T15:39:58.942Z,,0,,,2412.7159999970463,completion,,,,,false,,,,389064.799999997,389064.299999997,386634.929,386652.1000000015,386651.584,389066.559,8,400,,,
trial,html.Screen,4_99_0,2023-05-02T15:40:01.071Z,,0,2,,2126.6409999955213,response,ISIC_9828853.JPG,,ISIC_6931712.JPG,ISIC_9828853.JPG,false,1,keypress(m),500,391193.8999999985,391193.19999999553,389049.904,389065,389066.559,391198.399,8,400,50,,ISIC_6931712.JPG
break,html.Screen,4_99_1,2023-05-02T15:40:06.057Z,,0,,,4996.5,timeout,,,,,false,,,,396180.6000000015,396178.244,391181.744,391194.19999999553,391198.399,396194.899,8,400,,,
break_continue,html.Screen,4_99_2,2023-05-02T15:40:08.143Z,,0,,,2048.300999995554,response,,,,,false,continue,keypress(Space),,398266.799999997,398243.19999999553,396178.244,396180.799999997,396194.899,398276.774,8,400,,,
sequence,flow.Sequence,4_99,2023-05-02T15:40:08.143Z,,0,,,9176.640999995521,completion,,,,,false,,,,398266.8999999985,398243.19999999553,389049.904,389064.8999999985,389066.559,398276.774,8,400,,,
trial,html.Screen,4_100_0,2023-05-02T15:40:10.766Z,,0,3,,2612.625999998534,response,ISIC_0000558.JPG,,ISIC_1585511.JPG,ISIC_1585511.JPG,false,0,keypress(z),500,400889.799999997,400889.3999999985,398260.119,398267.1000000015,398276.774,400891.609,8,400,1,,ISIC_0000558.JPG
break,html.Screen,4_100_1,2023-05-02T15:40:10.768Z,,0,,,NaN,,,,,,false,,,,400891.5,400891.1000000015,,400890.1000000015,,400891.609,8,400,,,
break_continue,html.Screen,4_100_2,2023-05-02T15:40:10.768Z,,0,,,NaN,,,,,,false,,,,400892.1000000015,400891.8999999985,,400891.69999999553,,400891.609,8,400,,,
sequence,flow.Sequence,4_100,2023-05-02T15:40:10.769Z,,0,,,2615.125999998534,completion,,,,,false,,,,400892.3999999985,400891.8999999985,398260.119,398267.1000000015,398276.774,400891.609,8,400,,,
trial,html.Screen,4_101_0,2023-05-02T15:40:13.198Z,,0,3,,2429.690999997023,response,ISIC_0028175.JPG,,ISIC_9538419.JPG,ISIC_0028175.JPG,false,1,keypress(m),500,403321.69999999553,403321.299999997,400874.954,400892.6000000015,400891.609,403336.26,8,400,2,,ISIC_9538419.JPG
break,html.Screen,4_101_1,2023-05-02T15:40:13.200Z,,0,,,NaN,,,,,,false,,,,403323.3999999985,403323,,403322.1000000015,,403336.26,8,400,,,
break_continue,html.Screen,4_101_2,2023-05-02T15:40:13.200Z,,0,,,NaN,,,,,,false,,,,403324.1000000015,403323.799999997,,403323.5,,403336.26,8,400,,,
sequence,flow.Sequence,4_101,2023-05-02T15:40:13.200Z,,0,,,2432.190999997023,completion,,,,,false,,,,403324.299999997,403323.799999997,400874.954,400892.5,400891.609,403336.26,8,400,,,
trial,html.Screen,4_102_0,2023-05-02T15:40:15.678Z,,0,3,,2464.9399999955203,response,ISIC_6877295.JPG,,ISIC_9613570.JPG,ISIC_6877295.JPG,false,1,keypress(m),500,405801.5,405801.19999999553,403319.605,403324.5,403336.26,405817.855,8,400,3,,ISIC_9613570.JPG
break,html.Screen,4_102_1,2023-05-02T15:40:15.679Z,,0,,,NaN,,,,,,false,,,,405803.1000000015,405802.69999999553,,405801.8999999985,,405817.855,8,400,,,
break_continue,html.Screen,4_102_2,2023-05-02T15:40:15.680Z,,0,,,NaN,,,,,,false,,,,405804,405803.69999999553,,405803.3999999985,,405817.855,8,400,,,
sequence,flow.Sequence,4_102,2023-05-02T15:40:15.680Z,,0,,,2467.4399999955203,completion,,,,,false,,,,405804.19999999553,405803.69999999553,403319.605,403324.3999999985,403336.26,405817.855,8,400,,,
trial,html.Screen,4_103_0,2023-05-02T15:40:18.376Z,,0,3,,2681.4449999970384,response,ISIC_0025754.JPG,,ISIC_0057286.JPG,ISIC_0057286.JPG,false,0,keypress(z),500,408499.69999999553,408499.299999997,405801.2,405804.299999997,405817.855,408515.965,8,400,4,,ISIC_0025754.JPG
break,html.Screen,4_103_1,2023-05-02T15:40:18.377Z,,0,,,NaN,,,,,,false,,,,408501.5,408501.1000000015,,408500.1000000015,,408515.965,8,400,,,
break_continue,html.Screen,4_103_2,2023-05-02T15:40:18.378Z,,0,,,NaN,,,,,,false,,,,408502.19999999553,408502,,408501.69999999553,,408515.965,8,400,,,
sequence,flow.Sequence,4_103,2023-05-02T15:40:18.378Z,,0,,,2684.1450000000186,completion,,,,,false,,,,408502.3999999985,408502,405801.2,405804.299999997,405817.855,408515.965,8,400,,,
trial,html.Screen,4_104_0,2023-05-02T15:40:20.806Z,,0,3,,2413.9349999984843,response,ISIC_0024701.JPG,,ISIC_2133938.JPG,ISIC_0024701.JPG,false,1,keypress(m),500,410930.3999999985,410929.8999999985,408499.31,408502.6000000015,408515.965,410947.595,8,400,5,,ISIC_2133938.JPG
break,html.Screen,4_104_1,2023-05-02T15:40:20.808Z,,0,,,NaN,,,,,,false,,,,410932.19999999553,410931.799999997,,410930.69999999553,,410947.595,8,400,,,
break_continue,html.Screen,4_104_2,2023-05-02T15:40:20.809Z,,0,,,NaN,,,,,,false,,,,410932.8999999985,410932.799999997,,410932.3999999985,,410947.595,8,400,,,
sequence,flow.Sequence,4_104,2023-05-02T15:40:20.809Z,,0,,,2416.834999996994,completion,,,,,false,,,,410933.299999997,410932.799999997,408499.31,408502.6000000015,408515.965,410947.595,8,400,,,
trial,html.Screen,4_105_0,2023-05-02T15:40:23.289Z,,0,3,,2465.2049999970477,response,ISIC_0010174.JPG,,ISIC_6066292.JPG,ISIC_6066292.JPG,false,0,keypress(z),500,413413.19999999553,413412.799999997,410930.94,410933.5,410947.595,413442.601,8,400,6,,ISIC_0010174.JPG
break,html.Screen,4_105_1,2023-05-02T15:40:23.290Z,,0,,,NaN,,,,,,false,,,,413414.6000000015,413414.299999997,,413413.3999999985,,413442.601,8,400,,,
break_continue,html.Screen,4_105_2,2023-05-02T15:40:23.291Z,,0,,,NaN,,,,,,false,,,,413415.3999999985,413415.19999999553,,413414.8999999985,,413442.601,8,400,,,
sequence,flow.Sequence,4_105,2023-05-02T15:40:23.291Z,,0,,,2467.6049999955576,completion,,,,,false,,,,413415.6000000015,413415.19999999553,410930.94,410933.5,410947.595,413442.601,8,400,,,
trial,html.Screen,4_106_0,2023-05-02T15:40:25.916Z,,0,3,,2597.5989999955054,response,ISIC_2432848.JPG,,ISIC_0069891.JPG,ISIC_0069891.JPG,false,0,keypress(z),500,416040.6000000015,416040.19999999553,413425.946,413415.799999997,413442.601,416057.436,8,400,7,,ISIC_2432848.JPG
break,html.Screen,4_106_1,2023-05-02T15:40:25.917Z,,0,,,NaN,,,,,,false,,,,416041.3999999985,416041.19999999553,,416040.799999997,,416057.436,8,400,,,
break_continue,html.Screen,4_106_2,2023-05-02T15:40:25.917Z,,0,,,NaN,,,,,,false,,,,416041.799999997,416041.69999999553,,416041.6000000015,,416057.436,8,400,,,
sequence,flow.Sequence,4_106,2023-05-02T15:40:25.917Z,,0,,,2599.0989999955054,completion,,,,,false,,,,416041.8999999985,416041.69999999553,413425.946,413415.799999997,413442.601,416057.436,8,400,,,
trial,html.Screen,4_107_0,2023-05-02T15:40:28.493Z,,0,3,,2559.7639999955427,response,ISIC_7409889.JPG,,ISIC_1104374.JPG,ISIC_1104374.JPG,false,0,keypress(z),500,418617.6000000015,418617.19999999553,416040.781,416042,416057.436,418622.306,8,400,8,,ISIC_7409889.JPG
break,html.Screen,4_107_1,2023-05-02T15:40:28.495Z,,0,,,NaN,,,,,,false,,,,418619.3999999985,418618.8999999985,,418618,,418622.306,8,400,,,
break_continue,html.Screen,4_107_2,2023-05-02T15:40:28.495Z,,0,,,NaN,,,,,,false,,,,418620,418619.799999997,,418619.6000000015,,418622.306,8,400,,,
sequence,flow.Sequence,4_107,2023-05-02T15:40:28.496Z,,0,,,2562.363999997033,completion,,,,,false,,,,418620.299999997,418619.799999997,416040.781,416042,416057.436,418622.306,8,400,,,
trial,html.Screen,4_108_0,2023-05-02T15:40:31.014Z,,0,3,,2516.5939999985276,response,ISIC_0027941.JPG,,ISIC_0032736.JPG,ISIC_0032736.JPG,false,0,keypress(z),500,421139.299999997,421138.8999999985,418605.651,418620.5,418622.306,421153.866,8,400,9,,ISIC_0027941.JPG
break,html.Screen,4_108_1,2023-05-02T15:40:31.016Z,,0,,,NaN,,,,,,false,,,,421140.3999999985,421140.19999999553,,421139.5,,421153.866,8,400,,,
break_continue,html.Screen,4_108_2,2023-05-02T15:40:31.016Z,,0,,,NaN,,,,,,false,,,,421140.799999997,421140.799999997,,421140.6000000015,,421153.866,8,400,,,
sequence,flow.Sequence,4_108,2023-05-02T15:40:31.016Z,,0,,,2518.4939999970375,completion,,,,,false,,,,421141,421140.799999997,418605.651,418620.5,418622.306,421153.866,8,400,,,
trial,html.Screen,4_109_0,2023-05-02T15:40:33.774Z,,0,3,,2744.73400000151,response,ISIC_2922104.JPG,,ISIC_9518180.JPG,ISIC_9518180.JPG,false,0,keypress(z),500,423899,423898.6000000015,421137.211,421141.1000000015,421153.866,423907.368,8,400,10,,ISIC_2922104.JPG
break,html.Screen,4_109_1,2023-05-02T15:40:33.776Z,,0,,,NaN,,,,,,false,,,,423900.69999999553,423900.299999997,,423899.3999999985,,423907.368,8,400,,,
break_continue,html.Screen,4_109_2,2023-05-02T15:40:33.776Z,,0,,,NaN,,,,,,false,,,,423901.5,423901.299999997,,423900.8999999985,,423907.368,8,400,,,
sequence,flow.Sequence,4_109,2023-05-02T15:40:33.777Z,,0,,,2747.43399999704,completion,,,,,false,,,,423901.6000000015,423901.299999997,421137.211,421141.1000000015,421153.866,423907.368,8,400,,,
trial,html.Screen,4_110_0,2023-05-02T15:40:36.486Z,,0,3,,2703.931999997003,response,ISIC_8028631.JPG,,ISIC_0013365.JPG,ISIC_8028631.JPG,false,1,keypress(m),500,426611.69999999553,426611.299999997,423890.713,423901.799999997,423907.368,426622.133,8,400,11,,ISIC_0013365.JPG
break,html.Screen,4_110_1,2023-05-02T15:40:36.488Z,,0,,,NaN,,,,,,false,,,,426613.3999999985,426613,,426612,,426622.133,8,400,,,
break_continue,html.Screen,4_110_2,2023-05-02T15:40:36.489Z,,0,,,NaN,,,,,,false,,,,426614.1000000015,426613.8999999985,,426613.6000000015,,426622.133,8,400,,,
sequence,flow.Sequence,4_110,2023-05-02T15:40:36.489Z,,0,,,2706.531999998493,completion,,,,,false,,,,426614.299999997,426613.8999999985,423890.713,423901.69999999553,423907.368,426622.133,8,400,,,
trial,html.Screen,4_111_0,2023-05-02T15:40:39.102Z,,0,3,,2605.1669999970472,response,ISIC_9109847.JPG,,ISIC_0011247.JPG,ISIC_0011247.JPG,false,0,keypress(z),500,429227.799999997,429227.299999997,426605.478,426614.5,426622.133,429236.968,8,400,12,,ISIC_9109847.JPG
break,html.Screen,4_111_1,2023-05-02T15:40:39.104Z,,0,,,NaN,,,,,,false,,,,429229.69999999553,429229.19999999553,,429228.1000000015,,429236.968,8,400,,,
break_continue,html.Screen,4_111_2,2023-05-02T15:40:39.105Z,,0,,,NaN,,,,,,false,,,,429230.6000000015,429230.3999999985,,429230,,429236.968,8,400,,,
sequence,flow.Sequence,4_111,2023-05-02T15:40:39.105Z,,0,,,2608.2669999985374,completion,,,,,false,,,,429230.799999997,429230.3999999985,426605.478,426614.5,426622.133,429236.968,8,400,,,
trial,html.Screen,4_112_0,2023-05-02T15:40:41.598Z,,0,3,,2486.4319999985164,response,ISIC_0024284.JPG,,ISIC_6056692.JPG,ISIC_0024284.JPG,false,1,keypress(m),500,431723.799999997,431723.3999999985,429220.313,429231.1000000015,429236.968,431735.218,8,400,13,,ISIC_6056692.JPG
break,html.Screen,4_112_1,2023-05-02T15:40:41.600Z,,0,,,NaN,,,,,,false,,,,431725.5,431725.1000000015,,431724.1000000015,,431735.218,8,400,,,
break_continue,html.Screen,4_112_2,2023-05-02T15:40:41.601Z,,0,,,NaN,,,,,,false,,,,431726.299999997,431726,,431725.69999999553,,431735.218,8,400,,,
sequence,flow.Sequence,4_112,2023-05-02T15:40:41.601Z,,0,,,2489.0320000000065,completion,,,,,false,,,,431726.5,431726,429220.313,429231,429236.968,431735.218,8,400,,,
trial,html.Screen,4_113_0,2023-05-02T15:40:44.150Z,,0,3,,2540.0819999970263,response,ISIC_0070948.JPG,,ISIC_3994656.JPG,ISIC_3994656.JPG,false,0,keypress(z),500,434275.69999999553,434275.299999997,431718.563,431726.69999999553,431735.218,434280.972,8,400,14,,ISIC_0070948.JPG
break,html.Screen,4_113_1,2023-05-02T15:40:44.152Z,,0,,,NaN,,,,,,false,,,,434277.3999999985,434277.1000000015,,434276.1000000015,,434280.972,8,400,,,
break_continue,html.Screen,4_113_2,2023-05-02T15:40:44.152Z,,0,,,NaN,,,,,,false,,,,434278.1000000015,434277.8999999985,,434277.6000000015,,434280.972,8,400,,,
sequence,flow.Sequence,4_113,2023-05-02T15:40:44.153Z,,0,,,2542.6819999985164,completion,,,,,false,,,,434278.3999999985,434277.8999999985,431718.563,431726.6000000015,431735.218,434280.972,8,400,,,
trial,html.Screen,4_114_0,2023-05-02T15:40:46.588Z,,0,3,,2432.227999995521,response,ISIC_1131588.JPG,,ISIC_0010837.JPG,ISIC_0010837.JPG,false,0,keypress(z),500,436713.8999999985,436713.19999999553,434264.317,434278.5,434280.972,436729.257,8,400,15,,ISIC_1131588.JPG
break,html.Screen,4_114_1,2023-05-02T15:40:46.590Z,,0,,,NaN,,,,,,false,,,,436715.3999999985,436715.1000000015,,436714.19999999553,,436729.257,8,400,,,
break_continue,html.Screen,4_114_2,2023-05-02T15:40:46.590Z,,0,,,NaN,,,,,,false,,,,436716,436715.8999999985,,436715.6000000015,,436729.257,8,400,,,
sequence,flow.Sequence,4_114,2023-05-02T15:40:46.590Z,,0,,,2434.927999998501,completion,,,,,false,,,,436716.299999997,436715.8999999985,434264.317,434278.5,434280.972,436729.257,8,400,,,
trial,html.Screen,4_115_0,2023-05-02T15:40:49.158Z,,0,3,,2554.843000001507,response,ISIC_5190484.JPG,,ISIC_0014264.JPG,ISIC_0014264.JPG,false,0,keypress(z),500,439284.3999999985,439284.1000000015,436712.602,436716.5,436729.257,439294.127,8,400,16,,ISIC_5190484.JPG
break,html.Screen,4_115_1,2023-05-02T15:40:49.160Z,,0,,,NaN,,,,,,false,,,,439285.8999999985,439285.6000000015,,439284.69999999553,,439294.127,8,400,,,
break_continue,html.Screen,4_115_2,2023-05-02T15:40:49.161Z,,0,,,NaN,,,,,,false,,,,439286.5,439286.3999999985,,439286.1000000015,,439294.127,8,400,,,
sequence,flow.Sequence,4_115,2023-05-02T15:40:49.161Z,,0,,,2557.1429999985266,completion,,,,,false,,,,439286.799999997,439286.3999999985,436712.602,436716.3999999985,436729.257,439294.127,8,400,,,
trial,html.Screen,4_116_0,2023-05-02T15:40:51.854Z,,0,3,,2685.2729999985313,response,ISIC_0004482.JPG,,ISIC_0059411.JPG,ISIC_0004482.JPG,false,1,keypress(m),500,441979.799999997,441979.3999999985,439277.472,439286.8999999985,439294.127,441992.237,8,400,17,,ISIC_0059411.JPG
break,html.Screen,4_116_1,2023-05-02T15:40:51.855Z,,0,,,NaN,,,,,,false,,,,441981.5,441981.1000000015,,441980.19999999553,,441992.237,8,400,,,
break_continue,html.Screen,4_116_2,2023-05-02T15:40:51.856Z,,0,,,NaN,,,,,,false,,,,441982.1000000015,441982,,441981.69999999553,,441992.237,8,400,,,
sequence,flow.Sequence,4_116,2023-05-02T15:40:51.856Z,,0,,,2687.8730000000214,completion,,,,,false,,,,441982.3999999985,441982,439277.472,439286.8999999985,439294.127,441992.237,8,400,,,
trial,html.Screen,4_117_0,2023-05-02T15:40:54.421Z,,0,3,,2555.162999998487,response,ISIC_6385296.JPG,,ISIC_6644834.JPG,ISIC_6385296.JPG,false,1,keypress(m),500,444547.69999999553,444547.3999999985,441975.582,441982.6000000015,441992.237,444552.728,8,400,18,,ISIC_6644834.JPG
break,html.Screen,4_117_1,2023-05-02T15:40:54.423Z,,0,,,NaN,,,,,,false,,,,444549.299999997,444549,,444548.1000000015,,444552.728,8,400,,,
break_continue,html.Screen,4_117_2,2023-05-02T15:40:54.424Z,,0,,,NaN,,,,,,false,,,,444550,444549.799999997,,444549.5,,444552.728,8,400,,,
sequence,flow.Sequence,4_117,2023-05-02T15:40:54.424Z,,0,,,2557.562999996997,completion,,,,,false,,,,444550.19999999553,444549.799999997,441975.582,441982.5,441992.237,444552.728,8,400,,,
trial,html.Screen,4_118_0,2023-05-02T15:40:57.172Z,,0,3,,2745.271999999997,response,ISIC_0031821.JPG,,ISIC_0033258.JPG,ISIC_0033258.JPG,false,0,keypress(z),500,447298.299999997,447298,444536.073,444550.3999999985,444552.728,447300.803,8,400,19,,ISIC_0031821.JPG
break,html.Screen,4_118_1,2023-05-02T15:40:57.174Z,,0,,,NaN,,,,,,false,,,,447300.19999999553,447299.69999999553,,447298.69999999553,,447300.803,8,400,,,
break_continue,html.Screen,4_118_2,2023-05-02T15:40:57.174Z,,0,,,NaN,,,,,,false,,,,447300.799999997,447300.6000000015,,447300.299999997,,447300.803,8,400,,,
sequence,flow.Sequence,4_118,2023-05-02T15:40:57.175Z,,0,,,2747.8720000014873,completion,,,,,false,,,,447301,447300.6000000015,444536.073,444550.299999997,444552.728,447300.803,8,400,,,
trial,html.Screen,4_119_0,2023-05-02T15:40:59.972Z,,0,3,,2797.1969999999856,response,ISIC_0010873.JPG,,ISIC_3084213.JPG,ISIC_3084213.JPG,false,0,keypress(z),500,450098.299999997,450098,447284.148,447301.299999997,447300.803,450115.498,8,400,20,,ISIC_0010873.JPG
break,html.Screen,4_119_1,2023-05-02T15:40:59.974Z,,0,,,NaN,,,,,,false,,,,450100.1000000015,450099.69999999553,,450098.69999999553,,450115.498,8,400,,,
break_continue,html.Screen,4_119_2,2023-05-02T15:40:59.974Z,,0,,,NaN,,,,,,false,,,,450100.799999997,450100.6000000015,,450100.299999997,,450115.498,8,400,,,
sequence,flow.Sequence,4_119,2023-05-02T15:40:59.974Z,,0,,,2799.7970000014757,completion,,,,,false,,,,450101.1000000015,450100.6000000015,447284.148,447301.1000000015,447300.803,450115.498,8,400,,,
trial,html.Screen,4_120_0,2023-05-02T15:41:02.715Z,,0,3,,2725.8019999969983,response,ISIC_8909957.JPG,,ISIC_0071133.JPG,ISIC_8909957.JPG,false,1,keypress(m),500,452841.69999999553,452841.299999997,450098.843,450101.19999999553,450115.498,452846.918,8,400,21,,ISIC_0071133.JPG
break,html.Screen,4_120_1,2023-05-02T15:41:02.717Z,,0,,,NaN,,,,,,false,,,,452843.299999997,452842.8999999985,,452842,,452846.918,8,400,,,
break_continue,html.Screen,4_120_2,2023-05-02T15:41:02.717Z,,0,,,NaN,,,,,,false,,,,452844,452843.799999997,,452843.5,,452846.918,8,400,,,
sequence,flow.Sequence,4_120,2023-05-02T15:41:02.717Z,,0,,,2728.3019999969983,completion,,,,,false,,,,452844.299999997,452843.799999997,450098.843,450101.1000000015,450115.498,452846.918,8,400,,,
trial,html.Screen,4_121_0,2023-05-02T15:41:05.539Z,,0,3,,2818.3819999970146,response,ISIC_0061625.JPG,,ISIC_0032425.JPG,ISIC_0032425.JPG,false,0,keypress(z),500,455665.799999997,455665.299999997,452830.263,452844.5,452846.918,455683.651,8,400,22,,ISIC_0061625.JPG
break,html.Screen,4_121_1,2023-05-02T15:41:05.540Z,,0,,,NaN,,,,,,false,,,,455667.3999999985,455667,,455666.1000000015,,455683.651,8,400,,,
break_continue,html.Screen,4_121_2,2023-05-02T15:41:05.541Z,,0,,,NaN,,,,,,false,,,,455668.1000000015,455667.8999999985,,455667.6000000015,,455683.651,8,400,,,
sequence,flow.Sequence,4_121,2023-05-02T15:41:05.541Z,,0,,,2820.9819999985048,completion,,,,,false,,,,455668.299999997,455667.8999999985,452830.263,452844.3999999985,452846.918,455683.651,8,400,,,
trial,html.Screen,4_122_0,2023-05-02T15:41:08.211Z,,0,3,,2654.3489999999874,response,ISIC_8702237.JPG,,ISIC_0033386.JPG,ISIC_8702237.JPG,false,1,keypress(m),500,458338.299999997,458338,455666.996,455668.5,455683.651,458348.451,8,400,23,,ISIC_0033386.JPG
break,html.Screen,4_122_1,2023-05-02T15:41:08.213Z,,0,,,NaN,,,,,,false,,,,458340,458339.6000000015,,458338.69999999553,,458348.451,8,400,,,
break_continue,html.Screen,4_122_2,2023-05-02T15:41:08.214Z,,0,,,NaN,,,,,,false,,,,458340.6000000015,458340.5,,458340.19999999553,,458348.451,8,400,,,
sequence,flow.Sequence,4_122,2023-05-02T15:41:08.214Z,,0,,,2656.8489999999874,completion,,,,,false,,,,458340.8999999985,458340.5,455666.996,455668.3999999985,455683.651,458348.451,8,400,,,
trial,html.Screen,4_123_0,2023-05-02T15:41:10.787Z,,0,3,,2565.448999998509,response,ISIC_0030481.JPG,,ISIC_0013733.JPG,ISIC_0030481.JPG,false,1,keypress(m),500,460914.299999997,460913.8999999985,458331.796,458341,458348.451,460929.976,8,400,24,,ISIC_0013733.JPG
break,html.Screen,4_123_1,2023-05-02T15:41:10.789Z,,0,,,NaN,,,,,,false,,,,460916.19999999553,460915.799999997,,460914.6000000015,,460929.976,8,400,,,
break_continue,html.Screen,4_123_2,2023-05-02T15:41:10.790Z,,0,,,NaN,,,,,,false,,,,460916.8999999985,460916.6000000015,,460916.299999997,,460929.976,8,400,,,
sequence,flow.Sequence,4_123,2023-05-02T15:41:10.790Z,,0,,,2568.149000001489,completion,,,,,false,,,,460917.1000000015,460916.6000000015,458331.796,458341,458348.451,460929.976,8,400,,,
trial,html.Screen,4_124_0,2023-05-02T15:41:13.594Z,,0,3,,2791.3239999969956,response,ISIC_3432650.JPG,,ISIC_0015264.JPG,ISIC_0015264.JPG,false,0,keypress(z),500,463721.69999999553,463721.299999997,460913.321,460917.299999997,460929.976,463728.016,8,400,25,,ISIC_3432650.JPG
break,html.Screen,4_124_1,2023-05-02T15:41:13.596Z,,0,,,NaN,,,,,,false,,,,463723.6000000015,463723.1000000015,,463722.19999999553,,463728.016,8,400,,,
break_continue,html.Screen,4_124_2,2023-05-02T15:41:13.597Z,,0,,,NaN,,,,,,false,,,,463724.1000000015,463724,,463723.69999999553,,463728.016,8,400,,,
sequence,flow.Sequence,4_124,2023-05-02T15:41:13.597Z,,0,,,2794.023999999976,completion,,,,,false,,,,463724.3999999985,463724,460913.321,460917.299999997,460929.976,463728.016,8,400,,,
trial,html.Screen,4_125_0,2023-05-02T15:41:16.212Z,,0,3,,2611.4839999999967,response,ISIC_0033619.JPG,,ISIC_0010034.JPG,ISIC_0033619.JPG,false,1,keypress(m),500,466339.69999999553,466339.5,463711.361,463724.6000000015,463728.016,466345.579,8,400,26,,ISIC_0010034.JPG
break,html.Screen,4_125_1,2023-05-02T15:41:16.214Z,,0,,,NaN,,,,,,false,,,,466341.19999999553,466340.8999999985,,466340,,466345.579,8,400,,,
break_continue,html.Screen,4_125_2,2023-05-02T15:41:16.214Z,,0,,,NaN,,,,,,false,,,,466341.799999997,466341.6000000015,,466341.299999997,,466345.579,8,400,,,
sequence,flow.Sequence,4_125,2023-05-02T15:41:16.214Z,,0,,,2613.584000001487,completion,,,,,false,,,,466341.8999999985,466341.6000000015,463711.361,463724.6000000015,463728.016,466345.579,8,400,,,
trial,html.Screen,4_126_0,2023-05-02T15:41:18.858Z,,0,3,,2639.7209999969928,response,ISIC_7534592.JPG,,ISIC_0069351.JPG,ISIC_0069351.JPG,false,0,keypress(z),500,468985.6000000015,468985.299999997,466328.924,466342.19999999553,466345.579,468993.724,8,400,27,,ISIC_7534592.JPG
break,html.Screen,4_126_1,2023-05-02T15:41:18.859Z,,0,,,NaN,,,,,,false,,,,468987.1000000015,468986.799999997,,468985.8999999985,,468993.724,8,400,,,
