sender,sender_type,sender_id,timestamp,meta,,blockNo,condition,duration,ended_on,img_left,img_reveal,img_right,loser,practice,response,response_action,selection_duration,time_commit,time_end,time_render,time_run,time_show,time_switch,total_blocks,total_trials,trialNo,url,winner
informed_consent,html.Screen,0,2023-09-17T01:01:26.670Z,"{""labjs_version"":""20.2.4"",""labjs_build"":{""flavor"":""production"",""commit"":""f5b4a49f956347addd546a832a3327688c2c0fef""},""location"":""https://run.pavlovia.org/MurrayBennett/melanoma-2afc/?participant=67645&platform=sona"",""userAgent"":""Mozilla/5.0 (Windows NT 10.0; Win64; x64) AppleWebKit/537.36 (KHTML, like Gecko) Chrome/116.0.0.0 Safari/537.36"",""platform"":""Win32"",""language"":""en-US"",""locale"":""en-US"",""timeZone"":""America/Chicago"",""timezoneOffset"":300,""screen_width"":1920,""screen_height"":1080,""scroll_width"":1920,""scroll_height"":875,""window_innerWidth"":1920,""window_innerHeight"":923,""devicePixelRatio"":1}",,,,22678.029999997765,response,,,,,,consent,click button,,24551.89999999851,24551.099999997765,1856.423,1862.0999999977648,1873.07,24572.338,,,,"{""participant"":""67645"",""platform"":""sona""}",
Welcome,html.Screen,1,2023-09-17T01:02:28.129Z,,,,symmetry,61439.06199999851,response,,,,,,continue,click button,,86011.69999999925,86011.39999999851,24555.672,24552,24572.338,86020.288,,,,,
trial,html.Screen,2_0_0,2023-09-17T01:02:33.923Z,,0,0,,5785.811999997764,response,ISIC_0069348.JPG,,ISIC_6997061.JPG,ISIC_0069348.JPG,true,1,keypress(m),500,91806.19999999925,91806.09999999776,86003.594,86011.89999999851,86020.288,91836.758,1,6,1,,ISIC_6997061.JPG
sequence,flow.Sequence,2_0,2023-09-17T01:02:33.923Z,,0,,,5785.811999997764,completion,,,,,true,,,,91806.29999999702,91806.09999999776,86003.594,86011.89999999851,86020.288,91836.758,1,6,,,
trial,html.Screen,2_1_0,2023-09-17T01:02:40.069Z,,0,0,,6114.841999997763,response,ISIC_0057368.JPG,,ISIC_0009529.JPG,ISIC_0057368.JPG,true,1,keypress(m),500,97951.69999999925,97951.59999999776,91820.076,91806.39999999851,91836.758,97971.025,1,6,2,,ISIC_0009529.JPG
sequence,flow.Sequence,2_1,2023-09-17T01:02:40.069Z,,0,,,6114.841999997763,completion,,,,,true,,,,97951.79999999702,97951.59999999776,91820.076,91806.39999999851,91836.758,97971.025,1,6,,,
trial,html.Screen,2_2_0,2023-09-17T01:02:44.374Z,,0,0,,4285.975000000006,response,ISIC_0064954.JPG,,ISIC_9758671.JPG,ISIC_9758671.JPG,true,0,keypress(z),500,102257.19999999925,102257,97936.607,97951.89999999851,97971.025,102269.76,1,6,3,,ISIC_0064954.JPG
sequence,flow.Sequence,2_2,2023-09-17T01:02:44.374Z,,0,,,4285.975000000006,completion,,,,,true,,,,102257.29999999702,102257,97936.607,97951.89999999851,97971.025,102269.76,1,6,,,
trial,html.Screen,2_3_0,2023-09-17T01:02:47.656Z,,0,0,,3269.139999998515,response,ISIC_0000080.JPG,,ISIC_0005785.JPG,ISIC_0005785.JPG,true,0,keypress(z),500,105539.09999999776,105538.89999999851,102253.449,102257.29999999702,102269.76,105553.173,1,6,4,,ISIC_0000080.JPG
sequence,flow.Sequence,2_3,2023-09-17T01:02:47.656Z,,0,,,3269.139999998515,completion,,,,,true,,,,105539.19999999925,105538.89999999851,102253.449,102257.29999999702,102269.76,105553.173,1,6,,,
trial,html.Screen,2_4_0,2023-09-17T01:02:51.897Z,,0,0,,4227.1269999970245,response,ISIC_5390060.JPG,,ISIC_7944028.JPG,ISIC_5390060.JPG,true,1,keypress(m),500,109780.39999999851,109780.29999999702,105536.384,105539.29999999702,105553.173,109786.183,1,6,5,,ISIC_7944028.JPG
sequence,flow.Sequence,2_4,2023-09-17T01:02:51.897Z,,0,,,4227.1269999970245,completion,,,,,true,,,,109780.5,109780.29999999702,105536.384,105539.19999999925,105553.173,109786.183,1,6,,,
trial,html.Screen,2_5_0,2023-09-17T01:02:54.911Z,,0,0,,3007.8169999999955,response,ISIC_0010188.JPG,,ISIC_0794216.JPG,ISIC_0010188.JPG,true,1,keypress(m),500,112794.09999999776,112794,109769.435,109780.59999999776,109786.183,112802.731,1,6,6,,ISIC_0794216.JPG
sequence,flow.Sequence,2_5,2023-09-17T01:02:54.911Z,,0,,,3007.8169999999955,completion,,,,,true,,,,112794.19999999925,112794,109769.435,109780.5,109786.183,112802.731,1,6,,,
loop,flow.Loop,2,2023-09-17T01:02:54.911Z,,,,,26773.712,completion,,,,,true,,,,112794.29999999702,112794,86003.594,86011.89999999851,86020.288,112802.731,1,6,,,
exp_instructions,html.Screen,3,2023-09-17T01:03:12.619Z,,,,,17698.769,response,,,,,,continue,keypress(Space),,130501.89999999851,130501.5,112786.159,112794.29999999702,112802.731,130518.814,,,,,
trial,html.Screen,4_0_0,2023-09-17T01:03:16.079Z,,0,1,,3443.1860000000015,response,ISIC_1247683.JPG,5,ISIC_0066733.JPG,ISIC_1247683.JPG,false,1,keypress(m),500,133962,133962,130494.587,130502.09999999776,130518.814,133968.689,8,400,1,,ISIC_0066733.JPG
break,html.Screen,4_0_1,2023-09-17T01:03:16.079Z,,0,,,NaN,,,,,,false,,,,133962.5,133962.3999999985,,133962.09999999776,,133968.689,8,400,,,
break_continue,html.Screen,4_0_2,2023-09-17T01:03:16.080Z,,0,,,NaN,,,,,,false,,,,133962.69999999925,133962.69999999925,,133962.59999999776,,133968.689,8,400,,,
sequence,flow.Sequence,4_0,2023-09-17T01:03:16.080Z,,0,,,3443.8859999992565,completion,,,,,false,,,,133962.79999999702,133962.69999999925,130494.587,130502.09999999776,130518.814,133968.689,8,400,,,
trial,html.Screen,4_1_0,2023-09-17T01:03:19.009Z,,0,1,,2923.210999998497,response,ISIC_9291926.JPG,5,ISIC_3985031.JPG,ISIC_9291926.JPG,false,1,keypress(m),500,136891.8999999985,136891.8999999985,133952.378,133962.8999999985,133968.689,136902.132,8,400,2,,ISIC_3985031.JPG
break,html.Screen,4_1_1,2023-09-17T01:03:19.009Z,,0,,,NaN,,,,,,false,,,,136892.3999999985,136892.29999999702,,136892,,136902.132,8,400,,,
break_continue,html.Screen,4_1_2,2023-09-17T01:03:19.009Z,,0,,,NaN,,,,,,false,,,,136892.5,136892.3999999985,,136892.3999999985,,136902.132,8,400,,,
sequence,flow.Sequence,4_1,2023-09-17T01:03:19.010Z,,0,,,2923.710999998497,completion,,,,,false,,,,136892.59999999776,136892.3999999985,133952.378,133962.79999999702,133968.689,136902.132,8,400,,,
trial,html.Screen,4_2_0,2023-09-17T01:03:23.560Z,,0,1,,4540.2679999984975,response,ISIC_8082460.JPG,5,ISIC_0218575.JPG,ISIC_8082460.JPG,false,1,keypress(m),500,141442.5,141442.3999999985,136885.34,136892.59999999776,136902.132,141451.781,8,400,3,,ISIC_0218575.JPG
break,html.Screen,4_2_1,2023-09-17T01:03:23.561Z,,0,,,NaN,,,,,,false,,,,141442.8999999985,141442.8999999985,,141442.59999999776,,141451.781,8,400,,,
break_continue,html.Screen,4_2_2,2023-09-17T01:03:23.561Z,,0,,,NaN,,,,,,false,,,,141443,141443,,141443,,141451.781,8,400,,,
sequence,flow.Sequence,4_2,2023-09-17T01:03:23.561Z,,0,,,4540.867999999988,completion,,,,,false,,,,141443.09999999776,141443,136885.34,136892.59999999776,136902.132,141451.781,8,400,,,
trial,html.Screen,4_3_0,2023-09-17T01:03:27.370Z,,0,1,,3800.719000000012,response,ISIC_6227920.JPG,5,ISIC_9605122.JPG,ISIC_6227920.JPG,false,1,keypress(m),500,145252.5,145252.5,141434.907,141443.19999999925,141451.781,145268.348,8,400,4,,ISIC_9605122.JPG
break,html.Screen,4_3_1,2023-09-17T01:03:27.371Z,,0,,,NaN,,,,,,false,,,,145253,145252.8999999985,,145252.59999999776,,145268.348,8,400,,,
break_continue,html.Screen,4_3_2,2023-09-17T01:03:27.371Z,,0,,,NaN,,,,,,false,,,,145253.09999999776,145253.09999999776,,145253.09999999776,,145268.348,8,400,,,
sequence,flow.Sequence,4_3,2023-09-17T01:03:27.371Z,,0,,,3801.3189999977767,completion,,,,,false,,,,145253.19999999925,145253.09999999776,141434.907,141443.19999999925,141451.781,145268.348,8,400,,,
trial,html.Screen,4_4_0,2023-09-17T01:03:30.860Z,,0,1,,3474.0519999985117,response,ISIC_9052604.JPG,4,ISIC_6532137.JPG,ISIC_6532137.JPG,false,0,keypress(z),500,148742.5,148742.3999999985,145251.67,145253.19999999925,145268.348,148751.741,8,400,5,,ISIC_9052604.JPG
break,html.Screen,4_4_1,2023-09-17T01:03:30.861Z,,0,,,NaN,,,,,,false,,,,148742.8999999985,148742.79999999702,,148742.59999999776,,148751.741,8,400,,,
break_continue,html.Screen,4_4_2,2023-09-17T01:03:30.861Z,,0,,,NaN,,,,,,false,,,,148743,148743,,148743,,148751.741,8,400,,,
sequence,flow.Sequence,4_4,2023-09-17T01:03:30.861Z,,0,,,3474.652000000002,completion,,,,,false,,,,148743.09999999776,148743,145251.67,145253.19999999925,145268.348,148751.741,8,400,,,
trial,html.Screen,4_5_0,2023-09-17T01:03:34.449Z,,0,1,,3579.758999999991,response,ISIC_1479949.JPG,5,ISIC_0030951.JPG,ISIC_1479949.JPG,false,1,keypress(m),500,152331.5,152331.5,148735.003,148743.09999999776,148751.741,152334.766,8,400,6,,ISIC_0030951.JPG
break,html.Screen,4_5_1,2023-09-17T01:03:34.450Z,,0,,,NaN,,,,,,false,,,,152332,152331.8999999985,,152331.59999999776,,152334.766,8,400,,,
break_continue,html.Screen,4_5_2,2023-09-17T01:03:34.450Z,,0,,,NaN,,,,,,false,,,,152332.09999999776,152332.09999999776,,152332,,152334.766,8,400,,,
sequence,flow.Sequence,4_5,2023-09-17T01:03:34.450Z,,0,,,3580.3589999977557,completion,,,,,false,,,,152332.19999999925,152332.09999999776,148735.003,148743.09999999776,148751.741,152334.766,8,400,,,
trial,html.Screen,4_6_0,2023-09-17T01:03:38.563Z,,0,1,,4110.5339999970165,response,ISIC_4568425.JPG,6,ISIC_0000469.JPG,ISIC_4568425.JPG,false,1,keypress(m),500,156445.5,156445.29999999702,152318.193,152332.19999999925,152334.766,156451.283,8,400,7,,ISIC_0000469.JPG
break,html.Screen,4_6_1,2023-09-17T01:03:38.564Z,,0,,,NaN,,,,,,false,,,,156445.8999999985,156445.69999999925,,156445.5,,156451.283,8,400,,,
break_continue,html.Screen,4_6_2,2023-09-17T01:03:38.564Z,,0,,,NaN,,,,,,false,,,,156446,156446,,156445.8999999985,,156451.283,8,400,,,
sequence,flow.Sequence,4_6,2023-09-17T01:03:38.564Z,,0,,,4111.233999999997,completion,,,,,false,,,,156446.09999999776,156446,152318.193,152332.19999999925,152334.766,156451.283,8,400,,,
trial,html.Screen,4_7_0,2023-09-17T01:03:42.421Z,,0,1,,3851.217000000004,response,ISIC_1814941.JPG,4,ISIC_0028573.JPG,ISIC_1814941.JPG,false,1,keypress(m),500,160302.59999999776,160302.5,156434.443,156446.09999999776,156451.283,160317.855,8,400,8,,ISIC_0028573.JPG
break,html.Screen,4_7_1,2023-09-17T01:03:42.421Z,,0,,,NaN,,,,,,false,,,,160303,160303,,160302.69999999925,,160317.855,8,400,,,
break_continue,html.Screen,4_7_2,2023-09-17T01:03:42.421Z,,0,,,NaN,,,,,,false,,,,160303.19999999925,160303.19999999925,,160303.09999999776,,160317.855,8,400,,,
sequence,flow.Sequence,4_7,2023-09-17T01:03:42.421Z,,0,,,3851.916999999259,completion,,,,,false,,,,160303.19999999925,160303.19999999925,156434.443,156446.09999999776,156451.283,160317.855,8,400,,,
trial,html.Screen,4_8_0,2023-09-17T01:03:45.481Z,,0,1,,3045.3449999992445,response,ISIC_0010746.JPG,5,ISIC_4884803.JPG,ISIC_0010746.JPG,false,1,keypress(m),500,163363.19999999925,163363.19999999925,160301.179,160303.29999999702,160317.855,163367.705,8,400,9,,ISIC_4884803.JPG
break,html.Screen,4_8_1,2023-09-17T01:03:45.482Z,,0,,,NaN,,,,,,false,,,,163363.59999999776,163363.59999999776,,163363.3999999985,,163367.705,8,400,,,
break_continue,html.Screen,4_8_2,2023-09-17T01:03:45.482Z,,0,,,NaN,,,,,,false,,,,163363.79999999702,163363.79999999702,,163363.69999999925,,163367.705,8,400,,,
sequence,flow.Sequence,4_8,2023-09-17T01:03:45.482Z,,0,,,3045.9449999970093,completion,,,,,false,,,,163363.8999999985,163363.79999999702,160301.179,160303.29999999702,160317.855,163367.705,8,400,,,
trial,html.Screen,4_9_0,2023-09-17T01:03:50.156Z,,0,1,,4670.494999999268,response,ISIC_1372928.JPG,6,ISIC_0033178.JPG,ISIC_1372928.JPG,false,1,keypress(m),500,168038.29999999702,168038.19999999925,163351.17,163363.8999999985,163367.705,168050.883,8,400,10,,ISIC_0033178.JPG
break,html.Screen,4_9_1,2023-09-17T01:03:50.157Z,,0,,,NaN,,,,,,false,,,,168038.69999999925,168038.59999999776,,168038.3999999985,,168050.883,8,400,,,
break_continue,html.Screen,4_9_2,2023-09-17T01:03:50.157Z,,0,,,NaN,,,,,,false,,,,168038.79999999702,168038.79999999702,,168038.79999999702,,168050.883,8,400,,,
sequence,flow.Sequence,4_9,2023-09-17T01:03:50.157Z,,0,,,4671.094999997033,completion,,,,,false,,,,168038.79999999702,168038.79999999702,163351.17,163363.8999999985,163367.705,168050.883,8,400,,,
trial,html.Screen,4_10_0,2023-09-17T01:03:53.278Z,,0,1,,3108.716999997763,response,ISIC_0034144.JPG,5,ISIC_0033802.JPG,ISIC_0033802.JPG,false,0,keypress(z),500,171159.69999999925,171159.59999999776,168034.298,168038.8999999985,168050.883,171167.447,8,400,11,,ISIC_0034144.JPG
break,html.Screen,4_10_1,2023-09-17T01:03:53.278Z,,0,,,NaN,,,,,,false,,,,171160.19999999925,171160.09999999776,,171159.8999999985,,171167.447,8,400,,,
break_continue,html.Screen,4_10_2,2023-09-17T01:03:53.278Z,,0,,,NaN,,,,,,false,,,,171160.29999999702,171160.29999999702,,171160.19999999925,,171167.447,8,400,,,
sequence,flow.Sequence,4_10,2023-09-17T01:03:53.278Z,,0,,,3109.416999997018,completion,,,,,false,,,,171160.29999999702,171160.29999999702,168034.298,168038.8999999985,168050.883,171167.447,8,400,,,
trial,html.Screen,4_11_0,2023-09-17T01:03:57.904Z,,0,1,,4618.952999998524,response,ISIC_4312841.JPG,5,ISIC_8156101.JPG,ISIC_8156101.JPG,false,0,keypress(z),500,175786.5,175786.3999999985,171150.581,171160.3999999985,171167.447,175800.639,8,400,12,,ISIC_4312841.JPG
break,html.Screen,4_11_1,2023-09-17T01:03:57.905Z,,0,,,NaN,,,,,,false,,,,175786.79999999702,175786.79999999702,,175786.59999999776,,175800.639,8,400,,,
break_continue,html.Screen,4_11_2,2023-09-17T01:03:57.905Z,,0,,,NaN,,,,,,false,,,,175787,175786.8999999985,,175786.8999999985,,175800.639,8,400,,,
sequence,flow.Sequence,4_11,2023-09-17T01:03:57.905Z,,0,,,4619.452999998524,completion,,,,,false,,,,175787.09999999776,175786.8999999985,171150.581,171160.3999999985,171167.447,175800.639,8,400,,,
trial,html.Screen,4_12_0,2023-09-17T01:04:02.146Z,,0,1,,4227.660999997024,response,ISIC_4900077.JPG,5,ISIC_8855102.JPG,ISIC_4900077.JPG,false,1,keypress(m),500,180028.3999999985,180028.29999999702,175783.994,175787.09999999776,175800.639,180033.806,8,400,13,,ISIC_8855102.JPG
break,html.Screen,4_12_1,2023-09-17T01:04:02.147Z,,0,,,NaN,,,,,,false,,,,180028.8999999985,180028.79999999702,,180028.5,,180033.806,8,400,,,
break_continue,html.Screen,4_12_2,2023-09-17T01:04:02.147Z,,0,,,NaN,,,,,,false,,,,180029.09999999776,180029,,180028.8999999985,,180033.806,8,400,,,
sequence,flow.Sequence,4_12,2023-09-17T01:04:02.147Z,,0,,,4228.361000000004,completion,,,,,false,,,,180029.09999999776,180029,175783.994,175787.09999999776,175800.639,180033.806,8,400,,,
trial,html.Screen,4_13_0,2023-09-17T01:04:07.509Z,,0,1,,5356.693999999989,response,ISIC_0009642.JPG,5,ISIC_9210086.JPG,ISIC_9210086.JPG,false,0,keypress(z),500,185390.59999999776,185390.5,180017.1,180029.19999999925,180033.806,185400.299,8,400,14,,ISIC_0009642.JPG
break,html.Screen,4_13_1,2023-09-17T01:04:07.509Z,,0,,,NaN,,,,,,false,,,,185391,185390.8999999985,,185390.59999999776,,185400.299,8,400,,,
break_continue,html.Screen,4_13_2,2023-09-17T01:04:07.509Z,,0,,,NaN,,,,,,false,,,,185391.19999999925,185391.09999999776,,185391,,185400.299,8,400,,,
sequence,flow.Sequence,4_13,2023-09-17T01:04:07.509Z,,0,,,5357.293999997753,completion,,,,,false,,,,185391.19999999925,185391.09999999776,180017.1,180029.19999999925,180033.806,185400.299,8,400,,,
trial,html.Screen,4_14_0,2023-09-17T01:04:10.826Z,,0,1,,3308.100999998511,response,ISIC_0806303.JPG,5,ISIC_0032547.JPG,ISIC_0032547.JPG,false,0,keypress(z),500,188708.59999999776,188708.3999999985,185383.579,185391.29999999702,185400.299,188716.859,8,400,15,,ISIC_0806303.JPG
break,html.Screen,4_14_1,2023-09-17T01:04:10.827Z,,0,,,NaN,,,,,,false,,,,188708.8999999985,188708.8999999985,,188708.59999999776,,188716.859,8,400,,,
break_continue,html.Screen,4_14_2,2023-09-17T01:04:10.827Z,,0,,,NaN,,,,,,false,,,,188709,188709,,188708.8999999985,,188716.859,8,400,,,
sequence,flow.Sequence,4_14,2023-09-17T01:04:10.827Z,,0,,,3308.701000000001,completion,,,,,false,,,,188709.19999999925,188709,185383.579,185391.29999999702,185400.299,188716.859,8,400,,,
trial,html.Screen,4_15_0,2023-09-17T01:04:15.219Z,,0,1,,4383.940999997023,response,ISIC_6703027.JPG,5,ISIC_0055143.JPG,ISIC_0055143.JPG,false,0,keypress(z),500,193100.8999999985,193100.79999999702,188700.16,188709.19999999925,188716.859,193116.699,8,400,16,,ISIC_6703027.JPG
break,html.Screen,4_15_1,2023-09-17T01:04:15.219Z,,0,,,NaN,,,,,,false,,,,193101.29999999702,193101.29999999702,,193101,,193116.699,8,400,,,
break_continue,html.Screen,4_15_2,2023-09-17T01:04:15.219Z,,0,,,NaN,,,,,,false,,,,193101.5,193101.3999999985,,193101.3999999985,,193116.699,8,400,,,
sequence,flow.Sequence,4_15,2023-09-17T01:04:15.219Z,,0,,,4384.540999998513,completion,,,,,false,,,,193101.5,193101.3999999985,188700.16,188709.19999999925,188716.859,193116.699,8,400,,,
trial,html.Screen,4_16_0,2023-09-17T01:04:18.475Z,,0,1,,3240.7009999985166,response,ISIC_4897852.JPG,4,ISIC_0033605.JPG,ISIC_4897852.JPG,false,1,keypress(m),500,196357.5,196357.3999999985,193099.952,193101.59999999776,193116.699,196366.617,8,400,17,,ISIC_0033605.JPG
break,html.Screen,4_16_1,2023-09-17T01:04:18.476Z,,0,,,NaN,,,,,,false,,,,196357.79999999702,196357.79999999702,,196357.59999999776,,196366.617,8,400,,,
break_continue,html.Screen,4_16_2,2023-09-17T01:04:18.476Z,,0,,,NaN,,,,,,false,,,,196358,196358,,196357.8999999985,,196366.617,8,400,,,
sequence,flow.Sequence,4_16,2023-09-17T01:04:18.476Z,,0,,,3241.3010000000068,completion,,,,,false,,,,196358.09999999776,196358,193099.952,193101.5,193116.699,196366.617,8,400,,,
trial,html.Screen,4_17_0,2023-09-17T01:04:22.989Z,,0,1,,4504.582999999257,response,ISIC_0062869.JPG,5,ISIC_7727830.JPG,ISIC_0062869.JPG,false,1,keypress(m),500,200871.19999999925,200871.19999999925,196350.361,196358.09999999776,196366.617,200883.164,8,400,18,,ISIC_7727830.JPG
break,html.Screen,4_17_1,2023-09-17T01:04:22.990Z,,0,,,NaN,,,,,,false,,,,200871.69999999925,200871.5,,200871.29999999702,,200883.164,8,400,,,
break_continue,html.Screen,4_17_2,2023-09-17T01:04:22.990Z,,0,,,NaN,,,,,,false,,,,200871.79999999702,200871.79999999702,,200871.69999999925,,200883.164,8,400,,,
sequence,flow.Sequence,4_17,2023-09-17T01:04:22.990Z,,0,,,4505.182999997021,completion,,,,,false,,,,200871.8999999985,200871.79999999702,196350.361,196358.09999999776,196366.617,200883.164,8,400,,,
trial,html.Screen,4_18_0,2023-09-17T01:04:26.560Z,,0,1,,3558.63599999703,response,ISIC_6430210.JPG,5,ISIC_2355374.JPG,ISIC_6430210.JPG,false,1,keypress(m),500,204441.79999999702,204441.79999999702,200866.325,200871.8999999985,200883.164,204449.674,8,400,19,,ISIC_2355374.JPG
break,html.Screen,4_18_1,2023-09-17T01:04:26.560Z,,0,,,NaN,,,,,,false,,,,204442.19999999925,204442.09999999776,,204441.8999999985,,204449.674,8,400,,,
break_continue,html.Screen,4_18_2,2023-09-17T01:04:26.560Z,,0,,,NaN,,,,,,false,,,,204442.3999999985,204442.3999999985,,204442.29999999702,,204449.674,8,400,,,
sequence,flow.Sequence,4_18,2023-09-17T01:04:26.560Z,,0,,,3559.23599999852,completion,,,,,false,,,,204442.3999999985,204442.3999999985,200866.325,200871.8999999985,200883.164,204449.674,8,400,,,
trial,html.Screen,4_19_0,2023-09-17T01:04:30.243Z,,0,1,,3675.6259999970207,response,ISIC_5646706.JPG,4,ISIC_0033574.JPG,ISIC_0033574.JPG,false,0,keypress(z),500,208125.3999999985,208125.29999999702,204433.09,204442.5,204449.674,208132.887,8,400,20,,ISIC_5646706.JPG
break,html.Screen,4_19_1,2023-09-17T01:04:30.244Z,,0,,,NaN,,,,,,false,,,,208125.8999999985,208125.69999999925,,208125.5,,208132.887,8,400,,,
break_continue,html.Screen,4_19_2,2023-09-17T01:04:30.244Z,,0,,,NaN,,,,,,false,,,,208126,208125.8999999985,,208125.8999999985,,208132.887,8,400,,,
sequence,flow.Sequence,4_19,2023-09-17T01:04:30.244Z,,0,,,3676.225999998511,completion,,,,,false,,,,208126,208125.8999999985,204433.09,204442.5,204449.674,208132.887,8,400,,,
trial,html.Screen,4_20_0,2023-09-17T01:04:33.605Z,,0,1,,3354.312999999267,response,ISIC_0026094.JPG,5,ISIC_0063824.JPG,ISIC_0026094.JPG,false,1,keypress(m),500,211487.3999999985,211487.19999999925,208116.531,208126.09999999776,208132.887,211499.639,8,400,21,,ISIC_0063824.JPG
break,html.Screen,4_20_1,2023-09-17T01:04:33.606Z,,0,,,NaN,,,,,,false,,,,211487.69999999925,211487.69999999925,,211487.3999999985,,211499.639,8,400,,,
break_continue,html.Screen,4_20_2,2023-09-17T01:04:33.606Z,,0,,,NaN,,,,,,false,,,,211487.8999999985,211487.79999999702,,211487.79999999702,,211499.639,8,400,,,
sequence,flow.Sequence,4_20,2023-09-17T01:04:33.606Z,,0,,,3354.912999997032,completion,,,,,false,,,,211487.8999999985,211487.79999999702,208116.531,208126.09999999776,208132.887,211499.639,8,400,,,
trial,html.Screen,4_21_0,2023-09-17T01:04:37.740Z,,0,1,,4121.960999997769,response,ISIC_0024232.JPG,5,ISIC_0070432.JPG,ISIC_0070432.JPG,false,0,keypress(z),500,215621.69999999925,215621.59999999776,211482.857,211487.8999999985,211499.639,215632.637,8,400,22,,ISIC_0024232.JPG
break,html.Screen,4_21_1,2023-09-17T01:04:37.740Z,,0,,,NaN,,,,,,false,,,,215622,215621.8999999985,,215621.69999999925,,215632.637,8,400,,,
break_continue,html.Screen,4_21_2,2023-09-17T01:04:37.740Z,,0,,,NaN,,,,,,false,,,,215622.09999999776,215622.09999999776,,215622.09999999776,,215632.637,8,400,,,
sequence,flow.Sequence,4_21,2023-09-17T01:04:37.740Z,,0,,,4122.460999997769,completion,,,,,false,,,,215622.29999999702,215622.09999999776,211482.857,211487.8999999985,211499.639,215632.637,8,400,,,
trial,html.Screen,4_22_0,2023-09-17T01:04:42.349Z,,0,1,,4598.562999999267,response,ISIC_0072507.JPG,5,ISIC_0054767.JPG,ISIC_0054767.JPG,false,0,keypress(z),500,220231.29999999702,220231.19999999925,215615.795,215622.29999999702,215632.637,220250.288,8,400,23,,ISIC_0072507.JPG
break,html.Screen,4_22_1,2023-09-17T01:04:42.350Z,,0,,,NaN,,,,,,false,,,,220231.69999999925,220231.69999999925,,220231.3999999985,,220250.288,8,400,,,
break_continue,html.Screen,4_22_2,2023-09-17T01:04:42.350Z,,0,,,NaN,,,,,,false,,,,220231.8999999985,220231.8999999985,,220231.79999999702,,220250.288,8,400,,,
sequence,flow.Sequence,4_22,2023-09-17T01:04:42.350Z,,0,,,4599.262999998522,completion,,,,,false,,,,220231.8999999985,220231.8999999985,215615.795,215622.29999999702,215632.637,220250.288,8,400,,,
trial,html.Screen,4_23_0,2023-09-17T01:04:46.175Z,,0,1,,3806.9119999992545,response,ISIC_0064240.JPG,5,ISIC_1475598.JPG,ISIC_0064240.JPG,false,1,keypress(m),500,224057.29999999702,224057.19999999925,220215.815,220232,220250.288,224065.7,8,400,24,,ISIC_1475598.JPG
break,html.Screen,4_23_1,2023-09-17T01:04:46.176Z,,0,,,NaN,,,,,,false,,,,224057.69999999925,224057.59999999776,,224057.3999999985,,224065.7,8,400,,,
break_continue,html.Screen,4_23_2,2023-09-17T01:04:46.176Z,,0,,,NaN,,,,,,false,,,,224057.79999999702,224057.79999999702,,224057.69999999925,,224065.7,8,400,,,
sequence,flow.Sequence,4_23,2023-09-17T01:04:46.176Z,,0,,,3807.5119999970193,completion,,,,,false,,,,224057.8999999985,224057.79999999702,220215.815,220232,220250.288,224065.7,8,400,,,
trial,html.Screen,4_24_0,2023-09-17T01:04:49.409Z,,0,1,,3225.6999999984982,response,ISIC_0003046.JPG,5,ISIC_0066209.JPG,ISIC_0066209.JPG,false,0,keypress(z),500,227291.5,227291.3999999985,224049.137,224058,224065.7,227299.114,8,400,25,,ISIC_0003046.JPG
break,html.Screen,4_24_1,2023-09-17T01:04:49.410Z,,0,,,NaN,,,,,,false,,,,227291.8999999985,227291.79999999702,,227291.5,,227299.114,8,400,,,
break_continue,html.Screen,4_24_2,2023-09-17T01:04:49.410Z,,0,,,NaN,,,,,,false,,,,227292.09999999776,227292,,227291.8999999985,,227299.114,8,400,,,
sequence,flow.Sequence,4_24,2023-09-17T01:04:49.410Z,,0,,,3226.2999999999884,completion,,,,,false,,,,227292.19999999925,227292,224049.137,224057.8999999985,224065.7,227299.114,8,400,,,
trial,html.Screen,4_25_0,2023-09-17T01:04:54.740Z,,0,1,,5323.0859999992535,response,ISIC_0011733.JPG,5,ISIC_0068677.JPG,ISIC_0011733.JPG,false,1,keypress(m),500,232622.3999999985,232622.19999999925,227282.324,227292.19999999925,227299.114,232632.073,8,400,26,,ISIC_0068677.JPG
break,html.Screen,4_25_1,2023-09-17T01:04:54.741Z,,0,,,NaN,,,,,,false,,,,232622.69999999925,232622.69999999925,,232622.5,,232632.073,8,400,,,
break_continue,html.Screen,4_25_2,2023-09-17T01:04:54.741Z,,0,,,NaN,,,,,,false,,,,232622.8999999985,232622.79999999702,,232622.79999999702,,232632.073,8,400,,,
sequence,flow.Sequence,4_25,2023-09-17T01:04:54.741Z,,0,,,5323.685999997018,completion,,,,,false,,,,232623,232622.79999999702,227282.324,227292.19999999925,227299.114,232632.073,8,400,,,
trial,html.Screen,4_26_0,2023-09-17T01:04:58.654Z,,0,1,,3904.326999998506,response,ISIC_0068100.JPG,5,ISIC_0060091.JPG,ISIC_0060091.JPG,false,0,keypress(z),500,236536.5,236536.3999999985,232615.402,232623,232632.073,236548.656,8,400,27,,ISIC_0068100.JPG
break,html.Screen,4_26_1,2023-09-17T01:04:58.655Z,,0,,,NaN,,,,,,false,,,,236537,236536.8999999985,,236536.59999999776,,236548.656,8,400,,,
break_continue,html.Screen,4_26_2,2023-09-17T01:04:58.655Z,,0,,,NaN,,,,,,false,,,,236537,236537,,236537,,236548.656,8,400,,,
sequence,flow.Sequence,4_26,2023-09-17T01:04:58.655Z,,0,,,3904.926999999996,completion,,,,,false,,,,236537.3999999985,236537,232615.402,232623,232632.073,236548.656,8,400,,,
trial,html.Screen,4_27_0,2023-09-17T01:05:01.796Z,,0,1,,3129.344000000012,response,ISIC_4187485.JPG,4,ISIC_0033787.JPG,ISIC_0033787.JPG,false,0,keypress(z),500,239678.09999999776,239678,236532.024,236537.5,236548.656,239681.87,8,400,28,,ISIC_4187485.JPG
break,html.Screen,4_27_1,2023-09-17T01:05:01.796Z,,0,,,NaN,,,,,,false,,,,239678.59999999776,239678.3999999985,,239678.19999999925,,239681.87,8,400,,,
break_continue,html.Screen,4_27_2,2023-09-17T01:05:01.797Z,,0,,,NaN,,,,,,false,,,,239678.69999999925,239678.59999999776,,239678.59999999776,,239681.87,8,400,,,
sequence,flow.Sequence,4_27,2023-09-17T01:05:01.797Z,,0,,,3129.9439999977767,completion,,,,,false,,,,239678.79999999702,239678.59999999776,236532.024,236537.5,236548.656,239681.87,8,400,,,
trial,html.Screen,4_28_0,2023-09-17T01:05:04.733Z,,0,1,,2933.4299999970244,response,ISIC_8374889.JPG,4,ISIC_0031926.JPG,ISIC_8374889.JPG,false,1,keypress(m),500,242615.29999999702,242615.29999999702,239665.191,239678.79999999702,239681.87,242631.935,8,400,29,,ISIC_0031926.JPG
break,html.Screen,4_28_1,2023-09-17T01:05:04.734Z,,0,,,NaN,,,,,,false,,,,242615.59999999776,242615.59999999776,,242615.3999999985,,242631.935,8,400,,,
break_continue,html.Screen,4_28_2,2023-09-17T01:05:04.734Z,,0,,,NaN,,,,,,false,,,,242615.79999999702,242615.79999999702,,242615.69999999925,,242631.935,8,400,,,
sequence,flow.Sequence,4_28,2023-09-17T01:05:04.734Z,,0,,,2933.9299999970244,completion,,,,,false,,,,242615.8999999985,242615.79999999702,239665.191,239678.79999999702,239681.87,242631.935,8,400,,,
trial,html.Screen,4_29_0,2023-09-17T01:05:08.271Z,,0,1,,3520.864999997022,response,ISIC_8630818.JPG,5,ISIC_0058071.JPG,ISIC_0058071.JPG,false,0,keypress(z),500,246152.8999999985,246152.79999999702,242615.063,242615.8999999985,242631.935,246165.523,8,400,30,,ISIC_8630818.JPG
break,html.Screen,4_29_1,2023-09-17T01:05:08.271Z,,0,,,NaN,,,,,,false,,,,246153.29999999702,246153.19999999925,,246153,,246165.523,8,400,,,
break_continue,html.Screen,4_29_2,2023-09-17T01:05:08.271Z,,0,,,NaN,,,,,,false,,,,246153.3999999985,246153.3999999985,,246153.3999999985,,246165.523,8,400,,,
sequence,flow.Sequence,4_29,2023-09-17T01:05:08.271Z,,0,,,3521.464999998512,completion,,,,,false,,,,246153.5,246153.3999999985,242615.063,242615.8999999985,242631.935,246165.523,8,400,,,
trial,html.Screen,4_30_0,2023-09-17T01:05:11.344Z,,0,1,,3060.7769999970333,response,ISIC_0033444.JPG,5,ISIC_7062293.JPG,ISIC_7062293.JPG,false,0,keypress(z),500,249226.3999999985,249226.29999999702,246148.543,246153.5,246165.523,249231.501,8,400,31,,ISIC_0033444.JPG
break,html.Screen,4_30_1,2023-09-17T01:05:11.345Z,,0,,,NaN,,,,,,false,,,,249226.79999999702,249226.69999999925,,249226.3999999985,,249231.501,8,400,,,
break_continue,html.Screen,4_30_2,2023-09-17T01:05:11.345Z,,0,,,NaN,,,,,,false,,,,249226.8999999985,249226.8999999985,,249226.79999999702,,249231.501,8,400,,,
sequence,flow.Sequence,4_30,2023-09-17T01:05:11.345Z,,0,,,3061.3769999985234,completion,,,,,false,,,,249226.8999999985,249226.8999999985,246148.543,246153.5,246165.523,249231.501,8,400,,,
trial,html.Screen,4_31_0,2023-09-17T01:05:14.483Z,,0,1,,3132.9990000000107,response,ISIC_0066506.JPG,5,ISIC_0026081.JPG,ISIC_0066506.JPG,false,1,keypress(m),500,252364.59999999776,252364.5,249214.503,249227,249231.501,252381.896,8,400,32,,ISIC_0026081.JPG
break,html.Screen,4_31_1,2023-09-17T01:05:14.483Z,,0,,,NaN,,,,,,false,,,,252365.09999999776,252364.8999999985,,252364.69999999925,,252381.896,8,400,,,
break_continue,html.Screen,4_31_2,2023-09-17T01:05:14.483Z,,0,,,NaN,,,,,,false,,,,252365.19999999925,252365.09999999776,,252365.09999999776,,252381.896,8,400,,,
sequence,flow.Sequence,4_31,2023-09-17T01:05:14.483Z,,0,,,3133.5989999977755,completion,,,,,false,,,,252365.19999999925,252365.09999999776,249214.503,249227,249231.501,252381.896,8,400,,,
trial,html.Screen,4_32_0,2023-09-17T01:05:18.997Z,,0,1,,4496.703999997757,response,ISIC_0072642.JPG,5,ISIC_8759207.JPG,ISIC_0072642.JPG,false,1,keypress(m),500,256878.69999999925,256878.59999999776,252364.733,252365.29999999702,252381.896,256881.244,8,400,33,,ISIC_8759207.JPG
break,html.Screen,4_32_1,2023-09-17T01:05:18.997Z,,0,,,NaN,,,,,,false,,,,256879.09999999776,256879,,256878.69999999925,,256881.244,8,400,,,
break_continue,html.Screen,4_32_2,2023-09-17T01:05:18.997Z,,0,,,NaN,,,,,,false,,,,256879.19999999925,256879.19999999925,,256879.09999999776,,256881.244,8,400,,,
sequence,flow.Sequence,4_32,2023-09-17T01:05:18.997Z,,0,,,4497.303999999247,completion,,,,,false,,,,256879.29999999702,256879.19999999925,252364.733,252365.29999999702,252381.896,256881.244,8,400,,,
trial,html.Screen,4_33_0,2023-09-17T01:05:22.829Z,,0,1,,3829.655999998504,response,ISIC_0010240.JPG,6,ISIC_0011984.JPG,ISIC_0010240.JPG,false,1,keypress(m),500,260711,260710.8999999985,256864.551,256879.29999999702,256881.244,260714.493,8,400,34,,ISIC_0011984.JPG
break,html.Screen,4_33_1,2023-09-17T01:05:22.829Z,,0,,,NaN,,,,,,false,,,,260711.5,260711.3999999985,,260711.09999999776,,260714.493,8,400,,,
break_continue,html.Screen,4_33_2,2023-09-17T01:05:22.829Z,,0,,,NaN,,,,,,false,,,,260711.59999999776,260711.59999999776,,260711.5,,260714.493,8,400,,,
sequence,flow.Sequence,4_33,2023-09-17T01:05:22.830Z,,0,,,3830.3559999977588,completion,,,,,false,,,,260711.59999999776,260711.59999999776,256864.551,256879.29999999702,256881.244,260714.493,8,400,,,
trial,html.Screen,4_34_0,2023-09-17T01:05:25.862Z,,0,1,,3029.7069999992673,response,ISIC_9788174.JPG,5,ISIC_8028631.JPG,ISIC_8028631.JPG,false,0,keypress(z),500,263744.299999997,263744.19999999925,260697.787,260711.59999999776,260714.493,263747.693,8,400,35,,ISIC_9788174.JPG
break,html.Screen,4_34_1,2023-09-17T01:05:25.863Z,,0,,,NaN,,,,,,false,,,,263744.59999999776,263744.59999999776,,263744.3999999985,,263747.693,8,400,,,
break_continue,html.Screen,4_34_2,2023-09-17T01:05:25.863Z,,0,,,NaN,,,,,,false,,,,263744.799999997,263744.799999997,,263744.69999999925,,263747.693,8,400,,,
sequence,flow.Sequence,4_34,2023-09-17T01:05:25.863Z,,0,,,3030.306999997032,completion,,,,,false,,,,263744.8999999985,263744.799999997,260697.787,260711.59999999776,260714.493,263747.693,8,400,,,
trial,html.Screen,4_35_0,2023-09-17T01:05:29.593Z,,0,1,,3727.2069999984815,response,ISIC_0032187.JPG,4,ISIC_1543544.JPG,ISIC_0032187.JPG,false,1,keypress(m),500,267475.09999999776,267474.8999999985,263731.099,263744.8999999985,263747.693,267480.883,8,400,36,,ISIC_1543544.JPG
break,html.Screen,4_35_1,2023-09-17T01:05:29.593Z,,0,,,NaN,,,,,,false,,,,267475.5,267475.3999999985,,267475.09999999776,,267480.883,8,400,,,
break_continue,html.Screen,4_35_2,2023-09-17T01:05:29.594Z,,0,,,NaN,,,,,,false,,,,267475.59999999776,267475.59999999776,,267475.5,,267480.883,8,400,,,
sequence,flow.Sequence,4_35,2023-09-17T01:05:29.594Z,,0,,,3727.9069999977364,completion,,,,,false,,,,267475.69999999925,267475.59999999776,263731.099,263744.8999999985,263747.693,267480.883,8,400,,,
trial,html.Screen,4_36_0,2023-09-17T01:05:32.939Z,,0,1,,3340.0169999985374,response,ISIC_0010850.JPG,5,ISIC_1251639.JPG,ISIC_0010850.JPG,false,1,keypress(m),500,270821.09999999776,270820.8999999985,267464.274,267475.799999997,267480.883,270830.776,8,400,37,,ISIC_1251639.JPG
break,html.Screen,4_36_1,2023-09-17T01:05:32.939Z,,0,,,NaN,,,,,,false,,,,270821.3999999985,270821.299999997,,270821.09999999776,,270830.776,8,400,,,
break_continue,html.Screen,4_36_2,2023-09-17T01:05:32.939Z,,0,,,NaN,,,,,,false,,,,270821.59999999776,270821.5,,270821.3999999985,,270830.776,8,400,,,
sequence,flow.Sequence,4_36,2023-09-17T01:05:32.939Z,,0,,,3340.6170000000275,completion,,,,,false,,,,270821.59999999776,270821.5,267464.274,267475.799999997,267480.883,270830.776,8,400,,,
trial,html.Screen,4_37_0,2023-09-17T01:05:36.045Z,,0,1,,3096.2239999999874,response,ISIC_0261253.JPG,5,ISIC_0030085.JPG,ISIC_0261253.JPG,false,1,keypress(m),500,273927.09999999776,273927,270814.07,270821.69999999925,270830.776,273930.668,8,400,38,,ISIC_0030085.JPG
break,html.Screen,4_37_1,2023-09-17T01:05:36.045Z,,0,,,NaN,,,,,,false,,,,273927.5,273927.3999999985,,273927.09999999776,,273930.668,8,400,,,
break_continue,html.Screen,4_37_2,2023-09-17T01:05:36.046Z,,0,,,NaN,,,,,,false,,,,273927.59999999776,273927.59999999776,,273927.59999999776,,273930.668,8,400,,,
sequence,flow.Sequence,4_37,2023-09-17T01:05:36.046Z,,0,,,3096.8239999977523,completion,,,,,false,,,,273927.69999999925,273927.59999999776,270814.07,270821.59999999776,270830.776,273930.668,8,400,,,
trial,html.Screen,4_38_0,2023-09-17T01:05:39.134Z,,0,1,,3085.7319999985048,response,ISIC_2440407.JPG,6,ISIC_0010313.JPG,ISIC_2440407.JPG,false,1,keypress(m),500,277016.5,277016.3999999985,273913.961,273927.799999997,273930.668,277030.575,8,400,39,,ISIC_0010313.JPG
break,html.Screen,4_38_1,2023-09-17T01:05:39.135Z,,0,,,NaN,,,,,,false,,,,277016.8999999985,277016.799999997,,277016.59999999776,,277030.575,8,400,,,
break_continue,html.Screen,4_38_2,2023-09-17T01:05:39.135Z,,0,,,NaN,,,,,,false,,,,277017.09999999776,277017,,277017,,277030.575,8,400,,,
sequence,flow.Sequence,4_38,2023-09-17T01:05:39.135Z,,0,,,3086.331999999995,completion,,,,,false,,,,277017.09999999776,277017,273913.961,273927.799999997,273930.668,277030.575,8,400,,,
trial,html.Screen,4_39_0,2023-09-17T01:05:41.856Z,,0,1,,2707.6249999992433,response,ISIC_5732201.JPG,5,ISIC_0053611.JPG,ISIC_0053611.JPG,false,0,keypress(z),500,279738.299999997,279738.19999999925,277013.963,277017.09999999776,277030.575,279747.207,8,400,40,,ISIC_5732201.JPG
break,html.Screen,4_39_1,2023-09-17T01:05:41.857Z,,0,,,NaN,,,,,,false,,,,279738.69999999925,279738.59999999776,,279738.3999999985,,279747.207,8,400,,,
break_continue,html.Screen,4_39_2,2023-09-17T01:05:41.857Z,,0,,,NaN,,,,,,false,,,,279738.8999999985,279738.799999997,,279738.69999999925,,279747.207,8,400,,,
sequence,flow.Sequence,4_39,2023-09-17T01:05:41.857Z,,0,,,2708.224999997008,completion,,,,,false,,,,279738.8999999985,279738.799999997,277013.963,277017.09999999776,277030.575,279747.207,8,400,,,
trial,html.Screen,4_40_0,2023-09-17T01:05:45.606Z,,0,1,,3740.793000000005,response,ISIC_0063289.JPG,6,ISIC_1929937.JPG,ISIC_0063289.JPG,false,1,keypress(m),500,283488.19999999925,283488,279730.538,279739,279747.207,283497.058,8,400,41,,ISIC_1929937.JPG
break,html.Screen,4_40_1,2023-09-17T01:05:45.606Z,,0,,,NaN,,,,,,false,,,,283488.5,283488.5,,283488.299999997,,283497.058,8,400,,,
break_continue,html.Screen,4_40_2,2023-09-17T01:05:45.607Z,,0,,,NaN,,,,,,false,,,,283488.69999999925,283488.69999999925,,283488.59999999776,,283497.058,8,400,,,
sequence,flow.Sequence,4_40,2023-09-17T01:05:45.607Z,,0,,,3741.49299999926,completion,,,,,false,,,,283488.799999997,283488.69999999925,279730.538,279739,279747.207,283497.058,8,400,,,
trial,html.Screen,4_41_0,2023-09-17T01:05:49.007Z,,0,1,,3392.0419999977457,response,ISIC_0026756.JPG,4,ISIC_5922588.JPG,ISIC_5922588.JPG,false,0,keypress(z),500,286889.19999999925,286889.09999999776,283480.243,283488.799999997,283497.058,286913.646,8,400,42,,ISIC_0026756.JPG
break,html.Screen,4_41_1,2023-09-17T01:05:49.007Z,,0,,,NaN,,,,,,false,,,,286889.59999999776,286889.59999999776,,286889.19999999925,,286913.646,8,400,,,
break_continue,html.Screen,4_41_2,2023-09-17T01:05:49.008Z,,0,,,NaN,,,,,,false,,,,286889.69999999925,286889.69999999925,,286889.59999999776,,286913.646,8,400,,,
sequence,flow.Sequence,4_41,2023-09-17T01:05:49.008Z,,0,,,3392.641999999236,completion,,,,,false,,,,286889.799999997,286889.69999999925,283480.243,283488.799999997,283497.058,286913.646,8,400,,,
trial,html.Screen,4_42_0,2023-09-17T01:05:53.206Z,,0,1,,4174.453999997757,response,ISIC_0014675.JPG,5,ISIC_0024385.JPG,ISIC_0014675.JPG,false,1,keypress(m),500,291088.19999999925,291088.09999999776,286896.976,286889.799999997,286913.646,291096.794,8,400,43,,ISIC_0024385.JPG
break,html.Screen,4_42_1,2023-09-17T01:05:53.207Z,,0,,,NaN,,,,,,false,,,,291088.59999999776,291088.5,,291088.299999997,,291096.794,8,400,,,
break_continue,html.Screen,4_42_2,2023-09-17T01:05:53.207Z,,0,,,NaN,,,,,,false,,,,291088.799999997,291088.69999999925,,291088.69999999925,,291096.794,8,400,,,
sequence,flow.Sequence,4_42,2023-09-17T01:05:53.207Z,,0,,,4175.053999999247,completion,,,,,false,,,,291088.8999999985,291088.69999999925,286896.976,286889.799999997,286913.646,291096.794,8,400,,,
trial,html.Screen,4_43_0,2023-09-17T01:05:56.414Z,,0,1,,3199.6059999985155,response,ISIC_0068727.JPG,5,ISIC_0025956.JPG,ISIC_0068727.JPG,false,1,keypress(m),500,294296.5,294296.3999999985,291080.175,291088.8999999985,291096.794,294330.028,8,400,44,,ISIC_0025956.JPG
break,html.Screen,4_43_1,2023-09-17T01:05:56.415Z,,0,,,NaN,,,,,,false,,,,294296.8999999985,294296.799999997,,294296.5,,294330.028,8,400,,,
break_continue,html.Screen,4_43_2,2023-09-17T01:05:56.415Z,,0,,,NaN,,,,,,false,,,,294297,294296.8999999985,,294296.8999999985,,294330.028,8,400,,,
sequence,flow.Sequence,4_43,2023-09-17T01:05:56.415Z,,0,,,3200.1059999985155,completion,,,,,false,,,,294297,294296.8999999985,291080.175,291088.8999999985,291096.794,294330.028,8,400,,,
trial,html.Screen,4_44_0,2023-09-17T01:05:59.384Z,,0,1,,2935.671999999264,response,ISIC_0028874.JPG,5,ISIC_0034048.JPG,ISIC_0034048.JPG,false,0,keypress(z),500,297265.69999999925,297265.69999999925,294313.377,294297.09999999776,294330.028,297279.962,8,400,45,,ISIC_0028874.JPG
break,html.Screen,4_44_1,2023-09-17T01:05:59.384Z,,0,,,NaN,,,,,,false,,,,297266.19999999925,297266.09999999776,,297265.799999997,,297279.962,8,400,,,
break_continue,html.Screen,4_44_2,2023-09-17T01:05:59.384Z,,0,,,NaN,,,,,,false,,,,297266.299999997,297266.19999999925,,297266.19999999925,,297279.962,8,400,,,
sequence,flow.Sequence,4_44,2023-09-17T01:05:59.384Z,,0,,,2936.171999999264,completion,,,,,false,,,,297266.3999999985,297266.19999999925,294313.377,294297,294330.028,297279.962,8,400,,,
trial,html.Screen,4_45_0,2023-09-17T01:06:02.474Z,,0,1,,3076.2379999992554,response,ISIC_7600621.JPG,6,ISIC_1793624.JPG,ISIC_7600621.JPG,false,1,keypress(m),500,300356.299999997,300356.19999999925,297263.606,297266.5,297279.962,300363.221,8,400,46,,ISIC_1793624.JPG
break,html.Screen,4_45_1,2023-09-17T01:06:02.475Z,,0,,,NaN,,,,,,false,,,,300356.59999999776,300356.59999999776,,300356.299999997,,300363.221,8,400,,,
break_continue,html.Screen,4_45_2,2023-09-17T01:06:02.475Z,,0,,,NaN,,,,,,false,,,,300356.799999997,300356.799999997,,300356.69999999925,,300363.221,8,400,,,
sequence,flow.Sequence,4_45,2023-09-17T01:06:02.475Z,,0,,,3076.8379999970202,completion,,,,,false,,,,300356.799999997,300356.799999997,297263.606,297266.3999999985,297279.962,300363.221,8,400,,,
trial,html.Screen,4_46_0,2023-09-17T01:06:06.000Z,,0,1,,3518.3789999977453,response,ISIC_0010655.JPG,4,ISIC_5377693.JPG,ISIC_0010655.JPG,false,1,keypress(m),500,303881.69999999925,303881.59999999776,300346.401,300356.8999999985,300363.221,303896.366,8,400,47,,ISIC_5377693.JPG
break,html.Screen,4_46_1,2023-09-17T01:06:06.000Z,,0,,,NaN,,,,,,false,,,,303882.09999999776,303882,,303881.799999997,,303896.366,8,400,,,
break_continue,html.Screen,4_46_2,2023-09-17T01:06:06.000Z,,0,,,NaN,,,,,,false,,,,303882.299999997,303882.299999997,,303882.09999999776,,303896.366,8,400,,,
sequence,flow.Sequence,4_46,2023-09-17T01:06:06.000Z,,0,,,3519.078999997,completion,,,,,false,,,,303882.299999997,303882.299999997,300346.401,300356.8999999985,300363.221,303896.366,8,400,,,
trial,html.Screen,4_47_0,2023-09-17T01:06:08.721Z,,0,1,,2706.93399999704,response,ISIC_0572205.JPG,5,ISIC_7416587.JPG,ISIC_7416587.JPG,false,0,keypress(z),500,306603.3999999985,306603.299999997,303879.678,303882.3999999985,303896.366,306612.937,8,400,48,,ISIC_0572205.JPG
break,html.Screen,4_47_1,2023-09-17T01:06:08.722Z,,0,,,NaN,,,,,,false,,,,306603.69999999925,306603.69999999925,,306603.5,,306612.937,8,400,,,
break_continue,html.Screen,4_47_2,2023-09-17T01:06:08.722Z,,0,,,NaN,,,,,,false,,,,306604,306603.8999999985,,306603.799999997,,306612.937,8,400,,,
sequence,flow.Sequence,4_47,2023-09-17T01:06:08.722Z,,0,,,2707.53399999853,completion,,,,,false,,,,306604,306603.8999999985,303879.678,303882.3999999985,303896.366,306612.937,8,400,,,
trial,html.Screen,4_48_0,2023-09-17T01:06:11.560Z,,0,1,,2828.6629999977886,response,ISIC_2200197.JPG,5,ISIC_0319928.JPG,ISIC_2200197.JPG,false,1,keypress(m),500,309441.69999999925,309441.59999999776,306596.247,306604.09999999776,306612.937,309446.162,8,400,49,,ISIC_0319928.JPG
break,html.Screen,4_48_1,2023-09-17T01:06:11.560Z,,0,,,NaN,,,,,,false,,,,309442.19999999925,309442,,309441.799999997,,309446.162,8,400,,,
break_continue,html.Screen,4_48_2,2023-09-17T01:06:11.560Z,,0,,,NaN,,,,,,false,,,,309442.299999997,309442.19999999925,,309442.19999999925,,309446.162,8,400,,,
sequence,flow.Sequence,4_48,2023-09-17T01:06:11.560Z,,0,,,2829.2629999992787,completion,,,,,false,,,,309442.3999999985,309442.19999999925,306596.247,306604,306612.937,309446.162,8,400,,,
trial,html.Screen,4_49_0,2023-09-17T01:06:21.471Z,,0,1,,9907.137999997009,response,ISIC_3012778.JPG,6,ISIC_3067885.JPG,ISIC_3067885.JPG,false,0,keypress(z),500,319353.3999999985,319353.299999997,309429.316,309442.3999999985,309446.162,319379.194,8,400,50,,ISIC_3012778.JPG
break,html.Screen,4_49_1,2023-09-17T01:06:31.480Z,,0,,,9999.65399999998,timeout,,,,,false,,,,329362.3999999985,329362.161,319362.499,319353.3999999985,319379.194,329378.848,8,400,,,
break_continue,html.Screen,4_49_2,2023-09-17T01:07:31.960Z,,0,,,60461.05199999851,response,,,,,false,continue,keypress(Space),,389843.19999999925,389839.8999999985,329362.161,329362.5,329378.848,389860.338,8,400,,,
sequence,flow.Sequence,4_49,2023-09-17T01:07:31.961Z,,0,,,80393.7379999985,completion,,,,,false,,,,389843.19999999925,389839.8999999985,309429.316,309442.3999999985,309446.162,389860.338,8,400,,,
trial,html.Screen,4_50_0,2023-09-17T01:07:36.250Z,,0,2,,4272.162000000011,response,ISIC_0010308.JPG,5,ISIC_8679617.JPG,ISIC_0010308.JPG,false,1,keypress(m),500,394132.59999999776,394132.5,389839.45,389843.299999997,389860.338,394143.833,8,400,1,,ISIC_8679617.JPG
break,html.Screen,4_50_1,2023-09-17T01:07:36.250Z,,0,,,NaN,,,,,,false,,,,394133.09999999776,394133,,394132.69999999925,,394143.833,8,400,,,
break_continue,html.Screen,4_50_2,2023-09-17T01:07:36.251Z,,0,,,NaN,,,,,,false,,,,394133.19999999925,394133.19999999925,,394133.09999999776,,394143.833,8,400,,,
sequence,flow.Sequence,4_50,2023-09-17T01:07:36.251Z,,0,,,4272.861999999266,completion,,,,,false,,,,394133.299999997,394133.19999999925,389839.45,389843.19999999925,389860.338,394143.833,8,400,,,
trial,html.Screen,4_51_0,2023-09-17T01:07:40.834Z,,0,2,,4572.866999999271,response,ISIC_0014527.JPG,5,ISIC_6570611.JPG,ISIC_6570611.JPG,false,0,keypress(z),500,398716.8999999985,398716.69999999925,394126.644,394133.299999997,394143.833,398726.632,8,400,2,,ISIC_0014527.JPG
break,html.Screen,4_51_1,2023-09-17T01:07:40.835Z,,0,,,NaN,,,,,,false,,,,398717.299999997,398717.19999999925,,398717,,398726.632,8,400,,,
break_continue,html.Screen,4_51_2,2023-09-17T01:07:40.835Z,,0,,,NaN,,,,,,false,,,,398717.3999999985,398717.3999999985,,398717.299999997,,398726.632,8,400,,,
sequence,flow.Sequence,4_51,2023-09-17T01:07:40.835Z,,0,,,4573.566999998526,completion,,,,,false,,,,398717.5,398717.3999999985,394126.644,394133.299999997,394143.833,398726.632,8,400,,,
trial,html.Screen,4_52_0,2023-09-17T01:07:44.276Z,,0,2,,3431.6679999970365,response,ISIC_5049165.JPG,5,ISIC_9335652.JPG,ISIC_9335652.JPG,false,0,keypress(z),500,402158.3999999985,402158.299999997,398709.853,398717.5,398726.632,402177.258,8,400,3,,ISIC_5049165.JPG
break,html.Screen,4_52_1,2023-09-17T01:07:44.276Z,,0,,,NaN,,,,,,false,,,,402158.799999997,402158.799999997,,402158.5,,402177.258,8,400,,,
break_continue,html.Screen,4_52_2,2023-09-17T01:07:44.276Z,,0,,,NaN,,,,,,false,,,,402158.8999999985,402158.8999999985,,402158.8999999985,,402177.258,8,400,,,
sequence,flow.Sequence,4_52,2023-09-17T01:07:44.276Z,,0,,,3432.2679999985266,completion,,,,,false,,,,402159,402158.8999999985,398709.853,398717.5,398726.632,402177.258,8,400,,,
trial,html.Screen,4_53_0,2023-09-17T01:07:47.610Z,,0,2,,3315.7420000000275,response,ISIC_0014486.JPG,4,ISIC_0029353.JPG,ISIC_0029353.JPG,false,0,keypress(z),500,405493.19999999925,405493,402143.117,402159.09999999776,402177.258,405509.637,8,400,4,,ISIC_0014486.JPG
break,html.Screen,4_53_1,2023-09-17T01:07:47.611Z,,0,,,NaN,,,,,,false,,,,405493.59999999776,405493.5,,405493.19999999925,,405509.637,8,400,,,
break_continue,html.Screen,4_53_2,2023-09-17T01:07:47.611Z,,0,,,NaN,,,,,,false,,,,405493.69999999925,405493.69999999925,,405493.59999999776,,405509.637,8,400,,,
sequence,flow.Sequence,4_53,2023-09-17T01:07:47.611Z,,0,,,3316.4419999992824,completion,,,,,false,,,,405493.799999997,405493.69999999925,402143.117,402159.09999999776,402177.258,405509.637,8,400,,,
trial,html.Screen,4_54_0,2023-09-17T01:07:50.525Z,,0,2,,2898.262999998522,response,ISIC_0025001.JPG,5,ISIC_7997132.JPG,ISIC_7997132.JPG,false,0,keypress(z),500,408408,408407.8999999985,405492.994,405493.799999997,405509.637,408409.534,8,400,5,,ISIC_0025001.JPG
break,html.Screen,4_54_1,2023-09-17T01:07:50.526Z,,0,,,NaN,,,,,,false,,,,408408.3999999985,408408.299999997,,408408,,408409.534,8,400,,,
break_continue,html.Screen,4_54_2,2023-09-17T01:07:50.526Z,,0,,,NaN,,,,,,false,,,,408408.5,408408.5,,408408.3999999985,,408409.534,8,400,,,
sequence,flow.Sequence,4_54,2023-09-17T01:07:50.526Z,,0,,,2898.863000000012,completion,,,,,false,,,,408408.59999999776,408408.5,405492.994,405493.799999997,405509.637,408409.534,8,400,,,
trial,html.Screen,4_55_0,2023-09-17T01:07:53.199Z,,0,2,,2672.0659999977797,response,ISIC_0011481.JPG,6,ISIC_1220154.JPG,ISIC_1220154.JPG,false,0,keypress(z),500,411081.69999999925,411081.59999999776,408392.877,408408.59999999776,408409.534,411092.795,8,400,6,,ISIC_0011481.JPG
break,html.Screen,4_55_1,2023-09-17T01:07:53.199Z,,0,,,NaN,,,,,,false,,,,411082.09999999776,411082,,411081.799999997,,411092.795,8,400,,,
break_continue,html.Screen,4_55_2,2023-09-17T01:07:53.200Z,,0,,,NaN,,,,,,false,,,,411082.299999997,411082.19999999925,,411082.09999999776,,411092.795,8,400,,,
sequence,flow.Sequence,4_55,2023-09-17T01:07:53.200Z,,0,,,2672.66599999927,completion,,,,,false,,,,411082.299999997,411082.19999999925,408392.877,408408.59999999776,408409.534,411092.795,8,400,,,
trial,html.Screen,4_56_0,2023-09-17T01:07:56.787Z,,0,2,,3576.4049999992712,response,ISIC_0000180.JPG,4,ISIC_5650816.JPG,ISIC_5650816.JPG,false,0,keypress(z),500,414669.299999997,414669.19999999925,411076.129,411082.299999997,411092.795,414676.009,8,400,7,,ISIC_0000180.JPG
break,html.Screen,4_56_1,2023-09-17T01:07:56.787Z,,0,,,NaN,,,,,,false,,,,414669.799999997,414669.59999999776,,414669.3999999985,,414676.009,8,400,,,
break_continue,html.Screen,4_56_2,2023-09-17T01:07:56.787Z,,0,,,NaN,,,,,,false,,,,414669.799999997,414669.799999997,,414669.799999997,,414676.009,8,400,,,
sequence,flow.Sequence,4_56,2023-09-17T01:07:56.787Z,,0,,,3577.004999997036,completion,,,,,false,,,,414669.8999999985,414669.799999997,411076.129,411082.299999997,411092.795,414676.009,8,400,,,
trial,html.Screen,4_57_0,2023-09-17T01:08:01.435Z,,0,2,,4641.89099999849,response,ISIC_2039579.JPG,5,ISIC_2394780.JPG,ISIC_2394780.JPG,false,0,keypress(z),500,419318.09999999776,419317.8999999985,414659.311,414670,414676.009,419325.87,8,400,8,,ISIC_2039579.JPG
break,html.Screen,4_57_1,2023-09-17T01:08:01.436Z,,0,,,NaN,,,,,,false,,,,419318.3999999985,419318.3999999985,,419318.09999999776,,419325.87,8,400,,,
break_continue,html.Screen,4_57_2,2023-09-17T01:08:01.436Z,,0,,,NaN,,,,,,false,,,,419318.59999999776,419318.5,,419318.3999999985,,419325.87,8,400,,,
sequence,flow.Sequence,4_57,2023-09-17T01:08:01.436Z,,0,,,4642.49099999998,completion,,,,,false,,,,419318.59999999776,419318.5,414659.311,414669.8999999985,414676.009,419325.87,8,400,,,
trial,html.Screen,4_58_0,2023-09-17T01:08:04.164Z,,0,2,,2720.6300000000047,response,ISIC_0210282.JPG,5,ISIC_5308066.JPG,ISIC_5308066.JPG,false,0,keypress(z),500,422046.59999999776,422046.5,419309.626,419318.69999999925,419325.87,422059.12,8,400,9,,ISIC_0210282.JPG
break,html.Screen,4_58_1,2023-09-17T01:08:04.164Z,,0,,,NaN,,,,,,false,,,,422047,422046.8999999985,,422046.59999999776,,422059.12,8,400,,,
break_continue,html.Screen,4_58_2,2023-09-17T01:08:04.164Z,,0,,,NaN,,,,,,false,,,,422047.09999999776,422047.09999999776,,422047.09999999776,,422059.12,8,400,,,
sequence,flow.Sequence,4_58,2023-09-17T01:08:04.164Z,,0,,,2721.2299999977695,completion,,,,,false,,,,422047.19999999925,422047.09999999776,419309.626,419318.69999999925,419325.87,422059.12,8,400,,,
trial,html.Screen,4_59_0,2023-09-17T01:08:06.949Z,,0,2,,2772.7799999985145,response,ISIC_0034287.JPG,4,ISIC_8689583.JPG,ISIC_8689583.JPG,false,0,keypress(z),500,424831.8999999985,424831.8999999985,422042.404,422047.19999999925,422059.12,424842.371,8,400,10,,ISIC_0034287.JPG
break,html.Screen,4_59_1,2023-09-17T01:08:06.950Z,,0,,,NaN,,,,,,false,,,,424832.299999997,424832.19999999925,,424832,,424842.371,8,400,,,
break_continue,html.Screen,4_59_2,2023-09-17T01:08:06.950Z,,0,,,NaN,,,,,,false,,,,424832.5,424832.3999999985,,424832.299999997,,424842.371,8,400,,,
sequence,flow.Sequence,4_59,2023-09-17T01:08:06.950Z,,0,,,2773.2799999985145,completion,,,,,false,,,,424832.5,424832.3999999985,422042.404,422047.19999999925,422059.12,424842.371,8,400,,,
trial,html.Screen,4_60_0,2023-09-17T01:08:10.827Z,,0,2,,3867.1290000000154,response,ISIC_7180438.JPG,6,ISIC_9780632.JPG,ISIC_7180438.JPG,false,1,keypress(m),500,428709.59999999776,428709.5,424825.679,424832.59999999776,424842.371,428725.594,8,400,11,,ISIC_9780632.JPG
break,html.Screen,4_60_1,2023-09-17T01:08:10.827Z,,0,,,NaN,,,,,,false,,,,428710,428710,,428709.59999999776,,428725.594,8,400,,,
break_continue,html.Screen,4_60_2,2023-09-17T01:08:10.827Z,,0,,,NaN,,,,,,false,,,,428710.09999999776,428710.09999999776,,428710,,428725.594,8,400,,,
sequence,flow.Sequence,4_60,2023-09-17T01:08:10.827Z,,0,,,3867.72899999778,completion,,,,,false,,,,428710.19999999925,428710.09999999776,424825.679,424832.5,424842.371,428725.594,8,400,,,
trial,html.Screen,4_61_0,2023-09-17T01:08:14.628Z,,0,2,,3784.505999997782,response,ISIC_7526548.JPG,5,ISIC_6507412.JPG,ISIC_7526548.JPG,false,1,keypress(m),500,432510.299999997,432510.09999999776,428709.415,428710.19999999925,428725.594,432525.424,8,400,12,,ISIC_6507412.JPG
break,html.Screen,4_61_1,2023-09-17T01:08:14.628Z,,0,,,NaN,,,,,,false,,,,432510.59999999776,432510.59999999776,,432510.299999997,,432525.424,8,400,,,
break_continue,html.Screen,4_61_2,2023-09-17T01:08:14.628Z,,0,,,NaN,,,,,,false,,,,432510.799999997,432510.69999999925,,432510.59999999776,,432525.424,8,400,,,
sequence,flow.Sequence,4_61,2023-09-17T01:08:14.628Z,,0,,,3785.105999999272,completion,,,,,false,,,,432510.799999997,432510.69999999925,428709.415,428710.19999999925,428725.594,432525.424,8,400,,,
trial,html.Screen,4_62_0,2023-09-17T01:08:18.741Z,,0,2,,4097.975999998511,response,ISIC_0061566.JPG,5,ISIC_0011234.JPG,ISIC_0061566.JPG,false,1,keypress(m),500,436623.3999999985,436623.3999999985,432508.723,432510.799999997,432525.424,436625.262,8,400,13,,ISIC_0011234.JPG
break,html.Screen,4_62_1,2023-09-17T01:08:18.741Z,,0,,,NaN,,,,,,false,,,,436623.8999999985,436623.799999997,,436623.5,,436625.262,8,400,,,
break_continue,html.Screen,4_62_2,2023-09-17T01:08:18.741Z,,0,,,NaN,,,,,,false,,,,436624,436623.8999999985,,436623.8999999985,,436625.262,8,400,,,
sequence,flow.Sequence,4_62,2023-09-17T01:08:18.741Z,,0,,,4098.475999998511,completion,,,,,false,,,,436624,436623.8999999985,432508.723,432510.799999997,432525.424,436625.262,8,400,,,
trial,html.Screen,4_63_0,2023-09-17T01:08:21.740Z,,0,2,,2997.137999998522,response,ISIC_1260545.JPG,5,ISIC_7400458.JPG,ISIC_1260545.JPG,false,1,keypress(m),500,439622.59999999776,439622.3999999985,436608.581,436624.09999999776,436625.262,439625.179,8,400,14,,ISIC_7400458.JPG
break,html.Screen,4_63_1,2023-09-17T01:08:21.740Z,,0,,,NaN,,,,,,false,,,,439623,439622.8999999985,,439622.59999999776,,439625.179,8,400,,,
break_continue,html.Screen,4_63_2,2023-09-17T01:08:21.740Z,,0,,,NaN,,,,,,false,,,,439623.09999999776,439623.09999999776,,439623,,439625.179,8,400,,,
sequence,flow.Sequence,4_63,2023-09-17T01:08:21.740Z,,0,,,2997.837999997777,completion,,,,,false,,,,439623.19999999925,439623.09999999776,436608.581,436624,436625.262,439625.179,8,400,,,
trial,html.Screen,4_64_0,2023-09-17T01:08:24.452Z,,0,2,,2709.420999997761,response,ISIC_0032258.JPG,5,ISIC_4055361.JPG,ISIC_4055361.JPG,false,0,keypress(z),500,442334.69999999925,442334.59999999776,439608.939,439623.19999999925,439625.179,442341.757,8,400,15,,ISIC_0032258.JPG
break,html.Screen,4_64_1,2023-09-17T01:08:24.452Z,,0,,,NaN,,,,,,false,,,,442335.09999999776,442335,,442334.799999997,,442341.757,8,400,,,
break_continue,html.Screen,4_64_2,2023-09-17T01:08:24.453Z,,0,,,NaN,,,,,,false,,,,442335.299999997,442335.19999999925,,442335.09999999776,,442341.757,8,400,,,
sequence,flow.Sequence,4_64,2023-09-17T01:08:24.453Z,,0,,,2710.020999999251,completion,,,,,false,,,,442335.299999997,442335.19999999925,439608.939,439623.19999999925,439625.179,442341.757,8,400,,,
trial,html.Screen,4_65_0,2023-09-17T01:08:27.685Z,,0,2,,3226.3429999977816,response,ISIC_5355302.JPG,4,ISIC_4079108.JPG,ISIC_4079108.JPG,false,0,keypress(z),500,445568.19999999925,445568.09999999776,442325.053,442335.3999999985,442341.757,445575.023,8,400,16,,ISIC_5355302.JPG
break,html.Screen,4_65_1,2023-09-17T01:08:27.686Z,,0,,,NaN,,,,,,false,,,,445568.59999999776,445568.59999999776,,445568.299999997,,445575.023,8,400,,,
break_continue,html.Screen,4_65_2,2023-09-17T01:08:27.686Z,,0,,,NaN,,,,,,false,,,,445568.799999997,445568.69999999925,,445568.69999999925,,445575.023,8,400,,,
sequence,flow.Sequence,4_65,2023-09-17T01:08:27.686Z,,0,,,3226.9429999992717,completion,,,,,false,,,,445568.799999997,445568.69999999925,442325.053,442335.3999999985,442341.757,445575.023,8,400,,,
trial,html.Screen,4_66_0,2023-09-17T01:08:30.332Z,,0,2,,2639.5769999977783,response,ISIC_3503302.JPG,6,ISIC_2283628.JPG,ISIC_2283628.JPG,false,0,keypress(z),500,448214.799999997,448214.59999999776,445558.525,445568.799999997,445575.023,448224.889,8,400,17,,ISIC_3503302.JPG
break,html.Screen,4_66_1,2023-09-17T01:08:30.332Z,,0,,,NaN,,,,,,false,,,,448215.09999999776,448215,,448214.799999997,,448224.889,8,400,,,
break_continue,html.Screen,4_66_2,2023-09-17T01:08:30.333Z,,0,,,NaN,,,,,,false,,,,448215.19999999925,448215.19999999925,,448215.09999999776,,448224.889,8,400,,,
sequence,flow.Sequence,4_66,2023-09-17T01:08:30.333Z,,0,,,2640.1769999992684,completion,,,,,false,,,,448215.299999997,448215.19999999925,445558.525,445568.799999997,445575.023,448224.889,8,400,,,
trial,html.Screen,4_67_0,2023-09-17T01:08:33.486Z,,0,2,,3143.1109999999753,response,ISIC_0014987.JPG,5,ISIC_1048913.JPG,ISIC_0014987.JPG,false,1,keypress(m),500,451368,451368,448208.64,448215.3999999985,448224.889,451374.878,8,400,18,,ISIC_1048913.JPG
break,html.Screen,4_67_1,2023-09-17T01:08:33.486Z,,0,,,NaN,,,,,,false,,,,451368.3999999985,451368.3999999985,,451368.09999999776,,451374.878,8,400,,,
break_continue,html.Screen,4_67_2,2023-09-17T01:08:33.486Z,,0,,,NaN,,,,,,false,,,,451368.5,451368.5,,451368.5,,451374.878,8,400,,,
sequence,flow.Sequence,4_67,2023-09-17T01:08:33.487Z,,0,,,3143.6109999999753,completion,,,,,false,,,,451368.59999999776,451368.5,448208.64,448215.3999999985,448224.889,451374.878,8,400,,,
trial,html.Screen,4_68_0,2023-09-17T01:08:36.640Z,,0,2,,3147.021999998484,response,ISIC_4697037.JPG,6,ISIC_4780541.JPG,ISIC_4780541.JPG,false,0,keypress(z),500,454522,454521.8999999985,451358.1,451368.59999999776,451374.878,454524.737,8,400,19,,ISIC_4697037.JPG
break,html.Screen,4_68_1,2023-09-17T01:08:36.640Z,,0,,,NaN,,,,,,false,,,,454522.3999999985,454522.299999997,,454522.09999999776,,454524.737,8,400,,,
break_continue,html.Screen,4_68_2,2023-09-17T01:08:36.640Z,,0,,,NaN,,,,,,false,,,,454522.5,454522.5,,454522.5,,454524.737,8,400,,,
sequence,flow.Sequence,4_68,2023-09-17T01:08:36.641Z,,0,,,3147.621999999974,completion,,,,,false,,,,454522.59999999776,454522.5,451358.1,451368.59999999776,451374.878,454524.737,8,400,,,
trial,html.Screen,4_69_0,2023-09-17T01:08:43.970Z,,0,2,,7326.862999997742,response,ISIC_0004679.JPG,5,ISIC_5324623.JPG,ISIC_5324623.JPG,false,0,keypress(z),500,461851.799999997,461851.59999999776,454508.017,454522.69999999925,454524.737,461857.774,8,400,20,,ISIC_0004679.JPG
break,html.Screen,4_69_1,2023-09-17T01:08:43.970Z,,0,,,NaN,,,,,,false,,,,461852.19999999925,461852.09999999776,,461851.799999997,,461857.774,8,400,,,
break_continue,html.Screen,4_69_2,2023-09-17T01:08:43.970Z,,0,,,NaN,,,,,,false,,,,461852.19999999925,461852.19999999925,,461852.19999999925,,461857.774,8,400,,,
sequence,flow.Sequence,4_69,2023-09-17T01:08:43.970Z,,0,,,7327.462999999232,completion,,,,,false,,,,461852.299999997,461852.19999999925,454508.017,454522.69999999925,454524.737,461857.774,8,400,,,
trial,html.Screen,4_70_0,2023-09-17T01:08:46.707Z,,0,2,,2731.325999997789,response,ISIC_0000866.JPG,5,ISIC_0029729.JPG,ISIC_0029729.JPG,false,0,keypress(z),500,464589.19999999925,464589.09999999776,461841.087,461852.3999999985,461857.774,464591.033,8,400,21,,ISIC_0000866.JPG
break,html.Screen,4_70_1,2023-09-17T01:08:46.708Z,,0,,,NaN,,,,,,false,,,,464589.59999999776,464589.5,,464589.299999997,,464591.033,8,400,,,
break_continue,html.Screen,4_70_2,2023-09-17T01:08:46.708Z,,0,,,NaN,,,,,,false,,,,464589.69999999925,464589.69999999925,,464589.69999999925,,464591.033,8,400,,,
sequence,flow.Sequence,4_70,2023-09-17T01:08:46.708Z,,0,,,2731.925999999279,completion,,,,,false,,,,464589.799999997,464589.69999999925,461841.087,461852.3999999985,461857.774,464591.033,8,400,,,
trial,html.Screen,4_71_0,2023-09-17T01:08:50.085Z,,0,2,,3375.967000000004,response,ISIC_0439726.JPG,5,ISIC_0010514.JPG,ISIC_0010514.JPG,false,0,keypress(z),500,467967.09999999776,467967,464574.787,464589.8999999985,464591.033,467974.247,8,400,22,,ISIC_0439726.JPG
break,html.Screen,4_71_1,2023-09-17T01:08:50.085Z,,0,,,NaN,,,,,,false,,,,467967.5,467967.5,,467967.19999999925,,467974.247,8,400,,,
break_continue,html.Screen,4_71_2,2023-09-17T01:08:50.086Z,,0,,,NaN,,,,,,false,,,,467967.59999999776,467967.59999999776,,467967.59999999776,,467974.247,8,400,,,
sequence,flow.Sequence,4_71,2023-09-17T01:08:50.086Z,,0,,,3376.566999997769,completion,,,,,false,,,,467967.69999999925,467967.59999999776,464574.787,464589.799999997,464591.033,467974.247,8,400,,,
trial,html.Screen,4_72_0,2023-09-17T01:08:53.934Z,,0,2,,3841.552999997046,response,ISIC_6188574.JPG,4,ISIC_4425766.JPG,ISIC_4425766.JPG,false,0,keypress(z),500,471815.8999999985,471815.799999997,467957.732,467967.799999997,467974.247,471840.769,8,400,23,,ISIC_6188574.JPG
break,html.Screen,4_72_1,2023-09-17T01:08:53.934Z,,0,,,NaN,,,,,,false,,,,471816.19999999925,471816.19999999925,,471816,,471840.769,8,400,,,
break_continue,html.Screen,4_72_2,2023-09-17T01:08:53.934Z,,0,,,NaN,,,,,,false,,,,471816.299999997,471816.299999997,,471816.299999997,,471840.769,8,400,,,
sequence,flow.Sequence,4_72,2023-09-17T01:08:53.934Z,,0,,,3842.052999997046,completion,,,,,false,,,,471816.5,471816.299999997,467957.732,467967.799999997,467974.247,471840.769,8,400,,,
trial,html.Screen,4_73_0,2023-09-17T01:08:57.439Z,,0,2,,3480.0309999970486,response,ISIC_1234463.JPG,4,ISIC_0030873.JPG,ISIC_0030873.JPG,false,0,keypress(z),500,475320.8999999985,475320.799999997,471824.118,471816.5,471840.769,475323.978,8,400,24,,ISIC_1234463.JPG
break,html.Screen,4_73_1,2023-09-17T01:08:57.439Z,,0,,,NaN,,,,,,false,,,,475321.299999997,475321.19999999925,,475321,,475323.978,8,400,,,
break_continue,html.Screen,4_73_2,2023-09-17T01:08:57.439Z,,0,,,NaN,,,,,,false,,,,475321.5,475321.5,,475321.299999997,,475323.978,8,400,,,
sequence,flow.Sequence,4_73,2023-09-17T01:08:57.439Z,,0,,,3480.731000000029,completion,,,,,false,,,,475321.5,475321.5,471824.118,471816.5,471840.769,475323.978,8,400,,,
trial,html.Screen,4_74_0,2023-09-17T01:09:01.014Z,,0,2,,3571.921999998507,response,ISIC_0000026.JPG,5,ISIC_0065537.JPG,ISIC_0065537.JPG,false,0,keypress(z),500,478896.09999999776,478895.8999999985,475307.247,475321.59999999776,475323.978,478907.194,8,400,25,,ISIC_0000026.JPG
break,html.Screen,4_74_1,2023-09-17T01:09:01.014Z,,0,,,NaN,,,,,,false,,,,478896.5,478896.3999999985,,478896.19999999925,,478907.194,8,400,,,
break_continue,html.Screen,4_74_2,2023-09-17T01:09:01.015Z,,0,,,NaN,,,,,,false,,,,478896.59999999776,478896.59999999776,,478896.5,,478907.194,8,400,,,
sequence,flow.Sequence,4_74,2023-09-17T01:09:01.015Z,,0,,,3572.621999997762,completion,,,,,false,,,,478896.59999999776,478896.59999999776,475307.247,475321.5,475323.978,478907.194,8,400,,,
trial,html.Screen,4_75_0,2023-09-17T01:09:04.105Z,,0,2,,3079.5059999992372,response,ISIC_6260086.JPG,4,ISIC_9049170.JPG,ISIC_9049170.JPG,false,0,keypress(z),500,481986.799999997,481986.69999999925,478890.47,478896.69999999925,478907.194,481990.425,8,400,26,,ISIC_6260086.JPG
break,html.Screen,4_75_1,2023-09-17T01:09:04.105Z,,0,,,NaN,,,,,,false,,,,481987.5,481987.3999999985,,481986.799999997,,481990.425,8,400,,,
break_continue,html.Screen,4_75_2,2023-09-17T01:09:04.106Z,,0,,,NaN,,,,,,false,,,,481987.59999999776,481987.59999999776,,481987.5,,481990.425,8,400,,,
sequence,flow.Sequence,4_75,2023-09-17T01:09:04.106Z,,0,,,3080.405999997747,completion,,,,,false,,,,481987.69999999925,481987.59999999776,478890.47,478896.59999999776,478907.194,481990.425,8,400,,,
trial,html.Screen,4_76_0,2023-09-17T01:09:07.819Z,,0,2,,3710.3749999970314,response,ISIC_5202231.JPG,6,ISIC_0029433.JPG,ISIC_5202231.JPG,false,1,keypress(m),500,485700.8999999985,485700.799999997,481973.735,481987.69999999925,481990.425,485706.97,8,400,27,,ISIC_0029433.JPG
break,html.Screen,4_76_1,2023-09-17T01:09:07.819Z,,0,,,NaN,,,,,,false,,,,485701.19999999925,485701.09999999776,,485700.8999999985,,485706.97,8,400,,,
break_continue,html.Screen,4_76_2,2023-09-17T01:09:07.819Z,,0,,,NaN,,,,,,false,,,,485701.3999999985,485701.3999999985,,485701.19999999925,,485706.97,8,400,,,
sequence,flow.Sequence,4_76,2023-09-17T01:09:07.819Z,,0,,,3710.9749999985215,completion,,,,,false,,,,485701.3999999985,485701.3999999985,481973.735,481987.69999999925,481990.425,485706.97,8,400,,,
trial,html.Screen,4_77_0,2023-09-17T01:09:11.214Z,,0,2,,3388.8299999970477,response,ISIC_0066412.JPG,4,ISIC_0033805.JPG,ISIC_0066412.JPG,false,1,keypress(m),500,489096,489095.799999997,485690.267,485701.3999999985,485706.97,489106.855,8,400,28,,ISIC_0033805.JPG
break,html.Screen,4_77_1,2023-09-17T01:09:11.214Z,,0,,,NaN,,,,,,false,,,,489096.299999997,489096.19999999925,,489096,,489106.855,8,400,,,
break_continue,html.Screen,4_77_2,2023-09-17T01:09:11.214Z,,0,,,NaN,,,,,,false,,,,489096.3999999985,489096.3999999985,,489096.299999997,,489106.855,8,400,,,
sequence,flow.Sequence,4_77,2023-09-17T01:09:11.214Z,,0,,,3389.429999998538,completion,,,,,false,,,,489096.5,489096.3999999985,485690.267,485701.3999999985,485706.97,489106.855,8,400,,,
trial,html.Screen,4_78_0,2023-09-17T01:09:13.967Z,,0,2,,2742.2449999977835,response,ISIC_1308649.JPG,4,ISIC_2372468.JPG,ISIC_2372468.JPG,false,0,keypress(z),500,491849.19999999925,491849.09999999776,489090.133,489096.5,489106.855,491873.421,8,400,29,,ISIC_1308649.JPG
break,html.Screen,4_78_1,2023-09-17T01:09:13.967Z,,0,,,NaN,,,,,,false,,,,491849.59999999776,491849.3999999985,,491849.299999997,,491873.421,8,400,,,
break_continue,html.Screen,4_78_2,2023-09-17T01:09:13.968Z,,0,,,NaN,,,,,,false,,,,491849.69999999925,491849.69999999925,,491849.59999999776,,491873.421,8,400,,,
sequence,flow.Sequence,4_78,2023-09-17T01:09:13.968Z,,0,,,2742.8449999992736,completion,,,,,false,,,,491849.69999999925,491849.69999999925,489090.133,489096.5,489106.855,491873.421,8,400,,,
trial,html.Screen,4_79_0,2023-09-17T01:09:17.409Z,,0,2,,3417.278999999282,response,ISIC_6805527.JPG,6,ISIC_0069908.JPG,ISIC_6805527.JPG,false,1,keypress(m),500,495290.8999999985,495290.69999999925,491856.756,491849.799999997,491873.421,495306.672,8,400,30,,ISIC_0069908.JPG
break,html.Screen,4_79_1,2023-09-17T01:09:17.409Z,,0,,,NaN,,,,,,false,,,,495291.299999997,495291.19999999925,,495290.8999999985,,495306.672,8,400,,,
break_continue,html.Screen,4_79_2,2023-09-17T01:09:17.409Z,,0,,,NaN,,,,,,false,,,,495291.299999997,495291.299999997,,495291.299999997,,495306.672,8,400,,,
sequence,flow.Sequence,4_79,2023-09-17T01:09:17.409Z,,0,,,3417.878999997047,completion,,,,,false,,,,495291.3999999985,495291.299999997,491856.756,491849.69999999925,491873.421,495306.672,8,400,,,
trial,html.Screen,4_80_0,2023-09-17T01:09:20.247Z,,0,2,,2821.8279999999795,response,ISIC_5707761.JPG,5,ISIC_0027306.JPG,ISIC_5707761.JPG,false,1,keypress(m),500,498128.59999999776,498128.5,495289.952,495291.3999999985,495306.672,498140.105,8,400,31,,ISIC_0027306.JPG
break,html.Screen,4_80_1,2023-09-17T01:09:20.247Z,,0,,,NaN,,,,,,false,,,,498129,498129,,498128.69999999925,,498140.105,8,400,,,
break_continue,html.Screen,4_80_2,2023-09-17T01:09:20.247Z,,0,,,NaN,,,,,,false,,,,498129.19999999925,498129.19999999925,,498129,,498140.105,8,400,,,
sequence,flow.Sequence,4_80,2023-09-17T01:09:20.247Z,,0,,,2822.5279999992345,completion,,,,,false,,,,498129.19999999925,498129.19999999925,495289.952,495291.3999999985,495306.672,498140.105,8,400,,,
trial,html.Screen,4_81_0,2023-09-17T01:09:23.545Z,,0,2,,3286.8950000000186,response,ISIC_2513933.JPG,6,ISIC_0010241.JPG,ISIC_2513933.JPG,false,1,keypress(m),500,501427.09999999776,501427,498123.195,498129.299999997,498140.105,501440.041,8,400,32,,ISIC_0010241.JPG
break,html.Screen,4_81_1,2023-09-17T01:09:23.545Z,,0,,,NaN,,,,,,false,,,,501427.3999999985,501427.3999999985,,501427.19999999925,,501440.041,8,400,,,
break_continue,html.Screen,4_81_2,2023-09-17T01:09:23.546Z,,0,,,NaN,,,,,,false,,,,501427.59999999776,501427.5,,501427.5,,501440.041,8,400,,,
sequence,flow.Sequence,4_81,2023-09-17T01:09:23.546Z,,0,,,3287.3950000000186,completion,,,,,false,,,,501427.59999999776,501427.5,498123.195,498129.299999997,498140.105,501440.041,8,400,,,
trial,html.Screen,4_82_0,2023-09-17T01:09:26.815Z,,0,2,,3256.6589999992284,response,ISIC_2438917.JPG,5,ISIC_6588853.JPG,ISIC_2438917.JPG,false,1,keypress(m),500,504696.799999997,504696.69999999925,501422.98,501427.69999999925,501440.041,504706.334,8,400,33,,ISIC_6588853.JPG
break,html.Screen,4_82_1,2023-09-17T01:09:26.815Z,,0,,,NaN,,,,,,false,,,,504697.19999999925,504697.19999999925,,504696.8999999985,,504706.334,8,400,,,
break_continue,html.Screen,4_82_2,2023-09-17T01:09:26.815Z,,0,,,NaN,,,,,,false,,,,504697.3999999985,504697.299999997,,504697.19999999925,,504706.334,8,400,,,
sequence,flow.Sequence,4_82,2023-09-17T01:09:26.815Z,,0,,,3257.258999996993,completion,,,,,false,,,,504697.3999999985,504697.299999997,501422.98,501427.59999999776,501440.041,504706.334,8,400,,,
trial,html.Screen,4_83_0,2023-09-17T01:09:30.337Z,,0,2,,3512.2659999977914,response,ISIC_8979567.JPG,4,ISIC_7555812.JPG,ISIC_8979567.JPG,false,1,keypress(m),500,508218.59999999776,508218.59999999776,504689.619,504697.3999999985,504706.334,508222.891,8,400,34,,ISIC_7555812.JPG
break,html.Screen,4_83_1,2023-09-17T01:09:30.337Z,,0,,,NaN,,,,,,false,,,,508219,508218.8999999985,,508218.59999999776,,508222.891,8,400,,,
break_continue,html.Screen,4_83_2,2023-09-17T01:09:30.337Z,,0,,,NaN,,,,,,false,,,,508219.09999999776,508219.09999999776,,508219.09999999776,,508222.891,8,400,,,
sequence,flow.Sequence,4_83,2023-09-17T01:09:30.337Z,,0,,,3512.7659999977914,completion,,,,,false,,,,508219.19999999925,508219.09999999776,504689.619,504697.3999999985,504706.334,508222.891,8,400,,,
trial,html.Screen,4_84_0,2023-09-17T01:09:34.226Z,,0,2,,3885.3089999992517,response,ISIC_0027620.JPG,5,ISIC_7503950.JPG,ISIC_0027620.JPG,false,1,keypress(m),500,512108.3999999985,512108.19999999925,508206.217,508219.299999997,508222.891,512122.993,8,400,35,,ISIC_7503950.JPG
break,html.Screen,4_84_1,2023-09-17T01:09:34.227Z,,0,,,NaN,,,,,,false,,,,512108.799999997,512108.69999999925,,512108.3999999985,,512122.993,8,400,,,
break_continue,html.Screen,4_84_2,2023-09-17T01:09:34.227Z,,0,,,NaN,,,,,,false,,,,512108.799999997,512108.799999997,,512108.799999997,,512122.993,8,400,,,
sequence,flow.Sequence,4_84,2023-09-17T01:09:34.227Z,,0,,,3885.9089999970165,completion,,,,,false,,,,512108.8999999985,512108.799999997,508206.217,508219.19999999925,508222.891,512122.993,8,400,,,
trial,html.Screen,4_85_0,2023-09-17T01:09:38.680Z,,0,2,,4438.606999997748,response,ISIC_0025592.JPG,5,ISIC_0028800.JPG,ISIC_0028800.JPG,false,0,keypress(z),500,516561.69999999925,516561.59999999776,512106.205,512109,512122.993,516573.093,8,400,36,,ISIC_0025592.JPG
break,html.Screen,4_85_1,2023-09-17T01:09:38.680Z,,0,,,NaN,,,,,,false,,,,516562.09999999776,516562,,516561.799999997,,516573.093,8,400,,,
break_continue,html.Screen,4_85_2,2023-09-17T01:09:38.680Z,,0,,,NaN,,,,,,false,,,,516562.299999997,516562.299999997,,516562.09999999776,,516573.093,8,400,,,
sequence,flow.Sequence,4_85,2023-09-17T01:09:38.680Z,,0,,,4439.306999997003,completion,,,,,false,,,,516562.299999997,516562.299999997,512106.205,512109,512122.993,516573.093,8,400,,,
trial,html.Screen,4_86_0,2023-09-17T01:09:41.897Z,,0,2,,3205.8069999985164,response,ISIC_0000424.JPG,5,ISIC_1470245.JPG,ISIC_0000424.JPG,false,1,keypress(m),500,519779,519778.8999999985,516555.816,516562.299999997,516573.093,519789.216,8,400,37,,ISIC_1470245.JPG
break,html.Screen,4_86_1,2023-09-17T01:09:41.897Z,,0,,,NaN,,,,,,false,,,,519779.3999999985,519779.299999997,,519779,,519789.216,8,400,,,
break_continue,html.Screen,4_86_2,2023-09-17T01:09:41.897Z,,0,,,NaN,,,,,,false,,,,519779.5,519779.5,,519779.3999999985,,519789.216,8,400,,,
sequence,flow.Sequence,4_86,2023-09-17T01:09:41.897Z,,0,,,3206.4070000000065,completion,,,,,false,,,,519779.5,519779.5,516555.816,516562.299999997,516573.093,519789.216,8,400,,,
trial,html.Screen,4_87_0,2023-09-17T01:09:45.055Z,,0,2,,3147.683999998495,response,ISIC_6324832.JPG,4,ISIC_8297563.JPG,ISIC_6324832.JPG,false,1,keypress(m),500,522937.09999999776,522936.8999999985,519772.502,519779.5,519789.216,522939.065,8,400,38,,ISIC_8297563.JPG
break,html.Screen,4_87_1,2023-09-17T01:09:45.055Z,,0,,,NaN,,,,,,false,,,,522937.3999999985,522937.3999999985,,522937.09999999776,,522939.065,8,400,,,
break_continue,html.Screen,4_87_2,2023-09-17T01:09:45.056Z,,0,,,NaN,,,,,,false,,,,522937.59999999776,522937.59999999776,,522937.5,,522939.065,8,400,,,
sequence,flow.Sequence,4_87,2023-09-17T01:09:45.056Z,,0,,,3148.38399999775,completion,,,,,false,,,,522937.69999999925,522937.59999999776,519772.502,519779.5,519789.216,522939.065,8,400,,,
trial,html.Screen,4_88_0,2023-09-17T01:09:48.817Z,,0,2,,3759.7349999970174,response,ISIC_3545622.JPG,5,ISIC_6777714.JPG,ISIC_6777714.JPG,false,0,keypress(z),500,526698.8999999985,526698.799999997,522922.369,522937.69999999925,522939.065,526705.652,8,400,39,,ISIC_3545622.JPG
break,html.Screen,4_88_1,2023-09-17T01:09:48.817Z,,0,,,NaN,,,,,,false,,,,526699.299999997,526699.1999999993,,526698.8999999985,,526705.652,8,400,,,
break_continue,html.Screen,4_88_2,2023-09-17T01:09:48.817Z,,0,,,NaN,,,,,,false,,,,526699.5,526699.3999999985,,526699.3999999985,,526705.652,8,400,,,
sequence,flow.Sequence,4_88,2023-09-17T01:09:48.817Z,,0,,,3760.3349999985076,completion,,,,,false,,,,526699.5,526699.3999999985,522922.369,522937.69999999925,522939.065,526705.652,8,400,,,
trial,html.Screen,4_89_0,2023-09-17T01:09:52.115Z,,0,2,,3291.147999997018,response,ISIC_6536232.JPG,5,ISIC_1870309.JPG,ISIC_1870309.JPG,false,0,keypress(z),500,529996.8999999985,529996.799999997,526688.963,526699.5,526705.652,530005.515,8,400,40,,ISIC_6536232.JPG
break,html.Screen,4_89_1,2023-09-17T01:09:52.115Z,,0,,,NaN,,,,,,false,,,,529997.299999997,529997.1999999993,,529997,,530005.515,8,400,,,
break_continue,html.Screen,4_89_2,2023-09-17T01:09:52.115Z,,0,,,NaN,,,,,,false,,,,529997.5,529997.3999999985,,529997.299999997,,530005.515,8,400,,,
sequence,flow.Sequence,4_89,2023-09-17T01:09:52.115Z,,0,,,3291.747999998508,completion,,,,,false,,,,529997.5,529997.3999999985,526688.963,526699.5,526705.652,530005.515,8,400,,,
trial,html.Screen,4_90_0,2023-09-17T01:10:00.425Z,,0,2,,8301.08499999775,response,ISIC_0058781.JPG,5,ISIC_0010532.JPG,ISIC_0058781.JPG,false,1,keypress(m),500,538306.799999997,538306.5999999978,529988.828,529997.5,530005.515,538322.369,8,400,41,,ISIC_0010532.JPG
break,html.Screen,4_90_1,2023-09-17T01:10:00.425Z,,0,,,NaN,,,,,,false,,,,538307.1999999993,538307,,538306.799999997,,538322.369,8,400,,,
break_continue,html.Screen,4_90_2,2023-09-17T01:10:00.425Z,,0,,,NaN,,,,,,false,,,,538307.1999999993,538307.1999999993,,538307.1999999993,,538322.369,8,400,,,
sequence,flow.Sequence,4_90,2023-09-17T01:10:00.425Z,,0,,,8301.684999999241,completion,,,,,false,,,,538307.1999999993,538307.1999999993,529988.828,529997.5,530005.515,538322.369,8,400,,,
trial,html.Screen,4_91_0,2023-09-17T01:10:03.634Z,,0,2,,3193.230999997817,response,ISIC_0062162.JPG,5,ISIC_4921413.JPG,ISIC_4921413.JPG,false,0,keypress(z),500,541515.799999997,541515.5999999978,538305.281,538307.299999997,538322.369,541521.807,8,400,42,,ISIC_0062162.JPG
break,html.Screen,4_91_1,2023-09-17T01:10:03.634Z,,0,,,NaN,,,,,,false,,,,541516.0999999978,541516,,541515.799999997,,541521.807,8,400,,,
break_continue,html.Screen,4_91_2,2023-09-17T01:10:03.634Z,,0,,,NaN,,,,,,false,,,,541516.299999997,541516.299999997,,541516.1999999993,,541521.807,8,400,,,
sequence,flow.Sequence,4_91,2023-09-17T01:10:03.634Z,,0,,,3193.930999997072,completion,,,,,false,,,,541516.299999997,541516.299999997,538305.281,538307.299999997,538322.369,541521.807,8,400,,,
trial,html.Screen,4_92_0,2023-09-17T01:10:06.899Z,,0,2,,3258.892999999225,response,ISIC_6450034.JPG,6,ISIC_3984167.JPG,ISIC_3984167.JPG,false,0,keypress(z),500,544780.799999997,544780.6999999993,541505.14,541516.299999997,541521.807,544788.333,8,400,43,,ISIC_6450034.JPG
break,html.Screen,4_92_1,2023-09-17T01:10:06.899Z,,0,,,NaN,,,,,,false,,,,544781.1999999993,544781.1999999993,,544780.8999999985,,544788.333,8,400,,,
break_continue,html.Screen,4_92_2,2023-09-17T01:10:06.899Z,,0,,,NaN,,,,,,false,,,,544781.3999999985,544781.3999999985,,544781.299999997,,544788.333,8,400,,,
sequence,flow.Sequence,4_92,2023-09-17T01:10:06.899Z,,0,,,3259.59299999848,completion,,,,,false,,,,544781.3999999985,544781.3999999985,541505.14,541516.299999997,541521.807,544788.333,8,400,,,
trial,html.Screen,4_93_0,2023-09-17T01:10:10.244Z,,0,2,,3338.167000000016,response,ISIC_8978290.JPG,5,ISIC_2732573.JPG,ISIC_8978290.JPG,false,1,keypress(m),500,548126.5,548126.5,544771.73,544781.3999999985,544788.333,548138.255,8,400,44,,ISIC_2732573.JPG
break,html.Screen,4_93_1,2023-09-17T01:10:10.245Z,,0,,,NaN,,,,,,false,,,,548126.8999999985,548126.799999997,,548126.5999999978,,548138.255,8,400,,,
break_continue,html.Screen,4_93_2,2023-09-17T01:10:10.245Z,,0,,,NaN,,,,,,false,,,,548127.0999999978,548127,,548126.8999999985,,548138.255,8,400,,,
sequence,flow.Sequence,4_93,2023-09-17T01:10:10.245Z,,0,,,3338.667000000016,completion,,,,,false,,,,548127.1999999993,548127,544771.73,544781.3999999985,544788.333,548138.255,8,400,,,
trial,html.Screen,4_94_0,2023-09-17T01:10:14.646Z,,0,2,,4389.44499999925,response,ISIC_3338629.JPG,5,ISIC_0000423.JPG,ISIC_3338629.JPG,false,1,keypress(m),500,552527.6999999993,552527.6999999993,548121.843,548127.1999999993,548138.255,552538.668,8,400,45,,ISIC_0000423.JPG
break,html.Screen,4_94_1,2023-09-17T01:10:14.646Z,,0,,,NaN,,,,,,false,,,,552528.1999999993,552528,,552527.8999999985,,552538.668,8,400,,,
break_continue,html.Screen,4_94_2,2023-09-17T01:10:14.646Z,,0,,,NaN,,,,,,false,,,,552528.299999997,552528.299999997,,552528.1999999993,,552538.668,8,400,,,
sequence,flow.Sequence,4_94,2023-09-17T01:10:14.646Z,,0,,,4390.044999997015,completion,,,,,false,,,,552528.299999997,552528.299999997,548121.843,548127.1999999993,548138.255,552538.668,8,400,,,
trial,html.Screen,4_95_0,2023-09-17T01:10:19.144Z,,0,2,,4487.031999999308,response,ISIC_6423860.JPG,4,ISIC_0024792.JPG,ISIC_6423860.JPG,false,1,keypress(m),500,557025.799999997,557025.6999999993,552521.428,552528.3999999985,552538.668,557037.98,8,400,46,,ISIC_0024792.JPG
break,html.Screen,4_95_1,2023-09-17T01:10:19.144Z,,0,,,NaN,,,,,,false,,,,557026.0999999978,557026,,557025.799999997,,557037.98,8,400,,,
break_continue,html.Screen,4_95_2,2023-09-17T01:10:19.144Z,,0,,,NaN,,,,,,false,,,,557026.299999997,557026.1999999993,,557026.0999999978,,557037.98,8,400,,,
sequence,flow.Sequence,4_95,2023-09-17T01:10:19.144Z,,0,,,4487.531999999308,completion,,,,,false,,,,557026.299999997,557026.1999999993,552521.428,552528.3999999985,552538.668,557037.98,8,400,,,
trial,html.Screen,4_96_0,2023-09-17T01:10:22.409Z,,0,2,,3253.3199999970384,response,ISIC_5237059.JPG,5,ISIC_0061371.JPG,ISIC_0061371.JPG,false,0,keypress(z),500,560291.299999997,560291.299999997,557021.232,557026.3999999985,557037.98,560305.027,8,400,47,,ISIC_5237059.JPG
break,html.Screen,4_96_1,2023-09-17T01:10:22.410Z,,0,,,NaN,,,,,,false,,,,560291.6999999993,560291.5999999978,,560291.3999999985,,560305.027,8,400,,,
break_continue,html.Screen,4_96_2,2023-09-17T01:10:22.410Z,,0,,,NaN,,,,,,false,,,,560291.799999997,560291.799999997,,560291.6999999993,,560305.027,8,400,,,
sequence,flow.Sequence,4_96,2023-09-17T01:10:22.410Z,,0,,,3253.8199999970384,completion,,,,,false,,,,560291.8999999985,560291.799999997,557021.232,557026.3999999985,557037.98,560305.027,8,400,,,
trial,html.Screen,4_97_0,2023-09-17T01:10:25.633Z,,0,2,,3209.972999999998,response,ISIC_0011094.JPG,5,ISIC_7883190.JPG,ISIC_0011094.JPG,false,1,keypress(m),500,563515,563515,560288.267,560292.1999999993,560305.027,563521.052,8,400,48,,ISIC_7883190.JPG
break,html.Screen,4_97_1,2023-09-17T01:10:25.633Z,,0,,,NaN,,,,,,false,,,,563515.3999999985,563515.3999999985,,563515.0999999978,,563521.052,8,400,,,
break_continue,html.Screen,4_97_2,2023-09-17T01:10:25.633Z,,0,,,NaN,,,,,,false,,,,563515.5,563515.5,,563515.5,,563521.052,8,400,,,
sequence,flow.Sequence,4_97,2023-09-17T01:10:25.634Z,,0,,,3210.472999999998,completion,,,,,false,,,,563515.5999999978,563515.5,560288.267,560292.1999999993,560305.027,563521.052,8,400,,,
trial,html.Screen,4_98_0,2023-09-17T01:10:29.426Z,,0,2,,3787.3479999984847,response,ISIC_0000072.JPG,5,ISIC_8325226.JPG,ISIC_8325226.JPG,false,0,keypress(z),500,567308.5,567308.3999999985,563504.354,563515.5999999978,563521.052,567321.12,8,400,49,,ISIC_0000072.JPG
break,html.Screen,4_98_1,2023-09-17T01:10:29.427Z,,0,,,NaN,,,,,,false,,,,567308.8999999985,567308.799999997,,567308.5,,567321.12,8,400,,,
break_continue,html.Screen,4_98_2,2023-09-17T01:10:29.427Z,,0,,,NaN,,,,,,false,,,,567309,567308.8999999985,,567308.8999999985,,567321.12,8,400,,,
sequence,flow.Sequence,4_98,2023-09-17T01:10:29.427Z,,0,,,3787.8479999984847,completion,,,,,false,,,,567309.0999999978,567308.8999999985,563504.354,563515.5999999978,563521.052,567321.12,8,400,,,
trial,html.Screen,4_99_0,2023-09-17T01:10:32.569Z,,0,2,,3130.3800000000047,response,ISIC_2622189.JPG,5,ISIC_8967786.JPG,ISIC_2622189.JPG,false,1,keypress(m),500,570451.5999999978,570451.5,567304.283,567309.0999999978,567321.12,570454.15,8,400,50,,ISIC_8967786.JPG
break,html.Screen,4_99_1,2023-09-17T01:10:42.555Z,,0,,,9999.670999999973,timeout,,,,,false,,,,580437.299999997,580437.142,570437.472,570451.5999999978,570454.15,580453.821,8,400,,,
break_continue,html.Screen,4_99_2,2023-09-17T01:10:44.058Z,,0,,,1481.0789999985136,response,,,,,false,continue,keypress(Space),,581940,581934.8999999985,580437.142,580437.3999999985,580453.821,581953.955,8,400,,,
sequence,flow.Sequence,4_99,2023-09-17T01:10:44.058Z,,0,,,14613.779999998515,completion,,,,,false,,,,581940.0999999978,581934.8999999985,567304.283,567309.0999999978,567321.12,581953.955,8,400,,,
trial,html.Screen,4_100_0,2023-09-17T01:10:48.123Z,,0,3,,4051.545000000042,response,ISIC_7233368.JPG,5,ISIC_0911264.JPG,ISIC_0911264.JPG,false,0,keypress(z),500,586005.5,586005.5,581936.9,581940.0999999978,581953.955,586020.824,8,400,1,,ISIC_7233368.JPG
break,html.Screen,4_100_1,2023-09-17T01:10:48.124Z,,0,,,NaN,,,,,,false,,,,586005.8999999985,586005.8999999985,,586005.5999999978,,586020.824,8,400,,,
break_continue,html.Screen,4_100_2,2023-09-17T01:10:48.124Z,,0,,,NaN,,,,,,false,,,,586006.0999999978,586006.0999999978,,586006,,586020.824,8,400,,,
sequence,flow.Sequence,4_100,2023-09-17T01:10:48.124Z,,0,,,4052.1449999978067,completion,,,,,false,,,,586006.1999999993,586006.0999999978,581936.9,581940.0999999978,581953.955,586020.824,8,400,,,
trial,html.Screen,4_101_0,2023-09-17T01:10:52.797Z,,0,3,,4658.2759999977425,response,ISIC_1305537.JPG,5,ISIC_0011858.JPG,ISIC_0011858.JPG,false,0,keypress(z),500,590679.299999997,590679.0999999978,586004.167,586006.1999999993,586020.824,590686.827,8,400,2,,ISIC_1305537.JPG
break,html.Screen,4_101_1,2023-09-17T01:10:52.798Z,,0,,,NaN,,,,,,false,,,,590679.6999999993,590679.5999999978,,590679.299999997,,590686.827,8,400,,,
break_continue,html.Screen,4_101_2,2023-09-17T01:10:52.798Z,,0,,,NaN,,,,,,false,,,,590679.6999999993,590679.6999999993,,590679.6999999993,,590686.827,8,400,,,
sequence,flow.Sequence,4_101,2023-09-17T01:10:52.798Z,,0,,,4658.875999999233,completion,,,,,false,,,,590679.799999997,590679.6999999993,586004.167,586006.1999999993,586020.824,590686.827,8,400,,,
trial,html.Screen,4_102_0,2023-09-17T01:10:58.466Z,,0,3,,5661.272999997716,response,ISIC_0057999.JPG,5,ISIC_8234773.JPG,ISIC_0057999.JPG,false,1,keypress(m),500,596348.1999999993,596348.0999999978,590670.128,590679.8999999985,590686.827,596353.31,8,400,3,,ISIC_8234773.JPG
break,html.Screen,4_102_1,2023-09-17T01:10:58.467Z,,0,,,NaN,,,,,,false,,,,596348.5999999978,596348.5,,596348.1999999993,,596353.31,8,400,,,
break_continue,html.Screen,4_102_2,2023-09-17T01:10:58.467Z,,0,,,NaN,,,,,,false,,,,596348.6999999993,596348.6999999993,,596348.5999999978,,596353.31,8,400,,,
sequence,flow.Sequence,4_102,2023-09-17T01:10:58.467Z,,0,,,5661.8729999992065,completion,,,,,false,,,,596348.799999997,596348.6999999993,590670.128,590679.799999997,590686.827,596353.31,8,400,,,
trial,html.Screen,4_103_0,2023-09-17T01:11:01.290Z,,0,3,,2819.089999998454,response,ISIC_6637542.JPG,5,ISIC_0056152.JPG,ISIC_6637542.JPG,false,1,keypress(m),500,599172.5,599172.3999999985,596336.598,596348.799999997,596353.31,599186.54,8,400,4,,ISIC_0056152.JPG
break,html.Screen,4_103_1,2023-09-17T01:11:01.291Z,,0,,,NaN,,,,,,false,,,,599172.8999999985,599172.799999997,,599172.5999999978,,599186.54,8,400,,,
break_continue,html.Screen,4_103_2,2023-09-17T01:11:01.291Z,,0,,,NaN,,,,,,false,,,,599173.0999999978,599173,,599173,,599186.54,8,400,,,
sequence,flow.Sequence,4_103,2023-09-17T01:11:01.291Z,,0,,,2819.689999999944,completion,,,,,false,,,,599173.0999999978,599173,596336.598,596348.799999997,596353.31,599186.54,8,400,,,
trial,html.Screen,4_104_0,2023-09-17T01:11:04.707Z,,0,3,,3402.7599999969825,response,ISIC_0071944.JPG,5,ISIC_0061509.JPG,ISIC_0071944.JPG,false,1,keypress(m),500,602589.5,602589.299999997,599169.996,599173.1999999993,599186.54,602603.548,8,400,5,,ISIC_0061509.JPG
break,html.Screen,4_104_1,2023-09-17T01:11:04.708Z,,0,,,NaN,,,,,,false,,,,602589.799999997,602589.799999997,,602589.5,,602603.548,8,400,,,
break_continue,html.Screen,4_104_2,2023-09-17T01:11:04.708Z,,0,,,NaN,,,,,,false,,,,602589.8999999985,602589.8999999985,,602589.799999997,,602603.548,8,400,,,
sequence,flow.Sequence,4_104,2023-09-17T01:11:04.708Z,,0,,,3403.3599999984726,completion,,,,,false,,,,602590,602589.8999999985,599169.996,599173.0999999978,599186.54,602603.548,8,400,,,
trial,html.Screen,4_105_0,2023-09-17T01:11:07.579Z,,0,3,,2857.5519999978133,response,ISIC_0009918.JPG,5,ISIC_5785408.JPG,ISIC_5785408.JPG,false,0,keypress(z),500,605461.1999999993,605461.0999999978,602586.447,602590.0999999978,602603.548,605469.703,8,400,6,,ISIC_0009918.JPG
break,html.Screen,4_105_1,2023-09-17T01:11:07.579Z,,0,,,NaN,,,,,,false,,,,605461.5999999978,605461.5,,605461.299999997,,605469.703,8,400,,,
break_continue,html.Screen,4_105_2,2023-09-17T01:11:07.580Z,,0,,,NaN,,,,,,false,,,,605461.6999999993,605461.5999999978,,605461.5999999978,,605469.703,8,400,,,
sequence,flow.Sequence,4_105,2023-09-17T01:11:07.580Z,,0,,,2858.0519999978133,completion,,,,,false,,,,605461.799999997,605461.5999999978,602586.447,602590,602603.548,605469.703,8,400,,,
trial,html.Screen,4_106_0,2023-09-17T01:11:10.365Z,,0,3,,2777.0969999970403,response,ISIC_0034106.JPG,5,ISIC_3313701.JPG,ISIC_3313701.JPG,false,0,keypress(z),500,608246.8999999985,608246.799999997,605452.995,605461.799999997,605469.703,608252.909,8,400,7,,ISIC_0034106.JPG
break,html.Screen,4_106_1,2023-09-17T01:11:10.365Z,,0,,,NaN,,,,,,false,,,,608247.299999997,608247.299999997,,608246.8999999985,,608252.909,8,400,,,
break_continue,html.Screen,4_106_2,2023-09-17T01:11:10.365Z,,0,,,NaN,,,,,,false,,,,608247.3999999985,608247.3999999985,,608247.299999997,,608252.909,8,400,,,
sequence,flow.Sequence,4_106,2023-09-17T01:11:10.365Z,,0,,,2777.6969999985304,completion,,,,,false,,,,608247.5,608247.3999999985,605452.995,605461.799999997,605469.703,608252.909,8,400,,,
trial,html.Screen,4_107_0,2023-09-17T01:11:13.695Z,,0,3,,3323.8909999970347,response,ISIC_0028018.JPG,4,ISIC_7242542.JPG,ISIC_7242542.JPG,false,0,keypress(z),500,611576.8999999985,611576.799999997,608236.26,608247.5,608252.909,611586.138,8,400,8,,ISIC_0028018.JPG
break,html.Screen,4_107_1,2023-09-17T01:11:13.695Z,,0,,,NaN,,,,,,false,,,,611577.299999997,611577.1999999993,,611577,,611586.138,8,400,,,
break_continue,html.Screen,4_107_2,2023-09-17T01:11:13.695Z,,0,,,NaN,,,,,,false,,,,611577.3999999985,611577.3999999985,,611577.3999999985,,611586.138,8,400,,,
sequence,flow.Sequence,4_107,2023-09-17T01:11:13.695Z,,0,,,3324.490999998525,completion,,,,,false,,,,611577.5,611577.3999999985,608236.26,608247.5,608252.909,611586.138,8,400,,,
trial,html.Screen,4_108_0,2023-09-17T01:11:17.265Z,,0,3,,3560.5619999992196,response,ISIC_0030077.JPG,4,ISIC_8127394.JPG,ISIC_0030077.JPG,false,1,keypress(m),500,615146.8999999985,615146.6999999993,611569.566,611577.5,611586.138,615152.676,8,400,9,,ISIC_8127394.JPG
break,html.Screen,4_108_1,2023-09-17T01:11:17.265Z,,0,,,NaN,,,,,,false,,,,615147.299999997,615147.0999999978,,615146.8999999985,,615152.676,8,400,,,
break_continue,html.Screen,4_108_2,2023-09-17T01:11:17.265Z,,0,,,NaN,,,,,,false,,,,615147.3999999985,615147.3999999985,,615147.299999997,,615152.676,8,400,,,
sequence,flow.Sequence,4_108,2023-09-17T01:11:17.265Z,,0,,,3561.2619999984745,completion,,,,,false,,,,615147.5,615147.3999999985,611569.566,611577.5,611586.138,615152.676,8,400,,,
trial,html.Screen,4_109_0,2023-09-17T01:11:20.051Z,,0,3,,2780.123999997042,response,ISIC_9751601.JPG,4,ISIC_6855540.JPG,ISIC_6855540.JPG,false,0,keypress(z),500,617932.8999999985,617932.799999997,615135.961,615147.5,615152.676,617935.925,8,400,10,,ISIC_9751601.JPG
break,html.Screen,4_109_1,2023-09-17T01:11:20.051Z,,0,,,NaN,,,,,,false,,,,617933.299999997,617933.299999997,,617933,,617935.925,8,400,,,
break_continue,html.Screen,4_109_2,2023-09-17T01:11:20.051Z,,0,,,NaN,,,,,,false,,,,617933.5,617933.3999999985,,617933.299999997,,617935.925,8,400,,,
sequence,flow.Sequence,4_109,2023-09-17T01:11:20.051Z,,0,,,2780.7239999985322,completion,,,,,false,,,,617933.5,617933.3999999985,615135.961,615147.5,615152.676,617935.925,8,400,,,
trial,html.Screen,4_110_0,2023-09-17T01:11:22.876Z,,0,3,,2821.6749999977183,response,ISIC_2436560.JPG,5,ISIC_0066289.JPG,ISIC_2436560.JPG,false,1,keypress(m),500,620757.6999999993,620757.5999999978,617919.236,617933.5,617935.925,620769.182,8,400,11,,ISIC_0066289.JPG
break,html.Screen,4_110_1,2023-09-17T01:11:22.876Z,,0,,,NaN,,,,,,false,,,,620758.0999999978,620758,,620757.6999999993,,620769.182,8,400,,,
break_continue,html.Screen,4_110_2,2023-09-17T01:11:22.876Z,,0,,,NaN,,,,,,false,,,,620758.1999999993,620758.1999999993,,620758.0999999978,,620769.182,8,400,,,
sequence,flow.Sequence,4_110,2023-09-17T01:11:22.876Z,,0,,,2822.2749999992084,completion,,,,,false,,,,620758.299999997,620758.1999999993,617919.236,617933.5,617935.925,620769.182,8,400,,,
trial,html.Screen,4_111_0,2023-09-17T01:11:26.580Z,,0,3,,3692.31799999997,response,ISIC_0063664.JPG,6,ISIC_3391254.JPG,ISIC_0063664.JPG,false,1,keypress(m),500,624461.5999999978,624461.5,620752.453,620758.3999999985,620769.182,624469.026,8,400,12,,ISIC_3391254.JPG
break,html.Screen,4_111_1,2023-09-17T01:11:26.580Z,,0,,,NaN,,,,,,false,,,,624462,624461.8999999985,,624461.799999997,,624469.026,8,400,,,
break_continue,html.Screen,4_111_2,2023-09-17T01:11:26.580Z,,0,,,NaN,,,,,,false,,,,624462.0999999978,624462.0999999978,,624462,,624469.026,8,400,,,
sequence,flow.Sequence,4_111,2023-09-17T01:11:26.580Z,,0,,,3692.917999997735,completion,,,,,false,,,,624462.1999999993,624462.0999999978,620752.453,620758.299999997,620769.182,624469.026,8,400,,,
trial,html.Screen,4_112_0,2023-09-17T01:11:29.420Z,,0,3,,2832.4740000000456,response,ISIC_6657600.JPG,4,ISIC_0059773.JPG,ISIC_0059773.JPG,false,0,keypress(z),500,627301.6999999993,627301.5,624452.35,624462.1999999993,624469.026,627319.597,8,400,13,,ISIC_6657600.JPG
break,html.Screen,4_112_1,2023-09-17T01:11:29.420Z,,0,,,NaN,,,,,,false,,,,627302,627301.8999999985,,627301.6999999993,,627319.597,8,400,,,
break_continue,html.Screen,4_112_2,2023-09-17T01:11:29.420Z,,0,,,NaN,,,,,,false,,,,627302.1999999993,627302.0999999978,,627302.0999999978,,627319.597,8,400,,,
sequence,flow.Sequence,4_112,2023-09-17T01:11:29.420Z,,0,,,2833.0739999978105,completion,,,,,false,,,,627302.299999997,627302.0999999978,624452.35,624462.1999999993,624469.026,627319.597,8,400,,,
trial,html.Screen,4_113_0,2023-09-17T01:11:32.397Z,,0,3,,2959.702999997069,response,ISIC_9244393.JPG,5,ISIC_0046635.JPG,ISIC_9244393.JPG,false,1,keypress(m),500,630279.5,630279.299999997,627285.687,627302.3999999985,627319.597,630285.499,8,400,14,,ISIC_0046635.JPG
break,html.Screen,4_113_1,2023-09-17T01:11:32.398Z,,0,,,NaN,,,,,,false,,,,630279.8999999985,630279.799999997,,630279.5999999978,,630285.499,8,400,,,
break_continue,html.Screen,4_113_2,2023-09-17T01:11:32.398Z,,0,,,NaN,,,,,,false,,,,630280,630280,,630279.8999999985,,630285.499,8,400,,,
sequence,flow.Sequence,4_113,2023-09-17T01:11:32.398Z,,0,,,2960.4030000000494,completion,,,,,false,,,,630280.0999999978,630280,627285.687,627302.3999999985,627319.597,630285.499,8,400,,,
trial,html.Screen,4_114_0,2023-09-17T01:11:36.336Z,,0,3,,3932.1009999978123,response,ISIC_0653633.JPG,4,ISIC_9864402.JPG,ISIC_0653633.JPG,false,1,keypress(m),500,634217.6999999993,634217.5999999978,630268.8,630280.0999999978,630285.499,634236.581,8,400,15,,ISIC_9864402.JPG
break,html.Screen,4_114_1,2023-09-17T01:11:36.336Z,,0,,,NaN,,,,,,false,,,,634218.0999999978,634218,,634217.799999997,,634236.581,8,400,,,
break_continue,html.Screen,4_114_2,2023-09-17T01:11:36.336Z,,0,,,NaN,,,,,,false,,,,634218.1999999993,634218.0999999978,,634218.0999999978,,634236.581,8,400,,,
sequence,flow.Sequence,4_114,2023-09-17T01:11:36.336Z,,0,,,3932.6009999978123,completion,,,,,false,,,,634218.1999999993,634218.0999999978,630268.8,630280.0999999978,630285.499,634236.581,8,400,,,
trial,html.Screen,4_115_0,2023-09-17T01:11:39.075Z,,0,3,,2720.9189999999944,response,ISIC_0069633.JPG,6,ISIC_5438156.JPG,ISIC_5438156.JPG,false,0,keypress(z),500,636957.5999999978,636957.5,634201.997,634218.299999997,634236.581,636968.648,8,400,16,,ISIC_0069633.JPG
break,html.Screen,4_115_1,2023-09-17T01:11:39.076Z,,0,,,NaN,,,,,,false,,,,636957.8999999985,636957.8999999985,,636957.6999999993,,636968.648,8,400,,,
break_continue,html.Screen,4_115_2,2023-09-17T01:11:39.076Z,,0,,,NaN,,,,,,false,,,,636958.0999999978,636958.0999999978,,636958,,636968.648,8,400,,,
sequence,flow.Sequence,4_115,2023-09-17T01:11:39.076Z,,0,,,2721.5189999977592,completion,,,,,false,,,,636958.0999999978,636958.0999999978,634201.997,634218.299999997,634236.581,636968.648,8,400,,,
trial,html.Screen,4_116_0,2023-09-17T01:11:42.501Z,,0,3,,3413.8519999999553,response,ISIC_3238687.JPG,4,ISIC_7462953.JPG,ISIC_7462953.JPG,false,0,keypress(z),500,640382.6999999993,640382.5,636951.929,636958.1999999993,636968.648,640385.155,8,400,17,,ISIC_3238687.JPG
break,html.Screen,4_116_1,2023-09-17T01:11:42.501Z,,0,,,NaN,,,,,,false,,,,640383,640383,,640382.6999999993,,640385.155,8,400,,,
break_continue,html.Screen,4_116_2,2023-09-17T01:11:42.501Z,,0,,,NaN,,,,,,false,,,,640383.1999999993,640383.0999999978,,640383.0999999978,,640385.155,8,400,,,
sequence,flow.Sequence,4_116,2023-09-17T01:11:42.501Z,,0,,,3414.45199999772,completion,,,,,false,,,,640383.1999999993,640383.0999999978,636951.929,636958.1999999993,636968.648,640385.155,8,400,,,
trial,html.Screen,4_117_0,2023-09-17T01:11:45.916Z,,0,3,,3413.144999996992,response,ISIC_0003664.JPG,5,ISIC_0025165.JPG,ISIC_0025165.JPG,false,0,keypress(z),500,643798.5,643798.299999997,640368.671,640383.299999997,640385.155,643801.74,8,400,18,,ISIC_0003664.JPG
break,html.Screen,4_117_1,2023-09-17T01:11:45.917Z,,0,,,NaN,,,,,,false,,,,643798.799999997,643798.6999999993,,643798.5,,643801.74,8,400,,,
break_continue,html.Screen,4_117_2,2023-09-17T01:11:45.917Z,,0,,,NaN,,,,,,false,,,,643799,643798.8999999985,,643798.799999997,,643801.74,8,400,,,
sequence,flow.Sequence,4_117,2023-09-17T01:11:45.917Z,,0,,,3413.744999998482,completion,,,,,false,,,,643799,643798.8999999985,640368.671,640383.1999999993,640385.155,643801.74,8,400,,,
trial,html.Screen,4_118_0,2023-09-17T01:11:49.796Z,,0,3,,3876.2600000000093,response,ISIC_0027235.JPG,5,ISIC_2331656.JPG,ISIC_2331656.JPG,false,0,keypress(z),500,647678.0999999978,647678,643785.018,643799,643801.74,647684.935,8,400,19,,ISIC_0027235.JPG
break,html.Screen,4_118_1,2023-09-17T01:11:49.796Z,,0,,,NaN,,,,,,false,,,,647678.5,647678.3999999985,,647678.0999999978,,647684.935,8,400,,,
break_continue,html.Screen,4_118_2,2023-09-17T01:11:49.797Z,,0,,,NaN,,,,,,false,,,,647678.5999999978,647678.5999999978,,647678.5,,647684.935,8,400,,,
sequence,flow.Sequence,4_118,2023-09-17T01:11:49.797Z,,0,,,3876.859999997774,completion,,,,,false,,,,647678.6999999993,647678.5999999978,643785.018,643799,643801.74,647684.935,8,400,,,
trial,html.Screen,4_119_0,2023-09-17T01:11:53.868Z,,0,3,,4065.464999998454,response,ISIC_3335505.JPG,5,ISIC_1105263.JPG,ISIC_1105263.JPG,false,0,keypress(z),500,651750.5999999978,651750.3999999985,647668.254,647678.6999999993,647684.935,651769.389,8,400,20,,ISIC_3335505.JPG
break,html.Screen,4_119_1,2023-09-17T01:11:53.869Z,,0,,,NaN,,,,,,false,,,,651751,651750.8999999985,,651750.5999999978,,651769.389,8,400,,,
break_continue,html.Screen,4_119_2,2023-09-17T01:11:53.869Z,,0,,,NaN,,,,,,false,,,,651751.0999999978,651751.0999999978,,651751.0999999978,,651769.389,8,400,,,
sequence,flow.Sequence,4_119,2023-09-17T01:11:53.869Z,,0,,,4066.164999997709,completion,,,,,false,,,,651751.0999999978,651751.0999999978,647668.254,647678.6999999993,647684.935,651769.389,8,400,,,
trial,html.Screen,4_120_0,2023-09-17T01:11:56.638Z,,0,3,,2750.9109999970533,response,ISIC_0031127.JPG,5,ISIC_0060946.JPG,ISIC_0060946.JPG,false,0,keypress(z),500,654520.3999999985,654520.299999997,651734.802,651751.1999999993,651769.389,654534.7,8,400,21,,ISIC_0031127.JPG
break,html.Screen,4_120_1,2023-09-17T01:11:56.639Z,,0,,,NaN,,,,,,false,,,,654520.6999999993,654520.6999999993,,654520.3999999985,,654534.7,8,400,,,
break_continue,html.Screen,4_120_2,2023-09-17T01:11:56.639Z,,0,,,NaN,,,,,,false,,,,654520.8999999985,654520.8999999985,,654520.799999997,,654534.7,8,400,,,
sequence,flow.Sequence,4_120,2023-09-17T01:11:56.639Z,,0,,,2751.5109999985434,completion,,,,,false,,,,654521,654520.8999999985,651734.802,651751.0999999978,651769.389,654534.7,8,400,,,
trial,html.Screen,4_121_0,2023-09-17T01:12:00.512Z,,0,3,,3858.8000000000466,response,ISIC_2046891.JPG,4,ISIC_3446357.JPG,ISIC_3446357.JPG,false,0,keypress(z),500,658393.5999999978,658393.5,654518.025,654521,654534.7,658401.267,8,400,22,,ISIC_2046891.JPG
break,html.Screen,4_121_1,2023-09-17T01:12:00.512Z,,0,,,NaN,,,,,,false,,,,658394.0999999978,658393.8999999985,,658393.6999999993,,658401.267,8,400,,,
break_continue,html.Screen,4_121_2,2023-09-17T01:12:00.512Z,,0,,,NaN,,,,,,false,,,,658394.0999999978,658394.0999999978,,658394.0999999978,,658401.267,8,400,,,
sequence,flow.Sequence,4_121,2023-09-17T01:12:00.512Z,,0,,,3859.3999999978114,completion,,,,,false,,,,658394.299999997,658394.0999999978,654518.025,654521,654534.7,658401.267,8,400,,,
trial,html.Screen,4_122_0,2023-09-17T01:12:03.362Z,,0,3,,2843.032999997027,response,ISIC_6951506.JPG,5,ISIC_0011276.JPG,ISIC_0011276.JPG,false,0,keypress(z),500,661244.3999999985,661244.299999997,658384.57,658394.299999997,658401.267,661251.188,8,400,23,,ISIC_6951506.JPG
break,html.Screen,4_122_1,2023-09-17T01:12:03.363Z,,0,,,NaN,,,,,,false,,,,661244.799999997,661244.5999999978,,661244.3999999985,,661251.188,8,400,,,
break_continue,html.Screen,4_122_2,2023-09-17T01:12:03.363Z,,0,,,NaN,,,,,,false,,,,661244.8999999985,661244.8999999985,,661244.799999997,,661251.188,8,400,,,
sequence,flow.Sequence,4_122,2023-09-17T01:12:03.363Z,,0,,,2843.6329999985173,completion,,,,,false,,,,661245,661244.8999999985,658384.57,658394.299999997,658401.267,661251.188,8,400,,,
trial,html.Screen,4_123_0,2023-09-17T01:12:06.644Z,,0,3,,3274.4119999977993,response,ISIC_2844085.JPG,5,ISIC_1566215.JPG,ISIC_1566215.JPG,false,0,keypress(z),500,664525.6999999993,664525.5999999978,661234.471,661245,661251.188,664551.038,8,400,24,,ISIC_2844085.JPG
break,html.Screen,4_123_1,2023-09-17T01:12:06.644Z,,0,,,NaN,,,,,,false,,,,664526.1999999993,664526.0999999978,,664525.799999997,,664551.038,8,400,,,
break_continue,html.Screen,4_123_2,2023-09-17T01:12:06.644Z,,0,,,NaN,,,,,,false,,,,664526.299999997,664526.1999999993,,664526.1999999993,,664551.038,8,400,,,
sequence,flow.Sequence,4_123,2023-09-17T01:12:06.644Z,,0,,,3275.0119999992894,completion,,,,,false,,,,664526.299999997,664526.1999999993,661234.471,661245,661251.188,664551.038,8,400,,,
trial,html.Screen,4_124_0,2023-09-17T01:12:10.038Z,,0,3,,3369.3619999985676,response,ISIC_0030508.JPG,5,ISIC_6498634.JPG,ISIC_6498634.JPG,false,0,keypress(z),500,667920.5999999978,667920.3999999985,664534.573,664526.3999999985,664551.038,667934.72,8,400,25,,ISIC_0030508.JPG
break,html.Screen,4_124_1,2023-09-17T01:12:10.039Z,,0,,,NaN,,,,,,false,,,,667920.8999999985,667920.8999999985,,667920.6999999993,,667934.72,8,400,,,
break_continue,html.Screen,4_124_2,2023-09-17T01:12:10.039Z,,0,,,NaN,,,,,,false,,,,667921.1999999993,667921.0999999978,,667921.0999999978,,667934.72,8,400,,,
sequence,flow.Sequence,4_124,2023-09-17T01:12:10.039Z,,0,,,3370.0619999978226,completion,,,,,false,,,,667921.1999999993,667921.0999999978,664534.573,664526.3999999985,664551.038,667934.72,8,400,,,
trial,html.Screen,4_125_0,2023-09-17T01:12:13.854Z,,0,3,,3801.3799999977928,response,ISIC_0056246.JPG,5,ISIC_6225409.JPG,ISIC_6225409.JPG,false,0,keypress(z),500,671736.1999999993,671736.0999999978,667918.065,667921.1999999993,667934.72,671750.819,8,400,26,,ISIC_0056246.JPG
break,html.Screen,4_125_1,2023-09-17T01:12:13.854Z,,0,,,NaN,,,,,,false,,,,671736.5999999978,671736.5,,671736.1999999993,,671750.819,8,400,,,
break_continue,html.Screen,4_125_2,2023-09-17T01:12:13.855Z,,0,,,NaN,,,,,,false,,,,671736.6999999993,671736.6999999993,,671736.5999999978,,671750.819,8,400,,,
sequence,flow.Sequence,4_125,2023-09-17T01:12:13.855Z,,0,,,3801.979999999283,completion,,,,,false,,,,671736.6999999993,671736.6999999993,667918.065,667921.1999999993,667934.72,671750.819,8,400,,,
