sender,sender_type,sender_id,timestamp,meta,,blockNo,condition,duration,ended_on,img_left,img_reveal,img_right,loser,practice,response,response_action,selection_duration,time_commit,time_end,time_render,time_run,time_show,time_switch,total_blocks,total_trials,trialNo,url,winner
informed_consent,html.Screen,0,2023-09-08T19:46:01.390Z,"{""labjs_version"":""20.2.4"",""labjs_build"":{""flavor"":""production"",""commit"":""f5b4a49f956347addd546a832a3327688c2c0fef""},""location"":""https://run.pavlovia.org/MurrayBennett/melanoma-2afc/?participant=63d7d63f02fe0c728604e529&STUDY_ID=64f8c92207ba404bcb356c90&SESSION_ID=64fb79eb6244f371c3aa83ee&platform=prolific"",""userAgent"":""Mozilla/5.0 (X11; CrOS x86_64 14541.0.0) AppleWebKit/537.36 (KHTML, like Gecko) Chrome/114.0.0.0 Safari/537.36"",""platform"":""Linux x86_64"",""language"":""en-US"",""locale"":""en-US"",""timeZone"":""America/New_York"",""timezoneOffset"":240,""screen_width"":1600,""screen_height"":900,""scroll_width"":1601,""scroll_height"":701,""window_innerWidth"":1601,""window_innerHeight"":749,""devicePixelRatio"":1.2000000476837158}",,,,3883.6050000059604,response,,,,,,consent,click button,,6520.9000000059605,6518.4000000059605,1619.013,2612.0999999940395,2634.795,6564.695,,,,"{""participant"":""63d7d63f02fe0c728604e529"",""STUDY_ID"":""64f8c92207ba404bcb356c90"",""SESSION_ID"":""64fb79eb6244f371c3aa83ee"",""platform"":""prolific""}",
Welcome,html.Screen,1,2023-09-08T19:46:04.752Z,,,,regular,3316.90499999404,response,,,,,,continue,click button,,9883.199999988079,9881.59999999404,6514.746,6521.199999988079,6564.695,9895.129,,,,,
trial,html.Screen,2_0_0,2023-09-08T19:46:13.419Z,,0,0,,8655.070999988078,response,ISIC_4679428.JPG,,ISIC_0061792.JPG,ISIC_0061792.JPG,true,0,keypress(z),500,18550.5,18550.19999998808,9878.477,9883.40000000596,9895.129,18554.245,1,6,1,,ISIC_4679428.JPG
sequence,flow.Sequence,2_0,2023-09-08T19:46:13.420Z,,0,,,8655.070999988078,completion,,,,,true,,,,18550.80000001192,18550.19999998808,9878.477,9883.40000000596,9895.129,18554.245,1,6,,,
trial,html.Screen,2_1_0,2023-09-08T19:46:17.772Z,,0,0,,4347.755000000001,response,ISIC_5199497.JPG,,ISIC_0776486.JPG,ISIC_0776486.JPG,true,0,keypress(z),500,22902.69999998808,22902,18537.593,18551,18554.245,22917.114,1,6,2,,ISIC_5199497.JPG
sequence,flow.Sequence,2_1,2023-09-08T19:46:17.772Z,,0,,,4347.755000000001,completion,,,,,true,,,,22903,22902,18537.593,18551,18554.245,22917.114,1,6,,,
trial,html.Screen,2_2_0,2023-09-08T19:46:20.859Z,,0,0,,3072.985999994038,response,ISIC_8575776.JPG,,ISIC_2556187.JPG,ISIC_2556187.JPG,true,0,keypress(z),500,25990.40000000596,25990.09999999404,22900.457,22903.19999998808,22917.114,25997.762,1,6,3,,ISIC_8575776.JPG
sequence,flow.Sequence,2_2,2023-09-08T19:46:20.860Z,,0,,,3072.985999994038,completion,,,,,true,,,,25990.69999998808,25990.09999999404,22900.457,22903.09999999404,22917.114,25997.762,1,6,,,
trial,html.Screen,2_3_0,2023-09-08T19:46:24.723Z,,0,0,,3856.1380000059617,response,ISIC_9238366.JPG,,ISIC_8141769.JPG,ISIC_8141769.JPG,true,0,keypress(z),500,29854.40000000596,29853.90000000596,25981.11,25990.90000000596,25997.762,29861.057,1,6,4,,ISIC_9238366.JPG
sequence,flow.Sequence,2_3,2023-09-08T19:46:24.724Z,,0,,,3856.1380000059617,completion,,,,,true,,,,29854.69999998808,29853.90000000596,25981.11,25990.80000001192,25997.762,29861.057,1,6,,,
trial,html.Screen,2_4_0,2023-09-08T19:46:30.171Z,,0,0,,5440.942999999999,response,ISIC_8949026.JPG,,ISIC_9959593.JPG,ISIC_9959593.JPG,true,0,keypress(z),500,35302.40000000596,35302,29844.405,29855.19999998808,29861.057,35306.307,1,6,5,,ISIC_8949026.JPG
sequence,flow.Sequence,2_4,2023-09-08T19:46:30.172Z,,0,,,5440.942999999999,completion,,,,,true,,,,35302.80000001192,35302,29844.405,29855.09999999404,29861.057,35306.307,1,6,,,
trial,html.Screen,2_5_0,2023-09-08T19:46:34.091Z,,0,0,,3915.3929999880784,response,ISIC_0010479.JPG,,ISIC_0460240.JPG,ISIC_0010479.JPG,true,1,keypress(m),500,39222.09999999404,39221.69999998808,35289.655,35303,35306.307,39236.218,1,6,6,,ISIC_0460240.JPG
sequence,flow.Sequence,2_5,2023-09-08T19:46:34.091Z,,0,,,3915.3929999880784,completion,,,,,true,,,,39222.40000000596,39221.69999998808,35289.655,35302.90000000596,35306.307,39236.218,1,6,,,
loop,flow.Loop,2,2023-09-08T19:46:34.091Z,,,,,29326.57099998808,completion,,,,,true,,,,39222.59999999404,39221.69999998808,9878.477,9883.300000011921,9895.129,39236.218,1,6,,,
exp_instructions,html.Screen,3,2023-09-08T19:46:37.623Z,,,,,3514.4819999880783,response,,,,,,continue,keypress(Space),,42754.19999998808,42750.69999998808,39219.566,39222.80000001192,39236.218,42766.441,,,,,
trial,html.Screen,4_0_0,2023-09-08T19:46:41.891Z,,0,1,,4255.75899998808,response,ISIC_0028582.JPG,6,ISIC_1690909.JPG,ISIC_0028582.JPG,false,1,keypress(m),500,47022.40000000596,47022.19999998808,42749.789,42754.59999999404,42766.441,47029.43,8,400,1,,ISIC_1690909.JPG
break,html.Screen,4_0_1,2023-09-08T19:46:41.893Z,,0,,,NaN,,,,,,false,,,,47023.80000001192,47023.5,,47022.59999999404,,47029.43,8,400,,,
break_continue,html.Screen,4_0_2,2023-09-08T19:46:41.893Z,,0,,,NaN,,,,,,false,,,,47024.19999998808,47024.09999999404,,47024,,47029.43,8,400,,,
sequence,flow.Sequence,4_0,2023-09-08T19:46:41.893Z,,0,,,4257.658999994041,completion,,,,,false,,,,47024.40000000596,47024.09999999404,42749.789,42754.5,42766.441,47029.43,8,400,,,
trial,html.Screen,4_1_0,2023-09-08T19:46:45.027Z,,0,1,,3128.47000000596,response,ISIC_9802008.JPG,9,ISIC_0027321.JPG,ISIC_9802008.JPG,false,1,keypress(m),500,50158.19999998808,50157.90000000596,47012.778,47024.40000000596,47029.43,50160.033,8,400,2,,ISIC_0027321.JPG
break,html.Screen,4_1_1,2023-09-08T19:46:45.028Z,,0,,,NaN,,,,,,false,,,,50159.30000001192,50159.09999999404,,50158.40000000596,,50160.033,8,400,,,
break_continue,html.Screen,4_1_2,2023-09-08T19:46:45.028Z,,0,,,NaN,,,,,,false,,,,50159.69999998808,50159.59999999404,,50159.40000000596,,50160.033,8,400,,,
sequence,flow.Sequence,4_1,2023-09-08T19:46:45.029Z,,0,,,3130.1699999940392,completion,,,,,false,,,,50159.80000001192,50159.59999999404,47012.778,47024.40000000596,47029.43,50160.033,8,400,,,
trial,html.Screen,4_2_0,2023-09-08T19:46:49.003Z,,0,1,,3973.8670000059574,response,ISIC_8384985.JPG,9,ISIC_9791275.JPG,ISIC_8384985.JPG,false,1,keypress(m),500,54134.30000001192,54133.90000000596,50143.381,50159.90000000596,50160.033,54139.89,8,400,3,,ISIC_9791275.JPG
break,html.Screen,4_2_1,2023-09-08T19:46:49.004Z,,0,,,NaN,,,,,,false,,,,54135.09999999404,54134.90000000596,,54134.5,,54139.89,8,400,,,
break_continue,html.Screen,4_2_2,2023-09-08T19:46:49.004Z,,0,,,NaN,,,,,,false,,,,54135.40000000596,54135.30000001192,,54135.30000001192,,54139.89,8,400,,,
sequence,flow.Sequence,4_2,2023-09-08T19:46:49.004Z,,0,,,3975.267000011918,completion,,,,,false,,,,54135.69999998808,54135.30000001192,50143.381,50159.90000000596,50160.033,54139.89,8,400,,,
trial,html.Screen,4_3_0,2023-09-08T19:46:52.315Z,,0,1,,3306.1100000000006,response,ISIC_0394140.JPG,11,ISIC_3743283.JPG,ISIC_0394140.JPG,false,1,keypress(m),500,57446.19999998808,57446,54123.238,54135.80000001192,54139.89,57453.667,8,400,4,,ISIC_3743283.JPG
break,html.Screen,4_3_1,2023-09-08T19:46:52.316Z,,0,,,NaN,,,,,,false,,,,57447.30000001192,57447,,57446.5,,57453.667,8,400,,,
break_continue,html.Screen,4_3_2,2023-09-08T19:46:52.316Z,,0,,,NaN,,,,,,false,,,,57447.59999999404,57447.5,,57447.30000001192,,57453.667,8,400,,,
sequence,flow.Sequence,4_3,2023-09-08T19:46:52.317Z,,0,,,3307.6100000000006,completion,,,,,false,,,,57447.80000001192,57447.5,54123.238,54135.80000001192,54139.89,57453.667,8,400,,,
trial,html.Screen,4_4_0,2023-09-08T19:46:55.627Z,,0,1,,3304.6330000119196,response,ISIC_0056119.JPG,9,ISIC_0029322.JPG,ISIC_0056119.JPG,false,1,keypress(m),500,60758.59999999404,60758.30000001192,57437.015,57447.90000000596,57453.667,60767.456,8,400,5,,ISIC_0029322.JPG
break,html.Screen,4_4_1,2023-09-08T19:46:55.628Z,,0,,,NaN,,,,,,false,,,,60759.40000000596,60759.19999998808,,60758.80000001192,,60767.456,8,400,,,
break_continue,html.Screen,4_4_2,2023-09-08T19:46:55.628Z,,0,,,NaN,,,,,,false,,,,60759.69999998808,60759.59999999404,,60759.40000000596,,60767.456,8,400,,,
sequence,flow.Sequence,4_4,2023-09-08T19:46:55.629Z,,0,,,3305.9329999940383,completion,,,,,false,,,,60759.80000001192,60759.59999999404,57437.015,57447.90000000596,57453.667,60767.456,8,400,,,
trial,html.Screen,4_5_0,2023-09-08T19:46:59.219Z,,0,1,,3582.3440000119226,response,ISIC_3086579.JPG,10,ISIC_0033756.JPG,ISIC_3086579.JPG,false,1,keypress(m),500,64350,64349.80000001192,60750.804,60760,60767.456,64364.308,8,400,6,,ISIC_0033756.JPG
break,html.Screen,4_5_1,2023-09-08T19:46:59.220Z,,0,,,NaN,,,,,,false,,,,64351.09999999404,64350.59999999404,,64350.30000001192,,64364.308,8,400,,,
break_continue,html.Screen,4_5_2,2023-09-08T19:46:59.221Z,,0,,,NaN,,,,,,false,,,,64352.30000001192,64352.09999999404,,64351.90000000596,,64364.308,8,400,,,
sequence,flow.Sequence,4_5,2023-09-08T19:46:59.221Z,,0,,,3584.643999994041,completion,,,,,false,,,,64352.5,64352.09999999404,60750.804,60759.90000000596,60767.456,64364.308,8,400,,,
trial,html.Screen,4_6_0,2023-09-08T19:47:02.323Z,,0,1,,3089.592000005963,response,ISIC_5625747.JPG,9,ISIC_0000179.JPG,ISIC_0000179.JPG,false,0,keypress(z),500,67454.19999998808,67453.90000000596,64347.656,64352.59999999404,64364.308,67478.271,8,400,7,,ISIC_5625747.JPG
break,html.Screen,4_6_1,2023-09-08T19:47:02.324Z,,0,,,NaN,,,,,,false,,,,67454.90000000596,67454.80000001192,,67454.40000000596,,67478.271,8,400,,,
break_continue,html.Screen,4_6_2,2023-09-08T19:47:02.324Z,,0,,,NaN,,,,,,false,,,,67455.30000001192,67455.09999999404,,67455,,67478.271,8,400,,,
sequence,flow.Sequence,4_6,2023-09-08T19:47:02.324Z,,0,,,3090.7919999940423,completion,,,,,false,,,,67455.40000000596,67455.09999999404,64347.656,64352.59999999404,64364.308,67478.271,8,400,,,
trial,html.Screen,4_7_0,2023-09-08T19:47:05.211Z,,0,1,,2863.828999994046,response,ISIC_3151260.JPG,10,ISIC_0011988.JPG,ISIC_0011988.JPG,false,0,keypress(z),500,70342.40000000596,70342.09999999404,67461.619,67455.59999999404,67478.271,70359.092,8,400,8,,ISIC_3151260.JPG
break,html.Screen,4_7_1,2023-09-08T19:47:05.212Z,,0,,,NaN,,,,,,false,,,,70343.40000000596,70343,,70342.59999999404,,70359.092,8,400,,,
break_continue,html.Screen,4_7_2,2023-09-08T19:47:05.212Z,,0,,,NaN,,,,,,false,,,,70343.59999999404,70343.59999999404,,70343.40000000596,,70359.092,8,400,,,
sequence,flow.Sequence,4_7,2023-09-08T19:47:05.213Z,,0,,,2865.328999994046,completion,,,,,false,,,,70343.69999998808,70343.59999999404,67461.619,67455.5,67478.271,70359.092,8,400,,,
trial,html.Screen,4_8_0,2023-09-08T19:47:08.611Z,,0,1,,3383.0079999940353,response,ISIC_6634951.JPG,10,ISIC_0033756.JPG,ISIC_6634951.JPG,false,1,keypress(m),500,73742.40000000596,73742.09999999404,70342.439,70344,70359.092,73756.126,8,400,9,,ISIC_0033756.JPG
break,html.Screen,4_8_1,2023-09-08T19:47:08.612Z,,0,,,NaN,,,,,,false,,,,73743.5,73743.09999999404,,73742.59999999404,,73756.126,8,400,,,
break_continue,html.Screen,4_8_2,2023-09-08T19:47:08.613Z,,0,,,NaN,,,,,,false,,,,73743.80000001192,73743.69999998808,,73743.59999999404,,73756.126,8,400,,,
sequence,flow.Sequence,4_8,2023-09-08T19:47:08.614Z,,0,,,3384.607999988075,completion,,,,,false,,,,73745,73743.69999998808,70342.439,70343.90000000596,70359.092,73756.126,8,400,,,
trial,html.Screen,4_9_0,2023-09-08T19:47:11.603Z,,0,1,,2977.9739999940357,response,ISIC_0058346.JPG,7,ISIC_0361149.JPG,ISIC_0058346.JPG,false,1,keypress(m),500,76734.40000000596,76734.09999999404,73739.474,73745.09999999404,73756.126,76736.867,8,400,10,,ISIC_0361149.JPG
break,html.Screen,4_9_1,2023-09-08T19:47:11.604Z,,0,,,NaN,,,,,,false,,,,76735.30000001192,76735,,76734.59999999404,,76736.867,8,400,,,
break_continue,html.Screen,4_9_2,2023-09-08T19:47:11.604Z,,0,,,NaN,,,,,,false,,,,76735.69999998808,76735.59999999404,,76735.5,,76736.867,8,400,,,
sequence,flow.Sequence,4_9,2023-09-08T19:47:11.605Z,,0,,,2979.4739999940357,completion,,,,,false,,,,76735.80000001192,76735.59999999404,73739.474,73745.09999999404,73756.126,76736.867,8,400,,,
trial,html.Screen,4_10_0,2023-09-08T19:47:14.603Z,,0,1,,2996.9330000119226,response,ISIC_0011375.JPG,10,ISIC_2721699.JPG,ISIC_0011375.JPG,false,1,keypress(m),500,79734,79733.80000001192,76720.215,76735.90000000596,76736.867,79750.901,8,400,11,,ISIC_2721699.JPG
break,html.Screen,4_10_1,2023-09-08T19:47:14.604Z,,0,,,NaN,,,,,,false,,,,79735,79734.90000000596,,79734.30000001192,,79750.901,8,400,,,
break_continue,html.Screen,4_10_2,2023-09-08T19:47:14.604Z,,0,,,NaN,,,,,,false,,,,79735.30000001192,79735.19999998808,,79735.09999999404,,79750.901,8,400,,,
sequence,flow.Sequence,4_10,2023-09-08T19:47:14.604Z,,0,,,2998.3329999880807,completion,,,,,false,,,,79735.40000000596,79735.19999998808,76720.215,76735.90000000596,76736.867,79750.901,8,400,,,
trial,html.Screen,4_11_0,2023-09-08T19:47:18.619Z,,0,1,,3999.399000011923,response,ISIC_4780727.JPG,10,ISIC_2108849.JPG,ISIC_2108849.JPG,false,0,keypress(z),500,83750.5,83750.30000001192,79734.249,79735.59999999404,79750.901,83780.728,8,400,12,,ISIC_4780727.JPG
break,html.Screen,4_11_1,2023-09-08T19:47:18.620Z,,0,,,NaN,,,,,,false,,,,83751.19999998808,83751.09999999404,,83750.69999998808,,83780.728,8,400,,,
break_continue,html.Screen,4_11_2,2023-09-08T19:47:18.620Z,,0,,,NaN,,,,,,false,,,,83751.5,83751.40000000596,,83751.30000001192,,83780.728,8,400,,,
sequence,flow.Sequence,4_11,2023-09-08T19:47:18.620Z,,0,,,4000.4990000059624,completion,,,,,false,,,,83751.69999998808,83751.40000000596,79734.249,79735.59999999404,79750.901,83780.728,8,400,,,
trial,html.Screen,4_12_0,2023-09-08T19:47:21.971Z,,0,1,,3321.271999999997,response,ISIC_7278885.JPG,10,ISIC_9917640.JPG,ISIC_9917640.JPG,false,0,keypress(z),500,87102.30000001192,87102,83764.068,83751.69999998808,83780.728,87111.152,8,400,13,,ISIC_7278885.JPG
break,html.Screen,4_12_1,2023-09-08T19:47:21.972Z,,0,,,NaN,,,,,,false,,,,87103,87102.80000001192,,87102.40000000596,,87111.152,8,400,,,
break_continue,html.Screen,4_12_2,2023-09-08T19:47:21.972Z,,0,,,NaN,,,,,,false,,,,87103.30000001192,87103.19999998808,,87103,,87111.152,8,400,,,
sequence,flow.Sequence,4_12,2023-09-08T19:47:21.972Z,,0,,,3322.4719999880763,completion,,,,,false,,,,87103.40000000596,87103.19999998808,83764.068,83751.69999998808,83780.728,87111.152,8,400,,,
trial,html.Screen,4_13_0,2023-09-08T19:47:24.955Z,,0,1,,2974.847999999998,response,ISIC_6914698.JPG,10,ISIC_1807276.JPG,ISIC_1807276.JPG,false,0,keypress(z),500,90086.30000001192,90086,87094.5,87103.59999999404,87111.152,90091.882,8,400,14,,ISIC_6914698.JPG
break,html.Screen,4_13_1,2023-09-08T19:47:24.956Z,,0,,,NaN,,,,,,false,,,,90087.40000000596,90087.19999998808,,90086.5,,90091.882,8,400,,,
break_continue,html.Screen,4_13_2,2023-09-08T19:47:24.956Z,,0,,,NaN,,,,,,false,,,,90087.69999998808,90087.59999999404,,90087.5,,90091.882,8,400,,,
sequence,flow.Sequence,4_13,2023-09-08T19:47:24.957Z,,0,,,2976.4479999940377,completion,,,,,false,,,,90087.90000000596,90087.59999999404,87094.5,87103.5,87111.152,90091.882,8,400,,,
trial,html.Screen,4_14_0,2023-09-08T19:47:28.419Z,,0,1,,3458.418000011923,response,ISIC_0055680.JPG,10,ISIC_0001831.JPG,ISIC_0055680.JPG,false,1,keypress(m),500,93550.5,93550.30000001192,90075.23,90088,90091.882,93555.537,8,400,15,,ISIC_0001831.JPG
break,html.Screen,4_14_1,2023-09-08T19:47:28.420Z,,0,,,NaN,,,,,,false,,,,93551.5,93551.40000000596,,93550.69999998808,,93555.537,8,400,,,
break_continue,html.Screen,4_14_2,2023-09-08T19:47:28.421Z,,0,,,NaN,,,,,,false,,,,93551.80000001192,93551.80000001192,,93551.59999999404,,93555.537,8,400,,,
sequence,flow.Sequence,4_14,2023-09-08T19:47:28.421Z,,0,,,3459.918000011923,completion,,,,,false,,,,93551.90000000596,93551.80000001192,90075.23,90087.90000000596,90091.882,93555.537,8,400,,,
trial,html.Screen,4_15_0,2023-09-08T19:47:31.275Z,,0,1,,2850.562999994043,response,ISIC_4882389.JPG,9,ISIC_0071678.JPG,ISIC_0071678.JPG,false,0,keypress(z),500,96406.40000000596,96406.09999999404,93538.885,93552.09999999404,93555.537,96419.712,8,400,16,,ISIC_4882389.JPG
break,html.Screen,4_15_1,2023-09-08T19:47:31.276Z,,0,,,NaN,,,,,,false,,,,96407.5,96407.19999998808,,96406.69999998808,,96419.712,8,400,,,
break_continue,html.Screen,4_15_2,2023-09-08T19:47:31.277Z,,0,,,NaN,,,,,,false,,,,96407.69999998808,96407.59999999404,,96407.5,,96419.712,8,400,,,
sequence,flow.Sequence,4_15,2023-09-08T19:47:31.277Z,,0,,,2852.062999994043,completion,,,,,false,,,,96407.90000000596,96407.59999999404,93538.885,93552.09999999404,93555.537,96419.712,8,400,,,
trial,html.Screen,4_16_0,2023-09-08T19:47:34.870Z,,0,1,,3581.2880000000005,response,ISIC_2418276.JPG,10,ISIC_9802008.JPG,ISIC_9802008.JPG,false,0,keypress(z),500,100001.30000001192,100001,96403.06,96408,96419.712,100033.227,8,400,17,,ISIC_2418276.JPG
break,html.Screen,4_16_1,2023-09-08T19:47:34.871Z,,0,,,NaN,,,,,,false,,,,100001.90000000596,100001.80000001192,,100001.40000000596,,100033.227,8,400,,,
break_continue,html.Screen,4_16_2,2023-09-08T19:47:34.871Z,,0,,,NaN,,,,,,false,,,,100002.19999998808,100002.09999999404,,100002,,100033.227,8,400,,,
sequence,flow.Sequence,4_16,2023-09-08T19:47:34.871Z,,0,,,3582.38799999404,completion,,,,,false,,,,100002.30000001192,100002.09999999404,96403.06,96408,96419.712,100033.227,8,400,,,
trial,html.Screen,4_17_0,2023-09-08T19:47:38.299Z,,0,1,,3396.97299998808,response,ISIC_7967397.JPG,7,ISIC_5614446.JPG,ISIC_5614446.JPG,false,0,keypress(z),500,103430.5,103430.19999998808,100016.565,100002.5,100033.227,103446.916,8,400,18,,ISIC_7967397.JPG
break,html.Screen,4_17_1,2023-09-08T19:47:38.300Z,,0,,,NaN,,,,,,false,,,,103431.19999998808,103431.09999999404,,103430.80000001192,,103446.916,8,400,,,
break_continue,html.Screen,4_17_2,2023-09-08T19:47:38.300Z,,0,,,NaN,,,,,,false,,,,103431.59999999404,103431.40000000596,,103431.40000000596,,103446.916,8,400,,,
sequence,flow.Sequence,4_17,2023-09-08T19:47:38.301Z,,0,,,3398.1730000059615,completion,,,,,false,,,,103431.80000001192,103431.40000000596,100016.565,100002.40000000596,100033.227,103446.916,8,400,,,
trial,html.Screen,4_18_0,2023-09-08T19:47:41.211Z,,0,1,,2895.0840000000026,response,ISIC_0026996.JPG,10,ISIC_0012538.JPG,ISIC_0012538.JPG,false,0,keypress(z),500,106342.30000001192,106342,103430.261,103431.90000000596,103446.916,106361.035,8,400,19,,ISIC_0026996.JPG
break,html.Screen,4_18_1,2023-09-08T19:47:41.212Z,,0,,,NaN,,,,,,false,,,,106343,106342.90000000596,,106342.5,,106361.035,8,400,,,
break_continue,html.Screen,4_18_2,2023-09-08T19:47:41.212Z,,0,,,NaN,,,,,,false,,,,106343.30000001192,106343.19999998808,,106343.09999999404,,106361.035,8,400,,,
sequence,flow.Sequence,4_18,2023-09-08T19:47:41.212Z,,0,,,2896.2839999880816,completion,,,,,false,,,,106343.40000000596,106343.19999998808,103430.261,103431.80000001192,103446.916,106361.035,8,400,,,
trial,html.Screen,4_19_0,2023-09-08T19:47:44.387Z,,0,1,,3156.9649999999965,response,ISIC_9323095.JPG,10,ISIC_0000292.JPG,ISIC_0000292.JPG,false,0,keypress(z),500,109518.30000001192,109518,106344.383,106343.5,106361.035,109524.948,8,400,20,,ISIC_9323095.JPG
break,html.Screen,4_19_1,2023-09-08T19:47:44.388Z,,0,,,NaN,,,,,,false,,,,109519,109518.90000000596,,109518.59999999404,,109524.948,8,400,,,
break_continue,html.Screen,4_19_2,2023-09-08T19:47:44.388Z,,0,,,NaN,,,,,,false,,,,109519.30000001192,109519.30000001192,,109519.09999999404,,109524.948,8,400,,,
sequence,flow.Sequence,4_19,2023-09-08T19:47:44.388Z,,0,,,3158.2650000119174,completion,,,,,false,,,,109519.5,109519.30000001192,106344.383,106343.5,106361.035,109524.948,8,400,,,
trial,html.Screen,4_20_0,2023-09-08T19:47:47.427Z,,0,1,,3032.9520000059565,response,ISIC_4645995.JPG,10,ISIC_4022621.JPG,ISIC_4022621.JPG,false,0,keypress(z),500,112558.19999998808,112557.90000000596,109508.296,109519.69999998808,109524.948,112572.302,8,400,21,,ISIC_4645995.JPG
break,html.Screen,4_20_1,2023-09-08T19:47:47.428Z,,0,,,NaN,,,,,,false,,,,112559,112558.80000001192,,112558.40000000596,,112572.302,8,400,,,
break_continue,html.Screen,4_20_2,2023-09-08T19:47:47.428Z,,0,,,NaN,,,,,,false,,,,112559.19999998808,112559.19999998808,,112559,,112572.302,8,400,,,
sequence,flow.Sequence,4_20,2023-09-08T19:47:47.428Z,,0,,,3034.251999988075,completion,,,,,false,,,,112559.40000000596,112559.19999998808,109508.296,109519.59999999404,109524.948,112572.302,8,400,,,
trial,html.Screen,4_21_0,2023-09-08T19:47:50.331Z,,0,1,,2889.7979999940435,response,ISIC_0064932.JPG,9,ISIC_3649632.JPG,ISIC_0064932.JPG,false,1,keypress(m),500,115462.40000000596,115462.09999999404,112555.644,112559.59999999404,112572.302,115469.773,8,400,22,,ISIC_3649632.JPG
break,html.Screen,4_21_1,2023-09-08T19:47:50.332Z,,0,,,NaN,,,,,,false,,,,115463.19999998808,115463,,115462.69999998808,,115469.773,8,400,,,
break_continue,html.Screen,4_21_2,2023-09-08T19:47:50.332Z,,0,,,NaN,,,,,,false,,,,115463.5,115463.40000000596,,115463.30000001192,,115469.773,8,400,,,
sequence,flow.Sequence,4_21,2023-09-08T19:47:50.333Z,,0,,,2891.0980000059644,completion,,,,,false,,,,115463.69999998808,115463.40000000596,112555.644,112559.5,112572.302,115469.773,8,400,,,
trial,html.Screen,4_22_0,2023-09-08T19:47:53.859Z,,0,1,,3520.426999988078,response,ISIC_0027839.JPG,10,ISIC_0033129.JPG,ISIC_0033129.JPG,false,0,keypress(z),500,118990.40000000596,118990.19999998808,115453.121,115463.80000001192,115469.773,119000.03,8,400,23,,ISIC_0027839.JPG
break,html.Screen,4_22_1,2023-09-08T19:47:53.860Z,,0,,,NaN,,,,,,false,,,,118991.19999998808,118991,,118990.59999999404,,119000.03,8,400,,,
break_continue,html.Screen,4_22_2,2023-09-08T19:47:53.860Z,,0,,,NaN,,,,,,false,,,,118991.5,118991.30000001192,,118991.19999998808,,119000.03,8,400,,,
sequence,flow.Sequence,4_22,2023-09-08T19:47:53.860Z,,0,,,3521.52700001192,completion,,,,,false,,,,118991.69999998808,118991.30000001192,115453.121,115463.80000001192,115469.773,119000.03,8,400,,,
trial,html.Screen,4_23_0,2023-09-08T19:47:56.827Z,,0,1,,2957.8700000059616,response,ISIC_0072286.JPG,10,ISIC_6119202.JPG,ISIC_0072286.JPG,false,1,keypress(m),500,121958.19999998808,121957.90000000596,118983.378,118991.80000001192,119000.03,121964.108,8,400,24,,ISIC_6119202.JPG
break,html.Screen,4_23_1,2023-09-08T19:47:56.828Z,,0,,,NaN,,,,,,false,,,,121958.90000000596,121958.69999998808,,121958.40000000596,,121964.108,8,400,,,
break_continue,html.Screen,4_23_2,2023-09-08T19:47:56.828Z,,0,,,NaN,,,,,,false,,,,121959.30000001192,121959.19999998808,,121959.09999999404,,121964.108,8,400,,,
sequence,flow.Sequence,4_23,2023-09-08T19:47:56.828Z,,0,,,2959.1699999880802,completion,,,,,false,,,,121959.40000000596,121959.19999998808,118983.378,118991.69999998808,119000.03,121964.108,8,400,,,
trial,html.Screen,4_24_0,2023-09-08T19:48:01.132Z,,0,1,,4298.392000000007,response,ISIC_5751956.JPG,10,ISIC_4924690.JPG,ISIC_4924690.JPG,false,0,keypress(z),500,126262.69999998808,126262.5,121947.456,121959.5,121964.108,126277.02,8,400,25,,ISIC_5751956.JPG
break,html.Screen,4_24_1,2023-09-08T19:48:01.132Z,,0,,,NaN,,,,,,false,,,,126263.5,126263.30000001192,,126262.90000000596,,126277.02,8,400,,,
break_continue,html.Screen,4_24_2,2023-09-08T19:48:01.133Z,,0,,,NaN,,,,,,false,,,,126263.69999998808,126263.59999999404,,126263.59999999404,,126277.02,8,400,,,
sequence,flow.Sequence,4_24,2023-09-08T19:48:01.133Z,,0,,,4299.491999994047,completion,,,,,false,,,,126263.90000000596,126263.59999999404,121947.456,121959.5,121964.108,126277.02,8,400,,,
trial,html.Screen,4_25_0,2023-09-08T19:48:04.651Z,,0,1,,3504.979999999996,response,ISIC_8173531.JPG,10,ISIC_1226440.JPG,ISIC_8173531.JPG,false,1,keypress(m),500,129782.30000001192,129782,126260.364,126264.09999999404,126277.02,129790.615,8,400,26,,ISIC_1226440.JPG
break,html.Screen,4_25_1,2023-09-08T19:48:04.652Z,,0,,,NaN,,,,,,false,,,,129783.40000000596,129782.90000000596,,129782.59999999404,,129790.615,8,400,,,
break_continue,html.Screen,4_25_2,2023-09-08T19:48:04.652Z,,0,,,NaN,,,,,,false,,,,129783.59999999404,129783.59999999404,,129783.40000000596,,129790.615,8,400,,,
sequence,flow.Sequence,4_25,2023-09-08T19:48:04.653Z,,0,,,3506.5799999940355,completion,,,,,false,,,,129783.80000001192,129783.59999999404,126260.364,126264,126277.02,129790.615,8,400,,,
trial,html.Screen,4_26_0,2023-09-08T19:48:07.915Z,,0,1,,3255.584999988074,response,ISIC_6717322.JPG,10,ISIC_5790319.JPG,ISIC_5790319.JPG,false,0,keypress(z),500,133046.40000000596,133046.19999998808,129773.963,129783.90000000596,129790.615,133054.438,8,400,27,,ISIC_6717322.JPG
break,html.Screen,4_26_1,2023-09-08T19:48:07.916Z,,0,,,NaN,,,,,,false,,,,133047.40000000596,133047.19999998808,,133046.59999999404,,133054.438,8,400,,,
break_continue,html.Screen,4_26_2,2023-09-08T19:48:07.917Z,,0,,,NaN,,,,,,false,,,,133047.80000001192,133047.59999999404,,133047.5,,133054.438,8,400,,,
sequence,flow.Sequence,4_26,2023-09-08T19:48:07.918Z,,0,,,3256.9849999940343,completion,,,,,false,,,,133048.69999998808,133047.59999999404,129773.963,129783.90000000596,129790.615,133054.438,8,400,,,
trial,html.Screen,4_27_0,2023-09-08T19:48:11.451Z,,0,1,,3527.5620000000054,response,ISIC_4912684.JPG,9,ISIC_0012037.JPG,ISIC_4912684.JPG,false,1,keypress(m),500,136582.40000000596,136582,133037.786,133048.90000000596,133054.438,136584.699,8,400,28,,ISIC_0012037.JPG
break,html.Screen,4_27_1,2023-09-08T19:48:11.452Z,,0,,,NaN,,,,,,false,,,,136583.19999998808,136583.09999999404,,136582.59999999404,,136584.699,8,400,,,
break_continue,html.Screen,4_27_2,2023-09-08T19:48:11.452Z,,0,,,NaN,,,,,,false,,,,136583.59999999404,136583.5,,136583.40000000596,,136584.699,8,400,,,
sequence,flow.Sequence,4_27,2023-09-08T19:48:11.453Z,,0,,,3529.0620000000054,completion,,,,,false,,,,136583.80000001192,136583.5,133037.786,133048.90000000596,133054.438,136584.699,8,400,,,
trial,html.Screen,4_28_0,2023-09-08T19:48:14.443Z,,0,1,,2989.000999988086,response,ISIC_0028554.JPG,10,ISIC_7407847.JPG,ISIC_0028554.JPG,false,1,keypress(m),500,139574,139573.69999998808,136568.047,136583.90000000596,136584.699,139582.083,8,400,29,,ISIC_7407847.JPG
break,html.Screen,4_28_1,2023-09-08T19:48:14.444Z,,0,,,NaN,,,,,,false,,,,139574.80000001192,139574.59999999404,,139574.19999998808,,139582.083,8,400,,,
break_continue,html.Screen,4_28_2,2023-09-08T19:48:14.444Z,,0,,,NaN,,,,,,false,,,,139575.09999999404,139575,,139574.90000000596,,139582.083,8,400,,,
sequence,flow.Sequence,4_28,2023-09-08T19:48:14.444Z,,0,,,2990.3010000000068,completion,,,,,false,,,,139575.30000001192,139575,136568.047,136583.80000001192,136584.699,139582.083,8,400,,,
trial,html.Screen,4_29_0,2023-09-08T19:48:17.515Z,,0,1,,3063.616999988066,response,ISIC_4930632.JPG,10,ISIC_0069050.JPG,ISIC_0069050.JPG,false,0,keypress(z),500,142646,142645.69999998808,139565.431,139575.30000001192,139582.083,142662.728,8,400,30,,ISIC_4930632.JPG
break,html.Screen,4_29_1,2023-09-08T19:48:17.516Z,,0,,,NaN,,,,,,false,,,,142646.69999998808,142646.5,,142646.19999998808,,142662.728,8,400,,,
break_continue,html.Screen,4_29_2,2023-09-08T19:48:17.516Z,,0,,,NaN,,,,,,false,,,,142647.09999999404,142646.90000000596,,142646.80000001192,,142662.728,8,400,,,
sequence,flow.Sequence,4_29,2023-09-08T19:48:17.516Z,,0,,,3064.817000005947,completion,,,,,false,,,,142647.19999998808,142646.90000000596,139565.431,139575.30000001192,139582.083,142662.728,8,400,,,
trial,html.Screen,4_30_0,2023-09-08T19:48:20.667Z,,0,1,,3135.1720000059577,response,ISIC_0071892.JPG,10,ISIC_0069058.JPG,ISIC_0071892.JPG,false,1,keypress(m),500,145798.19999998808,145797.90000000596,142646.076,142647.19999998808,142662.728,145809.992,8,400,31,,ISIC_0069058.JPG
break,html.Screen,4_30_1,2023-09-08T19:48:20.671Z,,0,,,NaN,,,,,,false,,,,145802.30000001192,145802,,145801.40000000596,,145809.992,8,400,,,
break_continue,html.Screen,4_30_2,2023-09-08T19:48:20.672Z,,0,,,NaN,,,,,,false,,,,145802.69999998808,145802.59999999404,,145802.5,,145809.992,8,400,,,
sequence,flow.Sequence,4_30,2023-09-08T19:48:20.672Z,,0,,,3139.8719999940367,completion,,,,,false,,,,145802.80000001192,145802.59999999404,142646.076,142647.19999998808,142662.728,145809.992,8,400,,,
trial,html.Screen,4_31_0,2023-09-08T19:48:24.995Z,,0,1,,4315.908000005962,response,ISIC_0000700.JPG,7,ISIC_8051628.JPG,ISIC_0000700.JPG,false,1,keypress(m),500,150126.09999999404,150125.90000000596,145793.34,145803,145809.992,150139.546,8,400,32,,ISIC_8051628.JPG
break,html.Screen,4_31_1,2023-09-08T19:48:24.996Z,,0,,,NaN,,,,,,false,,,,150127,150126.90000000596,,150126.30000001192,,150139.546,8,400,,,
break_continue,html.Screen,4_31_2,2023-09-08T19:48:24.996Z,,0,,,NaN,,,,,,false,,,,150127.30000001192,150127.19999998808,,150127.09999999404,,150139.546,8,400,,,
sequence,flow.Sequence,4_31,2023-09-08T19:48:24.996Z,,0,,,4317.207999988081,completion,,,,,false,,,,150127.40000000596,150127.19999998808,145793.34,145802.90000000596,145809.992,150139.546,8,400,,,
trial,html.Screen,4_32_0,2023-09-08T19:48:28.555Z,,0,1,,3546.8540000059584,response,ISIC_4042619.JPG,10,ISIC_0014543.JPG,ISIC_4042619.JPG,false,1,keypress(m),500,153686.59999999404,153686.40000000596,150122.894,150127.59999999404,150139.546,153703.112,8,400,33,,ISIC_0014543.JPG
break,html.Screen,4_32_1,2023-09-08T19:48:28.556Z,,0,,,NaN,,,,,,false,,,,153687.30000001192,153687.19999998808,,153686.90000000596,,153703.112,8,400,,,
break_continue,html.Screen,4_32_2,2023-09-08T19:48:28.556Z,,0,,,NaN,,,,,,false,,,,153687.59999999404,153687.59999999404,,153687.5,,153703.112,8,400,,,
sequence,flow.Sequence,4_32,2023-09-08T19:48:28.557Z,,0,,,3548.0539999940374,completion,,,,,false,,,,153687.80000001192,153687.59999999404,150122.894,150127.59999999404,150139.546,153703.112,8,400,,,
trial,html.Screen,4_33_0,2023-09-08T19:48:31.635Z,,0,1,,3062.8880000000063,response,ISIC_9335652.JPG,10,ISIC_5923430.JPG,ISIC_9335652.JPG,false,1,keypress(m),500,156766.40000000596,156766,153686.456,153687.90000000596,153703.112,156783.759,8,400,34,,ISIC_5923430.JPG
break,html.Screen,4_33_1,2023-09-08T19:48:31.636Z,,0,,,NaN,,,,,,false,,,,156767,156766.90000000596,,156766.5,,156783.759,8,400,,,
break_continue,html.Screen,4_33_2,2023-09-08T19:48:31.636Z,,0,,,NaN,,,,,,false,,,,156767.40000000596,156767.19999998808,,156767.19999998808,,156783.759,8,400,,,
sequence,flow.Sequence,4_33,2023-09-08T19:48:31.636Z,,0,,,3064.0879999880854,completion,,,,,false,,,,156767.40000000596,156767.19999998808,153686.456,153687.80000001192,153703.112,156783.759,8,400,,,
trial,html.Screen,4_34_0,2023-09-08T19:48:37.035Z,,0,1,,5382.241000000009,response,ISIC_8127394.JPG,10,ISIC_0009918.JPG,ISIC_8127394.JPG,false,1,keypress(m),500,162166.30000001192,162166,156767.103,156767.69999998808,156783.759,162179.054,8,400,35,,ISIC_0009918.JPG
break,html.Screen,4_34_1,2023-09-08T19:48:37.036Z,,0,,,NaN,,,,,,false,,,,162167.40000000596,162167.19999998808,,162166.5,,162179.054,8,400,,,
break_continue,html.Screen,4_34_2,2023-09-08T19:48:37.037Z,,0,,,NaN,,,,,,false,,,,162167.69999998808,162167.59999999404,,162167.40000000596,,162179.054,8,400,,,
sequence,flow.Sequence,4_34,2023-09-08T19:48:37.037Z,,0,,,5383.840999994049,completion,,,,,false,,,,162167.80000001192,162167.59999999404,156767.103,156767.59999999404,156783.759,162179.054,8,400,,,
trial,html.Screen,4_35_0,2023-09-08T19:48:48.539Z,,0,1,,11523.28899999999,timeout,ISIC_1684127.JPG,10,ISIC_0031745.JPG,,false,,,500,173669.90000000596,173669.69999998808,162162.402,162167.90000000596,162179.054,173702.343,8,400,36,,
break,html.Screen,4_35_1,2023-09-08T19:48:48.539Z,,0,,,NaN,,,,,,false,,,,173670.59999999404,173670.30000001192,,173670.09999999404,,173702.343,8,400,,,
break_continue,html.Screen,4_35_2,2023-09-08T19:48:48.540Z,,0,,,NaN,,,,,,false,,,,173670.90000000596,173670.80000001192,,173670.69999998808,,173702.343,8,400,,,
sequence,flow.Sequence,4_35,2023-09-08T19:48:48.540Z,,0,,,11491.746000011917,completion,,,,,false,,,,173671.09999999404,173670.80000001192,162162.402,162167.90000000596,162179.054,173702.343,8,400,,,
trial,html.Screen,4_36_0,2023-09-08T19:48:58.083Z,,0,1,,9511.657000000007,response,ISIC_8248922.JPG,10,ISIC_5648111.JPG,ISIC_5648111.JPG,false,0,keypress(z),500,183214.19999998808,183214,173685.677,173671.19999998808,173702.343,183227.373,8,400,37,,ISIC_8248922.JPG
break,html.Screen,4_36_1,2023-09-08T19:48:58.084Z,,0,,,NaN,,,,,,false,,,,183215.40000000596,183215.30000001192,,183214.40000000596,,183227.373,8,400,,,
break_continue,html.Screen,4_36_2,2023-09-08T19:48:58.085Z,,0,,,NaN,,,,,,false,,,,183215.80000001192,183215.59999999404,,183215.5,,183227.373,8,400,,,
sequence,flow.Sequence,4_36,2023-09-08T19:48:58.085Z,,0,,,9513.256999994046,completion,,,,,false,,,,183215.80000001192,183215.59999999404,173685.677,173671.09999999404,173702.343,183227.373,8,400,,,
trial,html.Screen,4_37_0,2023-09-08T19:49:01.891Z,,0,1,,3794.726999994047,response,ISIC_6478506.JPG,10,ISIC_0024826.JPG,ISIC_6478506.JPG,false,1,keypress(m),500,187022.40000000596,187022.09999999404,183210.721,183216,183227.373,187024.067,8,400,38,,ISIC_0024826.JPG
break,html.Screen,4_37_1,2023-09-08T19:49:01.892Z,,0,,,NaN,,,,,,false,,,,187023.19999998808,187023.09999999404,,187022.59999999404,,187024.067,8,400,,,
break_continue,html.Screen,4_37_2,2023-09-08T19:49:01.892Z,,0,,,NaN,,,,,,false,,,,187023.59999999404,187023.5,,187023.40000000596,,187024.067,8,400,,,
sequence,flow.Sequence,4_37,2023-09-08T19:49:01.893Z,,0,,,3796.1270000000077,completion,,,,,false,,,,187023.69999998808,187023.5,183210.721,183216,183227.373,187024.067,8,400,,,
trial,html.Screen,4_38_0,2023-09-08T19:49:05.947Z,,0,1,,4054.0329999940295,response,ISIC_0013615.JPG,9,ISIC_0055601.JPG,ISIC_0013615.JPG,false,1,keypress(m),500,191078.30000001192,191078.09999999404,187007.415,187023.80000001192,187024.067,191087.185,8,400,39,,ISIC_0055601.JPG
break,html.Screen,4_38_1,2023-09-08T19:49:05.948Z,,0,,,NaN,,,,,,false,,,,191079.40000000596,191079.19999998808,,191078.5,,191087.185,8,400,,,
break_continue,html.Screen,4_38_2,2023-09-08T19:49:05.949Z,,0,,,NaN,,,,,,false,,,,191079.80000001192,191079.69999998808,,191079.5,,191087.185,8,400,,,
sequence,flow.Sequence,4_38,2023-09-08T19:49:05.949Z,,0,,,4055.632999988069,completion,,,,,false,,,,191079.90000000596,191079.69999998808,187007.415,187023.80000001192,187024.067,191087.185,8,400,,,
trial,html.Screen,4_39_0,2023-09-08T19:49:10.411Z,,0,1,,4454.514999988081,response,ISIC_6737771.JPG,10,ISIC_0015969.JPG,ISIC_0015969.JPG,false,0,keypress(z),500,195542,195541.69999998808,191070.533,191080.09999999404,191087.185,195549.964,8,400,40,,ISIC_6737771.JPG
break,html.Screen,4_39_1,2023-09-08T19:49:10.412Z,,0,,,NaN,,,,,,false,,,,195542.90000000596,195542.80000001192,,195542.19999998808,,195549.964,8,400,,,
break_continue,html.Screen,4_39_2,2023-09-08T19:49:10.412Z,,0,,,NaN,,,,,,false,,,,195543.19999998808,195543.19999998808,,195543,,195549.964,8,400,,,
sequence,flow.Sequence,4_39,2023-09-08T19:49:10.412Z,,0,,,4456.014999988081,completion,,,,,false,,,,195543.40000000596,195543.19999998808,191070.533,191080,191087.185,195549.964,8,400,,,
trial,html.Screen,4_40_0,2023-09-08T19:49:13.491Z,,0,1,,3072.035999999993,response,ISIC_6626544.JPG,10,ISIC_7333928.JPG,ISIC_6626544.JPG,false,1,keypress(m),500,198622.30000001192,198622,195533.312,195543.5,195549.964,198630.611,8,400,41,,ISIC_7333928.JPG
break,html.Screen,4_40_1,2023-09-08T19:49:13.492Z,,0,,,NaN,,,,,,false,,,,198623.09999999404,198622.90000000596,,198622.5,,198630.611,8,400,,,
break_continue,html.Screen,4_40_2,2023-09-08T19:49:13.492Z,,0,,,NaN,,,,,,false,,,,198623.30000001192,198623.30000001192,,198623.09999999404,,198630.611,8,400,,,
sequence,flow.Sequence,4_40,2023-09-08T19:49:13.492Z,,0,,,3073.3360000119137,completion,,,,,false,,,,198623.40000000596,198623.30000001192,195533.312,195543.5,195549.964,198630.611,8,400,,,
trial,html.Screen,4_41_0,2023-09-08T19:49:16.811Z,,0,1,,3311.1890000119165,response,ISIC_0340453.JPG,9,ISIC_7236842.JPG,ISIC_7236842.JPG,false,0,keypress(z),500,201942,201941.80000001192,198613.959,198623.69999998808,198630.611,201944.392,8,400,42,,ISIC_0340453.JPG
break,html.Screen,4_41_1,2023-09-08T19:49:16.812Z,,0,,,NaN,,,,,,false,,,,201943.30000001192,201943.09999999404,,201942.19999998808,,201944.392,8,400,,,
break_continue,html.Screen,4_41_2,2023-09-08T19:49:16.812Z,,0,,,NaN,,,,,,false,,,,201943.5,201943.40000000596,,201943.30000001192,,201944.392,8,400,,,
sequence,flow.Sequence,4_41,2023-09-08T19:49:16.812Z,,0,,,3312.789000005956,completion,,,,,false,,,,201943.69999998808,201943.40000000596,198613.959,198623.59999999404,198630.611,201944.392,8,400,,,
trial,html.Screen,4_42_0,2023-09-08T19:49:20.147Z,,0,1,,3333.707999994047,response,ISIC_0674746.JPG,10,ISIC_0070248.JPG,ISIC_0070248.JPG,false,0,keypress(z),500,205278.40000000596,205278.09999999404,201927.74,201943.80000001192,201944.392,205291.479,8,400,43,,ISIC_0674746.JPG
break,html.Screen,4_42_1,2023-09-08T19:49:20.148Z,,0,,,NaN,,,,,,false,,,,205279.19999998808,205279,,205278.59999999404,,205291.479,8,400,,,
break_continue,html.Screen,4_42_2,2023-09-08T19:49:20.148Z,,0,,,NaN,,,,,,false,,,,205279.5,205279.40000000596,,205279.19999998808,,205291.479,8,400,,,
sequence,flow.Sequence,4_42,2023-09-08T19:49:20.148Z,,0,,,3335.008000005968,completion,,,,,false,,,,205279.69999998808,205279.40000000596,201927.74,201943.80000001192,201944.392,205291.479,8,400,,,
trial,html.Screen,4_43_0,2023-09-08T19:49:23.339Z,,0,1,,3178.4210000059684,response,ISIC_0000431.JPG,10,ISIC_0000484.JPG,ISIC_0000484.JPG,false,0,keypress(z),500,208470.40000000596,208469.90000000596,205274.827,205279.80000001192,205291.479,208488.686,8,400,44,,ISIC_0000431.JPG
break,html.Screen,4_43_1,2023-09-08T19:49:23.340Z,,0,,,NaN,,,,,,false,,,,208471.19999998808,208470.90000000596,,208470.69999998808,,208488.686,8,400,,,
break_continue,html.Screen,4_43_2,2023-09-08T19:49:23.340Z,,0,,,NaN,,,,,,false,,,,208471.40000000596,208471.30000001192,,208471.19999998808,,208488.686,8,400,,,
sequence,flow.Sequence,4_43,2023-09-08T19:49:23.340Z,,0,,,3179.821000011929,completion,,,,,false,,,,208471.59999999404,208471.30000001192,205274.827,205279.69999998808,205291.479,208488.686,8,400,,,
trial,html.Screen,4_44_0,2023-09-08T19:49:26.331Z,,0,1,,2973.4139999940526,response,ISIC_0014160.JPG,10,ISIC_5747486.JPG,ISIC_5747486.JPG,false,0,keypress(z),500,211462.40000000596,211462.09999999404,208472.033,208471.69999998808,208488.686,211469.422,8,400,45,,ISIC_0014160.JPG
break,html.Screen,4_44_1,2023-09-08T19:49:26.332Z,,0,,,NaN,,,,,,false,,,,211463.19999998808,211463,,211462.59999999404,,211469.422,8,400,,,
break_continue,html.Screen,4_44_2,2023-09-08T19:49:26.332Z,,0,,,NaN,,,,,,false,,,,211463.5,211463.30000001192,,211463.19999998808,,211469.422,8,400,,,
sequence,flow.Sequence,4_44,2023-09-08T19:49:26.332Z,,0,,,2974.614000011934,completion,,,,,false,,,,211463.59999999404,211463.30000001192,208472.033,208471.69999998808,208488.686,211469.422,8,400,,,
trial,html.Screen,4_45_0,2023-09-08T19:49:29.915Z,,0,1,,3576.677999994048,response,ISIC_0060660.JPG,10,ISIC_1027512.JPG,ISIC_0060660.JPG,false,1,keypress(m),500,215046.40000000596,215046.09999999404,211452.77,211463.69999998808,211469.422,215049.633,8,400,46,,ISIC_1027512.JPG
break,html.Screen,4_45_1,2023-09-08T19:49:29.916Z,,0,,,NaN,,,,,,false,,,,215047.5,215047.30000001192,,215046.59999999404,,215049.633,8,400,,,
break_continue,html.Screen,4_45_2,2023-09-08T19:49:29.917Z,,0,,,NaN,,,,,,false,,,,215047.80000001192,215047.69999998808,,215047.69999998808,,215049.633,8,400,,,
sequence,flow.Sequence,4_45,2023-09-08T19:49:29.917Z,,0,,,3578.2779999880877,completion,,,,,false,,,,215047.90000000596,215047.69999998808,211452.77,211463.69999998808,211469.422,215049.633,8,400,,,
trial,html.Screen,4_46_0,2023-09-08T19:49:33.347Z,,0,1,,3428.267000005959,response,ISIC_8592235.JPG,9,ISIC_2685523.JPG,ISIC_2685523.JPG,false,0,keypress(z),500,218478.30000001192,218477.90000000596,215032.981,215048.09999999404,215049.633,218496.627,8,400,47,,ISIC_8592235.JPG
break,html.Screen,4_46_1,2023-09-08T19:49:33.348Z,,0,,,NaN,,,,,,false,,,,218479,218478.80000001192,,218478.40000000596,,218496.627,8,400,,,
break_continue,html.Screen,4_46_2,2023-09-08T19:49:33.348Z,,0,,,NaN,,,,,,false,,,,218479.30000001192,218479.19999998808,,218479,,218496.627,8,400,,,
sequence,flow.Sequence,4_46,2023-09-08T19:49:33.348Z,,0,,,3429.5669999880774,completion,,,,,false,,,,218479.40000000596,218479.19999998808,215032.981,215048,215049.633,218496.627,8,400,,,
trial,html.Screen,4_47_0,2023-09-08T19:49:36.227Z,,0,1,,2861.273000005953,response,ISIC_0497390.JPG,10,ISIC_0029024.JPG,ISIC_0497390.JPG,false,1,keypress(m),500,221358.09999999404,221357.90000000596,218479.973,218479.5,218496.627,221377.46,8,400,48,,ISIC_0029024.JPG
break,html.Screen,4_47_1,2023-09-08T19:49:36.228Z,,0,,,NaN,,,,,,false,,,,221358.80000001192,221358.69999998808,,221358.30000001192,,221377.46,8,400,,,
break_continue,html.Screen,4_47_2,2023-09-08T19:49:36.228Z,,0,,,NaN,,,,,,false,,,,221359.09999999404,221359,,221358.90000000596,,221377.46,8,400,,,
sequence,flow.Sequence,4_47,2023-09-08T19:49:36.228Z,,0,,,2862.3729999999923,completion,,,,,false,,,,221359.30000001192,221359,218479.973,218479.5,218496.627,221377.46,8,400,,,
trial,html.Screen,4_48_0,2023-09-08T19:49:39.139Z,,0,1,,2892.739999988087,response,ISIC_6831108.JPG,9,ISIC_2853290.JPG,ISIC_6831108.JPG,false,1,keypress(m),500,224270.40000000596,224270.19999998808,221360.798,221359.30000001192,221377.46,224274.919,8,400,49,,ISIC_2853290.JPG
break,html.Screen,4_48_1,2023-09-08T19:49:39.140Z,,0,,,NaN,,,,,,false,,,,224271.19999998808,224271.09999999404,,224270.59999999404,,224274.919,8,400,,,
break_continue,html.Screen,4_48_2,2023-09-08T19:49:39.140Z,,0,,,NaN,,,,,,false,,,,224271.59999999404,224271.5,,224271.40000000596,,224274.919,8,400,,,
sequence,flow.Sequence,4_48,2023-09-08T19:49:39.141Z,,0,,,2894.040000000008,completion,,,,,false,,,,224271.80000001192,224271.5,221360.798,221359.30000001192,221377.46,224274.919,8,400,,,
trial,html.Screen,4_49_0,2023-09-08T19:49:42.347Z,,0,1,,3203.180999994045,response,ISIC_7022381.JPG,10,ISIC_0541345.JPG,ISIC_7022381.JPG,false,1,keypress(m),500,227478.40000000596,227478.09999999404,224258.267,224271.80000001192,224274.919,227488.786,8,400,50,,ISIC_0541345.JPG
break,html.Screen,4_49_1,2023-09-08T19:49:52.350Z,,0,,,10007.95200000002,timeout,,,,,false,,,,237481,237480.089,227472.134,227478.69999998808,227488.786,237496.738,8,400,,,
break_continue,html.Screen,4_49_2,2023-09-08T19:49:53.752Z,,0,,,1367.261999999988,response,,,,,false,continue,keypress(Space),,238882.80000001192,238864,237480.089,237481.19999998808,237496.738,238895.502,8,400,,,
sequence,flow.Sequence,4_49,2023-09-08T19:49:53.752Z,,0,,,14589.081000000006,completion,,,,,false,,,,238883,238864,224258.267,224271.80000001192,224274.919,238895.502,8,400,,,
trial,html.Screen,4_50_0,2023-09-08T19:50:00.555Z,,0,2,,6790.497999999992,response,ISIC_8666446.JPG,6,ISIC_9910791.JPG,ISIC_9910791.JPG,false,0,keypress(z),500,245686.19999998808,245686,238878.85,238883.09999999404,238895.502,245689.589,8,400,1,,ISIC_8666446.JPG
break,html.Screen,4_50_1,2023-09-08T19:50:00.556Z,,0,,,NaN,,,,,,false,,,,245687.30000001192,245687.09999999404,,245686.40000000596,,245689.589,8,400,,,
break_continue,html.Screen,4_50_2,2023-09-08T19:50:00.556Z,,0,,,NaN,,,,,,false,,,,245687.59999999404,245687.5,,245687.40000000596,,245689.589,8,400,,,
sequence,flow.Sequence,4_50,2023-09-08T19:50:00.557Z,,0,,,6791.997999999992,completion,,,,,false,,,,245687.69999998808,245687.5,238878.85,238883.09999999404,238895.502,245689.589,8,400,,,
trial,html.Screen,4_51_0,2023-09-08T19:50:03.907Z,,0,2,,3348.3110000059532,response,ISIC_3541663.JPG,10,ISIC_0055797.JPG,ISIC_0055797.JPG,false,0,keypress(z),500,249038.09999999404,249037.90000000596,245672.937,245687.80000001192,245689.589,249053.328,8,400,2,,ISIC_3541663.JPG
break,html.Screen,4_51_1,2023-09-08T19:50:03.908Z,,0,,,NaN,,,,,,false,,,,249038.90000000596,249038.80000001192,,249038.30000001192,,249053.328,8,400,,,
break_continue,html.Screen,4_51_2,2023-09-08T19:50:03.908Z,,0,,,NaN,,,,,,false,,,,249039.19999998808,249039.09999999404,,249039,,249053.328,8,400,,,
sequence,flow.Sequence,4_51,2023-09-08T19:50:03.908Z,,0,,,3349.5109999940323,completion,,,,,false,,,,249039.30000001192,249039.09999999404,245672.937,245687.80000001192,245689.589,249053.328,8,400,,,
trial,html.Screen,4_52_0,2023-09-08T19:50:07.531Z,,0,2,,3608.6719999999914,response,ISIC_0029459.JPG,9,ISIC_8041078.JPG,ISIC_0029459.JPG,false,1,keypress(m),500,252662.30000001192,252662,249036.676,249039.5,249053.328,252666.839,8,400,3,,ISIC_8041078.JPG
break,html.Screen,4_52_1,2023-09-08T19:50:07.532Z,,0,,,NaN,,,,,,false,,,,252663.09999999404,252663,,252662.59999999404,,252666.839,8,400,,,
break_continue,html.Screen,4_52_2,2023-09-08T19:50:07.532Z,,0,,,NaN,,,,,,false,,,,252663.40000000596,252663.30000001192,,252663.19999998808,,252666.839,8,400,,,
sequence,flow.Sequence,4_52,2023-09-08T19:50:07.532Z,,0,,,3609.9720000119123,completion,,,,,false,,,,252663.59999999404,252663.30000001192,249036.676,249039.40000000596,249053.328,252666.839,8,400,,,
trial,html.Screen,4_53_0,2023-09-08T19:50:10.891Z,,0,2,,3355.2609999940323,response,ISIC_4958578.JPG,10,ISIC_0028418.JPG,ISIC_0028418.JPG,false,0,keypress(z),500,256022.30000001192,256022.09999999404,252650.187,252663.69999998808,252666.839,256030.575,8,400,4,,ISIC_4958578.JPG
break,html.Screen,4_53_1,2023-09-08T19:50:10.892Z,,0,,,NaN,,,,,,false,,,,256023.19999998808,256023,,256022.5,,256030.575,8,400,,,
break_continue,html.Screen,4_53_2,2023-09-08T19:50:10.892Z,,0,,,NaN,,,,,,false,,,,256023.59999999404,256023.5,,256023.40000000596,,256030.575,8,400,,,
sequence,flow.Sequence,4_53,2023-09-08T19:50:10.893Z,,0,,,3356.660999999993,completion,,,,,false,,,,256023.80000001192,256023.5,252650.187,252663.59999999404,252666.839,256030.575,8,400,,,
trial,html.Screen,4_54_0,2023-09-08T19:50:14.291Z,,0,2,,3391.825000005949,response,ISIC_4362713.JPG,9,ISIC_9864402.JPG,ISIC_9864402.JPG,false,0,keypress(z),500,259422.59999999404,259422.40000000596,256013.923,256023.90000000596,256030.575,259427.613,8,400,5,,ISIC_4362713.JPG
break,html.Screen,4_54_1,2023-09-08T19:50:14.292Z,,0,,,NaN,,,,,,false,,,,259423.69999998808,259423.40000000596,,259422.80000001192,,259427.613,8,400,,,
break_continue,html.Screen,4_54_2,2023-09-08T19:50:14.293Z,,0,,,NaN,,,,,,false,,,,259424.09999999404,259423.80000001192,,259423.69999998808,,259427.613,8,400,,,
sequence,flow.Sequence,4_54,2023-09-08T19:50:14.293Z,,0,,,3393.2250000119093,completion,,,,,false,,,,259424.19999998808,259423.80000001192,256013.923,256023.80000001192,256030.575,259427.613,8,400,,,
trial,html.Screen,4_55_0,2023-09-08T19:50:17.619Z,,0,2,,3322.386999999988,response,ISIC_0056339.JPG,9,ISIC_0440582.JPG,ISIC_0440582.JPG,false,0,keypress(z),500,262750.3000000119,262750,259410.961,259424.40000000596,259427.613,262758.051,8,400,6,,ISIC_0056339.JPG
break,html.Screen,4_55_1,2023-09-08T19:50:17.620Z,,0,,,NaN,,,,,,false,,,,262751.3000000119,262751.1999999881,,262750.59999999404,,262758.051,8,400,,,
break_continue,html.Screen,4_55_2,2023-09-08T19:50:17.621Z,,0,,,NaN,,,,,,false,,,,262751.6999999881,262751.59999999404,,262751.5,,262758.051,8,400,,,
sequence,flow.Sequence,4_55,2023-09-08T19:50:17.621Z,,0,,,3323.9869999940274,completion,,,,,false,,,,262751.90000000596,262751.59999999404,259410.961,259424.30000001192,259427.613,262758.051,8,400,,,
trial,html.Screen,4_56_0,2023-09-08T19:50:20.651Z,,0,2,,3024.1489999881014,response,ISIC_0010208.JPG,10,ISIC_0030087.JPG,ISIC_0030087.JPG,false,0,keypress(z),500,265782.59999999404,265782.1999999881,262741.399,262752,262758.051,265788.742,8,400,7,,ISIC_0010208.JPG
break,html.Screen,4_56_1,2023-09-08T19:50:20.652Z,,0,,,NaN,,,,,,false,,,,265783.6999999881,265783.5,,265782.8000000119,,265788.742,8,400,,,
break_continue,html.Screen,4_56_2,2023-09-08T19:50:20.653Z,,0,,,NaN,,,,,,false,,,,265783.90000000596,265783.90000000596,,265783.6999999881,,265788.742,8,400,,,
sequence,flow.Sequence,4_56,2023-09-08T19:50:20.653Z,,0,,,3025.849000005983,completion,,,,,false,,,,265784.09999999404,265783.90000000596,262741.399,262751.90000000596,262758.051,265788.742,8,400,,,
trial,html.Screen,4_57_0,2023-09-08T19:50:23.635Z,,0,2,,2977.158000005933,response,ISIC_0028746.JPG,9,ISIC_4177043.JPG,ISIC_0028746.JPG,false,1,keypress(m),500,268766.3000000119,268765.90000000596,265772.09,265784.1999999881,265788.742,268769.47,8,400,8,,ISIC_4177043.JPG
break,html.Screen,4_57_1,2023-09-08T19:50:23.636Z,,0,,,NaN,,,,,,false,,,,268767,268766.8000000119,,268766.40000000596,,268769.47,8,400,,,
break_continue,html.Screen,4_57_2,2023-09-08T19:50:23.636Z,,0,,,NaN,,,,,,false,,,,268767.5,268767.3000000119,,268767.1999999881,,268769.47,8,400,,,
sequence,flow.Sequence,4_57,2023-09-08T19:50:23.636Z,,0,,,2978.5580000118935,completion,,,,,false,,,,268767.59999999404,268767.3000000119,265772.09,265784.1999999881,265788.742,268769.47,8,400,,,
trial,html.Screen,4_58_0,2023-09-08T19:50:27.371Z,,0,2,,3732.229999988107,response,ISIC_0009289.JPG,9,ISIC_0072553.JPG,ISIC_0072553.JPG,false,0,keypress(z),500,272502.09999999404,272501.6999999881,268752.818,268767.8000000119,268769.47,272516.21,8,400,9,,ISIC_0009289.JPG
break,html.Screen,4_58_1,2023-09-08T19:50:27.372Z,,0,,,NaN,,,,,,false,,,,272503,272502.8000000119,,272502.3000000119,,272516.21,8,400,,,
break_continue,html.Screen,4_58_2,2023-09-08T19:50:27.372Z,,0,,,NaN,,,,,,false,,,,272503.40000000596,272503.1999999881,,272503.09999999404,,272516.21,8,400,,,
sequence,flow.Sequence,4_58,2023-09-08T19:50:27.372Z,,0,,,3733.729999988107,completion,,,,,false,,,,272503.5,272503.1999999881,268752.818,268767.8000000119,268769.47,272516.21,8,400,,,
trial,html.Screen,4_59_0,2023-09-08T19:50:31.499Z,,0,2,,4113.489999988058,response,ISIC_0064298.JPG,10,ISIC_8241457.JPG,ISIC_8241457.JPG,false,0,keypress(z),500,276630,276629.6999999881,272499.558,272503.59999999404,272516.21,276645.938,8,400,10,,ISIC_0064298.JPG
break,html.Screen,4_59_1,2023-09-08T19:50:31.500Z,,0,,,NaN,,,,,,false,,,,276630.90000000596,276630.59999999404,,276630.1999999881,,276645.938,8,400,,,
break_continue,html.Screen,4_59_2,2023-09-08T19:50:31.500Z,,0,,,NaN,,,,,,false,,,,276631.1999999881,276631.1999999881,,276631,,276645.938,8,400,,,
sequence,flow.Sequence,4_59,2023-09-08T19:50:31.507Z,,0,,,4114.989999988058,completion,,,,,false,,,,276637.6999999881,276631.1999999881,272499.558,272503.59999999404,272516.21,276645.938,8,400,,,
trial,html.Screen,4_60_0,2023-09-08T19:50:34.931Z,,0,2,,3416.161999994016,response,ISIC_4918571.JPG,12,ISIC_7341401.JPG,ISIC_7341401.JPG,false,0,keypress(z),500,280062.3000000119,280062.09999999404,276629.286,276637.90000000596,276645.938,280076.292,8,400,11,,ISIC_4918571.JPG
break,html.Screen,4_60_1,2023-09-08T19:50:34.932Z,,0,,,NaN,,,,,,false,,,,280063.1999999881,280063,,280062.5,,280076.292,8,400,,,
break_continue,html.Screen,4_60_2,2023-09-08T19:50:34.932Z,,0,,,NaN,,,,,,false,,,,280063.5,280063.40000000596,,280063.3000000119,,280076.292,8,400,,,
sequence,flow.Sequence,4_60,2023-09-08T19:50:34.932Z,,0,,,3417.4620000059367,completion,,,,,false,,,,280063.6999999881,280063.40000000596,276629.286,276637.8000000119,276645.938,280076.292,8,400,,,
trial,html.Screen,4_61_0,2023-09-08T19:50:37.827Z,,0,2,,2881.8079999940237,response,ISIC_0031013.JPG,10,ISIC_0064633.JPG,ISIC_0064633.JPG,false,0,keypress(z),500,282958.40000000596,282958.09999999404,280059.64,280063.8000000119,280076.292,282973.755,8,400,12,,ISIC_0031013.JPG
break,html.Screen,4_61_1,2023-09-08T19:50:37.828Z,,0,,,NaN,,,,,,false,,,,282959.09999999404,282958.90000000596,,282958.59999999404,,282973.755,8,400,,,
break_continue,html.Screen,4_61_2,2023-09-08T19:50:37.828Z,,0,,,NaN,,,,,,false,,,,282959.40000000596,282959.3000000119,,282959.1999999881,,282973.755,8,400,,,
sequence,flow.Sequence,4_61,2023-09-08T19:50:37.828Z,,0,,,2883.008000011905,completion,,,,,false,,,,282959.59999999404,282959.3000000119,280059.64,280063.8000000119,280076.292,282973.755,8,400,,,
trial,html.Screen,4_62_0,2023-09-08T19:50:42.435Z,,0,2,,4592.244999999995,response,ISIC_3981425.JPG,10,ISIC_0002549.JPG,ISIC_0002549.JPG,false,0,keypress(z),500,287566.1999999881,287566,282957.103,282959.8000000119,282973.755,287569.751,8,400,13,,ISIC_3981425.JPG
break,html.Screen,4_62_1,2023-09-08T19:50:42.436Z,,0,,,NaN,,,,,,false,,,,287567,287566.90000000596,,287566.40000000596,,287569.751,8,400,,,
break_continue,html.Screen,4_62_2,2023-09-08T19:50:42.436Z,,0,,,NaN,,,,,,false,,,,287567.1999999881,287567.09999999404,,287567.09999999404,,287569.751,8,400,,,
sequence,flow.Sequence,4_62,2023-09-08T19:50:42.436Z,,0,,,4593.344999994035,completion,,,,,false,,,,287567.40000000596,287567.09999999404,282957.103,282959.6999999881,282973.755,287569.751,8,400,,,
trial,html.Screen,4_63_0,2023-09-08T19:50:46.403Z,,0,2,,3964.3489999940502,response,ISIC_1223648.JPG,8,ISIC_6410859.JPG,ISIC_1223648.JPG,false,1,keypress(m),500,291534.3000000119,291534.09999999404,287553.099,287567.59999999404,287569.751,291549.619,8,400,14,,ISIC_6410859.JPG
break,html.Screen,4_63_1,2023-09-08T19:50:46.404Z,,0,,,NaN,,,,,,false,,,,291535.40000000596,291535.09999999404,,291534.59999999404,,291549.619,8,400,,,
break_continue,html.Screen,4_63_2,2023-09-08T19:50:46.405Z,,0,,,NaN,,,,,,false,,,,291535.6999999881,291535.6999999881,,291535.5,,291549.619,8,400,,,
sequence,flow.Sequence,4_63,2023-09-08T19:50:46.405Z,,0,,,3965.94899998809,completion,,,,,false,,,,291535.90000000596,291535.6999999881,287553.099,287567.5,287569.751,291549.619,8,400,,,
trial,html.Screen,4_64_0,2023-09-08T19:50:49.155Z,,0,2,,2736.2810000059544,response,ISIC_5178031.JPG,10,ISIC_0067418.JPG,ISIC_0067418.JPG,false,0,keypress(z),500,294286.09999999404,294285.90000000596,291532.967,291536,291549.619,294297.224,8,400,15,,ISIC_5178031.JPG
break,html.Screen,4_64_1,2023-09-08T19:50:49.156Z,,0,,,NaN,,,,,,false,,,,294287.3000000119,294287.09999999404,,294286.40000000596,,294297.224,8,400,,,
break_continue,html.Screen,4_64_2,2023-09-08T19:50:49.156Z,,0,,,NaN,,,,,,false,,,,294287.59999999404,294287.5,,294287.40000000596,,294297.224,8,400,,,
sequence,flow.Sequence,4_64,2023-09-08T19:50:49.157Z,,0,,,2737.880999999994,completion,,,,,false,,,,294287.8000000119,294287.5,291532.967,291536,291549.619,294297.224,8,400,,,
trial,html.Screen,4_65_0,2023-09-08T19:50:52.459Z,,0,2,,3293.0760000119335,response,ISIC_9768421.JPG,10,ISIC_2211136.JPG,ISIC_2211136.JPG,false,0,keypress(z),500,297590.59999999404,297590.3000000119,294280.572,294287.90000000596,294297.224,297594.345,8,400,16,,ISIC_9768421.JPG
break,html.Screen,4_65_1,2023-09-08T19:50:52.460Z,,0,,,NaN,,,,,,false,,,,297591.3000000119,297591.1999999881,,297590.8000000119,,297594.345,8,400,,,
break_continue,html.Screen,4_65_2,2023-09-08T19:50:52.461Z,,0,,,NaN,,,,,,false,,,,297591.6999999881,297591.59999999404,,297591.40000000596,,297594.345,8,400,,,
sequence,flow.Sequence,4_65,2023-09-08T19:50:52.461Z,,0,,,3294.375999994052,completion,,,,,false,,,,297591.8000000119,297591.59999999404,294280.572,294287.8000000119,294297.224,297594.345,8,400,,,
trial,html.Screen,4_66_0,2023-09-08T19:50:56.611Z,,0,2,,4147.854999988107,response,ISIC_0025184.JPG,10,ISIC_0030047.JPG,ISIC_0030047.JPG,false,0,keypress(z),500,301742.59999999404,301742.1999999881,297577.693,297592,297594.345,301757.392,8,400,17,,ISIC_0025184.JPG
break,html.Screen,4_66_1,2023-09-08T19:50:56.612Z,,0,,,NaN,,,,,,false,,,,301743.3000000119,301743.09999999404,,301742.6999999881,,301757.392,8,400,,,
break_continue,html.Screen,4_66_2,2023-09-08T19:50:56.612Z,,0,,,NaN,,,,,,false,,,,301743.59999999404,301743.59999999404,,301743.40000000596,,301757.392,8,400,,,
sequence,flow.Sequence,4_66,2023-09-08T19:50:56.613Z,,0,,,4149.2549999940675,completion,,,,,false,,,,301743.6999999881,301743.59999999404,297577.693,297592,297594.345,301757.392,8,400,,,
trial,html.Screen,4_67_0,2023-09-08T19:51:01.107Z,,0,2,,4480.8079999880865,response,ISIC_1202976.JPG,10,ISIC_0004679.JPG,ISIC_0004679.JPG,false,0,keypress(z),500,306238.40000000596,306238.1999999881,301740.74,301743.90000000596,301757.392,306253.475,8,400,18,,ISIC_1202976.JPG
break,html.Screen,4_67_1,2023-09-08T19:51:01.108Z,,0,,,NaN,,,,,,false,,,,306239.5,306239.3000000119,,306238.6999999881,,306253.475,8,400,,,
break_continue,html.Screen,4_67_2,2023-09-08T19:51:01.109Z,,0,,,NaN,,,,,,false,,,,306239.8000000119,306239.6999999881,,306239.59999999404,,306253.475,8,400,,,
sequence,flow.Sequence,4_67,2023-09-08T19:51:01.109Z,,0,,,4482.3079999880865,completion,,,,,false,,,,306239.90000000596,306239.6999999881,301740.74,301743.90000000596,301757.392,306253.475,8,400,,,
trial,html.Screen,4_68_0,2023-09-08T19:51:04.035Z,,0,2,,2912.4250000059837,response,ISIC_6517852.JPG,8,ISIC_0057015.JPG,ISIC_0057015.JPG,false,0,keypress(z),500,309166.09999999404,309165.90000000596,306236.816,306241.40000000596,306253.475,309184.252,8,400,19,,ISIC_6517852.JPG
break,html.Screen,4_68_1,2023-09-08T19:51:04.036Z,,0,,,NaN,,,,,,false,,,,309167,309166.90000000596,,309166.40000000596,,309184.252,8,400,,,
break_continue,html.Screen,4_68_2,2023-09-08T19:51:04.036Z,,0,,,NaN,,,,,,false,,,,309167.3000000119,309167.1999999881,,309167.09999999404,,309184.252,8,400,,,
sequence,flow.Sequence,4_68,2023-09-08T19:51:04.036Z,,0,,,2913.7249999881024,completion,,,,,false,,,,309167.40000000596,309167.1999999881,306236.816,306240.09999999404,306253.475,309184.252,8,400,,,
trial,html.Screen,4_69_0,2023-09-08T19:51:07.132Z,,0,2,,3078.847999994061,response,ISIC_4280835.JPG,9,ISIC_0046225.JPG,ISIC_0046225.JPG,false,0,keypress(z),500,312263.40000000596,312263.09999999404,309167.597,309167.5,309184.252,312264.901,8,400,20,,ISIC_4280835.JPG
break,html.Screen,4_69_1,2023-09-08T19:51:07.133Z,,0,,,NaN,,,,,,false,,,,312264.3000000119,312264,,312263.59999999404,,312264.901,8,400,,,
break_continue,html.Screen,4_69_2,2023-09-08T19:51:07.133Z,,0,,,NaN,,,,,,false,,,,312264.6999999881,312264.5,,312264.5,,312264.901,8,400,,,
sequence,flow.Sequence,4_69,2023-09-08T19:51:07.134Z,,0,,,3080.2480000000214,completion,,,,,false,,,,312264.8000000119,312264.5,309167.597,309167.5,309184.252,312264.901,8,400,,,
trial,html.Screen,4_70_0,2023-09-08T19:51:10.259Z,,0,2,,3125.2989999880665,response,ISIC_0062734.JPG,9,ISIC_7306131.JPG,ISIC_0062734.JPG,false,1,keypress(m),500,315390.5,315390.1999999881,312248.249,312265,312264.901,315395.494,8,400,21,,ISIC_7306131.JPG
break,html.Screen,4_70_1,2023-09-08T19:51:10.260Z,,0,,,NaN,,,,,,false,,,,315391.3000000119,315391.1999999881,,315390.6999999881,,315395.494,8,400,,,
break_continue,html.Screen,4_70_2,2023-09-08T19:51:10.260Z,,0,,,NaN,,,,,,false,,,,315391.6999999881,315391.5,,315391.40000000596,,315395.494,8,400,,,
sequence,flow.Sequence,4_70,2023-09-08T19:51:10.261Z,,0,,,3126.5989999999874,completion,,,,,false,,,,315391.8000000119,315391.5,312248.249,312264.90000000596,312264.901,315395.494,8,400,,,
trial,html.Screen,4_71_0,2023-09-08T19:51:13.099Z,,0,2,,2834.306000011915,response,ISIC_6971606.JPG,10,ISIC_6032520.JPG,ISIC_6971606.JPG,false,1,keypress(m),500,318230,318229.8000000119,315378.842,315391.90000000596,315395.494,318243.022,8,400,22,,ISIC_6032520.JPG
break,html.Screen,4_71_1,2023-09-08T19:51:13.100Z,,0,,,NaN,,,,,,false,,,,318230.8000000119,318230.6999999881,,318230.3000000119,,318243.022,8,400,,,
break_continue,html.Screen,4_71_2,2023-09-08T19:51:13.100Z,,0,,,NaN,,,,,,false,,,,318231.09999999404,318231.09999999404,,318230.90000000596,,318243.022,8,400,,,
sequence,flow.Sequence,4_71,2023-09-08T19:51:13.100Z,,0,,,2835.6059999940335,completion,,,,,false,,,,318231.3000000119,318231.09999999404,315378.842,315391.8000000119,315395.494,318243.022,8,400,,,
trial,html.Screen,4_72_0,2023-09-08T19:51:15.715Z,,0,2,,2602.8780000059633,response,ISIC_0027879.JPG,10,ISIC_6639094.JPG,ISIC_6639094.JPG,false,0,keypress(z),500,320846.1999999881,320845.90000000596,318226.364,318231.40000000596,318243.022,320857.4,8,400,23,,ISIC_0027879.JPG
break,html.Screen,4_72_1,2023-09-08T19:51:15.716Z,,0,,,NaN,,,,,,false,,,,320847.1999999881,320846.90000000596,,320846.5,,320857.4,8,400,,,
break_continue,html.Screen,4_72_2,2023-09-08T19:51:15.716Z,,0,,,NaN,,,,,,false,,,,320847.5,320847.40000000596,,320847.3000000119,,320857.4,8,400,,,
sequence,flow.Sequence,4_72,2023-09-08T19:51:15.716Z,,0,,,2604.3780000059633,completion,,,,,false,,,,320847.6999999881,320847.40000000596,318226.364,318231.3000000119,318243.022,320857.4,8,400,,,
trial,html.Screen,4_73_0,2023-09-08T19:51:18.811Z,,0,2,,3084.6999999940163,response,ISIC_8249565.JPG,9,ISIC_4509925.JPG,ISIC_4509925.JPG,false,0,keypress(z),500,323942.40000000596,323942.09999999404,320840.748,320847.8000000119,320857.4,323954.697,8,400,24,,ISIC_8249565.JPG
break,html.Screen,4_73_1,2023-09-08T19:51:18.812Z,,0,,,NaN,,,,,,false,,,,323943.59999999404,323943.40000000596,,323942.6999999881,,323954.697,8,400,,,
break_continue,html.Screen,4_73_2,2023-09-08T19:51:18.813Z,,0,,,NaN,,,,,,false,,,,323943.90000000596,323943.8000000119,,323943.6999999881,,323954.697,8,400,,,
sequence,flow.Sequence,4_73,2023-09-08T19:51:18.813Z,,0,,,3086.4000000118976,completion,,,,,false,,,,323944,323943.8000000119,320840.748,320847.8000000119,320857.4,323954.697,8,400,,,
trial,html.Screen,4_74_0,2023-09-08T19:51:21.571Z,,0,2,,2747.402999994054,response,ISIC_5207050.JPG,9,ISIC_0046917.JPG,ISIC_0046917.JPG,false,0,keypress(z),500,326702.40000000596,326702.09999999404,323938.045,323944.1999999881,323954.697,326718.967,8,400,25,,ISIC_5207050.JPG
break,html.Screen,4_74_1,2023-09-08T19:51:21.572Z,,0,,,NaN,,,,,,false,,,,326703.5,326703.3000000119,,326702.6999999881,,326718.967,8,400,,,
break_continue,html.Screen,4_74_2,2023-09-08T19:51:21.573Z,,0,,,NaN,,,,,,false,,,,326703.8000000119,326703.6999999881,,326703.59999999404,,326718.967,8,400,,,
sequence,flow.Sequence,4_74,2023-09-08T19:51:21.573Z,,0,,,2749.0029999880935,completion,,,,,false,,,,326704,326703.6999999881,323938.045,323944.1999999881,323954.697,326718.967,8,400,,,
trial,html.Screen,4_75_0,2023-09-08T19:51:24.267Z,,0,2,,2678.8330000119167,response,ISIC_5797404.JPG,10,ISIC_0029508.JPG,ISIC_0029508.JPG,false,0,keypress(z),500,329398.09999999404,329397.8000000119,326702.306,326704.09999999404,326718.967,329399.956,8,400,26,,ISIC_5797404.JPG
break,html.Screen,4_75_1,2023-09-08T19:51:24.268Z,,0,,,NaN,,,,,,false,,,,329398.8000000119,329398.59999999404,,329398.3000000119,,329399.956,8,400,,,
break_continue,html.Screen,4_75_2,2023-09-08T19:51:24.268Z,,0,,,NaN,,,,,,false,,,,329399.09999999404,329399,,329399,,329399.956,8,400,,,
sequence,flow.Sequence,4_75,2023-09-08T19:51:24.268Z,,0,,,2680.032999999996,completion,,,,,false,,,,329399.1999999881,329399,326702.306,326704.09999999404,326718.967,329399.956,8,400,,,
trial,html.Screen,4_76_0,2023-09-08T19:51:27.027Z,,0,2,,2758.143999994034,response,ISIC_0024586.JPG,10,ISIC_6378169.JPG,ISIC_6378169.JPG,false,0,keypress(z),500,332158.40000000596,332158.09999999404,329383.304,329399.40000000596,329399.956,332164.214,8,400,27,,ISIC_0024586.JPG
break,html.Screen,4_76_1,2023-09-08T19:51:27.028Z,,0,,,NaN,,,,,,false,,,,332159.09999999404,332159,,332158.59999999404,,332164.214,8,400,,,
break_continue,html.Screen,4_76_2,2023-09-08T19:51:27.028Z,,0,,,NaN,,,,,,false,,,,332159.40000000596,332159.3000000119,,332159.1999999881,,332164.214,8,400,,,
sequence,flow.Sequence,4_76,2023-09-08T19:51:27.028Z,,0,,,2759.3440000119153,completion,,,,,false,,,,332159.59999999404,332159.3000000119,329383.304,329399.3000000119,329399.956,332164.214,8,400,,,
trial,html.Screen,4_77_0,2023-09-08T19:51:30.283Z,,0,2,,3249.985999988101,response,ISIC_0059609.JPG,10,ISIC_3212781.JPG,ISIC_0059609.JPG,false,1,keypress(m),500,335414.5,335414.1999999881,332147.562,332159.8000000119,332164.214,335428.041,8,400,28,,ISIC_3212781.JPG
break,html.Screen,4_77_1,2023-09-08T19:51:30.284Z,,0,,,NaN,,,,,,false,,,,335415.1999999881,335415,,335414.6999999881,,335428.041,8,400,,,
break_continue,html.Screen,4_77_2,2023-09-08T19:51:30.284Z,,0,,,NaN,,,,,,false,,,,335415.5,335415.40000000596,,335415.1999999881,,335428.041,8,400,,,
sequence,flow.Sequence,4_77,2023-09-08T19:51:30.284Z,,0,,,3251.1860000059824,completion,,,,,false,,,,335415.6999999881,335415.40000000596,332147.562,332159.8000000119,332164.214,335428.041,8,400,,,
trial,html.Screen,4_78_0,2023-09-08T19:51:33.099Z,,0,2,,2801.6589999880525,response,ISIC_0027302.JPG,10,ISIC_0011140.JPG,ISIC_0027302.JPG,false,1,keypress(m),500,338230,338229.6999999881,335411.377,335415.8000000119,335428.041,338242.245,8,400,29,,ISIC_0011140.JPG
break,html.Screen,4_78_1,2023-09-08T19:51:33.100Z,,0,,,NaN,,,,,,false,,,,338231,338230.8000000119,,338230.1999999881,,338242.245,8,400,,,
break_continue,html.Screen,4_78_2,2023-09-08T19:51:33.100Z,,0,,,NaN,,,,,,false,,,,338231.1999999881,338231.1999999881,,338231.09999999404,,338242.245,8,400,,,
sequence,flow.Sequence,4_78,2023-09-08T19:51:33.100Z,,0,,,2803.1589999880525,completion,,,,,false,,,,338231.3000000119,338231.1999999881,335411.377,335415.8000000119,335428.041,338242.245,8,400,,,
trial,html.Screen,4_79_0,2023-09-08T19:51:36.107Z,,0,2,,2995.5550000119256,response,ISIC_0014903.JPG,10,ISIC_0010873.JPG,ISIC_0014903.JPG,false,1,keypress(m),500,341238.09999999404,341237.8000000119,338225.593,338231.5,338242.245,341239.631,8,400,30,,ISIC_0010873.JPG
break,html.Screen,4_79_1,2023-09-08T19:51:36.108Z,,0,,,NaN,,,,,,false,,,,341238.6999999881,341238.59999999404,,341238.1999999881,,341239.631,8,400,,,
break_continue,html.Screen,4_79_2,2023-09-08T19:51:36.108Z,,0,,,NaN,,,,,,false,,,,341239,341238.90000000596,,341238.8000000119,,341239.631,8,400,,,
sequence,flow.Sequence,4_79,2023-09-08T19:51:36.108Z,,0,,,2996.655000005965,completion,,,,,false,,,,341239.1999999881,341238.90000000596,338225.593,338231.5,338242.245,341239.631,8,400,,,
trial,html.Screen,4_80_0,2023-09-08T19:51:39.091Z,,0,2,,2982.369000000006,response,ISIC_0069986.JPG,10,ISIC_5386244.JPG,ISIC_5386244.JPG,false,0,keypress(z),500,344222.1999999881,344222,341222.979,341239.3000000119,341239.631,344237.029,8,400,31,,ISIC_0069986.JPG
break,html.Screen,4_80_1,2023-09-08T19:51:39.092Z,,0,,,NaN,,,,,,false,,,,344223.40000000596,344223.1999999881,,344222.5,,344237.029,8,400,,,
break_continue,html.Screen,4_80_2,2023-09-08T19:51:39.093Z,,0,,,NaN,,,,,,false,,,,344223.6999999881,344223.59999999404,,344223.5,,344237.029,8,400,,,
sequence,flow.Sequence,4_80,2023-09-08T19:51:39.093Z,,0,,,2983.9689999940456,completion,,,,,false,,,,344223.90000000596,344223.59999999404,341222.979,341239.1999999881,341239.631,344237.029,8,400,,,
trial,html.Screen,4_81_0,2023-09-08T19:51:41.891Z,,0,2,,2784.87100000598,response,ISIC_0069536.JPG,10,ISIC_3495799.JPG,ISIC_0069536.JPG,false,1,keypress(m),500,347022.1999999881,347021.90000000596,344220.374,344223.90000000596,344237.029,347034.581,8,400,32,,ISIC_3495799.JPG
break,html.Screen,4_81_1,2023-09-08T19:51:41.892Z,,0,,,NaN,,,,,,false,,,,347023.09999999404,347022.90000000596,,347022.40000000596,,347034.581,8,400,,,
break_continue,html.Screen,4_81_2,2023-09-08T19:51:41.892Z,,0,,,NaN,,,,,,false,,,,347023.40000000596,347023.3000000119,,347023.1999999881,,347034.581,8,400,,,
sequence,flow.Sequence,4_81,2023-09-08T19:51:41.892Z,,0,,,2786.2710000119405,completion,,,,,false,,,,347023.59999999404,347023.3000000119,344220.374,344223.90000000596,344237.029,347034.581,8,400,,,
trial,html.Screen,4_82_0,2023-09-08T19:51:45.051Z,,0,2,,3147.518999994034,response,ISIC_0011630.JPG,10,ISIC_6400232.JPG,ISIC_6400232.JPG,false,0,keypress(z),500,350182.40000000596,350182.09999999404,347017.929,347023.6999999881,347034.581,350198.502,8,400,33,,ISIC_0011630.JPG
break,html.Screen,4_82_1,2023-09-08T19:51:45.052Z,,0,,,NaN,,,,,,false,,,,350183.09999999404,350183,,350182.6999999881,,350198.502,8,400,,,
break_continue,html.Screen,4_82_2,2023-09-08T19:51:45.052Z,,0,,,NaN,,,,,,false,,,,350183.5,350183.40000000596,,350183.3000000119,,350198.502,8,400,,,
sequence,flow.Sequence,4_82,2023-09-08T19:51:45.052Z,,0,,,3148.819000005955,completion,,,,,false,,,,350183.6999999881,350183.40000000596,347017.929,347023.6999999881,347034.581,350198.502,8,400,,,
trial,html.Screen,4_83_0,2023-09-08T19:51:47.715Z,,0,2,,2647.398000005982,response,ISIC_0010044.JPG,10,ISIC_0070110.JPG,ISIC_0070110.JPG,false,0,keypress(z),500,352846.1999999881,352845.90000000596,350181.844,350183.8000000119,350198.502,352862.846,8,400,34,,ISIC_0010044.JPG
break,html.Screen,4_83_1,2023-09-08T19:51:47.716Z,,0,,,NaN,,,,,,false,,,,352846.90000000596,352846.8000000119,,352846.3000000119,,352862.846,8,400,,,
break_continue,html.Screen,4_83_2,2023-09-08T19:51:47.716Z,,0,,,NaN,,,,,,false,,,,352847.1999999881,352847.09999999404,,352847,,352862.846,8,400,,,
sequence,flow.Sequence,4_83,2023-09-08T19:51:47.716Z,,0,,,2648.597999994061,completion,,,,,false,,,,352847.3000000119,352847.09999999404,350181.844,350183.8000000119,350198.502,352862.846,8,400,,,
trial,html.Screen,4_84_0,2023-09-08T19:51:50.739Z,,0,2,,3007.25399999402,response,ISIC_0034022.JPG,9,ISIC_1332766.JPG,ISIC_1332766.JPG,false,0,keypress(z),500,355870.3000000119,355870.09999999404,352846.186,352847.40000000596,352862.846,355876.877,8,400,35,,ISIC_0034022.JPG
break,html.Screen,4_84_1,2023-09-08T19:51:50.740Z,,0,,,NaN,,,,,,false,,,,355871.1999999881,355871,,355870.59999999404,,355876.877,8,400,,,
break_continue,html.Screen,4_84_2,2023-09-08T19:51:50.740Z,,0,,,NaN,,,,,,false,,,,355871.59999999404,355871.40000000596,,355871.40000000596,,355876.877,8,400,,,
sequence,flow.Sequence,4_84,2023-09-08T19:51:50.740Z,,0,,,3008.554000005941,completion,,,,,false,,,,355871.6999999881,355871.40000000596,352846.186,352847.40000000596,352862.846,355876.877,8,400,,,
trial,html.Screen,4_85_0,2023-09-08T19:51:53.275Z,,0,2,,2529.222999994061,response,ISIC_3737487.JPG,10,ISIC_3996796.JPG,ISIC_3996796.JPG,false,0,keypress(z),500,358406.3000000119,358406.09999999404,355860.225,355871.8000000119,355876.877,358408,8,400,36,,ISIC_3737487.JPG
break,html.Screen,4_85_1,2023-09-08T19:51:53.276Z,,0,,,NaN,,,,,,false,,,,358407.09999999404,358406.90000000596,,358406.59999999404,,358408,8,400,,,
break_continue,html.Screen,4_85_2,2023-09-08T19:51:53.276Z,,0,,,NaN,,,,,,false,,,,358407.40000000596,358407.3000000119,,358407.1999999881,,358408,8,400,,,
sequence,flow.Sequence,4_85,2023-09-08T19:51:53.276Z,,0,,,2530.4230000119423,completion,,,,,false,,,,358407.59999999404,358407.3000000119,355860.225,355871.8000000119,355876.877,358408,8,400,,,
trial,html.Screen,4_86_0,2023-09-08T19:51:56.587Z,,0,2,,3310,response,ISIC_0054932.JPG,10,ISIC_5216586.JPG,ISIC_5216586.JPG,false,0,keypress(z),500,361718.3000000119,361718,358391.348,358407.6999999881,358408,361721.786,8,400,37,,ISIC_0054932.JPG
break,html.Screen,4_86_1,2023-09-08T19:51:56.588Z,,0,,,NaN,,,,,,false,,,,361718.90000000596,361718.8000000119,,361718.40000000596,,361721.786,8,400,,,
break_continue,html.Screen,4_86_2,2023-09-08T19:51:56.588Z,,0,,,NaN,,,,,,false,,,,361719.1999999881,361719.09999999404,,361719,,361721.786,8,400,,,
sequence,flow.Sequence,4_86,2023-09-08T19:51:56.588Z,,0,,,3311.0999999940395,completion,,,,,false,,,,361719.40000000596,361719.09999999404,358391.348,358407.59999999404,358408,361721.786,8,400,,,
trial,html.Screen,4_87_0,2023-09-08T19:51:59.515Z,,0,2,,2924.3139999940176,response,ISIC_0056788.JPG,10,ISIC_8586909.JPG,ISIC_0056788.JPG,false,1,keypress(m),500,364646.5,364646.09999999404,361705.134,361719.5,361721.786,364652.561,8,400,38,,ISIC_8586909.JPG
break,html.Screen,4_87_1,2023-09-08T19:51:59.516Z,,0,,,NaN,,,,,,false,,,,364647.3000000119,364647.09999999404,,364646.6999999881,,364652.561,8,400,,,
break_continue,html.Screen,4_87_2,2023-09-08T19:51:59.516Z,,0,,,NaN,,,,,,false,,,,364647.6999999881,364647.59999999404,,364647.40000000596,,364652.561,8,400,,,
sequence,flow.Sequence,4_87,2023-09-08T19:51:59.517Z,,0,,,2925.8139999940176,completion,,,,,false,,,,364647.8000000119,364647.59999999404,361705.134,361719.5,361721.786,364652.561,8,400,,,
trial,html.Screen,4_88_0,2023-09-08T19:52:02.755Z,,0,2,,3233.3390000059735,response,ISIC_5290521.JPG,10,ISIC_0011073.JPG,ISIC_5290521.JPG,false,1,keypress(m),500,367886.1999999881,367885.90000000596,364635.909,364648,364652.561,367899.734,8,400,39,,ISIC_0011073.JPG
break,html.Screen,4_88_1,2023-09-08T19:52:02.756Z,,0,,,NaN,,,,,,false,,,,367887.1999999881,367886.6999999881,,367886.3000000119,,367899.734,8,400,,,
break_continue,html.Screen,4_88_2,2023-09-08T19:52:02.756Z,,0,,,NaN,,,,,,false,,,,367887.40000000596,367887.40000000596,,367887.3000000119,,367899.734,8,400,,,
sequence,flow.Sequence,4_88,2023-09-08T19:52:02.756Z,,0,,,3234.8390000059735,completion,,,,,false,,,,367887.6999999881,367887.40000000596,364635.909,364648,364652.561,367899.734,8,400,,,
trial,html.Screen,4_89_0,2023-09-08T19:52:06.347Z,,0,2,,3578.066000011924,response,ISIC_3193774.JPG,10,ISIC_0024226.JPG,ISIC_3193774.JPG,false,1,keypress(m),500,371478.09999999404,371477.8000000119,367883.082,367887.8000000119,367899.734,371496.597,8,400,40,,ISIC_0024226.JPG
break,html.Screen,4_89_1,2023-09-08T19:52:06.348Z,,0,,,NaN,,,,,,false,,,,371478.90000000596,371478.8000000119,,371478.3000000119,,371496.597,8,400,,,
break_continue,html.Screen,4_89_2,2023-09-08T19:52:06.348Z,,0,,,NaN,,,,,,false,,,,371479.09999999404,371479.09999999404,,371479,,371496.597,8,400,,,
sequence,flow.Sequence,4_89,2023-09-08T19:52:06.348Z,,0,,,3579.365999994043,completion,,,,,false,,,,371479.3000000119,371479.09999999404,367883.082,367887.8000000119,367899.734,371496.597,8,400,,,
trial,html.Screen,4_90_0,2023-09-08T19:52:10.939Z,,0,2,,4573.502999994031,response,ISIC_0014973.JPG,10,ISIC_5454766.JPG,ISIC_0014973.JPG,false,1,keypress(m),500,376070.40000000596,376070.09999999404,371479.945,371479.40000000596,371496.597,376075.935,8,400,41,,ISIC_5454766.JPG
break,html.Screen,4_90_1,2023-09-08T19:52:10.940Z,,0,,,NaN,,,,,,false,,,,376071.5,376071.3000000119,,376070.6999999881,,376075.935,8,400,,,
break_continue,html.Screen,4_90_2,2023-09-08T19:52:10.941Z,,0,,,NaN,,,,,,false,,,,376071.8000000119,376071.6999999881,,376071.59999999404,,376075.935,8,400,,,
sequence,flow.Sequence,4_90,2023-09-08T19:52:10.941Z,,0,,,4575.10299998807,completion,,,,,false,,,,376072,376071.6999999881,371479.945,371479.40000000596,371496.597,376075.935,8,400,,,
trial,html.Screen,4_91_0,2023-09-08T19:52:13.707Z,,0,2,,2761.7649999880814,response,ISIC_0031543.JPG,10,ISIC_0001148.JPG,ISIC_0031543.JPG,false,1,keypress(m),500,378838,378837.6999999881,376059.283,376072,376075.935,378840.2,8,400,42,,ISIC_0001148.JPG
break,html.Screen,4_91_1,2023-09-08T19:52:13.708Z,,0,,,NaN,,,,,,false,,,,378839.1999999881,378839,,378838.1999999881,,378840.2,8,400,,,
break_continue,html.Screen,4_91_2,2023-09-08T19:52:13.708Z,,0,,,NaN,,,,,,false,,,,378839.5,378839.40000000596,,378839.3000000119,,378840.2,8,400,,,
sequence,flow.Sequence,4_91,2023-09-08T19:52:13.708Z,,0,,,2763.465000005963,completion,,,,,false,,,,378839.59999999404,378839.40000000596,376059.283,376072,376075.935,378840.2,8,400,,,
trial,html.Screen,4_92_0,2023-09-08T19:52:16.515Z,,0,2,,2806.1000000119093,response,ISIC_0027021.JPG,10,ISIC_0055013.JPG,ISIC_0027021.JPG,false,1,keypress(m),500,381646.6999999881,381646.3000000119,378823.548,378839.6999999881,378840.2,381654.405,8,400,43,,ISIC_0055013.JPG
break,html.Screen,4_92_1,2023-09-08T19:52:16.516Z,,0,,,NaN,,,,,,false,,,,381647.5,381647.1999999881,,381646.8000000119,,381654.405,8,400,,,
break_continue,html.Screen,4_92_2,2023-09-08T19:52:16.517Z,,0,,,NaN,,,,,,false,,,,381647.90000000596,381647.6999999881,,381647.59999999404,,381654.405,8,400,,,
sequence,flow.Sequence,4_92,2023-09-08T19:52:16.517Z,,0,,,2807.4999999880674,completion,,,,,false,,,,381648,381647.6999999881,378823.548,378839.6999999881,378840.2,381654.405,8,400,,,
trial,html.Screen,4_93_0,2023-09-08T19:52:19.595Z,,0,2,,3071.395000011893,response,ISIC_2513018.JPG,9,ISIC_0031472.JPG,ISIC_2513018.JPG,false,1,keypress(m),500,384726.1999999881,384725.8000000119,381637.753,381648.09999999404,381654.405,384735.057,8,400,44,,ISIC_0031472.JPG
break,html.Screen,4_93_1,2023-09-08T19:52:19.596Z,,0,,,NaN,,,,,,false,,,,384727.3000000119,384727.09999999404,,384726.3000000119,,384735.057,8,400,,,
break_continue,html.Screen,4_93_2,2023-09-08T19:52:19.596Z,,0,,,NaN,,,,,,false,,,,384727.5,384727.40000000596,,384727.3000000119,,384735.057,8,400,,,
sequence,flow.Sequence,4_93,2023-09-08T19:52:19.596Z,,0,,,3072.9950000059325,completion,,,,,false,,,,384727.6999999881,384727.40000000596,381637.753,381648.09999999404,381654.405,384735.057,8,400,,,
trial,html.Screen,4_94_0,2023-09-08T19:52:22.499Z,,0,2,,2895.042999994068,response,ISIC_1343302.JPG,10,ISIC_0029397.JPG,ISIC_1343302.JPG,false,1,keypress(m),500,387630.40000000596,387630.09999999404,384718.405,384727.8000000119,384735.057,387632.534,8,400,45,,ISIC_0029397.JPG
break,html.Screen,4_94_1,2023-09-08T19:52:22.500Z,,0,,,NaN,,,,,,false,,,,387631.40000000596,387631,,387630.59999999404,,387632.534,8,400,,,
break_continue,html.Screen,4_94_2,2023-09-08T19:52:22.500Z,,0,,,NaN,,,,,,false,,,,387631.59999999404,387631.59999999404,,387631.5,,387632.534,8,400,,,
sequence,flow.Sequence,4_94,2023-09-08T19:52:22.501Z,,0,,,2896.542999994068,completion,,,,,false,,,,387631.8000000119,387631.59999999404,384718.405,384727.6999999881,384735.057,387632.534,8,400,,,
trial,html.Screen,4_95_0,2023-09-08T19:52:25.195Z,,0,2,,2693.3660000059754,response,ISIC_0025877.JPG,10,ISIC_0029898.JPG,ISIC_0029898.JPG,false,0,keypress(z),500,390326.1999999881,390325.90000000596,387615.882,387631.90000000596,387632.534,390330.173,8,400,46,,ISIC_0025877.JPG
break,html.Screen,4_95_1,2023-09-08T19:52:25.196Z,,0,,,NaN,,,,,,false,,,,390327.09999999404,390326.90000000596,,390326.40000000596,,390330.173,8,400,,,
break_continue,html.Screen,4_95_2,2023-09-08T19:52:25.196Z,,0,,,NaN,,,,,,false,,,,390327.40000000596,390327.3000000119,,390327.1999999881,,390330.173,8,400,,,
sequence,flow.Sequence,4_95,2023-09-08T19:52:25.196Z,,0,,,2694.766000011936,completion,,,,,false,,,,390327.59999999404,390327.3000000119,387615.882,387631.90000000596,387632.534,390330.173,8,400,,,
trial,html.Screen,4_96_0,2023-09-08T19:52:27.971Z,,0,2,,2771.9269999940298,response,ISIC_2876073.JPG,10,ISIC_3651451.JPG,ISIC_3651451.JPG,false,0,keypress(z),500,393102.5,393102.09999999404,390313.521,390327.59999999404,390330.173,393111.091,8,400,47,,ISIC_2876073.JPG
break,html.Screen,4_96_1,2023-09-08T19:52:27.972Z,,0,,,NaN,,,,,,false,,,,393103.40000000596,393103.09999999404,,393102.6999999881,,393111.091,8,400,,,
break_continue,html.Screen,4_96_2,2023-09-08T19:52:27.973Z,,0,,,NaN,,,,,,false,,,,393103.6999999881,393103.59999999404,,393103.5,,393111.091,8,400,,,
sequence,flow.Sequence,4_96,2023-09-08T19:52:27.973Z,,0,,,2773.4269999940298,completion,,,,,false,,,,393103.90000000596,393103.59999999404,390313.521,390327.59999999404,390330.173,393111.091,8,400,,,
trial,html.Screen,4_97_0,2023-09-08T19:52:30.811Z,,0,2,,2830.8090000059456,response,ISIC_4292879.JPG,6,ISIC_9863059.JPG,ISIC_4292879.JPG,false,1,keypress(m),500,395942.1999999881,395941.90000000596,393094.439,393104,393111.091,395958.613,8,400,48,,ISIC_9863059.JPG
break,html.Screen,4_97_1,2023-09-08T19:52:30.812Z,,0,,,NaN,,,,,,false,,,,395943.3000000119,395943.1999999881,,395942.40000000596,,395958.613,8,400,,,
break_continue,html.Screen,4_97_2,2023-09-08T19:52:30.812Z,,0,,,NaN,,,,,,false,,,,395943.59999999404,395943.5,,395943.40000000596,,395958.613,8,400,,,
sequence,flow.Sequence,4_97,2023-09-08T19:52:30.813Z,,0,,,2832.408999999985,completion,,,,,false,,,,395943.8000000119,395943.5,393094.439,393104,393111.091,395958.613,8,400,,,
trial,html.Screen,4_98_0,2023-09-08T19:52:33.427Z,,0,2,,2599.4869999940274,response,ISIC_0000240.JPG,10,ISIC_0013258.JPG,ISIC_0013258.JPG,false,0,keypress(z),500,398558.5,398558.09999999404,395941.951,395943.90000000596,395958.613,398573,8,400,49,,ISIC_0000240.JPG
break,html.Screen,4_98_1,2023-09-08T19:52:33.428Z,,0,,,NaN,,,,,,false,,,,398559.1999999881,398559,,398558.6999999881,,398573,8,400,,,
break_continue,html.Screen,4_98_2,2023-09-08T19:52:33.428Z,,0,,,NaN,,,,,,false,,,,398559.40000000596,398559.3000000119,,398559.3000000119,,398573,8,400,,,
sequence,flow.Sequence,4_98,2023-09-08T19:52:33.428Z,,0,,,2600.687000011909,completion,,,,,false,,,,398559.59999999404,398559.3000000119,395941.951,395943.90000000596,395958.613,398573,8,400,,,
trial,html.Screen,4_99_0,2023-09-08T19:52:36.251Z,,0,2,,2808.800000011921,response,ISIC_0033946.JPG,10,ISIC_0030443.JPG,ISIC_0033946.JPG,false,1,keypress(m),500,401382.09999999404,401381.8000000119,398556.339,398559.8000000119,398573,401387.21,8,400,50,,ISIC_0030443.JPG
break,html.Screen,4_99_1,2023-09-08T19:52:46.248Z,,0,,,10007.947999999975,timeout,,,,,false,,,,411379.6999999881,411378.508,401370.558,401382.1999999881,401387.21,411395.158,8,400,,,
break_continue,html.Screen,4_99_2,2023-09-08T19:52:48.886Z,,0,,,2601.142000011925,response,,,,,false,continue,keypress(Space),,414017.5,413996.3000000119,411378.508,411379.6999999881,411395.158,414026.18,8,400,,,
sequence,flow.Sequence,4_99,2023-09-08T19:52:48.886Z,,0,,,15423.300000011921,completion,,,,,false,,,,414017.6999999881,413996.3000000119,398556.339,398559.8000000119,398573,414026.18,8,400,,,
trial,html.Screen,4_100_0,2023-09-08T19:52:52.299Z,,0,3,,3403.9199999940465,response,ISIC_2772066.JPG,7,ISIC_0063295.JPG,ISIC_0063295.JPG,false,0,keypress(z),500,417430.40000000596,417430.09999999404,414009.528,414017.90000000596,414026.18,417439.88,8,400,1,,ISIC_2772066.JPG
break,html.Screen,4_100_1,2023-09-08T19:52:52.300Z,,0,,,NaN,,,,,,false,,,,417431.3000000119,417431,,417430.5,,417439.88,8,400,,,
break_continue,html.Screen,4_100_2,2023-09-08T19:52:52.300Z,,0,,,NaN,,,,,,false,,,,417431.59999999404,417431.40000000596,,417431.40000000596,,417439.88,8,400,,,
sequence,flow.Sequence,4_100,2023-09-08T19:52:52.301Z,,0,,,3405.2200000059674,completion,,,,,false,,,,417431.8000000119,417431.40000000596,414009.528,414017.8000000119,414026.18,417439.88,8,400,,,
trial,html.Screen,4_101_0,2023-09-08T19:52:55.523Z,,0,3,,3213.9200000119163,response,ISIC_2909153.JPG,10,ISIC_0963531.JPG,ISIC_0963531.JPG,false,0,keypress(z),500,420654.09999999404,420653.8000000119,417423.228,417431.90000000596,417439.88,420670.4,8,400,2,,ISIC_2909153.JPG
break,html.Screen,4_101_1,2023-09-08T19:52:55.524Z,,0,,,NaN,,,,,,false,,,,420655.1999999881,420655.09999999404,,420654.3000000119,,420670.4,8,400,,,
break_continue,html.Screen,4_101_2,2023-09-08T19:52:55.524Z,,0,,,NaN,,,,,,false,,,,420655.5,420655.40000000596,,420655.3000000119,,420670.4,8,400,,,
sequence,flow.Sequence,4_101,2023-09-08T19:52:55.524Z,,0,,,3215.520000005956,completion,,,,,false,,,,420655.6999999881,420655.40000000596,417423.228,417431.90000000596,417439.88,420670.4,8,400,,,
trial,html.Screen,4_102_0,2023-09-08T19:52:58.419Z,,0,3,,2879.5999999999767,response,ISIC_0058016.JPG,10,ISIC_6171084.JPG,ISIC_0058016.JPG,false,1,keypress(m),500,423550.3000000119,423550,420653.748,420655.8000000119,420670.4,423551.227,8,400,3,,ISIC_6171084.JPG
break,html.Screen,4_102_1,2023-09-08T19:52:58.420Z,,0,,,NaN,,,,,,false,,,,423551.3000000119,423551,,423550.5,,423551.227,8,400,,,
break_continue,html.Screen,4_102_2,2023-09-08T19:52:58.420Z,,0,,,NaN,,,,,,false,,,,423551.6999999881,423551.59999999404,,423551.40000000596,,423551.227,8,400,,,
sequence,flow.Sequence,4_102,2023-09-08T19:52:58.421Z,,0,,,2881.1999999940163,completion,,,,,false,,,,423551.8000000119,423551.59999999404,420653.748,420655.6999999881,420670.4,423551.227,8,400,,,
trial,html.Screen,4_103_0,2023-09-08T19:53:01.339Z,,0,3,,2918.7729999999865,response,ISIC_9747194.JPG,10,ISIC_0002347.JPG,ISIC_0002347.JPG,false,0,keypress(z),500,426470.40000000596,426470,423534.575,423551.90000000596,423551.227,426482.01,8,400,4,,ISIC_9747194.JPG
break,html.Screen,4_103_1,2023-09-08T19:53:01.340Z,,0,,,NaN,,,,,,false,,,,426471.09999999404,426470.90000000596,,426470.5,,426482.01,8,400,,,
break_continue,html.Screen,4_103_2,2023-09-08T19:53:01.340Z,,0,,,NaN,,,,,,false,,,,426471.40000000596,426471.1999999881,,426471.1999999881,,426482.01,8,400,,,
sequence,flow.Sequence,4_103,2023-09-08T19:53:01.340Z,,0,,,2919.9729999880656,completion,,,,,false,,,,426471.5,426471.1999999881,423534.575,423551.90000000596,423551.227,426482.01,8,400,,,
trial,html.Screen,4_104_0,2023-09-08T19:53:04.171Z,,0,3,,2819.6899999880698,response,ISIC_6370977.JPG,10,ISIC_5152000.JPG,ISIC_5152000.JPG,false,0,keypress(z),500,429302,429301.6999999881,426465.358,426471.6999999881,426482.01,429312.867,8,400,5,,ISIC_6370977.JPG
break,html.Screen,4_104_1,2023-09-08T19:53:04.172Z,,0,,,NaN,,,,,,false,,,,429302.90000000596,429302.6999999881,,429302.1999999881,,429312.867,8,400,,,
break_continue,html.Screen,4_104_2,2023-09-08T19:53:04.172Z,,0,,,NaN,,,,,,false,,,,429303.09999999404,429303,,429302.90000000596,,429312.867,8,400,,,
sequence,flow.Sequence,4_104,2023-09-08T19:53:04.172Z,,0,,,2820.9899999999907,completion,,,,,false,,,,429303.1999999881,429303,426465.358,426471.59999999404,426482.01,429312.867,8,400,,,
trial,html.Screen,4_105_0,2023-09-08T19:53:06.931Z,,0,3,,2749.1329999999725,response,ISIC_3596927.JPG,10,ISIC_5839679.JPG,ISIC_5839679.JPG,false,0,keypress(z),500,432062.3000000119,432062,429296.215,429303.40000000596,429312.867,432077.128,8,400,6,,ISIC_3596927.JPG
break,html.Screen,4_105_1,2023-09-08T19:53:06.932Z,,0,,,NaN,,,,,,false,,,,432063.1999999881,432063.09999999404,,432062.40000000596,,432077.128,8,400,,,
break_continue,html.Screen,4_105_2,2023-09-08T19:53:06.932Z,,0,,,NaN,,,,,,false,,,,432063.59999999404,432063.5,,432063.3000000119,,432077.128,8,400,,,
sequence,flow.Sequence,4_105,2023-09-08T19:53:06.933Z,,0,,,2750.6329999999725,completion,,,,,false,,,,432063.6999999881,432063.5,429296.215,429303.3000000119,429312.867,432077.128,8,400,,,
trial,html.Screen,4_106_0,2023-09-08T19:53:09.795Z,,0,3,,2849.071999988053,response,ISIC_0067159.JPG,10,ISIC_0034101.JPG,ISIC_0034101.JPG,false,0,keypress(z),500,434926.5,434926.1999999881,432060.47,432063.8000000119,432077.128,434941.297,8,400,7,,ISIC_0067159.JPG
break,html.Screen,4_106_1,2023-09-08T19:53:09.796Z,,0,,,NaN,,,,,,false,,,,434927.40000000596,434927.1999999881,,434926.6999999881,,434941.297,8,400,,,
break_continue,html.Screen,4_106_2,2023-09-08T19:53:09.797Z,,0,,,NaN,,,,,,false,,,,434927.8000000119,434927.6999999881,,434927.5,,434941.297,8,400,,,
sequence,flow.Sequence,4_106,2023-09-08T19:53:09.797Z,,0,,,2850.571999988053,completion,,,,,false,,,,434927.90000000596,434927.6999999881,432060.47,432063.8000000119,432077.128,434941.297,8,400,,,
trial,html.Screen,4_107_0,2023-09-08T19:53:12.619Z,,0,3,,2809.0030000119004,response,ISIC_2200197.JPG,10,ISIC_6336926.JPG,ISIC_2200197.JPG,false,1,keypress(m),500,437750.59999999404,437750.3000000119,434924.645,434928,434941.297,437755.504,8,400,8,,ISIC_6336926.JPG
break,html.Screen,4_107_1,2023-09-08T19:53:12.620Z,,0,,,NaN,,,,,,false,,,,437751.59999999404,437751.3000000119,,437750.6999999881,,437755.504,8,400,,,
break_continue,html.Screen,4_107_2,2023-09-08T19:53:12.621Z,,0,,,NaN,,,,,,false,,,,437751.90000000596,437751.6999999881,,437751.59999999404,,437755.504,8,400,,,
sequence,flow.Sequence,4_107,2023-09-08T19:53:12.621Z,,0,,,2810.4029999880586,completion,,,,,false,,,,437752.09999999404,437751.6999999881,434924.645,434927.90000000596,434941.297,437755.504,8,400,,,
trial,html.Screen,4_108_0,2023-09-08T19:53:15.499Z,,0,3,,2874.396000005945,response,ISIC_0025448.JPG,10,ISIC_0073075.JPG,ISIC_0025448.JPG,false,1,keypress(m),500,440630.3000000119,440629.90000000596,437738.852,437752.09999999404,437755.504,440636.331,8,400,9,,ISIC_0073075.JPG
break,html.Screen,4_108_1,2023-09-08T19:53:15.500Z,,0,,,NaN,,,,,,false,,,,440631.3000000119,440631.1999999881,,440630.40000000596,,440636.331,8,400,,,
break_continue,html.Screen,4_108_2,2023-09-08T19:53:15.500Z,,0,,,NaN,,,,,,false,,,,440631.6999999881,440631.59999999404,,440631.5,,440636.331,8,400,,,
sequence,flow.Sequence,4_108,2023-09-08T19:53:15.501Z,,0,,,2876.095999994024,completion,,,,,false,,,,440631.90000000596,440631.59999999404,437738.852,437752.09999999404,437755.504,440636.331,8,400,,,
trial,html.Screen,4_109_0,2023-09-08T19:53:18.515Z,,0,3,,3009.768999994034,response,ISIC_6914698.JPG,10,ISIC_7883190.JPG,ISIC_7883190.JPG,false,0,keypress(z),500,443646.5,443646.09999999404,440619.679,440631.90000000596,440636.331,443650.365,8,400,10,,ISIC_6914698.JPG
break,html.Screen,4_109_1,2023-09-08T19:53:18.516Z,,0,,,NaN,,,,,,false,,,,443647.5,443647.40000000596,,443646.6999999881,,443650.365,8,400,,,
break_continue,html.Screen,4_109_2,2023-09-08T19:53:18.517Z,,0,,,NaN,,,,,,false,,,,443647.8000000119,443647.6999999881,,443647.6999999881,,443650.365,8,400,,,
sequence,flow.Sequence,4_109,2023-09-08T19:53:18.517Z,,0,,,3011.3689999880735,completion,,,,,false,,,,443647.90000000596,443647.6999999881,440619.679,440631.90000000596,440636.331,443650.365,8,400,,,
trial,html.Screen,4_110_0,2023-09-08T19:53:22.067Z,,0,3,,3547.4350000119302,response,ISIC_0558485.JPG,10,ISIC_0061479.JPG,ISIC_0061479.JPG,false,0,keypress(z),500,447198.1999999881,447197.8000000119,443633.713,443648.09999999404,443650.365,447213.935,8,400,11,,ISIC_0558485.JPG
break,html.Screen,4_110_1,2023-09-08T19:53:22.068Z,,0,,,NaN,,,,,,false,,,,447199.1999999881,447199.09999999404,,447198.3000000119,,447213.935,8,400,,,
break_continue,html.Screen,4_110_2,2023-09-08T19:53:22.068Z,,0,,,NaN,,,,,,false,,,,447199.59999999404,447199.5,,447199.3000000119,,447213.935,8,400,,,
sequence,flow.Sequence,4_110,2023-09-08T19:53:22.069Z,,0,,,3549.1350000000093,completion,,,,,false,,,,447199.6999999881,447199.5,443633.713,443648.09999999404,443650.365,447213.935,8,400,,,
trial,html.Screen,4_111_0,2023-09-08T19:53:26.243Z,,0,3,,4159.965000005963,response,ISIC_0061580.JPG,10,ISIC_0348633.JPG,ISIC_0061580.JPG,false,1,keypress(m),500,451374.1999999881,451373.90000000596,447197.277,447199.8000000119,447213.935,451376.967,8,400,12,,ISIC_0348633.JPG
break,html.Screen,4_111_1,2023-09-08T19:53:26.244Z,,0,,,NaN,,,,,,false,,,,451375.09999999404,451374.90000000596,,451374.40000000596,,451376.967,8,400,,,
break_continue,html.Screen,4_111_2,2023-09-08T19:53:26.244Z,,0,,,NaN,,,,,,false,,,,451375.40000000596,451375.3000000119,,451375.1999999881,,451376.967,8,400,,,
sequence,flow.Sequence,4_111,2023-09-08T19:53:26.244Z,,0,,,4161.365000011923,completion,,,,,false,,,,451375.59999999404,451375.3000000119,447197.277,447199.8000000119,447213.935,451376.967,8,400,,,
trial,html.Screen,4_112_0,2023-09-08T19:53:29.139Z,,0,3,,2893.232999988075,response,ISIC_0064763.JPG,10,ISIC_0053734.JPG,ISIC_0053734.JPG,false,0,keypress(z),500,454270.5,454270.1999999881,451360.315,451375.6999999881,451376.967,454274.439,8,400,13,,ISIC_0064763.JPG
break,html.Screen,4_112_1,2023-09-08T19:53:29.140Z,,0,,,NaN,,,,,,false,,,,454271.1999999881,454271.09999999404,,454270.6999999881,,454274.439,8,400,,,
break_continue,html.Screen,4_112_2,2023-09-08T19:53:29.140Z,,0,,,NaN,,,,,,false,,,,454271.59999999404,454271.5,,454271.40000000596,,454274.439,8,400,,,
sequence,flow.Sequence,4_112,2023-09-08T19:53:29.141Z,,0,,,2894.532999999996,completion,,,,,false,,,,454271.8000000119,454271.5,451360.315,451375.59999999404,451376.967,454274.439,8,400,,,
trial,html.Screen,4_113_0,2023-09-08T19:53:31.923Z,,0,3,,2779.861000011908,response,ISIC_1929937.JPG,10,ISIC_0029675.JPG,ISIC_0029675.JPG,false,0,keypress(z),500,457054.5,457054.3000000119,454257.787,454271.90000000596,454274.439,457072.008,8,400,14,,ISIC_1929937.JPG
break,html.Screen,4_113_1,2023-09-08T19:53:31.924Z,,0,,,NaN,,,,,,false,,,,457055.1999999881,457055,,457054.6999999881,,457072.008,8,400,,,
break_continue,html.Screen,4_113_2,2023-09-08T19:53:31.924Z,,0,,,NaN,,,,,,false,,,,457055.5,457055.40000000596,,457055.3000000119,,457072.008,8,400,,,
sequence,flow.Sequence,4_113,2023-09-08T19:53:31.924Z,,0,,,2780.9610000059474,completion,,,,,false,,,,457055.59999999404,457055.40000000596,454257.787,454271.90000000596,454274.439,457072.008,8,400,,,
trial,html.Screen,4_114_0,2023-09-08T19:53:34.603Z,,0,3,,2661.9920000000275,response,ISIC_8693637.JPG,10,ISIC_0000552.JPG,ISIC_0000552.JPG,false,0,keypress(z),500,459734.3000000119,459734,457055.353,457055.8000000119,457072.008,459736.343,8,400,15,,ISIC_8693637.JPG
break,html.Screen,4_114_1,2023-09-08T19:53:34.604Z,,0,,,NaN,,,,,,false,,,,459735.5,459735.40000000596,,459734.6999999881,,459736.343,8,400,,,
break_continue,html.Screen,4_114_2,2023-09-08T19:53:34.605Z,,0,,,NaN,,,,,,false,,,,459735.8000000119,459735.6999999881,,459735.59999999404,,459736.343,8,400,,,
sequence,flow.Sequence,4_114,2023-09-08T19:53:34.605Z,,0,,,2663.6919999881065,completion,,,,,false,,,,459736,459735.6999999881,457055.353,457055.8000000119,457072.008,459736.343,8,400,,,
trial,html.Screen,4_115_0,2023-09-08T19:53:37.307Z,,0,3,,2701.756999994046,response,ISIC_0029814.JPG,9,ISIC_4252268.JPG,ISIC_0029814.JPG,false,1,keypress(m),500,462438.40000000596,462438.09999999404,459719.691,459736,459736.343,462450.646,8,400,16,,ISIC_4252268.JPG
break,html.Screen,4_115_1,2023-09-08T19:53:37.308Z,,0,,,NaN,,,,,,false,,,,462439.3000000119,462439,,462438.6999999881,,462450.646,8,400,,,
break_continue,html.Screen,4_115_2,2023-09-08T19:53:37.308Z,,0,,,NaN,,,,,,false,,,,462439.5,462439.40000000596,,462439.40000000596,,462450.646,8,400,,,
sequence,flow.Sequence,4_115,2023-09-08T19:53:37.308Z,,0,,,2703.057000005967,completion,,,,,false,,,,462439.6999999881,462439.40000000596,459719.691,459736,459736.343,462450.646,8,400,,,
trial,html.Screen,4_116_0,2023-09-08T19:53:40.363Z,,0,3,,3043.4539999940316,response,ISIC_7218890.JPG,10,ISIC_0069167.JPG,ISIC_0069167.JPG,false,0,keypress(z),500,465494.40000000596,465494.09999999404,462433.994,462439.8000000119,462450.646,465497.999,8,400,17,,ISIC_7218890.JPG
break,html.Screen,4_116_1,2023-09-08T19:53:40.364Z,,0,,,NaN,,,,,,false,,,,465495.5,465495.40000000596,,465494.59999999404,,465497.999,8,400,,,
break_continue,html.Screen,4_116_2,2023-09-08T19:53:40.365Z,,0,,,NaN,,,,,,false,,,,465495.8000000119,465495.6999999881,,465495.59999999404,,465497.999,8,400,,,
sequence,flow.Sequence,4_116,2023-09-08T19:53:40.365Z,,0,,,3045.053999988071,completion,,,,,false,,,,465495.90000000596,465495.6999999881,462433.994,462439.8000000119,462450.646,465497.999,8,400,,,
trial,html.Screen,4_117_0,2023-09-08T19:53:43.299Z,,0,3,,2931.9010000059498,response,ISIC_2222879.JPG,10,ISIC_2945324.JPG,ISIC_2945324.JPG,false,0,keypress(z),500,468430.1999999881,468429.90000000596,465481.347,465496,465497.999,468445.428,8,400,18,,ISIC_2222879.JPG
break,html.Screen,4_117_1,2023-09-08T19:53:43.300Z,,0,,,NaN,,,,,,false,,,,468431.40000000596,468431.09999999404,,468430.40000000596,,468445.428,8,400,,,
break_continue,html.Screen,4_117_2,2023-09-08T19:53:43.301Z,,0,,,NaN,,,,,,false,,,,468432,468431.6999999881,,468431.59999999404,,468445.428,8,400,,,
sequence,flow.Sequence,4_117,2023-09-08T19:53:43.301Z,,0,,,2933.7009999880684,completion,,,,,false,,,,468432.09999999404,468431.6999999881,465481.347,465496,465497.999,468445.428,8,400,,,
trial,html.Screen,4_118_0,2023-09-08T19:53:46.275Z,,0,3,,2960.671999994025,response,ISIC_7412327.JPG,9,ISIC_0046633.JPG,ISIC_7412327.JPG,false,1,keypress(m),500,471406.40000000596,471406.09999999404,468428.768,468432.3000000119,468445.428,471409.512,8,400,19,,ISIC_0046633.JPG
break,html.Screen,4_118_1,2023-09-08T19:53:46.276Z,,0,,,NaN,,,,,,false,,,,471407.1999999881,471407,,471406.6999999881,,471409.512,8,400,,,
break_continue,html.Screen,4_118_2,2023-09-08T19:53:46.276Z,,0,,,NaN,,,,,,false,,,,471407.5,471407.3000000119,,471407.3000000119,,471409.512,8,400,,,
sequence,flow.Sequence,4_118,2023-09-08T19:53:46.276Z,,0,,,2961.8720000119065,completion,,,,,false,,,,471407.59999999404,471407.3000000119,468428.768,468432.1999999881,468445.428,471409.512,8,400,,,
trial,html.Screen,4_119_0,2023-09-08T19:53:49.139Z,,0,3,,2860.187999988091,response,ISIC_7024807.JPG,9,ISIC_0561249.JPG,ISIC_0561249.JPG,false,0,keypress(z),500,474270,474269.6999999881,471392.86,471407.8000000119,471409.512,474273.673,8,400,20,,ISIC_7024807.JPG
break,html.Screen,4_119_1,2023-09-08T19:53:49.140Z,,0,,,NaN,,,,,,false,,,,474270.8000000119,474270.6999999881,,474270.1999999881,,474273.673,8,400,,,
break_continue,html.Screen,4_119_2,2023-09-08T19:53:49.140Z,,0,,,NaN,,,,,,false,,,,474271.1999999881,474271,,474271,,474273.673,8,400,,,
sequence,flow.Sequence,4_119,2023-09-08T19:53:49.140Z,,0,,,2861.488000000012,completion,,,,,false,,,,474271.3000000119,474271,471392.86,471407.6999999881,471409.512,474273.673,8,400,,,
trial,html.Screen,4_120_0,2023-09-08T19:53:52.283Z,,0,3,,3140.4269999940298,response,ISIC_0032913.JPG,10,ISIC_2467623.JPG,ISIC_0032913.JPG,false,1,keypress(m),500,477414.40000000596,477414.09999999404,474257.021,474271.40000000596,474273.673,477420.927,8,400,21,,ISIC_2467623.JPG
break,html.Screen,4_120_1,2023-09-08T19:53:52.284Z,,0,,,NaN,,,,,,false,,,,477415.59999999404,477415.40000000596,,477414.6999999881,,477420.927,8,400,,,
break_continue,html.Screen,4_120_2,2023-09-08T19:53:52.285Z,,0,,,NaN,,,,,,false,,,,477415.8000000119,477415.6999999881,,477415.59999999404,,477420.927,8,400,,,
sequence,flow.Sequence,4_120,2023-09-08T19:53:52.285Z,,0,,,3142.0269999880693,completion,,,,,false,,,,477416,477415.6999999881,474257.021,474271.3000000119,474273.673,477420.927,8,400,,,
trial,html.Screen,4_121_0,2023-09-08T19:53:55.163Z,,0,3,,2872.9730000059353,response,ISIC_7016261.JPG,7,ISIC_8563961.JPG,ISIC_7016261.JPG,false,1,keypress(m),500,480294.1999999881,480293.90000000596,477404.275,477418.5,477420.927,480301.75,8,400,22,,ISIC_8563961.JPG
break,html.Screen,4_121_1,2023-09-08T19:53:55.164Z,,0,,,NaN,,,,,,false,,,,480295.3000000119,480295.1999999881,,480294.40000000596,,480301.75,8,400,,,
break_continue,html.Screen,4_121_2,2023-09-08T19:53:55.164Z,,0,,,NaN,,,,,,false,,,,480295.6999999881,480295.5,,480295.40000000596,,480301.75,8,400,,,
sequence,flow.Sequence,4_121,2023-09-08T19:53:55.165Z,,0,,,2874.572999999975,completion,,,,,false,,,,480295.8000000119,480295.5,477404.275,477418.5,477420.927,480301.75,8,400,,,
trial,html.Screen,4_122_0,2023-09-08T19:53:59.099Z,,0,3,,3928.1500000059605,response,ISIC_9950866.JPG,10,ISIC_0070752.JPG,ISIC_9950866.JPG,false,1,keypress(m),500,484230.1999999881,484229.90000000596,480285.098,480295.90000000596,480301.75,484248.313,8,400,23,,ISIC_0070752.JPG
break,html.Screen,4_122_1,2023-09-08T19:53:59.101Z,,0,,,NaN,,,,,,false,,,,484231.90000000596,484231.5,,484231.09999999404,,484248.313,8,400,,,
break_continue,html.Screen,4_122_2,2023-09-08T19:53:59.101Z,,0,,,NaN,,,,,,false,,,,484232.6999999881,484232.40000000596,,484232.09999999404,,484248.313,8,400,,,
sequence,flow.Sequence,4_122,2023-09-08T19:53:59.102Z,,0,,,3930.6500000059605,completion,,,,,false,,,,484232.90000000596,484232.40000000596,480285.098,480295.90000000596,480301.75,484248.313,8,400,,,
trial,html.Screen,4_123_0,2023-09-08T19:54:02.259Z,,0,3,,3141.3869999880553,response,ISIC_3503302.JPG,9,ISIC_0624498.JPG,ISIC_0624498.JPG,false,0,keypress(z),500,487390.5,487389.6999999881,484231.661,484233,484248.313,487412.234,8,400,24,,ISIC_3503302.JPG
break,html.Screen,4_123_1,2023-09-08T19:54:02.260Z,,0,,,NaN,,,,,,false,,,,487391.1999999881,487391.09999999404,,487390.6999999881,,487412.234,8,400,,,
break_continue,html.Screen,4_123_2,2023-09-08T19:54:02.260Z,,0,,,NaN,,,,,,false,,,,487391.59999999404,487391.40000000596,,487391.3000000119,,487412.234,8,400,,,
sequence,flow.Sequence,4_123,2023-09-08T19:54:02.261Z,,0,,,3143.0870000059367,completion,,,,,false,,,,487391.8000000119,487391.40000000596,484231.661,484232.90000000596,484248.313,487412.234,8,400,,,
trial,html.Screen,4_124_0,2023-09-08T19:54:05.130Z,,0,3,,2848.566000011924,response,ISIC_9442018.JPG,10,ISIC_0059037.JPG,ISIC_9442018.JPG,false,1,keypress(m),500,490261.09999999404,490260.8000000119,487395.572,487391.90000000596,487412.234,490293.051,8,400,25,,ISIC_0059037.JPG
break,html.Screen,4_124_1,2023-09-08T19:54:05.131Z,,0,,,NaN,,,,,,false,,,,490261.8000000119,490261.59999999404,,490261.1999999881,,490293.051,8,400,,,
break_continue,html.Screen,4_124_2,2023-09-08T19:54:05.131Z,,0,,,NaN,,,,,,false,,,,490262.1999999881,490262.09999999404,,490261.90000000596,,490293.051,8,400,,,
sequence,flow.Sequence,4_124,2023-09-08T19:54:05.131Z,,0,,,2849.865999994043,completion,,,,,false,,,,490262.40000000596,490262.09999999404,487395.572,487391.8000000119,487412.234,490293.051,8,400,,,
