sender,sender_type,sender_id,timestamp,meta,,blockNo,condition,duration,ended_on,img_left,img_reveal,img_right,loser,practice,response,response_action,selection_duration,time_commit,time_end,time_render,time_run,time_show,time_switch,total_blocks,total_trials,trialNo,url,winner
informed_consent,html.Screen,0,2023-09-15T16:25:08.105Z,"{""labjs_version"":""20.2.4"",""labjs_build"":{""flavor"":""production"",""commit"":""f5b4a49f956347addd546a832a3327688c2c0fef""},""location"":""https://run.pavlovia.org/MurrayBennett/melanoma-2afc/?participant=67530&platform=sona"",""userAgent"":""Mozilla/5.0 (Windows NT 10.0; Win64; x64) AppleWebKit/537.36 (KHTML, like Gecko) Chrome/116.0.0.0 Safari/537.36"",""platform"":""Win32"",""language"":""en-US"",""locale"":""en-US"",""timeZone"":""America/Chicago"",""timezoneOffset"":300,""screen_width"":1383,""screen_height"":864,""scroll_width"":1383,""scroll_height"":659,""window_innerWidth"":1383,""window_innerHeight"":707,""devicePixelRatio"":2.5}",,,,3436.5370000059606,response,,,,,,consent,click button,,7481.100000023842,7478.9000000059605,4025.686,4023.100000023842,4042.363,7484.151,,,,"{""participant"":""67530"",""platform"":""sona""}",
Welcome,html.Screen,1,2023-09-15T16:25:12.911Z,,,,irregular,4802.549000017882,response,,,,,,continue,click button,,12287.40000000596,12286.700000017881,7463.052,7481.4000000059605,7484.151,12303.912,,,,,
trial,html.Screen,2_0_0,2023-09-15T16:25:22.842Z,,0,0,,9913.788000017881,response,ISIC_0061792.JPG,,ISIC_4679428.JPG,ISIC_0061792.JPG,true,1,keypress(m),500,22218.30000001192,22217.70000001788,12270.621,12287.5,12303.912,22225.678,1,6,1,,ISIC_4679428.JPG
sequence,flow.Sequence,2_0,2023-09-15T16:25:22.843Z,,0,,,9913.788000017881,completion,,,,,true,,,,22218.70000001788,22217.70000001788,12270.621,12287.5,12303.912,22225.678,1,6,,,
trial,html.Screen,2_1_0,2023-09-15T16:25:30.989Z,,0,0,,8139.122000011921,response,ISIC_5199497.JPG,,ISIC_0776486.JPG,ISIC_0776486.JPG,true,0,keypress(z),500,30365,30364.80000001192,22215.601,22218.90000000596,22225.678,30388.909,1,6,2,,ISIC_5199497.JPG
sequence,flow.Sequence,2_1,2023-09-15T16:25:30.989Z,,0,,,8139.122000011921,completion,,,,,true,,,,30365.30000001192,30364.80000001192,22215.601,22218.80000001192,22225.678,30388.909,1,6,,,
trial,html.Screen,2_2_0,2023-09-15T16:25:38.472Z,,0,0,,7458.491000005961,response,ISIC_8575776.JPG,,ISIC_2556187.JPG,ISIC_8575776.JPG,true,1,keypress(m),500,37847.70000001788,37847.40000000596,30360.488,30365.40000000596,30388.909,37871.624,1,6,3,,ISIC_2556187.JPG
sequence,flow.Sequence,2_2,2023-09-15T16:25:38.472Z,,0,,,7458.491000005961,completion,,,,,true,,,,37848,37847.40000000596,30360.488,30365.40000000596,30388.909,37871.624,1,6,,,
trial,html.Screen,2_3_0,2023-09-15T16:25:42.142Z,,0,0,,3646.276000005957,response,ISIC_8141769.JPG,,ISIC_9238366.JPG,ISIC_8141769.JPG,true,1,keypress(m),500,41518.20000001788,41517.90000000596,37840.354,37848.10000002384,37871.624,41542.034,1,6,4,,ISIC_9238366.JPG
sequence,flow.Sequence,2_3,2023-09-15T16:25:42.142Z,,0,,,3646.276000005957,completion,,,,,true,,,,41518.40000000596,41517.90000000596,37840.354,37848.10000002384,37871.624,41542.034,1,6,,,
trial,html.Screen,2_4_0,2023-09-15T16:25:50.074Z,,0,0,,7907.666000017882,response,ISIC_8949026.JPG,,ISIC_9959593.JPG,ISIC_8949026.JPG,true,1,keypress(m),500,49450.10000002384,49449.70000001788,41514.999,41518.5,41542.034,49473.877,1,6,5,,ISIC_9959593.JPG
sequence,flow.Sequence,2_4,2023-09-15T16:25:50.074Z,,0,,,7907.666000017882,completion,,,,,true,,,,49450.30000001192,49449.70000001788,41514.999,41518.5,41542.034,49473.877,1,6,,,
trial,html.Screen,2_5_0,2023-09-15T16:25:53.230Z,,0,0,,3131.7230000238415,response,ISIC_0010479.JPG,,ISIC_0460240.JPG,ISIC_0460240.JPG,true,0,keypress(z),500,52605.90000000596,52605.60000002384,49442.036,49450.40000000596,49473.877,52630.028,1,6,6,,ISIC_0010479.JPG
sequence,flow.Sequence,2_5,2023-09-15T16:25:53.230Z,,0,,,3131.7230000238415,completion,,,,,true,,,,52606.20000001788,52605.60000002384,49442.036,49450.40000000596,49473.877,52630.028,1,6,,,
loop,flow.Loop,2,2023-09-15T16:25:53.230Z,,,,,40301.688000023845,completion,,,,,true,,,,52606.30000001192,52605.60000002384,12270.621,12287.5,12303.912,52630.028,1,6,,,
exp_instructions,html.Screen,3,2023-09-15T16:25:55.325Z,,,,,2069.9720000000016,response,,,,,,continue,keypress(Space),,54701,54700,52600.962,52606.40000000596,52630.028,54707.791,,,,,
trial,html.Screen,4_0_0,2023-09-15T16:25:59.129Z,,0,1,,3797.409000017884,response,ISIC_0016103.JPG,6,ISIC_1661837.JPG,ISIC_1661837.JPG,false,0,keypress(z),500,58505.60000002384,58505.20000001788,54699.204,54701.20000001788,54707.791,58529.166,8,400,1,,ISIC_0016103.JPG
break,html.Screen,4_0_1,2023-09-15T16:25:59.131Z,,0,,,NaN,,,,,,false,,,,58507.10000002384,58506.90000000596,,58505.70000001788,,58529.166,8,400,,,
break_continue,html.Screen,4_0_2,2023-09-15T16:25:59.131Z,,0,,,NaN,,,,,,false,,,,58507.60000002384,58507.5,,58507.20000001788,,58529.166,8,400,,,
sequence,flow.Sequence,4_0,2023-09-15T16:25:59.132Z,,0,,,3799.7090000000026,completion,,,,,false,,,,58507.70000001788,58507.5,54699.204,54701.20000001788,54707.791,58529.166,8,400,,,
trial,html.Screen,4_1_0,2023-09-15T16:26:04.345Z,,0,1,,5191.434000023844,response,ISIC_0025132.JPG,10,ISIC_5459256.JPG,ISIC_5459256.JPG,false,0,keypress(z),500,63720.90000000596,63720.60000002384,58512.489,58507.80000001192,58529.166,63744.657,8,400,2,,ISIC_0025132.JPG
break,html.Screen,4_1_1,2023-09-15T16:26:04.346Z,,0,,,NaN,,,,,,false,,,,63722.5,63721.80000001192,,63721.20000001788,,63744.657,8,400,,,
break_continue,html.Screen,4_1_2,2023-09-15T16:26:04.347Z,,0,,,NaN,,,,,,false,,,,63722.80000001192,63722.70000001788,,63722.60000002384,,63744.657,8,400,,,
sequence,flow.Sequence,4_1,2023-09-15T16:26:04.347Z,,0,,,5193.534000017884,completion,,,,,false,,,,63722.90000000596,63722.70000001788,58512.489,58507.80000001192,58529.166,63744.657,8,400,,,
trial,html.Screen,4_2_0,2023-09-15T16:26:10.256Z,,0,1,,5887.143000011922,response,ISIC_0561634.JPG,18,ISIC_0998962.JPG,ISIC_0998962.JPG,false,0,keypress(z),500,69632.10000002384,69631.80000001192,63716.09,63723,63744.657,69672.447,8,400,3,,ISIC_0561634.JPG
break,html.Screen,4_2_1,2023-09-15T16:26:10.263Z,,0,,,NaN,,,,,,false,,,,69639.5,69639.20000001788,,69632.30000001192,,69672.447,8,400,,,
break_continue,html.Screen,4_2_2,2023-09-15T16:26:10.264Z,,0,,,NaN,,,,,,false,,,,69639.70000001788,69639.60000002384,,69639.5,,69672.447,8,400,,,
sequence,flow.Sequence,4_2,2023-09-15T16:26:10.264Z,,0,,,5894.943000023843,completion,,,,,false,,,,69639.80000001192,69639.60000002384,63716.09,63723,63744.657,69672.447,8,400,,,
trial,html.Screen,4_3_0,2023-09-15T16:26:13.968Z,,0,1,,3671.053,response,ISIC_0013733.JPG,12,ISIC_7349440.JPG,ISIC_7349440.JPG,false,0,keypress(z),500,73343.80000001192,73343.5,69655.62,69639.90000000596,69672.447,73377.526,8,400,4,,ISIC_0013733.JPG
break,html.Screen,4_3_1,2023-09-15T16:26:13.975Z,,0,,,NaN,,,,,,false,,,,73351.5,73351.30000001192,,73344,,73377.526,8,400,,,
break_continue,html.Screen,4_3_2,2023-09-15T16:26:13.976Z,,0,,,NaN,,,,,,false,,,,73351.80000001192,73351.70000001788,,73351.5,,73377.526,8,400,,,
sequence,flow.Sequence,4_3,2023-09-15T16:26:13.976Z,,0,,,3679.2530000178813,completion,,,,,false,,,,73351.90000000596,73351.70000001788,69655.62,69639.80000001192,69672.447,73377.526,8,400,,,
trial,html.Screen,4_4_0,2023-09-15T16:26:16.993Z,,0,1,,2991.6740000178834,response,ISIC_0057531.JPG,9,ISIC_6559840.JPG,ISIC_6559840.JPG,false,0,keypress(z),500,76369.40000000596,76369.20000001788,73341.4,73352,73377.526,76393.244,8,400,5,,ISIC_0057531.JPG
break,html.Screen,4_4_1,2023-09-15T16:26:17.001Z,,0,,,NaN,,,,,,false,,,,76376.80000001192,76376.70000001788,,76369.70000001788,,76393.244,8,400,,,
break_continue,html.Screen,4_4_2,2023-09-15T16:26:17.001Z,,0,,,NaN,,,,,,false,,,,76377.20000001788,76377,,76376.90000000596,,76393.244,8,400,,,
sequence,flow.Sequence,4_4,2023-09-15T16:26:17.001Z,,0,,,2999.474000000002,completion,,,,,false,,,,76377.30000001192,76377,73341.4,73352,73377.526,76393.244,8,400,,,
trial,html.Screen,4_5_0,2023-09-15T16:26:23.039Z,,0,1,,6021.556000011915,response,ISIC_9644813.JPG,11,ISIC_1686556.JPG,ISIC_9644813.JPG,false,1,keypress(m),500,82415,82414.80000001192,76366.415,76377.40000000596,76393.244,82438.475,8,400,6,,ISIC_1686556.JPG
break,html.Screen,4_5_1,2023-09-15T16:26:23.046Z,,0,,,NaN,,,,,,false,,,,82422.40000000596,82422.20000001788,,82415.20000001788,,82438.475,8,400,,,
break_continue,html.Screen,4_5_2,2023-09-15T16:26:23.046Z,,0,,,NaN,,,,,,false,,,,82422.70000001788,82422.60000002384,,82422.5,,82438.475,8,400,,,
sequence,flow.Sequence,4_5,2023-09-15T16:26:23.047Z,,0,,,6029.356000023836,completion,,,,,false,,,,82422.70000001788,82422.60000002384,76366.415,76377.30000001192,76393.244,82438.475,8,400,,,
trial,html.Screen,4_6_0,2023-09-15T16:26:27.133Z,,0,1,,4070.524999999994,response,ISIC_3518299.JPG,5,ISIC_0029934.JPG,ISIC_0029934.JPG,false,0,keypress(z),500,86509.30000001192,86509,82411.174,82422.80000001192,82438.475,86532.828,8,400,7,,ISIC_3518299.JPG
break,html.Screen,4_6_1,2023-09-15T16:26:27.135Z,,0,,,NaN,,,,,,false,,,,86510.90000000596,86510.60000002384,,86509.40000000596,,86532.828,8,400,,,
break_continue,html.Screen,4_6_2,2023-09-15T16:26:27.135Z,,0,,,NaN,,,,,,false,,,,86511.30000001192,86511.20000001788,,86511,,86532.828,8,400,,,
sequence,flow.Sequence,4_6,2023-09-15T16:26:27.135Z,,0,,,4072.7250000178756,completion,,,,,false,,,,86511.5,86511.20000001788,82411.174,82422.80000001192,82438.475,86532.828,8,400,,,
trial,html.Screen,4_7_0,2023-09-15T16:26:31.001Z,,0,1,,3843.672000000006,response,ISIC_0065597.JPG,11,ISIC_0062559.JPG,ISIC_0065597.JPG,false,1,keypress(m),500,90376.70000001788,90376.5,86494.201,86511.60000002384,86532.828,90383.548,8,400,8,,ISIC_0062559.JPG
break,html.Screen,4_7_1,2023-09-15T16:26:31.008Z,,0,,,NaN,,,,,,false,,,,90384,90383.80000001192,,90376.90000000596,,90383.548,8,400,,,
break_continue,html.Screen,4_7_2,2023-09-15T16:26:31.008Z,,0,,,NaN,,,,,,false,,,,90384.30000001192,90384.30000001192,,90384.10000002384,,90383.548,8,400,,,
sequence,flow.Sequence,4_7,2023-09-15T16:26:31.008Z,,0,,,3851.472000011927,completion,,,,,false,,,,90384.40000000596,90384.30000001192,86494.201,86511.60000002384,86532.828,90383.548,8,400,,,
trial,html.Screen,4_8_0,2023-09-15T16:26:35.786Z,,0,1,,4778.452000000005,response,ISIC_0002026.JPG,5,ISIC_0011267.JPG,ISIC_0002026.JPG,false,1,keypress(m),500,95162.20000001788,95162,90373.982,90384.5,90383.548,95169.155,8,400,9,,ISIC_0011267.JPG
break,html.Screen,4_8_1,2023-09-15T16:26:35.794Z,,0,,,NaN,,,,,,false,,,,95169.90000000596,95169.40000000596,,95162.40000000596,,95169.155,8,400,,,
break_continue,html.Screen,4_8_2,2023-09-15T16:26:35.794Z,,0,,,NaN,,,,,,false,,,,95170.10000002384,95170.10000002384,,95170,,95169.155,8,400,,,
sequence,flow.Sequence,4_8,2023-09-15T16:26:35.794Z,,0,,,4786.552000023847,completion,,,,,false,,,,95170.30000001192,95170.10000002384,90373.982,90384.5,90383.548,95169.155,8,400,,,
trial,html.Screen,4_9_0,2023-09-15T16:26:39.172Z,,0,1,,3378.845000000001,response,ISIC_0032504.JPG,4,ISIC_4529363.JPG,ISIC_4529363.JPG,false,0,keypress(z),500,98548.20000001788,98548,95156,95170.30000001192,95169.155,98571.801,8,400,10,,ISIC_0032504.JPG
break,html.Screen,4_9_1,2023-09-15T16:26:39.179Z,,0,,,NaN,,,,,,false,,,,98555.70000001788,98555.40000000596,,98548.40000000596,,98571.801,8,400,,,
break_continue,html.Screen,4_9_2,2023-09-15T16:26:39.180Z,,0,,,NaN,,,,,,false,,,,98556,98555.90000000596,,98555.70000001788,,98571.801,8,400,,,
sequence,flow.Sequence,4_9,2023-09-15T16:26:39.180Z,,0,,,3386.7450000059616,completion,,,,,false,,,,98556,98555.90000000596,95156,95170.30000001192,95169.155,98571.801,8,400,,,
trial,html.Screen,4_10_0,2023-09-15T16:26:42.582Z,,0,1,,3386.5990000059537,response,ISIC_0028467.JPG,12,ISIC_7604596.JPG,ISIC_0028467.JPG,false,1,keypress(m),500,101958.60000002384,101958.40000000596,98555.067,98556.10000002384,98571.801,101982.201,8,400,11,,ISIC_7604596.JPG
break,html.Screen,4_10_1,2023-09-15T16:26:42.590Z,,0,,,NaN,,,,,,false,,,,101965.90000000596,101965.80000001192,,101958.70000001788,,101982.201,8,400,,,
break_continue,html.Screen,4_10_2,2023-09-15T16:26:42.590Z,,0,,,NaN,,,,,,false,,,,101966.20000001788,101966.20000001788,,101966,,101982.201,8,400,,,
sequence,flow.Sequence,4_10,2023-09-15T16:26:42.590Z,,0,,,3394.3990000178746,completion,,,,,false,,,,101966.20000001788,101966.20000001788,98555.067,98556.10000002384,98571.801,101982.201,8,400,,,
trial,html.Screen,4_11_0,2023-09-15T16:26:45.651Z,,0,1,,3044.6990000059595,response,ISIC_8945395.JPG,6,ISIC_0010644.JPG,ISIC_8945395.JPG,false,1,keypress(m),500,105027.20000001788,105026.90000000596,101965.425,101966.30000001192,101982.201,105058.572,8,400,12,,ISIC_0010644.JPG
break,html.Screen,4_11_1,2023-09-15T16:26:45.652Z,,0,,,NaN,,,,,,false,,,,105027.90000000596,105027.80000001192,,105027.30000001192,,105058.572,8,400,,,
break_continue,html.Screen,4_11_2,2023-09-15T16:26:45.652Z,,0,,,NaN,,,,,,false,,,,105028.30000001192,105028.30000001192,,105028.10000002384,,105058.572,8,400,,,
sequence,flow.Sequence,4_11,2023-09-15T16:26:45.652Z,,0,,,3046.09900001192,completion,,,,,false,,,,105028.40000000596,105028.30000001192,101965.425,101966.30000001192,101982.201,105058.572,8,400,,,
trial,html.Screen,4_12_0,2023-09-15T16:26:49.563Z,,0,1,,3880.428,response,ISIC_6037869.JPG,13,ISIC_0024519.JPG,ISIC_6037869.JPG,false,1,keypress(m),500,108939.20000001788,108939,105034.275,105028.5,105058.572,108945.898,8,400,13,,ISIC_0024519.JPG
break,html.Screen,4_12_1,2023-09-15T16:26:49.570Z,,0,,,NaN,,,,,,false,,,,108946.30000001192,108946.10000002384,,108939.40000000596,,108945.898,8,400,,,
break_continue,html.Screen,4_12_2,2023-09-15T16:26:49.570Z,,0,,,NaN,,,,,,false,,,,108946.60000002384,108946.5,,108946.30000001192,,108945.898,8,400,,,
sequence,flow.Sequence,4_12,2023-09-15T16:26:49.570Z,,0,,,3887.928,completion,,,,,false,,,,108946.70000001788,108946.5,105034.275,105028.40000000596,105058.572,108945.898,8,400,,,
trial,html.Screen,4_13_0,2023-09-15T16:26:56.620Z,,0,1,,7050.101999999999,response,ISIC_0059368.JPG,8,ISIC_7672106.JPG,ISIC_0059368.JPG,false,1,keypress(m),500,115996.40000000596,115996,108935.248,108946.80000001192,108945.898,116020.089,8,400,14,,ISIC_7672106.JPG
break,html.Screen,4_13_1,2023-09-15T16:26:56.628Z,,0,,,NaN,,,,,,false,,,,116003.90000000596,116003.60000002384,,115996.60000002384,,116020.089,8,400,,,
break_continue,html.Screen,4_13_2,2023-09-15T16:26:56.628Z,,0,,,NaN,,,,,,false,,,,116004.10000002384,116004,,116003.90000000596,,116020.089,8,400,,,
sequence,flow.Sequence,4_13,2023-09-15T16:26:56.628Z,,0,,,7058.101999999999,completion,,,,,false,,,,116004.20000001788,116004,108935.248,108946.70000001788,108945.898,116020.089,8,400,,,
trial,html.Screen,4_14_0,2023-09-15T16:27:02.477Z,,0,1,,5833.111000017874,response,ISIC_8224270.JPG,7,ISIC_1034397.JPG,ISIC_8224270.JPG,false,1,keypress(m),500,121853.40000000596,121853.20000001788,116003.334,116004.30000001192,116020.089,121860.351,8,400,15,,ISIC_1034397.JPG
break,html.Screen,4_14_1,2023-09-15T16:27:02.485Z,,0,,,NaN,,,,,,false,,,,121860.80000001192,121860.70000001788,,121853.60000002384,,121860.351,8,400,,,
break_continue,html.Screen,4_14_2,2023-09-15T16:27:02.486Z,,0,,,NaN,,,,,,false,,,,121861.90000000596,121861.90000000596,,121861.60000002384,,121860.351,8,400,,,
sequence,flow.Sequence,4_14,2023-09-15T16:27:02.486Z,,0,,,5841.811000005953,completion,,,,,false,,,,121862.10000002384,121861.90000000596,116003.334,116004.30000001192,116020.089,121860.351,8,400,,,
trial,html.Screen,4_15_0,2023-09-15T16:27:05.532Z,,0,1,,3047.8490000178863,response,ISIC_0011931.JPG,12,ISIC_0010754.JPG,ISIC_0010754.JPG,false,0,keypress(z),500,124908.40000000596,124908.20000001788,121844.951,121862.10000002384,121860.351,124915.367,8,400,16,,ISIC_0011931.JPG
break,html.Screen,4_15_1,2023-09-15T16:27:05.540Z,,0,,,NaN,,,,,,false,,,,124915.90000000596,124915.70000001788,,124908.60000002384,,124915.367,8,400,,,
break_continue,html.Screen,4_15_2,2023-09-15T16:27:05.540Z,,0,,,NaN,,,,,,false,,,,124916.10000002384,124916.10000002384,,124916,,124915.367,8,400,,,
sequence,flow.Sequence,4_15,2023-09-15T16:27:05.541Z,,0,,,3055.7490000238467,completion,,,,,false,,,,124917,124916.10000002384,121844.951,121862.10000002384,121860.351,124915.367,8,400,,,
trial,html.Screen,4_16_0,2023-09-15T16:27:08.899Z,,0,1,,3359.533000005962,response,ISIC_1205826.JPG,7,ISIC_7424320.JPG,ISIC_7424320.JPG,false,0,keypress(z),500,128275.30000001192,128274.90000000596,124906.581,124917,124915.367,128282.182,8,400,17,,ISIC_1205826.JPG
break,html.Screen,4_16_1,2023-09-15T16:27:08.907Z,,0,,,NaN,,,,,,false,,,,128282.70000001788,128282.5,,128275.40000000596,,128282.182,8,400,,,
break_continue,html.Screen,4_16_2,2023-09-15T16:27:08.907Z,,0,,,NaN,,,,,,false,,,,128283,128282.90000000596,,128282.80000001192,,128282.182,8,400,,,
sequence,flow.Sequence,4_16,2023-09-15T16:27:08.907Z,,0,,,3367.533000005962,completion,,,,,false,,,,128283.10000002384,128282.90000000596,124906.581,124917,124915.367,128282.182,8,400,,,
trial,html.Screen,4_17_0,2023-09-15T16:27:12.145Z,,0,1,,3238.7180000059598,response,ISIC_0014129.JPG,9,ISIC_2173158.JPG,ISIC_2173158.JPG,false,0,keypress(z),500,131521.20000001788,131520.90000000596,128268.445,128283.20000001788,128282.182,131527.937,8,400,18,,ISIC_0014129.JPG
break,html.Screen,4_17_1,2023-09-15T16:27:12.152Z,,0,,,NaN,,,,,,false,,,,131528.5,131528.10000002384,,131521.30000001192,,131527.937,8,400,,,
break_continue,html.Screen,4_17_2,2023-09-15T16:27:12.153Z,,0,,,NaN,,,,,,false,,,,131528.70000001788,131528.70000001788,,131528.60000002384,,131527.937,8,400,,,
sequence,flow.Sequence,4_17,2023-09-15T16:27:12.153Z,,0,,,3246.5180000178807,completion,,,,,false,,,,131528.80000001192,131528.70000001788,128268.445,128283.10000002384,128282.182,131527.937,8,400,,,
trial,html.Screen,4_18_0,2023-09-15T16:27:17.388Z,,0,1,,5235.6630000238365,response,ISIC_3744940.JPG,8,ISIC_0063493.JPG,ISIC_0063493.JPG,false,0,keypress(z),500,136764,136763.60000002384,131514.176,131528.80000001192,131527.937,136771.323,8,400,19,,ISIC_3744940.JPG
break,html.Screen,4_18_1,2023-09-15T16:27:17.396Z,,0,,,NaN,,,,,,false,,,,136771.90000000596,136771.70000001788,,136764.30000001192,,136771.323,8,400,,,
break_continue,html.Screen,4_18_2,2023-09-15T16:27:17.396Z,,0,,,NaN,,,,,,false,,,,136772.20000001788,136772.10000002384,,136771.90000000596,,136771.323,8,400,,,
sequence,flow.Sequence,4_18,2023-09-15T16:27:17.396Z,,0,,,5244.1630000238365,completion,,,,,false,,,,136772.20000001788,136772.10000002384,131514.176,131528.80000001192,131527.937,136771.323,8,400,,,
trial,html.Screen,4_19_0,2023-09-15T16:27:21.390Z,,0,1,,3995.0770000059565,response,ISIC_8171432.JPG,5,ISIC_0028082.JPG,ISIC_8171432.JPG,false,1,keypress(m),500,140766.60000002384,140766.40000000596,136760.1,136772.30000001192,136771.323,140790.124,8,400,20,,ISIC_0028082.JPG
break,html.Screen,4_19_1,2023-09-15T16:27:21.392Z,,0,,,NaN,,,,,,false,,,,140768,140767.80000001192,,140766.70000001788,,140790.124,8,400,,,
break_continue,html.Screen,4_19_2,2023-09-15T16:27:21.393Z,,0,,,NaN,,,,,,false,,,,140769.10000002384,140769.10000002384,,140768,,140790.124,8,400,,,
sequence,flow.Sequence,4_19,2023-09-15T16:27:21.393Z,,0,,,3997.777000023838,completion,,,,,false,,,,140769.20000001788,140769.10000002384,136760.1,136772.30000001192,136771.323,140790.124,8,400,,,
trial,html.Screen,4_20_0,2023-09-15T16:27:24.727Z,,0,1,,3313.17600001191,response,ISIC_0055079.JPG,13,ISIC_6517663.JPG,ISIC_6517663.JPG,false,0,keypress(z),500,144103.5,144103.30000001192,140762.63,140769.30000001192,140790.124,144126.748,8,400,21,,ISIC_0055079.JPG
break,html.Screen,4_20_1,2023-09-15T16:27:24.734Z,,0,,,NaN,,,,,,false,,,,144110.5,144110.30000001192,,144103.60000002384,,144126.748,8,400,,,
break_continue,html.Screen,4_20_2,2023-09-15T16:27:24.735Z,,0,,,NaN,,,,,,false,,,,144110.70000001788,144110.70000001788,,144110.60000002384,,144126.748,8,400,,,
sequence,flow.Sequence,4_20,2023-09-15T16:27:24.735Z,,0,,,3320.5760000178707,completion,,,,,false,,,,144110.80000001192,144110.70000001788,140762.63,140769.30000001192,140790.124,144126.748,8,400,,,
trial,html.Screen,4_21_0,2023-09-15T16:27:27.915Z,,0,1,,3163.952000017889,response,ISIC_5308066.JPG,10,ISIC_0056660.JPG,ISIC_5308066.JPG,false,1,keypress(m),500,147291,147290.70000001788,144110.054,144110.80000001192,144126.748,147314.254,8,400,22,,ISIC_0056660.JPG
break,html.Screen,4_21_1,2023-09-15T16:27:27.922Z,,0,,,NaN,,,,,,false,,,,147297.90000000596,147297.70000001788,,147291.10000002384,,147314.254,8,400,,,
break_continue,html.Screen,4_21_2,2023-09-15T16:27:27.922Z,,0,,,NaN,,,,,,false,,,,147298.20000001788,147298,,147298,,147314.254,8,400,,,
sequence,flow.Sequence,4_21,2023-09-15T16:27:27.922Z,,0,,,3171.2520000000077,completion,,,,,false,,,,147298.20000001788,147298,144110.054,144110.80000001192,144126.748,147314.254,8,400,,,
trial,html.Screen,4_22_0,2023-09-15T16:27:32.057Z,,0,1,,4118.546000011935,response,ISIC_0025708.JPG,7,ISIC_0070215.JPG,ISIC_0025708.JPG,false,1,keypress(m),500,151433,151432.80000001192,147288.476,147298.30000001192,147314.254,151456.515,8,400,23,,ISIC_0070215.JPG
break,html.Screen,4_22_1,2023-09-15T16:27:32.064Z,,0,,,NaN,,,,,,false,,,,151440,151439.80000001192,,151433.10000002384,,151456.515,8,400,,,
break_continue,html.Screen,4_22_2,2023-09-15T16:27:32.064Z,,0,,,NaN,,,,,,false,,,,151440.20000001788,151440.10000002384,,151440.10000002384,,151456.515,8,400,,,
sequence,flow.Sequence,4_22,2023-09-15T16:27:32.064Z,,0,,,4125.846000023856,completion,,,,,false,,,,151440.30000001192,151440.10000002384,147288.476,147298.30000001192,147314.254,151456.515,8,400,,,
trial,html.Screen,4_23_0,2023-09-15T16:27:35.413Z,,0,1,,3332.285000011907,response,ISIC_6023518.JPG,11,ISIC_4354896.JPG,ISIC_6023518.JPG,false,1,keypress(m),500,154789.60000002384,154788.80000001192,151428.821,151440.30000001192,151456.515,154812.976,8,400,24,,ISIC_4354896.JPG
break,html.Screen,4_23_1,2023-09-15T16:27:35.415Z,,0,,,NaN,,,,,,false,,,,154791.60000002384,154791.30000001192,,154789.80000001192,,154812.976,8,400,,,
break_continue,html.Screen,4_23_2,2023-09-15T16:27:35.416Z,,0,,,NaN,,,,,,false,,,,154791.90000000596,154791.80000001192,,154791.70000001788,,154812.976,8,400,,,
sequence,flow.Sequence,4_23,2023-09-15T16:27:35.416Z,,0,,,3335.285000011907,completion,,,,,false,,,,154792,154791.80000001192,151428.821,151440.30000001192,151456.515,154812.976,8,400,,,
trial,html.Screen,4_24_0,2023-09-15T16:27:41.775Z,,0,1,,6337.624000023847,response,ISIC_4874581.JPG,8,ISIC_9974613.JPG,ISIC_4874581.JPG,false,1,keypress(m),500,161151,161150.60000002384,154788.054,154792.10000002384,154812.976,161168.379,8,400,25,,ISIC_9974613.JPG
break,html.Screen,4_24_1,2023-09-15T16:27:41.776Z,,0,,,NaN,,,,,,false,,,,161152.40000000596,161152.30000001192,,161151.10000002384,,161168.379,8,400,,,
break_continue,html.Screen,4_24_2,2023-09-15T16:27:41.777Z,,0,,,NaN,,,,,,false,,,,161152.70000001788,161152.70000001788,,161152.5,,161168.379,8,400,,,
sequence,flow.Sequence,4_24,2023-09-15T16:27:41.777Z,,0,,,6339.724000017886,completion,,,,,false,,,,161152.90000000596,161152.70000001788,154788.054,154792.10000002384,154812.976,161168.379,8,400,,,
trial,html.Screen,4_25_0,2023-09-15T16:27:44.741Z,,0,1,,2948.7210000238556,response,ISIC_0028746.JPG,6,ISIC_0062463.JPG,ISIC_0028746.JPG,false,1,keypress(m),500,164117.40000000596,164117.10000002384,161148.928,161152.90000000596,161168.379,164140.943,8,400,26,,ISIC_0062463.JPG
break,html.Screen,4_25_1,2023-09-15T16:27:44.743Z,,0,,,NaN,,,,,,false,,,,164119.30000001192,164119.10000002384,,164117.5,,164140.943,8,400,,,
break_continue,html.Screen,4_25_2,2023-09-15T16:27:44.743Z,,0,,,NaN,,,,,,false,,,,164119.70000001788,164119.5,,164119.40000000596,,164140.943,8,400,,,
sequence,flow.Sequence,4_25,2023-09-15T16:27:44.744Z,,0,,,2951.1210000000137,completion,,,,,false,,,,164119.70000001788,164119.5,161148.928,161152.90000000596,161168.379,164140.943,8,400,,,
trial,html.Screen,4_26_0,2023-09-15T16:27:50.921Z,,0,1,,6155.657000023843,response,ISIC_2687641.JPG,7,ISIC_0071586.JPG,ISIC_2687641.JPG,false,1,keypress(m),500,170296.90000000596,170296.60000002384,164104.097,164119.80000001192,164140.943,170320.245,8,400,27,,ISIC_0071586.JPG
break,html.Screen,4_26_1,2023-09-15T16:27:50.923Z,,0,,,NaN,,,,,,false,,,,170299.5,170298.20000001788,,170297,,170320.245,8,400,,,
break_continue,html.Screen,4_26_2,2023-09-15T16:27:50.923Z,,0,,,NaN,,,,,,false,,,,170299.80000001192,170299.70000001788,,170299.60000002384,,170320.245,8,400,,,
sequence,flow.Sequence,4_26,2023-09-15T16:27:50.924Z,,0,,,6158.757000017882,completion,,,,,false,,,,170300,170299.70000001788,164104.097,164119.80000001192,164140.943,170320.245,8,400,,,
trial,html.Screen,4_27_0,2023-09-15T16:27:54.564Z,,0,1,,3620.0550000119256,response,ISIC_0072004.JPG,12,ISIC_0029283.JPG,ISIC_0029283.JPG,false,0,keypress(z),500,173940.5,173940.30000001192,170288.506,170300,170320.245,173981.461,8,400,28,,ISIC_0072004.JPG
break,html.Screen,4_27_1,2023-09-15T16:27:54.572Z,,0,,,NaN,,,,,,false,,,,173948.40000000596,173948.30000001192,,173940.80000001192,,173981.461,8,400,,,
break_continue,html.Screen,4_27_2,2023-09-15T16:27:54.572Z,,0,,,NaN,,,,,,false,,,,173948.80000001192,173948.70000001788,,173948.60000002384,,173981.461,8,400,,,
sequence,flow.Sequence,4_27,2023-09-15T16:27:54.573Z,,0,,,3628.455000017886,completion,,,,,false,,,,173948.80000001192,173948.70000001788,170288.506,170300,170320.245,173981.461,8,400,,,
trial,html.Screen,4_28_0,2023-09-15T16:27:58.802Z,,0,1,,4196.639000023832,response,ISIC_0207349.JPG,11,ISIC_0033950.JPG,ISIC_0033950.JPG,false,0,keypress(z),500,178178.30000001192,178178.10000002384,173964.429,173948.80000001192,173981.461,178186.541,8,400,29,,ISIC_0207349.JPG
break,html.Screen,4_28_1,2023-09-15T16:27:58.804Z,,0,,,NaN,,,,,,false,,,,178180.20000001788,178180,,178178.40000000596,,178186.541,8,400,,,
break_continue,html.Screen,4_28_2,2023-09-15T16:27:58.804Z,,0,,,NaN,,,,,,false,,,,178180.80000001192,178180.5,,178180.30000001192,,178186.541,8,400,,,
sequence,flow.Sequence,4_28,2023-09-15T16:27:58.805Z,,0,,,4199.03899999999,completion,,,,,false,,,,178180.80000001192,178180.5,173964.429,173948.80000001192,173981.461,178186.541,8,400,,,
trial,html.Screen,4_29_0,2023-09-15T16:28:02.710Z,,0,1,,3900.0590000238444,response,ISIC_0058508.JPG,9,ISIC_0011534.JPG,ISIC_0011534.JPG,false,0,keypress(z),500,182086.80000001192,182086.60000002384,178177.407,178180.90000000596,178186.541,182110.48,8,400,30,,ISIC_0058508.JPG
break,html.Screen,4_29_1,2023-09-15T16:28:02.717Z,,0,,,NaN,,,,,,false,,,,182093.80000001192,182093.70000001788,,182086.90000000596,,182110.48,8,400,,,
break_continue,html.Screen,4_29_2,2023-09-15T16:28:02.718Z,,0,,,NaN,,,,,,false,,,,182094,182094,,182093.90000000596,,182110.48,8,400,,,
sequence,flow.Sequence,4_29,2023-09-15T16:28:02.718Z,,0,,,3907.4590000000026,completion,,,,,false,,,,182094.10000002384,182094,178177.407,178180.90000000596,178186.541,182110.48,8,400,,,
trial,html.Screen,4_30_0,2023-09-15T16:28:06.001Z,,0,1,,3266.92000000595,response,ISIC_0014151.JPG,11,ISIC_2197722.JPG,ISIC_2197722.JPG,false,0,keypress(z),500,185377.70000001788,185377.40000000596,182082.578,182094.30000001192,182110.48,185384.764,8,400,31,,ISIC_0014151.JPG
break,html.Screen,4_30_1,2023-09-15T16:28:06.003Z,,0,,,NaN,,,,,,false,,,,185379.20000001788,185379,,185377.90000000596,,185384.764,8,400,,,
break_continue,html.Screen,4_30_2,2023-09-15T16:28:06.003Z,,0,,,NaN,,,,,,false,,,,185379.60000002384,185379.5,,185379.40000000596,,185384.764,8,400,,,
sequence,flow.Sequence,4_30,2023-09-15T16:28:06.003Z,,0,,,3269.0199999999895,completion,,,,,false,,,,185379.70000001788,185379.5,182082.578,182094.30000001192,182110.48,185384.764,8,400,,,
trial,html.Screen,4_31_0,2023-09-15T16:28:08.999Z,,0,1,,2990.3360000238463,response,ISIC_0765584.JPG,8,ISIC_5059476.JPG,ISIC_5059476.JPG,false,0,keypress(z),500,188375.30000001192,188375.10000002384,185372.283,185379.80000001192,185384.764,188382.19,8,400,32,,ISIC_0765584.JPG
break,html.Screen,4_31_1,2023-09-15T16:28:09.000Z,,0,,,NaN,,,,,,false,,,,188376.70000001788,188376.60000002384,,188375.5,,188382.19,8,400,,,
break_continue,html.Screen,4_31_2,2023-09-15T16:28:09.001Z,,0,,,NaN,,,,,,false,,,,188377,188376.90000000596,,188376.80000001192,,188382.19,8,400,,,
sequence,flow.Sequence,4_31,2023-09-15T16:28:09.001Z,,0,,,2992.136000005965,completion,,,,,false,,,,188377.20000001788,188376.90000000596,185372.283,185379.70000001788,185384.764,188382.19,8,400,,,
trial,html.Screen,4_32_0,2023-09-15T16:28:13.004Z,,0,1,,3998.210000005958,response,ISIC_4156010.JPG,8,ISIC_3198111.JPG,ISIC_3198111.JPG,false,0,keypress(z),500,192380.70000001788,192380.40000000596,188367.469,188377.20000001788,188382.19,192388.187,8,400,33,,ISIC_4156010.JPG
break,html.Screen,4_32_1,2023-09-15T16:28:13.006Z,,0,,,NaN,,,,,,false,,,,192382.5,192381.90000000596,,192380.90000000596,,192388.187,8,400,,,
break_continue,html.Screen,4_32_2,2023-09-15T16:28:13.007Z,,0,,,NaN,,,,,,false,,,,192382.80000001192,192382.80000001192,,192382.70000001788,,192388.187,8,400,,,
sequence,flow.Sequence,4_32,2023-09-15T16:28:13.007Z,,0,,,4000.6100000119186,completion,,,,,false,,,,192383,192382.80000001192,188367.469,188377.20000001788,188382.19,192388.187,8,400,,,
trial,html.Screen,4_33_0,2023-09-15T16:28:16.950Z,,0,1,,3937.713000005955,response,ISIC_8479104.JPG,10,ISIC_0624779.JPG,ISIC_0624779.JPG,false,0,keypress(z),500,196326.30000001192,196325.90000000596,192377.715,192383.10000002384,192388.187,196333.143,8,400,34,,ISIC_8479104.JPG
break,html.Screen,4_33_1,2023-09-15T16:28:16.951Z,,0,,,NaN,,,,,,false,,,,196327.70000001788,196327,,196326.5,,196333.143,8,400,,,
break_continue,html.Screen,4_33_2,2023-09-15T16:28:16.952Z,,0,,,NaN,,,,,,false,,,,196328,196327.90000000596,,196327.80000001192,,196333.143,8,400,,,
sequence,flow.Sequence,4_33,2023-09-15T16:28:16.952Z,,0,,,3939.713000005955,completion,,,,,false,,,,196328.20000001788,196327.90000000596,192377.715,192383,192388.187,196333.143,8,400,,,
trial,html.Screen,4_34_0,2023-09-15T16:28:20.122Z,,0,1,,3164.7570000059495,response,ISIC_0066674.JPG,10,ISIC_0058174.JPG,ISIC_0066674.JPG,false,1,keypress(m),500,199498.30000001192,199497.90000000596,196322.995,196328.20000001788,196333.143,199523.731,8,400,35,,ISIC_0058174.JPG
break,html.Screen,4_34_1,2023-09-15T16:28:20.125Z,,0,,,NaN,,,,,,false,,,,199501.5,199500.90000000596,,199498.80000001192,,199523.731,8,400,,,
break_continue,html.Screen,4_34_2,2023-09-15T16:28:20.126Z,,0,,,NaN,,,,,,false,,,,199502,199501.90000000596,,199501.60000002384,,199523.731,8,400,,,
sequence,flow.Sequence,4_34,2023-09-15T16:28:20.126Z,,0,,,3168.7570000059495,completion,,,,,false,,,,199502.10000002384,199501.90000000596,196322.995,196328.20000001788,196333.143,199523.731,8,400,,,
trial,html.Screen,4_35_0,2023-09-15T16:28:23.344Z,,0,1,,3196.1690000059607,response,ISIC_9014036.JPG,10,ISIC_5507066.JPG,ISIC_9014036.JPG,false,1,keypress(m),500,202720.10000002384,202719.90000000596,199499.444,199502.20000001788,199523.731,202744.322,8,400,36,,ISIC_5507066.JPG
break,html.Screen,4_35_1,2023-09-15T16:28:23.345Z,,0,,,NaN,,,,,,false,,,,202721.60000002384,202721.30000001192,,202720.30000001192,,202744.322,8,400,,,
break_continue,html.Screen,4_35_2,2023-09-15T16:28:23.346Z,,0,,,NaN,,,,,,false,,,,202721.90000000596,202721.80000001192,,202721.60000002384,,202744.322,8,400,,,
sequence,flow.Sequence,4_35,2023-09-15T16:28:23.346Z,,0,,,3198.069000011921,completion,,,,,false,,,,202722,202721.80000001192,199499.444,199502.20000001788,199523.731,202744.322,8,400,,,
trial,html.Screen,4_36_0,2023-09-15T16:28:27.563Z,,0,1,,4194.378000017896,response,ISIC_0027901.JPG,8,ISIC_4602691.JPG,ISIC_0027901.JPG,false,1,keypress(m),500,206939,206938.70000001788,202726.802,202722,202744.322,206963.461,8,400,37,,ISIC_4602691.JPG
break,html.Screen,4_36_1,2023-09-15T16:28:27.564Z,,0,,,NaN,,,,,,false,,,,206940.30000001192,206939.60000002384,,206939.10000002384,,206963.461,8,400,,,
break_continue,html.Screen,4_36_2,2023-09-15T16:28:27.564Z,,0,,,NaN,,,,,,false,,,,206940.60000002384,206940.60000002384,,206940.40000000596,,206963.461,8,400,,,
sequence,flow.Sequence,4_36,2023-09-15T16:28:27.564Z,,0,,,4196.278000023856,completion,,,,,false,,,,206940.70000001788,206940.60000002384,202726.802,202722,202744.322,206963.461,8,400,,,
trial,html.Screen,4_37_0,2023-09-15T16:28:32.336Z,,0,1,,4748.339000011911,response,ISIC_5486460.JPG,11,ISIC_6548307.JPG,ISIC_6548307.JPG,false,0,keypress(z),500,211712.30000001192,211711.80000001192,206945.63,206940.80000001192,206963.461,211720.151,8,400,38,,ISIC_5486460.JPG
break,html.Screen,4_37_1,2023-09-15T16:28:32.338Z,,0,,,NaN,,,,,,false,,,,211714.60000002384,211713.70000001788,,211712.60000002384,,211720.151,8,400,,,
break_continue,html.Screen,4_37_2,2023-09-15T16:28:32.339Z,,0,,,NaN,,,,,,false,,,,211715.20000001788,211715.10000002384,,211714.80000001192,,211720.151,8,400,,,
sequence,flow.Sequence,4_37,2023-09-15T16:28:32.339Z,,0,,,4751.639000023832,completion,,,,,false,,,,211715.40000000596,211715.10000002384,206945.63,206940.80000001192,206963.461,211720.151,8,400,,,
trial,html.Screen,4_38_0,2023-09-15T16:28:35.856Z,,0,1,,3511.8489999999874,response,ISIC_4603706.JPG,9,ISIC_7901891.JPG,ISIC_4603706.JPG,false,1,keypress(m),500,215232.30000001192,215232,211702.65,211715.5,211720.151,215256.759,8,400,39,,ISIC_7901891.JPG
break,html.Screen,4_38_1,2023-09-15T16:28:35.857Z,,0,,,NaN,,,,,,false,,,,215233.30000001192,215232.90000000596,,215232.40000000596,,215256.759,8,400,,,
break_continue,html.Screen,4_38_2,2023-09-15T16:28:35.858Z,,0,,,NaN,,,,,,false,,,,215234,215234,,215233.80000001192,,215256.759,8,400,,,
sequence,flow.Sequence,4_38,2023-09-15T16:28:35.858Z,,0,,,3513.8489999999874,completion,,,,,false,,,,215234.20000001788,215234,211702.65,211715.5,211720.151,215256.759,8,400,,,
trial,html.Screen,4_39_0,2023-09-15T16:28:38.964Z,,0,1,,3083.6410000059695,response,ISIC_0000377.JPG,7,ISIC_9605122.JPG,ISIC_9605122.JPG,false,0,keypress(z),500,218340.60000002384,218340.40000000596,215239.364,215234.20000001788,215256.759,218348.488,8,400,40,,ISIC_0000377.JPG
break,html.Screen,4_39_1,2023-09-15T16:28:38.966Z,,0,,,NaN,,,,,,false,,,,218342,218341.20000001788,,218340.80000001192,,218348.488,8,400,,,
break_continue,html.Screen,4_39_2,2023-09-15T16:28:38.967Z,,0,,,NaN,,,,,,false,,,,218343.80000001192,218343.70000001788,,218342.20000001788,,218348.488,8,400,,,
sequence,flow.Sequence,4_39,2023-09-15T16:28:38.968Z,,0,,,3086.9410000178905,completion,,,,,false,,,,218343.90000000596,218343.70000001788,215239.364,215234.20000001788,215256.759,218348.488,8,400,,,
trial,html.Screen,4_40_0,2023-09-15T16:28:43.054Z,,0,1,,4080.9120000059484,response,ISIC_5647697.JPG,12,ISIC_2614347.JPG,ISIC_5647697.JPG,false,1,keypress(m),500,222429.90000000596,222429.40000000596,218336.877,218344,218348.488,222436.709,8,400,41,,ISIC_2614347.JPG
break,html.Screen,4_40_1,2023-09-15T16:28:43.055Z,,0,,,NaN,,,,,,false,,,,222431.30000001192,222431,,222430.10000002384,,222436.709,8,400,,,
break_continue,html.Screen,4_40_2,2023-09-15T16:28:43.055Z,,0,,,NaN,,,,,,false,,,,222431.60000002384,222431.60000002384,,222431.40000000596,,222436.709,8,400,,,
sequence,flow.Sequence,4_40,2023-09-15T16:28:43.055Z,,0,,,4083.1120000238298,completion,,,,,false,,,,222431.80000001192,222431.60000002384,218336.877,218344,218348.488,222436.709,8,400,,,
trial,html.Screen,4_41_0,2023-09-15T16:28:45.809Z,,0,1,,2748.5910000119184,response,ISIC_0533122.JPG,7,ISIC_0060629.JPG,ISIC_0533122.JPG,false,1,keypress(m),500,225185.40000000596,225185.30000001192,222428.003,222431.80000001192,222436.709,225217.334,8,400,42,,ISIC_0060629.JPG
break,html.Screen,4_41_1,2023-09-15T16:28:45.810Z,,0,,,NaN,,,,,,false,,,,225186.40000000596,225186.10000002384,,225185.5,,225217.334,8,400,,,
break_continue,html.Screen,4_41_2,2023-09-15T16:28:45.810Z,,0,,,NaN,,,,,,false,,,,225186.70000001788,225186.70000001788,,225186.5,,225217.334,8,400,,,
sequence,flow.Sequence,4_41,2023-09-15T16:28:45.811Z,,0,,,2749.991000017879,completion,,,,,false,,,,225186.80000001192,225186.70000001788,222428.003,222431.80000001192,222436.709,225217.334,8,400,,,
trial,html.Screen,4_42_0,2023-09-15T16:28:49.450Z,,0,1,,3608.366000017879,response,ISIC_0063046.JPG,11,ISIC_4482610.JPG,ISIC_4482610.JPG,false,0,keypress(z),500,228825.90000000596,228825.70000001788,225200.654,225186.90000000596,225217.334,228833.068,8,400,43,,ISIC_0063046.JPG
break,html.Screen,4_42_1,2023-09-15T16:28:49.451Z,,0,,,NaN,,,,,,false,,,,228827.30000001192,228826.90000000596,,228826,,228833.068,8,400,,,
break_continue,html.Screen,4_42_2,2023-09-15T16:28:49.452Z,,0,,,NaN,,,,,,false,,,,228827.70000001788,228827.60000002384,,228827.5,,228833.068,8,400,,,
sequence,flow.Sequence,4_42,2023-09-15T16:28:49.452Z,,0,,,3610.2660000238393,completion,,,,,false,,,,228827.90000000596,228827.60000002384,225200.654,225186.80000001192,225217.334,228833.068,8,400,,,
trial,html.Screen,4_43_0,2023-09-15T16:28:53.620Z,,0,1,,4162.332000005961,response,ISIC_5840341.JPG,12,ISIC_1034397.JPG,ISIC_5840341.JPG,false,1,keypress(m),500,232995.70000001788,232995.40000000596,228823.063,228827.90000000596,228833.068,233021.757,8,400,44,,ISIC_1034397.JPG
break,html.Screen,4_43_1,2023-09-15T16:28:53.621Z,,0,,,NaN,,,,,,false,,,,232996.60000002384,232996.20000001788,,232995.80000001192,,233021.757,8,400,,,
break_continue,html.Screen,4_43_2,2023-09-15T16:28:53.621Z,,0,,,NaN,,,,,,false,,,,232997.40000000596,232997.30000001192,,232997.10000002384,,233021.757,8,400,,,
sequence,flow.Sequence,4_43,2023-09-15T16:28:53.621Z,,0,,,4164.232000011922,completion,,,,,false,,,,232997.5,232997.30000001192,228823.063,228827.90000000596,228833.068,233021.757,8,400,,,
trial,html.Screen,4_44_0,2023-09-15T16:28:58.701Z,,0,1,,5055.242999999988,response,ISIC_3390057.JPG,13,ISIC_4329176.JPG,ISIC_3390057.JPG,false,1,keypress(m),500,238077.10000002384,238077,233002.76,232997.60000002384,233021.757,238084.115,8,400,45,,ISIC_4329176.JPG
break,html.Screen,4_44_1,2023-09-15T16:28:58.709Z,,0,,,NaN,,,,,,false,,,,238084.60000002384,238084.5,,238077.30000001192,,238084.115,8,400,,,
break_continue,html.Screen,4_44_2,2023-09-15T16:28:58.709Z,,0,,,NaN,,,,,,false,,,,238084.90000000596,238084.80000001192,,238084.70000001788,,238084.115,8,400,,,
sequence,flow.Sequence,4_44,2023-09-15T16:28:58.709Z,,0,,,5063.043000011909,completion,,,,,false,,,,238084.90000000596,238084.80000001192,233002.76,232997.60000002384,233021.757,238084.115,8,400,,,
trial,html.Screen,4_45_0,2023-09-15T16:29:02.379Z,,0,1,,3670.5850000178907,response,ISIC_0016137.JPG,11,ISIC_0055191.JPG,ISIC_0016137.JPG,false,1,keypress(m),500,241754.90000000596,241754.70000001788,238074.557,238085,238084.115,241762.051,8,400,46,,ISIC_0055191.JPG
break,html.Screen,4_45_1,2023-09-15T16:29:02.380Z,,0,,,NaN,,,,,,false,,,,241756.5,241756.30000001192,,241755,,241762.051,8,400,,,
break_continue,html.Screen,4_45_2,2023-09-15T16:29:02.381Z,,0,,,NaN,,,,,,false,,,,241756.80000001192,241756.80000001192,,241756.60000002384,,241762.051,8,400,,,
sequence,flow.Sequence,4_45,2023-09-15T16:29:02.381Z,,0,,,3672.6850000119302,completion,,,,,false,,,,241757,241756.80000001192,238074.557,238085,238084.115,241762.051,8,400,,,
trial,html.Screen,4_46_0,2023-09-15T16:29:05.236Z,,0,1,,2849.9489999999932,response,ISIC_8702237.JPG,10,ISIC_0026868.JPG,ISIC_8702237.JPG,false,1,keypress(m),500,244612.20000001788,244612,241744.863,241757.10000002384,241762.051,244635.764,8,400,47,,ISIC_0026868.JPG
break,html.Screen,4_46_1,2023-09-15T16:29:05.238Z,,0,,,NaN,,,,,,false,,,,244614.10000002384,244613.90000000596,,244612.40000000596,,244635.764,8,400,,,
break_continue,html.Screen,4_46_2,2023-09-15T16:29:05.238Z,,0,,,NaN,,,,,,false,,,,244614.40000000596,244614.30000001192,,244614.20000001788,,244635.764,8,400,,,
sequence,flow.Sequence,4_46,2023-09-15T16:29:05.238Z,,0,,,2852.249000011914,completion,,,,,false,,,,244614.5,244614.30000001192,241744.863,241757,241762.051,244635.764,8,400,,,
trial,html.Screen,4_47_0,2023-09-15T16:29:08.943Z,,0,1,,3683.436000017886,response,ISIC_0011721.JPG,12,ISIC_0484171.JPG,ISIC_0011721.JPG,false,1,keypress(m),500,248319.40000000596,248319.20000001788,244608.021,244614.60000002384,244635.764,248344.074,8,400,48,,ISIC_0484171.JPG
break,html.Screen,4_47_1,2023-09-15T16:29:08.946Z,,0,,,NaN,,,,,,false,,,,248322.20000001788,248322.10000002384,,248319.60000002384,,248344.074,8,400,,,
break_continue,html.Screen,4_47_2,2023-09-15T16:29:08.946Z,,0,,,NaN,,,,,,false,,,,248322.5,248322.5,,248322.30000001192,,248344.074,8,400,,,
sequence,flow.Sequence,4_47,2023-09-15T16:29:08.947Z,,0,,,3686.7360000000044,completion,,,,,false,,,,248322.60000002384,248322.5,244608.021,244614.5,244635.764,248344.074,8,400,,,
trial,html.Screen,4_48_0,2023-09-15T16:29:11.862Z,,0,1,,2893.7260000119277,response,ISIC_4894929.JPG,13,ISIC_4184050.JPG,ISIC_4184050.JPG,false,0,keypress(z),500,251238.10000002384,251237.80000001192,248319.841,248322.70000001788,248344.074,251244.935,8,400,49,,ISIC_4894929.JPG
break,html.Screen,4_48_1,2023-09-15T16:29:11.869Z,,0,,,NaN,,,,,,false,,,,251245.40000000596,251245.20000001788,,251238.20000001788,,251244.935,8,400,,,
break_continue,html.Screen,4_48_2,2023-09-15T16:29:11.870Z,,0,,,NaN,,,,,,false,,,,251246,251245.90000000596,,251245.70000001788,,251244.935,8,400,,,
sequence,flow.Sequence,4_48,2023-09-15T16:29:11.870Z,,0,,,2901.826000005967,completion,,,,,false,,,,251246.10000002384,251245.90000000596,248319.841,248322.70000001788,248344.074,251244.935,8,400,,,
trial,html.Screen,4_49_0,2023-09-15T16:29:15.282Z,,0,1,,3413.0650000000023,response,ISIC_2616719.JPG,8,ISIC_7980339.JPG,ISIC_7980339.JPG,false,0,keypress(z),500,254658.20000001788,254658,251228.663,251246.20000001788,251244.935,254679.428,8,400,50,,ISIC_2616719.JPG
break,html.Screen,4_49_1,2023-09-15T16:29:25.287Z,,0,,,9998.724999999977,timeout,,,,,false,,,,264662.8000000119,264661.635,254662.6,254658.30000001192,254679.428,264678.153,8,400,,,
break_continue,html.Screen,4_49_2,2023-09-15T16:29:26.483Z,,0,,,1169.3470000000088,response,,,,,false,continue,keypress(Space),,265858.7000000179,265847.5,264661.635,264663,264678.153,265898.73,8,400,,,
sequence,flow.Sequence,4_49,2023-09-15T16:29:26.483Z,,0,,,14602.565000000002,completion,,,,,false,,,,265858.8000000119,265847.5,251228.663,251246.10000002384,251244.935,265898.73,8,400,,,
trial,html.Screen,4_50_0,2023-09-15T16:29:29.590Z,,0,2,,3066.8700000238605,response,ISIC_0010730.JPG,8,ISIC_0030751.JPG,ISIC_0030751.JPG,false,0,keypress(z),500,268965.8000000119,268965.60000002384,265882.431,265858.90000000596,265898.73,268989.433,8,400,1,,ISIC_0010730.JPG
break,html.Screen,4_50_1,2023-09-15T16:29:29.597Z,,0,,,NaN,,,,,,false,,,,268972.90000000596,268972.7000000179,,268965.90000000596,,268989.433,8,400,,,
break_continue,html.Screen,4_50_2,2023-09-15T16:29:29.597Z,,0,,,NaN,,,,,,false,,,,268973.2000000179,268973.2000000179,,268973,,268989.433,8,400,,,
sequence,flow.Sequence,4_50,2023-09-15T16:29:29.597Z,,0,,,3074.4700000179,completion,,,,,false,,,,268973.40000000596,268973.2000000179,265882.431,265858.90000000596,265898.73,268989.433,8,400,,,
trial,html.Screen,4_51_0,2023-09-15T16:29:33.014Z,,0,2,,3399.9670000059414,response,ISIC_1974281.JPG,9,ISIC_9648812.JPG,ISIC_9648812.JPG,false,0,keypress(z),500,272389.7000000179,272389.40000000596,268959.934,268973.40000000596,268989.433,272413.292,8,400,2,,ISIC_1974281.JPG
break,html.Screen,4_51_1,2023-09-15T16:29:33.016Z,,0,,,NaN,,,,,,false,,,,272391.60000002384,272391.3000000119,,272390,,272413.292,8,400,,,
break_continue,html.Screen,4_51_2,2023-09-15T16:29:33.016Z,,0,,,NaN,,,,,,false,,,,272392,272392,,272391.8000000119,,272413.292,8,400,,,
sequence,flow.Sequence,4_51,2023-09-15T16:29:33.016Z,,0,,,3402.566999999981,completion,,,,,false,,,,272392.10000002384,272392,268959.934,268973.40000000596,268989.433,272413.292,8,400,,,
trial,html.Screen,4_52_0,2023-09-15T16:29:35.954Z,,0,2,,2916.808000023826,response,ISIC_0443835.JPG,5,ISIC_0010757.JPG,ISIC_0443835.JPG,false,1,keypress(m),500,275330.3000000119,275330.10000002384,272376.053,272392.2000000179,272413.292,275353.831,8,400,3,,ISIC_0010757.JPG
break,html.Screen,4_52_1,2023-09-15T16:29:35.962Z,,0,,,NaN,,,,,,false,,,,275337.60000002384,275337.40000000596,,275330.60000002384,,275353.831,8,400,,,
break_continue,html.Screen,4_52_2,2023-09-15T16:29:35.962Z,,0,,,NaN,,,,,,false,,,,275338.10000002384,275338,,275337.8000000119,,275353.831,8,400,,,
sequence,flow.Sequence,4_52,2023-09-15T16:29:35.962Z,,0,,,2924.707999999984,completion,,,,,false,,,,275338.2000000179,275338,272376.053,272392.2000000179,272413.292,275353.831,8,400,,,
trial,html.Screen,4_53_0,2023-09-15T16:29:38.932Z,,0,2,,2953.4690000119153,response,ISIC_0744870.JPG,11,ISIC_0033472.JPG,ISIC_0744870.JPG,false,1,keypress(m),500,278307.60000002384,278307.3000000119,275322.688,275338.3000000119,275353.831,278331.053,8,400,4,,ISIC_0033472.JPG
break,html.Screen,4_53_1,2023-09-15T16:29:38.939Z,,0,,,NaN,,,,,,false,,,,278315.2000000179,278315,,278307.8000000119,,278331.053,8,400,,,
break_continue,html.Screen,4_53_2,2023-09-15T16:29:38.939Z,,0,,,NaN,,,,,,false,,,,278315.5,278315.5,,278315.3000000119,,278331.053,8,400,,,
sequence,flow.Sequence,4_53,2023-09-15T16:29:38.940Z,,0,,,2961.6689999999944,completion,,,,,false,,,,278315.60000002384,278315.5,275322.688,275338.3000000119,275353.831,278331.053,8,400,,,
trial,html.Screen,4_54_0,2023-09-15T16:29:47.593Z,,0,2,,8637.547000023827,response,ISIC_7518524.JPG,7,ISIC_7378303.JPG,ISIC_7518524.JPG,false,1,keypress(m),500,286968.90000000596,286968.60000002384,278307.318,278315.7000000179,278331.053,286992.361,8,400,5,,ISIC_7378303.JPG
break,html.Screen,4_54_1,2023-09-15T16:29:47.600Z,,0,,,NaN,,,,,,false,,,,286976.10000002384,286975.90000000596,,286969.10000002384,,286992.361,8,400,,,
break_continue,html.Screen,4_54_2,2023-09-15T16:29:47.600Z,,0,,,NaN,,,,,,false,,,,286976.40000000596,286976.40000000596,,286976.2000000179,,286992.361,8,400,,,
sequence,flow.Sequence,4_54,2023-09-15T16:29:47.600Z,,0,,,8645.347000005946,completion,,,,,false,,,,286976.5,286976.40000000596,278307.318,278315.7000000179,278331.053,286992.361,8,400,,,
trial,html.Screen,4_55_0,2023-09-15T16:29:52.135Z,,0,2,,4518.139000000025,response,ISIC_8485716.JPG,16,ISIC_0645834.JPG,ISIC_8485716.JPG,false,1,keypress(m),500,291510.8000000119,291510.5,286968.921,286976.60000002384,286992.361,291534.358,8,400,6,,ISIC_0645834.JPG
break,html.Screen,4_55_1,2023-09-15T16:29:52.142Z,,0,,,NaN,,,,,,false,,,,291517.90000000596,291517.8000000119,,291510.90000000596,,291534.358,8,400,,,
break_continue,html.Screen,4_55_2,2023-09-15T16:29:52.142Z,,0,,,NaN,,,,,,false,,,,291518.40000000596,291518.40000000596,,291518.10000002384,,291534.358,8,400,,,
sequence,flow.Sequence,4_55,2023-09-15T16:29:52.143Z,,0,,,4526.039000005985,completion,,,,,false,,,,291518.60000002384,291518.40000000596,286968.921,286976.5,286992.361,291534.358,8,400,,,
trial,html.Screen,4_56_0,2023-09-15T16:29:55.476Z,,0,2,,3317.2420000238344,response,ISIC_0059041.JPG,7,ISIC_3312201.JPG,ISIC_3312201.JPG,false,0,keypress(z),500,294851.8000000119,294851.60000002384,291508.158,291518.60000002384,291534.358,294858.727,8,400,7,,ISIC_0059041.JPG
break,html.Screen,4_56_1,2023-09-15T16:29:55.477Z,,0,,,NaN,,,,,,false,,,,294853.5,294853.3000000119,,294851.90000000596,,294858.727,8,400,,,
break_continue,html.Screen,4_56_2,2023-09-15T16:29:55.478Z,,0,,,NaN,,,,,,false,,,,294853.8000000119,294853.8000000119,,294853.60000002384,,294858.727,8,400,,,
sequence,flow.Sequence,4_56,2023-09-15T16:29:55.478Z,,0,,,3319.4420000119135,completion,,,,,false,,,,294854,294853.8000000119,291508.158,291518.60000002384,291534.358,294858.727,8,400,,,
trial,html.Screen,4_57_0,2023-09-15T16:29:58.638Z,,0,2,,3155.2729999999865,response,ISIC_5048571.JPG,8,ISIC_1330008.JPG,ISIC_1330008.JPG,false,0,keypress(z),500,298014.10000002384,298014,294844.848,294854,294858.727,298037.968,8,400,8,,ISIC_5048571.JPG
break,html.Screen,4_57_1,2023-09-15T16:29:58.645Z,,0,,,NaN,,,,,,false,,,,298021.60000002384,298021.2000000179,,298014.3000000119,,298037.968,8,400,,,
break_continue,html.Screen,4_57_2,2023-09-15T16:29:58.646Z,,0,,,NaN,,,,,,false,,,,298021.90000000596,298021.8000000119,,298021.7000000179,,298037.968,8,400,,,
sequence,flow.Sequence,4_57,2023-09-15T16:29:58.646Z,,0,,,3163.0730000119074,completion,,,,,false,,,,298022,298021.8000000119,294844.848,294854,294858.727,298037.968,8,400,,,
trial,html.Screen,4_58_0,2023-09-15T16:30:01.290Z,,0,2,,2627.6320000238484,response,ISIC_0012990.JPG,8,ISIC_0072175.JPG,ISIC_0012990.JPG,false,1,keypress(m),500,300665.90000000596,300665.60000002384,298009.173,298022.10000002384,298037.968,300706.367,8,400,9,,ISIC_0072175.JPG
break,html.Screen,4_58_1,2023-09-15T16:30:01.297Z,,0,,,NaN,,,,,,false,,,,300673.3000000119,300673.2000000179,,300666.10000002384,,300706.367,8,400,,,
break_continue,html.Screen,4_58_2,2023-09-15T16:30:01.298Z,,0,,,NaN,,,,,,false,,,,300673.60000002384,300673.5,,300673.40000000596,,300706.367,8,400,,,
sequence,flow.Sequence,4_58,2023-09-15T16:30:01.298Z,,0,,,2635.5320000000065,completion,,,,,false,,,,300673.7000000179,300673.5,298009.173,298022.10000002384,298037.968,300706.367,8,400,,,
trial,html.Screen,4_59_0,2023-09-15T16:30:04.197Z,,0,2,,2866.7330000238144,response,ISIC_0063958.JPG,13,ISIC_6382207.JPG,ISIC_6382207.JPG,false,0,keypress(z),500,303573.3000000119,303573.10000002384,300689.447,300673.8000000119,300706.367,303596.757,8,400,10,,ISIC_0063958.JPG
break,html.Screen,4_59_1,2023-09-15T16:30:04.205Z,,0,,,NaN,,,,,,false,,,,303580.60000002384,303580.40000000596,,303573.5,,303596.757,8,400,,,
break_continue,html.Screen,4_59_2,2023-09-15T16:30:04.215Z,,0,,,NaN,,,,,,false,,,,303590.8000000119,303590.7000000179,,303580.7000000179,,303596.757,8,400,,,
sequence,flow.Sequence,4_59,2023-09-15T16:30:04.228Z,,0,,,2884.333000017854,completion,,,,,false,,,,303603.8000000119,303590.7000000179,300689.447,300673.7000000179,300706.367,303596.757,8,400,,,
trial,html.Screen,4_60_0,2023-09-15T16:30:11.670Z,,0,2,,7448.943000017898,response,ISIC_9397126.JPG,7,ISIC_9728003.JPG,ISIC_9728003.JPG,false,0,keypress(z),500,311046,311045.7000000179,303567.934,303603.90000000596,303596.757,311069.663,8,400,11,,ISIC_9397126.JPG
break,html.Screen,4_60_1,2023-09-15T16:30:11.677Z,,0,,,NaN,,,,,,false,,,,311053.2000000179,311052.90000000596,,311046.10000002384,,311069.663,8,400,,,
break_continue,html.Screen,4_60_2,2023-09-15T16:30:11.677Z,,0,,,NaN,,,,,,false,,,,311053.40000000596,311053.40000000596,,311053.2000000179,,311069.663,8,400,,,
sequence,flow.Sequence,4_60,2023-09-15T16:30:11.677Z,,0,,,7456.643000005977,completion,,,,,false,,,,311053.5,311053.40000000596,303567.934,303603.90000000596,303596.757,311069.663,8,400,,,
trial,html.Screen,4_61_0,2023-09-15T16:30:17.634Z,,0,2,,5940.3369999999995,response,ISIC_7600621.JPG,7,ISIC_4745475.JPG,ISIC_7600621.JPG,false,1,keypress(m),500,317010.2000000179,317010,311041.907,311053.5,311069.663,317033.839,8,400,12,,ISIC_4745475.JPG
break,html.Screen,4_61_1,2023-09-15T16:30:17.642Z,,0,,,NaN,,,,,,false,,,,317017.8000000119,317017.5,,317010.40000000596,,317033.839,8,400,,,
break_continue,html.Screen,4_61_2,2023-09-15T16:30:17.643Z,,0,,,NaN,,,,,,false,,,,317018.90000000596,317018.8000000119,,317018.60000002384,,317033.839,8,400,,,
sequence,flow.Sequence,4_61,2023-09-15T16:30:17.643Z,,0,,,5949.1370000119205,completion,,,,,false,,,,317019,317018.8000000119,311041.907,311053.5,311069.663,317033.839,8,400,,,
trial,html.Screen,4_62_0,2023-09-15T16:30:25.066Z,,0,2,,7407.561000005982,response,ISIC_2779787.JPG,10,ISIC_0465476.JPG,ISIC_0465476.JPG,false,0,keypress(z),500,324441.7000000179,324441.40000000596,317005.347,317019.10000002384,317033.839,324448.63,8,400,13,,ISIC_2779787.JPG
break,html.Screen,4_62_1,2023-09-15T16:30:25.073Z,,0,,,NaN,,,,,,false,,,,324449.10000002384,324448.90000000596,,324441.90000000596,,324448.63,8,400,,,
break_continue,html.Screen,4_62_2,2023-09-15T16:30:25.073Z,,0,,,NaN,,,,,,false,,,,324449.40000000596,324449.40000000596,,324449.10000002384,,324448.63,8,400,,,
sequence,flow.Sequence,4_62,2023-09-15T16:30:25.073Z,,0,,,7415.561000005982,completion,,,,,false,,,,324449.5,324449.40000000596,317005.347,317019.10000002384,317033.839,324448.63,8,400,,,
trial,html.Screen,4_63_0,2023-09-15T16:30:28.668Z,,0,2,,3595.1700000119163,response,ISIC_9529297.JPG,11,ISIC_0030969.JPG,ISIC_0030969.JPG,false,0,keypress(z),500,328044,328043.8000000119,324440.473,324449.60000002384,324448.63,328050.881,8,400,14,,ISIC_9529297.JPG
break,html.Screen,4_63_1,2023-09-15T16:30:28.675Z,,0,,,NaN,,,,,,false,,,,328051.3000000119,328051.10000002384,,328044.2000000179,,328050.881,8,400,,,
break_continue,html.Screen,4_63_2,2023-09-15T16:30:28.676Z,,0,,,NaN,,,,,,false,,,,328051.60000002384,328051.5,,328051.40000000596,,328050.881,8,400,,,
sequence,flow.Sequence,4_63,2023-09-15T16:30:28.676Z,,0,,,3602.8699999999953,completion,,,,,false,,,,328051.7000000179,328051.5,324440.473,324449.60000002384,324448.63,328050.881,8,400,,,
trial,html.Screen,4_64_0,2023-09-15T16:30:33.196Z,,0,2,,4521.419000011927,response,ISIC_0000866.JPG,5,ISIC_0026402.JPG,ISIC_0026402.JPG,false,0,keypress(z),500,332572.5,332572.3000000119,328044.545,328051.8000000119,328050.881,332596.498,8,400,15,,ISIC_0000866.JPG
break,html.Screen,4_64_1,2023-09-15T16:30:33.205Z,,0,,,NaN,,,,,,false,,,,332580.90000000596,332579.7000000179,,332572.7000000179,,332596.498,8,400,,,
break_continue,html.Screen,4_64_2,2023-09-15T16:30:33.205Z,,0,,,NaN,,,,,,false,,,,332581.2000000179,332581.2000000179,,332581,,332596.498,8,400,,,
sequence,flow.Sequence,4_64,2023-09-15T16:30:33.205Z,,0,,,4530.319000017887,completion,,,,,false,,,,332581.40000000596,332581.2000000179,328044.545,328051.8000000119,328050.881,332596.498,8,400,,,
trial,html.Screen,4_65_0,2023-09-15T16:30:36.250Z,,0,2,,3029.1020000238204,response,ISIC_1377409.JPG,7,ISIC_0010140.JPG,ISIC_1377409.JPG,false,1,keypress(m),500,335625.8000000119,335625.60000002384,332570.217,332581.5,332596.498,335632.719,8,400,16,,ISIC_0010140.JPG
break,html.Screen,4_65_1,2023-09-15T16:30:36.257Z,,0,,,NaN,,,,,,false,,,,335633.2000000179,335633.10000002384,,335626,,335632.719,8,400,,,
break_continue,html.Screen,4_65_2,2023-09-15T16:30:36.258Z,,0,,,NaN,,,,,,false,,,,335633.60000002384,335633.5,,335633.40000000596,,335632.719,8,400,,,
sequence,flow.Sequence,4_65,2023-09-15T16:30:36.258Z,,0,,,3037.0019999999786,completion,,,,,false,,,,335633.60000002384,335633.5,332570.217,332581.5,332596.498,335632.719,8,400,,,
trial,html.Screen,4_66_0,2023-09-15T16:30:44.903Z,,0,2,,8646.481000017899,response,ISIC_2768150.JPG,11,ISIC_9449365.JPG,ISIC_2768150.JPG,false,1,keypress(m),500,344279.40000000596,344279.2000000179,335624.074,335633.7000000179,335632.719,344286.257,8,400,17,,ISIC_9449365.JPG
break,html.Screen,4_66_1,2023-09-15T16:30:44.911Z,,0,,,NaN,,,,,,false,,,,344286.7000000179,344286.60000002384,,344279.5,,344286.257,8,400,,,
break_continue,html.Screen,4_66_2,2023-09-15T16:30:44.911Z,,0,,,NaN,,,,,,false,,,,344287,344287,,344286.90000000596,,344286.257,8,400,,,
sequence,flow.Sequence,4_66,2023-09-15T16:30:44.911Z,,0,,,8654.281000000017,completion,,,,,false,,,,344287.10000002384,344287,335624.074,335633.7000000179,335632.719,344286.257,8,400,,,
trial,html.Screen,4_67_0,2023-09-15T16:30:49.147Z,,0,2,,4236.443000017898,response,ISIC_0057696.JPG,11,ISIC_0026921.JPG,ISIC_0057696.JPG,false,1,keypress(m),500,348523,348522.7000000179,344276.286,344287.2000000179,344286.257,348529.861,8,400,18,,ISIC_0026921.JPG
break,html.Screen,4_67_1,2023-09-15T16:30:49.154Z,,0,,,NaN,,,,,,false,,,,348530.3000000119,348530.10000002384,,348523.2000000179,,348529.861,8,400,,,
break_continue,html.Screen,4_67_2,2023-09-15T16:30:49.155Z,,0,,,NaN,,,,,,false,,,,348530.60000002384,348530.60000002384,,348530.5,,348529.861,8,400,,,
sequence,flow.Sequence,4_67,2023-09-15T16:30:49.155Z,,0,,,4244.343000023859,completion,,,,,false,,,,348530.7000000179,348530.60000002384,344276.286,344287.2000000179,344286.257,348529.861,8,400,,,
trial,html.Screen,4_68_0,2023-09-15T16:30:52.461Z,,0,2,,3306.539000005985,response,ISIC_0973194.JPG,10,ISIC_4266533.JPG,ISIC_0973194.JPG,false,1,keypress(m),500,351836.60000002384,351836.40000000596,348516.557,348530.90000000596,348529.861,351843.431,8,400,19,,ISIC_4266533.JPG
break,html.Screen,4_68_1,2023-09-15T16:30:52.482Z,,0,,,NaN,,,,,,false,,,,351857.60000002384,351857.40000000596,,351836.8000000119,,351843.431,8,400,,,
break_continue,html.Screen,4_68_2,2023-09-15T16:30:52.482Z,,0,,,NaN,,,,,,false,,,,351858,351857.8000000119,,351857.8000000119,,351843.431,8,400,,,
sequence,flow.Sequence,4_68,2023-09-15T16:30:52.482Z,,0,,,3327.9390000119456,completion,,,,,false,,,,351858,351857.8000000119,348516.557,348530.8000000119,348529.861,351843.431,8,400,,,
trial,html.Screen,4_69_0,2023-09-15T16:30:57.706Z,,0,2,,5238.769000017899,response,ISIC_8618835.JPG,7,ISIC_0033549.JPG,ISIC_8618835.JPG,false,1,keypress(m),500,357082.5,357082.2000000179,351835.389,351858.10000002384,351843.431,357106.023,8,400,20,,ISIC_0033549.JPG
break,html.Screen,4_69_1,2023-09-15T16:30:57.714Z,,0,,,NaN,,,,,,false,,,,357089.90000000596,357089.8000000119,,357082.60000002384,,357106.023,8,400,,,
break_continue,html.Screen,4_69_2,2023-09-15T16:30:57.714Z,,0,,,NaN,,,,,,false,,,,357090.3000000119,357090.10000002384,,357090.10000002384,,357106.023,8,400,,,
sequence,flow.Sequence,4_69,2023-09-15T16:30:57.714Z,,0,,,5246.66900002386,completion,,,,,false,,,,357090.3000000119,357090.10000002384,351835.389,351858.10000002384,351843.431,357106.023,8,400,,,
trial,html.Screen,4_70_0,2023-09-15T16:31:00.388Z,,0,2,,2658.2770000119344,response,ISIC_9453737.JPG,6,ISIC_0064863.JPG,ISIC_9453737.JPG,false,1,keypress(m),500,359764.5,359764.3000000119,357089.348,357090.40000000596,357106.023,359771.365,8,400,21,,ISIC_0064863.JPG
break,html.Screen,4_70_1,2023-09-15T16:31:00.396Z,,0,,,NaN,,,,,,false,,,,359772,359771.8000000119,,359764.7000000179,,359771.365,8,400,,,
break_continue,html.Screen,4_70_2,2023-09-15T16:31:00.396Z,,0,,,NaN,,,,,,false,,,,359772.2000000179,359772.2000000179,,359772.10000002384,,359771.365,8,400,,,
sequence,flow.Sequence,4_70,2023-09-15T16:31:00.396Z,,0,,,2666.177000017895,completion,,,,,false,,,,359772.3000000119,359772.2000000179,357089.348,357090.40000000596,357106.023,359771.365,8,400,,,
trial,html.Screen,4_71_0,2023-09-15T16:31:03.668Z,,0,2,,3272.1350000000093,response,ISIC_0046344.JPG,13,ISIC_6345354.JPG,ISIC_6345354.JPG,false,0,keypress(z),500,363043.7000000179,363043.5,359759.949,359772.40000000596,359771.365,363067.389,8,400,22,,ISIC_0046344.JPG
break,html.Screen,4_71_1,2023-09-15T16:31:03.675Z,,0,,,NaN,,,,,,false,,,,363051.10000002384,363050.90000000596,,363043.90000000596,,363067.389,8,400,,,
break_continue,html.Screen,4_71_2,2023-09-15T16:31:03.675Z,,0,,,NaN,,,,,,false,,,,363051.40000000596,363051.3000000119,,363051.2000000179,,363067.389,8,400,,,
sequence,flow.Sequence,4_71,2023-09-15T16:31:03.675Z,,0,,,3279.9350000119302,completion,,,,,false,,,,363051.5,363051.3000000119,359759.949,359772.40000000596,359771.365,363067.389,8,400,,,
trial,html.Screen,4_72_0,2023-09-15T16:31:06.855Z,,0,2,,3163.011000005936,response,ISIC_7831274.JPG,12,ISIC_0025413.JPG,ISIC_7831274.JPG,false,1,keypress(m),500,366230.8000000119,366230.40000000596,363050.58,363051.60000002384,363067.389,366238.128,8,400,23,,ISIC_0025413.JPG
break,html.Screen,4_72_1,2023-09-15T16:31:06.856Z,,0,,,NaN,,,,,,false,,,,366232.5,366231.60000002384,,366231,,366238.128,8,400,,,
break_continue,html.Screen,4_72_2,2023-09-15T16:31:06.857Z,,0,,,NaN,,,,,,false,,,,366233,366232.90000000596,,366232.60000002384,,366238.128,8,400,,,
sequence,flow.Sequence,4_72,2023-09-15T16:31:06.857Z,,0,,,3165.511000005936,completion,,,,,false,,,,366233.2000000179,366232.90000000596,363050.58,363051.5,363067.389,366238.128,8,400,,,
trial,html.Screen,4_73_0,2023-09-15T16:31:09.773Z,,0,2,,2910.2720000059344,response,ISIC_7104307.JPG,9,ISIC_0030660.JPG,ISIC_0030660.JPG,false,0,keypress(z),500,369148.60000002384,369148.40000000596,366224.659,366233.2000000179,366238.128,369155.529,8,400,24,,ISIC_7104307.JPG
break,html.Screen,4_73_1,2023-09-15T16:31:09.780Z,,0,,,NaN,,,,,,false,,,,369156,369155.8000000119,,369148.8000000119,,369155.529,8,400,,,
break_continue,html.Screen,4_73_2,2023-09-15T16:31:09.780Z,,0,,,NaN,,,,,,false,,,,369156.3000000119,369156.10000002384,,369156.10000002384,,369155.529,8,400,,,
sequence,flow.Sequence,4_73,2023-09-15T16:31:09.780Z,,0,,,2917.972000023816,completion,,,,,false,,,,369156.3000000119,369156.10000002384,366224.659,366233.2000000179,366238.128,369155.529,8,400,,,
trial,html.Screen,4_74_0,2023-09-15T16:31:12.925Z,,0,2,,3145.7710000119405,response,ISIC_8760203.JPG,11,ISIC_0004564.JPG,ISIC_0004564.JPG,false,0,keypress(z),500,372301.5,372301.3000000119,369144.692,369156.5,369155.529,372324.958,8,400,25,,ISIC_8760203.JPG
break,html.Screen,4_74_1,2023-09-15T16:31:12.933Z,,0,,,NaN,,,,,,false,,,,372308.90000000596,372308.60000002384,,372301.7000000179,,372324.958,8,400,,,
break_continue,html.Screen,4_74_2,2023-09-15T16:31:12.933Z,,0,,,NaN,,,,,,false,,,,372309.10000002384,372309.10000002384,,372308.90000000596,,372324.958,8,400,,,
sequence,flow.Sequence,4_74,2023-09-15T16:31:12.933Z,,0,,,3153.5710000238614,completion,,,,,false,,,,372309.2000000179,372309.10000002384,369144.692,369156.40000000596,369155.529,372324.958,8,400,,,
trial,html.Screen,4_75_0,2023-09-15T16:31:15.708Z,,0,2,,2758.9420000059763,response,ISIC_3094758.JPG,7,ISIC_0519719.JPG,ISIC_0519719.JPG,false,0,keypress(z),500,375084.3000000119,375083.90000000596,372308.317,372309.3000000119,372324.958,375091.176,8,400,26,,ISIC_3094758.JPG
break,html.Screen,4_75_1,2023-09-15T16:31:15.716Z,,0,,,NaN,,,,,,false,,,,375092.2000000179,375092.10000002384,,375084.5,,375091.176,8,400,,,
break_continue,html.Screen,4_75_2,2023-09-15T16:31:15.716Z,,0,,,NaN,,,,,,false,,,,375092.5,375092.40000000596,,375092.40000000596,,375091.176,8,400,,,
sequence,flow.Sequence,4_75,2023-09-15T16:31:15.717Z,,0,,,2767.4420000059763,completion,,,,,false,,,,375092.60000002384,375092.40000000596,372308.317,372309.3000000119,372324.958,375091.176,8,400,,,
trial,html.Screen,4_76_0,2023-09-15T16:31:18.502Z,,0,2,,2786.8240000000224,response,ISIC_0071944.JPG,12,ISIC_0065477.JPG,ISIC_0065477.JPG,false,0,keypress(z),500,377878.3000000119,377878,375080.627,375092.7000000179,375091.176,377885.232,8,400,27,,ISIC_0071944.JPG
break,html.Screen,4_76_1,2023-09-15T16:31:18.510Z,,0,,,NaN,,,,,,false,,,,377885.7000000179,377885.5,,377878.5,,377885.232,8,400,,,
break_continue,html.Screen,4_76_2,2023-09-15T16:31:18.510Z,,0,,,NaN,,,,,,false,,,,377886.2000000179,377886,,377885.90000000596,,377885.232,8,400,,,
sequence,flow.Sequence,4_76,2023-09-15T16:31:18.510Z,,0,,,2794.8240000000224,completion,,,,,false,,,,377886.2000000179,377886,375080.627,375092.60000002384,375091.176,377885.232,8,400,,,
trial,html.Screen,4_77_0,2023-09-15T16:31:21.813Z,,0,2,,3303.8680000238237,response,ISIC_0030820.JPG,8,ISIC_9445196.JPG,ISIC_9445196.JPG,false,0,keypress(z),500,381189.3000000119,381189.10000002384,377870.987,377886.3000000119,377885.232,381196.209,8,400,28,,ISIC_0030820.JPG
break,html.Screen,4_77_1,2023-09-15T16:31:21.821Z,,0,,,NaN,,,,,,false,,,,381196.60000002384,381196.5,,381189.5,,381196.209,8,400,,,
break_continue,html.Screen,4_77_2,2023-09-15T16:31:21.821Z,,0,,,NaN,,,,,,false,,,,381196.90000000596,381196.8000000119,,381196.7000000179,,381196.209,8,400,,,
sequence,flow.Sequence,4_77,2023-09-15T16:31:21.821Z,,0,,,3311.5680000119028,completion,,,,,false,,,,381197.10000002384,381196.8000000119,377870.987,377886.3000000119,377885.232,381196.209,8,400,,,
trial,html.Screen,4_78_0,2023-09-15T16:31:26.504Z,,0,2,,4683.991000017908,response,ISIC_0029913.JPG,7,ISIC_7412559.JPG,ISIC_0029913.JPG,false,1,keypress(m),500,385880.40000000596,385880.2000000179,381182.868,381197.10000002384,381196.209,385903.98,8,400,29,,ISIC_7412559.JPG
break,html.Screen,4_78_1,2023-09-15T16:31:26.511Z,,0,,,NaN,,,,,,false,,,,385887.60000002384,385887.40000000596,,385880.60000002384,,385903.98,8,400,,,
break_continue,html.Screen,4_78_2,2023-09-15T16:31:26.512Z,,0,,,NaN,,,,,,false,,,,385887.90000000596,385887.8000000119,,385887.7000000179,,385903.98,8,400,,,
sequence,flow.Sequence,4_78,2023-09-15T16:31:26.512Z,,0,,,4691.5910000119475,completion,,,,,false,,,,385888,385887.8000000119,381182.868,381197.10000002384,381196.209,385903.98,8,400,,,
trial,html.Screen,4_79_0,2023-09-15T16:31:29.380Z,,0,2,,2851.8200000119396,response,ISIC_5559165.JPG,7,ISIC_0033479.JPG,ISIC_5559165.JPG,false,1,keypress(m),500,388756.10000002384,388755.8000000119,385874.336,385888,385903.98,388779.609,8,400,30,,ISIC_0033479.JPG
break,html.Screen,4_79_1,2023-09-15T16:31:29.389Z,,0,,,NaN,,,,,,false,,,,388765.5,388765.40000000596,,388756.3000000119,,388779.609,8,400,,,
break_continue,html.Screen,4_79_2,2023-09-15T16:31:29.390Z,,0,,,NaN,,,,,,false,,,,388765.8000000119,388765.7000000179,,388765.60000002384,,388779.609,8,400,,,
sequence,flow.Sequence,4_79,2023-09-15T16:31:29.390Z,,0,,,2861.7200000179,completion,,,,,false,,,,388765.90000000596,388765.7000000179,385874.336,385888,385903.98,388779.609,8,400,,,
trial,html.Screen,4_80_0,2023-09-15T16:31:33.341Z,,0,2,,3937.2910000059637,response,ISIC_0014543.JPG,9,ISIC_0057089.JPG,ISIC_0057089.JPG,false,0,keypress(z),500,392717.2000000179,392716.90000000596,388746.381,388766,388779.609,392740.695,8,400,31,,ISIC_0014543.JPG
break,html.Screen,4_80_1,2023-09-15T16:31:33.348Z,,0,,,NaN,,,,,,false,,,,392724.5,392724.3000000119,,392717.40000000596,,392740.695,8,400,,,
break_continue,html.Screen,4_80_2,2023-09-15T16:31:33.349Z,,0,,,NaN,,,,,,false,,,,392724.8000000119,392724.8000000119,,392724.60000002384,,392740.695,8,400,,,
sequence,flow.Sequence,4_80,2023-09-15T16:31:33.349Z,,0,,,3945.191000011924,completion,,,,,false,,,,392724.90000000596,392724.8000000119,388746.381,388766,388779.609,392740.695,8,400,,,
trial,html.Screen,4_81_0,2023-09-15T16:31:37.037Z,,0,2,,3671.804999999993,response,ISIC_0055917.JPG,7,ISIC_8147189.JPG,ISIC_8147189.JPG,false,0,keypress(z),500,396412.8000000119,396412.5,392709.912,392724.90000000596,392740.695,396436.3,8,400,32,,ISIC_0055917.JPG
break,html.Screen,4_81_1,2023-09-15T16:31:37.044Z,,0,,,NaN,,,,,,false,,,,396420.2000000179,396419.90000000596,,396413,,396436.3,8,400,,,
break_continue,html.Screen,4_81_2,2023-09-15T16:31:37.044Z,,0,,,NaN,,,,,,false,,,,396420.5,396420.40000000596,,396420.3000000119,,396436.3,8,400,,,
sequence,flow.Sequence,4_81,2023-09-15T16:31:37.044Z,,0,,,3679.7050000059535,completion,,,,,false,,,,396420.60000002384,396420.40000000596,392709.912,392724.90000000596,392740.695,396436.3,8,400,,,
trial,html.Screen,4_82_0,2023-09-15T16:31:39.724Z,,0,2,,2663.600000005972,response,ISIC_0056849.JPG,7,ISIC_0189694.JPG,ISIC_0189694.JPG,false,0,keypress(z),500,399100.2000000179,399099.90000000596,396411.082,396420.7000000179,396436.3,399140.76,8,400,33,,ISIC_0056849.JPG
break,html.Screen,4_82_1,2023-09-15T16:31:39.732Z,,0,,,NaN,,,,,,false,,,,399107.60000002384,399107.5,,399100.40000000596,,399140.76,8,400,,,
break_continue,html.Screen,4_82_2,2023-09-15T16:31:39.732Z,,0,,,NaN,,,,,,false,,,,399107.90000000596,399107.90000000596,,399107.8000000119,,399140.76,8,400,,,
sequence,flow.Sequence,4_82,2023-09-15T16:31:39.732Z,,0,,,2671.600000005972,completion,,,,,false,,,,399108,399107.90000000596,396411.082,396420.7000000179,396436.3,399140.76,8,400,,,
trial,html.Screen,4_83_0,2023-09-15T16:31:43.865Z,,0,2,,4100.239999999991,response,ISIC_6127074.JPG,11,ISIC_8423326.JPG,ISIC_8423326.JPG,false,0,keypress(z),500,403241.3000000119,403241,399123.976,399108.2000000179,399140.76,403281.394,8,400,34,,ISIC_6127074.JPG
break,html.Screen,4_83_1,2023-09-15T16:31:43.873Z,,0,,,NaN,,,,,,false,,,,403248.60000002384,403248.5,,403241.40000000596,,403281.394,8,400,,,
break_continue,html.Screen,4_83_2,2023-09-15T16:31:43.873Z,,0,,,NaN,,,,,,false,,,,403248.90000000596,403248.90000000596,,403248.7000000179,,403281.394,8,400,,,
sequence,flow.Sequence,4_83,2023-09-15T16:31:43.873Z,,0,,,4108.140000005951,completion,,,,,false,,,,403249,403248.90000000596,399123.976,399108,399140.76,403281.394,8,400,,,
trial,html.Screen,4_84_0,2023-09-15T16:31:46.756Z,,0,2,,2850.606000000029,response,ISIC_0010468.JPG,8,ISIC_7303761.JPG,ISIC_7303761.JPG,false,0,keypress(z),500,406132.2000000179,406132,403264.757,403249.10000002384,403281.394,406155.924,8,400,35,,ISIC_0010468.JPG
break,html.Screen,4_84_1,2023-09-15T16:31:46.763Z,,0,,,NaN,,,,,,false,,,,406139.2000000179,406139,,406132.2000000179,,406155.924,8,400,,,
break_continue,html.Screen,4_84_2,2023-09-15T16:31:46.763Z,,0,,,NaN,,,,,,false,,,,406139.5,406139.40000000596,,406139.3000000119,,406155.924,8,400,,,
sequence,flow.Sequence,4_84,2023-09-15T16:31:46.763Z,,0,,,2858.0060000059893,completion,,,,,false,,,,406139.5,406139.40000000596,403264.757,403249.10000002384,403281.394,406155.924,8,400,,,
trial,html.Screen,4_85_0,2023-09-15T16:31:50.814Z,,0,2,,4033.576000000001,response,ISIC_5309572.JPG,13,ISIC_0029303.JPG,ISIC_5309572.JPG,false,1,keypress(m),500,410189.7000000179,410189.5,406122.186,406139.60000002384,406155.924,410213.277,8,400,36,,ISIC_0029303.JPG
break,html.Screen,4_85_1,2023-09-15T16:31:50.821Z,,0,,,NaN,,,,,,false,,,,410196.8000000119,410196.7000000179,,410189.8000000119,,410213.277,8,400,,,
break_continue,html.Screen,4_85_2,2023-09-15T16:31:50.821Z,,0,,,NaN,,,,,,false,,,,410197.2000000179,410197.2000000179,,410197,,410213.277,8,400,,,
sequence,flow.Sequence,4_85,2023-09-15T16:31:50.821Z,,0,,,4041.2760000178823,completion,,,,,false,,,,410197.3000000119,410197.2000000179,406122.186,406139.60000002384,406155.924,410213.277,8,400,,,
trial,html.Screen,4_86_0,2023-09-15T16:31:55.020Z,,0,2,,4182.82300002384,response,ISIC_0063225.JPG,6,ISIC_0070822.JPG,ISIC_0063225.JPG,false,1,keypress(m),500,414396.40000000596,414396.10000002384,410189.426,410197.3000000119,410213.277,414419.953,8,400,37,,ISIC_0070822.JPG
break,html.Screen,4_86_1,2023-09-15T16:31:55.028Z,,0,,,NaN,,,,,,false,,,,414403.8000000119,414403.40000000596,,414396.60000002384,,414419.953,8,400,,,
break_continue,html.Screen,4_86_2,2023-09-15T16:31:55.028Z,,0,,,NaN,,,,,,false,,,,414404.2000000179,414404.2000000179,,414404,,414419.953,8,400,,,
sequence,flow.Sequence,4_86,2023-09-15T16:31:55.028Z,,0,,,4190.9230000178795,completion,,,,,false,,,,414404.3000000119,414404.2000000179,410189.426,410197.3000000119,410213.277,414419.953,8,400,,,
trial,html.Screen,4_87_0,2023-09-15T16:31:57.799Z,,0,2,,2755.247000017902,response,ISIC_7487840.JPG,10,ISIC_0015110.JPG,ISIC_7487840.JPG,false,1,keypress(m),500,417175.60000002384,417175.2000000179,414394.035,414404.40000000596,414419.953,417199.195,8,400,38,,ISIC_0015110.JPG
break,html.Screen,4_87_1,2023-09-15T16:31:57.807Z,,0,,,NaN,,,,,,false,,,,417182.7000000179,417182.60000002384,,417175.8000000119,,417199.195,8,400,,,
break_continue,html.Screen,4_87_2,2023-09-15T16:31:57.807Z,,0,,,NaN,,,,,,false,,,,417183,417183,,417182.90000000596,,417199.195,8,400,,,
sequence,flow.Sequence,4_87,2023-09-15T16:31:57.807Z,,0,,,2763.0470000000205,completion,,,,,false,,,,417183.2000000179,417183,414394.035,414404.40000000596,414419.953,417199.195,8,400,,,
trial,html.Screen,4_88_0,2023-09-15T16:32:01.676Z,,0,2,,3852.7050000059535,response,ISIC_0030697.JPG,9,ISIC_0062025.JPG,ISIC_0030697.JPG,false,1,keypress(m),500,421052.10000002384,421051.90000000596,417175.147,417183.2000000179,417199.195,421075.893,8,400,39,,ISIC_0062025.JPG
break,html.Screen,4_88_1,2023-09-15T16:32:01.683Z,,0,,,NaN,,,,,,false,,,,421059.5,421059.3000000119,,421052.3000000119,,421075.893,8,400,,,
break_continue,html.Screen,4_88_2,2023-09-15T16:32:01.684Z,,0,,,NaN,,,,,,false,,,,421059.8000000119,421059.7000000179,,421059.5,,421075.893,8,400,,,
sequence,flow.Sequence,4_88,2023-09-15T16:32:01.684Z,,0,,,3860.5050000178744,completion,,,,,false,,,,421059.90000000596,421059.7000000179,417175.147,417183.2000000179,417199.195,421075.893,8,400,,,
trial,html.Screen,4_89_0,2023-09-15T16:32:04.512Z,,0,2,,2812.20700002386,response,ISIC_4903988.JPG,9,ISIC_9354604.JPG,ISIC_9354604.JPG,false,0,keypress(z),500,423888.40000000596,423888.10000002384,421049.166,421060,421075.893,423912.045,8,400,40,,ISIC_4903988.JPG
break,html.Screen,4_89_1,2023-09-15T16:32:04.520Z,,0,,,NaN,,,,,,false,,,,423896.10000002384,423895.90000000596,,423888.60000002384,,423912.045,8,400,,,
break_continue,html.Screen,4_89_2,2023-09-15T16:32:04.520Z,,0,,,NaN,,,,,,false,,,,423896.40000000596,423896.3000000119,,423896.2000000179,,423912.045,8,400,,,
sequence,flow.Sequence,4_89,2023-09-15T16:32:04.520Z,,0,,,2820.407000011939,completion,,,,,false,,,,423896.5,423896.3000000119,421049.166,421060,421075.893,423912.045,8,400,,,
trial,html.Screen,4_90_0,2023-09-15T16:32:08.685Z,,0,2,,4149.155000017898,response,ISIC_9934037.JPG,6,ISIC_0006328.JPG,ISIC_9934037.JPG,false,1,keypress(m),500,428061.60000002384,428061.2000000179,423880.767,423896.5,423912.045,428068.514,8,400,41,,ISIC_0006328.JPG
break,html.Screen,4_90_1,2023-09-15T16:32:08.687Z,,0,,,NaN,,,,,,false,,,,428062.90000000596,428062.2000000179,,428061.8000000119,,428068.514,8,400,,,
break_continue,html.Screen,4_90_2,2023-09-15T16:32:08.687Z,,0,,,NaN,,,,,,false,,,,428063.3000000119,428063.2000000179,,428063,,428068.514,8,400,,,
sequence,flow.Sequence,4_90,2023-09-15T16:32:08.687Z,,0,,,4151.155000017898,completion,,,,,false,,,,428063.40000000596,428063.2000000179,423880.767,423896.5,423912.045,428068.514,8,400,,,
trial,html.Screen,4_91_0,2023-09-15T16:32:11.993Z,,0,2,,3300.086000023817,response,ISIC_0060341.JPG,6,ISIC_0010225.JPG,ISIC_0010225.JPG,false,0,keypress(z),500,431368.7000000179,431368.60000002384,428056.512,428063.40000000596,428068.514,431375.724,8,400,42,,ISIC_0060341.JPG
break,html.Screen,4_91_1,2023-09-15T16:32:11.994Z,,0,,,NaN,,,,,,false,,,,431370.10000002384,431369.5,,431369,,431375.724,8,400,,,
break_continue,html.Screen,4_91_2,2023-09-15T16:32:11.994Z,,0,,,NaN,,,,,,false,,,,431370.5,431370.40000000596,,431370.2000000179,,431375.724,8,400,,,
sequence,flow.Sequence,4_91,2023-09-15T16:32:11.994Z,,0,,,3301.886000005936,completion,,,,,false,,,,431370.60000002384,431370.40000000596,428056.512,428063.40000000596,428068.514,431375.724,8,400,,,
trial,html.Screen,4_92_0,2023-09-15T16:32:18.979Z,,0,2,,6978.876000023854,response,ISIC_0027125.JPG,11,ISIC_4055288.JPG,ISIC_4055288.JPG,false,0,keypress(z),500,438354.90000000596,438354.60000002384,431362.35,431370.60000002384,431375.724,438395.333,8,400,43,,ISIC_0027125.JPG
break,html.Screen,4_92_1,2023-09-15T16:32:18.986Z,,0,,,NaN,,,,,,false,,,,438362.3000000119,438362.10000002384,,438355,,438395.333,8,400,,,
break_continue,html.Screen,4_92_2,2023-09-15T16:32:18.986Z,,0,,,NaN,,,,,,false,,,,438362.60000002384,438362.5,,438362.40000000596,,438395.333,8,400,,,
sequence,flow.Sequence,4_92,2023-09-15T16:32:18.987Z,,0,,,6986.776000000013,completion,,,,,false,,,,438362.60000002384,438362.5,431362.35,431370.60000002384,431375.724,438395.333,8,400,,,
trial,html.Screen,4_93_0,2023-09-15T16:32:25.585Z,,0,2,,6565.267000023858,response,ISIC_3701563.JPG,8,ISIC_0011366.JPG,ISIC_0011366.JPG,false,0,keypress(z),500,444961,444960.60000002384,438378.379,438362.8000000119,438395.333,444984.64,8,400,44,,ISIC_3701563.JPG
break,html.Screen,4_93_1,2023-09-15T16:32:25.592Z,,0,,,NaN,,,,,,false,,,,444968.3000000119,444968.2000000179,,444961.2000000179,,444984.64,8,400,,,
break_continue,html.Screen,4_93_2,2023-09-15T16:32:25.593Z,,0,,,NaN,,,,,,false,,,,444968.7000000179,444968.60000002384,,444968.5,,444984.64,8,400,,,
sequence,flow.Sequence,4_93,2023-09-15T16:32:25.593Z,,0,,,6573.267000023858,completion,,,,,false,,,,444968.8000000119,444968.60000002384,438378.379,438362.7000000179,438395.333,444984.64,8,400,,,
trial,html.Screen,4_94_0,2023-09-15T16:32:37.093Z,,0,2,,11519.204999999958,timeout,ISIC_9219356.JPG,4,ISIC_0188432.JPG,,false,,,500,456469.3000000119,456469,444967.836,444968.8000000119,444984.64,456503.845,8,400,45,,
break,html.Screen,4_94_1,2023-09-15T16:32:37.094Z,,0,,,NaN,,,,,,false,,,,456470.2000000179,456470,,456469.5,,456503.845,8,400,,,
break_continue,html.Screen,4_94_2,2023-09-15T16:32:37.094Z,,0,,,NaN,,,,,,false,,,,456470.5,456470.40000000596,,456470.3000000119,,456503.845,8,400,,,
sequence,flow.Sequence,4_94,2023-09-15T16:32:37.095Z,,0,,,11485.760000005946,completion,,,,,false,,,,456470.7000000179,456470.40000000596,444967.836,444968.8000000119,444984.64,456503.845,8,400,,,
trial,html.Screen,4_95_0,2023-09-15T16:32:41.949Z,,0,2,,4820.555000005988,response,ISIC_5833422.JPG,5,ISIC_0000155.JPG,ISIC_5833422.JPG,false,1,keypress(m),500,461324.7000000179,461324.40000000596,456484.661,456470.8000000119,456503.845,461331.551,8,400,46,,ISIC_0000155.JPG
break,html.Screen,4_95_1,2023-09-15T16:32:41.956Z,,0,,,NaN,,,,,,false,,,,461332.2000000179,461332,,461324.90000000596,,461331.551,8,400,,,
break_continue,html.Screen,4_95_2,2023-09-15T16:32:41.956Z,,0,,,NaN,,,,,,false,,,,461332.5,461332.40000000596,,461332.3000000119,,461331.551,8,400,,,
sequence,flow.Sequence,4_95,2023-09-15T16:32:41.956Z,,0,,,4828.555000005988,completion,,,,,false,,,,461332.60000002384,461332.40000000596,456484.661,456470.8000000119,456503.845,461331.551,8,400,,,
trial,html.Screen,4_96_0,2023-09-15T16:32:45.325Z,,0,2,,3369.2490000119433,response,ISIC_0030508.JPG,11,ISIC_0029562.JPG,ISIC_0030508.JPG,false,1,keypress(m),500,464700.90000000596,464700.8000000119,461320.766,461332.7000000179,461331.551,464707.906,8,400,47,,ISIC_0029562.JPG
break,html.Screen,4_96_1,2023-09-15T16:32:45.326Z,,0,,,NaN,,,,,,false,,,,464702.3000000119,464701.60000002384,,464701.10000002384,,464707.906,8,400,,,
break_continue,html.Screen,4_96_2,2023-09-15T16:32:45.326Z,,0,,,NaN,,,,,,false,,,,464702.60000002384,464702.60000002384,,464702.40000000596,,464707.906,8,400,,,
sequence,flow.Sequence,4_96,2023-09-15T16:32:45.327Z,,0,,,3371.049000023864,completion,,,,,false,,,,464702.7000000179,464702.60000002384,461320.766,461332.7000000179,461331.551,464707.906,8,400,,,
trial,html.Screen,4_97_0,2023-09-15T16:32:48.278Z,,0,2,,2945.8940000119037,response,ISIC_0003046.JPG,7,ISIC_1802502.JPG,ISIC_0003046.JPG,false,1,keypress(m),500,467653.90000000596,467653.8000000119,464699.298,464702.90000000596,464707.906,467683.278,8,400,48,,ISIC_1802502.JPG
break,html.Screen,4_97_1,2023-09-15T16:32:48.285Z,,0,,,NaN,,,,,,false,,,,467661.3000000119,467661.10000002384,,467654.10000002384,,467683.278,8,400,,,
break_continue,html.Screen,4_97_2,2023-09-15T16:32:48.285Z,,0,,,NaN,,,,,,false,,,,467661.5,467661.5,,467661.40000000596,,467683.278,8,400,,,
sequence,flow.Sequence,4_97,2023-09-15T16:32:48.286Z,,0,,,2953.5939999999828,completion,,,,,false,,,,467661.7000000179,467661.5,464699.298,464702.8000000119,464707.906,467683.278,8,400,,,
trial,html.Screen,4_98_0,2023-09-15T16:32:51.989Z,,0,2,,3682.3220000238507,response,ISIC_1782911.JPG,11,ISIC_0057344.JPG,ISIC_0057344.JPG,false,0,keypress(z),500,471365.90000000596,471365.60000002384,467660.799,467661.8000000119,467683.278,471380.746,8,400,49,,ISIC_1782911.JPG
break,html.Screen,4_98_1,2023-09-15T16:32:51.990Z,,0,,,NaN,,,,,,false,,,,471367.2000000179,471367,,471366.10000002384,,471380.746,8,400,,,
break_continue,html.Screen,4_98_2,2023-09-15T16:32:51.991Z,,0,,,NaN,,,,,,false,,,,471367.5,471367.40000000596,,471367.3000000119,,471380.746,8,400,,,
sequence,flow.Sequence,4_98,2023-09-15T16:32:51.991Z,,0,,,3684.1220000059693,completion,,,,,false,,,,471367.7000000179,471367.40000000596,467660.799,467661.7000000179,467683.278,471380.746,8,400,,,
trial,html.Screen,4_99_0,2023-09-15T16:32:55.856Z,,0,2,,3852.0540000119363,response,ISIC_0071559.JPG,6,ISIC_0011717.JPG,ISIC_0071559.JPG,false,1,keypress(m),500,475233.10000002384,475232.8000000119,471364.243,471367.8000000119,471380.746,475240.055,8,400,50,,ISIC_0011717.JPG
break,html.Screen,4_99_1,2023-09-15T16:33:05.849Z,,0,,,9998.944000000018,timeout,,,,,false,,,,485225.5,485222.424,475229.71,475233.3000000119,475240.055,485238.999,8,400,,,
break_continue,html.Screen,4_99_2,2023-09-15T16:38:06.460Z,,0,,,300578.8010000119,response,,,,,false,continue,keypress(Space),,785839.2000000179,785817.8000000119,485222.424,485225.60000002384,485238.999,785863.358,8,400,,,
sequence,flow.Sequence,4_99,2023-09-15T16:38:06.461Z,,0,,,314437.05400001194,completion,,,,,false,,,,785839.5,785817.8000000119,471364.243,471367.7000000179,471380.746,785863.358,8,400,,,
trial,html.Screen,4_100_0,2023-09-15T16:38:10.532Z,,0,3,,4047.342000017874,response,ISIC_0006181.JPG,9,ISIC_9472209.JPG,ISIC_9472209.JPG,false,0,keypress(z),500,789911,789910.7000000179,785846.4,785839.6000000238,785863.358,789934.499,8,400,1,,ISIC_0006181.JPG
break,html.Screen,4_100_1,2023-09-15T16:38:10.539Z,,0,,,NaN,,,,,,false,,,,789918.400000006,789918.3000000119,,789911.3000000119,,789934.499,8,400,,,
break_continue,html.Screen,4_100_2,2023-09-15T16:38:10.540Z,,0,,,NaN,,,,,,false,,,,789918.7000000179,789918.7000000179,,789918.5,,789934.499,8,400,,,
sequence,flow.Sequence,4_100,2023-09-15T16:38:10.540Z,,0,,,4055.342000017874,completion,,,,,false,,,,789918.8000000119,789918.7000000179,785846.4,785839.5,785863.358,789934.499,8,400,,,
trial,html.Screen,4_101_0,2023-09-15T16:38:13.315Z,,0,3,,2759.3010000119684,response,ISIC_6370977.JPG,7,ISIC_0055086.JPG,ISIC_6370977.JPG,false,1,keypress(m),500,792694,792693.8000000119,789902.854,789918.8000000119,789934.499,792717.519,8,400,2,,ISIC_0055086.JPG
break,html.Screen,4_101_1,2023-09-15T16:38:13.322Z,,0,,,NaN,,,,,,false,,,,792701.400000006,792701,,792694.1000000238,,792717.519,8,400,,,
break_continue,html.Screen,4_101_2,2023-09-15T16:38:13.323Z,,0,,,NaN,,,,,,false,,,,792701.8000000119,792701.7000000179,,792701.6000000238,,792717.519,8,400,,,
sequence,flow.Sequence,4_101,2023-09-15T16:38:13.323Z,,0,,,2767.201000017929,completion,,,,,false,,,,792701.900000006,792701.7000000179,789902.854,789918.8000000119,789934.499,792717.519,8,400,,,
trial,html.Screen,4_102_0,2023-09-15T16:38:16.286Z,,0,3,,2946.6810000179103,response,ISIC_2993032.JPG,9,ISIC_0058158.JPG,ISIC_2993032.JPG,false,1,keypress(m),500,795664.400000006,795664.2000000179,792685.225,792701.900000006,792717.519,795704.557,8,400,3,,ISIC_0058158.JPG
break,html.Screen,4_102_1,2023-09-15T16:38:16.293Z,,0,,,NaN,,,,,,false,,,,795671.900000006,795671.7000000179,,795664.6000000238,,795704.557,8,400,,,
break_continue,html.Screen,4_102_2,2023-09-15T16:38:16.293Z,,0,,,NaN,,,,,,false,,,,795672.2000000179,795672.1000000238,,795671.900000006,,795704.557,8,400,,,
sequence,flow.Sequence,4_102,2023-09-15T16:38:16.293Z,,0,,,2954.5810000238707,completion,,,,,false,,,,795672.3000000119,795672.1000000238,792685.225,792701.900000006,792717.519,795704.557,8,400,,,
trial,html.Screen,4_103_0,2023-09-15T16:38:21.065Z,,0,3,,4739.143000017852,response,ISIC_0070852.JPG,12,ISIC_0033319.JPG,ISIC_0033319.JPG,false,0,keypress(z),500,800444,800443.7000000179,795687.909,795672.3000000119,795704.557,800486.228,8,400,4,,ISIC_0070852.JPG
break,html.Screen,4_103_1,2023-09-15T16:38:21.072Z,,0,,,NaN,,,,,,false,,,,800451.3000000119,800451.2000000179,,800444.2000000179,,800486.228,8,400,,,
break_continue,html.Screen,4_103_2,2023-09-15T16:38:21.073Z,,0,,,NaN,,,,,,false,,,,800451.6000000238,800451.5,,800451.400000006,,800486.228,8,400,,,
sequence,flow.Sequence,4_103,2023-09-15T16:38:21.073Z,,0,,,4746.94299999997,completion,,,,,false,,,,800451.7000000179,800451.5,795687.909,795672.3000000119,795704.557,800486.228,8,400,,,
trial,html.Screen,4_104_0,2023-09-15T16:38:29.436Z,,0,3,,8328.271999999997,response,ISIC_0024271.JPG,12,ISIC_0001832.JPG,ISIC_0001832.JPG,false,0,keypress(z),500,808814.7000000179,808814.5,800476.275,800451.8000000119,800486.228,808821.516,8,400,5,,ISIC_0024271.JPG
break,html.Screen,4_104_1,2023-09-15T16:38:29.443Z,,0,,,NaN,,,,,,false,,,,808822.1000000238,808821.900000006,,808814.900000006,,808821.516,8,400,,,
break_continue,html.Screen,4_104_2,2023-09-15T16:38:29.443Z,,0,,,NaN,,,,,,false,,,,808822.400000006,808822.3000000119,,808822.1000000238,,808821.516,8,400,,,
sequence,flow.Sequence,4_104,2023-09-15T16:38:29.444Z,,0,,,8336.072000011918,completion,,,,,false,,,,808822.400000006,808822.3000000119,800476.275,800451.7000000179,800486.228,808821.516,8,400,,,
trial,html.Screen,4_105_0,2023-09-15T16:38:34.956Z,,0,3,,5512.684000017936,response,ISIC_0027252.JPG,10,ISIC_0027472.JPG,ISIC_0027252.JPG,false,1,keypress(m),500,814334.5,814334.2000000179,808809.482,808822.5,808821.516,814358.039,8,400,6,,ISIC_0027472.JPG
break,html.Screen,4_105_1,2023-09-15T16:38:34.963Z,,0,,,NaN,,,,,,false,,,,814342.1000000238,814341.8000000119,,814334.6000000238,,814358.039,8,400,,,
break_continue,html.Screen,4_105_2,2023-09-15T16:38:34.963Z,,0,,,NaN,,,,,,false,,,,814342.400000006,814342.3000000119,,814342.1000000238,,814358.039,8,400,,,
sequence,flow.Sequence,4_105,2023-09-15T16:38:34.964Z,,0,,,5520.784000011976,completion,,,,,false,,,,814342.5,814342.3000000119,808809.482,808822.5,808821.516,814358.039,8,400,,,
trial,html.Screen,4_106_0,2023-09-15T16:38:38.095Z,,0,3,,3115.6610000178916,response,ISIC_2565154.JPG,7,ISIC_6755132.JPG,ISIC_2565154.JPG,false,1,keypress(m),500,817474,817473.7000000179,814341.356,814342.6000000238,814358.039,817480.8,8,400,7,,ISIC_6755132.JPG
break,html.Screen,4_106_1,2023-09-15T16:38:38.102Z,,0,,,NaN,,,,,,false,,,,817481.2000000179,817481.1000000238,,817474.1000000238,,817480.8,8,400,,,
break_continue,html.Screen,4_106_2,2023-09-15T16:38:38.103Z,,0,,,NaN,,,,,,false,,,,817481.6000000238,817481.5,,817481.400000006,,817480.8,8,400,,,
sequence,flow.Sequence,4_106,2023-09-15T16:38:38.103Z,,0,,,3123.4610000000102,completion,,,,,false,,,,817481.7000000179,817481.5,814341.356,814342.6000000238,814358.039,817480.8,8,400,,,
trial,html.Screen,4_107_0,2023-09-15T16:38:42.061Z,,0,3,,3958.5000000118744,response,ISIC_4024062.JPG,12,ISIC_0009735.JPG,ISIC_0009735.JPG,false,0,keypress(z),500,821439.6000000238,821439.3000000119,817470.215,817481.8000000119,817480.8,821463.27,8,400,8,,ISIC_4024062.JPG
break,html.Screen,4_107_1,2023-09-15T16:38:42.068Z,,0,,,NaN,,,,,,false,,,,821447,821446.8000000119,,821439.7000000179,,821463.27,8,400,,,
break_continue,html.Screen,4_107_2,2023-09-15T16:38:42.068Z,,0,,,NaN,,,,,,false,,,,821447.3000000119,821447.2000000179,,821447.1000000238,,821463.27,8,400,,,
sequence,flow.Sequence,4_107,2023-09-15T16:38:42.068Z,,0,,,3966.400000017835,completion,,,,,false,,,,821447.400000006,821447.2000000179,817470.215,817481.8000000119,817480.8,821463.27,8,400,,,
trial,html.Screen,4_108_0,2023-09-15T16:38:46.700Z,,0,3,,4615.530000011902,response,ISIC_6609379.JPG,11,ISIC_5546488.JPG,ISIC_6609379.JPG,false,1,keypress(m),500,826079.1000000238,826078.8000000119,821446.529,821447.5,821463.27,826086,8,400,9,,ISIC_5546488.JPG
break,html.Screen,4_108_1,2023-09-15T16:38:46.708Z,,0,,,NaN,,,,,,false,,,,826086.5,826086.3000000119,,826079.3000000119,,826086,8,400,,,
break_continue,html.Screen,4_108_2,2023-09-15T16:38:46.708Z,,0,,,NaN,,,,,,false,,,,826086.900000006,826086.8000000119,,826086.7000000179,,826086,8,400,,,
sequence,flow.Sequence,4_108,2023-09-15T16:38:46.708Z,,0,,,4623.530000011902,completion,,,,,false,,,,826086.900000006,826086.8000000119,821446.529,821447.5,821463.27,826086,8,400,,,
trial,html.Screen,4_109_0,2023-09-15T16:38:49.585Z,,0,3,,2877.4000000059605,response,ISIC_0060525.JPG,7,ISIC_0032420.JPG,ISIC_0060525.JPG,false,1,keypress(m),500,828963.7000000179,828963.400000006,826069.632,826087.1000000238,826086,828970.49,8,400,10,,ISIC_0032420.JPG
break,html.Screen,4_109_1,2023-09-15T16:38:49.592Z,,0,,,NaN,,,,,,false,,,,828971.1000000238,828970.900000006,,828963.8000000119,,828970.49,8,400,,,
break_continue,html.Screen,4_109_2,2023-09-15T16:38:49.592Z,,0,,,NaN,,,,,,false,,,,828971.3000000119,828971.3000000119,,828971.1000000238,,828970.49,8,400,,,
sequence,flow.Sequence,4_109,2023-09-15T16:38:49.592Z,,0,,,2885.300000011921,completion,,,,,false,,,,828971.400000006,828971.3000000119,826069.632,826087,826086,828970.49,8,400,,,
trial,html.Screen,4_110_0,2023-09-15T16:38:52.368Z,,0,3,,2776.610000023851,response,ISIC_0053916.JPG,8,ISIC_0060380.JPG,ISIC_0060380.JPG,false,0,keypress(z),500,831747.400000006,831747.1000000238,828957.366,828971.5,828970.49,831770.987,8,400,11,,ISIC_0053916.JPG
break,html.Screen,4_110_1,2023-09-15T16:38:52.376Z,,0,,,NaN,,,,,,false,,,,831754.900000006,831754.7000000179,,831747.6000000238,,831770.987,8,400,,,
break_continue,html.Screen,4_110_2,2023-09-15T16:38:52.376Z,,0,,,NaN,,,,,,false,,,,831755.2000000179,831755.1000000238,,831755,,831770.987,8,400,,,
sequence,flow.Sequence,4_110,2023-09-15T16:38:52.376Z,,0,,,2784.610000023851,completion,,,,,false,,,,831755.3000000119,831755.1000000238,828957.366,828971.400000006,828970.49,831770.987,8,400,,,
trial,html.Screen,4_111_0,2023-09-15T16:38:55.057Z,,0,3,,2664.413000005996,response,ISIC_0028508.JPG,11,ISIC_5895384.JPG,ISIC_5895384.JPG,false,0,keypress(z),500,834435.6000000238,834435.400000006,831754.268,831755.3000000119,831770.987,834460.169,8,400,12,,ISIC_0028508.JPG
break,html.Screen,4_111_1,2023-09-15T16:38:55.071Z,,0,,,NaN,,,,,,false,,,,834450.1000000238,834449.900000006,,834435.8000000119,,834460.169,8,400,,,
break_continue,html.Screen,4_111_2,2023-09-15T16:38:55.071Z,,0,,,NaN,,,,,,false,,,,834450.400000006,834450.3000000119,,834450.1000000238,,834460.169,8,400,,,
sequence,flow.Sequence,4_111,2023-09-15T16:38:55.071Z,,0,,,2679.3130000119563,completion,,,,,false,,,,834450.400000006,834450.3000000119,831754.268,831755.3000000119,831770.987,834460.169,8,400,,,
trial,html.Screen,4_112_0,2023-09-15T16:38:59.365Z,,0,3,,4283.6310000119265,response,ISIC_0027669.JPG,6,ISIC_4067693.JPG,ISIC_0027669.JPG,false,1,keypress(m),500,838744,838743.8000000119,834442.546,834450.5,834460.169,838750.814,8,400,13,,ISIC_4067693.JPG
break,html.Screen,4_112_1,2023-09-15T16:38:59.372Z,,0,,,NaN,,,,,,false,,,,838751.3000000119,838751,,838744.2000000179,,838750.814,8,400,,,
break_continue,html.Screen,4_112_2,2023-09-15T16:38:59.373Z,,0,,,NaN,,,,,,false,,,,838751.6000000238,838751.5,,838751.400000006,,838750.814,8,400,,,
sequence,flow.Sequence,4_112,2023-09-15T16:38:59.373Z,,0,,,4291.331000000006,completion,,,,,false,,,,838751.7000000179,838751.5,834442.546,834450.400000006,834460.169,838750.814,8,400,,,
trial,html.Screen,4_113_0,2023-09-15T16:39:02.676Z,,0,3,,3303.685999999987,response,ISIC_6899527.JPG,10,ISIC_0046729.JPG,ISIC_0046729.JPG,false,0,keypress(z),500,842054.7000000179,842054.5,838742.49,838751.8000000119,838750.814,842078.358,8,400,14,,ISIC_6899527.JPG
break,html.Screen,4_113_1,2023-09-15T16:39:02.683Z,,0,,,NaN,,,,,,false,,,,842062.1000000238,842062,,842054.900000006,,842078.358,8,400,,,
break_continue,html.Screen,4_113_2,2023-09-15T16:39:02.683Z,,0,,,NaN,,,,,,false,,,,842062.400000006,842062.3000000119,,842062.2000000179,,842078.358,8,400,,,
sequence,flow.Sequence,4_113,2023-09-15T16:39:02.684Z,,0,,,3311.486000011908,completion,,,,,false,,,,842062.400000006,842062.3000000119,838742.49,838751.8000000119,838750.814,842078.358,8,400,,,
trial,html.Screen,4_114_0,2023-09-15T16:39:05.766Z,,0,3,,3066.342000017874,response,ISIC_0002213.JPG,9,ISIC_6561111.JPG,ISIC_0002213.JPG,false,1,keypress(m),500,845144.900000006,845144.7000000179,842061.599,842062.5,842078.358,845151.603,8,400,15,,ISIC_6561111.JPG
break,html.Screen,4_114_1,2023-09-15T16:39:05.773Z,,0,,,NaN,,,,,,false,,,,845151.900000006,845151.8000000119,,845145,,845151.603,8,400,,,
break_continue,html.Screen,4_114_2,2023-09-15T16:39:05.773Z,,0,,,NaN,,,,,,false,,,,845152.2000000179,845152.1000000238,,845152,,845151.603,8,400,,,
sequence,flow.Sequence,4_114,2023-09-15T16:39:05.773Z,,0,,,3073.7420000238344,completion,,,,,false,,,,845152.3000000119,845152.1000000238,842061.599,842062.5,842078.358,845151.603,8,400,,,
trial,html.Screen,4_115_0,2023-09-15T16:39:09.363Z,,0,3,,3587.697000011918,response,ISIC_4139260.JPG,12,ISIC_0029281.JPG,ISIC_4139260.JPG,false,1,keypress(m),500,848739.5,848739.3000000119,845145.095,845152.400000006,845151.603,848768.979,8,400,16,,ISIC_0029281.JPG
break,html.Screen,4_115_1,2023-09-15T16:39:09.364Z,,0,,,NaN,,,,,,false,,,,848740.400000006,848740.2000000179,,848739.8000000119,,848768.979,8,400,,,
break_continue,html.Screen,4_115_2,2023-09-15T16:39:09.365Z,,0,,,NaN,,,,,,false,,,,848740.7000000179,848740.6000000238,,848740.400000006,,848768.979,8,400,,,
sequence,flow.Sequence,4_115,2023-09-15T16:39:09.365Z,,0,,,3588.997000023839,completion,,,,,false,,,,848740.8000000119,848740.6000000238,845145.095,845152.400000006,845151.603,848768.979,8,400,,,
trial,html.Screen,4_116_0,2023-09-15T16:39:13.100Z,,0,3,,3706.6210000237916,response,ISIC_8419663.JPG,9,ISIC_0010958.JPG,ISIC_8419663.JPG,false,1,keypress(m),500,852476.1000000238,852475.6000000238,848752.706,848740.900000006,848768.979,852483.105,8,400,17,,ISIC_0010958.JPG
break,html.Screen,4_116_1,2023-09-15T16:39:13.107Z,,0,,,NaN,,,,,,false,,,,852483.6000000238,852483.5,,852476.3000000119,,852483.105,8,400,,,
break_continue,html.Screen,4_116_2,2023-09-15T16:39:13.108Z,,0,,,NaN,,,,,,false,,,,852483.900000006,852483.8000000119,,852483.7000000179,,852483.105,8,400,,,
sequence,flow.Sequence,4_116,2023-09-15T16:39:13.108Z,,0,,,3714.8210000118706,completion,,,,,false,,,,852484,852483.8000000119,848752.706,848740.900000006,848768.979,852483.105,8,400,,,
trial,html.Screen,4_117_0,2023-09-15T16:39:16.397Z,,0,3,,3289.3950000000186,response,ISIC_8023705.JPG,9,ISIC_0024720.JPG,ISIC_8023705.JPG,false,1,keypress(m),500,855772.7000000179,855772.5,852474.675,852484,852483.105,855796.512,8,400,18,,ISIC_0024720.JPG
break,html.Screen,4_117_1,2023-09-15T16:39:16.404Z,,0,,,NaN,,,,,,false,,,,855780.2000000179,855780,,855772.900000006,,855796.512,8,400,,,
break_continue,html.Screen,4_117_2,2023-09-15T16:39:16.404Z,,0,,,NaN,,,,,,false,,,,855780.5,855780.400000006,,855780.3000000119,,855796.512,8,400,,,
sequence,flow.Sequence,4_117,2023-09-15T16:39:16.404Z,,0,,,3297.295000005979,completion,,,,,false,,,,855780.6000000238,855780.400000006,852474.675,852484,852483.105,855796.512,8,400,,,
trial,html.Screen,4_118_0,2023-09-15T16:39:20.627Z,,0,3,,4206.288000011933,response,ISIC_7452410.JPG,9,ISIC_8353090.JPG,ISIC_8353090.JPG,false,0,keypress(z),500,860003,860002.8000000119,855779.636,855780.7000000179,855796.512,860009.898,8,400,19,,ISIC_7452410.JPG
break,html.Screen,4_118_1,2023-09-15T16:39:20.634Z,,0,,,NaN,,,,,,false,,,,860010.400000006,860010.2000000179,,860003.2000000179,,860009.898,8,400,,,
break_continue,html.Screen,4_118_2,2023-09-15T16:39:20.635Z,,0,,,NaN,,,,,,false,,,,860010.7000000179,860010.7000000179,,860010.5,,860009.898,8,400,,,
sequence,flow.Sequence,4_118,2023-09-15T16:39:20.635Z,,0,,,4214.1880000178935,completion,,,,,false,,,,860010.8000000119,860010.7000000179,855779.636,855780.7000000179,855796.512,860009.898,8,400,,,
trial,html.Screen,4_119_0,2023-09-15T16:39:23.713Z,,0,3,,3079.5020000059158,response,ISIC_0062160.JPG,8,ISIC_2131962.JPG,ISIC_2131962.JPG,false,0,keypress(z),500,863089.5,863089.400000006,859996.645,860010.900000006,860009.898,863096.454,8,400,20,,ISIC_0062160.JPG
break,html.Screen,4_119_1,2023-09-15T16:39:23.721Z,,0,,,NaN,,,,,,false,,,,863096.900000006,863096.8000000119,,863089.7000000179,,863096.454,8,400,,,
break_continue,html.Screen,4_119_2,2023-09-15T16:39:23.722Z,,0,,,NaN,,,,,,false,,,,863097.900000006,863097.8000000119,,863097.6000000238,,863096.454,8,400,,,
sequence,flow.Sequence,4_119,2023-09-15T16:39:23.722Z,,0,,,3087.902000011876,completion,,,,,false,,,,863098,863097.8000000119,859996.645,860010.900000006,860009.898,863096.454,8,400,,,
trial,html.Screen,4_120_0,2023-09-15T16:39:27.166Z,,0,3,,3445.2460000178544,response,ISIC_3067522.JPG,10,ISIC_8733345.JPG,ISIC_3067522.JPG,false,1,keypress(m),500,866541.900000006,866541.7000000179,863080.948,863098.1000000238,863096.454,866582.012,8,400,21,,ISIC_8733345.JPG
break,html.Screen,4_120_1,2023-09-15T16:39:27.173Z,,0,,,NaN,,,,,,false,,,,866549.2000000179,866549,,866542.1000000238,,866582.012,8,400,,,
break_continue,html.Screen,4_120_2,2023-09-15T16:39:27.173Z,,0,,,NaN,,,,,,false,,,,866549.5,866549.400000006,,866549.2000000179,,866582.012,8,400,,,
sequence,flow.Sequence,4_120,2023-09-15T16:39:27.173Z,,0,,,3452.9460000059335,completion,,,,,false,,,,866549.6000000238,866549.400000006,863080.948,863098.1000000238,863096.454,866582.012,8,400,,,
trial,html.Screen,4_121_0,2023-09-15T16:39:33.340Z,,0,3,,6133.988000000012,response,ISIC_1223849.JPG,12,ISIC_0054025.JPG,ISIC_0054025.JPG,false,0,keypress(z),500,872716.2000000179,872716,866565.468,866549.7000000179,866582.012,872756.73,8,400,22,,ISIC_1223849.JPG
break,html.Screen,4_121_1,2023-09-15T16:39:33.347Z,,0,,,NaN,,,,,,false,,,,872723.400000006,872723.3000000119,,872716.400000006,,872756.73,8,400,,,
break_continue,html.Screen,4_121_2,2023-09-15T16:39:33.348Z,,0,,,NaN,,,,,,false,,,,872723.7000000179,872723.6000000238,,872723.5,,872756.73,8,400,,,
sequence,flow.Sequence,4_121,2023-09-15T16:39:33.348Z,,0,,,6141.588000023854,completion,,,,,false,,,,872723.8000000119,872723.6000000238,866565.468,866549.6000000238,866582.012,872756.73,8,400,,,
trial,html.Screen,4_122_0,2023-09-15T16:39:38.508Z,,0,3,,5127.07000001194,response,ISIC_4701900.JPG,7,ISIC_0029405.JPG,ISIC_4701900.JPG,false,1,keypress(m),500,877884,877883.8000000119,872739.797,872723.8000000119,872756.73,877907.568,8,400,23,,ISIC_0029405.JPG
break,html.Screen,4_122_1,2023-09-15T16:39:38.529Z,,0,,,NaN,,,,,,false,,,,877904.8000000119,877891.1000000238,,877884.2000000179,,877907.568,8,400,,,
break_continue,html.Screen,4_122_2,2023-09-15T16:39:38.529Z,,0,,,NaN,,,,,,false,,,,877905.2000000179,877905.2000000179,,877904.900000006,,877907.568,8,400,,,
sequence,flow.Sequence,4_122,2023-09-15T16:39:38.529Z,,0,,,5148.4700000179,completion,,,,,false,,,,877905.3000000119,877905.2000000179,872739.797,872723.8000000119,872756.73,877907.568,8,400,,,
trial,html.Screen,4_123_0,2023-09-15T16:39:41.849Z,,0,3,,3317.2320000119507,response,ISIC_0063181.JPG,10,ISIC_3593161.JPG,ISIC_3593161.JPG,false,0,keypress(z),500,881225.1000000238,881224.8000000119,877884.438,877905.3000000119,877907.568,881248.541,8,400,24,,ISIC_0063181.JPG
break,html.Screen,4_123_1,2023-09-15T16:39:41.856Z,,0,,,NaN,,,,,,false,,,,881232.3000000119,881232.2000000179,,881225.3000000119,,881248.541,8,400,,,
break_continue,html.Screen,4_123_2,2023-09-15T16:39:41.857Z,,0,,,NaN,,,,,,false,,,,881233.6000000238,881232.5,,881232.400000006,,881248.541,8,400,,,
sequence,flow.Sequence,4_123,2023-09-15T16:39:41.858Z,,0,,,3324.93200000003,completion,,,,,false,,,,881233.8000000119,881232.5,877884.438,877905.3000000119,877907.568,881248.541,8,400,,,
trial,html.Screen,4_124_0,2023-09-15T16:39:44.933Z,,0,3,,3060.0590000238735,response,ISIC_0029470.JPG,10,ISIC_0027406.JPG,ISIC_0029470.JPG,false,1,keypress(m),500,884308.900000006,884308.6000000238,881218.589,881233.900000006,881248.541,884332.555,8,400,25,,ISIC_0027406.JPG
break,html.Screen,4_124_1,2023-09-15T16:39:44.940Z,,0,,,NaN,,,,,,false,,,,884316.3000000119,884316.1000000238,,884309.1000000238,,884332.555,8,400,,,
break_continue,html.Screen,4_124_2,2023-09-15T16:39:44.940Z,,0,,,NaN,,,,,,false,,,,884316.6000000238,884316.5,,884316.3000000119,,884332.555,8,400,,,
sequence,flow.Sequence,4_124,2023-09-15T16:39:44.940Z,,0,,,3067.9590000000317,completion,,,,,false,,,,884316.6000000238,884316.5,881218.589,881233.8000000119,881248.541,884332.555,8,400,,,
trial,html.Screen,4_125_0,2023-09-15T16:39:48.070Z,,0,3,,3113.5450000237906,response,ISIC_7839712.JPG,9,ISIC_9100283.JPG,ISIC_7839712.JPG,false,1,keypress(m),500,887446.5,887446.1000000238,884302.194,884316.7000000179,884332.555,887486.958,8,400,26,,ISIC_9100283.JPG
break,html.Screen,4_125_1,2023-09-15T16:39:48.078Z,,0,,,NaN,,,,,,false,,,,887453.8000000119,887453.6000000238,,887446.6000000238,,887486.958,8,400,,,
break_continue,html.Screen,4_125_2,2023-09-15T16:39:48.078Z,,0,,,NaN,,,,,,false,,,,887454.1000000238,887454,,887453.8000000119,,887486.958,8,400,,,
sequence,flow.Sequence,4_125,2023-09-15T16:39:48.078Z,,0,,,3121.444999999949,completion,,,,,false,,,,887454.2000000179,887454,884302.194,884316.6000000238,884332.555,887486.958,8,400,,,
