sender,sender_type,sender_id,timestamp,meta,,blockNo,condition,duration,ended_on,img_left,img_reveal,img_right,loser,practice,response,response_action,selection_duration,time_commit,time_end,time_render,time_run,time_show,time_switch,total_blocks,total_trials,trialNo,url,winner
informed_consent,html.Screen,0,2023-09-06T19:25:13.698Z,"{""labjs_version"":""20.2.4"",""labjs_build"":{""flavor"":""production"",""commit"":""f5b4a49f956347addd546a832a3327688c2c0fef""},""location"":""https://run.pavlovia.org/MurrayBennett/melanoma-2afc/?participant=62eaacea4ed738b3a35c0455&STUDY_ID=64f8c92207ba404bcb356c90&SESSION_ID=64f8d20911894b3e5d8327a4&platform=prolific"",""userAgent"":""Mozilla/5.0 (Macintosh; Intel Mac OS X 10_15_7) AppleWebKit/537.36 (KHTML, like Gecko) Chrome/116.0.0.0 Safari/537.36"",""platform"":""MacIntel"",""language"":""en-US"",""locale"":""en-US"",""timeZone"":""America/New_York"",""timezoneOffset"":240,""screen_width"":1440,""screen_height"":900,""scroll_width"":1440,""scroll_height"":712,""window_innerWidth"":1440,""window_innerHeight"":760,""devicePixelRatio"":2}",,,,8422.842000572204,response,,,,,,consent,click button,,9960.800000190735,9957.900000572205,1135.002,1536.6999998092651,1535.058,9969.572,,,,"{""participant"":""62eaacea4ed738b3a35c0455"",""STUDY_ID"":""64f8c92207ba404bcb356c90"",""SESSION_ID"":""64f8d20911894b3e5d8327a4"",""platform"":""prolific""}",
Welcome,html.Screen,1,2023-09-06T19:25:54.832Z,,,,uniform,41124.02800038147,response,,,,,,continue,click button,,51095.699999809265,51093.60000038147,9952.903,9961.10000038147,9969.572,51109.818,,,,,
trial,html.Screen,2_0_0,2023-09-06T19:26:00.452Z,,0,0,,5605.381999809266,response,ISIC_0025593.JPG,,ISIC_0063388.JPG,ISIC_0025593.JPG,true,1,keypress(m),500,56715.60000038147,56715.199999809265,51093.149,51096,51109.818,56727.271,1,6,1,,ISIC_0063388.JPG
sequence,flow.Sequence,2_0,2023-09-06T19:26:00.452Z,,0,,,5605.381999809266,completion,,,,,true,,,,56715.900000572205,56715.199999809265,51093.149,51096,51109.818,56727.271,1,6,,,
trial,html.Screen,2_1_0,2023-09-06T19:26:05.134Z,,0,0,,4670.629000572204,response,ISIC_0028178.JPG,,ISIC_1309015.JPG,ISIC_0028178.JPG,true,1,keypress(m),500,61398.199999809265,61397.900000572205,56710.602,56716.10000038147,56727.271,61411.534,1,6,2,,ISIC_1309015.JPG
sequence,flow.Sequence,2_1,2023-09-06T19:26:05.135Z,,0,,,4670.629000572204,completion,,,,,true,,,,61398.400000572205,61397.900000572205,56710.602,56716,56727.271,61411.534,1,6,,,
trial,html.Screen,2_2_0,2023-09-06T19:26:12.484Z,,0,0,,7335.866000572205,response,ISIC_0031128.JPG,,ISIC_3314853.JPG,ISIC_0031128.JPG,true,1,keypress(m),500,68747.69999980927,68747.4000005722,61394.865,61398.60000038147,61411.534,68762.563,1,6,3,,ISIC_3314853.JPG
sequence,flow.Sequence,2_2,2023-09-06T19:26:12.484Z,,0,,,7335.866000572205,completion,,,,,true,,,,68748,68747.4000005722,61394.865,61398.60000038147,61411.534,68762.563,1,6,,,
trial,html.Screen,2_3_0,2023-09-06T19:26:16.408Z,,0,0,,3909.33700057221,response,ISIC_0031612.JPG,,ISIC_8980141.JPG,ISIC_0031612.JPG,true,1,keypress(m),500,72672.19999980927,72671.9000005722,68745.894,68748.19999980927,68762.563,72680.001,1,6,4,,ISIC_8980141.JPG
sequence,flow.Sequence,2_3,2023-09-06T19:26:16.409Z,,0,,,3909.33700057221,completion,,,,,true,,,,72672.60000038147,72671.9000005722,68745.894,68748.19999980927,68762.563,72680.001,1,6,,,
trial,html.Screen,2_4_0,2023-09-06T19:26:20.043Z,,0,0,,3627.299000190731,response,ISIC_1197737.JPG,,ISIC_9721604.JPG,ISIC_1197737.JPG,true,1,keypress(m),500,76307.60000038147,76307.30000019073,72663.332,72672.9000005722,72680.001,76313.843,1,6,5,,ISIC_9721604.JPG
sequence,flow.Sequence,2_4,2023-09-06T19:26:20.044Z,,0,,,3627.299000190731,completion,,,,,true,,,,76308,76307.30000019073,72663.332,72672.80000019073,72680.001,76313.843,1,6,,,
trial,html.Screen,2_5_0,2023-09-06T19:26:23.247Z,,0,0,,3197.1570000000065,response,ISIC_0010681.JPG,,ISIC_0025346.JPG,ISIC_0025346.JPG,true,0,keypress(z),500,79511.19999980927,79511,76297.174,76308.10000038147,76313.843,79514.291,1,6,6,,ISIC_0010681.JPG
sequence,flow.Sequence,2_5,2023-09-06T19:26:23.247Z,,0,,,3197.1570000000065,completion,,,,,true,,,,79511.60000038147,79511,76297.174,76308.10000038147,76313.843,79514.291,1,6,,,
loop,flow.Loop,2,2023-09-06T19:26:23.248Z,,,,,28401.182,completion,,,,,true,,,,79511.80000019073,79511,51093.149,51095.900000572205,51109.818,79514.291,1,6,,,
exp_instructions,html.Screen,3,2023-09-06T19:26:40.790Z,,,,,17537.709000000003,response,,,,,,continue,keypress(Space),,97054.4000005722,97052,79497.622,79511.9000005722,79514.291,97066.748,,,,,
trial,html.Screen,4_0_0,2023-09-06T19:26:45.370Z,,0,1,,4567.951999809258,response,ISIC_0064982.JPG,7,ISIC_0360988.JPG,ISIC_0064982.JPG,false,1,keypress(m),500,101634.9000005722,101634.69999980927,97050.079,97054.69999980927,97066.748,101651.33,8,400,1,,ISIC_0360988.JPG
break,html.Screen,4_0_1,2023-09-06T19:26:45.371Z,,0,,,NaN,,,,,,false,,,,101635.80000019073,101635.5,,101635,,101651.33,8,400,,,
break_continue,html.Screen,4_0_2,2023-09-06T19:26:45.371Z,,0,,,NaN,,,,,,false,,,,101636.19999980927,101636.10000038147,,101635.9000005722,,101651.33,8,400,,,
sequence,flow.Sequence,4_0,2023-09-06T19:26:45.372Z,,0,,,4569.352000381463,completion,,,,,false,,,,101636.4000005722,101636.10000038147,97050.079,97054.60000038147,97066.748,101651.33,8,400,,,
trial,html.Screen,4_1_0,2023-09-06T19:26:50.351Z,,0,1,,4963.970000190733,response,ISIC_3590997.JPG,6,ISIC_0068924.JPG,ISIC_0068924.JPG,false,0,keypress(z),500,106615.5,106615.30000019073,101634.661,101636.60000038147,101651.33,106618.692,8,400,2,,ISIC_3590997.JPG
break,html.Screen,4_1_1,2023-09-06T19:26:50.351Z,,0,,,NaN,,,,,,false,,,,106616.19999980927,106615.9000005722,,106615.69999980927,,106618.692,8,400,,,
break_continue,html.Screen,4_1_2,2023-09-06T19:26:50.352Z,,0,,,NaN,,,,,,false,,,,106616.5,106616.4000005722,,106616.30000019073,,106618.692,8,400,,,
sequence,flow.Sequence,4_1,2023-09-06T19:26:50.352Z,,0,,,4965.070000572203,completion,,,,,false,,,,106616.69999980927,106616.4000005722,101634.661,101636.5,101651.33,106618.692,8,400,,,
trial,html.Screen,4_2_0,2023-09-06T19:26:55.734Z,,0,1,,5379.908000381474,response,ISIC_0026690.JPG,7,ISIC_6383486.JPG,ISIC_0026690.JPG,false,1,keypress(m),500,111998.80000019073,111998.60000038147,106602.023,106616.80000019073,106618.692,112003.025,8,400,3,,ISIC_6383486.JPG
break,html.Screen,4_2_1,2023-09-06T19:26:55.734Z,,0,,,NaN,,,,,,false,,,,111999.4000005722,111999.19999980927,,111998.9000005722,,112003.025,8,400,,,
break_continue,html.Screen,4_2_2,2023-09-06T19:26:55.735Z,,0,,,NaN,,,,,,false,,,,111999.69999980927,111999.60000038147,,111999.5,,112003.025,8,400,,,
sequence,flow.Sequence,4_2,2023-09-06T19:26:55.735Z,,0,,,5380.908000381474,completion,,,,,false,,,,111999.9000005722,111999.60000038147,106602.023,106616.80000019073,106618.692,112003.025,8,400,,,
trial,html.Screen,4_3_0,2023-09-06T19:27:00.492Z,,0,1,,4753.674999809271,response,ISIC_0024300.JPG,8,ISIC_9302863.JPG,ISIC_9302863.JPG,false,0,keypress(z),500,116756.9000005722,116756.69999980927,111986.356,112000,112003.025,116770.359,8,400,4,,ISIC_0024300.JPG
break,html.Screen,4_3_1,2023-09-06T19:27:00.492Z,,0,,,NaN,,,,,,false,,,,116757.5,116757.4000005722,,116757.10000038147,,116770.359,8,400,,,
break_continue,html.Screen,4_3_2,2023-09-06T19:27:00.493Z,,0,,,NaN,,,,,,false,,,,116757.80000019073,116757.69999980927,,116757.60000038147,,116770.359,8,400,,,
sequence,flow.Sequence,4_3,2023-09-06T19:27:00.493Z,,0,,,4754.674999809271,completion,,,,,false,,,,116758,116757.69999980927,111986.356,111999.9000005722,112003.025,116770.359,8,400,,,
trial,html.Screen,4_4_0,2023-09-06T19:27:08.165Z,,0,1,,7659.941000190738,response,ISIC_0032360.JPG,8,ISIC_8096177.JPG,ISIC_8096177.JPG,false,0,keypress(z),500,124430.5,124430.30000019073,116753.69,116758.10000038147,116770.359,124438.323,8,400,5,,ISIC_0032360.JPG
break,html.Screen,4_4_1,2023-09-06T19:27:08.166Z,,0,,,NaN,,,,,,false,,,,124431.10000038147,124430.9000005722,,124430.69999980927,,124438.323,8,400,,,
break_continue,html.Screen,4_4_2,2023-09-06T19:27:08.166Z,,0,,,NaN,,,,,,false,,,,124431.4000005722,124431.30000019073,,124431.30000019073,,124438.323,8,400,,,
sequence,flow.Sequence,4_4,2023-09-06T19:27:08.166Z,,0,,,7660.941000190738,completion,,,,,false,,,,124431.60000038147,124431.30000019073,116753.69,116758.10000038147,116770.359,124438.323,8,400,,,
trial,html.Screen,4_5_0,2023-09-06T19:27:14.731Z,,0,1,,6558.277000381466,response,ISIC_0033805.JPG,8,ISIC_0006517.JPG,ISIC_0033805.JPG,false,1,keypress(m),500,130996.80000019073,130996.60000038147,124421.654,124431.80000019073,124438.323,131006.193,8,400,6,,ISIC_0006517.JPG
break,html.Screen,4_5_1,2023-09-06T19:27:14.732Z,,0,,,NaN,,,,,,false,,,,130997.4000005722,130997.30000019073,,130997,,131006.193,8,400,,,
break_continue,html.Screen,4_5_2,2023-09-06T19:27:14.732Z,,0,,,NaN,,,,,,false,,,,130997.69999980927,130997.60000038147,,130997.5,,131006.193,8,400,,,
sequence,flow.Sequence,4_5,2023-09-06T19:27:14.732Z,,0,,,6559.277000381466,completion,,,,,false,,,,130997.9000005722,130997.60000038147,124421.654,124431.80000019073,124438.323,131006.193,8,400,,,
trial,html.Screen,4_6_0,2023-09-06T19:27:21.057Z,,0,1,,6316.607000190736,response,ISIC_0024779.JPG,7,ISIC_0067160.JPG,ISIC_0024779.JPG,false,1,keypress(m),500,137323,137322.80000019073,130989.524,130998,131006.193,137323.744,8,400,7,,ISIC_0067160.JPG
break,html.Screen,4_6_1,2023-09-06T19:27:21.058Z,,0,,,NaN,,,,,,false,,,,137323.60000038147,137323.4000005722,,137323.19999980927,,137323.744,8,400,,,
break_continue,html.Screen,4_6_2,2023-09-06T19:27:21.058Z,,0,,,NaN,,,,,,false,,,,137323.9000005722,137323.80000019073,,137323.69999980927,,137323.744,8,400,,,
sequence,flow.Sequence,4_6,2023-09-06T19:27:21.058Z,,0,,,6317.607000190736,completion,,,,,false,,,,137324.10000038147,137323.80000019073,130989.524,130998,131006.193,137323.744,8,400,,,
trial,html.Screen,4_7_0,2023-09-06T19:27:26.583Z,,0,1,,5524.955999809259,response,ISIC_8483458.JPG,8,ISIC_5771106.JPG,ISIC_5771106.JPG,false,0,keypress(z),500,142848.9000005722,142848.69999980927,137307.075,137324.19999980927,137323.744,142858.093,8,400,8,,ISIC_8483458.JPG
break,html.Screen,4_7_1,2023-09-06T19:27:26.584Z,,0,,,NaN,,,,,,false,,,,142849.4000005722,142849.4000005722,,142849.10000038147,,142858.093,8,400,,,
break_continue,html.Screen,4_7_2,2023-09-06T19:27:26.584Z,,0,,,NaN,,,,,,false,,,,142849.69999980927,142849.69999980927,,142849.60000038147,,142858.093,8,400,,,
sequence,flow.Sequence,4_7,2023-09-06T19:27:26.584Z,,0,,,5525.955999809259,completion,,,,,false,,,,142849.9000005722,142849.69999980927,137307.075,137324.19999980927,137323.744,142858.093,8,400,,,
trial,html.Screen,4_8_0,2023-09-06T19:27:30.781Z,,0,1,,4188.207000190741,response,ISIC_0274382.JPG,7,ISIC_0010581.JPG,ISIC_0274382.JPG,false,1,keypress(m),500,147046.5,147046.30000019073,142841.424,142850,142858.093,147058.681,8,400,9,,ISIC_0010581.JPG
break,html.Screen,4_8_1,2023-09-06T19:27:30.781Z,,0,,,NaN,,,,,,false,,,,147047.19999980927,147046.9000005722,,147046.69999980927,,147058.681,8,400,,,
break_continue,html.Screen,4_8_2,2023-09-06T19:27:30.781Z,,0,,,NaN,,,,,,false,,,,147047.4000005722,147047.4000005722,,147047.19999980927,,147058.681,8,400,,,
sequence,flow.Sequence,4_8,2023-09-06T19:27:30.782Z,,0,,,4189.307000572211,completion,,,,,false,,,,147047.60000038147,147047.4000005722,142841.424,142850,142858.093,147058.681,8,400,,,
trial,html.Screen,4_9_0,2023-09-06T19:27:37.171Z,,0,1,,6378.219000572193,response,ISIC_5316803.JPG,8,ISIC_3981425.JPG,ISIC_3981425.JPG,false,0,keypress(z),500,153437.19999980927,153436.9000005722,147042.012,147047.69999980927,147058.681,153443.189,8,400,10,,ISIC_5316803.JPG
break,html.Screen,4_9_1,2023-09-06T19:27:37.172Z,,0,,,NaN,,,,,,false,,,,153437.69999980927,153437.60000038147,,153437.30000019073,,153443.189,8,400,,,
break_continue,html.Screen,4_9_2,2023-09-06T19:27:37.173Z,,0,,,NaN,,,,,,false,,,,153439.10000038147,153438.9000005722,,153438.69999980927,,153443.189,8,400,,,
sequence,flow.Sequence,4_9,2023-09-06T19:27:37.173Z,,0,,,6380.219000572193,completion,,,,,false,,,,153439.19999980927,153438.9000005722,147042.012,147047.69999980927,147058.681,153443.189,8,400,,,
trial,html.Screen,4_10_0,2023-09-06T19:27:47.497Z,,0,1,,10320.510999809252,response,ISIC_0070250.JPG,5,ISIC_0015189.JPG,ISIC_0015189.JPG,false,0,keypress(z),500,163763.9000005722,163763.69999980927,153426.52,153439.4000005722,153443.189,163778.204,8,400,11,,ISIC_0070250.JPG
break,html.Screen,4_10_1,2023-09-06T19:27:47.498Z,,0,,,NaN,,,,,,false,,,,163764.5,163764.30000019073,,163764,,163778.204,8,400,,,
break_continue,html.Screen,4_10_2,2023-09-06T19:27:47.498Z,,0,,,NaN,,,,,,false,,,,163764.80000019073,163764.69999980927,,163764.60000038147,,163778.204,8,400,,,
sequence,flow.Sequence,4_10,2023-09-06T19:27:47.499Z,,0,,,10321.510999809252,completion,,,,,false,,,,163765,163764.69999980927,153426.52,153439.30000019073,153443.189,163778.204,8,400,,,
trial,html.Screen,4_11_0,2023-09-06T19:27:52.412Z,,0,1,,4900.096000190737,response,ISIC_6088194.JPG,8,ISIC_0058716.JPG,ISIC_6088194.JPG,false,1,keypress(m),500,168678.4000005722,168678.30000019073,163761.535,163765.10000038147,163778.204,168695.559,8,400,12,,ISIC_0058716.JPG
break,html.Screen,4_11_1,2023-09-06T19:27:52.413Z,,0,,,NaN,,,,,,false,,,,168679.10000038147,168678.9000005722,,168678.69999980927,,168695.559,8,400,,,
break_continue,html.Screen,4_11_2,2023-09-06T19:27:52.413Z,,0,,,NaN,,,,,,false,,,,168679.5,168679.30000019073,,168679.19999980927,,168695.559,8,400,,,
sequence,flow.Sequence,4_11,2023-09-06T19:27:52.413Z,,0,,,4901.096000190737,completion,,,,,false,,,,168679.60000038147,168679.30000019073,163761.535,163765,163778.204,168695.559,8,400,,,
trial,html.Screen,4_12_0,2023-09-06T19:27:56.511Z,,0,1,,4082.341000572196,response,ISIC_9887341.JPG,5,ISIC_8027899.JPG,ISIC_8027899.JPG,false,0,keypress(z),500,172778.10000038147,172777.9000005722,168678.89,168679.80000019073,168695.559,172779.464,8,400,13,,ISIC_9887341.JPG
break,html.Screen,4_12_1,2023-09-06T19:27:56.512Z,,0,,,NaN,,,,,,false,,,,172778.80000019073,172778.5,,172778.30000019073,,172779.464,8,400,,,
break_continue,html.Screen,4_12_2,2023-09-06T19:27:56.513Z,,0,,,NaN,,,,,,false,,,,172779.10000038147,172779,,172778.9000005722,,172779.464,8,400,,,
sequence,flow.Sequence,4_12,2023-09-06T19:27:56.513Z,,0,,,4083.4409999999916,completion,,,,,false,,,,172779.30000019073,172779,168678.89,168679.69999980927,168695.559,172779.464,8,400,,,
trial,html.Screen,4_13_0,2023-09-06T19:28:01.715Z,,0,1,,5201.735999809258,response,ISIC_0062702.JPG,8,ISIC_0010416.JPG,ISIC_0010416.JPG,false,0,keypress(z),500,177981.30000019073,177981.19999980927,172762.795,172779.5,172779.464,177997.1,8,400,14,,ISIC_0062702.JPG
break,html.Screen,4_13_1,2023-09-06T19:28:01.715Z,,0,,,NaN,,,,,,false,,,,177981.9000005722,177981.69999980927,,177981.5,,177997.1,8,400,,,
break_continue,html.Screen,4_13_2,2023-09-06T19:28:01.716Z,,0,,,NaN,,,,,,false,,,,177982.30000019073,177982.19999980927,,177982,,177997.1,8,400,,,
sequence,flow.Sequence,4_13,2023-09-06T19:28:01.716Z,,0,,,5202.735999809258,completion,,,,,false,,,,177982.5,177982.19999980927,172762.795,172779.5,172779.464,177997.1,8,400,,,
trial,html.Screen,4_14_0,2023-09-06T19:28:08.188Z,,0,1,,6457.300000572199,response,ISIC_0010724.JPG,9,ISIC_0011356.JPG,ISIC_0011356.JPG,false,0,keypress(z),500,184454.60000038147,184454.4000005722,177980.431,177982.60000038147,177997.1,184464.88,8,400,15,,ISIC_0010724.JPG
break,html.Screen,4_14_1,2023-09-06T19:28:08.188Z,,0,,,NaN,,,,,,false,,,,184455.19999980927,184455,,184454.80000019073,,184464.88,8,400,,,
break_continue,html.Screen,4_14_2,2023-09-06T19:28:08.189Z,,0,,,NaN,,,,,,false,,,,184455.60000038147,184455.4000005722,,184455.30000019073,,184464.88,8,400,,,
sequence,flow.Sequence,4_14,2023-09-06T19:28:08.189Z,,0,,,6458.300000572199,completion,,,,,false,,,,184455.80000019073,184455.4000005722,177980.431,177982.5,177997.1,184464.88,8,400,,,
trial,html.Screen,4_15_0,2023-09-06T19:28:14.450Z,,0,1,,6252.119999999995,response,ISIC_0071196.JPG,9,ISIC_0028024.JPG,ISIC_0071196.JPG,false,1,keypress(m),500,190717.30000019073,190717,184448.211,184455.9000005722,184464.88,190732.424,8,400,16,,ISIC_0028024.JPG
break,html.Screen,4_15_1,2023-09-06T19:28:14.451Z,,0,,,NaN,,,,,,false,,,,190717.80000019073,190717.60000038147,,190717.4000005722,,190732.424,8,400,,,
break_continue,html.Screen,4_15_2,2023-09-06T19:28:14.451Z,,0,,,NaN,,,,,,false,,,,190718.19999980927,190718.10000038147,,190717.9000005722,,190732.424,8,400,,,
sequence,flow.Sequence,4_15,2023-09-06T19:28:14.451Z,,0,,,6253.220000381465,completion,,,,,false,,,,190718.30000019073,190718.10000038147,184448.211,184455.80000019073,184464.88,190732.424,8,400,,,
trial,html.Screen,4_16_0,2023-09-06T19:28:20.168Z,,0,1,,5702.876000190736,response,ISIC_0013497.JPG,9,ISIC_0010718.JPG,ISIC_0010718.JPG,false,0,keypress(z),500,196435.60000038147,196435.30000019073,190715.755,190718.4000005722,190732.424,196450.159,8,400,17,,ISIC_0013497.JPG
break,html.Screen,4_16_1,2023-09-06T19:28:20.169Z,,0,,,NaN,,,,,,false,,,,196436.10000038147,196436,,196435.69999980927,,196450.159,8,400,,,
break_continue,html.Screen,4_16_2,2023-09-06T19:28:20.169Z,,0,,,NaN,,,,,,false,,,,196436.5,196436.30000019073,,196436.30000019073,,196450.159,8,400,,,
sequence,flow.Sequence,4_16,2023-09-06T19:28:20.169Z,,0,,,5703.876000190736,completion,,,,,false,,,,196436.69999980927,196436.30000019073,190715.755,190718.4000005722,190732.424,196450.159,8,400,,,
trial,html.Screen,4_17_0,2023-09-06T19:28:27.963Z,,0,1,,7780.540999809251,response,ISIC_0025535.JPG,8,ISIC_4794052.JPG,ISIC_4794052.JPG,false,0,keypress(z),500,204230.9000005722,204230.69999980927,196433.49,196436.9000005722,196450.159,204234.582,8,400,18,,ISIC_0025535.JPG
break,html.Screen,4_17_1,2023-09-06T19:28:27.964Z,,0,,,NaN,,,,,,false,,,,204231.5,204231.4000005722,,204231.10000038147,,204234.582,8,400,,,
break_continue,html.Screen,4_17_2,2023-09-06T19:28:27.964Z,,0,,,NaN,,,,,,false,,,,204231.80000019073,204231.69999980927,,204231.69999980927,,204234.582,8,400,,,
sequence,flow.Sequence,4_17,2023-09-06T19:28:27.965Z,,0,,,7781.540999809251,completion,,,,,false,,,,204232,204231.69999980927,196433.49,196436.80000019073,196450.159,204234.582,8,400,,,
trial,html.Screen,4_18_0,2023-09-06T19:28:33.326Z,,0,1,,5359.21800019074,response,ISIC_8785329.JPG,8,ISIC_7364041.JPG,ISIC_7364041.JPG,false,0,keypress(z),500,209594,209593.80000019073,204217.913,204232.10000038147,204234.582,209602.247,8,400,19,,ISIC_8785329.JPG
break,html.Screen,4_18_1,2023-09-06T19:28:33.327Z,,0,,,NaN,,,,,,false,,,,209594.69999980927,209594.5,,209594.19999980927,,209602.247,8,400,,,
break_continue,html.Screen,4_18_2,2023-09-06T19:28:33.327Z,,0,,,NaN,,,,,,false,,,,209594.9000005722,209594.9000005722,,209594.69999980927,,209602.247,8,400,,,
sequence,flow.Sequence,4_18,2023-09-06T19:28:33.328Z,,0,,,5360.31800057221,completion,,,,,false,,,,209595.19999980927,209594.9000005722,204217.913,204232.10000038147,204234.582,209602.247,8,400,,,
trial,html.Screen,4_19_0,2023-09-06T19:28:41.809Z,,0,1,,8474.653000572202,response,ISIC_5897134.JPG,8,ISIC_0000452.JPG,ISIC_0000452.JPG,false,0,keypress(z),500,218077.10000038147,218076.9000005722,209585.578,209595.19999980927,209602.247,218087.042,8,400,20,,ISIC_5897134.JPG
break,html.Screen,4_19_1,2023-09-06T19:28:41.810Z,,0,,,NaN,,,,,,false,,,,218077.69999980927,218077.60000038147,,218077.4000005722,,218087.042,8,400,,,
break_continue,html.Screen,4_19_2,2023-09-06T19:28:41.810Z,,0,,,NaN,,,,,,false,,,,218078,218078,,218077.80000019073,,218087.042,8,400,,,
sequence,flow.Sequence,4_19,2023-09-06T19:28:41.810Z,,0,,,8475.752999999997,completion,,,,,false,,,,218078.19999980927,218078,209585.578,209595.19999980927,209602.247,218087.042,8,400,,,
trial,html.Screen,4_20_0,2023-09-06T19:28:45.976Z,,0,1,,4156.358000572218,response,ISIC_0024701.JPG,7,ISIC_0056707.JPG,ISIC_0024701.JPG,false,1,keypress(m),500,222243.60000038147,222243.4000005722,218070.373,218078.30000019073,218087.042,222254.292,8,400,21,,ISIC_0056707.JPG
break,html.Screen,4_20_1,2023-09-06T19:28:45.976Z,,0,,,NaN,,,,,,false,,,,222244.19999980927,222244.10000038147,,222243.80000019073,,222254.292,8,400,,,
break_continue,html.Screen,4_20_2,2023-09-06T19:28:45.977Z,,0,,,NaN,,,,,,false,,,,222244.5,222244.5,,222244.4000005722,,222254.292,8,400,,,
sequence,flow.Sequence,4_20,2023-09-06T19:28:45.977Z,,0,,,4157.458000000013,completion,,,,,false,,,,222244.69999980927,222244.5,218070.373,218078.30000019073,218087.042,222254.292,8,400,,,
trial,html.Screen,4_21_0,2023-09-06T19:28:50.499Z,,0,1,,4512.308000381483,response,ISIC_0034170.JPG,7,ISIC_0001129.JPG,ISIC_0001129.JPG,false,0,keypress(z),500,226766.80000019073,226766.60000038147,222237.623,222244.9000005722,222254.292,226771.591,8,400,22,,ISIC_0034170.JPG
break,html.Screen,4_21_1,2023-09-06T19:28:50.499Z,,0,,,NaN,,,,,,false,,,,226767.4000005722,226767.30000019073,,226767,,226771.591,8,400,,,
break_continue,html.Screen,4_21_2,2023-09-06T19:28:50.500Z,,0,,,NaN,,,,,,false,,,,226767.80000019073,226767.69999980927,,226767.60000038147,,226771.591,8,400,,,
sequence,flow.Sequence,4_21,2023-09-06T19:28:50.500Z,,0,,,4513.407999809278,completion,,,,,false,,,,226767.9000005722,226767.69999980927,222237.623,222244.80000019073,222254.292,226771.591,8,400,,,
trial,html.Screen,4_22_0,2023-09-06T19:28:55.383Z,,0,1,,4879.809000572219,response,ISIC_0064298.JPG,6,ISIC_0030852.JPG,ISIC_0064298.JPG,false,1,keypress(m),500,231651.5,231651.4000005722,226754.922,226768,226771.591,231655.852,8,400,23,,ISIC_0030852.JPG
break,html.Screen,4_22_1,2023-09-06T19:28:55.384Z,,0,,,NaN,,,,,,false,,,,231652.19999980927,231652,,231651.69999980927,,231655.852,8,400,,,
break_continue,html.Screen,4_22_2,2023-09-06T19:28:55.384Z,,0,,,NaN,,,,,,false,,,,231652.5,231652.5,,231652.30000019073,,231655.852,8,400,,,
sequence,flow.Sequence,4_22,2023-09-06T19:28:55.385Z,,0,,,4880.909000000014,completion,,,,,false,,,,231652.69999980927,231652.5,226754.922,226768,226771.591,231655.852,8,400,,,
trial,html.Screen,4_23_0,2023-09-06T19:29:00.826Z,,0,1,,5438.1479999999865,response,ISIC_0057286.JPG,7,ISIC_0032383.JPG,ISIC_0057286.JPG,false,1,keypress(m),500,237094.19999980927,237094,231639.183,231652.80000019073,231655.852,237106.615,8,400,24,,ISIC_0032383.JPG
break,html.Screen,4_23_1,2023-09-06T19:29:00.827Z,,0,,,NaN,,,,,,false,,,,237094.80000019073,237094.60000038147,,237094.4000005722,,237106.615,8,400,,,
break_continue,html.Screen,4_23_2,2023-09-06T19:29:00.827Z,,0,,,NaN,,,,,,false,,,,237095.10000038147,237095,,237094.9000005722,,237106.615,8,400,,,
sequence,flow.Sequence,4_23,2023-09-06T19:29:00.827Z,,0,,,5439.1479999999865,completion,,,,,false,,,,237095.30000019073,237095,231639.183,231652.80000019073,231655.852,237106.615,8,400,,,
trial,html.Screen,4_24_0,2023-09-06T19:29:06.288Z,,0,1,,5449.885000000009,response,ISIC_0000401.JPG,7,ISIC_3779093.JPG,ISIC_0000401.JPG,false,1,keypress(m),500,242556.69999980927,242556.5,237089.946,237095.5,237106.615,242557.623,8,400,25,,ISIC_3779093.JPG
break,html.Screen,4_24_1,2023-09-06T19:29:06.289Z,,0,,,NaN,,,,,,false,,,,242557.30000019073,242557.19999980927,,242556.80000019073,,242557.623,8,400,,,
break_continue,html.Screen,4_24_2,2023-09-06T19:29:06.289Z,,0,,,NaN,,,,,,false,,,,242557.60000038147,242557.5,,242557.5,,242557.623,8,400,,,
sequence,flow.Sequence,4_24,2023-09-06T19:29:06.289Z,,0,,,5450.885000000009,completion,,,,,false,,,,242557.80000019073,242557.5,237089.946,237095.4000005722,237106.615,242557.623,8,400,,,
trial,html.Screen,4_25_0,2023-09-06T19:29:11.124Z,,0,1,,4834.377000000008,response,ISIC_0003664.JPG,7,ISIC_0000419.JPG,ISIC_0000419.JPG,false,0,keypress(z),500,247392.19999980927,247392,242540.954,242557.9000005722,242557.623,247408.302,8,400,26,,ISIC_0003664.JPG
break,html.Screen,4_25_1,2023-09-06T19:29:11.124Z,,0,,,NaN,,,,,,false,,,,247392.80000019073,247392.60000038147,,247392.4000005722,,247408.302,8,400,,,
break_continue,html.Screen,4_25_2,2023-09-06T19:29:11.125Z,,0,,,NaN,,,,,,false,,,,247393.10000038147,247393,,247392.9000005722,,247408.302,8,400,,,
sequence,flow.Sequence,4_25,2023-09-06T19:29:11.125Z,,0,,,4835.377000000008,completion,,,,,false,,,,247393.30000019073,247393,242540.954,242557.9000005722,242557.623,247408.302,8,400,,,
trial,html.Screen,4_26_0,2023-09-06T19:29:15.976Z,,0,1,,4836.098000572209,response,ISIC_0962121.JPG,8,ISIC_0021901.JPG,ISIC_0021901.JPG,false,0,keypress(z),500,252244.60000038147,252244.4000005722,247391.633,247393.4000005722,247408.302,252259.214,8,400,27,,ISIC_0962121.JPG
break,html.Screen,4_26_1,2023-09-06T19:29:15.977Z,,0,,,NaN,,,,,,false,,,,252245.30000019073,252245.10000038147,,252244.80000019073,,252259.214,8,400,,,
break_continue,html.Screen,4_26_2,2023-09-06T19:29:15.977Z,,0,,,NaN,,,,,,false,,,,252245.60000038147,252245.5,,252245.4000005722,,252259.214,8,400,,,
sequence,flow.Sequence,4_26,2023-09-06T19:29:15.977Z,,0,,,4837.198000000004,completion,,,,,false,,,,252245.80000019073,252245.5,247391.633,247393.4000005722,247408.302,252259.214,8,400,,,
trial,html.Screen,4_27_0,2023-09-06T19:29:23.107Z,,0,1,,7116.3860003814625,response,ISIC_9000234.JPG,8,ISIC_1640823.JPG,ISIC_1640823.JPG,false,0,keypress(z),500,259375.80000019073,259375.60000038147,252242.545,252245.9000005722,252259.214,259377.113,8,400,28,,ISIC_9000234.JPG
break,html.Screen,4_27_1,2023-09-06T19:29:23.107Z,,0,,,NaN,,,,,,false,,,,259376.4000005722,259376.30000019073,,259375.9000005722,,259377.113,8,400,,,
break_continue,html.Screen,4_27_2,2023-09-06T19:29:23.108Z,,0,,,NaN,,,,,,false,,,,259376.69999980927,259376.60000038147,,259376.5,,259377.113,8,400,,,
sequence,flow.Sequence,4_27,2023-09-06T19:29:23.108Z,,0,,,7117.3860003814625,completion,,,,,false,,,,259376.80000019073,259376.60000038147,252242.545,252245.9000005722,252259.214,259377.113,8,400,,,
trial,html.Screen,4_28_0,2023-09-06T19:29:29.513Z,,0,1,,6404.2870005721925,response,ISIC_0001875.JPG,5,ISIC_8790198.JPG,ISIC_8790198.JPG,false,0,keypress(z),500,265781.60000038147,265781.4000005722,259360.444,259377,259377.113,265794.678,8,400,29,,ISIC_0001875.JPG
break,html.Screen,4_28_1,2023-09-06T19:29:29.513Z,,0,,,NaN,,,,,,false,,,,265782.19999980927,265782,,265781.69999980927,,265794.678,8,400,,,
break_continue,html.Screen,4_28_2,2023-09-06T19:29:29.514Z,,0,,,NaN,,,,,,false,,,,265782.5,265782.4000005722,,265782.30000019073,,265794.678,8,400,,,
sequence,flow.Sequence,4_28,2023-09-06T19:29:29.514Z,,0,,,6405.2870005721925,completion,,,,,false,,,,265782.69999980927,265782.4000005722,259360.444,259377,259377.113,265794.678,8,400,,,
trial,html.Screen,4_29_0,2023-09-06T19:29:34.508Z,,0,1,,4982.12200019072,response,ISIC_0011381.JPG,8,ISIC_3246746.JPG,ISIC_0011381.JPG,false,1,keypress(m),500,270776.9000005722,270776.80000019073,265778.009,265782.80000019073,265794.678,270778.915,8,400,30,,ISIC_3246746.JPG
break,html.Screen,4_29_1,2023-09-06T19:29:34.508Z,,0,,,NaN,,,,,,false,,,,270777.5,270777.4000005722,,270777.10000038147,,270778.915,8,400,,,
break_continue,html.Screen,4_29_2,2023-09-06T19:29:34.509Z,,0,,,NaN,,,,,,false,,,,270777.9000005722,270777.69999980927,,270777.69999980927,,270778.915,8,400,,,
sequence,flow.Sequence,4_29,2023-09-06T19:29:34.509Z,,0,,,4983.021999809251,completion,,,,,false,,,,270778,270777.69999980927,265778.009,265782.69999980927,265794.678,270778.915,8,400,,,
trial,html.Screen,4_30_0,2023-09-06T19:29:40.490Z,,0,1,,5980.585000000021,response,ISIC_5525765.JPG,7,ISIC_2178689.JPG,ISIC_5525765.JPG,false,1,keypress(m),500,276759.69999980927,276759.5,270762.246,270778.19999980927,270778.915,276763.086,8,400,31,,ISIC_2178689.JPG
break,html.Screen,4_30_1,2023-09-06T19:29:40.491Z,,0,,,NaN,,,,,,false,,,,276760.4000005722,276760.19999980927,,276759.9000005722,,276763.086,8,400,,,
break_continue,html.Screen,4_30_2,2023-09-06T19:29:40.491Z,,0,,,NaN,,,,,,false,,,,276760.69999980927,276760.60000038147,,276760.5,,276763.086,8,400,,,
sequence,flow.Sequence,4_30,2023-09-06T19:29:40.492Z,,0,,,5981.685000381491,completion,,,,,false,,,,276760.80000019073,276760.60000038147,270762.246,270778.10000038147,270778.915,276763.086,8,400,,,
trial,html.Screen,4_31_0,2023-09-06T19:29:48.095Z,,0,1,,7600.814000572194,response,ISIC_0032597.JPG,7,ISIC_5420979.JPG,ISIC_0032597.JPG,false,1,keypress(m),500,284364.10000038147,284363.9000005722,276746.417,276761,276763.086,284381.109,8,400,32,,ISIC_5420979.JPG
break,html.Screen,4_31_1,2023-09-06T19:29:48.095Z,,0,,,NaN,,,,,,false,,,,284364.69999980927,284364.5,,284364.19999980927,,284381.109,8,400,,,
break_continue,html.Screen,4_31_2,2023-09-06T19:29:48.096Z,,0,,,NaN,,,,,,false,,,,284365,284364.9000005722,,284364.80000019073,,284381.109,8,400,,,
sequence,flow.Sequence,4_31,2023-09-06T19:29:48.096Z,,0,,,7601.814000572194,completion,,,,,false,,,,284365.19999980927,284364.9000005722,276746.417,276761,276763.086,284381.109,8,400,,,
trial,html.Screen,4_32_0,2023-09-06T19:29:53.365Z,,0,1,,5252.891000000003,response,ISIC_6498634.JPG,5,ISIC_0058315.JPG,ISIC_0058315.JPG,false,0,keypress(z),500,289634.30000019073,289634,284364.44,284365.30000019073,284381.109,289648.513,8,400,33,,ISIC_6498634.JPG
break,html.Screen,4_32_1,2023-09-06T19:29:53.365Z,,0,,,NaN,,,,,,false,,,,289634.9000005722,289634.69999980927,,289634.4000005722,,289648.513,8,400,,,
break_continue,html.Screen,4_32_2,2023-09-06T19:29:53.366Z,,0,,,NaN,,,,,,false,,,,289635.30000019073,289635.10000038147,,289635,,289648.513,8,400,,,
sequence,flow.Sequence,4_32,2023-09-06T19:29:53.366Z,,0,,,5253.991000381473,completion,,,,,false,,,,289635.4000005722,289635.10000038147,284364.44,284365.30000019073,284381.109,289648.513,8,400,,,
trial,html.Screen,4_33_0,2023-09-06T19:29:59.602Z,,0,1,,6222.887000572227,response,ISIC_0011607.JPG,9,ISIC_0025832.JPG,ISIC_0025832.JPG,false,0,keypress(z),500,295871.60000038147,295871.4000005722,289631.844,289635.60000038147,289648.513,295882.961,8,400,34,,ISIC_0011607.JPG
break,html.Screen,4_33_1,2023-09-06T19:29:59.603Z,,0,,,NaN,,,,,,false,,,,295872.30000019073,295872.10000038147,,295871.80000019073,,295882.961,8,400,,,
break_continue,html.Screen,4_33_2,2023-09-06T19:29:59.603Z,,0,,,NaN,,,,,,false,,,,295872.69999980927,295872.60000038147,,295872.5,,295882.961,8,400,,,
sequence,flow.Sequence,4_33,2023-09-06T19:29:59.603Z,,0,,,6224.0870003814925,completion,,,,,false,,,,295872.9000005722,295872.60000038147,289631.844,289635.5,289648.513,295882.961,8,400,,,
trial,html.Screen,4_34_0,2023-09-06T19:30:05.010Z,,0,1,,5396.738999809255,response,ISIC_0588855.JPG,5,ISIC_0011521.JPG,ISIC_0011521.JPG,false,0,keypress(z),500,301279.9000005722,301279.69999980927,295866.292,295873,295882.961,301283.871,8,400,35,,ISIC_0588855.JPG
break,html.Screen,4_34_1,2023-09-06T19:30:05.011Z,,0,,,NaN,,,,,,false,,,,301280.5,301280.4000005722,,301280.10000038147,,301283.871,8,400,,,
break_continue,html.Screen,4_34_2,2023-09-06T19:30:05.011Z,,0,,,NaN,,,,,,false,,,,301280.9000005722,301280.80000019073,,301280.60000038147,,301283.871,8,400,,,
sequence,flow.Sequence,4_34,2023-09-06T19:30:05.011Z,,0,,,5397.839000190725,completion,,,,,false,,,,301281,301280.80000019073,295866.292,295873,295882.961,301283.871,8,400,,,
trial,html.Screen,4_35_0,2023-09-06T19:30:12.105Z,,0,1,,7090.92900019075,response,ISIC_8607090.JPG,5,ISIC_3251486.JPG,ISIC_3251486.JPG,false,0,keypress(z),500,308375,308374.80000019073,301267.202,301281.19999980927,301283.871,308384.865,8,400,36,,ISIC_8607090.JPG
break,html.Screen,4_35_1,2023-09-06T19:30:12.106Z,,0,,,NaN,,,,,,false,,,,308375.69999980927,308375.5,,308375.30000019073,,308384.865,8,400,,,
break_continue,html.Screen,4_35_2,2023-09-06T19:30:12.106Z,,0,,,NaN,,,,,,false,,,,308376.10000038147,308375.9000005722,,308375.80000019073,,308384.865,8,400,,,
sequence,flow.Sequence,4_35,2023-09-06T19:30:12.106Z,,0,,,7092.02900057222,completion,,,,,false,,,,308376.19999980927,308375.9000005722,301267.202,301281.19999980927,301283.871,308384.865,8,400,,,
trial,html.Screen,4_36_0,2023-09-06T19:30:18.889Z,,0,1,,6774.535000572214,response,ISIC_1835041.JPG,5,ISIC_0066784.JPG,ISIC_0066784.JPG,false,0,keypress(z),500,315159.60000038147,315159.4000005722,308368.196,308376.4000005722,308384.865,315169.386,8,400,37,,ISIC_1835041.JPG
break,html.Screen,4_36_1,2023-09-06T19:30:18.890Z,,0,,,NaN,,,,,,false,,,,315160.30000019073,315160.10000038147,,315159.80000019073,,315169.386,8,400,,,
break_continue,html.Screen,4_36_2,2023-09-06T19:30:18.890Z,,0,,,NaN,,,,,,false,,,,315160.60000038147,315160.5,,315160.4000005722,,315169.386,8,400,,,
sequence,flow.Sequence,4_36,2023-09-06T19:30:18.891Z,,0,,,6775.635000000009,completion,,,,,false,,,,315160.9000005722,315160.5,308368.196,308376.30000019073,308384.865,315169.386,8,400,,,
trial,html.Screen,4_37_0,2023-09-06T19:30:26.264Z,,0,1,,7364.414000190736,response,ISIC_9293491.JPG,7,ISIC_6168754.JPG,ISIC_9293491.JPG,false,1,keypress(m),500,322534,322533.80000019073,315152.717,315160.9000005722,315169.386,322537.404,8,400,38,,ISIC_6168754.JPG
break,html.Screen,4_37_1,2023-09-06T19:30:26.264Z,,0,,,NaN,,,,,,false,,,,322534.60000038147,322534.5,,322534.30000019073,,322537.404,8,400,,,
break_continue,html.Screen,4_37_2,2023-09-06T19:30:26.265Z,,0,,,NaN,,,,,,false,,,,322535,322534.9000005722,,322534.80000019073,,322537.404,8,400,,,
sequence,flow.Sequence,4_37,2023-09-06T19:30:26.265Z,,0,,,7365.514000572206,completion,,,,,false,,,,322535.19999980927,322534.9000005722,315152.717,315160.9000005722,315169.386,322537.404,8,400,,,
trial,html.Screen,4_38_0,2023-09-06T19:30:30.491Z,,0,1,,4224.196000381489,response,ISIC_5702591.JPG,6,ISIC_4554863.JPG,ISIC_4554863.JPG,false,0,keypress(z),500,326761.80000019073,326761.60000038147,322520.735,322535.30000019073,322537.404,326771.33,8,400,39,,ISIC_5702591.JPG
break,html.Screen,4_38_1,2023-09-06T19:30:30.492Z,,0,,,NaN,,,,,,false,,,,326762.4000005722,326762.30000019073,,326762,,326771.33,8,400,,,
break_continue,html.Screen,4_38_2,2023-09-06T19:30:30.492Z,,0,,,NaN,,,,,,false,,,,326762.80000019073,326762.60000038147,,326762.60000038147,,326771.33,8,400,,,
sequence,flow.Sequence,4_38,2023-09-06T19:30:30.492Z,,0,,,4225.196000381489,completion,,,,,false,,,,326763,326762.60000038147,322520.735,322535.30000019073,322537.404,326771.33,8,400,,,
trial,html.Screen,4_39_0,2023-09-06T19:30:35.358Z,,0,1,,4857.369999809249,response,ISIC_0072642.JPG,5,ISIC_8436492.JPG,ISIC_8436492.JPG,false,0,keypress(z),500,331628.9000005722,331628.69999980927,326754.661,326763,326771.33,331638.678,8,400,40,,ISIC_0072642.JPG
break,html.Screen,4_39_1,2023-09-06T19:30:35.359Z,,0,,,NaN,,,,,,false,,,,331629.5,331629.4000005722,,331629.10000038147,,331638.678,8,400,,,
break_continue,html.Screen,4_39_2,2023-09-06T19:30:35.359Z,,0,,,NaN,,,,,,false,,,,331629.9000005722,331629.80000019073,,331629.69999980927,,331638.678,8,400,,,
sequence,flow.Sequence,4_39,2023-09-06T19:30:35.359Z,,0,,,4858.470000190719,completion,,,,,false,,,,331630,331629.80000019073,326754.661,326763,326771.33,331638.678,8,400,,,
trial,html.Screen,4_40_0,2023-09-06T19:30:40.530Z,,0,1,,5161.821999999986,response,ISIC_0640806.JPG,7,ISIC_7562175.JPG,ISIC_0640806.JPG,false,1,keypress(m),500,336800.69999980927,336800.5,331622.009,331630.10000038147,331638.678,336822.965,8,400,41,,ISIC_7562175.JPG
break,html.Screen,4_40_1,2023-09-06T19:30:40.530Z,,0,,,NaN,,,,,,false,,,,336801.30000019073,336801.10000038147,,336800.80000019073,,336822.965,8,400,,,
break_continue,html.Screen,4_40_2,2023-09-06T19:30:40.531Z,,0,,,NaN,,,,,,false,,,,336801.60000038147,336801.5,,336801.4000005722,,336822.965,8,400,,,
sequence,flow.Sequence,4_40,2023-09-06T19:30:40.531Z,,0,,,5162.821999999986,completion,,,,,false,,,,336801.80000019073,336801.5,331622.009,331630.10000038147,331638.678,336822.965,8,400,,,
trial,html.Screen,4_41_0,2023-09-06T19:30:43.809Z,,0,1,,3257.135000381444,response,ISIC_0054670.JPG,7,ISIC_7632525.JPG,ISIC_0054670.JPG,false,1,keypress(m),500,340080.30000019073,340080.10000038147,336806.296,336802,336822.965,340090.089,8,400,42,,ISIC_7632525.JPG
break,html.Screen,4_41_1,2023-09-06T19:30:43.810Z,,0,,,NaN,,,,,,false,,,,340080.9000005722,340080.80000019073,,340080.5,,340090.089,8,400,,,
break_continue,html.Screen,4_41_2,2023-09-06T19:30:43.810Z,,0,,,NaN,,,,,,false,,,,340081.30000019073,340081.19999980927,,340081,,340090.089,8,400,,,
sequence,flow.Sequence,4_41,2023-09-06T19:30:43.811Z,,0,,,3258.2349998092395,completion,,,,,false,,,,340081.4000005722,340081.19999980927,336806.296,336801.9000005722,336822.965,340090.089,8,400,,,
trial,html.Screen,4_42_0,2023-09-06T19:30:48.790Z,,0,1,,4970.411000000022,response,ISIC_0056164.JPG,7,ISIC_4298761.JPG,ISIC_4298761.JPG,false,0,keypress(z),500,345060.80000019073,345060.5,340073.42,340081.60000038147,340090.089,345074.34,8,400,43,,ISIC_0056164.JPG
break,html.Screen,4_42_1,2023-09-06T19:30:48.790Z,,0,,,NaN,,,,,,false,,,,345061.4000005722,345061.19999980927,,345060.9000005722,,345074.34,8,400,,,
break_continue,html.Screen,4_42_2,2023-09-06T19:30:48.791Z,,0,,,NaN,,,,,,false,,,,345061.69999980927,345061.60000038147,,345061.5,,345074.34,8,400,,,
sequence,flow.Sequence,4_42,2023-09-06T19:30:48.791Z,,0,,,4971.511000381492,completion,,,,,false,,,,345061.80000019073,345061.60000038147,340073.42,340081.60000038147,340090.089,345074.34,8,400,,,
trial,html.Screen,4_43_0,2023-09-06T19:30:54.218Z,,0,1,,5414.159999999974,response,ISIC_0033337.JPG,8,ISIC_4765919.JPG,ISIC_4765919.JPG,false,0,keypress(z),500,350488.69999980927,350488.5,345057.671,345062,345074.34,350491.765,8,400,44,,ISIC_0033337.JPG
break,html.Screen,4_43_1,2023-09-06T19:30:54.218Z,,0,,,NaN,,,,,,false,,,,350489.30000019073,350489.19999980927,,350488.9000005722,,350491.765,8,400,,,
break_continue,html.Screen,4_43_2,2023-09-06T19:30:54.219Z,,0,,,NaN,,,,,,false,,,,350489.69999980927,350489.60000038147,,350489.5,,350491.765,8,400,,,
sequence,flow.Sequence,4_43,2023-09-06T19:30:54.219Z,,0,,,5415.260000381444,completion,,,,,false,,,,350489.9000005722,350489.60000038147,345057.671,345061.9000005722,345074.34,350491.765,8,400,,,
trial,html.Screen,4_44_0,2023-09-06T19:30:58.413Z,,0,1,,4192.135000572191,response,ISIC_0056228.JPG,6,ISIC_0031744.JPG,ISIC_0056228.JPG,false,1,keypress(m),500,354684.10000038147,354683.9000005722,350475.096,350490,350491.765,354692.353,8,400,45,,ISIC_0031744.JPG
break,html.Screen,4_44_1,2023-09-06T19:30:58.413Z,,0,,,NaN,,,,,,false,,,,354684.60000038147,354684.5,,354684.19999980927,,354692.353,8,400,,,
break_continue,html.Screen,4_44_2,2023-09-06T19:30:58.414Z,,0,,,NaN,,,,,,false,,,,354685,354684.9000005722,,354684.69999980927,,354692.353,8,400,,,
sequence,flow.Sequence,4_44,2023-09-06T19:30:58.414Z,,0,,,4193.135000572191,completion,,,,,false,,,,354685.19999980927,354684.9000005722,350475.096,350490,350491.765,354692.353,8,400,,,
trial,html.Screen,4_45_0,2023-09-06T19:31:02.871Z,,0,1,,4449.447000190732,response,ISIC_0061224.JPG,7,ISIC_0066150.JPG,ISIC_0066150.JPG,false,0,keypress(z),500,359142,359141.80000019073,354675.684,354685.30000019073,354692.353,359143.276,8,400,46,,ISIC_0061224.JPG
break,html.Screen,4_45_1,2023-09-06T19:31:02.871Z,,0,,,NaN,,,,,,false,,,,359142.60000038147,359142.4000005722,,359142.19999980927,,359143.276,8,400,,,
break_continue,html.Screen,4_45_2,2023-09-06T19:31:02.872Z,,0,,,NaN,,,,,,false,,,,359143,359142.80000019073,,359142.69999980927,,359143.276,8,400,,,
sequence,flow.Sequence,4_45,2023-09-06T19:31:02.872Z,,0,,,4450.447000190732,completion,,,,,false,,,,359143.19999980927,359142.80000019073,354675.684,354685.30000019073,354692.353,359143.276,8,400,,,
trial,html.Screen,4_46_0,2023-09-06T19:31:07.756Z,,0,1,,4883.824000381457,response,ISIC_2059085.JPG,8,ISIC_8282404.JPG,ISIC_2059085.JPG,false,1,keypress(m),500,364027.4000005722,364027.10000038147,359126.607,359143.30000019073,359143.276,364043.962,8,400,47,,ISIC_8282404.JPG
break,html.Screen,4_46_1,2023-09-06T19:31:07.756Z,,0,,,NaN,,,,,,false,,,,364028,364027.80000019073,,364027.60000038147,,364043.962,8,400,,,
break_continue,html.Screen,4_46_2,2023-09-06T19:31:07.757Z,,0,,,NaN,,,,,,false,,,,364028.30000019073,364028.10000038147,,364028.10000038147,,364043.962,8,400,,,
sequence,flow.Sequence,4_46,2023-09-06T19:31:07.757Z,,0,,,4884.824000381457,completion,,,,,false,,,,364028.4000005722,364028.10000038147,359126.607,359143.30000019073,359143.276,364043.962,8,400,,,
trial,html.Screen,4_47_0,2023-09-06T19:31:13.523Z,,0,1,,5750.0380000000005,response,ISIC_2577938.JPG,5,ISIC_0012887.JPG,ISIC_0012887.JPG,false,0,keypress(z),500,369794.19999980927,369794,364027.293,364028.60000038147,364043.962,369795.005,8,400,48,,ISIC_2577938.JPG
break,html.Screen,4_47_1,2023-09-06T19:31:13.523Z,,0,,,NaN,,,,,,false,,,,369794.80000019073,369794.60000038147,,369794.4000005722,,369795.005,8,400,,,
break_continue,html.Screen,4_47_2,2023-09-06T19:31:13.523Z,,0,,,NaN,,,,,,false,,,,369795.10000038147,369795.10000038147,,369794.9000005722,,369795.005,8,400,,,
sequence,flow.Sequence,4_47,2023-09-06T19:31:13.524Z,,0,,,5751.13800038147,completion,,,,,false,,,,369795.4000005722,369795.10000038147,364027.293,364028.60000038147,364043.962,369795.005,8,400,,,
trial,html.Screen,4_48_0,2023-09-06T19:31:18.830Z,,0,1,,5306.1949998092605,response,ISIC_7296463.JPG,9,ISIC_0058837.JPG,ISIC_0058837.JPG,false,0,keypress(z),500,375101.4000005722,375101.19999980927,369778.336,369795.5,369795.005,375112.416,8,400,49,,ISIC_7296463.JPG
break,html.Screen,4_48_1,2023-09-06T19:31:18.830Z,,0,,,NaN,,,,,,false,,,,375102,375101.9000005722,,375101.69999980927,,375112.416,8,400,,,
break_continue,html.Screen,4_48_2,2023-09-06T19:31:18.831Z,,0,,,NaN,,,,,,false,,,,375102.4000005722,375102.30000019073,,375102.19999980927,,375112.416,8,400,,,
sequence,flow.Sequence,4_48,2023-09-06T19:31:18.831Z,,0,,,5307.29500019073,completion,,,,,false,,,,375102.60000038147,375102.30000019073,369778.336,369795.4000005722,369795.005,375112.416,8,400,,,
trial,html.Screen,4_49_0,2023-09-06T19:31:23.895Z,,0,1,,5054.184000381443,response,ISIC_0031671.JPG,6,ISIC_2259861.JPG,ISIC_2259861.JPG,false,0,keypress(z),500,380166.9000005722,380166.60000038147,375095.747,375102.69999980927,375112.416,380180.027,8,400,50,,ISIC_0031671.JPG
break,html.Screen,4_49_1,2023-09-06T19:31:33.896Z,,0,,,10001.625,timeout,,,,,false,,,,390167.80000019073,390164.983,380163.358,380167.19999980927,380180.027,390181.652,8,400,,,
break_continue,html.Screen,4_49_2,2023-09-06T19:31:39.864Z,,0,,,5945.148000190733,response,,,,,false,continue,keypress(Space),,396136.5,396126.80000019073,390164.983,390167.9000005722,390181.652,396149.154,8,400,,,
sequence,flow.Sequence,4_49,2023-09-06T19:31:39.864Z,,0,,,21014.38400019071,completion,,,,,false,,,,396136.60000038147,396126.80000019073,375095.747,375102.69999980927,375112.416,396149.154,8,400,,,
trial,html.Screen,4_50_0,2023-09-06T19:31:44.474Z,,0,2,,4597.446000381489,response,ISIC_0032875.JPG,5,ISIC_0000013.JPG,ISIC_0032875.JPG,false,1,keypress(m),500,400746.80000019073,400746.60000038147,396132.485,396136.69999980927,396149.154,400750.05,8,400,1,,ISIC_0000013.JPG
break,html.Screen,4_50_1,2023-09-06T19:31:44.475Z,,0,,,NaN,,,,,,false,,,,400747.4000005722,400747.19999980927,,400747,,400750.05,8,400,,,
break_continue,html.Screen,4_50_2,2023-09-06T19:31:44.475Z,,0,,,NaN,,,,,,false,,,,400747.80000019073,400747.60000038147,,400747.60000038147,,400750.05,8,400,,,
sequence,flow.Sequence,4_50,2023-09-06T19:31:44.475Z,,0,,,4598.446000381489,completion,,,,,false,,,,400747.9000005722,400747.60000038147,396132.485,396136.69999980927,396149.154,400750.05,8,400,,,
trial,html.Screen,4_51_0,2023-09-06T19:31:48.893Z,,0,2,,4415.649999809277,response,ISIC_1431777.JPG,8,ISIC_3761253.JPG,ISIC_1431777.JPG,false,1,keypress(m),500,405165.9000005722,405165.69999980927,400733.381,400748,400750.05,405167.335,8,400,2,,ISIC_3761253.JPG
break,html.Screen,4_51_1,2023-09-06T19:31:48.894Z,,0,,,NaN,,,,,,false,,,,405166.5,405166.30000019073,,405166.10000038147,,405167.335,8,400,,,
break_continue,html.Screen,4_51_2,2023-09-06T19:31:48.894Z,,0,,,NaN,,,,,,false,,,,405166.80000019073,405166.69999980927,,405166.60000038147,,405167.335,8,400,,,
sequence,flow.Sequence,4_51,2023-09-06T19:31:48.894Z,,0,,,4416.649999809277,completion,,,,,false,,,,405167,405166.69999980927,400733.381,400748,400750.05,405167.335,8,400,,,
trial,html.Screen,4_52_0,2023-09-06T19:31:54.688Z,,0,2,,5793.265000381449,response,ISIC_7418723.JPG,7,ISIC_0033213.JPG,ISIC_7418723.JPG,false,1,keypress(m),500,410960.69999980927,410960.60000038147,405150.666,405167.10000038147,405167.335,410968.371,8,400,3,,ISIC_0033213.JPG
break,html.Screen,4_52_1,2023-09-06T19:31:54.689Z,,0,,,NaN,,,,,,false,,,,410961.30000019073,410961.19999980927,,410961,,410968.371,8,400,,,
break_continue,html.Screen,4_52_2,2023-09-06T19:31:54.689Z,,0,,,NaN,,,,,,false,,,,410961.69999980927,410961.60000038147,,410961.5,,410968.371,8,400,,,
sequence,flow.Sequence,4_52,2023-09-06T19:31:54.689Z,,0,,,5794.265000381449,completion,,,,,false,,,,410961.9000005722,410961.60000038147,405150.666,405167.10000038147,405167.335,410968.371,8,400,,,
trial,html.Screen,4_53_0,2023-09-06T19:31:59.075Z,,0,2,,4379.02900057222,response,ISIC_0027971.JPG,6,ISIC_1113629.JPG,ISIC_1113629.JPG,false,0,keypress(z),500,415347.60000038147,415347.4000005722,410951.702,410962.10000038147,410968.371,415352.318,8,400,4,,ISIC_0027971.JPG
break,html.Screen,4_53_1,2023-09-06T19:31:59.075Z,,0,,,NaN,,,,,,false,,,,415348.10000038147,415348,,415347.80000019073,,415352.318,8,400,,,
break_continue,html.Screen,4_53_2,2023-09-06T19:31:59.076Z,,0,,,NaN,,,,,,false,,,,415348.4000005722,415348.4000005722,,415348.19999980927,,415352.318,8,400,,,
sequence,flow.Sequence,4_53,2023-09-06T19:31:59.076Z,,0,,,4380.02900057222,completion,,,,,false,,,,415348.60000038147,415348.4000005722,410951.702,410962,410968.371,415352.318,8,400,,,
trial,html.Screen,4_54_0,2023-09-06T19:32:07.006Z,,0,2,,7926.782000381441,response,ISIC_0013497.JPG,5,ISIC_0024208.JPG,ISIC_0013497.JPG,false,1,keypress(m),500,423279.4000005722,423279.10000038147,415335.649,415348.69999980927,415352.318,423286.921,8,400,5,,ISIC_0024208.JPG
break,html.Screen,4_54_1,2023-09-06T19:32:07.007Z,,0,,,NaN,,,,,,false,,,,423279.9000005722,423279.80000019073,,423279.5,,423286.921,8,400,,,
break_continue,html.Screen,4_54_2,2023-09-06T19:32:07.007Z,,0,,,NaN,,,,,,false,,,,423280.19999980927,423280.10000038147,,423280,,423286.921,8,400,,,
sequence,flow.Sequence,4_54,2023-09-06T19:32:07.007Z,,0,,,7927.782000381441,completion,,,,,false,,,,423280.30000019073,423280.10000038147,415335.649,415348.69999980927,415352.318,423286.921,8,400,,,
trial,html.Screen,4_55_0,2023-09-06T19:32:11.265Z,,0,2,,4251.379000190762,response,ISIC_8094432.JPG,7,ISIC_2823287.JPG,ISIC_2823287.JPG,false,0,keypress(z),500,427538.5,427538.30000019073,423270.252,423280.5,423286.921,427554.502,8,400,6,,ISIC_8094432.JPG
break,html.Screen,4_55_1,2023-09-06T19:32:11.266Z,,0,,,NaN,,,,,,false,,,,427539,427538.9000005722,,427538.60000038147,,427554.502,8,400,,,
break_continue,html.Screen,4_55_2,2023-09-06T19:32:11.266Z,,0,,,NaN,,,,,,false,,,,427539.30000019073,427539.19999980927,,427539.19999980927,,427554.502,8,400,,,
sequence,flow.Sequence,4_55,2023-09-06T19:32:11.266Z,,0,,,4252.278999809292,completion,,,,,false,,,,427539.60000038147,427539.19999980927,423270.252,423280.5,423286.921,427554.502,8,400,,,
trial,html.Screen,4_56_0,2023-09-06T19:32:16.790Z,,0,2,,5508.998000000021,response,ISIC_1077375.JPG,7,ISIC_2316159.JPG,ISIC_2316159.JPG,false,0,keypress(z),500,433063.69999980927,433063.5,427537.833,427539.69999980927,427554.502,433071.941,8,400,7,,ISIC_1077375.JPG
break,html.Screen,4_56_1,2023-09-06T19:32:16.791Z,,0,,,NaN,,,,,,false,,,,433064.30000019073,433064.10000038147,,433063.9000005722,,433071.941,8,400,,,
break_continue,html.Screen,4_56_2,2023-09-06T19:32:16.791Z,,0,,,NaN,,,,,,false,,,,433064.5,433064.5,,433064.4000005722,,433071.941,8,400,,,
sequence,flow.Sequence,4_56,2023-09-06T19:32:16.791Z,,0,,,5509.998000000021,completion,,,,,false,,,,433064.69999980927,433064.5,427537.833,427539.60000038147,427554.502,433071.941,8,400,,,
trial,html.Screen,4_57_0,2023-09-06T19:32:21.481Z,,0,2,,4681.859000190743,response,ISIC_0054705.JPG,7,ISIC_9099430.JPG,ISIC_0054705.JPG,false,1,keypress(m),500,437754,437753.80000019073,433055.272,433064.80000019073,433071.941,437756.102,8,400,8,,ISIC_9099430.JPG
break,html.Screen,4_57_1,2023-09-06T19:32:21.481Z,,0,,,NaN,,,,,,false,,,,437754.5,437754.4000005722,,437754.19999980927,,437756.102,8,400,,,
break_continue,html.Screen,4_57_2,2023-09-06T19:32:21.482Z,,0,,,NaN,,,,,,false,,,,437754.9000005722,437754.80000019073,,437754.69999980927,,437756.102,8,400,,,
sequence,flow.Sequence,4_57,2023-09-06T19:32:21.482Z,,0,,,4682.859000190743,completion,,,,,false,,,,437755.10000038147,437754.80000019073,433055.272,433064.80000019073,433071.941,437756.102,8,400,,,
trial,html.Screen,4_58_0,2023-09-06T19:32:25.782Z,,0,2,,4298.998000381456,response,ISIC_3945916.JPG,7,ISIC_5097947.JPG,ISIC_5097947.JPG,false,0,keypress(z),500,442055.4000005722,442055.10000038147,437739.433,437755.30000019073,437756.102,442056.704,8,400,9,,ISIC_3945916.JPG
break,html.Screen,4_58_1,2023-09-06T19:32:25.782Z,,0,,,NaN,,,,,,false,,,,442055.9000005722,442055.80000019073,,442055.5,,442056.704,8,400,,,
break_continue,html.Screen,4_58_2,2023-09-06T19:32:25.783Z,,0,,,NaN,,,,,,false,,,,442056.30000019073,442056.19999980927,,442056,,442056.704,8,400,,,
sequence,flow.Sequence,4_58,2023-09-06T19:32:25.783Z,,0,,,4300.097999809252,completion,,,,,false,,,,442056.5,442056.19999980927,437739.433,437755.19999980927,437756.102,442056.704,8,400,,,
trial,html.Screen,4_59_0,2023-09-06T19:32:32.999Z,,0,2,,7215.495999809238,response,ISIC_0055246.JPG,8,ISIC_0032913.JPG,ISIC_0032913.JPG,false,0,keypress(z),500,449272.5,449272.19999980927,442040.035,442056.69999980927,442056.704,449274.692,8,400,10,,ISIC_0055246.JPG
break,html.Screen,4_59_1,2023-09-06T19:32:32.999Z,,0,,,NaN,,,,,,false,,,,449272.9000005722,449272.9000005722,,449272.60000038147,,449274.692,8,400,,,
break_continue,html.Screen,4_59_2,2023-09-06T19:32:33.000Z,,0,,,NaN,,,,,,false,,,,449273.30000019073,449273.10000038147,,449273.10000038147,,449274.692,8,400,,,
sequence,flow.Sequence,4_59,2023-09-06T19:32:33.000Z,,0,,,7216.396000381443,completion,,,,,false,,,,449273.5,449273.10000038147,442040.035,442056.60000038147,442056.704,449274.692,8,400,,,
trial,html.Screen,4_60_0,2023-09-06T19:32:37.370Z,,0,2,,4368.608000190754,response,ISIC_2957732.JPG,5,ISIC_6289346.JPG,ISIC_6289346.JPG,false,0,keypress(z),500,453643.5,453643.30000019073,449258.023,449273.60000038147,449274.692,453658.639,8,400,11,,ISIC_2957732.JPG
break,html.Screen,4_60_1,2023-09-06T19:32:37.370Z,,0,,,NaN,,,,,,false,,,,453644.10000038147,453643.9000005722,,453643.69999980927,,453658.639,8,400,,,
break_continue,html.Screen,4_60_2,2023-09-06T19:32:37.371Z,,0,,,NaN,,,,,,false,,,,453644.4000005722,453644.30000019073,,453644.19999980927,,453658.639,8,400,,,
sequence,flow.Sequence,4_60,2023-09-06T19:32:37.371Z,,0,,,4369.608000190754,completion,,,,,false,,,,453644.60000038147,453644.30000019073,449258.023,449273.60000038147,449274.692,453658.639,8,400,,,
trial,html.Screen,4_61_0,2023-09-06T19:32:42.397Z,,0,2,,5011.76100057218,response,ISIC_8869929.JPG,9,ISIC_0013342.JPG,ISIC_8869929.JPG,false,1,keypress(m),500,458670.5,458670.4000005722,453641.97,453644.69999980927,453658.639,458676.248,8,400,12,,ISIC_0013342.JPG
break,html.Screen,4_61_1,2023-09-06T19:32:42.397Z,,0,,,NaN,,,,,,false,,,,458671.10000038147,458671,,458670.80000019073,,458676.248,8,400,,,
break_continue,html.Screen,4_61_2,2023-09-06T19:32:42.398Z,,0,,,NaN,,,,,,false,,,,458671.4000005722,458671.30000019073,,458671.19999980927,,458676.248,8,400,,,
sequence,flow.Sequence,4_61,2023-09-06T19:32:42.398Z,,0,,,5012.66100019071,completion,,,,,false,,,,458671.60000038147,458671.30000019073,453641.97,453644.60000038147,453658.639,458676.248,8,400,,,
trial,html.Screen,4_62_0,2023-09-06T19:32:48.228Z,,0,2,,5825.352000381448,response,ISIC_0067893.JPG,5,ISIC_0031626.JPG,ISIC_0067893.JPG,false,1,keypress(m),500,464501.80000019073,464501.60000038147,458659.579,458671.69999980927,458676.248,464510.398,8,400,13,,ISIC_0031626.JPG
break,html.Screen,4_62_1,2023-09-06T19:32:48.228Z,,0,,,NaN,,,,,,false,,,,464502.4000005722,464502.19999980927,,464502.10000038147,,464510.398,8,400,,,
break_continue,html.Screen,4_62_2,2023-09-06T19:32:48.229Z,,0,,,NaN,,,,,,false,,,,464502.69999980927,464502.60000038147,,464502.5,,464510.398,8,400,,,
sequence,flow.Sequence,4_62,2023-09-06T19:32:48.229Z,,0,,,5826.352000381448,completion,,,,,false,,,,464502.9000005722,464502.60000038147,458659.579,458671.69999980927,458676.248,464510.398,8,400,,,
trial,html.Screen,4_63_0,2023-09-06T19:32:54.041Z,,0,2,,5804.902000190748,response,ISIC_2143002.JPG,7,ISIC_0000278.JPG,ISIC_0000278.JPG,false,0,keypress(z),500,470315.5,470315.30000019073,464493.729,464503,464510.398,470328.108,8,400,14,,ISIC_2143002.JPG
break,html.Screen,4_63_1,2023-09-06T19:32:54.042Z,,0,,,NaN,,,,,,false,,,,470316.10000038147,470315.9000005722,,470315.60000038147,,470328.108,8,400,,,
break_continue,html.Screen,4_63_2,2023-09-06T19:32:54.042Z,,0,,,NaN,,,,,,false,,,,470316.4000005722,470316.19999980927,,470316.10000038147,,470328.108,8,400,,,
sequence,flow.Sequence,4_63,2023-09-06T19:32:54.042Z,,0,,,5805.801999809279,completion,,,,,false,,,,470316.60000038147,470316.19999980927,464493.729,464502.9000005722,464510.398,470328.108,8,400,,,
trial,html.Screen,4_64_0,2023-09-06T19:32:59.360Z,,0,2,,5306.192000190727,response,ISIC_0010283.JPG,7,ISIC_0032516.JPG,ISIC_0010283.JPG,false,1,keypress(m),500,475634.5,475634.30000019073,470311.439,470316.69999980927,470328.108,475645.519,8,400,15,,ISIC_0032516.JPG
break,html.Screen,4_64_1,2023-09-06T19:32:59.361Z,,0,,,NaN,,,,,,false,,,,475635.10000038147,475635,,475634.69999980927,,475645.519,8,400,,,
break_continue,html.Screen,4_64_2,2023-09-06T19:32:59.361Z,,0,,,NaN,,,,,,false,,,,475635.4000005722,475635.30000019073,,475635.19999980927,,475645.519,8,400,,,
sequence,flow.Sequence,4_64,2023-09-06T19:32:59.361Z,,0,,,5307.192000190727,completion,,,,,false,,,,475635.60000038147,475635.30000019073,470311.439,470316.69999980927,470328.108,475645.519,8,400,,,
trial,html.Screen,4_65_0,2023-09-06T19:33:05.908Z,,0,2,,6537.281000190764,response,ISIC_6033222.JPG,8,ISIC_2147549.JPG,ISIC_6033222.JPG,false,1,keypress(m),500,482182.9000005722,482182.80000019073,475628.85,475635.69999980927,475645.519,482196.716,8,400,16,,ISIC_2147549.JPG
break,html.Screen,4_65_1,2023-09-06T19:33:05.909Z,,0,,,NaN,,,,,,false,,,,482183.5,482183.4000005722,,482183.10000038147,,482196.716,8,400,,,
break_continue,html.Screen,4_65_2,2023-09-06T19:33:05.909Z,,0,,,NaN,,,,,,false,,,,482183.80000019073,482183.80000019073,,482183.60000038147,,482196.716,8,400,,,
sequence,flow.Sequence,4_65,2023-09-06T19:33:05.909Z,,0,,,6538.281000190764,completion,,,,,false,,,,482184,482183.80000019073,475628.85,475635.69999980927,475645.519,482196.716,8,400,,,
trial,html.Screen,4_66_0,2023-09-06T19:33:11.386Z,,0,2,,5463.68400057219,response,ISIC_5682259.JPG,5,ISIC_0010421.JPG,ISIC_5682259.JPG,false,1,keypress(m),500,487660.69999980927,487660.4000005722,482180.047,482184.10000038147,482196.716,487664.148,8,400,17,,ISIC_0010421.JPG
break,html.Screen,4_66_1,2023-09-06T19:33:11.387Z,,0,,,NaN,,,,,,false,,,,487661.19999980927,487661.10000038147,,487660.9000005722,,487664.148,8,400,,,
break_continue,html.Screen,4_66_2,2023-09-06T19:33:11.387Z,,0,,,NaN,,,,,,false,,,,487661.5,487661.4000005722,,487661.30000019073,,487664.148,8,400,,,
sequence,flow.Sequence,4_66,2023-09-06T19:33:11.387Z,,0,,,5464.68400057219,completion,,,,,false,,,,487661.69999980927,487661.4000005722,482180.047,482184.10000038147,482196.716,487664.148,8,400,,,
trial,html.Screen,4_67_0,2023-09-06T19:33:17.661Z,,0,2,,6271.551999809279,response,ISIC_0033068.JPG,7,ISIC_0060972.JPG,ISIC_0060972.JPG,false,0,keypress(z),500,493935.9000005722,493935.69999980927,487647.479,487661.80000019073,487664.148,493948.616,8,400,18,,ISIC_0033068.JPG
break,html.Screen,4_67_1,2023-09-06T19:33:17.662Z,,0,,,NaN,,,,,,false,,,,493936.5,493936.30000019073,,493936.10000038147,,493948.616,8,400,,,
break_continue,html.Screen,4_67_2,2023-09-06T19:33:17.662Z,,0,,,NaN,,,,,,false,,,,493936.80000019073,493936.69999980927,,493936.60000038147,,493948.616,8,400,,,
sequence,flow.Sequence,4_67,2023-09-06T19:33:17.662Z,,0,,,6272.551999809279,completion,,,,,false,,,,493937,493936.69999980927,487647.479,487661.80000019073,487664.148,493948.616,8,400,,,
trial,html.Screen,4_68_0,2023-09-06T19:33:23.251Z,,0,2,,5577.38400000002,response,ISIC_5248948.JPG,9,ISIC_0062323.JPG,ISIC_0062323.JPG,false,0,keypress(z),500,499526.19999980927,499526,493931.947,493937.10000038147,493948.616,499532.731,8,400,19,,ISIC_5248948.JPG
break,html.Screen,4_68_1,2023-09-06T19:33:23.252Z,,0,,,NaN,,,,,,false,,,,499526.9000005722,499526.69999980927,,499526.5,,499532.731,8,400,,,
break_continue,html.Screen,4_68_2,2023-09-06T19:33:23.252Z,,0,,,NaN,,,,,,false,,,,499527.19999980927,499527,,499526.9000005722,,499532.731,8,400,,,
sequence,flow.Sequence,4_68,2023-09-06T19:33:23.252Z,,0,,,5578.38400000002,completion,,,,,false,,,,499527.30000019073,499527,493931.947,493937,493948.616,499532.731,8,400,,,
trial,html.Screen,4_69_0,2023-09-06T19:33:27.947Z,,0,2,,4689.369000381441,response,ISIC_0069617.JPG,9,ISIC_0033625.JPG,ISIC_0069617.JPG,false,1,keypress(m),500,504222.30000019073,504222.10000038147,499516.062,499527.4000005722,499532.731,504233.67,8,400,20,,ISIC_0033625.JPG
break,html.Screen,4_69_1,2023-09-06T19:33:27.948Z,,0,,,NaN,,,,,,false,,,,504222.9000005722,504222.69999980927,,504222.5,,504233.67,8,400,,,
break_continue,html.Screen,4_69_2,2023-09-06T19:33:27.948Z,,0,,,NaN,,,,,,false,,,,504223.19999980927,504223.10000038147,,504223,,504233.67,8,400,,,
sequence,flow.Sequence,4_69,2023-09-06T19:33:27.948Z,,0,,,4690.369000381441,completion,,,,,false,,,,504223.4000005722,504223.10000038147,499516.062,499527.4000005722,499532.731,504233.67,8,400,,,
trial,html.Screen,4_70_0,2023-09-06T19:33:33.268Z,,0,2,,5309.130000190751,response,ISIC_2680640.JPG,7,ISIC_0006757.JPG,ISIC_2680640.JPG,false,1,keypress(m),500,509543,509542.80000019073,504217.001,504223.5,504233.67,509551.081,8,400,21,,ISIC_0006757.JPG
break,html.Screen,4_70_1,2023-09-06T19:33:33.268Z,,0,,,NaN,,,,,,false,,,,509543.60000038147,509543.4000005722,,509543.10000038147,,509551.081,8,400,,,
break_continue,html.Screen,4_70_2,2023-09-06T19:33:33.269Z,,0,,,NaN,,,,,,false,,,,509543.80000019073,509543.80000019073,,509543.60000038147,,509551.081,8,400,,,
sequence,flow.Sequence,4_70,2023-09-06T19:33:33.269Z,,0,,,5310.130000190751,completion,,,,,false,,,,509544,509543.80000019073,504217.001,504223.5,504233.67,509551.081,8,400,,,
trial,html.Screen,4_71_0,2023-09-06T19:33:39.718Z,,0,2,,6442.519000381464,response,ISIC_0034265.JPG,8,ISIC_0014103.JPG,ISIC_0034265.JPG,false,1,keypress(m),500,515993.80000019073,515993.60000038147,509534.412,509544.10000038147,509551.081,516002.229,8,400,22,,ISIC_0014103.JPG
break,html.Screen,4_71_1,2023-09-06T19:33:39.719Z,,0,,,NaN,,,,,,false,,,,515994.4000005722,515994.30000019073,,515993.9000005722,,516002.229,8,400,,,
break_continue,html.Screen,4_71_2,2023-09-06T19:33:39.719Z,,0,,,NaN,,,,,,false,,,,515994.69999980927,515994.60000038147,,515994.4000005722,,516002.229,8,400,,,
sequence,flow.Sequence,4_71,2023-09-06T19:33:39.719Z,,0,,,6443.519000381464,completion,,,,,false,,,,515994.80000019073,515994.60000038147,509534.412,509544.10000038147,509551.081,516002.229,8,400,,,
trial,html.Screen,4_72_0,2023-09-06T19:33:45.012Z,,0,2,,5284.771000000008,response,ISIC_0072157.JPG,8,ISIC_2768150.JPG,ISIC_0072157.JPG,false,1,keypress(m),500,521287.19999980927,521287,515985.56,515995,516002.229,521302.971,8,400,23,,ISIC_2768150.JPG
break,html.Screen,4_72_1,2023-09-06T19:33:45.012Z,,0,,,NaN,,,,,,false,,,,521287.80000019073,521287.69999980927,,521287.5,,521302.971,8,400,,,
break_continue,html.Screen,4_72_2,2023-09-06T19:33:45.013Z,,0,,,NaN,,,,,,false,,,,521288.10000038147,521288.10000038147,,521287.9000005722,,521302.971,8,400,,,
sequence,flow.Sequence,4_72,2023-09-06T19:33:45.013Z,,0,,,5285.871000381478,completion,,,,,false,,,,521288.30000019073,521288.10000038147,515985.56,515995,516002.229,521302.971,8,400,,,
trial,html.Screen,4_73_0,2023-09-06T19:33:50.650Z,,0,2,,5622.62900038145,response,ISIC_5888212.JPG,6,ISIC_4177043.JPG,ISIC_5888212.JPG,false,1,keypress(m),500,526925.8000001907,526925.6000003815,521286.302,521288.5,521302.971,526937.349,8,400,24,,ISIC_4177043.JPG
break,html.Screen,4_73_1,2023-09-06T19:33:50.651Z,,0,,,NaN,,,,,,false,,,,526926.4000005722,526926.3000001907,,526926,,526937.349,8,400,,,
break_continue,html.Screen,4_73_2,2023-09-06T19:33:50.651Z,,0,,,NaN,,,,,,false,,,,526926.6999998093,526926.6000003815,,526926.5,,526937.349,8,400,,,
sequence,flow.Sequence,4_73,2023-09-06T19:33:50.651Z,,0,,,5623.62900038145,completion,,,,,false,,,,526926.9000005722,526926.6000003815,521286.302,521288.4000005722,521302.971,526937.349,8,400,,,
trial,html.Screen,4_74_0,2023-09-06T19:33:59.357Z,,0,2,,8695.85099980922,response,ISIC_4136351.JPG,7,ISIC_0485996.JPG,ISIC_4136351.JPG,false,1,keypress(m),500,535633.4000005722,535633.1999998093,526920.68,526927,526937.349,535638.567,8,400,25,,ISIC_0485996.JPG
break,html.Screen,4_74_1,2023-09-06T19:33:59.358Z,,0,,,NaN,,,,,,false,,,,535634,535633.8000001907,,535633.5,,535638.567,8,400,,,
break_continue,html.Screen,4_74_2,2023-09-06T19:33:59.358Z,,0,,,NaN,,,,,,false,,,,535634.3000001907,535634.1000003815,,535634,,535638.567,8,400,,,
sequence,flow.Sequence,4_74,2023-09-06T19:33:59.359Z,,0,,,8696.751000381424,completion,,,,,false,,,,535634.5,535634.1000003815,526920.68,526926.9000005722,526937.349,535638.567,8,400,,,
trial,html.Screen,4_75_0,2023-09-06T19:34:06.097Z,,0,2,,6734.033000381431,response,ISIC_1202976.JPG,7,ISIC_0026982.JPG,ISIC_1202976.JPG,false,1,keypress(m),500,542372.6999998093,542372.6000003815,535621.898,535634.5,535638.567,542389.762,8,400,26,,ISIC_0026982.JPG
break,html.Screen,4_75_1,2023-09-06T19:34:06.097Z,,0,,,NaN,,,,,,false,,,,542373.3000001907,542373.1999998093,,542372.9000005722,,542389.762,8,400,,,
break_continue,html.Screen,4_75_2,2023-09-06T19:34:06.098Z,,0,,,NaN,,,,,,false,,,,542373.6000003815,542373.5,,542373.4000005722,,542389.762,8,400,,,
sequence,flow.Sequence,4_75,2023-09-06T19:34:06.098Z,,0,,,6734.932999999961,completion,,,,,false,,,,542373.8000001907,542373.5,535621.898,535634.5,535638.567,542389.762,8,400,,,
trial,html.Screen,4_76_0,2023-09-06T19:34:11.257Z,,0,2,,5143.538000190747,response,ISIC_0027174.JPG,8,ISIC_1525284.JPG,ISIC_0027174.JPG,false,1,keypress(m),500,547533.5,547533.3000001907,542373.093,542373.9000005722,542389.762,547540.652,8,400,27,,ISIC_1525284.JPG
break,html.Screen,4_76_1,2023-09-06T19:34:11.258Z,,0,,,NaN,,,,,,false,,,,547534,547533.9000005722,,547533.6999998093,,547540.652,8,400,,,
break_continue,html.Screen,4_76_2,2023-09-06T19:34:11.258Z,,0,,,NaN,,,,,,false,,,,547534.3000001907,547534.3000001907,,547534.1000003815,,547540.652,8,400,,,
sequence,flow.Sequence,4_76,2023-09-06T19:34:11.258Z,,0,,,5144.538000190747,completion,,,,,false,,,,547534.5,547534.3000001907,542373.093,542373.9000005722,542389.762,547540.652,8,400,,,
trial,html.Screen,4_77_0,2023-09-06T19:34:15.951Z,,0,2,,4686.748000572203,response,ISIC_0000164.JPG,9,ISIC_0029593.JPG,ISIC_0029593.JPG,false,0,keypress(z),500,552227.6999998093,552227.4000005722,547523.983,547534.6999998093,547540.652,552241.31,8,400,28,,ISIC_0000164.JPG
break,html.Screen,4_77_1,2023-09-06T19:34:15.952Z,,0,,,NaN,,,,,,false,,,,552228.1999998093,552228.1000003815,,552227.8000001907,,552241.31,8,400,,,
break_continue,html.Screen,4_77_2,2023-09-06T19:34:15.952Z,,0,,,NaN,,,,,,false,,,,552228.5,552228.4000005722,,552228.3000001907,,552241.31,8,400,,,
sequence,flow.Sequence,4_77,2023-09-06T19:34:15.952Z,,0,,,4687.748000572203,completion,,,,,false,,,,552228.6999998093,552228.4000005722,547523.983,547534.6999998093,547540.652,552241.31,8,400,,,
trial,html.Screen,4_78_0,2023-09-06T19:34:20.388Z,,0,2,,4422.790000381414,response,ISIC_0068215.JPG,8,ISIC_0061067.JPG,ISIC_0068215.JPG,false,1,keypress(m),500,556664.3000001907,556664.1000003815,552224.641,552228.8000001907,552241.31,556675.264,8,400,29,,ISIC_0061067.JPG
break,html.Screen,4_78_1,2023-09-06T19:34:20.388Z,,0,,,NaN,,,,,,false,,,,556664.8000001907,556664.6999998093,,556664.5,,556675.264,8,400,,,
break_continue,html.Screen,4_78_2,2023-09-06T19:34:20.389Z,,0,,,NaN,,,,,,false,,,,556665.1999998093,556665.1000003815,,556665,,556675.264,8,400,,,
sequence,flow.Sequence,4_78,2023-09-06T19:34:20.389Z,,0,,,4423.790000381414,completion,,,,,false,,,,556665.4000005722,556665.1000003815,552224.641,552228.8000001907,552241.31,556675.264,8,400,,,
trial,html.Screen,4_79_0,2023-09-06T19:34:28.120Z,,0,2,,7721.435999809299,response,ISIC_0067804.JPG,7,ISIC_0054982.JPG,ISIC_0067804.JPG,false,1,keypress(m),500,564396.9000005722,564396.6999998093,556658.595,556665.5,556675.264,564409.962,8,400,30,,ISIC_0054982.JPG
break,html.Screen,4_79_1,2023-09-06T19:34:28.121Z,,0,,,NaN,,,,,,false,,,,564397.4000005722,564397.3000001907,,564397,,564409.962,8,400,,,
break_continue,html.Screen,4_79_2,2023-09-06T19:34:28.121Z,,0,,,NaN,,,,,,false,,,,564397.6999998093,564397.6000003815,,564397.5,,564409.962,8,400,,,
sequence,flow.Sequence,4_79,2023-09-06T19:34:28.121Z,,0,,,7722.336000381503,completion,,,,,false,,,,564397.9000005722,564397.6000003815,556658.595,556665.4000005722,556675.264,564409.962,8,400,,,
trial,html.Screen,4_80_0,2023-09-06T19:34:32.795Z,,0,2,,4661.438000572147,response,ISIC_1053427.JPG,8,ISIC_7746898.JPG,ISIC_1053427.JPG,false,1,keypress(m),500,569071.6000003815,569071.4000005722,564393.293,564398,564409.962,569077.573,8,400,31,,ISIC_7746898.JPG
break,html.Screen,4_80_1,2023-09-06T19:34:32.795Z,,0,,,NaN,,,,,,false,,,,569072.1000003815,569072,,569071.6999998093,,569077.573,8,400,,,
break_continue,html.Screen,4_80_2,2023-09-06T19:34:32.796Z,,0,,,NaN,,,,,,false,,,,569072.4000005722,569072.3000001907,,569072.1999998093,,569077.573,8,400,,,
sequence,flow.Sequence,4_80,2023-09-06T19:34:32.796Z,,0,,,4662.338000190677,completion,,,,,false,,,,569072.6000003815,569072.3000001907,564393.293,564398,564409.962,569077.573,8,400,,,
trial,html.Screen,4_81_0,2023-09-06T19:34:36.802Z,,0,2,,4001.1269998092903,response,ISIC_7460560.JPG,4,ISIC_0055367.JPG,ISIC_0055367.JPG,false,0,keypress(z),500,573078.8000001907,573078.6999998093,569060.904,569072.8000001907,569077.573,573094.802,8,400,32,,ISIC_7460560.JPG
break,html.Screen,4_81_1,2023-09-06T19:34:36.803Z,,0,,,NaN,,,,,,false,,,,573079.5,573079.3000001907,,573079,,573094.802,8,400,,,
break_continue,html.Screen,4_81_2,2023-09-06T19:34:36.803Z,,0,,,NaN,,,,,,false,,,,573079.8000001907,573079.6999998093,,573079.5,,573094.802,8,400,,,
sequence,flow.Sequence,4_81,2023-09-06T19:34:36.803Z,,0,,,4002.1269998092903,completion,,,,,false,,,,573079.9000005722,573079.6999998093,569060.904,569072.8000001907,569077.573,573094.802,8,400,,,
trial,html.Screen,4_82_0,2023-09-06T19:34:44.034Z,,0,2,,7216.197999999975,response,ISIC_6970607.JPG,5,ISIC_3181394.JPG,ISIC_3181394.JPG,false,0,keypress(z),500,580311.3000001907,580311,573078.133,573080.1000003815,573094.802,580312.712,8,400,33,,ISIC_6970607.JPG
break,html.Screen,4_82_1,2023-09-06T19:34:44.035Z,,0,,,NaN,,,,,,false,,,,580311.8000001907,580311.6999998093,,580311.4000005722,,580312.712,8,400,,,
break_continue,html.Screen,4_82_2,2023-09-06T19:34:44.035Z,,0,,,NaN,,,,,,false,,,,580312.1000003815,580312.1000003815,,580312,,580312.712,8,400,,,
sequence,flow.Sequence,4_82,2023-09-06T19:34:44.035Z,,0,,,7217.298000381445,completion,,,,,false,,,,580312.3000001907,580312.1000003815,573078.133,573080,573094.802,580312.712,8,400,,,
trial,html.Screen,4_83_0,2023-09-06T19:34:48.600Z,,0,2,,4563.787999999942,response,ISIC_8477065.JPG,8,ISIC_1358527.JPG,ISIC_8477065.JPG,false,1,keypress(m),500,584876.6999998093,584876.5,580296.043,580312.4000005722,580312.712,584880.018,8,400,34,,ISIC_1358527.JPG
break,html.Screen,4_83_1,2023-09-06T19:34:48.600Z,,0,,,NaN,,,,,,false,,,,584877.3000001907,584877.1000003815,,584877,,584880.018,8,400,,,
break_continue,html.Screen,4_83_2,2023-09-06T19:34:48.600Z,,0,,,NaN,,,,,,false,,,,584877.6000003815,584877.5,,584877.5,,584880.018,8,400,,,
sequence,flow.Sequence,4_83,2023-09-06T19:34:48.601Z,,0,,,4564.787999999942,completion,,,,,false,,,,584877.8000001907,584877.5,580296.043,580312.4000005722,580312.712,584880.018,8,400,,,
trial,html.Screen,4_84_0,2023-09-06T19:34:53.037Z,,0,2,,4433.681999809225,response,ISIC_0058199.JPG,9,ISIC_2219050.JPG,ISIC_2219050.JPG,false,0,keypress(z),500,589314,589313.6999998093,584863.349,584877.9000005722,584880.018,589330.641,8,400,35,,ISIC_0058199.JPG
break,html.Screen,4_84_1,2023-09-06T19:34:53.037Z,,0,,,NaN,,,,,,false,,,,589314.5,589314.4000005722,,589314.1000003815,,589330.641,8,400,,,
break_continue,html.Screen,4_84_2,2023-09-06T19:34:53.038Z,,0,,,NaN,,,,,,false,,,,589314.8000001907,589314.6999998093,,589314.6000003815,,589330.641,8,400,,,
sequence,flow.Sequence,4_84,2023-09-06T19:34:53.038Z,,0,,,4434.681999809225,completion,,,,,false,,,,589315,589314.6999998093,584863.349,584877.9000005722,584880.018,589330.641,8,400,,,
trial,html.Screen,4_85_0,2023-09-06T19:34:58.032Z,,0,2,,4978.959000381525,response,ISIC_9482039.JPG,8,ISIC_0034263.JPG,ISIC_0034263.JPG,false,0,keypress(z),500,594309.8000001907,594309.6000003815,589313.972,589315.1999998093,589330.641,594314.903,8,400,36,,ISIC_9482039.JPG
break,html.Screen,4_85_1,2023-09-06T19:34:58.033Z,,0,,,NaN,,,,,,false,,,,594310.4000005722,594310.1999998093,,594310,,594314.903,8,400,,,
break_continue,html.Screen,4_85_2,2023-09-06T19:34:58.033Z,,0,,,NaN,,,,,,false,,,,594310.6999998093,594310.6000003815,,594310.5,,594314.903,8,400,,,
sequence,flow.Sequence,4_85,2023-09-06T19:34:58.033Z,,0,,,4979.959000381525,completion,,,,,false,,,,594310.8000001907,594310.6000003815,589313.972,589315,589330.641,594314.903,8,400,,,
trial,html.Screen,4_86_0,2023-09-06T19:35:02.596Z,,0,2,,4558.296999809216,response,ISIC_0000490.JPG,4,ISIC_7162343.JPG,ISIC_7162343.JPG,false,0,keypress(z),500,598873.5,598873.1999998093,594298.234,594311,594314.903,598882.209,8,400,37,,ISIC_0000490.JPG
break,html.Screen,4_86_1,2023-09-06T19:35:02.597Z,,0,,,NaN,,,,,,false,,,,598874.1999998093,598874,,598873.6999998093,,598882.209,8,400,,,
break_continue,html.Screen,4_86_2,2023-09-06T19:35:02.597Z,,0,,,NaN,,,,,,false,,,,598874.6000003815,598874.4000005722,,598874.3000001907,,598882.209,8,400,,,
sequence,flow.Sequence,4_86,2023-09-06T19:35:02.597Z,,0,,,4559.497000572155,completion,,,,,false,,,,598874.6999998093,598874.4000005722,594298.234,594311,594314.903,598882.209,8,400,,,
trial,html.Screen,4_87_0,2023-09-06T19:35:07.383Z,,0,2,,4778.591000190703,response,ISIC_0063748.JPG,6,ISIC_0032232.JPG,ISIC_0063748.JPG,false,1,keypress(m),500,603661,603660.8000001907,598865.54,598874.8000001907,598882.209,603666.457,8,400,38,,ISIC_0032232.JPG
break,html.Screen,4_87_1,2023-09-06T19:35:07.384Z,,0,,,NaN,,,,,,false,,,,603661.6000003815,603661.4000005722,,603661.1999998093,,603666.457,8,400,,,
break_continue,html.Screen,4_87_2,2023-09-06T19:35:07.384Z,,0,,,NaN,,,,,,false,,,,603661.8000001907,603661.8000001907,,603661.6999998093,,603666.457,8,400,,,
sequence,flow.Sequence,4_87,2023-09-06T19:35:07.384Z,,0,,,4779.591000190703,completion,,,,,false,,,,603662,603661.8000001907,598865.54,598874.8000001907,598882.209,603666.457,8,400,,,
trial,html.Screen,4_88_0,2023-09-06T19:35:12.556Z,,0,2,,5166.742999809212,response,ISIC_0010825.JPG,8,ISIC_5569091.JPG,ISIC_0010825.JPG,false,1,keypress(m),500,608833.4000005722,608833.1999998093,603649.788,603662.1000003815,603666.457,608850.516,8,400,39,,ISIC_5569091.JPG
break,html.Screen,4_88_1,2023-09-06T19:35:12.556Z,,0,,,NaN,,,,,,false,,,,608833.9000005722,608833.8000001907,,608833.6000003815,,608850.516,8,400,,,
break_continue,html.Screen,4_88_2,2023-09-06T19:35:12.556Z,,0,,,NaN,,,,,,false,,,,608834.1999998093,608834.1000003815,,608834.1000003815,,608850.516,8,400,,,
sequence,flow.Sequence,4_88,2023-09-06T19:35:12.557Z,,0,,,5167.643000381417,completion,,,,,false,,,,608834.3000001907,608834.1000003815,603649.788,603662.1000003815,603666.457,608850.516,8,400,,,
trial,html.Screen,4_89_0,2023-09-06T19:35:17.374Z,,0,2,,4801.484000000055,response,ISIC_7915065.JPG,8,ISIC_0034086.JPG,ISIC_0034086.JPG,false,0,keypress(z),500,613652.1000003815,613652,608833.847,608834.4000005722,608850.516,613668.066,8,400,40,,ISIC_7915065.JPG
break,html.Screen,4_89_1,2023-09-06T19:35:17.375Z,,0,,,NaN,,,,,,false,,,,613652.6999998093,613652.5,,613652.3000001907,,613668.066,8,400,,,
break_continue,html.Screen,4_89_2,2023-09-06T19:35:17.375Z,,0,,,NaN,,,,,,false,,,,613652.9000005722,613652.9000005722,,613652.8000001907,,613668.066,8,400,,,
sequence,flow.Sequence,4_89,2023-09-06T19:35:17.375Z,,0,,,4802.3840005722595,completion,,,,,false,,,,613653.1000003815,613652.9000005722,608833.847,608834.4000005722,608850.516,613668.066,8,400,,,
trial,html.Screen,4_90_0,2023-09-06T19:35:24.228Z,,0,2,,6837.934000000008,response,ISIC_0011924.JPG,7,ISIC_0013740.JPG,ISIC_0013740.JPG,false,0,keypress(z),500,620506.1999998093,620506,613651.397,613653.1999998093,613668.066,620519.025,8,400,41,,ISIC_0011924.JPG
break,html.Screen,4_90_1,2023-09-06T19:35:24.229Z,,0,,,NaN,,,,,,false,,,,620506.8000001907,620506.6000003815,,620506.4000005722,,620519.025,8,400,,,
break_continue,html.Screen,4_90_2,2023-09-06T19:35:24.229Z,,0,,,NaN,,,,,,false,,,,620507.1000003815,620506.9000005722,,620506.9000005722,,620519.025,8,400,,,
sequence,flow.Sequence,4_90,2023-09-06T19:35:24.229Z,,0,,,6838.834000572213,completion,,,,,false,,,,620507.3000001907,620506.9000005722,613651.397,613653.1000003815,613668.066,620519.025,8,400,,,
trial,html.Screen,4_91_0,2023-09-06T19:35:29.137Z,,0,2,,4895.974999999977,response,ISIC_0056406.JPG,8,ISIC_5041679.JPG,ISIC_0056406.JPG,false,1,keypress(m),500,625415.1999998093,625415,620502.356,620507.4000005722,620519.025,625419.98,8,400,42,,ISIC_5041679.JPG
break,html.Screen,4_91_1,2023-09-06T19:35:29.138Z,,0,,,NaN,,,,,,false,,,,625415.6999998093,625415.6000003815,,625415.4000005722,,625419.98,8,400,,,
break_continue,html.Screen,4_91_2,2023-09-06T19:35:29.138Z,,0,,,NaN,,,,,,false,,,,625416,625416,,625415.8000001907,,625419.98,8,400,,,
sequence,flow.Sequence,4_91,2023-09-06T19:35:29.138Z,,0,,,4896.974999999977,completion,,,,,false,,,,625416.3000001907,625416,620502.356,620507.4000005722,620519.025,625419.98,8,400,,,
trial,html.Screen,4_92_0,2023-09-06T19:35:35.025Z,,0,2,,5883.520000000019,response,ISIC_3452564.JPG,7,ISIC_0011686.JPG,ISIC_3452564.JPG,false,1,keypress(m),500,631303.8000001907,631303.5,625403.311,625416.4000005722,625419.98,631321.038,8,400,43,,ISIC_0011686.JPG
break,html.Screen,4_92_1,2023-09-06T19:35:35.026Z,,0,,,NaN,,,,,,false,,,,631304.4000005722,631304.1999998093,,631304,,631321.038,8,400,,,
break_continue,html.Screen,4_92_2,2023-09-06T19:35:35.026Z,,0,,,NaN,,,,,,false,,,,631304.8000001907,631304.6000003815,,631304.6000003815,,631321.038,8,400,,,
sequence,flow.Sequence,4_92,2023-09-06T19:35:35.027Z,,0,,,5884.620000381488,completion,,,,,false,,,,631304.9000005722,631304.6000003815,625403.311,625416.4000005722,625419.98,631321.038,8,400,,,
trial,html.Screen,4_93_0,2023-09-06T19:35:39.304Z,,0,2,,4261.0620003815275,response,ISIC_0056226.JPG,8,ISIC_0012740.JPG,ISIC_0056226.JPG,false,1,keypress(m),500,635582.3000001907,635582.1000003815,631304.369,631305.1000003815,631321.038,635588.302,8,400,44,,ISIC_0012740.JPG
break,html.Screen,4_93_1,2023-09-06T19:35:39.304Z,,0,,,NaN,,,,,,false,,,,635582.9000005722,635582.6999998093,,635582.5,,635588.302,8,400,,,
break_continue,html.Screen,4_93_2,2023-09-06T19:35:39.305Z,,0,,,NaN,,,,,,false,,,,635583.1999998093,635583.1999998093,,635583.1000003815,,635588.302,8,400,,,
sequence,flow.Sequence,4_93,2023-09-06T19:35:39.305Z,,0,,,4262.161999809323,completion,,,,,false,,,,635583.5,635583.1999998093,631304.369,631305,631321.038,635588.302,8,400,,,
trial,html.Screen,4_94_0,2023-09-06T19:35:43.101Z,,0,2,,3791.4980001907097,response,ISIC_0030852.JPG,7,ISIC_0027836.JPG,ISIC_0030852.JPG,false,1,keypress(m),500,639379.9000005722,639379.8000001907,635571.633,635583.5,635588.302,639388.834,8,400,45,,ISIC_0027836.JPG
break,html.Screen,4_94_1,2023-09-06T19:35:43.102Z,,0,,,NaN,,,,,,false,,,,639380.6000003815,639380.4000005722,,639380.1999998093,,639388.834,8,400,,,
break_continue,html.Screen,4_94_2,2023-09-06T19:35:43.102Z,,0,,,NaN,,,,,,false,,,,639380.9000005722,639380.8000001907,,639380.6000003815,,639388.834,8,400,,,
sequence,flow.Sequence,4_94,2023-09-06T19:35:43.102Z,,0,,,3792.4980001907097,completion,,,,,false,,,,639381,639380.8000001907,635571.633,635583.5,635588.302,639388.834,8,400,,,
trial,html.Screen,4_95_0,2023-09-06T19:35:50.642Z,,0,2,,7531.566000572173,response,ISIC_0000153.JPG,7,ISIC_0061630.JPG,ISIC_0000153.JPG,false,1,keypress(m),500,646920.6999998093,646920.4000005722,639372.165,639381.1999998093,639388.834,646923.384,8,400,46,,ISIC_0061630.JPG
break,html.Screen,4_95_1,2023-09-06T19:35:50.643Z,,0,,,NaN,,,,,,false,,,,646921.3000001907,646921.1000003815,,646920.9000005722,,646923.384,8,400,,,
break_continue,html.Screen,4_95_2,2023-09-06T19:35:50.643Z,,0,,,NaN,,,,,,false,,,,646921.6000003815,646921.5,,646921.4000005722,,646923.384,8,400,,,
sequence,flow.Sequence,4_95,2023-09-06T19:35:50.643Z,,0,,,7532.665999999968,completion,,,,,false,,,,646921.8000001907,646921.5,639372.165,639381.1999998093,639388.834,646923.384,8,400,,,
trial,html.Screen,4_96_0,2023-09-06T19:35:55.527Z,,0,2,,4882.716000381508,response,ISIC_3049506.JPG,7,ISIC_2858419.JPG,ISIC_2858419.JPG,false,0,keypress(z),500,651806.3000001907,651806.1000003815,646906.715,646921.9000005722,646923.384,651807.714,8,400,47,,ISIC_3049506.JPG
break,html.Screen,4_96_1,2023-09-06T19:35:55.528Z,,0,,,NaN,,,,,,false,,,,651806.9000005722,651806.6999998093,,651806.5,,651807.714,8,400,,,
break_continue,html.Screen,4_96_2,2023-09-06T19:35:55.528Z,,0,,,NaN,,,,,,false,,,,651807.1999998093,651807.1000003815,,651807,,651807.714,8,400,,,
sequence,flow.Sequence,4_96,2023-09-06T19:35:55.528Z,,0,,,4883.716000381508,completion,,,,,false,,,,651807.4000005722,651807.1000003815,646906.715,646921.9000005722,646923.384,651807.714,8,400,,,
trial,html.Screen,4_97_0,2023-09-06T19:36:00.826Z,,0,2,,5297.386000381433,response,ISIC_0028874.JPG,9,ISIC_0059485.JPG,ISIC_0059485.JPG,false,0,keypress(z),500,657105.3000001907,657105.1000003815,651791.045,651807.4000005722,651807.714,657108.456,8,400,48,,ISIC_0028874.JPG
break,html.Screen,4_97_1,2023-09-06T19:36:00.827Z,,0,,,NaN,,,,,,false,,,,657105.8000001907,657105.6999998093,,657105.4000005722,,657108.456,8,400,,,
break_continue,html.Screen,4_97_2,2023-09-06T19:36:00.827Z,,0,,,NaN,,,,,,false,,,,657106.1000003815,657106.1000003815,,657105.9000005722,,657108.456,8,400,,,
sequence,flow.Sequence,4_97,2023-09-06T19:36:00.827Z,,0,,,5298.386000381433,completion,,,,,false,,,,657106.3000001907,657106.1000003815,651791.045,651807.4000005722,651807.714,657108.456,8,400,,,
trial,html.Screen,4_98_0,2023-09-06T19:36:05.993Z,,0,2,,5163.543999999994,response,ISIC_2075372.JPG,5,ISIC_4412555.JPG,ISIC_4412555.JPG,false,0,keypress(z),500,662272.1999998093,662272,657091.787,657106.4000005722,657108.456,662276.081,8,400,49,,ISIC_2075372.JPG
break,html.Screen,4_98_1,2023-09-06T19:36:05.994Z,,0,,,NaN,,,,,,false,,,,662272.8000001907,662272.6000003815,,662272.3000001907,,662276.081,8,400,,,
break_continue,html.Screen,4_98_2,2023-09-06T19:36:05.994Z,,0,,,NaN,,,,,,false,,,,662273.1000003815,662273,,662272.9000005722,,662276.081,8,400,,,
sequence,flow.Sequence,4_98,2023-09-06T19:36:05.994Z,,0,,,5164.543999999994,completion,,,,,false,,,,662273.3000001907,662273,657091.787,657106.4000005722,657108.456,662276.081,8,400,,,
trial,html.Screen,4_99_0,2023-09-06T19:36:12.135Z,,0,2,,6138.019000381464,response,ISIC_0007740.JPG,4,ISIC_8570555.JPG,ISIC_8570555.JPG,false,0,keypress(z),500,668414.3000001907,668414.1000003815,662259.412,662273.5,662276.081,668426.942,8,400,50,,ISIC_0007740.JPG
break,html.Screen,4_99_1,2023-09-06T19:36:22.133Z,,0,,,10001.630999999936,timeout,,,,,false,,,,678412.8000001907,678411.904,668410.273,668414.4000005722,668426.942,678428.573,8,400,,,
break_continue,html.Screen,4_99_2,2023-09-06T19:37:21.655Z,,0,,,59487.72700019076,response,,,,,false,continue,keypress(Space),,737936.1999998093,737916.3000001907,678411.904,678413,678428.573,737936.903,8,400,,,
sequence,flow.Sequence,4_99,2023-09-06T19:37:21.655Z,,0,,,75640.21900019073,completion,,,,,false,,,,737936.3000001907,737916.3000001907,662259.412,662273.4000005722,662276.081,737936.903,8,400,,,
trial,html.Screen,4_100_0,2023-09-06T19:37:29.145Z,,0,3,,7488.796999809216,response,ISIC_8009880.JPG,8,ISIC_0033612.JPG,ISIC_0033612.JPG,false,0,keypress(z),500,745425.9000005722,745425.6999998093,737920.234,737936.3000001907,737936.903,745439.473,8,400,1,,ISIC_8009880.JPG
break,html.Screen,4_100_1,2023-09-06T19:37:29.145Z,,0,,,NaN,,,,,,false,,,,745426.5,745426.3000001907,,745426.1000003815,,745439.473,8,400,,,
break_continue,html.Screen,4_100_2,2023-09-06T19:37:29.146Z,,0,,,NaN,,,,,,false,,,,745426.8000001907,745426.8000001907,,745426.6000003815,,745439.473,8,400,,,
sequence,flow.Sequence,4_100,2023-09-06T19:37:29.146Z,,0,,,7489.8970001906855,completion,,,,,false,,,,745427,745426.8000001907,737920.234,737936.3000001907,737936.903,745439.473,8,400,,,
trial,html.Screen,4_101_0,2023-09-06T19:37:34.142Z,,0,3,,4983.827000190737,response,ISIC_0268187.JPG,7,ISIC_9572761.JPG,ISIC_9572761.JPG,false,0,keypress(z),500,750423.6000003815,750423.3000001907,745422.804,745427.1000003815,745439.473,750440.448,8,400,2,,ISIC_0268187.JPG
break,html.Screen,4_101_1,2023-09-06T19:37:34.143Z,,0,,,NaN,,,,,,false,,,,750424.1000003815,750424,,750423.6999998093,,750440.448,8,400,,,
break_continue,html.Screen,4_101_2,2023-09-06T19:37:34.143Z,,0,,,NaN,,,,,,false,,,,750424.5,750424.4000005722,,750424.1999998093,,750440.448,8,400,,,
sequence,flow.Sequence,4_101,2023-09-06T19:37:34.143Z,,0,,,4984.927000572206,completion,,,,,false,,,,750424.6000003815,750424.4000005722,745422.804,745427.1000003815,745439.473,750440.448,8,400,,,
trial,html.Screen,4_102_0,2023-09-06T19:37:39.633Z,,0,3,,5473.75199980929,response,ISIC_0011528.JPG,7,ISIC_2490481.JPG,ISIC_0011528.JPG,false,1,keypress(m),500,755914.3000001907,755914.1999998093,750423.779,750424.6999998093,750440.448,755924.549,8,400,3,,ISIC_2490481.JPG
break,html.Screen,4_102_1,2023-09-06T19:37:39.633Z,,0,,,NaN,,,,,,false,,,,755915,755914.8000001907,,755914.5,,755924.549,8,400,,,
break_continue,html.Screen,4_102_2,2023-09-06T19:37:39.634Z,,0,,,NaN,,,,,,false,,,,755915.1999998093,755915.1999998093,,755915.1000003815,,755924.549,8,400,,,
sequence,flow.Sequence,4_102,2023-09-06T19:37:39.634Z,,0,,,5474.75199980929,completion,,,,,false,,,,755915.4000005722,755915.1999998093,750423.779,750424.6999998093,750440.448,755924.549,8,400,,,
trial,html.Screen,4_103_0,2023-09-06T19:37:44.567Z,,0,3,,4924.251000190736,response,ISIC_5179884.JPG,8,ISIC_0030281.JPG,ISIC_0030281.JPG,false,0,keypress(z),500,760849.1000003815,760848.8000001907,755907.88,755915.5,755924.549,760858.807,8,400,4,,ISIC_5179884.JPG
break,html.Screen,4_103_1,2023-09-06T19:37:44.568Z,,0,,,NaN,,,,,,false,,,,760849.6999998093,760849.5,,760849.3000001907,,760858.807,8,400,,,
break_continue,html.Screen,4_103_2,2023-09-06T19:37:44.568Z,,0,,,NaN,,,,,,false,,,,760850,760849.9000005722,,760849.8000001907,,760858.807,8,400,,,
sequence,flow.Sequence,4_103,2023-09-06T19:37:44.568Z,,0,,,4925.3510005722055,completion,,,,,false,,,,760850.1999998093,760849.9000005722,755907.88,755915.5,755924.549,760858.807,8,400,,,
trial,html.Screen,4_104_0,2023-09-06T19:37:50.085Z,,0,3,,5507.593000572175,response,ISIC_1108178.JPG,7,ISIC_0008816.JPG,ISIC_1108178.JPG,false,1,keypress(m),500,766366.6000003815,766366.4000005722,760842.138,760850.3000001907,760858.807,766376.246,8,400,5,,ISIC_0008816.JPG
break,html.Screen,4_104_1,2023-09-06T19:37:50.085Z,,0,,,NaN,,,,,,false,,,,766367.1000003815,766367,,766366.6999998093,,766376.246,8,400,,,
break_continue,html.Screen,4_104_2,2023-09-06T19:37:50.086Z,,0,,,NaN,,,,,,false,,,,766367.4000005722,766367.4000005722,,766367.1999998093,,766376.246,8,400,,,
sequence,flow.Sequence,4_104,2023-09-06T19:37:50.086Z,,0,,,5508.593000572175,completion,,,,,false,,,,766367.6000003815,766367.4000005722,760842.138,760850.3000001907,760858.807,766376.246,8,400,,,
trial,html.Screen,4_105_0,2023-09-06T19:37:56.665Z,,0,3,,6570.453999809222,response,ISIC_0033664.JPG,5,ISIC_0055887.JPG,ISIC_0055887.JPG,false,0,keypress(z),500,772946.9000005722,772946.6999998093,766359.577,766367.8000001907,766376.246,772960.67,8,400,6,,ISIC_0033664.JPG
break,html.Screen,4_105_1,2023-09-06T19:37:56.665Z,,0,,,NaN,,,,,,false,,,,772947.5,772947.4000005722,,772947,,772960.67,8,400,,,
break_continue,html.Screen,4_105_2,2023-09-06T19:37:56.666Z,,0,,,NaN,,,,,,false,,,,772947.6999998093,772947.6999998093,,772947.5,,772960.67,8,400,,,
sequence,flow.Sequence,4_105,2023-09-06T19:37:56.666Z,,0,,,6571.453999809222,completion,,,,,false,,,,772947.9000005722,772947.6999998093,766359.577,766367.8000001907,766376.246,772960.67,8,400,,,
trial,html.Screen,4_106_0,2023-09-06T19:38:01.982Z,,0,3,,5303.529999809223,response,ISIC_6340564.JPG,8,ISIC_5233769.JPG,ISIC_5233769.JPG,false,0,keypress(z),500,778264.4000005722,778264.1999998093,772944.001,772948.1000003815,772960.67,778278.081,8,400,7,,ISIC_6340564.JPG
break,html.Screen,4_106_1,2023-09-06T19:38:01.983Z,,0,,,NaN,,,,,,false,,,,778265.1000003815,778265,,778264.6000003815,,778278.081,8,400,,,
break_continue,html.Screen,4_106_2,2023-09-06T19:38:01.983Z,,0,,,NaN,,,,,,false,,,,778265.3000001907,778265.3000001907,,778265.1000003815,,778278.081,8,400,,,
sequence,flow.Sequence,4_106,2023-09-06T19:38:01.983Z,,0,,,5304.630000190693,completion,,,,,false,,,,778265.6000003815,778265.3000001907,772944.001,772948.1000003815,772960.67,778278.081,8,400,,,
trial,html.Screen,4_107_0,2023-09-06T19:38:06.532Z,,0,3,,4535.918999999994,response,ISIC_0067614.JPG,7,ISIC_9694867.JPG,ISIC_0067614.JPG,false,1,keypress(m),500,782814.1999998093,782814,778261.412,778265.6000003815,778278.081,782845.663,8,400,8,,ISIC_9694867.JPG
break,html.Screen,4_107_1,2023-09-06T19:38:06.533Z,,0,,,NaN,,,,,,false,,,,782814.8000001907,782814.6000003815,,782814.4000005722,,782845.663,8,400,,,
break_continue,html.Screen,4_107_2,2023-09-06T19:38:06.533Z,,0,,,NaN,,,,,,false,,,,782815.1999998093,782815.1000003815,,782814.9000005722,,782845.663,8,400,,,
sequence,flow.Sequence,4_107,2023-09-06T19:38:06.533Z,,0,,,4537.019000381464,completion,,,,,false,,,,782815.4000005722,782815.1000003815,778261.412,778265.6000003815,778278.081,782845.663,8,400,,,
trial,html.Screen,4_108_0,2023-09-06T19:38:12.342Z,,0,3,,5778.737000572262,response,ISIC_0027110.JPG,7,ISIC_0029478.JPG,ISIC_0027110.JPG,false,1,keypress(m),500,788624.6999998093,788624.4000005722,782828.994,782815.5,782845.663,788629.806,8,400,9,,ISIC_0029478.JPG
break,html.Screen,4_108_1,2023-09-06T19:38:12.343Z,,0,,,NaN,,,,,,false,,,,788625.3000001907,788625.1000003815,,788624.9000005722,,788629.806,8,400,,,
break_continue,html.Screen,4_108_2,2023-09-06T19:38:12.343Z,,0,,,NaN,,,,,,false,,,,788625.6000003815,788625.5,,788625.3000001907,,788629.806,8,400,,,
sequence,flow.Sequence,4_108,2023-09-06T19:38:12.343Z,,0,,,5779.837000000058,completion,,,,,false,,,,788625.8000001907,788625.5,782828.994,782815.5,782845.663,788629.806,8,400,,,
trial,html.Screen,4_109_0,2023-09-06T19:38:18.218Z,,0,3,,5870.694000000018,response,ISIC_0561249.JPG,8,ISIC_3409824.JPG,ISIC_3409824.JPG,false,0,keypress(z),500,794500.6000003815,794500.5,788613.137,788625.9000005722,788629.806,794514.274,8,400,10,,ISIC_0561249.JPG
break,html.Screen,4_109_1,2023-09-06T19:38:18.219Z,,0,,,NaN,,,,,,false,,,,794501.3000001907,794501.1000003815,,794500.9000005722,,794514.274,8,400,,,
break_continue,html.Screen,4_109_2,2023-09-06T19:38:18.219Z,,0,,,NaN,,,,,,false,,,,794501.6000003815,794501.5,,794501.4000005722,,794514.274,8,400,,,
sequence,flow.Sequence,4_109,2023-09-06T19:38:18.219Z,,0,,,5871.694000000018,completion,,,,,false,,,,794501.8000001907,794501.5,788613.137,788625.8000001907,788629.806,794514.274,8,400,,,
trial,html.Screen,4_110_0,2023-09-06T19:38:25.327Z,,0,3,,7095.626000572229,response,ISIC_0030704.JPG,7,ISIC_0014160.JPG,ISIC_0014160.JPG,false,0,keypress(z),500,801610,801609.9000005722,794497.605,794501.9000005722,794514.274,801615.268,8,400,11,,ISIC_0030704.JPG
break,html.Screen,4_110_1,2023-09-06T19:38:25.328Z,,0,,,NaN,,,,,,false,,,,801610.6999998093,801610.6000003815,,801610.1999998093,,801615.268,8,400,,,
break_continue,html.Screen,4_110_2,2023-09-06T19:38:25.328Z,,0,,,NaN,,,,,,false,,,,801611,801610.9000005722,,801610.8000001907,,801615.268,8,400,,,
sequence,flow.Sequence,4_110,2023-09-06T19:38:25.328Z,,0,,,7096.626000572229,completion,,,,,false,,,,801611.1999998093,801610.9000005722,794497.605,794501.8000001907,794514.274,801615.268,8,400,,,
trial,html.Screen,4_111_0,2023-09-06T19:38:30.989Z,,0,3,,5656.23199999996,response,ISIC_5955057.JPG,8,ISIC_6916924.JPG,ISIC_5955057.JPG,false,1,keypress(m),500,807271.6000003815,807271.5,801598.599,801611.3000001907,801615.268,807282.883,8,400,12,,ISIC_6916924.JPG
break,html.Screen,4_111_1,2023-09-06T19:38:30.989Z,,0,,,NaN,,,,,,false,,,,807272.1000003815,807272,,807271.8000001907,,807282.883,8,400,,,
break_continue,html.Screen,4_111_2,2023-09-06T19:38:30.989Z,,0,,,NaN,,,,,,false,,,,807272.3000001907,807272.1999998093,,807272.1999998093,,807282.883,8,400,,,
sequence,flow.Sequence,4_111,2023-09-06T19:38:30.989Z,,0,,,5656.931999809225,completion,,,,,false,,,,807272.3000001907,807272.1999998093,801598.599,801611.3000001907,801615.268,807282.883,8,400,,,
trial,html.Screen,4_112_0,2023-09-06T19:38:37.117Z,,0,3,,6117.017000572174,response,ISIC_0024519.JPG,8,ISIC_3552245.JPG,ISIC_3552245.JPG,false,0,keypress(z),500,813400.1000003815,813399.9000005722,807266.214,807272.5,807282.883,813417.075,8,400,13,,ISIC_0024519.JPG
break,html.Screen,4_112_1,2023-09-06T19:38:37.118Z,,0,,,NaN,,,,,,false,,,,813400.6999998093,813400.6000003815,,813400.3000001907,,813417.075,8,400,,,
break_continue,html.Screen,4_112_2,2023-09-06T19:38:37.118Z,,0,,,NaN,,,,,,false,,,,813401.1000003815,813400.9000005722,,813400.8000001907,,813417.075,8,400,,,
sequence,flow.Sequence,4_112,2023-09-06T19:38:37.118Z,,0,,,6118.017000572174,completion,,,,,false,,,,813401.1999998093,813400.9000005722,807266.214,807272.4000005722,807282.883,813417.075,8,400,,,
trial,html.Screen,4_113_0,2023-09-06T19:38:43.219Z,,0,3,,6084.725000190781,response,ISIC_0065537.JPG,7,ISIC_2523776.JPG,ISIC_0065537.JPG,false,1,keypress(m),500,819502,819501.8000001907,813400.406,813401.3000001907,813417.075,819518.243,8,400,14,,ISIC_2523776.JPG
break,html.Screen,4_113_1,2023-09-06T19:38:43.219Z,,0,,,NaN,,,,,,false,,,,819502.6000003815,819502.4000005722,,819502.1999998093,,819518.243,8,400,,,
break_continue,html.Screen,4_113_2,2023-09-06T19:38:43.220Z,,0,,,NaN,,,,,,false,,,,819502.9000005722,819502.8000001907,,819502.6999998093,,819518.243,8,400,,,
sequence,flow.Sequence,4_113,2023-09-06T19:38:43.220Z,,0,,,6085.725000190781,completion,,,,,false,,,,819503.1000003815,819502.8000001907,813400.406,813401.3000001907,813417.075,819518.243,8,400,,,
trial,html.Screen,4_114_0,2023-09-06T19:38:49.036Z,,0,3,,5800.756999999983,response,ISIC_0010785.JPG,8,ISIC_0029013.JPG,ISIC_0010785.JPG,false,1,keypress(m),500,825319.1999998093,825319,819501.574,819503.1999998093,819518.243,825335.988,8,400,15,,ISIC_0029013.JPG
break,html.Screen,4_114_1,2023-09-06T19:38:49.036Z,,0,,,NaN,,,,,,false,,,,825319.8000001907,825319.6999998093,,825319.4000005722,,825335.988,8,400,,,
break_continue,html.Screen,4_114_2,2023-09-06T19:38:49.037Z,,0,,,NaN,,,,,,false,,,,825320.1000003815,825320,,825319.9000005722,,825335.988,8,400,,,
sequence,flow.Sequence,4_114,2023-09-06T19:38:49.037Z,,0,,,5801.756999999983,completion,,,,,false,,,,825320.3000001907,825320,819501.574,819503.1000003815,819518.243,825335.988,8,400,,,
trial,html.Screen,4_115_0,2023-09-06T19:38:57.003Z,,0,3,,7950.211999809253,response,ISIC_0010124.JPG,7,ISIC_0030974.JPG,ISIC_0030974.JPG,false,0,keypress(z),500,833286.4000005722,833286.1999998093,825319.319,825320.4000005722,825335.988,833287.101,8,400,16,,ISIC_0010124.JPG
break,html.Screen,4_115_1,2023-09-06T19:38:57.003Z,,0,,,NaN,,,,,,false,,,,833286.9000005722,833286.8000001907,,833286.5,,833287.101,8,400,,,
break_continue,html.Screen,4_115_2,2023-09-06T19:38:57.004Z,,0,,,NaN,,,,,,false,,,,833287.3000001907,833287.1000003815,,833287,,833287.101,8,400,,,
sequence,flow.Sequence,4_115,2023-09-06T19:38:57.004Z,,0,,,7951.112000381458,completion,,,,,false,,,,833287.4000005722,833287.1000003815,825319.319,825320.4000005722,825335.988,833287.101,8,400,,,
trial,html.Screen,4_116_0,2023-09-06T19:39:05.626Z,,0,3,,8621.999000381446,response,ISIC_9450906.JPG,7,ISIC_2447578.JPG,ISIC_2447578.JPG,false,0,keypress(z),500,841909.3000001907,841909.1000003815,833270.432,833287.5,833287.101,841921.816,8,400,17,,ISIC_9450906.JPG
break,html.Screen,4_116_1,2023-09-06T19:39:05.626Z,,0,,,NaN,,,,,,false,,,,841909.8000001907,841909.8000001907,,841909.5,,841921.816,8,400,,,
break_continue,html.Screen,4_116_2,2023-09-06T19:39:05.626Z,,0,,,NaN,,,,,,false,,,,841910.1999998093,841910,,841910,,841921.816,8,400,,,
sequence,flow.Sequence,4_116,2023-09-06T19:39:05.627Z,,0,,,8622.898999999976,completion,,,,,false,,,,841910.4000005722,841910,833270.432,833287.5,833287.101,841921.816,8,400,,,
trial,html.Screen,4_117_0,2023-09-06T19:39:12.012Z,,0,3,,6373.584000572213,response,ISIC_0029809.JPG,8,ISIC_0033953.JPG,ISIC_0029809.JPG,false,1,keypress(m),500,848295.6000003815,848295.4000005722,841905.147,841910.5,841921.816,848306.331,8,400,18,,ISIC_0033953.JPG
break,html.Screen,4_117_1,2023-09-06T19:39:12.012Z,,0,,,NaN,,,,,,false,,,,848296.1999998093,848296,,848295.8000001907,,848306.331,8,400,,,
break_continue,html.Screen,4_117_2,2023-09-06T19:39:12.013Z,,0,,,NaN,,,,,,false,,,,848296.5,848296.4000005722,,848296.1999998093,,848306.331,8,400,,,
sequence,flow.Sequence,4_117,2023-09-06T19:39:12.013Z,,0,,,6374.584000572213,completion,,,,,false,,,,848296.6999998093,848296.4000005722,841905.147,841910.4000005722,841921.816,848306.331,8,400,,,
trial,html.Screen,4_118_0,2023-09-06T19:39:18.924Z,,0,3,,6901.569000572199,response,ISIC_0056164.JPG,8,ISIC_1081051.JPG,ISIC_0056164.JPG,false,1,keypress(m),500,855208.1000003815,855207.9000005722,848289.662,848296.6999998093,848306.331,855223.966,8,400,19,,ISIC_1081051.JPG
break,html.Screen,4_118_1,2023-09-06T19:39:18.925Z,,0,,,NaN,,,,,,false,,,,855208.6999998093,855208.5,,855208.3000001907,,855223.966,8,400,,,
break_continue,html.Screen,4_118_2,2023-09-06T19:39:18.925Z,,0,,,NaN,,,,,,false,,,,855209,855208.9000005722,,855208.8000001907,,855223.966,8,400,,,
sequence,flow.Sequence,4_118,2023-09-06T19:39:18.925Z,,0,,,6902.569000572199,completion,,,,,false,,,,855209.1000003815,855208.9000005722,848289.662,848296.6999998093,848306.331,855223.966,8,400,,,
trial,html.Screen,4_119_0,2023-09-06T19:39:24.417Z,,0,3,,5476.634000381455,response,ISIC_0361149.JPG,7,ISIC_0064478.JPG,ISIC_0064478.JPG,false,0,keypress(z),500,860700.9000005722,860700.6000003815,855207.297,855209.3000001907,855223.966,860708.359,8,400,20,,ISIC_0361149.JPG
break,html.Screen,4_119_1,2023-09-06T19:39:24.417Z,,0,,,NaN,,,,,,false,,,,860701.3000001907,860701.1999998093,,860701,,860708.359,8,400,,,
break_continue,html.Screen,4_119_2,2023-09-06T19:39:24.417Z,,0,,,NaN,,,,,,false,,,,860701.6999998093,860701.5,,860701.4000005722,,860708.359,8,400,,,
sequence,flow.Sequence,4_119,2023-09-06T19:39:24.418Z,,0,,,5477.533999999985,completion,,,,,false,,,,860701.8000001907,860701.5,855207.297,855209.3000001907,855223.966,860708.359,8,400,,,
trial,html.Screen,4_120_0,2023-09-06T19:39:29.428Z,,0,3,,5003.34099980921,response,ISIC_4453506.JPG,9,ISIC_0029508.JPG,ISIC_4453506.JPG,false,1,keypress(m),500,865711.9000005722,865711.6999998093,860691.69,860702,860708.359,865725.728,8,400,21,,ISIC_0029508.JPG
break,html.Screen,4_120_1,2023-09-06T19:39:29.428Z,,0,,,NaN,,,,,,false,,,,865712.6000003815,865712.4000005722,,865712.1000003815,,865725.728,8,400,,,
break_continue,html.Screen,4_120_2,2023-09-06T19:39:29.429Z,,0,,,NaN,,,,,,false,,,,865712.9000005722,865712.6999998093,,865712.6000003815,,865725.728,8,400,,,
sequence,flow.Sequence,4_120,2023-09-06T19:39:29.429Z,,0,,,5004.34099980921,completion,,,,,false,,,,865713.1000003815,865712.6999998093,860691.69,860702,860708.359,865725.728,8,400,,,
trial,html.Screen,4_121_0,2023-09-06T19:39:34.647Z,,0,3,,5205.072000190732,response,ISIC_1306020.JPG,6,ISIC_8427534.JPG,ISIC_1306020.JPG,false,1,keypress(m),500,870931,870930.8000001907,865709.059,865713.1000003815,865725.728,870943.424,8,400,22,,ISIC_8427534.JPG
break,html.Screen,4_121_1,2023-09-06T19:39:34.647Z,,0,,,NaN,,,,,,false,,,,870931.5,870931.4000005722,,870931.1999998093,,870943.424,8,400,,,
break_continue,html.Screen,4_121_2,2023-09-06T19:39:34.647Z,,0,,,NaN,,,,,,false,,,,870931.9000005722,870931.8000001907,,870931.6999998093,,870943.424,8,400,,,
sequence,flow.Sequence,4_121,2023-09-06T19:39:34.648Z,,0,,,5206.072000190732,completion,,,,,false,,,,870932.1000003815,870931.8000001907,865709.059,865713.1000003815,865725.728,870943.424,8,400,,,
trial,html.Screen,4_122_0,2023-09-06T19:39:39.857Z,,0,3,,5198.4760005722055,response,ISIC_9099430.JPG,6,ISIC_3613392.JPG,ISIC_9099430.JPG,false,1,keypress(m),500,876142.1000003815,876141.9000005722,870926.755,870932.1000003815,870943.424,876144.152,8,400,23,,ISIC_3613392.JPG
break,html.Screen,4_122_1,2023-09-06T19:39:39.858Z,,0,,,NaN,,,,,,false,,,,876142.6000003815,876142.5,,876142.1999998093,,876144.152,8,400,,,
break_continue,html.Screen,4_122_2,2023-09-06T19:39:39.858Z,,0,,,NaN,,,,,,false,,,,876142.9000005722,876142.8000001907,,876142.6999998093,,876144.152,8,400,,,
sequence,flow.Sequence,4_122,2023-09-06T19:39:39.858Z,,0,,,5199.376000190736,completion,,,,,false,,,,876143.1000003815,876142.8000001907,870926.755,870932.1000003815,870943.424,876144.152,8,400,,,
trial,html.Screen,4_123_0,2023-09-06T19:39:46.026Z,,0,3,,6166.547999809263,response,ISIC_0000507.JPG,7,ISIC_0000466.JPG,ISIC_0000507.JPG,false,1,keypress(m),500,882310.9000005722,882310.6999998093,876127.483,876143.1999998093,876144.152,882311.912,8,400,24,,ISIC_0000466.JPG
break,html.Screen,4_123_1,2023-09-06T19:39:46.027Z,,0,,,NaN,,,,,,false,,,,882311.5,882311.3000001907,,882311.1000003815,,882311.912,8,400,,,
break_continue,html.Screen,4_123_2,2023-09-06T19:39:46.027Z,,0,,,NaN,,,,,,false,,,,882311.8000001907,882311.6999998093,,882311.6000003815,,882311.912,8,400,,,
sequence,flow.Sequence,4_123,2023-09-06T19:39:46.027Z,,0,,,6167.547999809263,completion,,,,,false,,,,882312,882311.6999998093,876127.483,876143.1999998093,876144.152,882311.912,8,400,,,
trial,html.Screen,4_124_0,2023-09-06T19:39:56.269Z,,0,3,,10241.688000381459,response,ISIC_0029281.JPG,8,ISIC_0012047.JPG,ISIC_0012047.JPG,false,0,keypress(z),500,892553.9000005722,892553.6000003815,882295.243,882312.1000003815,882311.912,892563.6,8,400,25,,ISIC_0029281.JPG
break,html.Screen,4_124_1,2023-09-06T19:39:56.270Z,,0,,,NaN,,,,,,false,,,,892554.6999998093,892554.4000005722,,892554.1000003815,,892563.6,8,400,,,
break_continue,html.Screen,4_124_2,2023-09-06T19:39:56.270Z,,0,,,NaN,,,,,,false,,,,892555.1000003815,892554.9000005722,,892554.8000001907,,892563.6,8,400,,,
sequence,flow.Sequence,4_124,2023-09-06T19:39:56.270Z,,0,,,10242.988000572193,completion,,,,,false,,,,892555.3000001907,892554.9000005722,882295.243,882312.1000003815,882311.912,892563.6,8,400,,,
trial,html.Screen,4_125_0,2023-09-06T19:40:01.217Z,,0,3,,4938.599999809288,response,ISIC_5980439.JPG,6,ISIC_0028616.JPG,ISIC_5980439.JPG,false,1,keypress(m),500,897502.5,897502.1999998093,892546.931,892555.6000003815,892563.6,897514.293,8,400,26,,ISIC_0028616.JPG
break,html.Screen,4_125_1,2023-09-06T19:40:01.218Z,,0,,,NaN,,,,,,false,,,,897503,897502.9000005722,,897502.6999998093,,897514.293,8,400,,,
break_continue,html.Screen,4_125_2,2023-09-06T19:40:01.218Z,,0,,,NaN,,,,,,false,,,,897503.3000001907,897503.3000001907,,897503.1999998093,,897514.293,8,400,,,
