sender,sender_type,sender_id,timestamp,meta,,blockNo,condition,duration,ended_on,img_left,img_reveal,img_right,loser,practice,response,response_action,selection_duration,time_commit,time_end,time_render,time_run,time_show,time_switch,total_blocks,total_trials,trialNo,url,winner
informed_consent,html.Screen,0,2023-11-01T00:21:36.271Z,"{""labjs_version"":""20.2.4"",""labjs_build"":{""flavor"":""production"",""commit"":""f5b4a49f956347addd546a832a3327688c2c0fef""},""location"":""https://run.pavlovia.org/MurrayBennett/melanoma-2afc/?participant=67328&platform=sona"",""userAgent"":""Mozilla/5.0 (Macintosh; Intel Mac OS X 10_15_7) AppleWebKit/537.36 (KHTML, like Gecko) Chrome/117.0.0.0 Safari/537.36"",""platform"":""MacIntel"",""language"":""en-US"",""locale"":""en-US"",""timeZone"":""America/Chicago"",""timezoneOffset"":300,""screen_width"":1440,""screen_height"":900,""scroll_width"":1440,""scroll_height"":767,""window_innerWidth"":1440,""window_innerHeight"":815,""devicePixelRatio"":2}",,,,9590.114,response,,,,,,consent,click button,,12252.59999999404,12233.5,2626.72,2632.2999999821186,2643.386,12276.597,,,,"{""participant"":""67328"",""platform"":""sona""}",
Welcome,html.Screen,1,2023-11-01T00:22:00.210Z,,,,colourful,23892.403,response,,,,,,continue,click button,,36191.59999999404,36169,12259.931,12252.799999982119,12276.597,36209.608,,,,,
trial,html.Screen,2_0_0,2023-11-01T00:22:09.451Z,,0,0,,9221.99199999404,response,ISIC_0025593.JPG,,ISIC_0063388.JPG,ISIC_0063388.JPG,true,0,keypress(z),500,45432.09999999404,45431.59999999404,36192.942,36192.40000000596,36209.608,45442.837,1,6,1,,ISIC_0025593.JPG
sequence,flow.Sequence,2_0,2023-11-01T00:22:09.452Z,,0,,,9221.99199999404,completion,,,,,true,,,,45432.59999999404,45431.59999999404,36192.942,36192.40000000596,36209.608,45442.837,1,6,,,
trial,html.Screen,2_1_0,2023-11-01T00:22:15.040Z,,0,0,,5577.962999982119,response,ISIC_1309015.JPG,,ISIC_0028178.JPG,ISIC_1309015.JPG,true,1,keypress(m),500,51021.09999999404,51020.79999998212,45426.171,45432.69999998808,45442.837,51025.947,1,6,2,,ISIC_0028178.JPG
sequence,flow.Sequence,2_1,2023-11-01T00:22:15.041Z,,0,,,5577.962999982119,completion,,,,,true,,,,51021.5,51020.79999998212,45426.171,45432.69999998808,45442.837,51025.947,1,6,,,
trial,html.Screen,2_2_0,2023-11-01T00:22:24.368Z,,0,0,,9322.65299999404,response,ISIC_3314853.JPG,,ISIC_0031128.JPG,ISIC_0031128.JPG,true,0,keypress(z),500,60349,60348.59999999404,51009.281,51021.69999998808,51025.947,60359.296,1,6,3,,ISIC_3314853.JPG
sequence,flow.Sequence,2_2,2023-11-01T00:22:24.369Z,,0,,,9322.65299999404,completion,,,,,true,,,,60349.40000000596,60348.59999999404,51009.281,51021.69999998808,51025.947,60359.296,1,6,,,
trial,html.Screen,2_3_0,2023-11-01T00:22:34.544Z,,0,0,,10164.303999994037,response,ISIC_8980141.JPG,,ISIC_0031612.JPG,ISIC_8980141.JPG,true,1,keypress(m),500,70524,70523.59999999404,60342.63,60349.69999998808,60359.296,70542.489,1,6,4,,ISIC_0031612.JPG
sequence,flow.Sequence,2_3,2023-11-01T00:22:34.545Z,,0,,,10164.303999994037,completion,,,,,true,,,,70524.69999998808,70523.59999999404,60342.63,60349.59999999404,60359.296,70542.489,1,6,,,
trial,html.Screen,2_4_0,2023-11-01T00:22:39.067Z,,0,0,,4504.710999988078,response,ISIC_9721604.JPG,,ISIC_1197737.JPG,ISIC_9721604.JPG,true,1,keypress(m),500,75047.5,75047.19999998808,70525.823,70525,70542.489,75058.975,1,6,5,,ISIC_1197737.JPG
sequence,flow.Sequence,2_4,2023-11-01T00:22:39.068Z,,0,,,4504.710999988078,completion,,,,,true,,,,75048,75047.19999998808,70525.823,70524.90000000596,70542.489,75058.975,1,6,,,
trial,html.Screen,2_5_0,2023-11-01T00:22:43.071Z,,0,0,,3991.324999982113,response,ISIC_0010681.JPG,,ISIC_0025346.JPG,ISIC_0010681.JPG,true,1,keypress(m),500,79050.69999998808,79050.29999998212,75042.309,75048.19999998808,75058.975,79058.815,1,6,6,,ISIC_0025346.JPG
sequence,flow.Sequence,2_5,2023-11-01T00:22:43.071Z,,0,,,3991.324999982113,completion,,,,,true,,,,79051,79050.29999998212,75042.309,75048.09999999404,75058.975,79058.815,1,6,,,
loop,flow.Loop,2,2023-11-01T00:22:43.071Z,,,,,42840.69199998212,completion,,,,,true,,,,79051.29999998212,79050.29999998212,36192.942,36192.29999998212,36209.608,79058.815,1,6,,,
exp_instructions,html.Screen,3,2023-11-01T00:22:51.376Z,,,,,8288.484999982116,response,,,,,,continue,keypress(Space),,87355.5,87347.29999998212,79042.149,79051.5,79058.815,87358.748,,,,,
trial,html.Screen,4_0_0,2023-11-01T00:22:55.621Z,,0,1,,4241.051999982112,response,ISIC_8935085.JPG,8,ISIC_2506200.JPG,ISIC_2506200.JPG,false,0,keypress(z),500,91600,91599.79999998212,87342.082,87355.59999999404,87358.748,91608.864,8,400,1,,ISIC_8935085.JPG
break,html.Screen,4_0_1,2023-11-01T00:22:55.622Z,,0,,,NaN,,,,,,false,,,,91601.40000000596,91601.09999999404,,91600.29999998212,,91608.864,8,400,,,
break_continue,html.Screen,4_0_2,2023-11-01T00:22:55.622Z,,0,,,NaN,,,,,,false,,,,91601.90000000596,91601.79999998212,,91601.59999999404,,91608.864,8,400,,,
sequence,flow.Sequence,4_0,2023-11-01T00:22:55.623Z,,0,,,4243.051999982112,completion,,,,,false,,,,91602.09999999404,91601.79999998212,87342.082,87355.59999999404,87358.748,91608.864,8,400,,,
trial,html.Screen,4_1_0,2023-11-01T00:23:01.194Z,,0,1,,5564.036000005959,response,ISIC_1343302.JPG,7,ISIC_2690597.JPG,ISIC_1343302.JPG,false,1,keypress(m),500,97173.19999998808,97172.90000000596,91592.198,91602.29999998212,91608.864,97175.308,8,400,2,,ISIC_2690597.JPG
break,html.Screen,4_1_1,2023-11-01T00:23:01.195Z,,0,,,NaN,,,,,,false,,,,97174.29999998212,97174,,97173.40000000596,,97175.308,8,400,,,
break_continue,html.Screen,4_1_2,2023-11-01T00:23:01.195Z,,0,,,NaN,,,,,,false,,,,97174.69999998808,97174.59999999404,,97174.5,,97175.308,8,400,,,
sequence,flow.Sequence,4_1,2023-11-01T00:23:01.196Z,,0,,,5565.735999994038,completion,,,,,false,,,,97174.90000000596,97174.59999999404,91592.198,91602.19999998808,91608.864,97175.308,8,400,,,
trial,html.Screen,4_2_0,2023-11-01T00:23:04.639Z,,0,1,,3442.6919999999955,response,ISIC_0013427.JPG,8,ISIC_8423326.JPG,ISIC_8423326.JPG,false,0,keypress(z),500,100618.19999998808,100618,97158.642,97175.09999999404,97175.308,100625.17,8,400,3,,ISIC_0013427.JPG
break,html.Screen,4_2_1,2023-11-01T00:23:04.640Z,,0,,,NaN,,,,,,false,,,,100619.29999998212,100619,,100618.40000000596,,100625.17,8,400,,,
break_continue,html.Screen,4_2_2,2023-11-01T00:23:04.640Z,,0,,,NaN,,,,,,false,,,,100619.59999999404,100619.59999999404,,100619.40000000596,,100625.17,8,400,,,
sequence,flow.Sequence,4_2,2023-11-01T00:23:04.641Z,,0,,,3444.291999994035,completion,,,,,false,,,,100619.90000000596,100619.59999999404,97158.642,97175.09999999404,97175.308,100625.17,8,400,,,
trial,html.Screen,4_3_0,2023-11-01T00:23:07.719Z,,0,1,,3072.730000005962,response,ISIC_0059884.JPG,5,ISIC_5425721.JPG,ISIC_5425721.JPG,false,0,keypress(z),500,103698.09999999404,103697.90000000596,100608.504,100620,100625.17,103708.651,8,400,4,,ISIC_0059884.JPG
break,html.Screen,4_3_1,2023-11-01T00:23:07.720Z,,0,,,NaN,,,,,,false,,,,103699.09999999404,103698.79999998212,,103698.29999998212,,103708.651,8,400,,,
break_continue,html.Screen,4_3_2,2023-11-01T00:23:07.720Z,,0,,,NaN,,,,,,false,,,,103699.40000000596,103699.40000000596,,103699.19999998808,,103708.651,8,400,,,
sequence,flow.Sequence,4_3,2023-11-01T00:23:07.720Z,,0,,,3074.230000005962,completion,,,,,false,,,,103699.59999999404,103699.40000000596,100608.504,100620,100625.17,103708.651,8,400,,,
trial,html.Screen,4_4_0,2023-11-01T00:23:12.315Z,,0,1,,4585.249000005962,response,ISIC_1519891.JPG,7,ISIC_4570724.JPG,ISIC_1519891.JPG,false,1,keypress(m),500,108294.09999999404,108293.90000000596,103691.985,103699.79999998212,103708.651,108308.467,8,400,5,,ISIC_4570724.JPG
break,html.Screen,4_4_1,2023-11-01T00:23:12.316Z,,0,,,NaN,,,,,,false,,,,108295.19999998808,108294.90000000596,,108294.29999998212,,108308.467,8,400,,,
break_continue,html.Screen,4_4_2,2023-11-01T00:23:12.317Z,,0,,,NaN,,,,,,false,,,,108295.5,108295.5,,108295.29999998212,,108308.467,8,400,,,
sequence,flow.Sequence,4_4,2023-11-01T00:23:12.317Z,,0,,,4586.849000000002,completion,,,,,false,,,,108295.69999998808,108295.5,103691.985,103699.69999998808,103708.651,108308.467,8,400,,,
trial,html.Screen,4_5_0,2023-11-01T00:23:15.648Z,,0,1,,3317.8329999821144,response,ISIC_5029636.JPG,4,ISIC_1956354.JPG,ISIC_1956354.JPG,false,0,keypress(z),500,111626.5,111626.29999998212,108291.801,108295.79999998212,108308.467,111641.667,8,400,6,,ISIC_5029636.JPG
break,html.Screen,4_5_1,2023-11-01T00:23:15.649Z,,0,,,NaN,,,,,,false,,,,111627.59999999404,111627.29999998212,,111626.69999998808,,111641.667,8,400,,,
break_continue,html.Screen,4_5_2,2023-11-01T00:23:15.649Z,,0,,,NaN,,,,,,false,,,,111628,111627.79999998212,,111627.69999998808,,111641.667,8,400,,,
sequence,flow.Sequence,4_5,2023-11-01T00:23:15.649Z,,0,,,3319.3329999821144,completion,,,,,false,,,,111628.19999998808,111627.79999998212,108291.801,108295.79999998212,108308.467,111641.667,8,400,,,
trial,html.Screen,4_6_0,2023-11-01T00:23:19.317Z,,0,1,,3654.1329999821173,response,ISIC_0033779.JPG,8,ISIC_2979268.JPG,ISIC_2979268.JPG,false,0,keypress(z),500,115296,115295.79999998212,111625.001,111628.29999998212,111641.667,115308.454,8,400,7,,ISIC_0033779.JPG
break,html.Screen,4_6_1,2023-11-01T00:23:19.318Z,,0,,,NaN,,,,,,false,,,,115297.19999998808,115296.90000000596,,115296.40000000596,,115308.454,8,400,,,
break_continue,html.Screen,4_6_2,2023-11-01T00:23:19.319Z,,0,,,NaN,,,,,,false,,,,115297.69999998808,115297.59999999404,,115297.29999998212,,115308.454,8,400,,,
sequence,flow.Sequence,4_6,2023-11-01T00:23:19.319Z,,0,,,3655.9329999940383,completion,,,,,false,,,,115297.90000000596,115297.59999999404,111625.001,111628.19999998808,111641.667,115308.454,8,400,,,
trial,html.Screen,4_7_0,2023-11-01T00:23:25.867Z,,0,1,,6536.546000000002,response,ISIC_0013917.JPG,7,ISIC_6362735.JPG,ISIC_6362735.JPG,false,0,keypress(z),500,121845.19999998808,121845,115291.788,115298,115308.454,121858.192,8,400,8,,ISIC_0013917.JPG
break,html.Screen,4_7_1,2023-11-01T00:23:25.867Z,,0,,,NaN,,,,,,false,,,,121845.69999998808,121845.59999999404,,121845.29999998212,,121858.192,8,400,,,
break_continue,html.Screen,4_7_2,2023-11-01T00:23:25.867Z,,0,,,NaN,,,,,,false,,,,121845.90000000596,121845.79999998212,,121845.79999998212,,121858.192,8,400,,,
sequence,flow.Sequence,4_7,2023-11-01T00:23:25.867Z,,0,,,6537.345999982121,completion,,,,,false,,,,121846,121845.79999998212,115291.788,115298,115308.454,121858.192,8,400,,,
trial,html.Screen,4_8_0,2023-11-01T00:23:29.581Z,,0,1,,3701.407999994044,response,ISIC_1020369.JPG,6,ISIC_5362038.JPG,ISIC_5362038.JPG,false,0,keypress(z),500,125559.90000000596,125559.59999999404,121841.526,121846.09999999404,121858.192,125574.977,8,400,9,,ISIC_1020369.JPG
break,html.Screen,4_8_1,2023-11-01T00:23:29.582Z,,0,,,NaN,,,,,,false,,,,125560.90000000596,125560.59999999404,,125560.09999999404,,125574.977,8,400,,,
break_continue,html.Screen,4_8_2,2023-11-01T00:23:29.583Z,,0,,,NaN,,,,,,false,,,,125561.29999998212,125561.19999998808,,125561,,125574.977,8,400,,,
sequence,flow.Sequence,4_8,2023-11-01T00:23:29.583Z,,0,,,3703.0079999880836,completion,,,,,false,,,,125561.5,125561.19999998808,121841.526,121846.09999999404,121858.192,125574.977,8,400,,,
trial,html.Screen,4_9_0,2023-11-01T00:23:32.771Z,,0,1,,3173.8229999821197,response,ISIC_8814612.JPG,5,ISIC_9655520.JPG,ISIC_8814612.JPG,false,1,keypress(m),500,128749.09999999404,128748.79999998212,125558.311,125561.59999999404,125574.977,128758.183,8,400,10,,ISIC_9655520.JPG
break,html.Screen,4_9_1,2023-11-01T00:23:32.772Z,,0,,,NaN,,,,,,false,,,,128750.29999998212,128750,,128749.5,,128758.183,8,400,,,
break_continue,html.Screen,4_9_2,2023-11-01T00:23:32.772Z,,0,,,NaN,,,,,,false,,,,128750.59999999404,128750.59999999404,,128750.40000000596,,128758.183,8,400,,,
sequence,flow.Sequence,4_9,2023-11-01T00:23:32.772Z,,0,,,3175.6229999940406,completion,,,,,false,,,,128750.90000000596,128750.59999999404,125558.311,125561.59999999404,125574.977,128758.183,8,400,,,
trial,html.Screen,4_10_0,2023-11-01T00:23:36.471Z,,0,1,,3691.217000005956,response,ISIC_8492957.JPG,5,ISIC_0064874.JPG,ISIC_0064874.JPG,false,0,keypress(z),500,132449.59999999404,132449.40000000596,128741.517,128751,128758.183,132458.299,8,400,11,,ISIC_8492957.JPG
break,html.Screen,4_10_1,2023-11-01T00:23:36.473Z,,0,,,NaN,,,,,,false,,,,132450.79999998212,132450.59999999404,,132450,,132458.299,8,400,,,
break_continue,html.Screen,4_10_2,2023-11-01T00:23:36.473Z,,0,,,NaN,,,,,,false,,,,132451.29999998212,132451.09999999404,,132451,,132458.299,8,400,,,
sequence,flow.Sequence,4_10,2023-11-01T00:23:36.473Z,,0,,,3692.916999994035,completion,,,,,false,,,,132451.40000000596,132451.09999999404,128741.517,128750.90000000596,128758.183,132458.299,8,400,,,
trial,html.Screen,4_11_0,2023-11-01T00:23:39.422Z,,0,1,,2941.201000000001,response,ISIC_9407667.JPG,7,ISIC_0064874.JPG,ISIC_0064874.JPG,false,0,keypress(z),500,135399.79999998212,135399.5,132441.633,132451.59999999404,132458.299,135408.181,8,400,12,,ISIC_9407667.JPG
break,html.Screen,4_11_1,2023-11-01T00:23:39.423Z,,0,,,NaN,,,,,,false,,,,135400.79999998212,135400.5,,135400,,135408.181,8,400,,,
break_continue,html.Screen,4_11_2,2023-11-01T00:23:39.423Z,,0,,,NaN,,,,,,false,,,,135401.19999998808,135401.09999999404,,135400.90000000596,,135408.181,8,400,,,
sequence,flow.Sequence,4_11,2023-11-01T00:23:39.423Z,,0,,,2942.8009999940405,completion,,,,,false,,,,135401.29999998212,135401.09999999404,132441.633,132451.59999999404,132458.299,135408.181,8,400,,,
trial,html.Screen,4_12_0,2023-11-01T00:23:46.519Z,,0,1,,7088.518999988068,response,ISIC_6888402.JPG,6,ISIC_0057988.JPG,ISIC_0057988.JPG,false,0,keypress(z),500,142496.90000000596,142496.69999998808,135391.515,135401.5,135408.181,142508.16,8,400,13,,ISIC_6888402.JPG
break,html.Screen,4_12_1,2023-11-01T00:23:46.520Z,,0,,,NaN,,,,,,false,,,,142498.09999999404,142497.69999998808,,142497.19999998808,,142508.16,8,400,,,
break_continue,html.Screen,4_12_2,2023-11-01T00:23:46.520Z,,0,,,NaN,,,,,,false,,,,142498.40000000596,142498.29999998212,,142498.09999999404,,142508.16,8,400,,,
sequence,flow.Sequence,4_12,2023-11-01T00:23:46.521Z,,0,,,7090.118999982107,completion,,,,,false,,,,142498.59999999404,142498.29999998212,135391.515,135401.5,135408.181,142508.16,8,400,,,
trial,html.Screen,4_13_0,2023-11-01T00:23:52.332Z,,0,1,,5801.639999982115,response,ISIC_0015180.JPG,7,ISIC_2776906.JPG,ISIC_2776906.JPG,false,0,keypress(z),500,148310.19999998808,148309.79999998212,142491.494,142498.69999998808,142508.16,148324.594,8,400,14,,ISIC_0015180.JPG
break,html.Screen,4_13_1,2023-11-01T00:23:52.333Z,,0,,,NaN,,,,,,false,,,,148311.29999998212,148311.09999999404,,148310.40000000596,,148324.594,8,400,,,
break_continue,html.Screen,4_13_2,2023-11-01T00:23:52.334Z,,0,,,NaN,,,,,,false,,,,148311.69999998808,148311.59999999404,,148311.5,,148324.594,8,400,,,
sequence,flow.Sequence,4_13,2023-11-01T00:23:52.334Z,,0,,,5803.439999994036,completion,,,,,false,,,,148311.90000000596,148311.59999999404,142491.494,142498.69999998808,142508.16,148324.594,8,400,,,
trial,html.Screen,4_14_0,2023-11-01T00:23:55.030Z,,0,1,,2682.5059999940277,response,ISIC_2152875.JPG,8,ISIC_0032774.JPG,ISIC_2152875.JPG,false,1,keypress(m),500,151007.29999998212,151007.09999999404,148307.928,148312.09999999404,148324.594,151024.486,8,400,15,,ISIC_0032774.JPG
break,html.Screen,4_14_1,2023-11-01T00:23:55.031Z,,0,,,NaN,,,,,,false,,,,151008.40000000596,151008.19999998808,,151007.5,,151024.486,8,400,,,
break_continue,html.Screen,4_14_2,2023-11-01T00:23:55.031Z,,0,,,NaN,,,,,,false,,,,151008.79999998212,151008.69999998808,,151008.5,,151024.486,8,400,,,
sequence,flow.Sequence,4_14,2023-11-01T00:23:55.031Z,,0,,,2684.105999988067,completion,,,,,false,,,,151009,151008.69999998808,148307.928,148312,148324.594,151024.486,8,400,,,
trial,html.Screen,4_15_0,2023-11-01T00:23:59.611Z,,0,1,,4564.013999999996,response,ISIC_0946923.JPG,6,ISIC_7746479.JPG,ISIC_0946923.JPG,false,1,keypress(m),500,155588.79999998212,155588.5,151007.82,151009.19999998808,151024.486,155591.232,8,400,16,,ISIC_7746479.JPG
break,html.Screen,4_15_1,2023-11-01T00:23:59.612Z,,0,,,NaN,,,,,,false,,,,155589.90000000596,155589.69999998808,,155589.09999999404,,155591.232,8,400,,,
break_continue,html.Screen,4_15_2,2023-11-01T00:23:59.613Z,,0,,,NaN,,,,,,false,,,,155590.79999998212,155590.59999999404,,155590.19999998808,,155591.232,8,400,,,
sequence,flow.Sequence,4_15,2023-11-01T00:23:59.613Z,,0,,,4566.113999994035,completion,,,,,false,,,,155591,155590.59999999404,151007.82,151009,151024.486,155591.232,8,400,,,
trial,html.Screen,4_16_0,2023-11-01T00:24:02.337Z,,0,1,,2722.8679999940505,response,ISIC_0029881.JPG,6,ISIC_0011403.JPG,ISIC_0011403.JPG,false,0,keypress(z),500,158314.29999998212,158314.09999999404,155574.566,155591.19999998808,155591.232,158341.122,8,400,17,,ISIC_0029881.JPG
break,html.Screen,4_16_1,2023-11-01T00:24:02.338Z,,0,,,NaN,,,,,,false,,,,158315.19999998808,158315,,158314.5,,158341.122,8,400,,,
break_continue,html.Screen,4_16_2,2023-11-01T00:24:02.338Z,,0,,,NaN,,,,,,false,,,,158315.5,158315.40000000596,,158315.29999998212,,158341.122,8,400,,,
sequence,flow.Sequence,4_16,2023-11-01T00:24:02.338Z,,0,,,2724.1680000059714,completion,,,,,false,,,,158315.79999998212,158315.40000000596,155574.566,155591.09999999404,155591.232,158341.122,8,400,,,
trial,html.Screen,4_17_0,2023-11-01T00:24:06.886Z,,0,1,,4521.877999999997,response,ISIC_0014157.JPG,6,ISIC_0268701.JPG,ISIC_0268701.JPG,false,0,keypress(z),500,162863.29999998212,162863,158324.456,158315.90000000596,158341.122,162874.545,8,400,18,,ISIC_0014157.JPG
break,html.Screen,4_17_1,2023-11-01T00:24:06.887Z,,0,,,NaN,,,,,,false,,,,162864.40000000596,162864.09999999404,,162863.5,,162874.545,8,400,,,
break_continue,html.Screen,4_17_2,2023-11-01T00:24:06.887Z,,0,,,NaN,,,,,,false,,,,162864.79999998212,162864.59999999404,,162864.59999999404,,162874.545,8,400,,,
sequence,flow.Sequence,4_17,2023-11-01T00:24:06.888Z,,0,,,4523.4779999940365,completion,,,,,false,,,,162865,162864.59999999404,158324.456,158315.79999998212,158341.122,162874.545,8,400,,,
trial,html.Screen,4_18_0,2023-11-01T00:24:10.427Z,,0,1,,3529.954999999987,response,ISIC_0234248.JPG,7,ISIC_0012369.JPG,ISIC_0234248.JPG,false,1,keypress(m),500,166404.79999998212,166404.5,162857.879,162865.19999998808,162874.545,166407.737,8,400,19,,ISIC_0012369.JPG
break,html.Screen,4_18_1,2023-11-01T00:24:10.428Z,,0,,,NaN,,,,,,false,,,,166405.79999998212,166405.5,,166405,,166407.737,8,400,,,
break_continue,html.Screen,4_18_2,2023-11-01T00:24:10.429Z,,0,,,NaN,,,,,,false,,,,166406.19999998808,166406.09999999404,,166405.90000000596,,166407.737,8,400,,,
sequence,flow.Sequence,4_18,2023-11-01T00:24:10.429Z,,0,,,3531.5549999940267,completion,,,,,false,,,,166406.40000000596,166406.09999999404,162857.879,162865.09999999404,162874.545,166407.737,8,400,,,
trial,html.Screen,4_19_0,2023-11-01T00:24:14.469Z,,0,1,,4038.4629999880854,response,ISIC_5490352.JPG,8,ISIC_7555812.JPG,ISIC_5490352.JPG,false,1,keypress(m),500,170446.40000000596,170446.19999998808,166391.071,166406.5,166407.737,170457.575,8,400,20,,ISIC_7555812.JPG
break,html.Screen,4_19_1,2023-11-01T00:24:14.470Z,,0,,,NaN,,,,,,false,,,,170447.5,170447.29999998212,,170446.69999998808,,170457.575,8,400,,,
break_continue,html.Screen,4_19_2,2023-11-01T00:24:14.471Z,,0,,,NaN,,,,,,false,,,,170448,170447.90000000596,,170447.69999998808,,170457.575,8,400,,,
sequence,flow.Sequence,4_19,2023-11-01T00:24:14.471Z,,0,,,4040.1630000059668,completion,,,,,false,,,,170448.09999999404,170447.90000000596,166391.071,166406.5,166407.737,170457.575,8,400,,,
trial,html.Screen,4_20_0,2023-11-01T00:24:17.346Z,,0,1,,2864.724999982107,response,ISIC_1777398.JPG,5,ISIC_9363106.JPG,ISIC_1777398.JPG,false,1,keypress(m),500,173322.59999999404,173322.29999998212,170440.909,170448.29999998212,170457.575,173324.397,8,400,21,,ISIC_9363106.JPG
break,html.Screen,4_20_1,2023-11-01T00:24:17.347Z,,0,,,NaN,,,,,,false,,,,173323.69999998808,173323.40000000596,,173322.79999998212,,173324.397,8,400,,,
break_continue,html.Screen,4_20_2,2023-11-01T00:24:17.347Z,,0,,,NaN,,,,,,false,,,,173324.09999999404,173324,,173323.79999998212,,173324.397,8,400,,,
sequence,flow.Sequence,4_20,2023-11-01T00:24:17.347Z,,0,,,2866.4249999999884,completion,,,,,false,,,,173324.29999998212,173324,170440.909,170448.19999998808,170457.575,173324.397,8,400,,,
trial,html.Screen,4_21_0,2023-11-01T00:24:20.279Z,,0,1,,2931.5030000059633,response,ISIC_8207162.JPG,7,ISIC_4132082.JPG,ISIC_4132082.JPG,false,0,keypress(z),500,176256.19999998808,176255.90000000596,173307.731,173324.40000000596,173324.397,176274.279,8,400,22,,ISIC_8207162.JPG
break,html.Screen,4_21_1,2023-11-01T00:24:20.280Z,,0,,,NaN,,,,,,false,,,,176257.09999999404,176256.90000000596,,176256.5,,176274.279,8,400,,,
break_continue,html.Screen,4_21_2,2023-11-01T00:24:20.281Z,,0,,,NaN,,,,,,false,,,,176257.59999999404,176257.40000000596,,176257.29999998212,,176274.279,8,400,,,
sequence,flow.Sequence,4_21,2023-11-01T00:24:20.281Z,,0,,,2933.0030000059633,completion,,,,,false,,,,176257.90000000596,176257.40000000596,173307.731,173324.40000000596,173324.397,176274.279,8,400,,,
trial,html.Screen,4_22_0,2023-11-01T00:24:23.038Z,,0,1,,2740.32099999403,response,ISIC_0026103.JPG,7,ISIC_1851112.JPG,ISIC_1851112.JPG,false,0,keypress(z),500,179014.90000000596,179014.59999999404,176257.613,176258.19999998808,176274.279,179024.169,8,400,23,,ISIC_0026103.JPG
break,html.Screen,4_22_1,2023-11-01T00:24:23.039Z,,0,,,NaN,,,,,,false,,,,179016,179015.69999998808,,179015.19999998808,,179024.169,8,400,,,
break_continue,html.Screen,4_22_2,2023-11-01T00:24:23.039Z,,0,,,NaN,,,,,,false,,,,179016.29999998212,179016.19999998808,,179016,,179024.169,8,400,,,
sequence,flow.Sequence,4_22,2023-11-01T00:24:23.040Z,,0,,,2741.9209999880695,completion,,,,,false,,,,179016.5,179016.19999998808,176257.613,176258.09999999404,176274.279,179024.169,8,400,,,
trial,html.Screen,4_23_0,2023-11-01T00:24:26.291Z,,0,1,,3243.630999982124,response,ISIC_1534391.JPG,8,ISIC_1225511.JPG,ISIC_1534391.JPG,false,1,keypress(m),500,182268.09999999404,182267.79999998212,179007.503,179016.69999998808,179024.169,182274.039,8,400,24,,ISIC_1225511.JPG
break,html.Screen,4_23_1,2023-11-01T00:24:26.293Z,,0,,,NaN,,,,,,false,,,,182270.19999998808,182270,,182269.59999999404,,182274.039,8,400,,,
break_continue,html.Screen,4_23_2,2023-11-01T00:24:26.294Z,,0,,,NaN,,,,,,false,,,,182270.69999998808,182270.5,,182270.5,,182274.039,8,400,,,
sequence,flow.Sequence,4_23,2023-11-01T00:24:26.294Z,,0,,,3246.3310000000056,completion,,,,,false,,,,182270.90000000596,182270.5,179007.503,179016.59999999404,179024.169,182274.039,8,400,,,
trial,html.Screen,4_24_0,2023-11-01T00:24:29.471Z,,0,1,,3173.260999982129,response,ISIC_9182285.JPG,6,ISIC_0026558.JPG,ISIC_9182285.JPG,false,1,keypress(m),500,185447.5,185447.29999998212,182257.373,182271,182274.039,185457.518,8,400,25,,ISIC_0026558.JPG
break,html.Screen,4_24_1,2023-11-01T00:24:29.472Z,,0,,,NaN,,,,,,false,,,,185448.5,185448.19999998808,,185447.69999998808,,185457.518,8,400,,,
break_continue,html.Screen,4_24_2,2023-11-01T00:24:29.472Z,,0,,,NaN,,,,,,false,,,,185449,185448.79999998212,,185448.59999999404,,185457.518,8,400,,,
sequence,flow.Sequence,4_24,2023-11-01T00:24:29.472Z,,0,,,3174.760999982129,completion,,,,,false,,,,185449.09999999404,185448.79999998212,182257.373,182270.90000000596,182274.039,185457.518,8,400,,,
trial,html.Screen,4_25_0,2023-11-01T00:24:32.342Z,,0,1,,2861.2819999821077,response,ISIC_5833015.JPG,7,ISIC_3663705.JPG,ISIC_5833015.JPG,false,1,keypress(m),500,188319.09999999404,188318.79999998212,185440.852,185449.19999998808,185457.518,188324.07,8,400,26,,ISIC_3663705.JPG
break,html.Screen,4_25_1,2023-11-01T00:24:32.343Z,,0,,,NaN,,,,,,false,,,,188320.09999999404,188319.90000000596,,188319.29999998212,,188324.07,8,400,,,
break_continue,html.Screen,4_25_2,2023-11-01T00:24:32.344Z,,0,,,NaN,,,,,,false,,,,188320.5,188320.40000000596,,188320.19999998808,,188324.07,8,400,,,
sequence,flow.Sequence,4_25,2023-11-01T00:24:32.344Z,,0,,,2862.8820000059495,completion,,,,,false,,,,188320.69999998808,188320.40000000596,185440.852,185449.19999998808,185457.518,188324.07,8,400,,,
trial,html.Screen,4_26_0,2023-11-01T00:24:36.071Z,,0,1,,3722.8300000059535,response,ISIC_0063655.JPG,4,ISIC_0057307.JPG,ISIC_0063655.JPG,false,1,keypress(m),500,192047.09999999404,192046.90000000596,188307.404,188320.79999998212,188324.07,192057.254,8,400,27,,ISIC_0057307.JPG
break,html.Screen,4_26_1,2023-11-01T00:24:36.072Z,,0,,,NaN,,,,,,false,,,,192048.09999999404,192047.79999998212,,192047.29999998212,,192057.254,8,400,,,
break_continue,html.Screen,4_26_2,2023-11-01T00:24:36.072Z,,0,,,NaN,,,,,,false,,,,192048.59999999404,192048.40000000596,,192048.29999998212,,192057.254,8,400,,,
sequence,flow.Sequence,4_26,2023-11-01T00:24:36.072Z,,0,,,3724.3300000059535,completion,,,,,false,,,,192048.69999998808,192048.40000000596,188307.404,188320.69999998808,188324.07,192057.254,8,400,,,
trial,html.Screen,4_27_0,2023-11-01T00:24:39.584Z,,0,1,,3502.445999988093,response,ISIC_0000484.JPG,7,ISIC_0014982.JPG,ISIC_0000484.JPG,false,1,keypress(m),500,195560,195559.69999998808,192040.588,192048.79999998212,192057.254,195574.053,8,400,28,,ISIC_0014982.JPG
break,html.Screen,4_27_1,2023-11-01T00:24:39.585Z,,0,,,NaN,,,,,,false,,,,195561.5,195561.19999998808,,195560.19999998808,,195574.053,8,400,,,
break_continue,html.Screen,4_27_2,2023-11-01T00:24:39.585Z,,0,,,NaN,,,,,,false,,,,195561.90000000596,195561.69999998808,,195561.59999999404,,195574.053,8,400,,,
sequence,flow.Sequence,4_27,2023-11-01T00:24:39.586Z,,0,,,3504.445999988093,completion,,,,,false,,,,195562.09999999404,195561.69999998808,192040.588,192048.79999998212,192057.254,195574.053,8,400,,,
trial,html.Screen,4_28_0,2023-11-01T00:24:42.887Z,,0,1,,3289.4469999999856,response,ISIC_0002026.JPG,6,ISIC_0057244.JPG,ISIC_0002026.JPG,false,1,keypress(m),500,198863.69999998808,198863.5,195557.387,195562.19999998808,195574.053,198873.921,8,400,29,,ISIC_0057244.JPG
break,html.Screen,4_28_1,2023-11-01T00:24:42.888Z,,0,,,NaN,,,,,,false,,,,198864.19999998808,198864.09999999404,,198863.79999998212,,198873.921,8,400,,,
break_continue,html.Screen,4_28_2,2023-11-01T00:24:42.888Z,,0,,,NaN,,,,,,false,,,,198864.40000000596,198864.29999998212,,198864.29999998212,,198873.921,8,400,,,
sequence,flow.Sequence,4_28,2023-11-01T00:24:42.888Z,,0,,,3290.246999982104,completion,,,,,false,,,,198864.5,198864.29999998212,195557.387,195562.19999998808,195574.053,198873.921,8,400,,,
trial,html.Screen,4_29_0,2023-11-01T00:24:46.618Z,,0,1,,3720.278999988077,response,ISIC_5569568.JPG,6,ISIC_6839272.JPG,ISIC_5569568.JPG,false,1,keypress(m),500,202594.5,202594.19999998808,198857.255,198864.5,198873.921,202607.105,8,400,30,,ISIC_6839272.JPG
break,html.Screen,4_29_1,2023-11-01T00:24:46.620Z,,0,,,NaN,,,,,,false,,,,202595.90000000596,202595.29999998212,,202594.79999998212,,202607.105,8,400,,,
break_continue,html.Screen,4_29_2,2023-11-01T00:24:46.620Z,,0,,,NaN,,,,,,false,,,,202596.19999998808,202596.19999998808,,202596,,202607.105,8,400,,,
sequence,flow.Sequence,4_29,2023-11-01T00:24:46.620Z,,0,,,3722.278999988077,completion,,,,,false,,,,202596.5,202596.19999998808,198857.255,198864.5,198873.921,202607.105,8,400,,,
trial,html.Screen,4_30_0,2023-11-01T00:24:49.648Z,,0,1,,3016.5949999880686,response,ISIC_5127759.JPG,6,ISIC_4695051.JPG,ISIC_4695051.JPG,false,0,keypress(z),500,205624.09999999404,205623.69999998808,202590.439,202596.5,202607.105,205640.58,8,400,31,,ISIC_5127759.JPG
break,html.Screen,4_30_1,2023-11-01T00:24:49.649Z,,0,,,NaN,,,,,,false,,,,205625,205624.79999998212,,205624.19999998808,,205640.58,8,400,,,
break_continue,html.Screen,4_30_2,2023-11-01T00:24:49.649Z,,0,,,NaN,,,,,,false,,,,205625.40000000596,205625.19999998808,,205625,,205640.58,8,400,,,
sequence,flow.Sequence,4_30,2023-11-01T00:24:49.649Z,,0,,,3018.0949999880686,completion,,,,,false,,,,205625.5,205625.19999998808,202590.439,202596.5,202607.105,205640.58,8,400,,,
trial,html.Screen,4_31_0,2023-11-01T00:24:52.409Z,,0,1,,2744.2199999821314,response,ISIC_0057978.JPG,7,ISIC_3899323.JPG,ISIC_3899323.JPG,false,0,keypress(z),500,208385.09999999404,208384.79999998212,205623.914,205625.69999998808,205640.58,208390.47,8,400,32,,ISIC_0057978.JPG
break,html.Screen,4_31_1,2023-11-01T00:24:52.410Z,,0,,,NaN,,,,,,false,,,,208386.19999998808,208386,,208385.40000000596,,208390.47,8,400,,,
break_continue,html.Screen,4_31_2,2023-11-01T00:24:52.411Z,,0,,,NaN,,,,,,false,,,,208386.69999998808,208386.59999999404,,208386.40000000596,,208390.47,8,400,,,
sequence,flow.Sequence,4_31,2023-11-01T00:24:52.411Z,,0,,,2746.0199999940523,completion,,,,,false,,,,208386.90000000596,208386.59999999404,205623.914,205625.59999999404,205640.58,208390.47,8,400,,,
trial,html.Screen,4_32_0,2023-11-01T00:24:55.631Z,,0,1,,3216.3299999821174,response,ISIC_0029571.JPG,7,ISIC_0030922.JPG,ISIC_0030922.JPG,false,0,keypress(z),500,211607.09999999404,211606.79999998212,208373.804,208387.19999998808,208390.47,211623.674,8,400,33,,ISIC_0029571.JPG
break,html.Screen,4_32_1,2023-11-01T00:24:55.632Z,,0,,,NaN,,,,,,false,,,,211608,211607.79999998212,,211607.29999998212,,211623.674,8,400,,,
break_continue,html.Screen,4_32_2,2023-11-01T00:24:55.632Z,,0,,,NaN,,,,,,false,,,,211608.40000000596,211608.19999998808,,211608.09999999404,,211623.674,8,400,,,
sequence,flow.Sequence,4_32,2023-11-01T00:24:55.633Z,,0,,,3217.729999988078,completion,,,,,false,,,,211608.5,211608.19999998808,208373.804,208387.19999998808,208390.47,211623.674,8,400,,,
trial,html.Screen,4_33_0,2023-11-01T00:24:58.739Z,,0,1,,3090.9259999940405,response,ISIC_3673080.JPG,8,ISIC_7592920.JPG,ISIC_7592920.JPG,false,0,keypress(z),500,214714.90000000596,214714.59999999404,211607.008,211608.69999998808,211623.674,214723.827,8,400,34,,ISIC_3673080.JPG
break,html.Screen,4_33_1,2023-11-01T00:24:58.740Z,,0,,,NaN,,,,,,false,,,,214715.90000000596,214715.59999999404,,214715.09999999404,,214723.827,8,400,,,
break_continue,html.Screen,4_33_2,2023-11-01T00:24:58.740Z,,0,,,NaN,,,,,,false,,,,214716.29999998212,214716.09999999404,,214716,,214723.827,8,400,,,
sequence,flow.Sequence,4_33,2023-11-01T00:24:58.741Z,,0,,,3092.4259999940405,completion,,,,,false,,,,214716.40000000596,214716.09999999404,211607.008,211608.59999999404,211623.674,214723.827,8,400,,,
trial,html.Screen,4_34_0,2023-11-01T00:25:02.272Z,,0,1,,3523.67300000001,response,ISIC_7236842.JPG,7,ISIC_0033103.JPG,ISIC_7236842.JPG,false,1,keypress(m),500,218247.69999998808,218247.5,214707.161,214716.59999999404,214723.827,218273.685,8,400,35,,ISIC_0033103.JPG
break,html.Screen,4_34_1,2023-11-01T00:25:02.273Z,,0,,,NaN,,,,,,false,,,,218248.59999999404,218248.29999998212,,218247.90000000596,,218273.685,8,400,,,
break_continue,html.Screen,4_34_2,2023-11-01T00:25:02.273Z,,0,,,NaN,,,,,,false,,,,218248.90000000596,218248.79999998212,,218248.69999998808,,218273.685,8,400,,,
sequence,flow.Sequence,4_34,2023-11-01T00:25:02.273Z,,0,,,3524.9729999821284,completion,,,,,false,,,,218249.09999999404,218248.79999998212,214707.161,214716.59999999404,214723.827,218273.685,8,400,,,
trial,html.Screen,4_35_0,2023-11-01T00:25:05.096Z,,0,1,,2797.715000005963,response,ISIC_0024739.JPG,7,ISIC_8009880.JPG,ISIC_8009880.JPG,false,0,keypress(z),500,221071.69999998808,221071.40000000596,218257.019,218249.29999998212,218273.685,221073.573,8,400,36,,ISIC_0024739.JPG
break,html.Screen,4_35_1,2023-11-01T00:25:05.097Z,,0,,,NaN,,,,,,false,,,,221072.59999999404,221072.40000000596,,221071.90000000596,,221073.573,8,400,,,
break_continue,html.Screen,4_35_2,2023-11-01T00:25:05.097Z,,0,,,NaN,,,,,,false,,,,221073,221073,,221072.79999998212,,221073.573,8,400,,,
sequence,flow.Sequence,4_35,2023-11-01T00:25:05.098Z,,0,,,2799.3150000000023,completion,,,,,false,,,,221073.19999998808,221073,218257.019,218249.29999998212,218273.685,221073.573,8,400,,,
trial,html.Screen,4_36_0,2023-11-01T00:25:08.350Z,,0,1,,3251.3270000059565,response,ISIC_0013473.JPG,6,ISIC_9957389.JPG,ISIC_9957389.JPG,false,0,keypress(z),500,224325.09999999404,224324.90000000596,221056.907,221074.69999998808,221073.573,224340.109,8,400,37,,ISIC_0013473.JPG
break,html.Screen,4_36_1,2023-11-01T00:25:08.351Z,,0,,,NaN,,,,,,false,,,,224326.19999998808,224325.90000000596,,224325.40000000596,,224340.109,8,400,,,
break_continue,html.Screen,4_36_2,2023-11-01T00:25:08.351Z,,0,,,NaN,,,,,,false,,,,224326.5,224326.40000000596,,224326.29999998212,,224340.109,8,400,,,
sequence,flow.Sequence,4_36,2023-11-01T00:25:08.351Z,,0,,,3252.8270000059565,completion,,,,,false,,,,224326.69999998808,224326.40000000596,221056.907,221074.59999999404,221073.573,224340.109,8,400,,,
trial,html.Screen,4_37_0,2023-11-01T00:25:11.717Z,,0,1,,3351.7910000059637,response,ISIC_0006754.JPG,8,ISIC_5771106.JPG,ISIC_5771106.JPG,false,0,keypress(z),500,227692.19999998808,227691.90000000596,224323.443,224326.90000000596,224340.109,227706.906,8,400,38,,ISIC_0006754.JPG
break,html.Screen,4_37_1,2023-11-01T00:25:11.718Z,,0,,,NaN,,,,,,false,,,,227693.19999998808,227692.90000000596,,227692.40000000596,,227706.906,8,400,,,
break_continue,html.Screen,4_37_2,2023-11-01T00:25:11.718Z,,0,,,NaN,,,,,,false,,,,227693.59999999404,227693.40000000596,,227693.29999998212,,227706.906,8,400,,,
sequence,flow.Sequence,4_37,2023-11-01T00:25:11.718Z,,0,,,3353.2910000059637,completion,,,,,false,,,,227693.79999998212,227693.40000000596,224323.443,224326.79999998212,224340.109,227706.906,8,400,,,
trial,html.Screen,4_38_0,2023-11-01T00:25:14.622Z,,0,1,,2889.8939999821305,response,ISIC_0061825.JPG,6,ISIC_9152137.JPG,ISIC_9152137.JPG,false,0,keypress(z),500,230597.09999999404,230596.79999998212,227690.24,227693.90000000596,227706.906,230606.79,8,400,39,,ISIC_0061825.JPG
break,html.Screen,4_38_1,2023-11-01T00:25:14.623Z,,0,,,NaN,,,,,,false,,,,230598.09999999404,230597.79999998212,,230597.29999998212,,230606.79,8,400,,,
break_continue,html.Screen,4_38_2,2023-11-01T00:25:14.623Z,,0,,,NaN,,,,,,false,,,,230598.5,230598.40000000596,,230598.19999998808,,230606.79,8,400,,,
sequence,flow.Sequence,4_38,2023-11-01T00:25:14.623Z,,0,,,2891.4940000059723,completion,,,,,false,,,,230598.69999998808,230598.40000000596,227690.24,227693.79999998212,227706.906,230606.79,8,400,,,
trial,html.Screen,4_39_0,2023-11-01T00:25:17.763Z,,0,1,,3131.6100000059523,response,ISIC_0033089.JPG,7,ISIC_0027751.JPG,ISIC_0033089.JPG,false,1,keypress(m),500,233738.69999998808,233738.40000000596,230590.124,230598.79999998212,230606.79,233739.998,8,400,40,,ISIC_0027751.JPG
break,html.Screen,4_39_1,2023-11-01T00:25:17.764Z,,0,,,NaN,,,,,,false,,,,233739.69999998808,233739.40000000596,,233739,,233739.998,8,400,,,
break_continue,html.Screen,4_39_2,2023-11-01T00:25:17.765Z,,0,,,NaN,,,,,,false,,,,233740.40000000596,233739.90000000596,,233739.69999998808,,233739.998,8,400,,,
sequence,flow.Sequence,4_39,2023-11-01T00:25:17.765Z,,0,,,3133.1100000059523,completion,,,,,false,,,,233740.59999999404,233739.90000000596,230590.124,230598.69999998808,230606.79,233739.998,8,400,,,
trial,html.Screen,4_40_0,2023-11-01T00:25:20.599Z,,0,1,,2834.402000005968,response,ISIC_0072641.JPG,9,ISIC_2884038.JPG,ISIC_2884038.JPG,false,0,keypress(z),500,236574.59999999404,236574.40000000596,233723.332,233740.69999998808,233739.998,236590.156,8,400,41,,ISIC_0072641.JPG
break,html.Screen,4_40_1,2023-11-01T00:25:20.600Z,,0,,,NaN,,,,,,false,,,,236575.69999998808,236575.40000000596,,236574.90000000596,,236590.156,8,400,,,
break_continue,html.Screen,4_40_2,2023-11-01T00:25:20.601Z,,0,,,NaN,,,,,,false,,,,236576,236575.90000000596,,236575.90000000596,,236590.156,8,400,,,
sequence,flow.Sequence,4_40,2023-11-01T00:25:20.601Z,,0,,,2835.902000005968,completion,,,,,false,,,,236576.19999998808,236575.90000000596,233723.332,233740.69999998808,233739.998,236590.156,8,400,,,
trial,html.Screen,4_41_0,2023-11-01T00:25:28.774Z,,0,1,,8158.244000005972,response,ISIC_0030963.JPG,5,ISIC_9210086.JPG,ISIC_9210086.JPG,false,0,keypress(z),500,244748.69999998808,244748.40000000596,236573.49,236576.40000000596,236590.156,244756.496,8,400,42,,ISIC_0030963.JPG
break,html.Screen,4_41_1,2023-11-01T00:25:28.775Z,,0,,,NaN,,,,,,false,,,,244749.59999999404,244749.40000000596,,244748.90000000596,,244756.496,8,400,,,
break_continue,html.Screen,4_41_2,2023-11-01T00:25:28.775Z,,0,,,NaN,,,,,,false,,,,244750,244749.79999998212,,244749.79999998212,,244756.496,8,400,,,
sequence,flow.Sequence,4_41,2023-11-01T00:25:28.775Z,,0,,,8159.6439999821305,completion,,,,,false,,,,244750.19999998808,244749.79999998212,236573.49,236576.40000000596,236590.156,244756.496,8,400,,,
trial,html.Screen,4_42_0,2023-11-01T00:25:31.691Z,,0,1,,2909.603999994026,response,ISIC_0030666.JPG,7,ISIC_7582818.JPG,ISIC_0030666.JPG,false,1,keypress(m),500,247666.29999998212,247666.09999999404,244739.83,244750.40000000596,244756.496,247673.309,8,400,43,,ISIC_7582818.JPG
break,html.Screen,4_42_1,2023-11-01T00:25:31.692Z,,0,,,NaN,,,,,,false,,,,247667.29999998212,247667,,247666.59999999404,,247673.309,8,400,,,
break_continue,html.Screen,4_42_2,2023-11-01T00:25:31.693Z,,0,,,NaN,,,,,,false,,,,247667.69999998808,247667.69999998808,,247667.40000000596,,247673.309,8,400,,,
sequence,flow.Sequence,4_42,2023-11-01T00:25:31.693Z,,0,,,2911.2039999880653,completion,,,,,false,,,,247667.90000000596,247667.69999998808,244739.83,244750.29999998212,244756.496,247673.309,8,400,,,
trial,html.Screen,4_43_0,2023-11-01T00:25:34.304Z,,0,1,,2605.290999994031,response,ISIC_0067565.JPG,6,ISIC_7162711.JPG,ISIC_7162711.JPG,false,0,keypress(z),500,250278.90000000596,250278.59999999404,247656.643,247668,247673.309,250289.871,8,400,44,,ISIC_0067565.JPG
break,html.Screen,4_43_1,2023-11-01T00:25:34.305Z,,0,,,NaN,,,,,,false,,,,250279.69999998808,250279.5,,250279.09999999404,,250289.871,8,400,,,
break_continue,html.Screen,4_43_2,2023-11-01T00:25:34.305Z,,0,,,NaN,,,,,,false,,,,250280.09999999404,250279.90000000596,,250279.79999998212,,250289.871,8,400,,,
sequence,flow.Sequence,4_43,2023-11-01T00:25:34.305Z,,0,,,2606.591000005952,completion,,,,,false,,,,250280.19999998808,250279.90000000596,247656.643,247668,247673.309,250289.871,8,400,,,
trial,html.Screen,4_44_0,2023-11-01T00:25:36.899Z,,0,1,,2583.728999994026,response,ISIC_0025970.JPG,8,ISIC_0030002.JPG,ISIC_0025970.JPG,false,1,keypress(m),500,252873.69999998808,252873.59999999404,250273.205,250280.29999998212,250289.871,252889.767,8,400,45,,ISIC_0030002.JPG
break,html.Screen,4_44_1,2023-11-01T00:25:36.900Z,,0,,,NaN,,,,,,false,,,,252874.79999998212,252874.5,,252874,,252889.767,8,400,,,
break_continue,html.Screen,4_44_2,2023-11-01T00:25:36.900Z,,0,,,NaN,,,,,,false,,,,252875.19999998808,252875,,252874.90000000596,,252889.767,8,400,,,
sequence,flow.Sequence,4_44,2023-11-01T00:25:36.901Z,,0,,,2585.1289999999863,completion,,,,,false,,,,252875.29999998212,252875,250273.205,250280.29999998212,250289.871,252889.767,8,400,,,
trial,html.Screen,4_45_0,2023-11-01T00:25:41.124Z,,0,1,,4209.032999982126,response,ISIC_0009048.JPG,7,ISIC_0010962.JPG,ISIC_0009048.JPG,false,1,keypress(m),500,257098.90000000596,257098.79999998212,252873.101,252875.5,252889.767,257106.573,8,400,46,,ISIC_0010962.JPG
break,html.Screen,4_45_1,2023-11-01T00:25:41.125Z,,0,,,NaN,,,,,,false,,,,257099.40000000596,257099.19999998808,,257099,,257106.573,8,400,,,
break_continue,html.Screen,4_45_2,2023-11-01T00:25:41.125Z,,0,,,NaN,,,,,,false,,,,257099.5,257099.40000000596,,257099.40000000596,,257106.573,8,400,,,
sequence,flow.Sequence,4_45,2023-11-01T00:25:41.125Z,,0,,,4209.633000005968,completion,,,,,false,,,,257099.5,257099.40000000596,252873.101,252875.5,252889.767,257106.573,8,400,,,
trial,html.Screen,4_46_0,2023-11-01T00:25:44.409Z,,0,1,,3276.5269999940356,response,ISIC_7125023.JPG,5,ISIC_4867043.JPG,ISIC_4867043.JPG,false,0,keypress(z),500,260383.29999998212,260383.09999999404,257089.907,257099.69999998808,257106.573,260389.775,8,400,47,,ISIC_7125023.JPG
break,html.Screen,4_46_1,2023-11-01T00:25:44.410Z,,0,,,NaN,,,,,,false,,,,260384.29999998212,260384.09999999404,,260383.59999999404,,260389.775,8,400,,,
break_continue,html.Screen,4_46_2,2023-11-01T00:25:44.410Z,,0,,,NaN,,,,,,false,,,,260384.79999998212,260384.59999999404,,260384.5,,260389.775,8,400,,,
sequence,flow.Sequence,4_46,2023-11-01T00:25:44.410Z,,0,,,3278.0269999940356,completion,,,,,false,,,,260384.90000000596,260384.59999999404,257089.907,257099.59999999404,257106.573,260389.775,8,400,,,
trial,html.Screen,4_47_0,2023-11-01T00:25:47.175Z,,0,1,,2758.924999988085,response,ISIC_0064821.JPG,9,ISIC_9568327.JPG,ISIC_9568327.JPG,false,0,keypress(z),500,263148.90000000596,263148.6999999881,260373.109,260385,260389.775,263156.331,8,400,48,,ISIC_0064821.JPG
break,html.Screen,4_47_1,2023-11-01T00:25:47.176Z,,0,,,NaN,,,,,,false,,,,263149.90000000596,263149.59999999404,,263149.1999999881,,263156.331,8,400,,,
break_continue,html.Screen,4_47_2,2023-11-01T00:25:47.177Z,,0,,,NaN,,,,,,false,,,,263151.59999999404,263151.5,,263151.2999999821,,263156.331,8,400,,,
sequence,flow.Sequence,4_47,2023-11-01T00:25:47.177Z,,0,,,2761.725000000006,completion,,,,,false,,,,263151.7999999821,263151.5,260373.109,260385,260389.775,263156.331,8,400,,,
trial,html.Screen,4_48_0,2023-11-01T00:25:50.172Z,,0,1,,2989.968999982113,response,ISIC_6546981.JPG,6,ISIC_7128811.JPG,ISIC_7128811.JPG,false,0,keypress(z),500,266146.59999999404,266146.2999999821,263139.665,263152,263156.331,266156.211,8,400,49,,ISIC_6546981.JPG
break,html.Screen,4_48_1,2023-11-01T00:25:50.173Z,,0,,,NaN,,,,,,false,,,,266147.5,266147.2999999821,,266146.7999999821,,266156.211,8,400,,,
break_continue,html.Screen,4_48_2,2023-11-01T00:25:50.174Z,,0,,,NaN,,,,,,false,,,,266147.90000000596,266147.7999999821,,266147.59999999404,,266156.211,8,400,,,
sequence,flow.Sequence,4_48,2023-11-01T00:25:50.174Z,,0,,,2991.468999982113,completion,,,,,false,,,,266148.09999999404,266147.7999999821,263139.665,263151.90000000596,263156.331,266156.211,8,400,,,
trial,html.Screen,4_49_0,2023-11-01T00:25:56.306Z,,0,1,,6123.388999994029,response,ISIC_0053554.JPG,5,ISIC_6517082.JPG,ISIC_0053554.JPG,false,1,keypress(m),500,272279.90000000596,272279.59999999404,266139.545,266148.1999999881,266156.211,272289.57,8,400,50,,ISIC_6517082.JPG
break,html.Screen,4_49_1,2023-11-01T00:26:06.304Z,,0,,,9999.863000000012,timeout,,,,,false,,,,282277.5,282272.767,272272.904,272280.09999999404,272289.57,282289.433,8,400,,,
break_continue,html.Screen,4_49_2,2023-11-01T00:26:07.687Z,,0,,,1349.8669999820995,response,,,,,false,continue,keypress(Space),,283660.7999999821,283639.2999999821,282272.767,282277.6999999881,282289.433,283672.711,8,400,,,
sequence,flow.Sequence,4_49,2023-11-01T00:26:07.687Z,,0,,,17483.08899998211,completion,,,,,false,,,,283660.90000000596,283639.2999999821,266139.545,266148.09999999404,266156.211,283672.711,8,400,,,
trial,html.Screen,4_50_0,2023-11-01T00:26:10.589Z,,0,2,,2889.2889999999898,response,ISIC_0067167.JPG,8,ISIC_1720856.JPG,ISIC_1720856.JPG,false,0,keypress(z),500,286562.2999999821,286562,283656.045,283661,283672.711,286572.595,8,400,1,,ISIC_0067167.JPG
break,html.Screen,4_50_1,2023-11-01T00:26:10.590Z,,0,,,NaN,,,,,,false,,,,286563.5,286563.2999999821,,286562.6999999881,,286572.595,8,400,,,
break_continue,html.Screen,4_50_2,2023-11-01T00:26:10.590Z,,0,,,NaN,,,,,,false,,,,286563.90000000596,286563.6999999881,,286563.6999999881,,286572.595,8,400,,,
sequence,flow.Sequence,4_50,2023-11-01T00:26:10.590Z,,0,,,2890.988999988069,completion,,,,,false,,,,286564,286563.6999999881,283656.045,283661,283672.711,286572.595,8,400,,,
trial,html.Screen,4_51_0,2023-11-01T00:26:16.338Z,,0,2,,5738.704999982147,response,ISIC_0015045.JPG,7,ISIC_0026586.JPG,ISIC_0026586.JPG,false,0,keypress(z),500,292311.6999999881,292311.2999999821,286555.929,286564.1999999881,286572.595,292322.642,8,400,2,,ISIC_0015045.JPG
break,html.Screen,4_51_1,2023-11-01T00:26:16.339Z,,0,,,NaN,,,,,,false,,,,292312.59999999404,292312.5,,292311.90000000596,,292322.642,8,400,,,
break_continue,html.Screen,4_51_2,2023-11-01T00:26:16.340Z,,0,,,NaN,,,,,,false,,,,292313.09999999404,292313,,292312.90000000596,,292322.642,8,400,,,
sequence,flow.Sequence,4_51,2023-11-01T00:26:16.340Z,,0,,,5740.405000000028,completion,,,,,false,,,,292313.2999999821,292313,286555.929,286564.1999999881,286572.595,292322.642,8,400,,,
trial,html.Screen,4_52_0,2023-11-01T00:26:19.096Z,,0,2,,2746.0579999880865,response,ISIC_0054932.JPG,6,ISIC_0027030.JPG,ISIC_0027030.JPG,false,0,keypress(z),500,295069,295068.6999999881,292305.976,292313.40000000596,292322.642,295072.532,8,400,3,,ISIC_0054932.JPG
break,html.Screen,4_52_1,2023-11-01T00:26:19.097Z,,0,,,NaN,,,,,,false,,,,295070,295069.7999999821,,295069.1999999881,,295072.532,8,400,,,
break_continue,html.Screen,4_52_2,2023-11-01T00:26:19.097Z,,0,,,NaN,,,,,,false,,,,295070.40000000596,295070.1999999881,,295070.1999999881,,295072.532,8,400,,,
sequence,flow.Sequence,4_52,2023-11-01T00:26:19.097Z,,0,,,2747.5579999880865,completion,,,,,false,,,,295070.5,295070.1999999881,292305.976,292313.2999999821,292322.642,295072.532,8,400,,,
trial,html.Screen,4_53_0,2023-11-01T00:26:22.413Z,,0,2,,3313.4679999999935,response,ISIC_6269543.JPG,5,ISIC_0024574.JPG,ISIC_0024574.JPG,false,0,keypress(z),500,298386.2999999821,298386,295055.866,295070.7999999821,295072.532,298389.336,8,400,4,,ISIC_6269543.JPG
break,html.Screen,4_53_1,2023-11-01T00:26:22.414Z,,0,,,NaN,,,,,,false,,,,298387.1999999881,298387,,298386.59999999404,,298389.336,8,400,,,
break_continue,html.Screen,4_53_2,2023-11-01T00:26:22.414Z,,0,,,NaN,,,,,,false,,,,298387.59999999404,298387.5,,298387.40000000596,,298389.336,8,400,,,
sequence,flow.Sequence,4_53,2023-11-01T00:26:22.414Z,,0,,,3314.9679999999935,completion,,,,,false,,,,298387.7999999821,298387.5,295055.866,295070.6999999881,295072.532,298389.336,8,400,,,
trial,html.Screen,4_54_0,2023-11-01T00:26:25.090Z,,0,2,,2674.06400000595,response,ISIC_0014013.JPG,7,ISIC_0067274.JPG,ISIC_0014013.JPG,false,1,keypress(m),500,301063.6999999881,301063.40000000596,298372.67,298388,298389.336,301072.562,8,400,5,,ISIC_0067274.JPG
break,html.Screen,4_54_1,2023-11-01T00:26:25.091Z,,0,,,NaN,,,,,,false,,,,301064.6999999881,301064.40000000596,,301063.90000000596,,301072.562,8,400,,,
break_continue,html.Screen,4_54_2,2023-11-01T00:26:25.092Z,,0,,,NaN,,,,,,false,,,,301065.09999999404,301065,,301064.7999999821,,301072.562,8,400,,,
sequence,flow.Sequence,4_54,2023-11-01T00:26:25.092Z,,0,,,2675.6639999999898,completion,,,,,false,,,,301065.2999999821,301065,298372.67,298387.90000000596,298389.336,301072.562,8,400,,,
trial,html.Screen,4_55_0,2023-11-01T00:26:27.901Z,,0,2,,2800.838000005984,response,ISIC_0002878.JPG,7,ISIC_0239178.JPG,ISIC_0002878.JPG,false,1,keypress(m),500,303873.6999999881,303873.40000000596,301055.896,301065.40000000596,301072.562,303889.116,8,400,6,,ISIC_0239178.JPG
break,html.Screen,4_55_1,2023-11-01T00:26:27.902Z,,0,,,NaN,,,,,,false,,,,303874.7999999821,303874.59999999404,,303874.09999999404,,303889.116,8,400,,,
break_continue,html.Screen,4_55_2,2023-11-01T00:26:27.902Z,,0,,,NaN,,,,,,false,,,,303875.2999999821,303875.09999999404,,303874.90000000596,,303889.116,8,400,,,
sequence,flow.Sequence,4_55,2023-11-01T00:26:27.903Z,,0,,,2802.5379999940633,completion,,,,,false,,,,303875.7999999821,303875.09999999404,301055.896,301065.40000000596,301072.562,303889.116,8,400,,,
trial,html.Screen,4_56_0,2023-11-01T00:26:31.187Z,,0,2,,3270.1839999821386,response,ISIC_2957732.JPG,5,ISIC_6460137.JPG,ISIC_6460137.JPG,false,0,keypress(z),500,307159.59999999404,307159.2999999821,303872.45,303876.09999999404,303889.116,307172.318,8,400,7,,ISIC_2957732.JPG
break,html.Screen,4_56_1,2023-11-01T00:26:31.188Z,,0,,,NaN,,,,,,false,,,,307160.6999999881,307160.40000000596,,307159.7999999821,,307172.318,8,400,,,
break_continue,html.Screen,4_56_2,2023-11-01T00:26:31.188Z,,0,,,NaN,,,,,,false,,,,307161,307160.90000000596,,307160.7999999821,,307172.318,8,400,,,
sequence,flow.Sequence,4_56,2023-11-01T00:26:31.188Z,,0,,,3271.7840000059805,completion,,,,,false,,,,307161.1999999881,307160.90000000596,303872.45,303875.90000000596,303889.116,307172.318,8,400,,,
trial,html.Screen,4_57_0,2023-11-01T00:26:34.275Z,,0,2,,3075.082000005932,response,ISIC_0053659.JPG,7,ISIC_5015378.JPG,ISIC_5015378.JPG,false,0,keypress(z),500,310247.6999999881,310247.40000000596,307155.652,307161.40000000596,307172.318,310255.797,8,400,8,,ISIC_0053659.JPG
break,html.Screen,4_57_1,2023-11-01T00:26:34.276Z,,0,,,NaN,,,,,,false,,,,310248.6999999881,310248.5,,310247.90000000596,,310255.797,8,400,,,
break_continue,html.Screen,4_57_2,2023-11-01T00:26:34.276Z,,0,,,NaN,,,,,,false,,,,310249.09999999404,310248.90000000596,,310248.7999999821,,310255.797,8,400,,,
sequence,flow.Sequence,4_57,2023-11-01T00:26:34.276Z,,0,,,3076.582000005932,completion,,,,,false,,,,310249.2999999821,310248.90000000596,307155.652,307161.2999999821,307172.318,310255.797,8,400,,,
trial,html.Screen,4_58_0,2023-11-01T00:26:38.100Z,,0,2,,3816.4029999880586,response,ISIC_0283957.JPG,7,ISIC_0031034.JPG,ISIC_0031034.JPG,false,0,keypress(z),500,314072.5,314072.1999999881,310239.131,310249.5,310255.797,314088.977,8,400,9,,ISIC_0283957.JPG
break,html.Screen,4_58_1,2023-11-01T00:26:38.101Z,,0,,,NaN,,,,,,false,,,,314073.59999999404,314073.2999999821,,314072.7999999821,,314088.977,8,400,,,
break_continue,html.Screen,4_58_2,2023-11-01T00:26:38.101Z,,0,,,NaN,,,,,,false,,,,314073.90000000596,314073.6999999881,,314073.6999999881,,314088.977,8,400,,,
sequence,flow.Sequence,4_58,2023-11-01T00:26:38.101Z,,0,,,3817.9029999880586,completion,,,,,false,,,,314074.09999999404,314073.6999999881,310239.131,310249.40000000596,310255.797,314088.977,8,400,,,
trial,html.Screen,4_59_0,2023-11-01T00:26:40.951Z,,0,2,,2834.322999982105,response,ISIC_9052604.JPG,6,ISIC_0068924.JPG,ISIC_9052604.JPG,false,1,keypress(m),500,316923.40000000596,316923.2999999821,314072.311,314074.2999999821,314088.977,316938.863,8,400,10,,ISIC_0068924.JPG
break,html.Screen,4_59_1,2023-11-01T00:26:40.951Z,,0,,,NaN,,,,,,false,,,,316923.90000000596,316923.6999999881,,316923.5,,316938.863,8,400,,,
break_continue,html.Screen,4_59_2,2023-11-01T00:26:40.951Z,,0,,,NaN,,,,,,false,,,,316924.09999999404,316924,,316924,,316938.863,8,400,,,
sequence,flow.Sequence,4_59,2023-11-01T00:26:40.951Z,,0,,,2835.0229999999865,completion,,,,,false,,,,316924.1999999881,316924,314072.311,314074.1999999881,314088.977,316938.863,8,400,,,
trial,html.Screen,4_60_0,2023-11-01T00:26:44.209Z,,0,2,,3242.136999999988,response,ISIC_0069150.JPG,6,ISIC_4045323.JPG,ISIC_0069150.JPG,false,1,keypress(m),500,320181.1999999881,320181,316922.197,316924.2999999821,316938.863,320205.667,8,400,11,,ISIC_4045323.JPG
break,html.Screen,4_60_1,2023-11-01T00:26:44.210Z,,0,,,NaN,,,,,,false,,,,320182.1999999881,320182,,320181.59999999404,,320205.667,8,400,,,
break_continue,html.Screen,4_60_2,2023-11-01T00:26:44.210Z,,0,,,NaN,,,,,,false,,,,320182.59999999404,320182.40000000596,,320182.2999999821,,320205.667,8,400,,,
sequence,flow.Sequence,4_60,2023-11-01T00:26:44.210Z,,0,,,3243.5370000059484,completion,,,,,false,,,,320182.6999999881,320182.40000000596,316922.197,316924.2999999821,316938.863,320205.667,8,400,,,
trial,html.Screen,4_61_0,2023-11-01T00:26:47.720Z,,0,2,,3486.5329999880632,response,ISIC_1860707.JPG,8,ISIC_0032005.JPG,ISIC_1860707.JPG,false,1,keypress(m),500,323692.5,323692.1999999881,320189.001,320182.90000000596,320205.667,323705.527,8,400,12,,ISIC_0032005.JPG
break,html.Screen,4_61_1,2023-11-01T00:26:47.721Z,,0,,,NaN,,,,,,false,,,,323693.5,323693.1999999881,,323692.7999999821,,323705.527,8,400,,,
break_continue,html.Screen,4_61_2,2023-11-01T00:26:47.721Z,,0,,,NaN,,,,,,false,,,,323693.90000000596,323693.6999999881,,323693.59999999404,,323705.527,8,400,,,
sequence,flow.Sequence,4_61,2023-11-01T00:26:47.721Z,,0,,,3488.0329999880632,completion,,,,,false,,,,323694.09999999404,323693.6999999881,320189.001,320182.90000000596,320205.667,323705.527,8,400,,,
trial,html.Screen,4_62_0,2023-11-01T00:26:52.016Z,,0,2,,4282.472999999998,response,ISIC_0055024.JPG,6,ISIC_5768032.JPG,ISIC_5768032.JPG,false,0,keypress(z),500,327988.1999999881,327988,323688.861,323694.1999999881,323705.527,328005.355,8,400,13,,ISIC_0055024.JPG
break,html.Screen,4_62_1,2023-11-01T00:26:52.017Z,,0,,,NaN,,,,,,false,,,,327989.2999999821,327989.09999999404,,327988.40000000596,,328005.355,8,400,,,
break_continue,html.Screen,4_62_2,2023-11-01T00:26:52.017Z,,0,,,NaN,,,,,,false,,,,327989.59999999404,327989.59999999404,,327989.40000000596,,328005.355,8,400,,,
sequence,flow.Sequence,4_62,2023-11-01T00:26:52.017Z,,0,,,4284.072999994038,completion,,,,,false,,,,327989.90000000596,327989.59999999404,323688.861,323694.1999999881,323705.527,328005.355,8,400,,,
trial,html.Screen,4_63_0,2023-11-01T00:26:58.486Z,,0,2,,6452.444999982137,response,ISIC_3466769.JPG,9,ISIC_3981425.JPG,ISIC_3466769.JPG,false,1,keypress(m),500,334458.09999999404,334457.7999999821,327988.689,327990,328005.355,334472.04,8,400,14,,ISIC_3981425.JPG
break,html.Screen,4_63_1,2023-11-01T00:26:58.487Z,,0,,,NaN,,,,,,false,,,,334459.1999999881,334458.7999999821,,334458.2999999821,,334472.04,8,400,,,
break_continue,html.Screen,4_63_2,2023-11-01T00:26:58.487Z,,0,,,NaN,,,,,,false,,,,334459.59999999404,334459.40000000596,,334459.2999999821,,334472.04,8,400,,,
sequence,flow.Sequence,4_63,2023-11-01T00:26:58.487Z,,0,,,6454.045000005979,completion,,,,,false,,,,334459.6999999881,334459.40000000596,327988.689,327990,328005.355,334472.04,8,400,,,
trial,html.Screen,4_64_0,2023-11-01T00:27:02.621Z,,0,2,,4121.360000005981,response,ISIC_0061371.JPG,9,ISIC_5127759.JPG,ISIC_5127759.JPG,false,0,keypress(z),500,338593.6999999881,338593.40000000596,334455.374,334459.7999999821,334472.04,338605.208,8,400,15,,ISIC_0061371.JPG
break,html.Screen,4_64_1,2023-11-01T00:27:02.623Z,,0,,,NaN,,,,,,false,,,,338594.59999999404,338594.40000000596,,338593.90000000596,,338605.208,8,400,,,
break_continue,html.Screen,4_64_2,2023-11-01T00:27:02.623Z,,0,,,NaN,,,,,,false,,,,338595.09999999404,338594.90000000596,,338594.7999999821,,338605.208,8,400,,,
sequence,flow.Sequence,4_64,2023-11-01T00:27:02.623Z,,0,,,4122.860000005981,completion,,,,,false,,,,338595.1999999881,338594.90000000596,334455.374,334459.7999999821,334472.04,338605.208,8,400,,,
trial,html.Screen,4_65_0,2023-11-01T00:27:05.235Z,,0,2,,2601.6920000059763,response,ISIC_6801680.JPG,6,ISIC_0056740.JPG,ISIC_6801680.JPG,false,1,keypress(m),500,341207.2999999821,341206.90000000596,338588.542,338595.40000000596,338605.208,341222.048,8,400,16,,ISIC_0056740.JPG
break,html.Screen,4_65_1,2023-11-01T00:27:05.236Z,,0,,,NaN,,,,,,false,,,,341208.2999999821,341208.09999999404,,341207.5,,341222.048,8,400,,,
break_continue,html.Screen,4_65_2,2023-11-01T00:27:05.237Z,,0,,,NaN,,,,,,false,,,,341208.7999999821,341208.5,,341208.40000000596,,341222.048,8,400,,,
sequence,flow.Sequence,4_65,2023-11-01T00:27:05.237Z,,0,,,2603.292000000016,completion,,,,,false,,,,341208.90000000596,341208.5,338588.542,338595.2999999821,338605.208,341222.048,8,400,,,
trial,html.Screen,4_66_0,2023-11-01T00:27:08.873Z,,0,2,,3622.3520000059507,response,ISIC_0071458.JPG,7,ISIC_9860895.JPG,ISIC_0071458.JPG,false,1,keypress(m),500,344844.6999999881,344844.40000000596,341205.382,341209.09999999404,341222.048,344855.236,8,400,17,,ISIC_9860895.JPG
break,html.Screen,4_66_1,2023-11-01T00:27:08.874Z,,0,,,NaN,,,,,,false,,,,344845.6999999881,344845.40000000596,,344844.90000000596,,344855.236,8,400,,,
break_continue,html.Screen,4_66_2,2023-11-01T00:27:08.874Z,,0,,,NaN,,,,,,false,,,,344846.09999999404,344846,,344845.90000000596,,344855.236,8,400,,,
sequence,flow.Sequence,4_66,2023-11-01T00:27:08.874Z,,0,,,3623.95199999999,completion,,,,,false,,,,344846.2999999821,344846,341205.382,341209,341222.048,344855.236,8,400,,,
trial,html.Screen,4_67_0,2023-11-01T00:27:13.871Z,,0,2,,4986.863999994064,response,ISIC_0356904.JPG,5,ISIC_4903988.JPG,ISIC_0356904.JPG,false,1,keypress(m),500,349842.40000000596,349842.09999999404,344838.57,344846.40000000596,344855.236,349855.036,8,400,18,,ISIC_4903988.JPG
break,html.Screen,4_67_1,2023-11-01T00:27:13.872Z,,0,,,NaN,,,,,,false,,,,349843.40000000596,349843.1999999881,,349842.59999999404,,349855.036,8,400,,,
break_continue,html.Screen,4_67_2,2023-11-01T00:27:13.872Z,,0,,,NaN,,,,,,false,,,,349843.90000000596,349843.7999999821,,349843.59999999404,,349855.036,8,400,,,
sequence,flow.Sequence,4_67,2023-11-01T00:27:13.872Z,,0,,,4988.563999982143,completion,,,,,false,,,,349844.09999999404,349843.7999999821,344838.57,344846.40000000596,344855.236,349855.036,8,400,,,
trial,html.Screen,4_68_0,2023-11-01T00:27:16.527Z,,0,2,,2643.0639999940176,response,ISIC_0059884.JPG,5,ISIC_8357420.JPG,ISIC_8357420.JPG,false,0,keypress(z),500,352498.2999999821,352498.09999999404,349838.37,349844.1999999881,349855.036,352505.197,8,400,19,,ISIC_0059884.JPG
break,html.Screen,4_68_1,2023-11-01T00:27:16.528Z,,0,,,NaN,,,,,,false,,,,352499.2999999821,352499.09999999404,,352498.59999999404,,352505.197,8,400,,,
break_continue,html.Screen,4_68_2,2023-11-01T00:27:16.528Z,,0,,,NaN,,,,,,false,,,,352499.7999999821,352499.59999999404,,352499.5,,352505.197,8,400,,,
sequence,flow.Sequence,4_68,2023-11-01T00:27:16.528Z,,0,,,2644.5639999940176,completion,,,,,false,,,,352499.90000000596,352499.59999999404,349838.37,349844.1999999881,349855.036,352505.197,8,400,,,
trial,html.Screen,4_69_0,2023-11-01T00:27:19.188Z,,0,2,,2654.203000005975,response,ISIC_0011463.JPG,6,ISIC_8350973.JPG,ISIC_8350973.JPG,false,0,keypress(z),500,355159.6999999881,355159.40000000596,352488.531,352500,352505.197,355171.757,8,400,20,,ISIC_0011463.JPG
break,html.Screen,4_69_1,2023-11-01T00:27:19.189Z,,0,,,NaN,,,,,,false,,,,355160.6999999881,355160.40000000596,,355160,,355171.757,8,400,,,
break_continue,html.Screen,4_69_2,2023-11-01T00:27:19.189Z,,0,,,NaN,,,,,,false,,,,355161.09999999404,355161,,355160.7999999821,,355171.757,8,400,,,
sequence,flow.Sequence,4_69,2023-11-01T00:27:19.190Z,,0,,,2655.8030000000144,completion,,,,,false,,,,355161.1999999881,355161,352488.531,352500,352505.197,355171.757,8,400,,,
trial,html.Screen,4_70_0,2023-11-01T00:27:22.728Z,,0,2,,3526.942999988096,response,ISIC_7759376.JPG,7,ISIC_2521424.JPG,ISIC_2521424.JPG,false,0,keypress(z),500,358699,358698.6999999881,355155.091,355161.40000000596,355171.757,358704.949,8,400,21,,ISIC_7759376.JPG
break,html.Screen,4_70_1,2023-11-01T00:27:22.728Z,,0,,,NaN,,,,,,false,,,,358700.09999999404,358699.7999999821,,358699.1999999881,,358704.949,8,400,,,
break_continue,html.Screen,4_70_2,2023-11-01T00:27:22.729Z,,0,,,NaN,,,,,,false,,,,358700.40000000596,358700.2999999821,,358700.09999999404,,358704.949,8,400,,,
sequence,flow.Sequence,4_70,2023-11-01T00:27:22.729Z,,0,,,3528.5429999821354,completion,,,,,false,,,,358700.59999999404,358700.2999999821,355155.091,355161.2999999821,355171.757,358704.949,8,400,,,
trial,html.Screen,4_71_0,2023-11-01T00:27:25.390Z,,0,2,,2656.451000005938,response,ISIC_0031104.JPG,7,ISIC_0011778.JPG,ISIC_0031104.JPG,false,1,keypress(m),500,361361.6999999881,361361.40000000596,358688.283,358700.7999999821,358704.949,361371.781,8,400,22,,ISIC_0011778.JPG
break,html.Screen,4_71_1,2023-11-01T00:27:25.391Z,,0,,,NaN,,,,,,false,,,,361362.59999999404,361362.40000000596,,361361.90000000596,,361371.781,8,400,,,
break_continue,html.Screen,4_71_2,2023-11-01T00:27:25.392Z,,0,,,NaN,,,,,,false,,,,361363.09999999404,361363,,361362.7999999821,,361371.781,8,400,,,
sequence,flow.Sequence,4_71,2023-11-01T00:27:25.392Z,,0,,,2658.0509999999776,completion,,,,,false,,,,361363.1999999881,361363,358688.283,358700.6999999881,358704.949,361371.781,8,400,,,
trial,html.Screen,4_72_0,2023-11-01T00:27:28.176Z,,0,2,,2775.0189999821014,response,ISIC_0060148.JPG,7,ISIC_3819893.JPG,ISIC_3819893.JPG,false,0,keypress(z),500,364147,364146.7999999821,361355.115,361363.40000000596,361371.781,364155.003,8,400,23,,ISIC_0060148.JPG
break,html.Screen,4_72_1,2023-11-01T00:27:28.177Z,,0,,,NaN,,,,,,false,,,,364148.09999999404,364147.7999999821,,364147.2999999821,,364155.003,8,400,,,
break_continue,html.Screen,4_72_2,2023-11-01T00:27:28.177Z,,0,,,NaN,,,,,,false,,,,364148.5,364148.40000000596,,364148.1999999881,,364155.003,8,400,,,
sequence,flow.Sequence,4_72,2023-11-01T00:27:28.177Z,,0,,,2776.6190000059432,completion,,,,,false,,,,364148.6999999881,364148.40000000596,361355.115,361363.2999999821,361371.781,364155.003,8,400,,,
trial,html.Screen,4_73_0,2023-11-01T00:27:31.288Z,,0,2,,3104.2969999820925,response,ISIC_0013184.JPG,6,ISIC_9969263.JPG,ISIC_0013184.JPG,false,1,keypress(m),500,367259.5,367259.2999999821,364138.337,364148.7999999821,364155.003,367271.545,8,400,24,,ISIC_9969263.JPG
break,html.Screen,4_73_1,2023-11-01T00:27:31.289Z,,0,,,NaN,,,,,,false,,,,367260.59999999404,367260.40000000596,,367259.7999999821,,367271.545,8,400,,,
break_continue,html.Screen,4_73_2,2023-11-01T00:27:31.290Z,,0,,,NaN,,,,,,false,,,,367261.09999999404,367260.90000000596,,367260.6999999881,,367271.545,8,400,,,
sequence,flow.Sequence,4_73,2023-11-01T00:27:31.290Z,,0,,,3105.8970000059344,completion,,,,,false,,,,367261.1999999881,367260.90000000596,364138.337,364148.6999999881,364155.003,367271.545,8,400,,,
trial,html.Screen,4_74_0,2023-11-01T00:27:34.016Z,,0,2,,2715.4550000000163,response,ISIC_5362038.JPG,6,ISIC_0032149.JPG,ISIC_5362038.JPG,false,1,keypress(m),500,369987.2999999821,369987,367254.879,367261.40000000596,367271.545,370004.769,8,400,25,,ISIC_0032149.JPG
break,html.Screen,4_74_1,2023-11-01T00:27:34.018Z,,0,,,NaN,,,,,,false,,,,369988.7999999821,369988.2999999821,,369987.59999999404,,370004.769,8,400,,,
break_continue,html.Screen,4_74_2,2023-11-01T00:27:34.018Z,,0,,,NaN,,,,,,false,,,,369989.09999999404,369989.09999999404,,369988.90000000596,,370004.769,8,400,,,
sequence,flow.Sequence,4_74,2023-11-01T00:27:34.018Z,,0,,,2717.554999994056,completion,,,,,false,,,,369989.2999999821,369989.09999999404,367254.879,367261.2999999821,367271.545,370004.769,8,400,,,
trial,html.Screen,4_75_0,2023-11-01T00:27:36.868Z,,0,2,,2834.430999988108,response,ISIC_9449365.JPG,9,ISIC_0009918.JPG,ISIC_9449365.JPG,false,1,keypress(m),500,372839.5,372839.1999999881,369988.103,369989.40000000596,370004.769,372854.937,8,400,26,,ISIC_0009918.JPG
break,html.Screen,4_75_1,2023-11-01T00:27:36.869Z,,0,,,NaN,,,,,,false,,,,372840.40000000596,372840.1999999881,,372839.6999999881,,372854.937,8,400,,,
break_continue,html.Screen,4_75_2,2023-11-01T00:27:36.870Z,,0,,,NaN,,,,,,false,,,,372840.7999999821,372840.6999999881,,372840.5,,372854.937,8,400,,,
sequence,flow.Sequence,4_75,2023-11-01T00:27:36.870Z,,0,,,2835.930999988108,completion,,,,,false,,,,372840.90000000596,372840.6999999881,369988.103,369989.40000000596,370004.769,372854.937,8,400,,,
trial,html.Screen,4_76_0,2023-11-01T00:27:39.386Z,,0,2,,2501.3629999821424,response,ISIC_0058617.JPG,7,ISIC_6201695.JPG,ISIC_6201695.JPG,false,0,keypress(z),500,375356.6999999881,375356.2999999821,372838.271,372841.1999999881,372854.937,375371.503,8,400,27,,ISIC_0058617.JPG
break,html.Screen,4_76_1,2023-11-01T00:27:39.387Z,,0,,,NaN,,,,,,false,,,,375357.59999999404,375357.40000000596,,375356.90000000596,,375371.503,8,400,,,
break_continue,html.Screen,4_76_2,2023-11-01T00:27:39.387Z,,0,,,NaN,,,,,,false,,,,375358.09999999404,375357.90000000596,,375357.7999999821,,375371.503,8,400,,,
sequence,flow.Sequence,4_76,2023-11-01T00:27:39.387Z,,0,,,2502.963000005984,completion,,,,,false,,,,375358.1999999881,375357.90000000596,372838.271,372841.09999999404,372854.937,375371.503,8,400,,,
trial,html.Screen,4_77_0,2023-11-01T00:27:42.830Z,,0,2,,3429.2969999820925,response,ISIC_8066110.JPG,7,ISIC_6717322.JPG,ISIC_6717322.JPG,false,0,keypress(z),500,378801.09999999404,378800.7999999821,375354.837,375358.40000000596,375371.503,378804.699,8,400,28,,ISIC_8066110.JPG
break,html.Screen,4_77_1,2023-11-01T00:27:42.831Z,,0,,,NaN,,,,,,false,,,,378802.1999999881,378802,,378801.2999999821,,378804.699,8,400,,,
break_continue,html.Screen,4_77_2,2023-11-01T00:27:42.832Z,,0,,,NaN,,,,,,false,,,,378802.6999999881,378802.5,,378802.40000000596,,378804.699,8,400,,,
sequence,flow.Sequence,4_77,2023-11-01T00:27:42.832Z,,0,,,3430.996999999974,completion,,,,,false,,,,378802.7999999821,378802.5,375354.837,375358.40000000596,375371.503,378804.699,8,400,,,
trial,html.Screen,4_78_0,2023-11-01T00:27:45.735Z,,0,2,,2900.400999994017,response,ISIC_0033485.JPG,7,ISIC_0172020.JPG,ISIC_0172020.JPG,false,0,keypress(z),500,381705.5,381705.09999999404,378788.033,378803,378804.699,381721.516,8,400,29,,ISIC_0033485.JPG
break,html.Screen,4_78_1,2023-11-01T00:27:45.736Z,,0,,,NaN,,,,,,false,,,,381706.59999999404,381706.2999999821,,381705.6999999881,,381721.516,8,400,,,
break_continue,html.Screen,4_78_2,2023-11-01T00:27:45.736Z,,0,,,NaN,,,,,,false,,,,381707,381706.90000000596,,381706.7999999821,,381721.516,8,400,,,
sequence,flow.Sequence,4_78,2023-11-01T00:27:45.736Z,,0,,,2902.201000005938,completion,,,,,false,,,,381707.1999999881,381706.90000000596,378788.033,378803,378804.699,381721.516,8,400,,,
trial,html.Screen,4_79_0,2023-11-01T00:27:48.826Z,,0,2,,3075.2839999821153,response,ISIC_4049598.JPG,9,ISIC_0055081.JPG,ISIC_4049598.JPG,false,1,keypress(m),500,384797.09999999404,384796.7999999821,381704.85,381707.2999999821,381721.516,384804.726,8,400,30,,ISIC_0055081.JPG
break,html.Screen,4_79_1,2023-11-01T00:27:48.827Z,,0,,,NaN,,,,,,false,,,,384798.09999999404,384797.90000000596,,384797.40000000596,,384804.726,8,400,,,
break_continue,html.Screen,4_79_2,2023-11-01T00:27:48.828Z,,0,,,NaN,,,,,,false,,,,384798.5,384798.40000000596,,384798.2999999821,,384804.726,8,400,,,
sequence,flow.Sequence,4_79,2023-11-01T00:27:48.828Z,,0,,,3076.884000005957,completion,,,,,false,,,,384798.7999999821,384798.40000000596,381704.85,381707.2999999821,381721.516,384804.726,8,400,,,
trial,html.Screen,4_80_0,2023-11-01T00:27:51.983Z,,0,2,,3148.8739999940153,response,ISIC_0059897.JPG,6,ISIC_0011035.JPG,ISIC_0011035.JPG,false,0,keypress(z),500,387954,387953.59999999404,384788.06,384798.90000000596,384804.726,387971.266,8,400,31,,ISIC_0059897.JPG
break,html.Screen,4_80_1,2023-11-01T00:27:51.984Z,,0,,,NaN,,,,,,false,,,,387954.90000000596,387954.6999999881,,387954.1999999881,,387971.266,8,400,,,
break_continue,html.Screen,4_80_2,2023-11-01T00:27:51.985Z,,0,,,NaN,,,,,,false,,,,387955.2999999821,387955.1999999881,,387955.09999999404,,387971.266,8,400,,,
sequence,flow.Sequence,4_80,2023-11-01T00:27:51.985Z,,0,,,3150.473999988055,completion,,,,,false,,,,387955.5,387955.1999999881,384788.06,384798.7999999821,384804.726,387971.266,8,400,,,
trial,html.Screen,4_81_0,2023-11-01T00:27:55.333Z,,0,2,,3332.134000005957,response,ISIC_1048913.JPG,7,ISIC_5629390.JPG,ISIC_1048913.JPG,false,1,keypress(m),500,391303.7999999821,391303.40000000596,387954.6,387955.59999999404,387971.266,391321.132,8,400,32,,ISIC_5629390.JPG
break,html.Screen,4_81_1,2023-11-01T00:27:55.335Z,,0,,,NaN,,,,,,false,,,,391305.09999999404,391304.6999999881,,391304,,391321.132,8,400,,,
break_continue,html.Screen,4_81_2,2023-11-01T00:27:55.335Z,,0,,,NaN,,,,,,false,,,,391305.7999999821,391305.59999999404,,391305.5,,391321.132,8,400,,,
sequence,flow.Sequence,4_81,2023-11-01T00:27:55.336Z,,0,,,3334.3339999940363,completion,,,,,false,,,,391306.09999999404,391305.59999999404,387954.6,387955.59999999404,387971.266,391321.132,8,400,,,
trial,html.Screen,4_82_0,2023-11-01T00:27:58.939Z,,0,2,,3587.6679999821354,response,ISIC_5405889.JPG,5,ISIC_0806138.JPG,ISIC_0806138.JPG,false,0,keypress(z),500,394909.09999999404,394908.7999999821,391304.466,391306.40000000596,391321.132,394921.252,8,400,33,,ISIC_5405889.JPG
break,html.Screen,4_82_1,2023-11-01T00:27:58.940Z,,0,,,NaN,,,,,,false,,,,394910,394909.7999999821,,394909.1999999881,,394921.252,8,400,,,
break_continue,html.Screen,4_82_2,2023-11-01T00:27:58.940Z,,0,,,NaN,,,,,,false,,,,394910.40000000596,394910.2999999821,,394910.09999999404,,394921.252,8,400,,,
sequence,flow.Sequence,4_82,2023-11-01T00:27:58.940Z,,0,,,3589.1679999821354,completion,,,,,false,,,,394910.59999999404,394910.2999999821,391304.466,391306.2999999821,391321.132,394921.252,8,400,,,
trial,html.Screen,4_83_0,2023-11-01T00:28:02.209Z,,0,2,,3258.2480000000214,response,ISIC_0067417.JPG,7,ISIC_0060341.JPG,ISIC_0067417.JPG,false,1,keypress(m),500,398179.7999999821,398179.5,394904.586,394910.6999999881,394921.252,398187.788,8,400,34,,ISIC_0060341.JPG
break,html.Screen,4_83_1,2023-11-01T00:28:02.211Z,,0,,,NaN,,,,,,false,,,,398180.90000000596,398180.5,,398180,,398187.788,8,400,,,
break_continue,html.Screen,4_83_2,2023-11-01T00:28:02.211Z,,0,,,NaN,,,,,,false,,,,398181.2999999821,398181.1999999881,,398181.09999999404,,398187.788,8,400,,,
sequence,flow.Sequence,4_83,2023-11-01T00:28:02.211Z,,0,,,3259.9479999881005,completion,,,,,false,,,,398181.5,398181.1999999881,394904.586,394910.6999999881,394921.252,398187.788,8,400,,,
trial,html.Screen,4_84_0,2023-11-01T00:28:05.654Z,,0,2,,3435.61200000596,response,ISIC_0008952.JPG,6,ISIC_7789452.JPG,ISIC_0008952.JPG,false,1,keypress(m),500,401623.90000000596,401623.40000000596,398171.122,398181.6999999881,398187.788,401637.65,8,400,35,,ISIC_7789452.JPG
break,html.Screen,4_84_1,2023-11-01T00:28:05.655Z,,0,,,NaN,,,,,,false,,,,401624.90000000596,401624.59999999404,,401624.09999999404,,401637.65,8,400,,,
break_continue,html.Screen,4_84_2,2023-11-01T00:28:05.655Z,,0,,,NaN,,,,,,false,,,,401625.2999999821,401625.1999999881,,401625,,401637.65,8,400,,,
sequence,flow.Sequence,4_84,2023-11-01T00:28:05.655Z,,0,,,3437.4119999880786,completion,,,,,false,,,,401625.40000000596,401625.1999999881,398171.122,398181.59999999404,398187.788,401637.65,8,400,,,
trial,html.Screen,4_85_0,2023-11-01T00:28:08.379Z,,0,2,,2711.1499999820953,response,ISIC_0065525.JPG,7,ISIC_7489895.JPG,ISIC_7489895.JPG,false,0,keypress(z),500,404349,404348.7999999821,401620.984,401625.59999999404,401637.65,404354.478,8,400,36,,ISIC_0065525.JPG
break,html.Screen,4_85_1,2023-11-01T00:28:08.380Z,,0,,,NaN,,,,,,false,,,,404350,404349.90000000596,,404349.2999999821,,404354.478,8,400,,,
break_continue,html.Screen,4_85_2,2023-11-01T00:28:08.380Z,,0,,,NaN,,,,,,false,,,,404350.5,404350.40000000596,,404350.1999999881,,404354.478,8,400,,,
sequence,flow.Sequence,4_85,2023-11-01T00:28:08.380Z,,0,,,2712.750000005937,completion,,,,,false,,,,404350.59999999404,404350.40000000596,401620.984,401625.59999999404,401637.65,404354.478,8,400,,,
trial,html.Screen,4_86_0,2023-11-01T00:28:11.264Z,,0,2,,2879.9220000059577,response,ISIC_0008510.JPG,7,ISIC_7468304.JPG,ISIC_0008510.JPG,false,1,keypress(m),500,407234.5,407234.40000000596,404337.812,404350.7999999821,404354.478,407254.362,8,400,37,,ISIC_7468304.JPG
break,html.Screen,4_86_1,2023-11-01T00:28:11.265Z,,0,,,NaN,,,,,,false,,,,407235,407234.90000000596,,407234.59999999404,,407254.362,8,400,,,
break_continue,html.Screen,4_86_2,2023-11-01T00:28:11.265Z,,0,,,NaN,,,,,,false,,,,407235.09999999404,407235.09999999404,,407235,,407254.362,8,400,,,
sequence,flow.Sequence,4_86,2023-11-01T00:28:11.265Z,,0,,,2880.6219999940367,completion,,,,,false,,,,407235.2999999821,407235.09999999404,404337.812,404350.7999999821,404354.478,407254.362,8,400,,,
trial,html.Screen,4_87_0,2023-11-01T00:28:13.980Z,,0,2,,2695.0380000059376,response,ISIC_0327406.JPG,6,ISIC_0015185.JPG,ISIC_0327406.JPG,false,1,keypress(m),500,409949.59999999404,409949.40000000596,407237.696,407235.2999999821,407254.362,409954.254,8,400,38,,ISIC_0015185.JPG
break,html.Screen,4_87_1,2023-11-01T00:28:13.980Z,,0,,,NaN,,,,,,false,,,,409950.5,409950.2999999821,,409949.7999999821,,409954.254,8,400,,,
break_continue,html.Screen,4_87_2,2023-11-01T00:28:13.981Z,,0,,,NaN,,,,,,false,,,,409950.90000000596,409950.7999999821,,409950.59999999404,,409954.254,8,400,,,
sequence,flow.Sequence,4_87,2023-11-01T00:28:13.981Z,,0,,,2696.437999982096,completion,,,,,false,,,,409951,409950.7999999821,407237.696,407235.2999999821,407254.362,409954.254,8,400,,,
trial,html.Screen,4_88_0,2023-11-01T00:28:16.737Z,,0,2,,2751.9459999880637,response,ISIC_0054625.JPG,6,ISIC_8154363.JPG,ISIC_8154363.JPG,false,0,keypress(z),500,412706.5,412706.1999999881,409937.588,409951.1999999881,409954.254,412721.087,8,400,39,,ISIC_0054625.JPG
break,html.Screen,4_88_1,2023-11-01T00:28:16.738Z,,0,,,NaN,,,,,,false,,,,412707.5,412707.1999999881,,412706.6999999881,,412721.087,8,400,,,
break_continue,html.Screen,4_88_2,2023-11-01T00:28:16.738Z,,0,,,NaN,,,,,,false,,,,412707.7999999821,412707.6999999881,,412707.59999999404,,412721.087,8,400,,,
sequence,flow.Sequence,4_88,2023-11-01T00:28:16.738Z,,0,,,2753.4459999880637,completion,,,,,false,,,,412708,412707.6999999881,409937.588,409951.09999999404,409954.254,412721.087,8,400,,,
trial,html.Screen,4_89_0,2023-11-01T00:28:19.829Z,,0,2,,3077.6129999880795,response,ISIC_7914631.JPG,6,ISIC_0061915.JPG,ISIC_7914631.JPG,false,1,keypress(m),500,415798.7999999821,415798.6999999881,412704.421,412708.09999999404,412721.087,415804.297,8,400,40,,ISIC_0061915.JPG
break,html.Screen,4_89_1,2023-11-01T00:28:19.830Z,,0,,,NaN,,,,,,false,,,,415799.59999999404,415799.40000000596,,415799,,415804.297,8,400,,,
break_continue,html.Screen,4_89_2,2023-11-01T00:28:19.830Z,,0,,,NaN,,,,,,false,,,,415799.7999999821,415799.6999999881,,415799.6999999881,,415804.297,8,400,,,
sequence,flow.Sequence,4_89,2023-11-01T00:28:19.830Z,,0,,,3078.6129999880795,completion,,,,,false,,,,415799.90000000596,415799.6999999881,412704.421,412708.09999999404,412721.087,415804.297,8,400,,,
trial,html.Screen,4_90_0,2023-11-01T00:28:22.830Z,,0,2,,2995.60300000594,response,ISIC_0070217.JPG,6,ISIC_0000161.JPG,ISIC_0070217.JPG,false,1,keypress(m),500,418800.09999999404,418799.90000000596,415787.631,415800,415804.297,418804.177,8,400,41,,ISIC_0000161.JPG
break,html.Screen,4_90_1,2023-11-01T00:28:22.832Z,,0,,,NaN,,,,,,false,,,,418801.2999999821,418801,,418800.40000000596,,418804.177,8,400,,,
break_continue,html.Screen,4_90_2,2023-11-01T00:28:22.832Z,,0,,,NaN,,,,,,false,,,,418801.59999999404,418801.5,,418801.40000000596,,418804.177,8,400,,,
sequence,flow.Sequence,4_90,2023-11-01T00:28:22.832Z,,0,,,2997.2029999999795,completion,,,,,false,,,,418801.90000000596,418801.5,415787.631,415800,415804.297,418804.177,8,400,,,
trial,html.Screen,4_91_0,2023-11-01T00:28:25.678Z,,0,2,,2843.6229999820935,response,ISIC_5993530.JPG,8,ISIC_4347535.JPG,ISIC_5993530.JPG,false,1,keypress(m),500,421648.09999999404,421647.7999999821,418787.511,418802,418804.177,421654.063,8,400,42,,ISIC_4347535.JPG
break,html.Screen,4_91_1,2023-11-01T00:28:25.679Z,,0,,,NaN,,,,,,false,,,,421649.09999999404,421648.7999999821,,421648.2999999821,,421654.063,8,400,,,
break_continue,html.Screen,4_91_2,2023-11-01T00:28:25.680Z,,0,,,NaN,,,,,,false,,,,421649.5,421649.2999999821,,421649.1999999881,,421654.063,8,400,,,
sequence,flow.Sequence,4_91,2023-11-01T00:28:25.680Z,,0,,,2845.1229999820935,completion,,,,,false,,,,421649.6999999881,421649.2999999821,418787.511,418801.90000000596,418804.177,421654.063,8,400,,,
trial,html.Screen,4_92_0,2023-11-01T00:28:28.564Z,,0,2,,2879.536999994016,response,ISIC_8338755.JPG,6,ISIC_5017874.JPG,ISIC_5017874.JPG,false,0,keypress(z),500,424533.90000000596,424533.59999999404,421637.397,421649.7999999821,421654.063,424537.551,8,400,43,,ISIC_8338755.JPG
break,html.Screen,4_92_1,2023-11-01T00:28:28.565Z,,0,,,NaN,,,,,,false,,,,424535,424534.7999999821,,424534.1999999881,,424537.551,8,400,,,
break_continue,html.Screen,4_92_2,2023-11-01T00:28:28.566Z,,0,,,NaN,,,,,,false,,,,424535.40000000596,424535.1999999881,,424535.09999999404,,424537.551,8,400,,,
sequence,flow.Sequence,4_92,2023-11-01T00:28:28.566Z,,0,,,2881.1369999880553,completion,,,,,false,,,,424535.59999999404,424535.1999999881,421637.397,421649.6999999881,421654.063,424537.551,8,400,,,
trial,html.Screen,4_93_0,2023-11-01T00:28:31.243Z,,0,2,,2674.548999994062,response,ISIC_3837132.JPG,7,ISIC_0013084.JPG,ISIC_3837132.JPG,false,1,keypress(m),500,427212.40000000596,427212.09999999404,424520.885,424535.6999999881,424537.551,427220.777,8,400,44,,ISIC_0013084.JPG
break,html.Screen,4_93_1,2023-11-01T00:28:31.244Z,,0,,,NaN,,,,,,false,,,,427213.59999999404,427213.2999999821,,427212.6999999881,,427220.777,8,400,,,
break_continue,html.Screen,4_93_2,2023-11-01T00:28:31.244Z,,0,,,NaN,,,,,,false,,,,427214,427213.7999999821,,427213.6999999881,,427220.777,8,400,,,
sequence,flow.Sequence,4_93,2023-11-01T00:28:31.245Z,,0,,,2676.248999982141,completion,,,,,false,,,,427214.09999999404,427213.7999999821,424520.885,424535.59999999404,424537.551,427220.777,8,400,,,
trial,html.Screen,4_94_0,2023-11-01T00:28:33.905Z,,0,2,,2653.3229999940377,response,ISIC_7517082.JPG,6,ISIC_0070588.JPG,ISIC_7517082.JPG,false,1,keypress(m),500,429874.5,429874.09999999404,427204.111,427214.2999999821,427220.777,429887.337,8,400,45,,ISIC_0070588.JPG
break,html.Screen,4_94_1,2023-11-01T00:28:33.906Z,,0,,,NaN,,,,,,false,,,,429875.5,429875.2999999821,,429874.6999999881,,429887.337,8,400,,,
break_continue,html.Screen,4_94_2,2023-11-01T00:28:33.907Z,,0,,,NaN,,,,,,false,,,,429875.90000000596,429875.7999999821,,429875.59999999404,,429887.337,8,400,,,
sequence,flow.Sequence,4_94,2023-11-01T00:28:33.907Z,,0,,,2655.0229999821167,completion,,,,,false,,,,429876.09999999404,429875.7999999821,427204.111,427214.2999999821,427220.777,429887.337,8,400,,,
trial,html.Screen,4_95_0,2023-11-01T00:28:36.580Z,,0,2,,2661.962999982119,response,ISIC_9462738.JPG,6,ISIC_4043580.JPG,ISIC_4043580.JPG,false,0,keypress(z),500,432549.59999999404,432549.2999999821,429870.671,429876.2999999821,429887.337,432553.897,8,400,46,,ISIC_9462738.JPG
break,html.Screen,4_95_1,2023-11-01T00:28:36.581Z,,0,,,NaN,,,,,,false,,,,432550.5,432550.40000000596,,432549.90000000596,,432553.897,8,400,,,
break_continue,html.Screen,4_95_2,2023-11-01T00:28:36.582Z,,0,,,NaN,,,,,,false,,,,432551.1999999881,432550.90000000596,,432550.7999999821,,432553.897,8,400,,,
sequence,flow.Sequence,4_95,2023-11-01T00:28:36.582Z,,0,,,2663.563000005961,completion,,,,,false,,,,432551.2999999821,432550.90000000596,429870.671,429876.1999999881,429887.337,432553.897,8,400,,,
trial,html.Screen,4_96_0,2023-11-01T00:28:39.310Z,,0,2,,2725.0030000059633,response,ISIC_0944273.JPG,7,ISIC_0025235.JPG,ISIC_0025235.JPG,false,0,keypress(z),500,435279.09999999404,435278.90000000596,432537.231,432551.5,432553.897,435287.384,8,400,47,,ISIC_0944273.JPG
break,html.Screen,4_96_1,2023-11-01T00:28:39.311Z,,0,,,NaN,,,,,,false,,,,435280,435279.7999999821,,435279.2999999821,,435287.384,8,400,,,
break_continue,html.Screen,4_96_2,2023-11-01T00:28:39.311Z,,0,,,NaN,,,,,,false,,,,435280.40000000596,435280.1999999881,,435280.09999999404,,435287.384,8,400,,,
sequence,flow.Sequence,4_96,2023-11-01T00:28:39.311Z,,0,,,2726.302999988082,completion,,,,,false,,,,435280.5,435280.1999999881,432537.231,432551.40000000596,432553.897,435287.384,8,400,,,
trial,html.Screen,4_97_0,2023-11-01T00:28:41.832Z,,0,2,,2513.4159999820986,response,ISIC_0030512.JPG,7,ISIC_9291926.JPG,ISIC_0030512.JPG,false,1,keypress(m),500,437801.09999999404,437800.7999999821,435270.718,435280.6999999881,435287.384,437803.95,8,400,48,,ISIC_9291926.JPG
break,html.Screen,4_97_1,2023-11-01T00:28:41.833Z,,0,,,NaN,,,,,,false,,,,437802.09999999404,437801.7999999821,,437801.2999999821,,437803.95,8,400,,,
break_continue,html.Screen,4_97_2,2023-11-01T00:28:41.833Z,,0,,,NaN,,,,,,false,,,,437802.5,437802.40000000596,,437802.1999999881,,437803.95,8,400,,,
sequence,flow.Sequence,4_97,2023-11-01T00:28:41.834Z,,0,,,2515.0160000059404,completion,,,,,false,,,,437802.6999999881,437802.40000000596,435270.718,435280.6999999881,435287.384,437803.95,8,400,,,
trial,html.Screen,4_98_0,2023-11-01T00:28:44.430Z,,0,2,,2594.5499999999884,response,ISIC_2321671.JPG,8,ISIC_3161477.JPG,ISIC_3161477.JPG,false,0,keypress(z),500,440398.7999999821,440398.5,437787.284,437802.90000000596,437803.95,440403.846,8,400,49,,ISIC_2321671.JPG
break,html.Screen,4_98_1,2023-11-01T00:28:44.431Z,,0,,,NaN,,,,,,false,,,,440399.7999999821,440399.59999999404,,440399.09999999404,,440403.846,8,400,,,
break_continue,html.Screen,4_98_2,2023-11-01T00:28:44.431Z,,0,,,NaN,,,,,,false,,,,440400.1999999881,440400,,440399.90000000596,,440403.846,8,400,,,
sequence,flow.Sequence,4_98,2023-11-01T00:28:44.431Z,,0,,,2596.0499999999884,completion,,,,,false,,,,440400.40000000596,440400,437787.284,437802.7999999821,437803.95,440403.846,8,400,,,
trial,html.Screen,4_99_0,2023-11-01T00:28:47.942Z,,0,2,,3506.3539999880595,response,ISIC_7765349.JPG,7,ISIC_4957216.JPG,ISIC_7765349.JPG,false,1,keypress(m),500,443910.5,443910.1999999881,440387.18,440400.59999999404,440403.846,443920.655,8,400,50,,ISIC_4957216.JPG
break,html.Screen,4_99_1,2023-11-01T00:28:57.938Z,,0,,,9999.861999999965,timeout,,,,,false,,,,453906.5,453903.851,443903.989,443910.6999999881,443920.655,453920.517,8,400,,,
break_continue,html.Screen,4_99_2,2023-11-01T00:28:58.480Z,,0,,,505.28299998212606,response,,,,,false,continue,keypress(Space),,454448.5,454425.7999999821,453903.851,453906.6999999881,453920.517,454453.829,8,400,,,
sequence,flow.Sequence,4_99,2023-11-01T00:28:58.480Z,,0,,,14021.953999982099,completion,,,,,false,,,,454448.6999999881,454425.7999999821,440387.18,440400.5,440403.846,454453.829,8,400,,,
trial,html.Screen,4_100_0,2023-11-01T00:29:01.828Z,,0,3,,3342.870999988052,response,ISIC_0031087.JPG,5,ISIC_1619814.JPG,ISIC_1619814.JPG,false,0,keypress(z),500,457797.09999999404,457796.6999999881,454437.163,454448.6999999881,454453.829,457803.695,8,400,1,,ISIC_0031087.JPG
break,html.Screen,4_100_1,2023-11-01T00:29:01.829Z,,0,,,NaN,,,,,,false,,,,457798,457797.7999999821,,457797.1999999881,,457803.695,8,400,,,
break_continue,html.Screen,4_100_2,2023-11-01T00:29:01.830Z,,0,,,NaN,,,,,,false,,,,457798.5,457798.2999999821,,457798.1999999881,,457803.695,8,400,,,
sequence,flow.Sequence,4_100,2023-11-01T00:29:01.830Z,,0,,,3344.4709999820916,completion,,,,,false,,,,457798.59999999404,457798.2999999821,454437.163,454448.6999999881,454453.829,457803.695,8,400,,,
trial,html.Screen,4_101_0,2023-11-01T00:29:04.505Z,,0,3,,2669.2050000059535,response,ISIC_0015045.JPG,7,ISIC_0014525.JPG,ISIC_0014525.JPG,false,0,keypress(z),500,460473.09999999404,460472.90000000596,457787.029,457798.7999999821,457803.695,460486.921,8,400,2,,ISIC_0015045.JPG
break,html.Screen,4_101_1,2023-11-01T00:29:04.506Z,,0,,,NaN,,,,,,false,,,,460474.1999999881,460474,,460473.40000000596,,460486.921,8,400,,,
break_continue,html.Screen,4_101_2,2023-11-01T00:29:04.506Z,,0,,,NaN,,,,,,false,,,,460474.59999999404,460474.5,,460474.40000000596,,460486.921,8,400,,,
sequence,flow.Sequence,4_101,2023-11-01T00:29:04.506Z,,0,,,2670.804999999993,completion,,,,,false,,,,460474.90000000596,460474.5,457787.029,457798.6999999881,457803.695,460486.921,8,400,,,
trial,html.Screen,4_102_0,2023-11-01T00:29:07.805Z,,0,3,,3285.8789999821456,response,ISIC_5703909.JPG,5,ISIC_3882374.JPG,ISIC_3882374.JPG,false,0,keypress(z),500,463773,463772.7999999821,460470.255,460474.90000000596,460486.921,463786.789,8,400,3,,ISIC_5703909.JPG
break,html.Screen,4_102_1,2023-11-01T00:29:07.806Z,,0,,,NaN,,,,,,false,,,,463774.09999999404,463773.7999999821,,463773.2999999821,,463786.789,8,400,,,
break_continue,html.Screen,4_102_2,2023-11-01T00:29:07.806Z,,0,,,NaN,,,,,,false,,,,463774.5,463774.2999999821,,463774.1999999881,,463786.789,8,400,,,
sequence,flow.Sequence,4_102,2023-11-01T00:29:07.806Z,,0,,,3287.3789999821456,completion,,,,,false,,,,463774.59999999404,463774.2999999821,460470.255,460474.90000000596,460486.921,463786.789,8,400,,,
trial,html.Screen,4_103_0,2023-11-01T00:29:10.739Z,,0,3,,2920.1110000059707,response,ISIC_0030508.JPG,7,ISIC_0014319.JPG,ISIC_0030508.JPG,false,1,keypress(m),500,466707.2999999821,466706.90000000596,463770.123,463774.6999999881,463786.789,466720.276,8,400,4,,ISIC_0014319.JPG
break,html.Screen,4_103_1,2023-11-01T00:29:10.740Z,,0,,,NaN,,,,,,false,,,,466708.2999999821,466708,,466707.5,,466720.276,8,400,,,
break_continue,html.Screen,4_103_2,2023-11-01T00:29:10.740Z,,0,,,NaN,,,,,,false,,,,466708.6999999881,466708.5,,466708.5,,466720.276,8,400,,,
sequence,flow.Sequence,4_103,2023-11-01T00:29:10.741Z,,0,,,2921.7110000000102,completion,,,,,false,,,,466708.90000000596,466708.5,463770.123,463774.6999999881,463786.789,466720.276,8,400,,,
trial,html.Screen,4_104_0,2023-11-01T00:29:13.864Z,,0,3,,3111.323999994027,response,ISIC_0069505.JPG,6,ISIC_6635699.JPG,ISIC_0069505.JPG,false,1,keypress(m),500,469831.90000000596,469831.59999999404,466703.61,466709.09999999404,466720.276,469836.818,8,400,5,,ISIC_6635699.JPG
break,html.Screen,4_104_1,2023-11-01T00:29:13.865Z,,0,,,NaN,,,,,,false,,,,469832.90000000596,469832.59999999404,,469832,,469836.818,8,400,,,
break_continue,html.Screen,4_104_2,2023-11-01T00:29:13.865Z,,0,,,NaN,,,,,,false,,,,469833.2999999821,469833.09999999404,,469833,,469836.818,8,400,,,
sequence,flow.Sequence,4_104,2023-11-01T00:29:13.865Z,,0,,,3112.823999994027,completion,,,,,false,,,,469833.40000000596,469833.09999999404,466703.61,466709,466720.276,469836.818,8,400,,,
trial,html.Screen,4_105_0,2023-11-01T00:29:16.929Z,,0,3,,3059.98199998209,response,ISIC_5181177.JPG,8,ISIC_3288342.JPG,ISIC_3288342.JPG,false,0,keypress(z),500,472897.09999999404,472896.7999999821,469820.152,469833.5,469836.818,472903.362,8,400,6,,ISIC_5181177.JPG
break,html.Screen,4_105_1,2023-11-01T00:29:16.930Z,,0,,,NaN,,,,,,false,,,,472898,472897.6999999881,,472897.1999999881,,472903.362,8,400,,,
break_continue,html.Screen,4_105_2,2023-11-01T00:29:16.930Z,,0,,,NaN,,,,,,false,,,,472898.40000000596,472898.2999999821,,472898.09999999404,,472903.362,8,400,,,
sequence,flow.Sequence,4_105,2023-11-01T00:29:16.931Z,,0,,,3061.48199998209,completion,,,,,false,,,,472898.59999999404,472898.2999999821,469820.152,469833.5,469836.818,472903.362,8,400,,,
trial,html.Screen,4_106_0,2023-11-01T00:29:19.848Z,,0,3,,2912.0380000059376,response,ISIC_3728352.JPG,6,ISIC_6618652.JPG,ISIC_6618652.JPG,false,0,keypress(z),500,475815.6999999881,475815.40000000596,472886.696,472898.6999999881,472903.362,475820.177,8,400,7,,ISIC_3728352.JPG
break,html.Screen,4_106_1,2023-11-01T00:29:19.849Z,,0,,,NaN,,,,,,false,,,,475816.59999999404,475816.40000000596,,475815.90000000596,,475820.177,8,400,,,
break_continue,html.Screen,4_106_2,2023-11-01T00:29:19.849Z,,0,,,NaN,,,,,,false,,,,475817,475817,,475816.7999999821,,475820.177,8,400,,,
sequence,flow.Sequence,4_106,2023-11-01T00:29:19.849Z,,0,,,2913.637999999977,completion,,,,,false,,,,475817.1999999881,475817,472886.696,472898.6999999881,472903.362,475820.177,8,400,,,
trial,html.Screen,4_107_0,2023-11-01T00:29:22.621Z,,0,3,,2768.522999988054,response,ISIC_0000140.JPG,4,ISIC_8621568.JPG,ISIC_8621568.JPG,false,0,keypress(z),500,478589,478588.6999999881,475803.511,475817.2999999821,475820.177,478603.399,8,400,8,,ISIC_0000140.JPG
break,html.Screen,4_107_1,2023-11-01T00:29:22.622Z,,0,,,NaN,,,,,,false,,,,478590,478589.7999999821,,478589.1999999881,,478603.399,8,400,,,
break_continue,html.Screen,4_107_2,2023-11-01T00:29:22.622Z,,0,,,NaN,,,,,,false,,,,478590.40000000596,478590.1999999881,,478590.1999999881,,478603.399,8,400,,,
sequence,flow.Sequence,4_107,2023-11-01T00:29:22.623Z,,0,,,2770.022999988054,completion,,,,,false,,,,478590.59999999404,478590.1999999881,475803.511,475817.2999999821,475820.177,478603.399,8,400,,,
trial,html.Screen,4_108_0,2023-11-01T00:29:25.256Z,,0,3,,2620.2009999940637,response,ISIC_0032774.JPG,7,ISIC_9270367.JPG,ISIC_9270367.JPG,false,0,keypress(z),500,481223.7999999821,481223.59999999404,478586.733,478590.7999999821,478603.399,481236.627,8,400,9,,ISIC_0032774.JPG
break,html.Screen,4_108_1,2023-11-01T00:29:25.257Z,,0,,,NaN,,,,,,false,,,,481224.6999999881,481224.59999999404,,481224,,481236.627,8,400,,,
break_continue,html.Screen,4_108_2,2023-11-01T00:29:25.257Z,,0,,,NaN,,,,,,false,,,,481225.09999999404,481225,,481224.90000000596,,481236.627,8,400,,,
sequence,flow.Sequence,4_108,2023-11-01T00:29:25.257Z,,0,,,2621.601000000024,completion,,,,,false,,,,481225.2999999821,481225,478586.733,478590.6999999881,478603.399,481236.627,8,400,,,
trial,html.Screen,4_109_0,2023-11-01T00:29:27.931Z,,0,3,,2662.0729999881005,response,ISIC_0010852.JPG,6,ISIC_1438269.JPG,ISIC_1438269.JPG,false,0,keypress(z),500,483899.09999999404,483898.6999999881,481219.961,481225.5,481236.627,483903.187,8,400,10,,ISIC_0010852.JPG
break,html.Screen,4_109_1,2023-11-01T00:29:27.932Z,,0,,,NaN,,,,,,false,,,,483900,483899.7999999821,,483899.2999999821,,483903.187,8,400,,,
break_continue,html.Screen,4_109_2,2023-11-01T00:29:27.933Z,,0,,,NaN,,,,,,false,,,,483900.40000000596,483900.2999999821,,483900.1999999881,,483903.187,8,400,,,
sequence,flow.Sequence,4_109,2023-11-01T00:29:27.933Z,,0,,,2663.67299998214,completion,,,,,false,,,,483900.59999999404,483900.2999999821,481219.961,481225.40000000596,481236.627,483903.187,8,400,,,
trial,html.Screen,4_110_0,2023-11-01T00:29:31.298Z,,0,3,,3362.4129999940633,response,ISIC_0030150.JPG,7,ISIC_6766153.JPG,ISIC_0030150.JPG,false,1,keypress(m),500,487265.90000000596,487265.59999999404,483886.521,483900.6999999881,483903.187,487269.981,8,400,11,,ISIC_6766153.JPG
break,html.Screen,4_110_1,2023-11-01T00:29:31.299Z,,0,,,NaN,,,,,,false,,,,487266.5,487266.2999999821,,487266,,487269.981,8,400,,,
break_continue,html.Screen,4_110_2,2023-11-01T00:29:31.299Z,,0,,,NaN,,,,,,false,,,,487266.6999999881,487266.59999999404,,487266.5,,487269.981,8,400,,,
sequence,flow.Sequence,4_110,2023-11-01T00:29:31.299Z,,0,,,3363.4129999940633,completion,,,,,false,,,,487266.7999999821,487266.59999999404,483886.521,483900.6999999881,483903.187,487269.981,8,400,,,
trial,html.Screen,4_111_0,2023-11-01T00:29:34.008Z,,0,3,,2704.8189999820897,response,ISIC_5679942.JPG,7,ISIC_8176449.JPG,ISIC_5679942.JPG,false,1,keypress(m),500,489975.09999999404,489974.7999999821,487253.315,487266.90000000596,487269.981,489986.539,8,400,12,,ISIC_8176449.JPG
break,html.Screen,4_111_1,2023-11-01T00:29:34.009Z,,0,,,NaN,,,,,,false,,,,489976.40000000596,489975.90000000596,,489975.40000000596,,489986.539,8,400,,,
break_continue,html.Screen,4_111_2,2023-11-01T00:29:34.009Z,,0,,,NaN,,,,,,false,,,,489977,489976.7999999821,,489976.5,,489986.539,8,400,,,
sequence,flow.Sequence,4_111,2023-11-01T00:29:34.010Z,,0,,,2706.8189999820897,completion,,,,,false,,,,489977.1999999881,489976.7999999821,487253.315,487266.90000000596,487269.981,489986.539,8,400,,,
trial,html.Screen,4_112_0,2023-11-01T00:29:36.979Z,,0,3,,2959.6609999880893,response,ISIC_9232153.JPG,6,ISIC_0061066.JPG,ISIC_0061066.JPG,false,0,keypress(z),500,492946.40000000596,492946.1999999881,489969.873,489977.40000000596,489986.539,492953.087,8,400,13,,ISIC_9232153.JPG
break,html.Screen,4_112_1,2023-11-01T00:29:36.980Z,,0,,,NaN,,,,,,false,,,,492947.40000000596,492947.09999999404,,492946.59999999404,,492953.087,8,400,,,
break_continue,html.Screen,4_112_2,2023-11-01T00:29:36.980Z,,0,,,NaN,,,,,,false,,,,492947.7999999821,492947.59999999404,,492947.5,,492953.087,8,400,,,
sequence,flow.Sequence,4_112,2023-11-01T00:29:36.980Z,,0,,,2961.06099999405,completion,,,,,false,,,,492947.90000000596,492947.59999999404,489969.873,489977.40000000596,489986.539,492953.087,8,400,,,
trial,html.Screen,4_113_0,2023-11-01T00:29:39.609Z,,0,3,,2623.1129999880795,response,ISIC_0032914.JPG,6,ISIC_0008934.JPG,ISIC_0008934.JPG,false,0,keypress(z),500,495576.59999999404,495576.1999999881,492936.421,492948.09999999404,492953.087,495586.578,8,400,14,,ISIC_0032914.JPG
break,html.Screen,4_113_1,2023-11-01T00:29:39.610Z,,0,,,NaN,,,,,,false,,,,495577.5,495577.40000000596,,495576.6999999881,,495586.578,8,400,,,
break_continue,html.Screen,4_113_2,2023-11-01T00:29:39.611Z,,0,,,NaN,,,,,,false,,,,495578.09999999404,495577.90000000596,,495577.6999999881,,495586.578,8,400,,,
sequence,flow.Sequence,4_113,2023-11-01T00:29:39.611Z,,0,,,2624.813000005961,completion,,,,,false,,,,495578.2999999821,495577.90000000596,492936.421,492948.09999999404,492953.087,495586.578,8,400,,,
trial,html.Screen,4_114_0,2023-11-01T00:29:42.930Z,,0,3,,3310.1219999880996,response,ISIC_7620514.JPG,5,ISIC_3031102.JPG,ISIC_3031102.JPG,false,0,keypress(z),500,498897.09999999404,498896.6999999881,495569.912,495578.40000000596,495586.578,498903.112,8,400,15,,ISIC_7620514.JPG
break,html.Screen,4_114_1,2023-11-01T00:29:42.931Z,,0,,,NaN,,,,,,false,,,,498898.2999999821,498898,,498897.40000000596,,498903.112,8,400,,,
break_continue,html.Screen,4_114_2,2023-11-01T00:29:42.931Z,,0,,,NaN,,,,,,false,,,,498898.6999999881,498898.5,,498898.40000000596,,498903.112,8,400,,,
sequence,flow.Sequence,4_114,2023-11-01T00:29:42.932Z,,0,,,3311.9220000000205,completion,,,,,false,,,,498898.90000000596,498898.5,495569.912,495578.2999999821,495586.578,498903.112,8,400,,,
trial,html.Screen,4_115_0,2023-11-01T00:29:45.880Z,,0,3,,2944.2880000059376,response,ISIC_0011757.JPG,7,ISIC_0032981.JPG,ISIC_0032981.JPG,false,0,keypress(z),500,501847.6999999881,501847.40000000596,498886.446,498899,498903.112,501852.994,8,400,16,,ISIC_0011757.JPG
break,html.Screen,4_115_1,2023-11-01T00:29:45.881Z,,0,,,NaN,,,,,,false,,,,501848.6999999881,501848.40000000596,,501848,,501852.994,8,400,,,
break_continue,html.Screen,4_115_2,2023-11-01T00:29:45.882Z,,0,,,NaN,,,,,,false,,,,501849.09999999404,501848.90000000596,,501848.7999999821,,501852.994,8,400,,,
sequence,flow.Sequence,4_115,2023-11-01T00:29:45.882Z,,0,,,2945.7880000059376,completion,,,,,false,,,,501849.2999999821,501848.90000000596,498886.446,498898.90000000596,498903.112,501852.994,8,400,,,
trial,html.Screen,4_116_0,2023-11-01T00:29:49.089Z,,0,3,,3202.4060000059544,response,ISIC_5623973.JPG,6,ISIC_4352700.JPG,ISIC_4352700.JPG,false,0,keypress(z),500,505055.59999999404,505055.40000000596,501836.328,501849.40000000596,501852.994,505069.809,8,400,17,,ISIC_5623973.JPG
break,html.Screen,4_116_1,2023-11-01T00:29:49.090Z,,0,,,NaN,,,,,,false,,,,505056.6999999881,505056.5,,505055.90000000596,,505069.809,8,400,,,
break_continue,html.Screen,4_116_2,2023-11-01T00:29:49.090Z,,0,,,NaN,,,,,,false,,,,505057.09999999404,505057.09999999404,,505056.90000000596,,505069.809,8,400,,,
sequence,flow.Sequence,4_116,2023-11-01T00:29:49.090Z,,0,,,3204.1059999940335,completion,,,,,false,,,,505057.2999999821,505057.09999999404,501836.328,501849.40000000596,501852.994,505069.809,8,400,,,
trial,html.Screen,4_117_0,2023-11-01T00:29:52.885Z,,0,3,,3781.6909999999916,response,ISIC_9175856.JPG,8,ISIC_0413563.JPG,ISIC_9175856.JPG,false,1,keypress(m),500,508851.7999999821,508851.5,505053.143,505057.5,505069.809,508869.657,8,400,18,,ISIC_0413563.JPG
break,html.Screen,4_117_1,2023-11-01T00:29:52.886Z,,0,,,NaN,,,,,,false,,,,508852.6999999881,508852.5,,508852,,508869.657,8,400,,,
break_continue,html.Screen,4_117_2,2023-11-01T00:29:52.886Z,,0,,,NaN,,,,,,false,,,,508853.1999999881,508853.09999999404,,508852.90000000596,,508869.657,8,400,,,
sequence,flow.Sequence,4_117,2023-11-01T00:29:52.886Z,,0,,,3783.290999994031,completion,,,,,false,,,,508853.40000000596,508853.09999999404,505053.143,505057.5,505069.809,508869.657,8,400,,,
trial,html.Screen,4_118_0,2023-11-01T00:29:55.577Z,,0,3,,2673.743000005954,response,ISIC_0061625.JPG,5,ISIC_0069505.JPG,ISIC_0069505.JPG,false,0,keypress(z),500,511543.6999999881,511543.40000000596,508852.991,508853.5,508869.657,511552.883,8,400,19,,ISIC_0061625.JPG
break,html.Screen,4_118_1,2023-11-01T00:29:55.578Z,,0,,,NaN,,,,,,false,,,,511544.6999999881,511544.5,,511543.90000000596,,511552.883,8,400,,,
break_continue,html.Screen,4_118_2,2023-11-01T00:29:55.578Z,,0,,,NaN,,,,,,false,,,,511545.1999999881,511545,,511544.90000000596,,511552.883,8,400,,,
sequence,flow.Sequence,4_118,2023-11-01T00:29:55.578Z,,0,,,2675.3429999999935,completion,,,,,false,,,,511545.2999999821,511545,508852.991,508853.40000000596,508869.657,511552.883,8,400,,,
trial,html.Screen,4_119_0,2023-11-01T00:29:58.456Z,,0,3,,2870.1170000000275,response,ISIC_0030518.JPG,5,ISIC_1782545.JPG,ISIC_1782545.JPG,false,0,keypress(z),500,514423.1999999881,514423,511536.217,511545.40000000596,511552.883,514436.101,8,400,20,,ISIC_0030518.JPG
break,html.Screen,4_119_1,2023-11-01T00:29:58.457Z,,0,,,NaN,,,,,,false,,,,514424.2999999821,514424,,514423.5,,514436.101,8,400,,,
break_continue,html.Screen,4_119_2,2023-11-01T00:29:58.458Z,,0,,,NaN,,,,,,false,,,,514424.6999999881,514424.59999999404,,514424.5,,514436.101,8,400,,,
sequence,flow.Sequence,4_119,2023-11-01T00:29:58.458Z,,0,,,2871.716999994067,completion,,,,,false,,,,514424.90000000596,514424.59999999404,511536.217,511545.40000000596,511552.883,514436.101,8,400,,,
trial,html.Screen,4_120_0,2023-11-01T00:30:02.513Z,,0,3,,4043.2990000059363,response,ISIC_3947143.JPG,6,ISIC_0071196.JPG,ISIC_3947143.JPG,false,1,keypress(m),500,518479.59999999404,518479.40000000596,514419.435,514425,514436.101,518486.201,8,400,21,,ISIC_0071196.JPG
break,html.Screen,4_120_1,2023-11-01T00:30:02.514Z,,0,,,NaN,,,,,,false,,,,518480.6999999881,518480.40000000596,,518479.7999999821,,518486.201,8,400,,,
break_continue,html.Screen,4_120_2,2023-11-01T00:30:02.514Z,,0,,,NaN,,,,,,false,,,,518481.09999999404,518481,,518480.7999999821,,518486.201,8,400,,,
sequence,flow.Sequence,4_120,2023-11-01T00:30:02.515Z,,0,,,4044.898999999976,completion,,,,,false,,,,518481.2999999821,518481,514419.435,514425,514436.101,518486.201,8,400,,,
trial,html.Screen,4_121_0,2023-11-01T00:30:05.516Z,,0,3,,2996.0989999821177,response,ISIC_8504479.JPG,7,ISIC_0060741.JPG,ISIC_8504479.JPG,false,1,keypress(m),500,521482.5,521482.2999999821,518469.535,518481.5,518486.201,521502.747,8,400,22,,ISIC_0060741.JPG
break,html.Screen,4_121_1,2023-11-01T00:30:05.517Z,,0,,,NaN,,,,,,false,,,,521483.40000000596,521483.1999999881,,521482.6999999881,,521502.747,8,400,,,
break_continue,html.Screen,4_121_2,2023-11-01T00:30:05.517Z,,0,,,NaN,,,,,,false,,,,521483.90000000596,521483.7999999821,,521483.59999999404,,521502.747,8,400,,,
sequence,flow.Sequence,4_121,2023-11-01T00:30:05.517Z,,0,,,2997.5989999821177,completion,,,,,false,,,,521484.09999999404,521483.7999999821,518469.535,518481.40000000596,518486.201,521502.747,8,400,,,
trial,html.Screen,4_122_0,2023-11-01T00:30:08.083Z,,0,3,,2546.3529999940656,response,ISIC_0028003.JPG,9,ISIC_8813283.JPG,ISIC_8813283.JPG,false,0,keypress(z),500,524049.5,524049.09999999404,521486.081,521484.1999999881,521502.747,524052.645,8,400,23,,ISIC_0028003.JPG
break,html.Screen,4_122_1,2023-11-01T00:30:08.084Z,,0,,,NaN,,,,,,false,,,,524050.7999999821,524050.5,,524049.7999999821,,524052.645,8,400,,,
break_continue,html.Screen,4_122_2,2023-11-01T00:30:08.085Z,,0,,,NaN,,,,,,false,,,,524051.2999999821,524051.09999999404,,524050.90000000596,,524052.645,8,400,,,
sequence,flow.Sequence,4_122,2023-11-01T00:30:08.085Z,,0,,,2548.3529999940656,completion,,,,,false,,,,524051.5,524051.09999999404,521486.081,521484.09999999404,521502.747,524052.645,8,400,,,
trial,html.Screen,4_123_0,2023-11-01T00:30:10.857Z,,0,3,,2770.8549999999814,response,ISIC_0026498.JPG,7,ISIC_0033299.JPG,ISIC_0026498.JPG,false,1,keypress(m),500,526823.6999999881,526823.5,524035.979,524051.59999999404,524052.645,526836.141,8,400,24,,ISIC_0033299.JPG
break,html.Screen,4_123_1,2023-11-01T00:30:10.858Z,,0,,,NaN,,,,,,false,,,,526824.1999999881,526824.099999994,,526823.7999999821,,526836.141,8,400,,,
break_continue,html.Screen,4_123_2,2023-11-01T00:30:10.858Z,,0,,,NaN,,,,,,false,,,,526824.5,526824.400000006,,526824.400000006,,526836.141,8,400,,,
sequence,flow.Sequence,4_123,2023-11-01T00:30:10.858Z,,0,,,2771.755000005942,completion,,,,,false,,,,526824.599999994,526824.400000006,524035.979,524051.59999999404,524052.645,526836.141,8,400,,,
trial,html.Screen,4_124_0,2023-11-01T00:30:14.271Z,,0,3,,3400.558999988134,response,ISIC_0006116.JPG,7,ISIC_3211915.JPG,ISIC_3211915.JPG,false,0,keypress(z),500,530237,530236.6999999881,526819.475,526824.6999999881,526836.141,530252.671,8,400,25,,ISIC_0006116.JPG
break,html.Screen,4_124_1,2023-11-01T00:30:14.272Z,,0,,,NaN,,,,,,false,,,,530238.099999994,530237.7999999821,,530237.2999999821,,530252.671,8,400,,,
break_continue,html.Screen,4_124_2,2023-11-01T00:30:14.272Z,,0,,,NaN,,,,,,false,,,,530238.599999994,530238.2999999821,,530238.1999999881,,530252.671,8,400,,,
sequence,flow.Sequence,4_124,2023-11-01T00:30:14.272Z,,0,,,3402.1589999821736,completion,,,,,false,,,,530238.7999999821,530238.2999999821,526819.475,526824.6999999881,526836.141,530252.671,8,400,,,
trial,html.Screen,4_125_0,2023-11-01T00:30:19.156Z,,0,3,,4869.4289999940665,response,ISIC_7702483.JPG,6,ISIC_0001139.JPG,ISIC_7702483.JPG,false,1,keypress(m),500,535122.400000006,535122.099999994,530236.005,530239,530252.671,535135.809,8,400,26,,ISIC_0001139.JPG
