sender,sender_type,sender_id,timestamp,meta,,blockNo,condition,duration,ended_on,img_left,img_reveal,img_right,loser,practice,response,response_action,selection_duration,time_commit,time_end,time_render,time_run,time_show,time_switch,total_blocks,total_trials,trialNo,url,winner
informed_consent,html.Screen,0,2023-10-31T00:23:58.042Z,"{""labjs_version"":""20.2.4"",""labjs_build"":{""flavor"":""production"",""commit"":""f5b4a49f956347addd546a832a3327688c2c0fef""},""location"":""https://run.pavlovia.org/MurrayBennett/melanoma-2afc/?participant=65690&platform=sona"",""userAgent"":""Mozilla/5.0 (Windows NT 10.0; Win64; x64) AppleWebKit/537.36 (KHTML, like Gecko) Chrome/118.0.0.0 Safari/537.36"",""platform"":""Win32"",""language"":""en-US"",""locale"":""en-US"",""timeZone"":""America/Chicago"",""timezoneOffset"":300,""screen_width"":1280,""screen_height"":800,""scroll_width"":1280,""scroll_height"":627,""window_innerWidth"":1280,""window_innerHeight"":675,""devicePixelRatio"":2}",,,,3420.151999999721,response,,,,,,consent,click button,,9207.600000000093,9205.19999999972,5751.626,5763.699999999721,5785.048,9206.569,,,,"{""participant"":""65690"",""platform"":""sona""}",
Welcome,html.Screen,1,2023-10-31T00:24:38.716Z,,,,regular,40673.63099999972,response,,,,,,continue,click button,,49881.30000000028,49880.19999999972,9189.872,9207.899999999907,9206.569,49882.389,,,,,
trial,html.Screen,2_0_0,2023-10-31T00:24:47.365Z,,0,0,,8647.21100000009,response,ISIC_0061792.JPG,,ISIC_4679428.JPG,ISIC_0061792.JPG,true,1,keypress(m),500,58529.999999999534,58529.60000000009,49865.7,49881.69999999972,49882.389,58566.285,1,6,1,,ISIC_4679428.JPG
sequence,flow.Sequence,2_0,2023-10-31T00:24:47.365Z,,0,,,8647.21100000009,completion,,,,,true,,,,58530.30000000028,58529.60000000009,49865.7,49881.60000000009,49882.389,58566.285,1,6,,,
trial,html.Screen,2_1_0,2023-10-31T00:24:53.467Z,,0,0,,6064.714999999531,response,ISIC_0776486.JPG,,ISIC_5199497.JPG,ISIC_0776486.JPG,true,1,keypress(m),500,64631.19999999972,64630.999999999534,58522.938,58530.499999999534,58566.285,64655.964,1,6,2,,ISIC_5199497.JPG
sequence,flow.Sequence,2_1,2023-10-31T00:24:53.468Z,,0,,,6064.714999999531,completion,,,,,true,,,,64631.499999999534,64630.999999999534,58522.938,58530.39999999991,58566.285,64655.964,1,6,,,
trial,html.Screen,2_2_0,2023-10-31T00:24:58.565Z,,0,0,,5072.435999999907,response,ISIC_2556187.JPG,,ISIC_8575776.JPG,ISIC_2556187.JPG,true,1,keypress(m),500,69728.80000000028,69728.3999999999,64623.496,64631.80000000028,64655.964,69736.314,1,6,3,,ISIC_8575776.JPG
sequence,flow.Sequence,2_2,2023-10-31T00:24:58.565Z,,0,,,5072.435999999907,completion,,,,,true,,,,69729.1000000001,69728.3999999999,64623.496,64631.69999999972,64655.964,69736.314,1,6,,,
trial,html.Screen,2_3_0,2023-10-31T00:25:02.731Z,,0,0,,4158.185999999536,response,ISIC_9238366.JPG,,ISIC_8141769.JPG,ISIC_9238366.JPG,true,1,keypress(m),500,73894.8999999999,73894.49999999953,69719.625,69729.19999999972,69736.314,73937.872,1,6,4,,ISIC_8141769.JPG
sequence,flow.Sequence,2_3,2023-10-31T00:25:02.731Z,,0,,,4158.185999999536,completion,,,,,true,,,,73895.19999999972,73894.49999999953,69719.625,69729.1000000001,69736.314,73937.872,1,6,,,
trial,html.Screen,2_4_0,2023-10-31T00:25:06.158Z,,0,0,,3384.3279999997176,response,ISIC_9959593.JPG,,ISIC_8949026.JPG,ISIC_9959593.JPG,true,1,keypress(m),500,77322.3999999999,77322.19999999972,73892.064,73895.30000000028,73937.872,77355.866,1,6,5,,ISIC_8949026.JPG
sequence,flow.Sequence,2_4,2023-10-31T00:25:06.159Z,,0,,,3384.3279999997176,completion,,,,,true,,,,77322.6000000001,77322.19999999972,73892.064,73895.30000000028,73937.872,77355.866,1,6,,,
trial,html.Screen,2_5_0,2023-10-31T00:25:09.494Z,,0,0,,3301.5339999999123,response,ISIC_0010479.JPG,,ISIC_0460240.JPG,ISIC_0010479.JPG,true,1,keypress(m),500,80657.8999999999,80657.3999999999,77322.946,77322.80000000028,77355.866,80664.499,1,6,6,,ISIC_0460240.JPG
sequence,flow.Sequence,2_5,2023-10-31T00:25:09.494Z,,0,,,3301.5339999999123,completion,,,,,true,,,,80658.1000000001,80657.3999999999,77322.946,77322.80000000028,77355.866,80664.499,1,6,,,
loop,flow.Loop,2,2023-10-31T00:25:09.494Z,,,,,30775.010999999904,completion,,,,,true,,,,80658.30000000028,80657.3999999999,49865.7,49881.60000000009,49882.389,80664.499,1,6,,,
exp_instructions,html.Screen,3,2023-10-31T00:25:21.986Z,,,,,12484.301000000283,response,,,,,,continue,keypress(Space),,93149.69999999972,93148.80000000028,80647.799,80658.3999999999,80664.499,93174.865,,,,,
trial,html.Screen,4_0_0,2023-10-31T00:25:24.958Z,,0,1,,2947.0349999999016,response,ISIC_0011747.JPG,11,ISIC_1569775.JPG,ISIC_0011747.JPG,false,1,keypress(m),500,96122.19999999972,96121.8999999999,93147.571,93149.8999999999,93174.865,96153.342,8,400,1,,ISIC_1569775.JPG
break,html.Screen,4_0_1,2023-10-31T00:25:24.959Z,,0,,,NaN,,,,,,false,,,,96123.30000000028,96123.1000000001,,96122.49999999953,,96153.342,8,400,,,
break_continue,html.Screen,4_0_2,2023-10-31T00:25:24.960Z,,0,,,NaN,,,,,,false,,,,96123.6000000001,96123.49999999953,,96123.3999999999,,96153.342,8,400,,,
sequence,flow.Sequence,4_0,2023-10-31T00:25:24.960Z,,0,,,2948.634999999529,completion,,,,,false,,,,96123.69999999972,96123.49999999953,93147.571,93149.8999999999,93174.865,96153.342,8,400,,,
trial,html.Screen,4_1_0,2023-10-31T00:25:27.842Z,,0,1,,2852.3579999997164,response,ISIC_0025619.JPG,11,ISIC_0061509.JPG,ISIC_0025619.JPG,false,1,keypress(m),500,99006.19999999972,99005.69999999972,96113.065,96123.80000000028,96153.342,99007.715,8,400,2,,ISIC_0061509.JPG
break,html.Screen,4_1_1,2023-10-31T00:25:27.843Z,,0,,,NaN,,,,,,false,,,,99007.30000000028,99007.1000000001,,99006.3999999999,,99007.715,8,400,,,
break_continue,html.Screen,4_1_2,2023-10-31T00:25:27.843Z,,0,,,NaN,,,,,,false,,,,99007.49999999953,99007.3999999999,,99007.30000000028,,99007.715,8,400,,,
sequence,flow.Sequence,4_1,2023-10-31T00:25:27.844Z,,0,,,2854.0579999999027,completion,,,,,false,,,,99007.6000000001,99007.3999999999,96113.065,96123.80000000028,96153.342,99007.715,8,400,,,
trial,html.Screen,4_2_0,2023-10-31T00:25:31.238Z,,0,1,,3394.284999999538,response,ISIC_0059722.JPG,10,ISIC_0061509.JPG,ISIC_0059722.JPG,false,1,keypress(m),500,102402.30000000028,102401.99999999953,98991.023,99007.69999999972,99007.715,102412.301,8,400,3,,ISIC_0061509.JPG
break,html.Screen,4_2_1,2023-10-31T00:25:31.239Z,,0,,,NaN,,,,,,false,,,,102403.30000000028,102403.1000000001,,102402.49999999953,,102412.301,8,400,,,
break_continue,html.Screen,4_2_2,2023-10-31T00:25:31.239Z,,0,,,NaN,,,,,,false,,,,102403.49999999953,102403.3999999999,,102403.30000000028,,102412.301,8,400,,,
sequence,flow.Sequence,4_2,2023-10-31T00:25:31.240Z,,0,,,3395.6849999999104,completion,,,,,false,,,,102403.49999999953,102403.3999999999,98991.023,99007.6000000001,99007.715,102412.301,8,400,,,
trial,html.Screen,4_3_0,2023-10-31T00:25:33.918Z,,0,1,,2669.1989999995276,response,ISIC_0056257.JPG,14,ISIC_5765854.JPG,ISIC_0056257.JPG,false,1,keypress(m),500,105081.80000000028,105081.49999999953,102395.016,102403.6000000001,102412.301,105086.457,8,400,4,,ISIC_5765854.JPG
break,html.Screen,4_3_1,2023-10-31T00:25:33.919Z,,0,,,NaN,,,,,,false,,,,105082.80000000028,105082.69999999972,,105081.99999999953,,105086.457,8,400,,,
break_continue,html.Screen,4_3_2,2023-10-31T00:25:33.919Z,,0,,,NaN,,,,,,false,,,,105083.1000000001,105083.1000000001,,105082.8999999999,,105086.457,8,400,,,
sequence,flow.Sequence,4_3,2023-10-31T00:25:33.919Z,,0,,,2670.7990000000864,completion,,,,,false,,,,105083.19999999972,105083.1000000001,102395.016,102403.6000000001,102412.301,105086.457,8,400,,,
trial,html.Screen,4_4_0,2023-10-31T00:25:37.640Z,,0,1,,3717.2429999997257,response,ISIC_0028410.JPG,6,ISIC_0030910.JPG,ISIC_0028410.JPG,false,1,keypress(m),500,108804.1000000001,108803.69999999972,105069.719,105083.3999999999,105086.457,108806.121,8,400,5,,ISIC_0030910.JPG
break,html.Screen,4_4_1,2023-10-31T00:25:37.641Z,,0,,,NaN,,,,,,false,,,,108804.99999999953,108804.8999999999,,108804.30000000028,,108806.121,8,400,,,
break_continue,html.Screen,4_4_2,2023-10-31T00:25:37.641Z,,0,,,NaN,,,,,,false,,,,108805.30000000028,108805.30000000028,,108805.1000000001,,108806.121,8,400,,,
sequence,flow.Sequence,4_4,2023-10-31T00:25:37.641Z,,0,,,3718.8430000002845,completion,,,,,false,,,,108805.3999999999,108805.30000000028,105069.719,105083.30000000028,105086.457,108806.121,8,400,,,
trial,html.Screen,4_5_0,2023-10-31T00:25:40.621Z,,0,1,,2978.378999999535,response,ISIC_0355177.JPG,8,ISIC_6983970.JPG,ISIC_0355177.JPG,false,1,keypress(m),500,111784.69999999972,111784.49999999953,108789.413,108805.49999999953,108806.121,111809.614,8,400,6,,ISIC_6983970.JPG
break,html.Screen,4_5_1,2023-10-31T00:25:40.622Z,,0,,,NaN,,,,,,false,,,,111785.69999999972,111785.6000000001,,111784.8999999999,,111809.614,8,400,,,
break_continue,html.Screen,4_5_2,2023-10-31T00:25:40.622Z,,0,,,NaN,,,,,,false,,,,111785.8999999999,111785.8999999999,,111785.80000000028,,111809.614,8,400,,,
sequence,flow.Sequence,4_5,2023-10-31T00:25:40.622Z,,0,,,2979.7789999999077,completion,,,,,false,,,,111785.99999999953,111785.8999999999,108789.413,108805.3999999999,108806.121,111809.614,8,400,,,
trial,html.Screen,4_6_0,2023-10-31T00:25:44.004Z,,0,1,,3357.885999999533,response,ISIC_0032687.JPG,6,ISIC_1175291.JPG,ISIC_0032687.JPG,false,1,keypress(m),500,115167.8999999999,115167.49999999953,111776.569,111786.1000000001,111809.614,115197.976,8,400,7,,ISIC_1175291.JPG
break,html.Screen,4_6_1,2023-10-31T00:25:44.005Z,,0,,,NaN,,,,,,false,,,,115168.8999999999,115168.69999999972,,115167.99999999953,,115197.976,8,400,,,
break_continue,html.Screen,4_6_2,2023-10-31T00:25:44.005Z,,0,,,NaN,,,,,,false,,,,115169.1000000001,115168.99999999953,,115168.99999999953,,115197.976,8,400,,,
sequence,flow.Sequence,4_6,2023-10-31T00:25:44.005Z,,0,,,3359.385999999533,completion,,,,,false,,,,115169.19999999972,115168.99999999953,111776.569,111786.1000000001,111809.614,115197.976,8,400,,,
trial,html.Screen,4_7_0,2023-10-31T00:25:46.807Z,,0,1,,2772.4239999999118,response,ISIC_0597218.JPG,7,ISIC_7587513.JPG,ISIC_0597218.JPG,false,1,keypress(m),500,117970.6000000001,117970.3999999999,115164.48,115169.30000000028,115197.976,117972.152,8,400,8,,ISIC_7587513.JPG
break,html.Screen,4_7_1,2023-10-31T00:25:46.808Z,,0,,,NaN,,,,,,false,,,,117971.6000000001,117971.30000000028,,117970.69999999972,,117972.152,8,400,,,
break_continue,html.Screen,4_7_2,2023-10-31T00:25:46.808Z,,0,,,NaN,,,,,,false,,,,117971.69999999972,117971.69999999972,,117971.6000000001,,117972.152,8,400,,,
sequence,flow.Sequence,4_7,2023-10-31T00:25:46.808Z,,0,,,2773.7239999997255,completion,,,,,false,,,,117971.8999999999,117971.69999999972,115164.48,115169.19999999972,115197.976,117972.152,8,400,,,
trial,html.Screen,4_8_0,2023-10-31T00:25:49.599Z,,0,1,,2790.9480000000913,response,ISIC_0053611.JPG,6,ISIC_0034207.JPG,ISIC_0053611.JPG,false,1,keypress(m),500,120763.30000000028,120763.1000000001,117955.414,117971.8999999999,117972.152,120767.701,8,400,9,,ISIC_0034207.JPG
break,html.Screen,4_8_1,2023-10-31T00:25:49.600Z,,0,,,NaN,,,,,,false,,,,120764.19999999972,120764.1000000001,,120763.49999999953,,120767.701,8,400,,,
break_continue,html.Screen,4_8_2,2023-10-31T00:25:49.600Z,,0,,,NaN,,,,,,false,,,,120764.49999999953,120764.3999999999,,120764.30000000028,,120767.701,8,400,,,
sequence,flow.Sequence,4_8,2023-10-31T00:25:49.601Z,,0,,,2792.247999999905,completion,,,,,false,,,,120764.6000000001,120764.3999999999,117955.414,117971.8999999999,117972.152,120767.701,8,400,,,
trial,html.Screen,4_9_0,2023-10-31T00:25:52.490Z,,0,1,,2884.0990000002785,response,ISIC_0027325.JPG,8,ISIC_0056796.JPG,ISIC_0056796.JPG,false,0,keypress(z),500,123653.8999999999,123651.80000000028,120751.087,120764.6000000001,120767.701,123661.142,8,400,10,,ISIC_0027325.JPG
break,html.Screen,4_9_1,2023-10-31T00:25:52.491Z,,0,,,NaN,,,,,,false,,,,123654.6000000001,123654.49999999953,,123653.99999999953,,123661.142,8,400,,,
break_continue,html.Screen,4_9_2,2023-10-31T00:25:52.491Z,,0,,,NaN,,,,,,false,,,,123654.99999999953,123654.8999999999,,123654.80000000028,,123661.142,8,400,,,
sequence,flow.Sequence,4_9,2023-10-31T00:25:52.491Z,,0,,,2887.198999999906,completion,,,,,false,,,,123654.99999999953,123654.8999999999,120751.087,120764.6000000001,120767.701,123661.142,8,400,,,
trial,html.Screen,4_10_0,2023-10-31T00:25:55.629Z,,0,1,,3131.2579999998998,response,ISIC_3561065.JPG,11,ISIC_0010962.JPG,ISIC_0010962.JPG,false,0,keypress(z),500,126792.80000000028,126792.3999999999,123644.45,123655.1000000001,123661.142,126796.785,8,400,11,,ISIC_3561065.JPG
break,html.Screen,4_10_1,2023-10-31T00:25:55.630Z,,0,,,NaN,,,,,,false,,,,126793.80000000028,126793.6000000001,,126792.8999999999,,126796.785,8,400,,,
break_continue,html.Screen,4_10_2,2023-10-31T00:25:55.630Z,,0,,,NaN,,,,,,false,,,,126793.99999999953,126793.99999999953,,126793.8999999999,,126796.785,8,400,,,
sequence,flow.Sequence,4_10,2023-10-31T00:25:55.630Z,,0,,,3132.8579999995272,completion,,,,,false,,,,126794.19999999972,126793.99999999953,123644.45,123655.1000000001,123661.142,126796.785,8,400,,,
trial,html.Screen,4_11_0,2023-10-31T00:25:58.344Z,,0,1,,2710.6149999999034,response,ISIC_8436492.JPG,8,ISIC_2922104.JPG,ISIC_8436492.JPG,false,1,keypress(m),500,129507.69999999972,129507.3999999999,126780.094,126794.19999999972,126796.785,129536.611,8,400,12,,ISIC_2922104.JPG
break,html.Screen,4_11_1,2023-10-31T00:25:58.345Z,,0,,,NaN,,,,,,false,,,,129508.80000000028,129508.6000000001,,129507.99999999953,,129536.611,8,400,,,
break_continue,html.Screen,4_11_2,2023-10-31T00:25:58.345Z,,0,,,NaN,,,,,,false,,,,129509.1000000001,129508.99999999953,,129508.8999999999,,129536.611,8,400,,,
sequence,flow.Sequence,4_11,2023-10-31T00:25:58.345Z,,0,,,2712.214999999531,completion,,,,,false,,,,129509.19999999972,129508.99999999953,126780.094,126794.19999999972,126796.785,129536.611,8,400,,,
trial,html.Screen,4_12_0,2023-10-31T00:26:00.961Z,,0,1,,2587.689000000275,response,ISIC_6983970.JPG,6,ISIC_5439597.JPG,ISIC_6983970.JPG,false,1,keypress(m),500,132124.6000000001,132124.30000000028,129506.319,129509.19999999972,129536.611,132156.64,8,400,13,,ISIC_5439597.JPG
break,html.Screen,4_12_1,2023-10-31T00:26:00.961Z,,0,,,NaN,,,,,,false,,,,132125.3999999999,132125.30000000028,,132124.69999999972,,132156.64,8,400,,,
break_continue,html.Screen,4_12_2,2023-10-31T00:26:00.962Z,,0,,,NaN,,,,,,false,,,,132125.69999999972,132125.69999999972,,132125.49999999953,,132156.64,8,400,,,
sequence,flow.Sequence,4_12,2023-10-31T00:26:00.962Z,,0,,,2589.088999999716,completion,,,,,false,,,,132125.80000000028,132125.69999999972,129506.319,129509.19999999972,129536.611,132156.64,8,400,,,
trial,html.Screen,4_13_0,2023-10-31T00:26:06.457Z,,0,1,,5463.960000000079,response,ISIC_0268701.JPG,5,ISIC_0027561.JPG,ISIC_0027561.JPG,false,0,keypress(z),500,137621.1000000001,137620.6000000001,132124.381,132125.80000000028,132156.64,137648.623,8,400,14,,ISIC_0268701.JPG
break,html.Screen,4_13_1,2023-10-31T00:26:06.458Z,,0,,,NaN,,,,,,false,,,,137622.19999999972,137621.99999999953,,137621.30000000028,,137648.623,8,400,,,
break_continue,html.Screen,4_13_2,2023-10-31T00:26:06.459Z,,0,,,NaN,,,,,,false,,,,137622.6000000001,137622.49999999953,,137622.30000000028,,137648.623,8,400,,,
sequence,flow.Sequence,4_13,2023-10-31T00:26:06.459Z,,0,,,5465.85999999952,completion,,,,,false,,,,137622.69999999972,137622.49999999953,132124.381,132125.80000000028,132156.64,137648.623,8,400,,,
trial,html.Screen,4_14_0,2023-10-31T00:26:09.118Z,,0,1,,2633.376999999542,response,ISIC_0056679.JPG,13,ISIC_0001120.JPG,ISIC_0056679.JPG,false,1,keypress(m),500,140282.30000000028,140281.99999999953,137614.778,137622.80000000028,137648.623,140285.626,8,400,15,,ISIC_0001120.JPG
break,html.Screen,4_14_1,2023-10-31T00:26:09.119Z,,0,,,NaN,,,,,,false,,,,140283.1000000001,140282.99999999953,,140282.3999999999,,140285.626,8,400,,,
break_continue,html.Screen,4_14_2,2023-10-31T00:26:09.119Z,,0,,,NaN,,,,,,false,,,,140283.3999999999,140283.30000000028,,140283.19999999972,,140285.626,8,400,,,
sequence,flow.Sequence,4_14,2023-10-31T00:26:09.120Z,,0,,,2634.677000000287,completion,,,,,false,,,,140283.49999999953,140283.30000000028,137614.778,137622.80000000028,137648.623,140285.626,8,400,,,
trial,html.Screen,4_15_0,2023-10-31T00:26:11.831Z,,0,1,,2708.67400000029,response,ISIC_0071335.JPG,10,ISIC_7758102.JPG,ISIC_7758102.JPG,false,0,keypress(z),500,142994.69999999972,142994.30000000028,140268.939,140283.49999999953,140285.626,143023.407,8,400,16,,ISIC_0071335.JPG
break,html.Screen,4_15_1,2023-10-31T00:26:11.832Z,,0,,,NaN,,,,,,false,,,,142995.69999999972,142995.49999999953,,142994.8999999999,,143023.407,8,400,,,
break_continue,html.Screen,4_15_2,2023-10-31T00:26:11.832Z,,0,,,NaN,,,,,,false,,,,142995.8999999999,142995.80000000028,,142995.69999999972,,143023.407,8,400,,,
sequence,flow.Sequence,4_15,2023-10-31T00:26:11.832Z,,0,,,2710.17400000029,completion,,,,,false,,,,142995.99999999953,142995.80000000028,140268.939,140283.49999999953,140285.626,143023.407,8,400,,,
trial,html.Screen,4_16_0,2023-10-31T00:26:14.493Z,,0,1,,2633.292999999714,response,ISIC_5964676.JPG,11,ISIC_1883330.JPG,ISIC_5964676.JPG,false,1,keypress(m),500,145656.8999999999,145656.69999999972,142989.247,142996.1000000001,143023.407,145660.634,8,400,17,,ISIC_1883330.JPG
break,html.Screen,4_16_1,2023-10-31T00:26:14.494Z,,0,,,NaN,,,,,,false,,,,145657.80000000028,145657.6000000001,,145656.99999999953,,145660.634,8,400,,,
break_continue,html.Screen,4_16_2,2023-10-31T00:26:14.494Z,,0,,,NaN,,,,,,false,,,,145657.99999999953,145657.8999999999,,145657.80000000028,,145660.634,8,400,,,
sequence,flow.Sequence,4_16,2023-10-31T00:26:14.494Z,,0,,,2634.4929999999003,completion,,,,,false,,,,145658.1000000001,145657.8999999999,142989.247,142995.99999999953,143023.407,145660.634,8,400,,,
trial,html.Screen,4_17_0,2023-10-31T00:26:17.480Z,,0,1,,2982.466000000102,response,ISIC_5859812.JPG,7,ISIC_0033059.JPG,ISIC_0033059.JPG,false,0,keypress(z),500,148643.6000000001,148643.1000000001,145643.942,145658.1000000001,145660.634,148682.303,8,400,18,,ISIC_5859812.JPG
break,html.Screen,4_17_1,2023-10-31T00:26:17.481Z,,0,,,NaN,,,,,,false,,,,148644.6000000001,148644.49999999953,,148643.80000000028,,148682.303,8,400,,,
break_continue,html.Screen,4_17_2,2023-10-31T00:26:17.481Z,,0,,,NaN,,,,,,false,,,,148644.80000000028,148644.80000000028,,148644.69999999972,,148682.303,8,400,,,
sequence,flow.Sequence,4_17,2023-10-31T00:26:17.481Z,,0,,,2984.1660000002885,completion,,,,,false,,,,148644.99999999953,148644.80000000028,145643.942,145658.1000000001,145660.634,148682.303,8,400,,,
trial,html.Screen,4_18_0,2023-10-31T00:26:20.034Z,,0,1,,2515.19699999952,response,ISIC_6785680.JPG,6,ISIC_6442221.JPG,ISIC_6785680.JPG,false,1,keypress(m),500,151197.8999999999,151197.49999999953,148632.567,148645.1000000001,148682.303,151201.826,8,400,19,,ISIC_6442221.JPG
break,html.Screen,4_18_1,2023-10-31T00:26:20.035Z,,0,,,NaN,,,,,,false,,,,151198.8999999999,151198.69999999972,,151197.99999999953,,151201.826,8,400,,,
break_continue,html.Screen,4_18_2,2023-10-31T00:26:20.035Z,,0,,,NaN,,,,,,false,,,,151199.1000000001,151199.1000000001,,151198.8999999999,,151201.826,8,400,,,
sequence,flow.Sequence,4_18,2023-10-31T00:26:20.036Z,,0,,,2516.7970000000787,completion,,,,,false,,,,151199.8999999999,151199.1000000001,148632.567,148645.1000000001,148682.303,151201.826,8,400,,,
trial,html.Screen,4_19_0,2023-10-31T00:26:22.797Z,,0,1,,2758.8739999997197,response,ISIC_0062364.JPG,8,ISIC_3737739.JPG,ISIC_0062364.JPG,false,1,keypress(m),500,153960.8999999999,153960.69999999972,151185.139,151199.99999999953,151201.826,153975.01,8,400,20,,ISIC_3737739.JPG
break,html.Screen,4_19_1,2023-10-31T00:26:22.798Z,,0,,,NaN,,,,,,false,,,,153961.8999999999,153961.69999999972,,153960.99999999953,,153975.01,8,400,,,
break_continue,html.Screen,4_19_2,2023-10-31T00:26:22.798Z,,0,,,NaN,,,,,,false,,,,153962.30000000028,153962.19999999972,,153961.99999999953,,153975.01,8,400,,,
sequence,flow.Sequence,4_19,2023-10-31T00:26:22.798Z,,0,,,2760.3739999997197,completion,,,,,false,,,,153962.3999999999,153962.19999999972,151185.139,151199.99999999953,151201.826,153975.01,8,400,,,
trial,html.Screen,4_20_0,2023-10-31T00:26:25.510Z,,0,1,,2698.6899999997113,response,ISIC_0024423.JPG,7,ISIC_0056900.JPG,ISIC_0024423.JPG,false,1,keypress(m),500,156673.99999999953,156673.69999999972,153956.145,153962.3999999999,153975.01,156677.083,8,400,21,,ISIC_0056900.JPG
break,html.Screen,4_20_1,2023-10-31T00:26:25.511Z,,0,,,NaN,,,,,,false,,,,156675.1000000001,156674.99999999953,,156674.30000000028,,156677.083,8,400,,,
break_continue,html.Screen,4_20_2,2023-10-31T00:26:25.511Z,,0,,,NaN,,,,,,false,,,,156675.3999999999,156675.30000000028,,156675.30000000028,,156677.083,8,400,,,
sequence,flow.Sequence,4_20,2023-10-31T00:26:25.512Z,,0,,,2700.29000000027,completion,,,,,false,,,,156675.49999999953,156675.30000000028,153956.145,153962.3999999999,153975.01,156677.083,8,400,,,
trial,html.Screen,4_21_0,2023-10-31T00:26:28.193Z,,0,1,,2679.916999999521,response,ISIC_1097830.JPG,11,ISIC_1050000.JPG,ISIC_1050000.JPG,false,0,keypress(z),500,159357.49999999953,159356.99999999953,156660.391,156675.49999999953,156677.083,159397.282,8,400,22,,ISIC_1097830.JPG
break,html.Screen,4_21_1,2023-10-31T00:26:28.195Z,,0,,,NaN,,,,,,false,,,,159358.6000000001,159358.3999999999,,159357.80000000028,,159397.282,8,400,,,
break_continue,html.Screen,4_21_2,2023-10-31T00:26:28.195Z,,0,,,NaN,,,,,,false,,,,159358.8999999999,159358.80000000028,,159358.69999999972,,159397.282,8,400,,,
sequence,flow.Sequence,4_21,2023-10-31T00:26:28.195Z,,0,,,2681.717000000266,completion,,,,,false,,,,159358.99999999953,159358.80000000028,156660.391,156675.49999999953,156677.083,159397.282,8,400,,,
trial,html.Screen,4_22_0,2023-10-31T00:26:31.434Z,,0,1,,3200.6179999999003,response,ISIC_9073150.JPG,11,ISIC_3310625.JPG,ISIC_9073150.JPG,false,1,keypress(m),500,162598.19999999972,162597.8999999999,159348.251,159359.19999999972,159397.282,162602.107,8,400,23,,ISIC_3310625.JPG
break,html.Screen,4_22_1,2023-10-31T00:26:31.435Z,,0,,,NaN,,,,,,false,,,,162599.19999999972,162599.19999999972,,162598.30000000028,,162602.107,8,400,,,
break_continue,html.Screen,4_22_2,2023-10-31T00:26:31.436Z,,0,,,NaN,,,,,,false,,,,162599.49999999953,162599.3999999999,,162599.30000000028,,162602.107,8,400,,,
sequence,flow.Sequence,4_22,2023-10-31T00:26:31.436Z,,0,,,3202.1179999999003,completion,,,,,false,,,,162599.49999999953,162599.3999999999,159348.251,159359.19999999972,159397.282,162602.107,8,400,,,
trial,html.Screen,4_23_0,2023-10-31T00:26:34.117Z,,0,1,,2678.6930000002903,response,ISIC_0061029.JPG,11,ISIC_2808323.JPG,ISIC_0061029.JPG,false,1,keypress(m),500,165281.1000000001,165280.80000000028,162585.42,162599.69999999972,162602.107,165323.328,8,400,24,,ISIC_2808323.JPG
break,html.Screen,4_23_1,2023-10-31T00:26:34.119Z,,0,,,NaN,,,,,,false,,,,165283.1000000001,165281.99999999953,,165281.3999999999,,165323.328,8,400,,,
break_continue,html.Screen,4_23_2,2023-10-31T00:26:34.119Z,,0,,,NaN,,,,,,false,,,,165283.3999999999,165283.30000000028,,165283.19999999972,,165323.328,8,400,,,
sequence,flow.Sequence,4_23,2023-10-31T00:26:34.120Z,,0,,,2681.1930000002903,completion,,,,,false,,,,165283.49999999953,165283.30000000028,162585.42,162599.69999999972,162602.107,165323.328,8,400,,,
trial,html.Screen,4_24_0,2023-10-31T00:26:37.323Z,,0,1,,3163.6719999995257,response,ISIC_0071693.JPG,5,ISIC_0054080.JPG,ISIC_0071693.JPG,false,1,keypress(m),500,168487.30000000028,168486.99999999953,165272.719,165283.6000000001,165323.328,168529.845,8,400,25,,ISIC_0054080.JPG
break,html.Screen,4_24_1,2023-10-31T00:26:37.324Z,,0,,,NaN,,,,,,false,,,,168488.19999999972,168488.1000000001,,168487.49999999953,,168529.845,8,400,,,
break_continue,html.Screen,4_24_2,2023-10-31T00:26:37.325Z,,0,,,NaN,,,,,,false,,,,168488.49999999953,168488.3999999999,,168488.30000000028,,168529.845,8,400,,,
sequence,flow.Sequence,4_24,2023-10-31T00:26:37.325Z,,0,,,3165.0719999998983,completion,,,,,false,,,,168488.6000000001,168488.3999999999,165272.719,165283.49999999953,165323.328,168529.845,8,400,,,
trial,html.Screen,4_25_0,2023-10-31T00:26:40.021Z,,0,1,,2654.8549999997194,response,ISIC_0062162.JPG,9,ISIC_1414751.JPG,ISIC_1414751.JPG,false,0,keypress(z),500,171185.1000000001,171184.69999999972,168478.037,168488.6000000001,168529.845,171215.504,8,400,26,,ISIC_0062162.JPG
break,html.Screen,4_25_1,2023-10-31T00:26:40.022Z,,0,,,NaN,,,,,,false,,,,171185.99999999953,171185.8999999999,,171185.19999999972,,171215.504,8,400,,,
break_continue,html.Screen,4_25_2,2023-10-31T00:26:40.022Z,,0,,,NaN,,,,,,false,,,,171186.30000000028,171186.19999999972,,171186.19999999972,,171215.504,8,400,,,
sequence,flow.Sequence,4_25,2023-10-31T00:26:40.022Z,,0,,,2656.3549999997194,completion,,,,,false,,,,171186.3999999999,171186.19999999972,168478.037,168488.6000000001,168529.845,171215.504,8,400,,,
trial,html.Screen,4_26_0,2023-10-31T00:26:42.670Z,,0,1,,2618.096000000107,response,ISIC_5971574.JPG,10,ISIC_0032248.JPG,ISIC_0032248.JPG,false,0,keypress(z),500,173833.99999999953,173833.6000000001,171182.62,171186.3999999999,171215.504,173835.702,8,400,27,,ISIC_5971574.JPG
break,html.Screen,4_26_1,2023-10-31T00:26:42.671Z,,0,,,NaN,,,,,,false,,,,173834.99999999953,173834.8999999999,,173834.19999999972,,173835.702,8,400,,,
break_continue,html.Screen,4_26_2,2023-10-31T00:26:42.671Z,,0,,,NaN,,,,,,false,,,,173835.19999999972,173835.19999999972,,173835.1000000001,,173835.702,8,400,,,
sequence,flow.Sequence,4_26,2023-10-31T00:26:42.671Z,,0,,,2619.6959999997343,completion,,,,,false,,,,173835.30000000028,173835.19999999972,171182.62,171186.3999999999,171215.504,173835.702,8,400,,,
trial,html.Screen,4_27_0,2023-10-31T00:26:45.513Z,,0,1,,2840.6979999999166,response,ISIC_0071904.JPG,6,ISIC_5364330.JPG,ISIC_0071904.JPG,false,1,keypress(m),500,176676.69999999972,176676.3999999999,173819.015,173835.3999999999,173835.702,176707.496,8,400,28,,ISIC_5364330.JPG
break,html.Screen,4_27_1,2023-10-31T00:26:45.514Z,,0,,,NaN,,,,,,false,,,,176677.69999999972,176677.49999999953,,176676.8999999999,,176707.496,8,400,,,
break_continue,html.Screen,4_27_2,2023-10-31T00:26:45.514Z,,0,,,NaN,,,,,,false,,,,176677.99999999953,176677.8999999999,,176677.69999999972,,176707.496,8,400,,,
sequence,flow.Sequence,4_27,2023-10-31T00:26:45.514Z,,0,,,2842.1979999999166,completion,,,,,false,,,,176678.1000000001,176677.8999999999,173819.015,173835.30000000028,173835.702,176707.496,8,400,,,
trial,html.Screen,4_28_0,2023-10-31T00:26:48.787Z,,0,1,,3243.3040000002657,response,ISIC_0014920.JPG,10,ISIC_0054963.JPG,ISIC_0054963.JPG,false,0,keypress(z),500,179951.1000000001,179950.80000000028,176672.847,176678.1000000001,176707.496,179980.216,8,400,29,,ISIC_0014920.JPG
break,html.Screen,4_28_1,2023-10-31T00:26:48.788Z,,0,,,NaN,,,,,,false,,,,179951.99999999953,179951.80000000028,,179951.30000000028,,179980.216,8,400,,,
break_continue,html.Screen,4_28_2,2023-10-31T00:26:48.788Z,,0,,,NaN,,,,,,false,,,,179952.3999999999,179952.19999999972,,179952.1000000001,,179980.216,8,400,,,
sequence,flow.Sequence,4_28,2023-10-31T00:26:48.789Z,,0,,,3244.703999999707,completion,,,,,false,,,,179952.3999999999,179952.19999999972,176672.847,176678.1000000001,176707.496,179980.216,8,400,,,
trial,html.Screen,4_29_0,2023-10-31T00:26:51.482Z,,0,1,,2665.983999999735,response,ISIC_0067857.JPG,9,ISIC_0003593.JPG,ISIC_0067857.JPG,false,1,keypress(m),500,182646.49999999953,182646.19999999972,179944.743,179952.49999999953,179980.216,182649.798,8,400,30,,ISIC_0003593.JPG
break,html.Screen,4_29_1,2023-10-31T00:26:51.483Z,,0,,,NaN,,,,,,false,,,,182647.3999999999,182647.1000000001,,182646.69999999972,,182649.798,8,400,,,
break_continue,html.Screen,4_29_2,2023-10-31T00:26:51.484Z,,0,,,NaN,,,,,,false,,,,182647.6000000001,182647.6000000001,,182647.49999999953,,182649.798,8,400,,,
sequence,flow.Sequence,4_29,2023-10-31T00:26:51.484Z,,0,,,2667.3840000001073,completion,,,,,false,,,,182647.69999999972,182647.6000000001,179944.743,179952.49999999953,179980.216,182649.798,8,400,,,
trial,html.Screen,4_30_0,2023-10-31T00:26:54.086Z,,0,1,,2599.7019999995246,response,ISIC_8692950.JPG,6,ISIC_5546806.JPG,ISIC_5546806.JPG,false,0,keypress(z),500,185249.8999999999,185249.49999999953,182633.09,182647.69999999972,182649.798,185252.723,8,400,31,,ISIC_8692950.JPG
break,html.Screen,4_30_1,2023-10-31T00:26:54.087Z,,0,,,NaN,,,,,,false,,,,185250.99999999953,185250.80000000028,,185250.1000000001,,185252.723,8,400,,,
break_continue,html.Screen,4_30_2,2023-10-31T00:26:54.087Z,,0,,,NaN,,,,,,false,,,,185251.1000000001,185251.1000000001,,185250.99999999953,,185252.723,8,400,,,
sequence,flow.Sequence,4_30,2023-10-31T00:26:54.087Z,,0,,,2601.3020000000834,completion,,,,,false,,,,185251.30000000028,185251.1000000001,182633.09,182647.69999999972,182649.798,185252.723,8,400,,,
trial,html.Screen,4_31_0,2023-10-31T00:26:56.720Z,,0,1,,2630.877000000095,response,ISIC_0011701.JPG,6,ISIC_5360921.JPG,ISIC_0011701.JPG,false,1,keypress(m),500,187883.8999999999,187883.6000000001,185236.036,185251.30000000028,185252.723,187907.053,8,400,32,,ISIC_5360921.JPG
break,html.Screen,4_31_1,2023-10-31T00:26:56.721Z,,0,,,NaN,,,,,,false,,,,187884.8999999999,187884.80000000028,,187884.19999999972,,187907.053,8,400,,,
break_continue,html.Screen,4_31_2,2023-10-31T00:26:56.721Z,,0,,,NaN,,,,,,false,,,,187885.19999999972,187885.1000000001,,187884.99999999953,,187907.053,8,400,,,
sequence,flow.Sequence,4_31,2023-10-31T00:26:56.721Z,,0,,,2632.377000000095,completion,,,,,false,,,,187885.30000000028,187885.1000000001,185236.036,185251.30000000028,185252.723,187907.053,8,400,,,
trial,html.Screen,4_32_0,2023-10-31T00:26:59.592Z,,0,1,,2848.5470000000787,response,ISIC_0148751.JPG,8,ISIC_5578611.JPG,ISIC_5578611.JPG,false,0,keypress(z),500,190755.8999999999,190755.6000000001,187873.431,187885.3999999999,187907.053,190761.265,8,400,33,,ISIC_0148751.JPG
break,html.Screen,4_32_1,2023-10-31T00:26:59.593Z,,0,,,NaN,,,,,,false,,,,190756.99999999953,190756.80000000028,,190756.19999999972,,190761.265,8,400,,,
break_continue,html.Screen,4_32_2,2023-10-31T00:26:59.593Z,,0,,,NaN,,,,,,false,,,,190757.19999999972,190757.19999999972,,190756.99999999953,,190761.265,8,400,,,
sequence,flow.Sequence,4_32,2023-10-31T00:26:59.593Z,,0,,,2850.146999999706,completion,,,,,false,,,,190757.3999999999,190757.19999999972,187873.431,187885.3999999999,187907.053,190761.265,8,400,,,
trial,html.Screen,4_33_0,2023-10-31T00:27:02.270Z,,0,1,,2672.5350000002654,response,ISIC_0025702.JPG,10,ISIC_0033938.JPG,ISIC_0033938.JPG,false,0,keypress(z),500,193434.19999999972,193433.80000000028,190744.573,190757.3999999999,190761.265,193449.001,8,400,34,,ISIC_0025702.JPG
break,html.Screen,4_33_1,2023-10-31T00:27:02.271Z,,0,,,NaN,,,,,,false,,,,193435.19999999972,193434.99999999953,,193434.3999999999,,193449.001,8,400,,,
break_continue,html.Screen,4_33_2,2023-10-31T00:27:02.271Z,,0,,,NaN,,,,,,false,,,,193435.3999999999,193435.30000000028,,193435.30000000028,,193449.001,8,400,,,
sequence,flow.Sequence,4_33,2023-10-31T00:27:02.272Z,,0,,,2674.0350000002654,completion,,,,,false,,,,193435.49999999953,193435.30000000028,190744.573,190757.3999999999,190761.265,193449.001,8,400,,,
trial,html.Screen,4_34_0,2023-10-31T00:27:05.111Z,,0,1,,2825.1989999997313,response,ISIC_4960406.JPG,8,ISIC_0000145.JPG,ISIC_0000145.JPG,false,0,keypress(z),500,196274.69999999972,196274.19999999972,193432.303,193435.69999999972,193449.001,196302.198,8,400,35,,ISIC_4960406.JPG
break,html.Screen,4_34_1,2023-10-31T00:27:05.112Z,,0,,,NaN,,,,,,false,,,,196275.69999999972,196275.6000000001,,196274.8999999999,,196302.198,8,400,,,
break_continue,html.Screen,4_34_2,2023-10-31T00:27:05.112Z,,0,,,NaN,,,,,,false,,,,196275.8999999999,196275.8999999999,,196275.69999999972,,196302.198,8,400,,,
sequence,flow.Sequence,4_34,2023-10-31T00:27:05.112Z,,0,,,2826.8989999999176,completion,,,,,false,,,,196275.99999999953,196275.8999999999,193432.303,193435.69999999972,193449.001,196302.198,8,400,,,
trial,html.Screen,4_35_0,2023-10-31T00:27:07.979Z,,0,1,,2840.1020000002754,response,ISIC_8803600.JPG,9,ISIC_9947624.JPG,ISIC_8803600.JPG,false,1,keypress(m),500,199142.6000000001,199142.30000000028,196269.368,196276.1000000001,196302.198,199143.432,8,400,36,,ISIC_9947624.JPG
break,html.Screen,4_35_1,2023-10-31T00:27:07.980Z,,0,,,NaN,,,,,,false,,,,199143.6000000001,199143.49999999953,,199142.80000000028,,199143.432,8,400,,,
break_continue,html.Screen,4_35_2,2023-10-31T00:27:07.980Z,,0,,,NaN,,,,,,false,,,,199143.8999999999,199143.80000000028,,199143.69999999972,,199143.432,8,400,,,
sequence,flow.Sequence,4_35,2023-10-31T00:27:07.980Z,,0,,,2841.6020000002754,completion,,,,,false,,,,199143.99999999953,199143.80000000028,196269.368,196276.1000000001,196302.198,199143.432,8,400,,,
trial,html.Screen,4_36_0,2023-10-31T00:27:10.689Z,,0,1,,2709.467999999906,response,ISIC_0062765.JPG,7,ISIC_8353090.JPG,ISIC_0062765.JPG,false,1,keypress(m),500,201853.19999999972,201852.8999999999,199126.701,199144.1000000001,199143.432,201855.368,8,400,37,,ISIC_8353090.JPG
break,html.Screen,4_36_1,2023-10-31T00:27:10.690Z,,0,,,NaN,,,,,,false,,,,201854.19999999972,201854.1000000001,,201853.49999999953,,201855.368,8,400,,,
break_continue,html.Screen,4_36_2,2023-10-31T00:27:10.690Z,,0,,,NaN,,,,,,false,,,,201854.3999999999,201854.3999999999,,201854.30000000028,,201855.368,8,400,,,
sequence,flow.Sequence,4_36,2023-10-31T00:27:10.691Z,,0,,,2710.967999999906,completion,,,,,false,,,,201854.6000000001,201854.3999999999,199126.701,199143.99999999953,199143.432,201855.368,8,400,,,
trial,html.Screen,4_37_0,2023-10-31T00:27:14.154Z,,0,1,,3462.2320000001055,response,ISIC_8087949.JPG,6,ISIC_0834745.JPG,ISIC_0834745.JPG,false,0,keypress(z),500,205318.1000000001,205317.6000000001,201838.754,201854.69999999972,201855.368,205349.077,8,400,38,,ISIC_8087949.JPG
break,html.Screen,4_37_1,2023-10-31T00:27:14.155Z,,0,,,NaN,,,,,,false,,,,205319.30000000028,205318.99999999953,,205318.30000000028,,205349.077,8,400,,,
break_continue,html.Screen,4_37_2,2023-10-31T00:27:14.156Z,,0,,,NaN,,,,,,false,,,,205319.80000000028,205319.69999999972,,205319.3999999999,,205349.077,8,400,,,
sequence,flow.Sequence,4_37,2023-10-31T00:27:14.156Z,,0,,,3464.331999999733,completion,,,,,false,,,,205319.99999999953,205319.69999999972,201838.754,201854.6000000001,201855.368,205349.077,8,400,,,
trial,html.Screen,4_38_0,2023-10-31T00:27:17.153Z,,0,1,,2967.723000000289,response,ISIC_8073555.JPG,14,ISIC_0000398.JPG,ISIC_8073555.JPG,false,1,keypress(m),500,208317.1000000001,208316.80000000028,205315.767,205319.99999999953,205349.077,208319.715,8,400,39,,ISIC_0000398.JPG
break,html.Screen,4_38_1,2023-10-31T00:27:17.154Z,,0,,,NaN,,,,,,false,,,,208317.99999999953,208317.8999999999,,208317.30000000028,,208319.715,8,400,,,
break_continue,html.Screen,4_38_2,2023-10-31T00:27:17.154Z,,0,,,NaN,,,,,,false,,,,208318.3999999999,208318.30000000028,,208318.1000000001,,208319.715,8,400,,,
sequence,flow.Sequence,4_38,2023-10-31T00:27:17.154Z,,0,,,2969.223000000289,completion,,,,,false,,,,208318.49999999953,208318.30000000028,205315.767,205319.99999999953,205349.077,208319.715,8,400,,,
trial,html.Screen,4_39_0,2023-10-31T00:27:19.928Z,,0,1,,2772.3850000000966,response,ISIC_6821316.JPG,7,ISIC_0024298.JPG,ISIC_6821316.JPG,false,1,keypress(m),500,211092.3999999999,211092.1000000001,208303.03,208318.6000000001,208319.715,211094.726,8,400,40,,ISIC_0024298.JPG
break,html.Screen,4_39_1,2023-10-31T00:27:19.929Z,,0,,,NaN,,,,,,false,,,,211093.3999999999,211093.19999999972,,211092.6000000001,,211094.726,8,400,,,
break_continue,html.Screen,4_39_2,2023-10-31T00:27:19.930Z,,0,,,NaN,,,,,,false,,,,211093.6000000001,211093.6000000001,,211093.49999999953,,211094.726,8,400,,,
sequence,flow.Sequence,4_39,2023-10-31T00:27:19.930Z,,0,,,2773.8850000000966,completion,,,,,false,,,,211093.69999999972,211093.6000000001,208303.03,208318.6000000001,208319.715,211094.726,8,400,,,
trial,html.Screen,4_40_0,2023-10-31T00:27:22.770Z,,0,1,,2839.2739999995392,response,ISIC_0609067.JPG,13,ISIC_0055797.JPG,ISIC_0609067.JPG,false,1,keypress(m),500,213934.30000000028,213933.99999999953,211077.991,211093.8999999999,211094.726,213939.546,8,400,41,,ISIC_0055797.JPG
break,html.Screen,4_40_1,2023-10-31T00:27:22.771Z,,0,,,NaN,,,,,,false,,,,213935.1000000001,213934.99999999953,,213934.3999999999,,213939.546,8,400,,,
break_continue,html.Screen,4_40_2,2023-10-31T00:27:22.771Z,,0,,,NaN,,,,,,false,,,,213935.3999999999,213935.19999999972,,213935.19999999972,,213939.546,8,400,,,
sequence,flow.Sequence,4_40,2023-10-31T00:27:22.771Z,,0,,,2840.4739999997255,completion,,,,,false,,,,213935.3999999999,213935.19999999972,211077.991,211093.8999999999,211094.726,213939.546,8,400,,,
trial,html.Screen,4_41_0,2023-10-31T00:27:25.456Z,,0,1,,2680.3539999999048,response,ISIC_2059085.JPG,11,ISIC_0010385.JPG,ISIC_0010385.JPG,false,0,keypress(z),500,216620.1000000001,216619.8999999999,213922.932,213935.6000000001,213939.546,216649.762,8,400,42,,ISIC_2059085.JPG
break,html.Screen,4_41_1,2023-10-31T00:27:25.457Z,,0,,,NaN,,,,,,false,,,,216620.8999999999,216620.80000000028,,216620.30000000028,,216649.762,8,400,,,
break_continue,html.Screen,4_41_2,2023-10-31T00:27:25.457Z,,0,,,NaN,,,,,,false,,,,216621.19999999972,216621.1000000001,,216620.99999999953,,216649.762,8,400,,,
sequence,flow.Sequence,4_41,2023-10-31T00:27:25.457Z,,0,,,2681.554000000091,completion,,,,,false,,,,216621.30000000028,216621.1000000001,213922.932,213935.49999999953,213939.546,216649.762,8,400,,,
trial,html.Screen,4_42_0,2023-10-31T00:27:28.118Z,,0,1,,2632.0380000002915,response,ISIC_0060266.JPG,7,ISIC_0034044.JPG,ISIC_0060266.JPG,false,1,keypress(m),500,219282.1000000001,219281.80000000028,216616.218,216621.3999999999,216649.762,219286.29,8,400,43,,ISIC_0034044.JPG
break,html.Screen,4_42_1,2023-10-31T00:27:28.119Z,,0,,,NaN,,,,,,false,,,,219282.8999999999,219282.69999999972,,219282.19999999972,,219286.29,8,400,,,
break_continue,html.Screen,4_42_2,2023-10-31T00:27:28.119Z,,0,,,NaN,,,,,,false,,,,219283.1000000001,219282.99999999953,,219282.99999999953,,219286.29,8,400,,,
sequence,flow.Sequence,4_42,2023-10-31T00:27:28.119Z,,0,,,2633.2379999995464,completion,,,,,false,,,,219283.19999999972,219282.99999999953,216616.218,216621.30000000028,216649.762,219286.29,8,400,,,
trial,html.Screen,4_43_0,2023-10-31T00:27:31.294Z,,0,1,,3171.709999999526,response,ISIC_0207349.JPG,6,ISIC_6588982.JPG,ISIC_0207349.JPG,false,1,keypress(m),500,222458.3999999999,222457.99999999953,219269.605,219283.30000000028,219286.29,222462.737,8,400,44,,ISIC_6588982.JPG
break,html.Screen,4_43_1,2023-10-31T00:27:31.295Z,,0,,,NaN,,,,,,false,,,,222459.30000000028,222459.19999999972,,222458.6000000001,,222462.737,8,400,,,
break_continue,html.Screen,4_43_2,2023-10-31T00:27:31.295Z,,0,,,NaN,,,,,,false,,,,222459.49999999953,222459.49999999953,,222459.3999999999,,222462.737,8,400,,,
sequence,flow.Sequence,4_43,2023-10-31T00:27:31.296Z,,0,,,3173.209999999526,completion,,,,,false,,,,222459.49999999953,222459.49999999953,219269.605,219283.30000000028,219286.29,222462.737,8,400,,,
trial,html.Screen,4_44_0,2023-10-31T00:27:34.598Z,,0,1,,3298.5630000002857,response,ISIC_0010962.JPG,8,ISIC_0046422.JPG,ISIC_0010962.JPG,false,1,keypress(m),500,225761.80000000028,225761.30000000028,222446.002,222459.69999999972,222462.737,225796.958,8,400,45,,ISIC_0046422.JPG
break,html.Screen,4_44_1,2023-10-31T00:27:34.599Z,,0,,,NaN,,,,,,false,,,,225762.8999999999,225762.69999999972,,225761.99999999953,,225796.958,8,400,,,
break_continue,html.Screen,4_44_2,2023-10-31T00:27:34.599Z,,0,,,NaN,,,,,,false,,,,225763.1000000001,225762.99999999953,,225762.8999999999,,225796.958,8,400,,,
sequence,flow.Sequence,4_44,2023-10-31T00:27:34.599Z,,0,,,3300.2629999995406,completion,,,,,false,,,,225763.1000000001,225762.99999999953,222446.002,222459.6000000001,222462.737,225796.958,8,400,,,
trial,html.Screen,4_45_0,2023-10-31T00:27:37.917Z,,0,1,,3283.4419999998936,response,ISIC_2746860.JPG,6,ISIC_3391254.JPG,ISIC_3391254.JPG,false,0,keypress(z),500,229080.69999999972,229080.3999999999,225754.935,225763.19999999972,225796.958,229084.654,8,400,46,,ISIC_2746860.JPG
break,html.Screen,4_45_1,2023-10-31T00:27:37.918Z,,0,,,NaN,,,,,,false,,,,229081.69999999972,229081.49999999953,,229080.8999999999,,229084.654,8,400,,,
break_continue,html.Screen,4_45_2,2023-10-31T00:27:37.918Z,,0,,,NaN,,,,,,false,,,,229081.80000000028,229081.80000000028,,229081.69999999972,,229084.654,8,400,,,
sequence,flow.Sequence,4_45,2023-10-31T00:27:37.918Z,,0,,,3284.842000000266,completion,,,,,false,,,,229081.99999999953,229081.80000000028,225754.935,225763.19999999972,225796.958,229084.654,8,400,,,
trial,html.Screen,4_46_0,2023-10-31T00:27:40.548Z,,0,1,,2626.845999999525,response,ISIC_0071550.JPG,9,ISIC_5476277.JPG,ISIC_0071550.JPG,false,1,keypress(m),500,231711.8999999999,231711.49999999953,229067.962,229082.1000000001,229084.654,231721.774,8,400,47,,ISIC_5476277.JPG
break,html.Screen,4_46_1,2023-10-31T00:27:40.549Z,,0,,,NaN,,,,,,false,,,,231712.80000000028,231712.6000000001,,231711.99999999953,,231721.774,8,400,,,
break_continue,html.Screen,4_46_2,2023-10-31T00:27:40.549Z,,0,,,NaN,,,,,,false,,,,231713.1000000001,231712.8999999999,,231712.80000000028,,231721.774,8,400,,,
sequence,flow.Sequence,4_46,2023-10-31T00:27:40.549Z,,0,,,2628.2459999998973,completion,,,,,false,,,,231713.1000000001,231712.8999999999,229067.962,229081.99999999953,229084.654,231721.774,8,400,,,
trial,html.Screen,4_47_0,2023-10-31T00:27:43.421Z,,0,1,,2862.9259999997157,response,ISIC_0061516.JPG,4,ISIC_0059855.JPG,ISIC_0059855.JPG,false,0,keypress(z),500,234585.1000000001,234584.69999999972,231704.817,231713.19999999972,231721.774,234626.207,8,400,48,,ISIC_0061516.JPG
break,html.Screen,4_47_1,2023-10-31T00:27:43.422Z,,0,,,NaN,,,,,,false,,,,234585.8999999999,234585.69999999972,,234585.1000000001,,234626.207,8,400,,,
break_continue,html.Screen,4_47_2,2023-10-31T00:27:43.422Z,,0,,,NaN,,,,,,false,,,,234586.1000000001,234585.99999999953,,234585.99999999953,,234626.207,8,400,,,
sequence,flow.Sequence,4_47,2023-10-31T00:27:43.422Z,,0,,,2864.2259999995294,completion,,,,,false,,,,234586.19999999972,234585.99999999953,231704.817,231713.19999999972,231721.774,234626.207,8,400,,,
trial,html.Screen,4_48_0,2023-10-31T00:27:46.099Z,,0,1,,2636.8930000000983,response,ISIC_3750329.JPG,5,ISIC_0033902.JPG,ISIC_0033902.JPG,false,0,keypress(z),500,237263.3999999999,237263.1000000001,234579.987,234586.30000000028,234626.207,237297.543,8,400,49,,ISIC_3750329.JPG
break,html.Screen,4_48_1,2023-10-31T00:27:46.100Z,,0,,,NaN,,,,,,false,,,,237264.30000000028,237264.19999999972,,237263.6000000001,,237297.543,8,400,,,
break_continue,html.Screen,4_48_2,2023-10-31T00:27:46.101Z,,0,,,NaN,,,,,,false,,,,237264.6000000001,237264.49999999953,,237264.3999999999,,237297.543,8,400,,,
sequence,flow.Sequence,4_48,2023-10-31T00:27:46.101Z,,0,,,2638.2929999995395,completion,,,,,false,,,,237264.69999999972,237264.49999999953,234579.987,234586.19999999972,234626.207,237297.543,8,400,,,
trial,html.Screen,4_49_0,2023-10-31T00:27:49.095Z,,0,1,,2961.456999999529,response,ISIC_0033122.JPG,13,ISIC_0011337.JPG,ISIC_0033122.JPG,false,1,keypress(m),500,240259.3999999999,240258.99999999953,237258.348,237264.69999999972,237297.543,240284.901,8,400,50,,ISIC_0011337.JPG
break,html.Screen,4_49_1,2023-10-31T00:27:59.103Z,,0,,,9998.496999999974,timeout,,,,,false,,,,250267.99999999953,250266.676,240251.772,240259.6000000001,240284.901,250283.398,8,400,,,
break_continue,html.Screen,4_49_2,2023-10-31T00:28:00.978Z,,0,,,1851.1019999995478,response,,,,,false,continue,keypress(Space),,252142.3999999999,252134.49999999953,250266.676,250268.1000000001,250283.398,252159.286,8,400,,,
sequence,flow.Sequence,4_49,2023-10-31T00:28:00.978Z,,0,,,14836.95699999953,completion,,,,,false,,,,252142.6000000001,252134.49999999953,237258.348,237264.69999999972,237297.543,252159.286,8,400,,,
trial,html.Screen,4_50_0,2023-10-31T00:28:06.520Z,,0,2,,5525.113999999914,response,ISIC_1757941.JPG,5,ISIC_0010719.JPG,ISIC_0010719.JPG,false,0,keypress(z),500,257684.69999999972,257684.3999999999,252142.537,252142.6000000001,252159.286,257692.779,8,400,1,,ISIC_1757941.JPG
break,html.Screen,4_50_1,2023-10-31T00:28:06.521Z,,0,,,NaN,,,,,,false,,,,257685.69999999972,257685.49999999953,,257684.8999999999,,257692.779,8,400,,,
break_continue,html.Screen,4_50_2,2023-10-31T00:28:06.521Z,,0,,,NaN,,,,,,false,,,,257685.8999999999,257685.8999999999,,257685.80000000028,,257692.779,8,400,,,
sequence,flow.Sequence,4_50,2023-10-31T00:28:06.522Z,,0,,,5526.613999999914,completion,,,,,false,,,,257686.1000000001,257685.8999999999,252142.537,252142.6000000001,252159.286,257692.779,8,400,,,
trial,html.Screen,4_51_0,2023-10-31T00:28:09.906Z,,0,2,,3377.02100000027,response,ISIC_6298228.JPG,6,ISIC_0026112.JPG,ISIC_0026112.JPG,false,0,keypress(z),500,261069.99999999953,261069.80000000028,257676.096,257686.1000000001,257692.779,261098.828,8,400,2,,ISIC_6298228.JPG
break,html.Screen,4_51_1,2023-10-31T00:28:09.907Z,,0,,,NaN,,,,,,false,,,,261070.99999999953,261070.8999999999,,261070.30000000028,,261098.828,8,400,,,
break_continue,html.Screen,4_51_2,2023-10-31T00:28:09.907Z,,0,,,NaN,,,,,,false,,,,261071.19999999972,261071.19999999972,,261071.1000000001,,261098.828,8,400,,,
sequence,flow.Sequence,4_51,2023-10-31T00:28:09.907Z,,0,,,3378.420999999711,completion,,,,,false,,,,261071.3999999999,261071.19999999972,257676.096,257686.1000000001,257692.779,261098.828,8,400,,,
trial,html.Screen,4_52_0,2023-10-31T00:28:13.436Z,,0,2,,3501.7720000000845,response,ISIC_0027951.JPG,6,ISIC_9390107.JPG,ISIC_0027951.JPG,false,1,keypress(m),500,264600.99999999953,264600.6000000001,261061.98,261071.49999999953,261098.828,264604.299,8,400,3,,ISIC_9390107.JPG
break,html.Screen,4_52_1,2023-10-31T00:28:13.437Z,,0,,,NaN,,,,,,false,,,,264601.99999999953,264601.8000000003,,264601.1999999997,,264604.299,8,400,,,
break_continue,html.Screen,4_52_2,2023-10-31T00:28:13.438Z,,0,,,NaN,,,,,,false,,,,264602.3000000003,264602.1999999997,,264602.1000000001,,264604.299,8,400,,,
sequence,flow.Sequence,4_52,2023-10-31T00:28:13.438Z,,0,,,3503.371999999712,completion,,,,,false,,,,264602.3000000003,264602.1999999997,261061.98,261071.3999999999,261098.828,264604.299,8,400,,,
trial,html.Screen,4_53_0,2023-10-31T00:28:16.710Z,,0,2,,3269.801000000094,response,ISIC_9935444.JPG,9,ISIC_0347984.JPG,ISIC_9935444.JPG,false,1,keypress(m),500,267874.49999999953,267874.1000000001,264587.615,264602.3999999999,264604.299,267909.578,8,400,4,,ISIC_0347984.JPG
break,html.Screen,4_53_1,2023-10-31T00:28:16.711Z,,0,,,NaN,,,,,,false,,,,267875.3999999999,267875.3999999999,,267874.6999999997,,267909.578,8,400,,,
break_continue,html.Screen,4_53_2,2023-10-31T00:28:16.711Z,,0,,,NaN,,,,,,false,,,,267875.6999999997,267875.6999999997,,267875.6000000001,,267909.578,8,400,,,
sequence,flow.Sequence,4_53,2023-10-31T00:28:16.711Z,,0,,,3271.4009999997215,completion,,,,,false,,,,267875.8999999999,267875.6999999997,264587.615,264602.3999999999,264604.299,267909.578,8,400,,,
trial,html.Screen,4_54_0,2023-10-31T00:28:19.483Z,,0,2,,2737.2220000003,response,ISIC_2661598.JPG,7,ISIC_3170155.JPG,ISIC_2661598.JPG,false,1,keypress(m),500,270647.1999999997,270646.8000000003,267875.068,267875.8999999999,267909.578,270663.105,8,400,5,,ISIC_3170155.JPG
break,html.Screen,4_54_1,2023-10-31T00:28:19.484Z,,0,,,NaN,,,,,,false,,,,270648.1000000001,270647.8999999999,,270647.3000000003,,270663.105,8,400,,,
break_continue,html.Screen,4_54_2,2023-10-31T00:28:19.484Z,,0,,,NaN,,,,,,false,,,,270648.3000000003,270648.3000000003,,270648.1999999997,,270663.105,8,400,,,
sequence,flow.Sequence,4_54,2023-10-31T00:28:19.484Z,,0,,,2738.7220000003,completion,,,,,false,,,,270648.49999999953,270648.3000000003,267875.068,267875.8999999999,267909.578,270663.105,8,400,,,
trial,html.Screen,4_55_0,2023-10-31T00:28:22.211Z,,0,2,,2712.195000000298,response,ISIC_0034101.JPG,12,ISIC_3767325.JPG,ISIC_0034101.JPG,false,1,keypress(m),500,273375.6999999997,273375.3000000003,270644.09,270648.49999999953,270663.105,273417.651,8,400,6,,ISIC_3767325.JPG
break,html.Screen,4_55_1,2023-10-31T00:28:22.212Z,,0,,,NaN,,,,,,false,,,,273376.6000000001,273376.49999999953,,273375.8000000003,,273417.651,8,400,,,
break_continue,html.Screen,4_55_2,2023-10-31T00:28:22.212Z,,0,,,NaN,,,,,,false,,,,273376.8999999999,273376.8000000003,,273376.6999999997,,273417.651,8,400,,,
sequence,flow.Sequence,4_55,2023-10-31T00:28:22.213Z,,0,,,2713.695000000298,completion,,,,,false,,,,273377.8999999999,273376.8000000003,270644.09,270648.49999999953,270663.105,273417.651,8,400,,,
trial,html.Screen,4_56_0,2023-10-31T00:28:26.443Z,,0,2,,4189.949000000081,response,ISIC_2974214.JPG,7,ISIC_0073227.JPG,ISIC_0073227.JPG,false,0,keypress(z),500,277607.8999999999,277607.6000000001,273375.356,273377.99999999953,273417.651,277640.214,8,400,7,,ISIC_2974214.JPG
break,html.Screen,4_56_1,2023-10-31T00:28:26.444Z,,0,,,NaN,,,,,,false,,,,277608.8999999999,277608.6999999997,,277608.1000000001,,277640.214,8,400,,,
break_continue,html.Screen,4_56_2,2023-10-31T00:28:26.445Z,,0,,,NaN,,,,,,false,,,,277609.1999999997,277609.1000000001,,277608.8999999999,,277640.214,8,400,,,
sequence,flow.Sequence,4_56,2023-10-31T00:28:26.445Z,,0,,,4191.449000000081,completion,,,,,false,,,,277609.3000000003,277609.1000000001,273375.356,273377.99999999953,273417.651,277640.214,8,400,,,
trial,html.Screen,4_57_0,2023-10-31T00:28:29.173Z,,0,2,,2696.785999999556,response,ISIC_4197990.JPG,8,ISIC_0012288.JPG,ISIC_4197990.JPG,false,1,keypress(m),500,280337.3999999999,280336.99999999953,277606.535,277609.3999999999,277640.214,280344.351,8,400,8,,ISIC_0012288.JPG
break,html.Screen,4_57_1,2023-10-31T00:28:29.174Z,,0,,,NaN,,,,,,false,,,,280338.49999999953,280338.3999999999,,280337.6999999997,,280344.351,8,400,,,
break_continue,html.Screen,4_57_2,2023-10-31T00:28:29.174Z,,0,,,NaN,,,,,,false,,,,280338.8000000003,280338.8000000003,,280338.6999999997,,280344.351,8,400,,,
sequence,flow.Sequence,4_57,2023-10-31T00:28:29.174Z,,0,,,2698.5860000003013,completion,,,,,false,,,,280338.99999999953,280338.8000000003,277606.535,277609.3999999999,277640.214,280344.351,8,400,,,
trial,html.Screen,4_58_0,2023-10-31T00:28:32.479Z,,0,2,,3298.749000000069,response,ISIC_0046773.JPG,5,ISIC_1490986.JPG,ISIC_0046773.JPG,false,1,keypress(m),500,283643.3999999999,283643.1000000001,280327.099,280339.1000000001,280344.351,283646.007,8,400,9,,ISIC_1490986.JPG
break,html.Screen,4_58_1,2023-10-31T00:28:32.480Z,,0,,,NaN,,,,,,false,,,,283644.49999999953,283644.3999999999,,283643.6000000001,,283646.007,8,400,,,
break_continue,html.Screen,4_58_2,2023-10-31T00:28:32.480Z,,0,,,NaN,,,,,,false,,,,283644.6999999997,283644.6000000001,,283644.49999999953,,283646.007,8,400,,,
sequence,flow.Sequence,4_58,2023-10-31T00:28:32.480Z,,0,,,3300.249000000069,completion,,,,,false,,,,283644.8000000003,283644.6000000001,280327.099,280338.99999999953,280344.351,283646.007,8,400,,,
trial,html.Screen,4_59_0,2023-10-31T00:28:36.361Z,,0,2,,3879.293000000296,response,ISIC_8918703.JPG,12,ISIC_5576354.JPG,ISIC_5576354.JPG,false,0,keypress(z),500,287525.6000000001,287525.3000000003,283629.353,283644.8999999999,283646.007,287555.426,8,400,10,,ISIC_8918703.JPG
break,html.Screen,4_59_1,2023-10-31T00:28:36.362Z,,0,,,NaN,,,,,,false,,,,287526.3000000003,287526.1999999997,,287525.6999999997,,287555.426,8,400,,,
break_continue,html.Screen,4_59_2,2023-10-31T00:28:36.362Z,,0,,,NaN,,,,,,false,,,,287526.6000000001,287526.6000000001,,287526.3999999999,,287555.426,8,400,,,
sequence,flow.Sequence,4_59,2023-10-31T00:28:36.362Z,,0,,,3880.59300000011,completion,,,,,false,,,,287526.8000000003,287526.6000000001,283629.353,283644.8000000003,283646.007,287555.426,8,400,,,
trial,html.Screen,4_60_0,2023-10-31T00:28:40.782Z,,0,2,,4390.874000000302,response,ISIC_5813642.JPG,5,ISIC_0059609.JPG,ISIC_0059609.JPG,false,0,keypress(z),500,291946.6000000001,291946.3000000003,287521.309,287526.99999999953,287555.426,291978.798,8,400,11,,ISIC_5813642.JPG
break,html.Screen,4_60_1,2023-10-31T00:28:40.783Z,,0,,,NaN,,,,,,false,,,,291947.6000000001,291947.3999999999,,291946.8000000003,,291978.798,8,400,,,
break_continue,html.Screen,4_60_2,2023-10-31T00:28:40.783Z,,0,,,NaN,,,,,,false,,,,291947.8000000003,291947.6999999997,,291947.6000000001,,291978.798,8,400,,,
sequence,flow.Sequence,4_60,2023-10-31T00:28:40.783Z,,0,,,4392.273999999743,completion,,,,,false,,,,291947.8999999999,291947.6999999997,287521.309,287526.8999999999,287555.426,291978.798,8,400,,,
trial,html.Screen,4_61_0,2023-10-31T00:28:44.344Z,,0,2,,3529.5020000002696,response,ISIC_6447663.JPG,8,ISIC_0009975.JPG,ISIC_6447663.JPG,false,1,keypress(m),500,295508.49999999953,295508.3000000003,291944.853,291947.8999999999,291978.798,295533.661,8,400,12,,ISIC_0009975.JPG
break,html.Screen,4_61_1,2023-10-31T00:28:44.345Z,,0,,,NaN,,,,,,false,,,,295509.6999999997,295509.49999999953,,295508.8000000003,,295533.661,8,400,,,
break_continue,html.Screen,4_61_2,2023-10-31T00:28:44.345Z,,0,,,NaN,,,,,,false,,,,295509.99999999953,295509.99999999953,,295509.8000000003,,295533.661,8,400,,,
sequence,flow.Sequence,4_61,2023-10-31T00:28:44.346Z,,0,,,3531.2019999995246,completion,,,,,false,,,,295510.1999999997,295509.99999999953,291944.853,291947.8999999999,291978.798,295533.661,8,400,,,
trial,html.Screen,4_62_0,2023-10-31T00:28:47.987Z,,0,2,,3617.0389999996987,response,ISIC_0029470.JPG,9,ISIC_5546806.JPG,ISIC_0029470.JPG,false,1,keypress(m),500,299151.1000000001,299150.6999999997,295500.204,295510.3000000003,295533.661,299155.513,8,400,13,,ISIC_5546806.JPG
break,html.Screen,4_62_1,2023-10-31T00:28:47.988Z,,0,,,NaN,,,,,,false,,,,299152.1000000001,299151.8999999999,,299151.3999999999,,299155.513,8,400,,,
break_continue,html.Screen,4_62_2,2023-10-31T00:28:47.988Z,,0,,,NaN,,,,,,false,,,,299152.3000000003,299152.1999999997,,299152.1999999997,,299155.513,8,400,,,
sequence,flow.Sequence,4_62,2023-10-31T00:28:47.988Z,,0,,,3618.5389999996987,completion,,,,,false,,,,299152.3999999999,299152.1999999997,295500.204,295510.1999999997,295533.661,299155.513,8,400,,,
trial,html.Screen,4_63_0,2023-10-31T00:28:51.817Z,,0,2,,3825.087000000116,response,ISIC_0030921.JPG,5,ISIC_0033016.JPG,ISIC_0033016.JPG,false,0,keypress(z),500,302980.8999999999,302980.6000000001,299138.83,299152.3999999999,299155.513,303011.843,8,400,14,,ISIC_0030921.JPG
break,html.Screen,4_63_1,2023-10-31T00:28:51.818Z,,0,,,NaN,,,,,,false,,,,302981.8999999999,302981.6999999997,,302981.1999999997,,303011.843,8,400,,,
break_continue,html.Screen,4_63_2,2023-10-31T00:28:51.818Z,,0,,,NaN,,,,,,false,,,,302982.1000000001,302982.1000000001,,302981.99999999953,,303011.843,8,400,,,
sequence,flow.Sequence,4_63,2023-10-31T00:28:51.818Z,,0,,,3826.587000000116,completion,,,,,false,,,,302982.1999999997,302982.1000000001,299138.83,299152.3999999999,299155.513,303011.843,8,400,,,
trial,html.Screen,4_64_0,2023-10-31T00:28:54.575Z,,0,2,,2726.156999999541,response,ISIC_6208762.JPG,9,ISIC_4015508.JPG,ISIC_4015508.JPG,false,0,keypress(z),500,305738.3999999999,305737.99999999953,302977.766,302982.3000000003,303011.843,305765.626,8,400,15,,ISIC_6208762.JPG
break,html.Screen,4_64_1,2023-10-31T00:28:54.576Z,,0,,,NaN,,,,,,false,,,,305739.3999999999,305739.3000000003,,305738.6000000001,,305765.626,8,400,,,
break_continue,html.Screen,4_64_2,2023-10-31T00:28:54.576Z,,0,,,NaN,,,,,,false,,,,305739.6999999997,305739.6000000001,,305739.49999999953,,305765.626,8,400,,,
sequence,flow.Sequence,4_64,2023-10-31T00:28:54.576Z,,0,,,2727.7570000000997,completion,,,,,false,,,,305739.8000000003,305739.6000000001,302977.766,302982.3000000003,303011.843,305765.626,8,400,,,
trial,html.Screen,4_65_0,2023-10-31T00:28:58.293Z,,0,2,,3690.5739999997313,response,ISIC_7271718.JPG,6,ISIC_0011546.JPG,ISIC_0011546.JPG,false,0,keypress(z),500,309456.6000000001,309456.1999999997,305733.849,305739.8000000003,305765.626,309488.334,8,400,16,,ISIC_7271718.JPG
break,html.Screen,4_65_1,2023-10-31T00:28:58.294Z,,0,,,NaN,,,,,,false,,,,309457.6000000001,309457.3999999999,,309456.8000000003,,309488.334,8,400,,,
break_continue,html.Screen,4_65_2,2023-10-31T00:28:58.294Z,,0,,,NaN,,,,,,false,,,,309457.8000000003,309457.8000000003,,309457.6999999997,,309488.334,8,400,,,
sequence,flow.Sequence,4_65,2023-10-31T00:28:58.294Z,,0,,,3692.17400000029,completion,,,,,false,,,,309457.8999999999,309457.8000000003,305733.849,305739.8000000003,305765.626,309488.334,8,400,,,
trial,html.Screen,4_66_0,2023-10-31T00:29:01.119Z,,0,2,,2794.5659999999334,response,ISIC_9244393.JPG,6,ISIC_0010938.JPG,ISIC_0010938.JPG,false,0,keypress(z),500,312283.1000000001,312282.8999999999,309454.912,309457.99999999953,309488.334,312325.001,8,400,17,,ISIC_9244393.JPG
break,html.Screen,4_66_1,2023-10-31T00:29:01.120Z,,0,,,NaN,,,,,,false,,,,312283.99999999953,312283.8000000003,,312283.3000000003,,312325.001,8,400,,,
break_continue,html.Screen,4_66_2,2023-10-31T00:29:01.120Z,,0,,,NaN,,,,,,false,,,,312284.1999999997,312284.1999999997,,312284.1000000001,,312325.001,8,400,,,
sequence,flow.Sequence,4_66,2023-10-31T00:29:01.120Z,,0,,,2795.865999999747,completion,,,,,false,,,,312284.3000000003,312284.1999999997,309454.912,309457.99999999953,309488.334,312325.001,8,400,,,
trial,html.Screen,4_67_0,2023-10-31T00:29:04.201Z,,0,2,,3039.498999999545,response,ISIC_0003281.JPG,8,ISIC_0201767.JPG,ISIC_0201767.JPG,false,0,keypress(z),500,315364.8999999999,315364.49999999953,312275.018,312284.3999999999,312325.001,315396.45,8,400,18,,ISIC_0003281.JPG
break,html.Screen,4_67_1,2023-10-31T00:29:04.202Z,,0,,,NaN,,,,,,false,,,,315365.8000000003,315365.6000000001,,315365.1000000001,,315396.45,8,400,,,
break_continue,html.Screen,4_67_2,2023-10-31T00:29:04.202Z,,0,,,NaN,,,,,,false,,,,315366.1000000001,315365.99999999953,,315365.8999999999,,315396.45,8,400,,,
sequence,flow.Sequence,4_67,2023-10-31T00:29:04.202Z,,0,,,3040.998999999545,completion,,,,,false,,,,315366.1999999997,315365.99999999953,312275.018,312284.3000000003,312325.001,315396.45,8,400,,,
trial,html.Screen,4_68_0,2023-10-31T00:29:06.926Z,,0,2,,2693.0499999995227,response,ISIC_0054671.JPG,6,ISIC_0003333.JPG,ISIC_0054671.JPG,false,1,keypress(m),500,318089.8000000003,318089.49999999953,315364.668,315366.3000000003,315396.45,318134.474,8,400,19,,ISIC_0003333.JPG
break,html.Screen,4_68_1,2023-10-31T00:29:06.927Z,,0,,,NaN,,,,,,false,,,,318090.8999999999,318090.8000000003,,318089.99999999953,,318134.474,8,400,,,
break_continue,html.Screen,4_68_2,2023-10-31T00:29:06.927Z,,0,,,NaN,,,,,,false,,,,318091.1000000001,318091.1000000001,,318090.99999999953,,318134.474,8,400,,,
sequence,flow.Sequence,4_68,2023-10-31T00:29:06.927Z,,0,,,2694.6500000000815,completion,,,,,false,,,,318091.1999999997,318091.1000000001,315364.668,315366.1999999997,315396.45,318134.474,8,400,,,
trial,html.Screen,4_69_0,2023-10-31T00:29:10.947Z,,0,2,,3976.225999999733,response,ISIC_0501108.JPG,8,ISIC_7134821.JPG,ISIC_0501108.JPG,false,1,keypress(m),500,322111.1000000001,322110.6999999997,318088.604,318091.3000000003,318134.474,322140.075,8,400,20,,ISIC_7134821.JPG
break,html.Screen,4_69_1,2023-10-31T00:29:10.948Z,,0,,,NaN,,,,,,false,,,,322112.1000000001,322111.8000000003,,322111.1999999997,,322140.075,8,400,,,
break_continue,html.Screen,4_69_2,2023-10-31T00:29:10.948Z,,0,,,NaN,,,,,,false,,,,322112.3999999999,322112.3000000003,,322112.1000000001,,322140.075,8,400,,,
sequence,flow.Sequence,4_69,2023-10-31T00:29:10.949Z,,0,,,3977.826000000292,completion,,,,,false,,,,322112.49999999953,322112.3000000003,318088.604,318091.3000000003,318134.474,322140.075,8,400,,,
trial,html.Screen,4_70_0,2023-10-31T00:29:14.456Z,,0,2,,3479.124999999709,response,ISIC_8353090.JPG,10,ISIC_4574865.JPG,ISIC_8353090.JPG,false,1,keypress(m),500,325619.6000000001,325619.1999999997,322106.839,322112.49999999953,322140.075,325660.55,8,400,21,,ISIC_4574865.JPG
break,html.Screen,4_70_1,2023-10-31T00:29:14.457Z,,0,,,NaN,,,,,,false,,,,325620.3999999999,325620.3000000003,,325619.6000000001,,325660.55,8,400,,,
break_continue,html.Screen,4_70_2,2023-10-31T00:29:14.457Z,,0,,,NaN,,,,,,false,,,,325620.6999999997,325620.6000000001,,325620.49999999953,,325660.55,8,400,,,
sequence,flow.Sequence,4_70,2023-10-31T00:29:14.457Z,,0,,,3480.5250000000815,completion,,,,,false,,,,325620.8000000003,325620.6000000001,322106.839,322112.49999999953,322140.075,325660.55,8,400,,,
trial,html.Screen,4_71_0,2023-10-31T00:29:17.599Z,,0,2,,3102.1499999997322,response,ISIC_5785408.JPG,10,ISIC_0011863.JPG,ISIC_0011863.JPG,false,0,keypress(z),500,328762.99999999953,328762.6999999997,325610.378,325620.8000000003,325660.55,328768.229,8,400,22,,ISIC_5785408.JPG
break,html.Screen,4_71_1,2023-10-31T00:29:17.600Z,,0,,,NaN,,,,,,false,,,,328763.99999999953,328763.8999999999,,328763.1999999997,,328768.229,8,400,,,
break_continue,html.Screen,4_71_2,2023-10-31T00:29:17.600Z,,0,,,NaN,,,,,,false,,,,328764.3000000003,328764.1999999997,,328764.1000000001,,328768.229,8,400,,,
sequence,flow.Sequence,4_71,2023-10-31T00:29:17.600Z,,0,,,3103.6499999997322,completion,,,,,false,,,,328764.3999999999,328764.1999999997,325610.378,325620.8000000003,325660.55,328768.229,8,400,,,
trial,html.Screen,4_72_0,2023-10-31T00:29:20.789Z,,0,2,,3184.871000000101,response,ISIC_3586824.JPG,9,ISIC_0032192.JPG,ISIC_0032192.JPG,false,0,keypress(z),500,331953.3000000003,331953.1000000001,328751.523,328764.49999999953,328768.229,331987.96,8,400,23,,ISIC_3586824.JPG
break,html.Screen,4_72_1,2023-10-31T00:29:20.791Z,,0,,,NaN,,,,,,false,,,,331954.49999999953,331954.1999999997,,331953.6000000001,,331987.96,8,400,,,
break_continue,html.Screen,4_72_2,2023-10-31T00:29:20.791Z,,0,,,NaN,,,,,,false,,,,331954.6999999997,331954.6000000001,,331954.6000000001,,331987.96,8,400,,,
sequence,flow.Sequence,4_72,2023-10-31T00:29:20.791Z,,0,,,3186.371000000101,completion,,,,,false,,,,331954.8000000003,331954.6000000001,328751.523,328764.3999999999,328768.229,331987.96,8,400,,,
trial,html.Screen,4_73_0,2023-10-31T00:29:24.318Z,,0,2,,3493.140000000072,response,ISIC_7959386.JPG,11,ISIC_0006757.JPG,ISIC_0006757.JPG,false,0,keypress(z),500,335481.3999999999,335481.1000000001,331943.721,331954.8999999999,331987.96,335510.063,8,400,24,,ISIC_7959386.JPG
break,html.Screen,4_73_1,2023-10-31T00:29:24.319Z,,0,,,NaN,,,,,,false,,,,335482.6000000001,335482.3999999999,,335481.6999999997,,335510.063,8,400,,,
break_continue,html.Screen,4_73_2,2023-10-31T00:29:24.319Z,,0,,,NaN,,,,,,false,,,,335482.8999999999,335482.8000000003,,335482.6000000001,,335510.063,8,400,,,
sequence,flow.Sequence,4_73,2023-10-31T00:29:24.319Z,,0,,,3494.8400000002584,completion,,,,,false,,,,335482.99999999953,335482.8000000003,331943.721,331954.8999999999,331987.96,335510.063,8,400,,,
trial,html.Screen,4_74_0,2023-10-31T00:29:28.149Z,,0,2,,3802.5370000000694,response,ISIC_9950866.JPG,7,ISIC_3274493.JPG,ISIC_3274493.JPG,false,0,keypress(z),500,339312.8999999999,339312.6000000001,335476.672,335483.1000000001,335510.063,339331.155,8,400,25,,ISIC_9950866.JPG
break,html.Screen,4_74_1,2023-10-31T00:29:28.150Z,,0,,,NaN,,,,,,false,,,,339313.6999999997,339313.6000000001,,339312.99999999953,,339331.155,8,400,,,
break_continue,html.Screen,4_74_2,2023-10-31T00:29:28.150Z,,0,,,NaN,,,,,,false,,,,339313.8999999999,339313.8999999999,,339313.6999999997,,339331.155,8,400,,,
sequence,flow.Sequence,4_74,2023-10-31T00:29:28.150Z,,0,,,3803.836999999883,completion,,,,,false,,,,339313.99999999953,339313.8999999999,335476.672,335482.99999999953,335510.063,339331.155,8,400,,,
trial,html.Screen,4_75_0,2023-10-31T00:29:33.146Z,,0,2,,4978.244999999879,response,ISIC_3058800.JPG,12,ISIC_0029572.JPG,ISIC_0029572.JPG,false,0,keypress(z),500,344309.8000000003,344309.3999999999,339312.77,339314.1000000001,339331.155,344339.802,8,400,26,,ISIC_3058800.JPG
break,html.Screen,4_75_1,2023-10-31T00:29:33.147Z,,0,,,NaN,,,,,,false,,,,344310.6999999997,344310.6000000001,,344309.99999999953,,344339.802,8,400,,,
break_continue,html.Screen,4_75_2,2023-10-31T00:29:33.147Z,,0,,,NaN,,,,,,false,,,,344310.99999999953,344310.8999999999,,344310.8000000003,,344339.802,8,400,,,
sequence,flow.Sequence,4_75,2023-10-31T00:29:33.147Z,,0,,,4979.744999999879,completion,,,,,false,,,,344311.1000000001,344310.8999999999,339312.77,339314.1000000001,339331.155,344339.802,8,400,,,
trial,html.Screen,4_76_0,2023-10-31T00:29:37.121Z,,0,2,,3945.0979999998817,response,ISIC_0385633.JPG,9,ISIC_0069204.JPG,ISIC_0069204.JPG,false,0,keypress(z),500,348285.1999999997,348284.8999999999,344305.633,344311.1000000001,344339.802,348329.008,8,400,27,,ISIC_0385633.JPG
break,html.Screen,4_76_1,2023-10-31T00:29:37.122Z,,0,,,NaN,,,,,,false,,,,348286.1999999997,348286.1000000001,,348285.49999999953,,348329.008,8,400,,,
break_continue,html.Screen,4_76_2,2023-10-31T00:29:37.123Z,,0,,,NaN,,,,,,false,,,,348286.49999999953,348286.49999999953,,348286.3000000003,,348329.008,8,400,,,
sequence,flow.Sequence,4_76,2023-10-31T00:29:37.123Z,,0,,,3946.697999999509,completion,,,,,false,,,,348286.6000000001,348286.49999999953,344305.633,344311.1000000001,344339.802,348329.008,8,400,,,
trial,html.Screen,4_77_0,2023-10-31T00:29:41.430Z,,0,2,,4264.991999999562,response,ISIC_0046622.JPG,9,ISIC_9417004.JPG,ISIC_0046622.JPG,false,1,keypress(m),500,352594.1999999997,352593.99999999953,348278.862,348286.6000000001,348329.008,352636.112,8,400,28,,ISIC_9417004.JPG
break,html.Screen,4_77_1,2023-10-31T00:29:41.431Z,,0,,,NaN,,,,,,false,,,,352594.99999999953,352594.8999999999,,352594.3000000003,,352636.112,8,400,,,
break_continue,html.Screen,4_77_2,2023-10-31T00:29:41.431Z,,0,,,NaN,,,,,,false,,,,352595.3000000003,352595.1999999997,,352595.1000000001,,352636.112,8,400,,,
sequence,flow.Sequence,4_77,2023-10-31T00:29:41.431Z,,0,,,4266.191999999748,completion,,,,,false,,,,352595.3000000003,352595.1999999997,348278.862,348286.6000000001,348329.008,352636.112,8,400,,,
trial,html.Screen,4_78_0,2023-10-31T00:29:46.609Z,,0,2,,5136.188000000257,response,ISIC_4691689.JPG,9,ISIC_0013917.JPG,ISIC_0013917.JPG,false,0,keypress(z),500,357772.6999999997,357772.3000000003,352585.756,352595.3000000003,352636.112,357808.688,8,400,29,,ISIC_4691689.JPG
break,html.Screen,4_78_1,2023-10-31T00:29:46.610Z,,0,,,NaN,,,,,,false,,,,357773.6999999997,357773.49999999953,,357772.99999999953,,357808.688,8,400,,,
break_continue,html.Screen,4_78_2,2023-10-31T00:29:46.610Z,,0,,,NaN,,,,,,false,,,,357773.99999999953,357773.8999999999,,357773.8000000003,,357808.688,8,400,,,
sequence,flow.Sequence,4_78,2023-10-31T00:29:46.610Z,,0,,,5137.787999999884,completion,,,,,false,,,,357773.99999999953,357773.8999999999,352585.756,352595.3000000003,352636.112,357808.688,8,400,,,
trial,html.Screen,4_79_0,2023-10-31T00:29:49.381Z,,0,2,,2735.711999999883,response,ISIC_0706692.JPG,6,ISIC_7137995.JPG,ISIC_0706692.JPG,false,1,keypress(m),500,360544.8000000003,360544.3999999999,357768.072,357774.1000000001,357808.688,360549.034,8,400,30,,ISIC_7137995.JPG
break,html.Screen,4_79_1,2023-10-31T00:29:49.382Z,,0,,,NaN,,,,,,false,,,,360545.6999999997,360545.6000000001,,360544.8999999999,,360549.034,8,400,,,
break_continue,html.Screen,4_79_2,2023-10-31T00:29:49.382Z,,0,,,NaN,,,,,,false,,,,360545.99999999953,360545.8999999999,,360545.8000000003,,360549.034,8,400,,,
sequence,flow.Sequence,4_79,2023-10-31T00:29:49.382Z,,0,,,2737.211999999883,completion,,,,,false,,,,360545.99999999953,360545.8999999999,357768.072,357774.1000000001,357808.688,360549.034,8,400,,,
trial,html.Screen,4_80_0,2023-10-31T00:29:52.317Z,,0,2,,2932.066000000108,response,ISIC_0026552.JPG,12,ISIC_7137773.JPG,ISIC_7137773.JPG,false,0,keypress(z),500,363481.3999999999,363481.1000000001,360532.328,360546.1000000001,360549.034,363518.868,8,400,31,,ISIC_0026552.JPG
break,html.Screen,4_80_1,2023-10-31T00:29:52.318Z,,0,,,NaN,,,,,,false,,,,363482.1999999997,363482.1000000001,,363481.6000000001,,363518.868,8,400,,,
break_continue,html.Screen,4_80_2,2023-10-31T00:29:52.319Z,,0,,,NaN,,,,,,false,,,,363482.49999999953,363482.49999999953,,363482.3000000003,,363518.868,8,400,,,
sequence,flow.Sequence,4_80,2023-10-31T00:29:52.319Z,,0,,,2933.4659999995492,completion,,,,,false,,,,363482.6000000001,363482.49999999953,360532.328,360546.1000000001,360549.034,363518.868,8,400,,,
trial,html.Screen,4_81_0,2023-10-31T00:29:55.393Z,,0,2,,3037.6319999995176,response,ISIC_0005639.JPG,6,ISIC_4412555.JPG,ISIC_0005639.JPG,false,1,keypress(m),500,366556.8000000003,366556.49999999953,363473.181,363482.6000000001,363518.868,366557.714,8,400,32,,ISIC_4412555.JPG
break,html.Screen,4_81_1,2023-10-31T00:29:55.394Z,,0,,,NaN,,,,,,false,,,,366557.8000000003,366557.6000000001,,366557.1000000001,,366557.714,8,400,,,
break_continue,html.Screen,4_81_2,2023-10-31T00:29:55.394Z,,0,,,NaN,,,,,,false,,,,366558.1000000001,366557.99999999953,,366557.8000000003,,366557.714,8,400,,,
sequence,flow.Sequence,4_81,2023-10-31T00:29:55.394Z,,0,,,3039.1319999995176,completion,,,,,false,,,,366558.1000000001,366557.99999999953,363473.181,363482.6000000001,363518.868,366557.714,8,400,,,
trial,html.Screen,4_82_0,2023-10-31T00:29:58.636Z,,0,2,,3242.386000000115,response,ISIC_9613570.JPG,8,ISIC_2524005.JPG,ISIC_2524005.JPG,false,0,keypress(z),500,369800.49999999953,369800.1000000001,366541.014,366558.1999999997,366557.714,369812.853,8,400,33,,ISIC_9613570.JPG
break,html.Screen,4_82_1,2023-10-31T00:29:58.637Z,,0,,,NaN,,,,,,false,,,,369801.3999999999,369801.1999999997,,369800.6000000001,,369812.853,8,400,,,
break_continue,html.Screen,4_82_2,2023-10-31T00:29:58.638Z,,0,,,NaN,,,,,,false,,,,369801.6000000001,369801.49999999953,,369801.3999999999,,369812.853,8,400,,,
sequence,flow.Sequence,4_82,2023-10-31T00:29:58.638Z,,0,,,3243.785999999556,completion,,,,,false,,,,369801.6000000001,369801.49999999953,366541.014,366558.1999999997,366557.714,369812.853,8,400,,,
trial,html.Screen,4_83_0,2023-10-31T00:30:01.668Z,,0,2,,3019.2470000000903,response,ISIC_5327271.JPG,7,ISIC_2799447.JPG,ISIC_2799447.JPG,false,0,keypress(z),500,372832.3000000003,372832.1000000001,369796.146,369801.6999999997,369812.853,372849.931,8,400,34,,ISIC_5327271.JPG
break,html.Screen,4_83_1,2023-10-31T00:30:01.669Z,,0,,,NaN,,,,,,false,,,,372833.3999999999,372833.1999999997,,372832.49999999953,,372849.931,8,400,,,
break_continue,html.Screen,4_83_2,2023-10-31T00:30:01.670Z,,0,,,NaN,,,,,,false,,,,372833.8000000003,372833.8000000003,,372833.6000000001,,372849.931,8,400,,,
sequence,flow.Sequence,4_83,2023-10-31T00:30:01.670Z,,0,,,3020.9470000002766,completion,,,,,false,,,,372833.99999999953,372833.8000000003,369796.146,369801.6000000001,369812.853,372849.931,8,400,,,
trial,html.Screen,4_84_0,2023-10-31T00:30:04.299Z,,0,2,,2613.2689999997383,response,ISIC_8543040.JPG,8,ISIC_0070170.JPG,ISIC_0070170.JPG,false,0,keypress(z),500,375463.49999999953,375463.1999999997,372833.222,372834.1000000001,372849.931,375470.111,8,400,35,,ISIC_8543040.JPG
break,html.Screen,4_84_1,2023-10-31T00:30:04.301Z,,0,,,NaN,,,,,,false,,,,375464.3999999999,375464.3000000003,,375463.6999999997,,375470.111,8,400,,,
break_continue,html.Screen,4_84_2,2023-10-31T00:30:04.301Z,,0,,,NaN,,,,,,false,,,,375464.6999999997,375464.6000000001,,375464.49999999953,,375470.111,8,400,,,
sequence,flow.Sequence,4_84,2023-10-31T00:30:04.301Z,,0,,,2614.669000000111,completion,,,,,false,,,,375464.8000000003,375464.6000000001,372833.222,372834.1000000001,372849.931,375470.111,8,400,,,
trial,html.Screen,4_85_0,2023-10-31T00:30:07.972Z,,0,2,,3665.388999999559,response,ISIC_0069952.JPG,12,ISIC_0015035.JPG,ISIC_0015035.JPG,false,0,keypress(z),500,379135.6999999997,379135.49999999953,375452.691,375464.8000000003,375470.111,379141.641,8,400,36,,ISIC_0069952.JPG
break,html.Screen,4_85_1,2023-10-31T00:30:07.973Z,,0,,,NaN,,,,,,false,,,,379136.6000000001,379136.3999999999,,379135.8999999999,,379141.641,8,400,,,
break_continue,html.Screen,4_85_2,2023-10-31T00:30:07.973Z,,0,,,NaN,,,,,,false,,,,379136.8000000003,379136.6999999997,,379136.6999999997,,379141.641,8,400,,,
sequence,flow.Sequence,4_85,2023-10-31T00:30:07.973Z,,0,,,3666.5889999997453,completion,,,,,false,,,,379136.99999999953,379136.6999999997,375452.691,375464.8000000003,375470.111,379141.641,8,400,,,
trial,html.Screen,4_86_0,2023-10-31T00:30:13.240Z,,0,2,,5262.258999999904,response,ISIC_1023354.JPG,9,ISIC_0034156.JPG,ISIC_0034156.JPG,false,0,keypress(z),500,384404.1999999997,384403.8999999999,379124.958,379136.99999999953,379141.641,384416.678,8,400,37,,ISIC_1023354.JPG
break,html.Screen,4_86_1,2023-10-31T00:30:13.241Z,,0,,,NaN,,,,,,false,,,,384404.99999999953,384404.8999999999,,384404.3000000003,,384416.678,8,400,,,
break_continue,html.Screen,4_86_2,2023-10-31T00:30:13.241Z,,0,,,NaN,,,,,,false,,,,384405.1999999997,384405.1000000001,,384405.1000000001,,384416.678,8,400,,,
sequence,flow.Sequence,4_86,2023-10-31T00:30:13.241Z,,0,,,5263.45900000009,completion,,,,,false,,,,384405.3000000003,384405.1000000001,379124.958,379136.99999999953,379141.641,384416.678,8,400,,,
trial,html.Screen,4_87_0,2023-10-31T00:30:23.404Z,,0,2,,10150.622000000265,response,ISIC_4876378.JPG,8,ISIC_0060091.JPG,ISIC_0060091.JPG,false,0,keypress(z),500,394567.6999999997,394567.3000000003,384398.876,384405.3999999999,384416.678,394581.977,8,400,38,,ISIC_4876378.JPG
break,html.Screen,4_87_1,2023-10-31T00:30:23.405Z,,0,,,NaN,,,,,,false,,,,394568.49999999953,394568.3999999999,,394567.8000000003,,394581.977,8,400,,,
break_continue,html.Screen,4_87_2,2023-10-31T00:30:23.405Z,,0,,,NaN,,,,,,false,,,,394568.8999999999,394568.8000000003,,394568.6999999997,,394581.977,8,400,,,
sequence,flow.Sequence,4_87,2023-10-31T00:30:23.405Z,,0,,,10152.122000000265,completion,,,,,false,,,,394568.99999999953,394568.8000000003,384398.876,384405.3999999999,384416.678,394581.977,8,400,,,
trial,html.Screen,4_88_0,2023-10-31T00:30:26.050Z,,0,2,,2631.6230000000796,response,ISIC_5658900.JPG,12,ISIC_8184471.JPG,ISIC_8184471.JPG,false,0,keypress(z),500,397213.8999999999,397213.6000000001,394562.105,394569.1000000001,394581.977,397218.763,8,400,39,,ISIC_5658900.JPG
break,html.Screen,4_88_1,2023-10-31T00:30:26.051Z,,0,,,NaN,,,,,,false,,,,397214.99999999953,397214.8000000003,,397214.1000000001,,397218.763,8,400,,,
break_continue,html.Screen,4_88_2,2023-10-31T00:30:26.051Z,,0,,,NaN,,,,,,false,,,,397215.1999999997,397215.1000000001,,397214.99999999953,,397218.763,8,400,,,
sequence,flow.Sequence,4_88,2023-10-31T00:30:26.051Z,,0,,,2633.1230000000796,completion,,,,,false,,,,397215.1999999997,397215.1000000001,394562.105,394569.1000000001,394581.977,397218.763,8,400,,,
trial,html.Screen,4_89_0,2023-10-31T00:30:28.857Z,,0,2,,2801.736999999557,response,ISIC_5744196.JPG,12,ISIC_0031546.JPG,ISIC_0031546.JPG,false,0,keypress(z),500,400020.8999999999,400020.49999999953,397202.081,397215.3000000003,397218.763,400056.713,8,400,40,,ISIC_5744196.JPG
break,html.Screen,4_89_1,2023-10-31T00:30:28.858Z,,0,,,NaN,,,,,,false,,,,400021.99999999953,400021.8999999999,,400021.1999999997,,400056.713,8,400,,,
break_continue,html.Screen,4_89_2,2023-10-31T00:30:28.858Z,,0,,,NaN,,,,,,false,,,,400022.3000000003,400022.1999999997,,400022.1000000001,,400056.713,8,400,,,
sequence,flow.Sequence,4_89,2023-10-31T00:30:28.858Z,,0,,,2803.4369999997434,completion,,,,,false,,,,400022.3000000003,400022.1999999997,397202.081,397215.3000000003,397218.763,400056.713,8,400,,,
trial,html.Screen,4_90_0,2023-10-31T00:30:33.376Z,,0,2,,4482.7869999995455,response,ISIC_0012288.JPG,8,ISIC_0009441.JPG,ISIC_0009441.JPG,false,0,keypress(z),500,404539.8999999999,404539.49999999953,400020.837,400022.3999999999,400056.713,404580.088,8,400,41,,ISIC_0012288.JPG
break,html.Screen,4_90_1,2023-10-31T00:30:33.377Z,,0,,,NaN,,,,,,false,,,,404540.8000000003,404540.6000000001,,404539.99999999953,,404580.088,8,400,,,
break_continue,html.Screen,4_90_2,2023-10-31T00:30:33.377Z,,0,,,NaN,,,,,,false,,,,404541.1000000001,404540.99999999953,,404540.8999999999,,404580.088,8,400,,,
sequence,flow.Sequence,4_90,2023-10-31T00:30:33.377Z,,0,,,4484.2869999995455,completion,,,,,false,,,,404541.1000000001,404540.99999999953,400020.837,400022.3999999999,400056.713,404580.088,8,400,,,
trial,html.Screen,4_91_0,2023-10-31T00:30:36.522Z,,0,2,,3105.7120000002906,response,ISIC_0031529.JPG,8,ISIC_2918128.JPG,ISIC_2918128.JPG,false,0,keypress(z),500,407686.1000000001,407685.8000000003,404546.018,404541.1999999997,404580.088,407718.161,8,400,42,,ISIC_0031529.JPG
break,html.Screen,4_91_1,2023-10-31T00:30:36.523Z,,0,,,NaN,,,,,,false,,,,407687.1000000001,407686.8999999999,,407686.3000000003,,407718.161,8,400,,,
break_continue,html.Screen,4_91_2,2023-10-31T00:30:36.523Z,,0,,,NaN,,,,,,false,,,,407687.3000000003,407687.1999999997,,407687.1000000001,,407718.161,8,400,,,
sequence,flow.Sequence,4_91,2023-10-31T00:30:36.523Z,,0,,,3107.111999999732,completion,,,,,false,,,,407687.3999999999,407687.1999999997,404546.018,404541.1999999997,404580.088,407718.161,8,400,,,
trial,html.Screen,4_92_0,2023-10-31T00:30:41.140Z,,0,2,,4585.538999999699,response,ISIC_8124900.JPG,14,ISIC_0029328.JPG,ISIC_0029328.JPG,false,0,keypress(z),500,412303.8999999999,412303.6999999997,407686.259,407687.49999999953,407718.161,412307.949,8,400,43,,ISIC_8124900.JPG
break,html.Screen,4_92_1,2023-10-31T00:30:41.141Z,,0,,,NaN,,,,,,false,,,,412304.6999999997,412304.49999999953,,412303.99999999953,,412307.949,8,400,,,
break_continue,html.Screen,4_92_2,2023-10-31T00:30:41.141Z,,0,,,NaN,,,,,,false,,,,412304.8999999999,412304.8000000003,,412304.8000000003,,412307.949,8,400,,,
sequence,flow.Sequence,4_92,2023-10-31T00:30:41.141Z,,0,,,4586.6390000002575,completion,,,,,false,,,,412304.99999999953,412304.8000000003,407686.259,407687.49999999953,407718.161,412307.949,8,400,,,
trial,html.Screen,4_93_0,2023-10-31T00:30:43.788Z,,0,2,,2643.2509999996983,response,ISIC_4523565.JPG,6,ISIC_5768602.JPG,ISIC_5768602.JPG,false,0,keypress(z),500,414951.6000000001,414951.1999999997,412291.262,412304.99999999953,412307.949,414978.468,8,400,44,,ISIC_4523565.JPG
break,html.Screen,4_93_1,2023-10-31T00:30:43.788Z,,0,,,NaN,,,,,,false,,,,414952.3999999999,414952.3000000003,,414951.6999999997,,414978.468,8,400,,,
break_continue,html.Screen,4_93_2,2023-10-31T00:30:43.789Z,,0,,,NaN,,,,,,false,,,,414952.6999999997,414952.6000000001,,414952.49999999953,,414978.468,8,400,,,
sequence,flow.Sequence,4_93,2023-10-31T00:30:43.789Z,,0,,,2644.651000000071,completion,,,,,false,,,,414952.8000000003,414952.6000000001,412291.262,412304.99999999953,412307.949,414978.468,8,400,,,
trial,html.Screen,4_94_0,2023-10-31T00:30:46.630Z,,0,2,,2814.9319999999134,response,ISIC_0026727.JPG,10,ISIC_0263478.JPG,ISIC_0026727.JPG,false,1,keypress(m),500,417793.8999999999,417793.3999999999,414942.955,414952.8000000003,414978.468,417832.664,8,400,45,,ISIC_0263478.JPG
break,html.Screen,4_94_1,2023-10-31T00:30:46.631Z,,0,,,NaN,,,,,,false,,,,417794.8999999999,417794.6999999997,,417794.1000000001,,417832.664,8,400,,,
break_continue,html.Screen,4_94_2,2023-10-31T00:30:46.631Z,,0,,,NaN,,,,,,false,,,,417795.1000000001,417795.1000000001,,417794.99999999953,,417832.664,8,400,,,
sequence,flow.Sequence,4_94,2023-10-31T00:30:46.631Z,,0,,,2816.6320000000997,completion,,,,,false,,,,417795.3000000003,417795.1000000001,414942.955,414952.8000000003,414978.468,417832.664,8,400,,,
trial,html.Screen,4_95_0,2023-10-31T00:30:49.307Z,,0,2,,2637.8359999995446,response,ISIC_4425766.JPG,7,ISIC_5979807.JPG,ISIC_4425766.JPG,false,1,keypress(m),500,420470.6000000001,420470.49999999953,417791.623,417795.3999999999,417832.664,420471.916,8,400,46,,ISIC_5979807.JPG
break,html.Screen,4_95_1,2023-10-31T00:30:49.308Z,,0,,,NaN,,,,,,false,,,,420471.49999999953,420471.3000000003,,420470.8000000003,,420471.916,8,400,,,
break_continue,html.Screen,4_95_2,2023-10-31T00:30:49.308Z,,0,,,NaN,,,,,,false,,,,420471.8000000003,420471.6999999997,,420471.6000000001,,420471.916,8,400,,,
sequence,flow.Sequence,4_95,2023-10-31T00:30:49.308Z,,0,,,2639.035999999731,completion,,,,,false,,,,420471.8999999999,420471.6999999997,417791.623,417795.3999999999,417832.664,420471.916,8,400,,,
trial,html.Screen,4_96_0,2023-10-31T00:30:52.212Z,,0,2,,2903.884000000253,response,ISIC_7566505.JPG,7,ISIC_0033061.JPG,ISIC_0033061.JPG,false,0,keypress(z),500,423376.1000000001,423375.8000000003,420455.207,420471.99999999953,420471.916,423391.297,8,400,47,,ISIC_7566505.JPG
break,html.Screen,4_96_1,2023-10-31T00:30:52.213Z,,0,,,NaN,,,,,,false,,,,423377.1000000001,423376.8999999999,,423376.3000000003,,423391.297,8,400,,,
break_continue,html.Screen,4_96_2,2023-10-31T00:30:52.213Z,,0,,,NaN,,,,,,false,,,,423377.3999999999,423377.3000000003,,423377.1999999997,,423391.297,8,400,,,
sequence,flow.Sequence,4_96,2023-10-31T00:30:52.213Z,,0,,,2905.384000000253,completion,,,,,false,,,,423377.3999999999,423377.3000000003,420455.207,420471.99999999953,420471.916,423391.297,8,400,,,
trial,html.Screen,4_97_0,2023-10-31T00:30:55.132Z,,0,2,,2904.4029999997,response,ISIC_0262770.JPG,10,ISIC_0011947.JPG,ISIC_0011947.JPG,false,0,keypress(z),500,426295.99999999953,426295.6999999997,423374.366,423377.49999999953,423391.297,426328.776,8,400,48,,ISIC_0262770.JPG
break,html.Screen,4_97_1,2023-10-31T00:30:55.133Z,,0,,,NaN,,,,,,false,,,,426297.1000000001,426296.8999999999,,426296.3000000003,,426328.776,8,400,,,
break_continue,html.Screen,4_97_2,2023-10-31T00:30:55.133Z,,0,,,NaN,,,,,,false,,,,426297.3000000003,426297.3000000003,,426297.1000000001,,426328.776,8,400,,,
sequence,flow.Sequence,4_97,2023-10-31T00:30:55.133Z,,0,,,2906.003000000259,completion,,,,,false,,,,426297.3999999999,426297.3000000003,423374.366,423377.49999999953,423391.297,426328.776,8,400,,,
trial,html.Screen,4_98_0,2023-10-31T00:30:57.846Z,,0,2,,2681.024000000267,response,ISIC_4728167.JPG,12,ISIC_0056164.JPG,ISIC_0056164.JPG,false,0,keypress(z),500,429010.1999999997,429009.8000000003,426293.101,426297.6000000001,426328.776,429024.778,8,400,49,,ISIC_4728167.JPG
break,html.Screen,4_98_1,2023-10-31T00:30:57.847Z,,0,,,NaN,,,,,,false,,,,429010.99999999953,429010.8999999999,,429010.3000000003,,429024.778,8,400,,,
break_continue,html.Screen,4_98_2,2023-10-31T00:30:57.847Z,,0,,,NaN,,,,,,false,,,,429011.3000000003,429011.1999999997,,429011.1000000001,,429024.778,8,400,,,
sequence,flow.Sequence,4_98,2023-10-31T00:30:57.847Z,,0,,,2682.423999999708,completion,,,,,false,,,,429011.3999999999,429011.1999999997,426293.101,426297.49999999953,426328.776,429024.778,8,400,,,
trial,html.Screen,4_99_0,2023-10-31T00:31:00.594Z,,0,2,,2732.822000000102,response,ISIC_0066378.JPG,11,ISIC_0070050.JPG,ISIC_0066378.JPG,false,1,keypress(m),500,431757.8000000003,431757.6000000001,429007.97,429011.49999999953,429024.778,431788.278,8,400,50,,ISIC_0070050.JPG
break,html.Screen,4_99_1,2023-10-31T00:31:10.614Z,,0,,,9999.510999999999,timeout,,,,,false,,,,441778.3999999999,441772.903,431755.49,431757.99999999953,431788.278,441787.789,8,400,,,
break_continue,html.Screen,4_99_2,2023-10-31T00:31:12.788Z,,0,,,2148.7109999995446,response,,,,,false,continue,keypress(Space),,443951.8000000003,443936.49999999953,441772.903,441778.49999999953,441787.789,443970.641,8,400,,,
sequence,flow.Sequence,4_99,2023-10-31T00:31:12.788Z,,0,,,14911.721999999543,completion,,,,,false,,,,443951.99999999953,443936.49999999953,429007.97,429011.3999999999,429024.778,443970.641,8,400,,,
trial,html.Screen,4_100_0,2023-10-31T00:31:16.075Z,,0,3,,3267.95900000009,response,ISIC_0032604.JPG,13,ISIC_4034244.JPG,ISIC_0032604.JPG,false,1,keypress(m),500,447238.99999999953,447238.6000000001,443950.721,443952.1000000001,443970.641,447276.497,8,400,1,,ISIC_4034244.JPG
break,html.Screen,4_100_1,2023-10-31T00:31:16.076Z,,0,,,NaN,,,,,,false,,,,447239.99999999953,447239.8999999999,,447239.1999999997,,447276.497,8,400,,,
break_continue,html.Screen,4_100_2,2023-10-31T00:31:16.076Z,,0,,,NaN,,,,,,false,,,,447240.3000000003,447240.1999999997,,447240.1000000001,,447276.497,8,400,,,
sequence,flow.Sequence,4_100,2023-10-31T00:31:16.076Z,,0,,,3269.5589999997173,completion,,,,,false,,,,447240.3000000003,447240.1999999997,443950.721,443951.99999999953,443970.641,447276.497,8,400,,,
trial,html.Screen,4_101_0,2023-10-31T00:31:20.197Z,,0,3,,4084.402999999933,response,ISIC_8899350.JPG,5,ISIC_0032490.JPG,ISIC_8899350.JPG,false,1,keypress(m),500,451360.99999999953,451360.8999999999,447237.048,447240.3999999999,447276.497,451400.004,8,400,2,,ISIC_0032490.JPG
break,html.Screen,4_101_1,2023-10-31T00:31:20.198Z,,0,,,NaN,,,,,,false,,,,451361.8999999999,451361.8000000003,,451361.1999999997,,451400.004,8,400,,,
break_continue,html.Screen,4_101_2,2023-10-31T00:31:20.198Z,,0,,,NaN,,,,,,false,,,,451362.1000000001,451361.99999999953,,451361.8999999999,,451400.004,8,400,,,
sequence,flow.Sequence,4_101,2023-10-31T00:31:20.198Z,,0,,,4085.5029999995604,completion,,,,,false,,,,451362.1999999997,451361.99999999953,447237.048,447240.3999999999,447276.497,451400.004,8,400,,,
trial,html.Screen,4_102_0,2023-10-31T00:31:24.140Z,,0,3,,3904.0960000000778,response,ISIC_1663144.JPG,7,ISIC_0026921.JPG,ISIC_1663144.JPG,false,1,keypress(m),500,455304.3999999999,455304.1000000001,451350.278,451362.3000000003,451400.004,455305.787,8,400,3,,ISIC_0026921.JPG
break,html.Screen,4_102_1,2023-10-31T00:31:24.141Z,,0,,,NaN,,,,,,false,,,,455305.3000000003,455305.1999999997,,455304.6000000001,,455305.787,8,400,,,
break_continue,html.Screen,4_102_2,2023-10-31T00:31:24.142Z,,0,,,NaN,,,,,,false,,,,455305.6000000001,455305.49999999953,,455305.49999999953,,455305.787,8,400,,,
sequence,flow.Sequence,4_102,2023-10-31T00:31:24.142Z,,0,,,3905.495999999519,completion,,,,,false,,,,455305.6999999997,455305.49999999953,451350.278,451362.3000000003,451400.004,455305.787,8,400,,,
trial,html.Screen,4_103_0,2023-10-31T00:31:28.757Z,,0,3,,4614.813000000082,response,ISIC_0177304.JPG,7,ISIC_0011369.JPG,ISIC_0011369.JPG,false,0,keypress(z),500,459920.8000000003,459920.6000000001,455289.1,455305.8000000003,455305.787,459948.798,8,400,4,,ISIC_0177304.JPG
break,html.Screen,4_103_1,2023-10-31T00:31:28.758Z,,0,,,NaN,,,,,,false,,,,459921.8000000003,459921.6000000001,,459920.8999999999,,459948.798,8,400,,,
break_continue,html.Screen,4_103_2,2023-10-31T00:31:28.758Z,,0,,,NaN,,,,,,false,,,,459921.99999999953,459921.99999999953,,459921.8999999999,,459948.798,8,400,,,
sequence,flow.Sequence,4_103,2023-10-31T00:31:28.758Z,,0,,,4616.212999999523,completion,,,,,false,,,,459922.1999999997,459921.99999999953,455289.1,455305.8000000003,455305.787,459948.798,8,400,,,
trial,html.Screen,4_104_0,2023-10-31T00:31:31.598Z,,0,3,,2813.0020000002696,response,ISIC_0025056.JPG,6,ISIC_9860255.JPG,ISIC_0025056.JPG,false,1,keypress(m),500,462762.3000000003,462761.8000000003,459916.061,459922.3000000003,459948.798,462800.5,8,400,5,,ISIC_9860255.JPG
break,html.Screen,4_104_1,2023-10-31T00:31:31.599Z,,0,,,NaN,,,,,,false,,,,462763.3000000003,462763.1000000001,,462762.49999999953,,462800.5,8,400,,,
break_continue,html.Screen,4_104_2,2023-10-31T00:31:31.600Z,,0,,,NaN,,,,,,false,,,,462763.8000000003,462763.6999999997,,462763.49999999953,,462800.5,8,400,,,
sequence,flow.Sequence,4_104,2023-10-31T00:31:31.600Z,,0,,,2814.901999999711,completion,,,,,false,,,,462763.8999999999,462763.6999999997,459916.061,459922.3000000003,459948.798,462800.5,8,400,,,
trial,html.Screen,4_105_0,2023-10-31T00:31:34.360Z,,0,3,,2723.3000000002794,response,ISIC_0062576.JPG,12,ISIC_3181394.JPG,ISIC_3181394.JPG,false,0,keypress(z),500,465524.3000000003,465523.8000000003,462761.974,462763.99999999953,462800.5,465555.017,8,400,6,,ISIC_0062576.JPG
break,html.Screen,4_105_1,2023-10-31T00:31:34.361Z,,0,,,NaN,,,,,,false,,,,465525.1999999997,465524.99999999953,,465524.3999999999,,465555.017,8,400,,,
break_continue,html.Screen,4_105_2,2023-10-31T00:31:34.361Z,,0,,,NaN,,,,,,false,,,,465525.3999999999,465525.3999999999,,465525.3000000003,,465555.017,8,400,,,
sequence,flow.Sequence,4_105,2023-10-31T00:31:34.362Z,,0,,,2724.899999999907,completion,,,,,false,,,,465525.49999999953,465525.3999999999,462761.974,462763.8999999999,462800.5,465555.017,8,400,,,
trial,html.Screen,4_106_0,2023-10-31T00:31:37.791Z,,0,3,,3399.5830000001006,response,ISIC_3979826.JPG,7,ISIC_0046416.JPG,ISIC_0046416.JPG,false,0,keypress(z),500,468954.8999999999,468954.6000000001,465519.069,465525.6000000001,465555.017,468958.938,8,400,7,,ISIC_3979826.JPG
break,html.Screen,4_106_1,2023-10-31T00:31:37.792Z,,0,,,NaN,,,,,,false,,,,468955.6999999997,468955.49999999953,,468954.99999999953,,468958.938,8,400,,,
break_continue,html.Screen,4_106_2,2023-10-31T00:31:37.792Z,,0,,,NaN,,,,,,false,,,,468955.8999999999,468955.8000000003,,468955.6999999997,,468958.938,8,400,,,
sequence,flow.Sequence,4_106,2023-10-31T00:31:37.792Z,,0,,,3400.783000000287,completion,,,,,false,,,,468955.99999999953,468955.8000000003,465519.069,465525.6000000001,465555.017,468958.938,8,400,,,
trial,html.Screen,4_107_0,2023-10-31T00:31:41.238Z,,0,3,,3442.961999999883,response,ISIC_7452503.JPG,7,ISIC_0054573.JPG,ISIC_0054573.JPG,false,0,keypress(z),500,472402.1999999997,472401.8999999999,468942.251,468956.1000000001,468958.938,472430.221,8,400,8,,ISIC_7452503.JPG
break,html.Screen,4_107_1,2023-10-31T00:31:41.239Z,,0,,,NaN,,,,,,false,,,,472402.99999999953,472402.8999999999,,472402.3000000003,,472430.221,8,400,,,
break_continue,html.Screen,4_107_2,2023-10-31T00:31:41.239Z,,0,,,NaN,,,,,,false,,,,472403.3000000003,472403.1999999997,,472403.1000000001,,472430.221,8,400,,,
sequence,flow.Sequence,4_107,2023-10-31T00:31:41.239Z,,0,,,3444.261999999697,completion,,,,,false,,,,472403.3000000003,472403.1999999997,468942.251,468955.99999999953,468958.938,472430.221,8,400,,,
trial,html.Screen,4_108_0,2023-10-31T00:31:47.469Z,,0,3,,6202.879000000074,response,ISIC_6381785.JPG,8,ISIC_4523565.JPG,ISIC_4523565.JPG,false,0,keypress(z),500,478633.49999999953,478633.1000000001,472393.172,472403.49999999953,472430.221,478655.978,8,400,9,,ISIC_6381785.JPG
break,html.Screen,4_108_1,2023-10-31T00:31:47.471Z,,0,,,NaN,,,,,,false,,,,478634.49999999953,478634.3999999999,,478633.6000000001,,478655.978,8,400,,,
break_continue,html.Screen,4_108_2,2023-10-31T00:31:47.471Z,,0,,,NaN,,,,,,false,,,,478634.6999999997,478634.6000000001,,478634.6000000001,,478655.978,8,400,,,
sequence,flow.Sequence,4_108,2023-10-31T00:31:47.471Z,,0,,,6204.379000000074,completion,,,,,false,,,,478634.8999999999,478634.6000000001,472393.172,472403.3999999999,472430.221,478655.978,8,400,,,
trial,html.Screen,4_109_0,2023-10-31T00:31:51.361Z,,0,3,,3869.221999999718,response,ISIC_0062827.JPG,10,ISIC_0033771.JPG,ISIC_0062827.JPG,false,1,keypress(m),500,482525.6000000001,482525.1999999997,478632.939,478634.8999999999,478655.978,482527.752,8,400,10,,ISIC_0033771.JPG
break,html.Screen,4_109_1,2023-10-31T00:31:51.362Z,,0,,,NaN,,,,,,false,,,,482526.49999999953,482526.3999999999,,482525.8000000003,,482527.752,8,400,,,
break_continue,html.Screen,4_109_2,2023-10-31T00:31:51.363Z,,0,,,NaN,,,,,,false,,,,482526.6999999997,482526.6999999997,,482526.6000000001,,482527.752,8,400,,,
sequence,flow.Sequence,4_109,2023-10-31T00:31:51.363Z,,0,,,3870.721999999718,completion,,,,,false,,,,482526.8000000003,482526.6999999997,478632.939,478634.8999999999,478655.978,482527.752,8,400,,,
trial,html.Screen,4_110_0,2023-10-31T00:31:54.333Z,,0,3,,2968.6479999999283,response,ISIC_7319169.JPG,12,ISIC_1089617.JPG,ISIC_7319169.JPG,false,1,keypress(m),500,485496.6999999997,485496.3999999999,482511.1,482526.8999999999,482527.752,485500.729,8,400,11,,ISIC_1089617.JPG
break,html.Screen,4_110_1,2023-10-31T00:31:54.334Z,,0,,,NaN,,,,,,false,,,,485497.6999999997,485497.6000000001,,485496.99999999953,,485500.729,8,400,,,
break_continue,html.Screen,4_110_2,2023-10-31T00:31:54.334Z,,0,,,NaN,,,,,,false,,,,485497.99999999953,485497.8999999999,,485497.8000000003,,485500.729,8,400,,,
sequence,flow.Sequence,4_110,2023-10-31T00:31:54.334Z,,0,,,2970.1479999999283,completion,,,,,false,,,,485498.1000000001,485497.8999999999,482511.1,482526.8999999999,482527.752,485500.729,8,400,,,
trial,html.Screen,4_111_0,2023-10-31T00:31:58.340Z,,0,3,,4003.4709999997285,response,ISIC_0062734.JPG,7,ISIC_2245325.JPG,ISIC_2245325.JPG,false,0,keypress(z),500,489504.49999999953,489504.1999999997,485484.042,485498.1000000001,485500.729,489539.646,8,400,12,,ISIC_0062734.JPG
break,html.Screen,4_111_1,2023-10-31T00:31:58.341Z,,0,,,NaN,,,,,,false,,,,489505.3000000003,489505.1999999997,,489504.6000000001,,489539.646,8,400,,,
break_continue,html.Screen,4_111_2,2023-10-31T00:31:58.341Z,,0,,,NaN,,,,,,false,,,,489505.6000000001,489505.49999999953,,489505.3999999999,,489539.646,8,400,,,
sequence,flow.Sequence,4_111,2023-10-31T00:31:58.342Z,,0,,,4004.7709999995423,completion,,,,,false,,,,489505.6000000001,489505.49999999953,485484.042,485498.1000000001,485500.729,489539.646,8,400,,,
trial,html.Screen,4_112_0,2023-10-31T00:32:01.945Z,,0,3,,3569.1540000002715,response,ISIC_0027839.JPG,5,ISIC_0027378.JPG,ISIC_0027839.JPG,false,1,keypress(m),500,493109.1000000001,493108.8000000003,489504.802,489505.6999999997,489539.646,493111.941,8,400,13,,ISIC_0027378.JPG
break,html.Screen,4_112_1,2023-10-31T00:32:01.946Z,,0,,,NaN,,,,,,false,,,,493110.1000000001,493109.8999999999,,493109.3000000003,,493111.941,8,400,,,
break_continue,html.Screen,4_112_2,2023-10-31T00:32:01.946Z,,0,,,NaN,,,,,,false,,,,493110.3000000003,493110.3000000003,,493110.1999999997,,493111.941,8,400,,,
sequence,flow.Sequence,4_112,2023-10-31T00:32:01.946Z,,0,,,3570.6540000002715,completion,,,,,false,,,,493110.3999999999,493110.3000000003,489504.802,489505.6999999997,489539.646,493111.941,8,400,,,
trial,html.Screen,4_113_0,2023-10-31T00:32:07.600Z,,0,3,,5651.458999999915,response,ISIC_0010385.JPG,8,ISIC_2085855.JPG,ISIC_0010385.JPG,false,1,keypress(m),500,498763.6999999997,498763.3999999999,493095.251,493110.49999999953,493111.941,498765.607,8,400,14,,ISIC_2085855.JPG
break,html.Screen,4_113_1,2023-10-31T00:32:07.601Z,,0,,,NaN,,,,,,false,,,,498764.8999999999,498764.6000000001,,498763.8999999999,,498765.607,8,400,,,
break_continue,html.Screen,4_113_2,2023-10-31T00:32:07.601Z,,0,,,NaN,,,,,,false,,,,498765.1000000001,498764.99999999953,,498764.99999999953,,498765.607,8,400,,,
sequence,flow.Sequence,4_113,2023-10-31T00:32:07.601Z,,0,,,5653.058999999543,completion,,,,,false,,,,498765.1000000001,498764.99999999953,493095.251,493110.49999999953,493111.941,498765.607,8,400,,,
trial,html.Screen,4_114_0,2023-10-31T00:32:11.962Z,,0,3,,4359.993000000075,response,ISIC_8790198.JPG,8,ISIC_0026694.JPG,ISIC_0026694.JPG,false,0,keypress(z),500,503125.8999999999,503125.6000000001,498748.946,498765.3000000003,498765.607,503159.359,8,400,15,,ISIC_8790198.JPG
break,html.Screen,4_114_1,2023-10-31T00:32:11.963Z,,0,,,NaN,,,,,,false,,,,503126.8999999999,503126.8000000003,,503126.1999999997,,503159.359,8,400,,,
break_continue,html.Screen,4_114_2,2023-10-31T00:32:11.963Z,,0,,,NaN,,,,,,false,,,,503127.1999999997,503127.1000000001,,503126.99999999953,,503159.359,8,400,,,
sequence,flow.Sequence,4_114,2023-10-31T00:32:11.963Z,,0,,,4361.493000000075,completion,,,,,false,,,,503127.3000000003,503127.1000000001,498748.946,498765.1999999997,498765.607,503159.359,8,400,,,
trial,html.Screen,4_115_0,2023-10-31T00:32:15.632Z,,0,3,,3636.340999999724,response,ISIC_6253295.JPG,6,ISIC_0061685.JPG,ISIC_0061685.JPG,false,0,keypress(z),500,506795.99999999953,506795.6999999997,503141.048,503127.3999999999,503159.359,506814.93,8,400,16,,ISIC_6253295.JPG
break,html.Screen,4_115_1,2023-10-31T00:32:15.633Z,,0,,,NaN,,,,,,false,,,,506796.99999999953,506796.8999999999,,506796.1999999997,,506814.93,8,400,,,
break_continue,html.Screen,4_115_2,2023-10-31T00:32:15.633Z,,0,,,NaN,,,,,,false,,,,506797.3000000003,506797.3000000003,,506797.1000000001,,506814.93,8,400,,,
sequence,flow.Sequence,4_115,2023-10-31T00:32:15.633Z,,0,,,3637.9410000002827,completion,,,,,false,,,,506797.3000000003,506797.3000000003,503141.048,503127.3000000003,503159.359,506814.93,8,400,,,
trial,html.Screen,4_116_0,2023-10-31T00:32:21.157Z,,0,3,,5505.269999999728,response,ISIC_9562442.JPG,8,ISIC_1175170.JPG,ISIC_9562442.JPG,false,1,keypress(m),500,512320.6999999997,512320.1999999997,506791.649,506797.3999999999,506814.93,512325.401,8,400,17,,ISIC_1175170.JPG
break,html.Screen,4_116_1,2023-10-31T00:32:21.158Z,,0,,,NaN,,,,,,false,,,,512321.6999999997,512321.6000000001,,512320.8999999999,,512325.401,8,400,,,
break_continue,html.Screen,4_116_2,2023-10-31T00:32:21.158Z,,0,,,NaN,,,,,,false,,,,512321.8999999999,512321.8999999999,,512321.6999999997,,512325.401,8,400,,,
sequence,flow.Sequence,4_116,2023-10-31T00:32:21.158Z,,0,,,5506.969999999914,completion,,,,,false,,,,512321.99999999953,512321.8999999999,506791.649,506797.3999999999,506814.93,512325.401,8,400,,,
trial,html.Screen,4_117_0,2023-10-31T00:32:26.776Z,,0,3,,5614.098999999522,response,ISIC_7114660.JPG,7,ISIC_0011648.JPG,ISIC_0011648.JPG,false,0,keypress(z),500,517939.8999999999,517939.49999999953,512308.703,512321.99999999953,512325.401,517948.351,8,400,18,,ISIC_7114660.JPG
break,html.Screen,4_117_1,2023-10-31T00:32:26.777Z,,0,,,NaN,,,,,,false,,,,517940.99999999953,517940.8000000003,,517940.1999999997,,517948.351,8,400,,,
break_continue,html.Screen,4_117_2,2023-10-31T00:32:26.777Z,,0,,,NaN,,,,,,false,,,,517941.1999999997,517941.1999999997,,517941.1000000001,,517948.351,8,400,,,
sequence,flow.Sequence,4_117,2023-10-31T00:32:26.777Z,,0,,,5615.798999999708,completion,,,,,false,,,,517941.3999999999,517941.1999999997,512308.703,512321.99999999953,512325.401,517948.351,8,400,,,
trial,html.Screen,4_118_0,2023-10-31T00:32:31.570Z,,0,3,,4785.14899999951,response,ISIC_0010478.JPG,9,ISIC_0007501.JPG,ISIC_0010478.JPG,false,1,keypress(m),500,522733.8000000003,522733.49999999953,517931.664,517941.3999999999,517948.351,522776.136,8,400,19,,ISIC_0007501.JPG
break,html.Screen,4_118_1,2023-10-31T00:32:31.571Z,,0,,,NaN,,,,,,false,,,,522734.8999999999,522734.8000000003,,522734.1000000001,,522776.136,8,400,,,
break_continue,html.Screen,4_118_2,2023-10-31T00:32:31.571Z,,0,,,NaN,,,,,,false,,,,522735.1000000001,522735.1000000001,,522734.99999999953,,522776.136,8,400,,,
sequence,flow.Sequence,4_118,2023-10-31T00:32:31.571Z,,0,,,4786.749000000069,completion,,,,,false,,,,522735.1999999997,522735.1000000001,517931.664,517941.3999999999,517948.351,522776.136,8,400,,,
trial,html.Screen,4_119_0,2023-10-31T00:32:38.235Z,,0,3,,6622.363999999536,response,ISIC_3292151.JPG,12,ISIC_2378211.JPG,ISIC_2378211.JPG,false,0,keypress(z),500,529398.6999999997,529398.4999999995,522732.768,522735.3000000003,522776.136,529432.698,8,400,20,,ISIC_3292151.JPG
break,html.Screen,4_119_1,2023-10-31T00:32:38.236Z,,0,,,NaN,,,,,,false,,,,529399.6999999997,529399.4999999995,,529398.8999999999,,529432.698,8,400,,,
break_continue,html.Screen,4_119_2,2023-10-31T00:32:38.236Z,,0,,,NaN,,,,,,false,,,,529399.8000000003,529399.8000000003,,529399.6999999997,,529432.698,8,400,,,
sequence,flow.Sequence,4_119,2023-10-31T00:32:38.236Z,,0,,,6623.664000000281,completion,,,,,false,,,,529399.8999999999,529399.8000000003,522732.768,522735.3000000003,522776.136,529432.698,8,400,,,
trial,html.Screen,4_120_0,2023-10-31T00:32:45.411Z,,0,3,,7141.902000000118,response,ISIC_3941123.JPG,6,ISIC_0543351.JPG,ISIC_0543351.JPG,false,0,keypress(z),500,536574.8000000003,536574.6000000001,529398.926,529399.8999999999,529432.698,536578.584,8,400,21,,ISIC_3941123.JPG
break,html.Screen,4_120_1,2023-10-31T00:32:45.412Z,,0,,,NaN,,,,,,false,,,,536575.8999999999,536575.6999999997,,536574.9999999995,,536578.584,8,400,,,
break_continue,html.Screen,4_120_2,2023-10-31T00:32:45.412Z,,0,,,NaN,,,,,,false,,,,536576.1999999997,536575.9999999995,,536575.8999999999,,536578.584,8,400,,,
sequence,flow.Sequence,4_120,2023-10-31T00:32:45.412Z,,0,,,7143.3019999995595,completion,,,,,false,,,,536576.1999999997,536575.9999999995,529398.926,529399.8999999999,529432.698,536578.584,8,400,,,
trial,html.Screen,4_121_0,2023-10-31T00:32:53.818Z,,0,3,,8403.216000000248,response,ISIC_0064279.JPG,11,ISIC_8382969.JPG,ISIC_0064279.JPG,false,1,keypress(m),500,544982.3000000003,544981.8000000003,536561.886,536576.3999999999,536578.584,544988.282,8,400,22,,ISIC_8382969.JPG
break,html.Screen,4_121_1,2023-10-31T00:32:53.820Z,,0,,,NaN,,,,,,false,,,,544983.8999999999,544983.6000000001,,544982.8000000003,,544988.282,8,400,,,
break_continue,html.Screen,4_121_2,2023-10-31T00:32:53.820Z,,0,,,NaN,,,,,,false,,,,544984.3000000003,544984.1999999997,,544983.9999999995,,544988.282,8,400,,,
