sender,sender_type,sender_id,timestamp,meta,,blockNo,condition,duration,ended_on,img_left,img_reveal,img_right,loser,practice,response,response_action,selection_duration,time_commit,time_end,time_render,time_run,time_show,time_switch,total_blocks,total_trials,trialNo,url,winner
informed_consent,html.Screen,0,2023-11-02T18:45:56.380Z,"{""labjs_version"":""20.2.4"",""labjs_build"":{""flavor"":""production"",""commit"":""f5b4a49f956347addd546a832a3327688c2c0fef""},""location"":""https://run.pavlovia.org/MurrayBennett/melanoma-2afc/?participant=67316&platform=sona"",""userAgent"":""Mozilla/5.0 (Windows NT 10.0; Win64; x64) AppleWebKit/537.36 (KHTML, like Gecko) Chrome/118.0.0.0 Safari/537.36 Edg/118.0.2088.76"",""platform"":""Win32"",""language"":""en-US"",""locale"":""en-US"",""timeZone"":""America/Chicago"",""timezoneOffset"":300,""screen_width"":1920,""screen_height"":1080,""scroll_width"":1912,""scroll_height"":884,""window_innerWidth"":1912,""window_innerHeight"":932,""devicePixelRatio"":1}",,,,2671.626999809265,response,,,,,,consent,click button,,8911.300000190735,8910.199999809265,5955.242,6232.10000038147,6238.573,9205.299,,,,"{""participant"":""67316"",""platform"":""sona""}",
Welcome,html.Screen,1,2023-11-02T18:46:01.627Z,,,,uniform,4952.501000190734,response,,,,,,continue,click button,,14158.400000572205,14157.800000190735,8905.292,8911.5,9205.299,14171.863,,,,,
trial,html.Screen,2_0_0,2023-11-02T18:46:06.125Z,,0,0,,4484.4370001907355,response,ISIC_0025593.JPG,,ISIC_0063388.JPG,ISIC_0025593.JPG,true,1,keypress(m),500,18656.5,18656.300000190735,14155.282,14158.5,14171.863,18671.899,1,6,1,,ISIC_0063388.JPG
sequence,flow.Sequence,2_0,2023-11-02T18:46:06.125Z,,0,,,4484.4370001907355,completion,,,,,true,,,,18656.800000190735,18656.300000190735,14155.282,14158.5,14171.863,18671.899,1,6,,,
trial,html.Screen,2_1_0,2023-11-02T18:46:11.615Z,,0,0,,5475.100999999999,response,ISIC_0028178.JPG,,ISIC_1309015.JPG,ISIC_0028178.JPG,true,1,keypress(m),500,24147.199999809265,24147,18655.221,18656.900000572205,18671.899,24155.274,1,6,2,,ISIC_1309015.JPG
sequence,flow.Sequence,2_1,2023-11-02T18:46:11.616Z,,0,,,5475.100999999999,completion,,,,,true,,,,24147.199999809265,24147,18655.221,18656.900000572205,18671.899,24155.274,1,6,,,
trial,html.Screen,2_2_0,2023-11-02T18:46:15.664Z,,0,0,,4040.7259999999987,response,ISIC_0031128.JPG,,ISIC_3314853.JPG,ISIC_0031128.JPG,true,1,keypress(m),500,28196.199999809265,28196,24138.619,24147.400000572205,24155.274,28205.443,1,6,3,,ISIC_3314853.JPG
sequence,flow.Sequence,2_2,2023-11-02T18:46:15.665Z,,0,,,4040.7259999999987,completion,,,,,true,,,,28196.300000190735,28196,24138.619,24147.300000190735,24155.274,28205.443,1,6,,,
trial,html.Screen,2_3_0,2023-11-02T18:46:20.482Z,,0,0,,4808.357000190736,response,ISIC_8980141.JPG,,ISIC_0031612.JPG,ISIC_0031612.JPG,true,0,keypress(z),500,33013.900000572205,33013.800000190735,28188.528,28196.400000572205,28205.443,33021.965,1,6,4,,ISIC_8980141.JPG
sequence,flow.Sequence,2_3,2023-11-02T18:46:20.482Z,,0,,,4808.357000190736,completion,,,,,true,,,,33014.10000038147,33013.800000190735,28188.528,28196.300000190735,28205.443,33021.965,1,6,,,
trial,html.Screen,2_4_0,2023-11-02T18:46:26.070Z,,0,0,,5578.335000190738,response,ISIC_9721604.JPG,,ISIC_1197737.JPG,ISIC_1197737.JPG,true,0,keypress(z),500,38601.400000572205,38600.300000190735,33005.172,33014.10000038147,33021.965,38605.241,1,6,5,,ISIC_9721604.JPG
sequence,flow.Sequence,2_4,2023-11-02T18:46:26.070Z,,0,,,5578.335000190738,completion,,,,,true,,,,38601.699999809265,38600.300000190735,33005.172,33014.10000038147,33021.965,38605.241,1,6,,,
trial,html.Screen,2_5_0,2023-11-02T18:46:29.033Z,,0,0,,2958.4589998092633,response,ISIC_0025346.JPG,,ISIC_0010681.JPG,ISIC_0025346.JPG,true,1,keypress(m),500,41564.60000038147,41563.699999809265,38588.76,38601.699999809265,38605.241,41571.826,1,6,6,,ISIC_0010681.JPG
sequence,flow.Sequence,2_5,2023-11-02T18:46:29.033Z,,0,,,2958.4589998092633,completion,,,,,true,,,,41565.10000038147,41563.699999809265,38588.76,38601.699999809265,38605.241,41571.826,1,6,,,
loop,flow.Loop,2,2023-11-02T18:46:29.034Z,,,,,27391.836999809268,completion,,,,,true,,,,41565.300000190735,41563.699999809265,14155.282,14158.5,14171.863,41571.826,1,6,,,
exp_instructions,html.Screen,3,2023-11-02T18:46:41.556Z,,,,,12515.574000572204,response,,,,,,continue,keypress(Space),,54087.900000572205,54087.400000572205,41555.215,41565.400000572205,41571.826,54105.676,,,,,
trial,html.Screen,4_0_0,2023-11-02T18:46:48.470Z,,0,1,,6895.8240000000005,response,ISIC_0012063.JPG,5,ISIC_0000763.JPG,ISIC_0012063.JPG,false,1,keypress(m),500,61001.60000038147,61001.5,54071.701,54088.10000038147,54105.676,61005.219,8,400,1,,ISIC_0000763.JPG
break,html.Screen,4_0_1,2023-11-02T18:46:48.470Z,,0,,,NaN,,,,,,false,,,,61001.900000572205,61001.900000572205,,61001.60000038147,,61005.219,8,400,,,
break_continue,html.Screen,4_0_2,2023-11-02T18:46:48.470Z,,0,,,NaN,,,,,,false,,,,61002.10000038147,61002,,61002,,61005.219,8,400,,,
sequence,flow.Sequence,4_0,2023-11-02T18:46:48.470Z,,0,,,6896.3240000000005,completion,,,,,false,,,,61002.199999809265,61002,54071.701,54088.10000038147,54105.676,61005.219,8,400,,,
trial,html.Screen,4_1_0,2023-11-02T18:46:52.248Z,,0,1,,3774.6810005722073,response,ISIC_0030718.JPG,5,ISIC_6878417.JPG,ISIC_6878417.JPG,false,0,keypress(z),500,64780,64779.900000572205,60988.717,61002.199999809265,61005.219,64788.514,8,400,2,,ISIC_0030718.JPG
break,html.Screen,4_1_1,2023-11-02T18:46:52.249Z,,0,,,NaN,,,,,,false,,,,64780.300000190735,64780.199999809265,,64780,,64788.514,8,400,,,
break_continue,html.Screen,4_1_2,2023-11-02T18:46:52.249Z,,0,,,NaN,,,,,,false,,,,64780.5,64780.300000190735,,64780.300000190735,,64788.514,8,400,,,
sequence,flow.Sequence,4_1,2023-11-02T18:46:52.249Z,,0,,,3775.0810001907375,completion,,,,,false,,,,64780.5,64780.300000190735,60988.717,61002.199999809265,61005.219,64788.514,8,400,,,
trial,html.Screen,4_2_0,2023-11-02T18:46:55.867Z,,0,1,,3609.3860005722017,response,ISIC_0641480.JPG,6,ISIC_0032160.JPG,ISIC_0032160.JPG,false,0,keypress(z),500,68398,68397.9000005722,64771.876,64780.60000038147,64788.514,68405.228,8,400,3,,ISIC_0641480.JPG
break,html.Screen,4_2_1,2023-11-02T18:46:55.867Z,,0,,,NaN,,,,,,false,,,,68398.30000019073,68398.30000019073,,68398.10000038147,,68405.228,8,400,,,
break_continue,html.Screen,4_2_2,2023-11-02T18:46:55.868Z,,0,,,NaN,,,,,,false,,,,68398.5,68398.5,,68398.4000005722,,68405.228,8,400,,,
sequence,flow.Sequence,4_2,2023-11-02T18:46:55.868Z,,0,,,3609.985999999997,completion,,,,,false,,,,68398.5,68398.5,64771.876,64780.60000038147,64788.514,68405.228,8,400,,,
trial,html.Screen,4_3_0,2023-11-02T18:47:01.500Z,,0,1,,5626.072000190732,response,ISIC_0025305.JPG,6,ISIC_4548995.JPG,ISIC_0025305.JPG,false,1,keypress(m),500,74031.30000019073,74031.30000019073,68388.497,68398.69999980927,68405.228,74038.497,8,400,4,,ISIC_4548995.JPG
break,html.Screen,4_3_1,2023-11-02T18:47:01.501Z,,0,,,NaN,,,,,,false,,,,74031.69999980927,74031.69999980927,,74031.4000005722,,74038.497,8,400,,,
break_continue,html.Screen,4_3_2,2023-11-02T18:47:01.501Z,,0,,,NaN,,,,,,false,,,,74031.9000005722,74031.80000019073,,74031.80000019073,,74038.497,8,400,,,
sequence,flow.Sequence,4_3,2023-11-02T18:47:01.501Z,,0,,,5626.572000190732,completion,,,,,false,,,,74032,74031.80000019073,68388.497,68398.69999980927,68405.228,74038.497,8,400,,,
trial,html.Screen,4_4_0,2023-11-02T18:47:06.208Z,,0,1,,4699.803000190732,response,ISIC_0817140.JPG,6,ISIC_3646670.JPG,ISIC_3646670.JPG,false,0,keypress(z),500,78738.5,78738.30000019073,74021.81,74032.60000038147,74038.497,78755.196,8,400,5,,ISIC_0817140.JPG
break,html.Screen,4_4_1,2023-11-02T18:47:06.208Z,,0,,,NaN,,,,,,false,,,,78738.80000019073,78738.80000019073,,78738.60000038147,,78755.196,8,400,,,
break_continue,html.Screen,4_4_2,2023-11-02T18:47:06.208Z,,0,,,NaN,,,,,,false,,,,78739,78738.9000005722,,78738.9000005722,,78755.196,8,400,,,
sequence,flow.Sequence,4_4,2023-11-02T18:47:06.208Z,,0,,,4700.403000572202,completion,,,,,false,,,,78739,78738.9000005722,74021.81,74032.60000038147,74038.497,78755.196,8,400,,,
trial,html.Screen,4_5_0,2023-11-02T18:47:10.563Z,,0,1,,4338.104000190739,response,ISIC_0059722.JPG,6,ISIC_1169724.JPG,ISIC_0059722.JPG,false,1,keypress(m),500,83093.5,83093.30000019073,78738.447,78739.10000038147,78755.196,83105.218,8,400,6,,ISIC_1169724.JPG
break,html.Screen,4_5_1,2023-11-02T18:47:10.563Z,,0,,,NaN,,,,,,false,,,,83093.80000019073,83093.69999980927,,83093.60000038147,,83105.218,8,400,,,
break_continue,html.Screen,4_5_2,2023-11-02T18:47:10.563Z,,0,,,NaN,,,,,,false,,,,83093.9000005722,83093.9000005722,,83093.80000019073,,83105.218,8,400,,,
sequence,flow.Sequence,4_5,2023-11-02T18:47:10.563Z,,0,,,4338.704000572208,completion,,,,,false,,,,83094.10000038147,83093.9000005722,78738.447,78739,78755.196,83105.218,8,400,,,
trial,html.Screen,4_6_0,2023-11-02T18:47:15.543Z,,0,1,,4968.2820000000065,response,ISIC_0030393.JPG,6,ISIC_2031626.JPG,ISIC_0030393.JPG,false,1,keypress(m),500,88073.9000005722,88073.5,83088.479,83094.10000038147,83105.218,88088.467,8,400,7,,ISIC_2031626.JPG
break,html.Screen,4_6_1,2023-11-02T18:47:15.544Z,,0,,,NaN,,,,,,false,,,,88074.60000038147,88074.4000005722,,88074,,88088.467,8,400,,,
break_continue,html.Screen,4_6_2,2023-11-02T18:47:15.544Z,,0,,,NaN,,,,,,false,,,,88075,88075,,88074.69999980927,,88088.467,8,400,,,
sequence,flow.Sequence,4_6,2023-11-02T18:47:15.544Z,,0,,,4969.7820000000065,completion,,,,,false,,,,88075.19999980927,88075,83088.479,83094.10000038147,83105.218,88088.467,8,400,,,
trial,html.Screen,4_7_0,2023-11-02T18:47:20.763Z,,0,1,,5205.1330003814655,response,ISIC_1996356.JPG,5,ISIC_0011286.JPG,ISIC_0011286.JPG,false,0,keypress(z),500,93293.60000038147,93293.60000038147,88071.842,88075.19999980927,88088.467,93305.179,8,400,8,,ISIC_1996356.JPG
break,html.Screen,4_7_1,2023-11-02T18:47:20.763Z,,0,,,NaN,,,,,,false,,,,93294,93294,,93293.80000019073,,93305.179,8,400,,,
break_continue,html.Screen,4_7_2,2023-11-02T18:47:20.763Z,,0,,,NaN,,,,,,false,,,,93294.4000005722,93294.19999980927,,93294.19999980927,,93305.179,8,400,,,
sequence,flow.Sequence,4_7,2023-11-02T18:47:20.764Z,,0,,,5205.732999809261,completion,,,,,false,,,,93294.5,93294.19999980927,88071.842,88075.19999980927,88088.467,93305.179,8,400,,,
trial,html.Screen,4_8_0,2023-11-02T18:47:25.197Z,,0,1,,4422.721000572201,response,ISIC_0069791.JPG,5,ISIC_0011196.JPG,ISIC_0069791.JPG,false,1,keypress(m),500,97728.30000019073,97727.9000005722,93288.47,93294.5,93305.179,97738.674,8,400,9,,ISIC_0011196.JPG
break,html.Screen,4_8_1,2023-11-02T18:47:25.198Z,,0,,,NaN,,,,,,false,,,,97729.30000019073,97728.9000005722,,97728.5,,97738.674,8,400,,,
break_continue,html.Screen,4_8_2,2023-11-02T18:47:25.199Z,,0,,,NaN,,,,,,false,,,,97729.60000038147,97729.5,,97729.4000005722,,97738.674,8,400,,,
sequence,flow.Sequence,4_8,2023-11-02T18:47:25.199Z,,0,,,4424.320999999996,completion,,,,,false,,,,97729.69999980927,97729.5,93288.47,93294.5,93305.179,97738.674,8,400,,,
trial,html.Screen,4_9_0,2023-11-02T18:47:32.578Z,,0,1,,7369.326000000001,response,ISIC_5877211.JPG,6,ISIC_1543544.JPG,ISIC_5877211.JPG,false,1,keypress(m),500,105109.10000038147,105108,97721.798,97729.80000019073,97738.674,105121.77,8,400,10,,ISIC_1543544.JPG
break,html.Screen,4_9_1,2023-11-02T18:47:32.579Z,,0,,,NaN,,,,,,false,,,,105109.69999980927,105109.5,,105109.30000019073,,105121.77,8,400,,,
break_continue,html.Screen,4_9_2,2023-11-02T18:47:32.579Z,,0,,,NaN,,,,,,false,,,,105110,105109.9000005722,,105109.80000019073,,105121.77,8,400,,,
sequence,flow.Sequence,4_9,2023-11-02T18:47:32.579Z,,0,,,7371.2260005722055,completion,,,,,false,,,,105110.10000038147,105109.9000005722,97721.798,97729.80000019073,97738.674,105121.77,8,400,,,
trial,html.Screen,4_10_0,2023-11-02T18:47:35.718Z,,0,1,,3126.429999809261,response,ISIC_0024300.JPG,6,ISIC_0033711.JPG,ISIC_0033711.JPG,false,0,keypress(z),500,108248.69999980927,108248.19999980927,105105.109,105110.10000038147,105121.77,108255.266,8,400,11,,ISIC_0024300.JPG
break,html.Screen,4_10_1,2023-11-02T18:47:35.719Z,,0,,,NaN,,,,,,false,,,,108249.80000019073,108249.5,,108248.9000005722,,108255.266,8,400,,,
break_continue,html.Screen,4_10_2,2023-11-02T18:47:35.719Z,,0,,,NaN,,,,,,false,,,,108250.30000019073,108250.10000038147,,108249.9000005722,,108255.266,8,400,,,
sequence,flow.Sequence,4_10,2023-11-02T18:47:35.719Z,,0,,,3128.3300003814657,completion,,,,,false,,,,108250.30000019073,108250.10000038147,105105.109,105110.10000038147,105121.77,108255.266,8,400,,,
trial,html.Screen,4_11_0,2023-11-02T18:47:42.345Z,,0,1,,6620.634000572201,response,ISIC_0033607.JPG,5,ISIC_0030135.JPG,ISIC_0030135.JPG,false,0,keypress(z),500,114876.10000038147,114875.9000005722,108238.508,108250.30000019073,108255.266,114888.432,8,400,12,,ISIC_0033607.JPG
break,html.Screen,4_11_1,2023-11-02T18:47:42.346Z,,0,,,NaN,,,,,,false,,,,114876.80000019073,114876.69999980927,,114876.30000019073,,114888.432,8,400,,,
break_continue,html.Screen,4_11_2,2023-11-02T18:47:42.346Z,,0,,,NaN,,,,,,false,,,,114877.10000038147,114877,,114877,,114888.432,8,400,,,
sequence,flow.Sequence,4_11,2023-11-02T18:47:42.346Z,,0,,,6621.733999999997,completion,,,,,false,,,,114877.19999980927,114877,108238.508,108250.30000019073,108255.266,114888.432,8,400,,,
trial,html.Screen,4_12_0,2023-11-02T18:47:46.523Z,,0,1,,4165.868000190734,response,ISIC_0027804.JPG,5,ISIC_0057716.JPG,ISIC_0027804.JPG,false,1,keypress(m),500,119054.30000019073,119054.30000019073,114871.754,114877.19999980927,114888.432,119073.115,8,400,13,,ISIC_0057716.JPG
break,html.Screen,4_12_1,2023-11-02T18:47:46.524Z,,0,,,NaN,,,,,,false,,,,119054.60000038147,119054.60000038147,,119054.4000005722,,119073.115,8,400,,,
break_continue,html.Screen,4_12_2,2023-11-02T18:47:46.524Z,,0,,,NaN,,,,,,false,,,,119054.80000019073,119054.80000019073,,119054.69999980927,,119073.115,8,400,,,
sequence,flow.Sequence,4_12,2023-11-02T18:47:46.524Z,,0,,,4166.368000190734,completion,,,,,false,,,,119055,119054.80000019073,114871.754,114877.19999980927,114888.432,119073.115,8,400,,,
trial,html.Screen,4_13_0,2023-11-02T18:47:51.071Z,,0,1,,4528.08499980926,response,ISIC_5055871.JPG,5,ISIC_0054185.JPG,ISIC_0054185.JPG,false,0,keypress(z),500,123601.69999980927,123601.19999980927,119038.376,119055,119073.115,123605.159,8,400,14,,ISIC_5055871.JPG
break,html.Screen,4_13_1,2023-11-02T18:47:51.073Z,,0,,,NaN,,,,,,false,,,,123604.30000019073,123603.60000038147,,123602.4000005722,,123605.159,8,400,,,
break_continue,html.Screen,4_13_2,2023-11-02T18:47:51.074Z,,0,,,NaN,,,,,,false,,,,123604.69999980927,123604.60000038147,,123604.5,,123605.159,8,400,,,
sequence,flow.Sequence,4_13,2023-11-02T18:47:51.074Z,,0,,,4531.4850003814645,completion,,,,,false,,,,123604.69999980927,123604.60000038147,119038.376,119055,119073.115,123605.159,8,400,,,
trial,html.Screen,4_14_0,2023-11-02T18:47:55.220Z,,0,1,,4145.641000190735,response,ISIC_0031844.JPG,5,ISIC_0046640.JPG,ISIC_0046640.JPG,false,0,keypress(z),500,127751,127750.80000019073,123588.418,123604.80000019073,123605.159,127755.267,8,400,15,,ISIC_0031844.JPG
break,html.Screen,4_14_1,2023-11-02T18:47:55.221Z,,0,,,NaN,,,,,,false,,,,127751.4000005722,127751.30000019073,,127751.10000038147,,127755.267,8,400,,,
break_continue,html.Screen,4_14_2,2023-11-02T18:47:55.221Z,,0,,,NaN,,,,,,false,,,,127751.5,127751.4000005722,,127751.4000005722,,127755.267,8,400,,,
sequence,flow.Sequence,4_14,2023-11-02T18:47:55.221Z,,0,,,4146.241000572205,completion,,,,,false,,,,127751.60000038147,127751.4000005722,123588.418,123604.80000019073,123605.159,127755.267,8,400,,,
trial,html.Screen,4_15_0,2023-11-02T18:47:58.792Z,,0,1,,3566.6330005721975,response,ISIC_0024284.JPG,5,ISIC_0011730.JPG,ISIC_0011730.JPG,false,0,keypress(z),500,131322.19999980927,131321.9000005722,127738.402,127751.69999980927,127755.267,131338.427,8,400,16,,ISIC_0024284.JPG
break,html.Screen,4_15_1,2023-11-02T18:47:58.792Z,,0,,,NaN,,,,,,false,,,,131323.10000038147,131322.80000019073,,131322.19999980927,,131338.427,8,400,,,
break_continue,html.Screen,4_15_2,2023-11-02T18:47:58.793Z,,0,,,NaN,,,,,,false,,,,131323.30000019073,131323.19999980927,,131323.10000038147,,131338.427,8,400,,,
sequence,flow.Sequence,4_15,2023-11-02T18:47:58.793Z,,0,,,3567.932999809258,completion,,,,,false,,,,131323.4000005722,131323.19999980927,127738.402,127751.69999980927,127755.267,131338.427,8,400,,,
trial,html.Screen,4_16_0,2023-11-02T18:48:02.156Z,,0,1,,3348.272999809269,response,ISIC_0025242.JPG,7,ISIC_8170849.JPG,ISIC_0025242.JPG,false,1,keypress(m),500,134687,134686.69999980927,131321.751,131323.5,131338.427,134706.172,8,400,17,,ISIC_8170849.JPG
break,html.Screen,4_16_1,2023-11-02T18:48:02.157Z,,0,,,NaN,,,,,,false,,,,134688,134687.80000019073,,134687.10000038147,,134706.172,8,400,,,
break_continue,html.Screen,4_16_2,2023-11-02T18:48:02.158Z,,0,,,NaN,,,,,,false,,,,134688.5,134688.4000005722,,134688.30000019073,,134706.172,8,400,,,
sequence,flow.Sequence,4_16,2023-11-02T18:48:02.158Z,,0,,,3349.9730005722085,completion,,,,,false,,,,134688.60000038147,134688.4000005722,131321.751,131323.5,131338.427,134706.172,8,400,,,
trial,html.Screen,4_17_0,2023-11-02T18:48:05.743Z,,0,1,,3567.5279998092738,response,ISIC_0067972.JPG,6,ISIC_0028618.JPG,ISIC_0067972.JPG,false,1,keypress(m),500,138273.9000005722,138273.69999980927,134671.707,134688.60000038147,134706.172,138288.377,8,400,18,,ISIC_0028618.JPG
break,html.Screen,4_17_1,2023-11-02T18:48:05.744Z,,0,,,NaN,,,,,,false,,,,138274.19999980927,138274.10000038147,,138273.9000005722,,138288.377,8,400,,,
break_continue,html.Screen,4_17_2,2023-11-02T18:48:05.745Z,,0,,,NaN,,,,,,false,,,,138275.10000038147,138275,,138274.60000038147,,138288.377,8,400,,,
sequence,flow.Sequence,4_17,2023-11-02T18:48:05.745Z,,0,,,3568.8280000000086,completion,,,,,false,,,,138275.30000019073,138275,134671.707,134688.60000038147,134706.172,138288.377,8,400,,,
trial,html.Screen,4_18_0,2023-11-02T18:48:09.331Z,,0,1,,3573.023000572197,response,ISIC_0024496.JPG,6,ISIC_9335652.JPG,ISIC_9335652.JPG,false,0,keypress(z),500,141861.60000038147,141861.4000005722,138271.734,138275.5,138288.377,141871.858,8,400,19,,ISIC_0024496.JPG
break,html.Screen,4_18_1,2023-11-02T18:48:09.331Z,,0,,,NaN,,,,,,false,,,,141861.9000005722,141861.80000019073,,141861.69999980927,,141871.858,8,400,,,
break_continue,html.Screen,4_18_2,2023-11-02T18:48:09.331Z,,0,,,NaN,,,,,,false,,,,141862,141862,,141861.9000005722,,141871.858,8,400,,,
sequence,flow.Sequence,4_18,2023-11-02T18:48:09.332Z,,0,,,3573.6229999999923,completion,,,,,false,,,,141862.10000038147,141862,138271.734,138275.4000005722,138288.377,141871.858,8,400,,,
trial,html.Screen,4_19_0,2023-11-02T18:48:12.789Z,,0,1,,3447.9420001907274,response,ISIC_0011086.JPG,6,ISIC_4804158.JPG,ISIC_0011086.JPG,false,1,keypress(m),500,145320,145319.80000019073,141855.095,141862.19999980927,141871.858,145321.739,8,400,20,,ISIC_4804158.JPG
break,html.Screen,4_19_1,2023-11-02T18:48:12.790Z,,0,,,NaN,,,,,,false,,,,145320.4000005722,145320.19999980927,,145320,,145321.739,8,400,,,
break_continue,html.Screen,4_19_2,2023-11-02T18:48:12.790Z,,0,,,NaN,,,,,,false,,,,145320.9000005722,145320.80000019073,,145320.5,,145321.739,8,400,,,
sequence,flow.Sequence,4_19,2023-11-02T18:48:12.790Z,,0,,,3448.9420001907274,completion,,,,,false,,,,145321,145320.80000019073,141855.095,141862.10000038147,141871.858,145321.739,8,400,,,
trial,html.Screen,4_20_0,2023-11-02T18:48:18.665Z,,0,1,,5873.5610001907335,response,ISIC_1739667.JPG,5,ISIC_7101810.JPG,ISIC_7101810.JPG,false,0,keypress(z),500,151195.4000005722,151195.30000019073,145305.102,145321.10000038147,145321.739,151205.11,8,400,21,,ISIC_1739667.JPG
break,html.Screen,4_20_1,2023-11-02T18:48:18.665Z,,0,,,NaN,,,,,,false,,,,151196,151195.9000005722,,151195.60000038147,,151205.11,8,400,,,
break_continue,html.Screen,4_20_2,2023-11-02T18:48:18.666Z,,0,,,NaN,,,,,,false,,,,151196.30000019073,151196.19999980927,,151196.10000038147,,151205.11,8,400,,,
sequence,flow.Sequence,4_20,2023-11-02T18:48:18.666Z,,0,,,5874.460999809264,completion,,,,,false,,,,151196.4000005722,151196.19999980927,145305.102,145321.10000038147,145321.739,151205.11,8,400,,,
trial,html.Screen,4_21_0,2023-11-02T18:48:23.357Z,,0,1,,4681.790000572219,response,ISIC_4018813.JPG,6,ISIC_3447331.JPG,ISIC_4018813.JPG,false,1,keypress(m),500,155887.4000005722,155886.9000005722,151188.386,151196.5,151205.11,155921.975,8,400,22,,ISIC_3447331.JPG
break,html.Screen,4_21_1,2023-11-02T18:48:23.358Z,,0,,,NaN,,,,,,false,,,,155888.30000019073,155888,,155887.5,,155921.975,8,400,,,
break_continue,html.Screen,4_21_2,2023-11-02T18:48:23.359Z,,0,,,NaN,,,,,,false,,,,155890,155889.4000005722,,155889,,155921.975,8,400,,,
sequence,flow.Sequence,4_21,2023-11-02T18:48:23.361Z,,0,,,4684.290000572219,completion,,,,,false,,,,155891.60000038147,155889.4000005722,151188.386,151196.5,151205.11,155921.975,8,400,,,
trial,html.Screen,4_22_0,2023-11-02T18:48:27.252Z,,0,1,,3860.625000381464,response,ISIC_0188432.JPG,4,ISIC_0070435.JPG,ISIC_0070435.JPG,false,0,keypress(z),500,159782.80000019073,159782.60000038147,155906.299,155891.69999980927,155921.975,159788.351,8,400,23,,ISIC_0188432.JPG
break,html.Screen,4_22_1,2023-11-02T18:48:27.253Z,,0,,,NaN,,,,,,false,,,,159783.19999980927,159783.10000038147,,159782.80000019073,,159788.351,8,400,,,
break_continue,html.Screen,4_22_2,2023-11-02T18:48:27.253Z,,0,,,NaN,,,,,,false,,,,159783.30000019073,159783.19999980927,,159783.19999980927,,159788.351,8,400,,,
sequence,flow.Sequence,4_22,2023-11-02T18:48:27.253Z,,0,,,3861.2249998092593,completion,,,,,false,,,,159783.4000005722,159783.19999980927,155906.299,155891.69999980927,155921.975,159788.351,8,400,,,
trial,html.Screen,4_23_0,2023-11-02T18:48:35.847Z,,0,1,,8588.649000000005,response,ISIC_0030732.JPG,5,ISIC_0012066.JPG,ISIC_0030732.JPG,false,1,keypress(m),500,168377.10000038147,168377,159771.702,159783.5,159788.351,168388.487,8,400,24,,ISIC_0012066.JPG
break,html.Screen,4_23_1,2023-11-02T18:48:35.847Z,,0,,,NaN,,,,,,false,,,,168377.69999980927,168377.5,,168377.19999980927,,168388.487,8,400,,,
break_continue,html.Screen,4_23_2,2023-11-02T18:48:35.847Z,,0,,,NaN,,,,,,false,,,,168377.80000019073,168377.80000019073,,168377.80000019073,,168388.487,8,400,,,
sequence,flow.Sequence,4_23,2023-11-02T18:48:35.847Z,,0,,,8589.44900019074,completion,,,,,false,,,,168378,168377.80000019073,159771.702,159783.5,159788.351,168388.487,8,400,,,
trial,html.Screen,4_24_0,2023-11-02T18:48:42.682Z,,0,1,,6823.513000000006,response,ISIC_1211506.JPG,6,ISIC_1795529.JPG,ISIC_1795529.JPG,false,0,keypress(z),500,175212.5,175212,168371.69,168378,168388.487,175221.673,8,400,25,,ISIC_1211506.JPG
break,html.Screen,4_24_1,2023-11-02T18:48:42.683Z,,0,,,NaN,,,,,,false,,,,175213.69999980927,175213.30000019073,,175212.80000019073,,175221.673,8,400,,,
break_continue,html.Screen,4_24_2,2023-11-02T18:48:42.683Z,,0,,,NaN,,,,,,false,,,,175214,175214,,175213.9000005722,,175221.673,8,400,,,
sequence,flow.Sequence,4_24,2023-11-02T18:48:42.684Z,,0,,,6825.513000000006,completion,,,,,false,,,,175214.10000038147,175214,168371.69,168378,168388.487,175221.673,8,400,,,
trial,html.Screen,4_25_0,2023-11-02T18:48:46.398Z,,0,1,,3706.627000190725,response,ISIC_0030703.JPG,6,ISIC_0770920.JPG,ISIC_0770920.JPG,false,0,keypress(z),500,178928.5,178928.30000019073,175204.994,175214.19999980927,175221.673,178938.341,8,400,26,,ISIC_0030703.JPG
break,html.Screen,4_25_1,2023-11-02T18:48:46.398Z,,0,,,NaN,,,,,,false,,,,178928.80000019073,178928.69999980927,,178928.5,,178938.341,8,400,,,
break_continue,html.Screen,4_25_2,2023-11-02T18:48:46.398Z,,0,,,NaN,,,,,,false,,,,178928.9000005722,178928.80000019073,,178928.80000019073,,178938.341,8,400,,,
sequence,flow.Sequence,4_25,2023-11-02T18:48:46.398Z,,0,,,3707.127000190725,completion,,,,,false,,,,178929,178928.80000019073,175204.994,175214.19999980927,175221.673,178938.341,8,400,,,
trial,html.Screen,4_26_0,2023-11-02T18:48:49.217Z,,0,1,,2808.459000190749,response,ISIC_0001103.JPG,5,ISIC_8901133.JPG,ISIC_0001103.JPG,false,1,keypress(m),500,181747.69999980927,181746.80000019073,178921.667,178929,178938.341,181755,8,400,27,,ISIC_8901133.JPG
break,html.Screen,4_26_1,2023-11-02T18:48:49.218Z,,0,,,NaN,,,,,,false,,,,181748.60000038147,181748.19999980927,,181747.9000005722,,181755,8,400,,,
break_continue,html.Screen,4_26_2,2023-11-02T18:48:49.218Z,,0,,,NaN,,,,,,false,,,,181748.9000005722,181748.80000019073,,181748.69999980927,,181755,8,400,,,
sequence,flow.Sequence,4_26,2023-11-02T18:48:49.218Z,,0,,,2810.459000190749,completion,,,,,false,,,,181749,181748.80000019073,178921.667,178929,178938.341,181755,8,400,,,
trial,html.Screen,4_27_0,2023-11-02T18:48:53.893Z,,0,1,,4667.800000190735,response,ISIC_0062812.JPG,4,ISIC_0000725.JPG,ISIC_0000725.JPG,false,0,keypress(z),500,186423,186422.80000019073,181738.358,181749,181755,186438.341,8,400,28,,ISIC_0062812.JPG
break,html.Screen,4_27_1,2023-11-02T18:48:53.893Z,,0,,,NaN,,,,,,false,,,,186423.69999980927,186423.5,,186423.30000019073,,186438.341,8,400,,,
break_continue,html.Screen,4_27_2,2023-11-02T18:48:53.894Z,,0,,,NaN,,,,,,false,,,,186424,186423.9000005722,,186423.80000019073,,186438.341,8,400,,,
sequence,flow.Sequence,4_27,2023-11-02T18:48:53.894Z,,0,,,4668.900000572205,completion,,,,,false,,,,186424.10000038147,186423.9000005722,181738.358,181749,181755,186438.341,8,400,,,
trial,html.Screen,4_28_0,2023-11-02T18:48:57.799Z,,0,1,,3890.759000381484,response,ISIC_6507792.JPG,5,ISIC_8468512.JPG,ISIC_6507792.JPG,false,1,keypress(m),500,190329.19999980927,190329.10000038147,186421.64,186424.10000038147,186438.341,190338.45,8,400,29,,ISIC_8468512.JPG
break,html.Screen,4_28_1,2023-11-02T18:48:57.799Z,,0,,,NaN,,,,,,false,,,,190329.4000005722,190329.4000005722,,190329.19999980927,,190338.45,8,400,,,
break_continue,html.Screen,4_28_2,2023-11-02T18:48:57.799Z,,0,,,NaN,,,,,,false,,,,190329.60000038147,190329.5,,190329.5,,190338.45,8,400,,,
sequence,flow.Sequence,4_28,2023-11-02T18:48:57.799Z,,0,,,3891.159000000014,completion,,,,,false,,,,190329.69999980927,190329.5,186421.64,186424.10000038147,186438.341,190338.45,8,400,,,
trial,html.Screen,4_29_0,2023-11-02T18:49:01.034Z,,0,1,,3225.5499999999884,response,ISIC_7697022.JPG,6,ISIC_1080647.JPG,ISIC_1080647.JPG,false,0,keypress(z),500,193564.30000019073,193564,190321.667,190329.69999980927,190338.45,193571.941,8,400,30,,ISIC_7697022.JPG
break,html.Screen,4_29_1,2023-11-02T18:49:01.035Z,,0,,,NaN,,,,,,false,,,,193565.19999980927,193565.10000038147,,193564.4000005722,,193571.941,8,400,,,
break_continue,html.Screen,4_29_2,2023-11-02T18:49:01.035Z,,0,,,NaN,,,,,,false,,,,193565.4000005722,193565.30000019073,,193565.30000019073,,193571.941,8,400,,,
sequence,flow.Sequence,4_29,2023-11-02T18:49:01.035Z,,0,,,3226.850000190723,completion,,,,,false,,,,193565.5,193565.30000019073,190321.667,190329.69999980927,190338.45,193571.941,8,400,,,
trial,html.Screen,4_30_0,2023-11-02T18:49:04.958Z,,0,1,,3915.8590001907432,response,ISIC_0030963.JPG,5,ISIC_0026266.JPG,ISIC_0026266.JPG,false,0,keypress(z),500,197487.9000005722,197487.80000019073,193555.171,193565.5,193571.941,197504.992,8,400,31,,ISIC_0030963.JPG
break,html.Screen,4_30_1,2023-11-02T18:49:04.958Z,,0,,,NaN,,,,,,false,,,,197488.69999980927,197488.4000005722,,197488,,197504.992,8,400,,,
break_continue,html.Screen,4_30_2,2023-11-02T18:49:04.960Z,,0,,,NaN,,,,,,false,,,,197489.80000019073,197489.4000005722,,197489,,197504.992,8,400,,,
sequence,flow.Sequence,4_30,2023-11-02T18:49:04.960Z,,0,,,3917.459000572213,completion,,,,,false,,,,197490.19999980927,197489.4000005722,193555.171,193565.5,193571.941,197504.992,8,400,,,
trial,html.Screen,4_31_0,2023-11-02T18:49:12.390Z,,0,1,,7414.707999809267,response,ISIC_0009971.JPG,6,ISIC_0031310.JPG,ISIC_0031310.JPG,false,0,keypress(z),500,204919.9000005722,204919.69999980927,197488.294,197490.30000019073,197504.992,204921.64,8,400,32,,ISIC_0009971.JPG
break,html.Screen,4_31_1,2023-11-02T18:49:12.390Z,,0,,,NaN,,,,,,false,,,,204920.19999980927,204920.10000038147,,204920,,204921.64,8,400,,,
break_continue,html.Screen,4_31_2,2023-11-02T18:49:12.390Z,,0,,,NaN,,,,,,false,,,,204920.4000005722,204920.4000005722,,204920.19999980927,,204921.64,8,400,,,
sequence,flow.Sequence,4_31,2023-11-02T18:49:12.390Z,,0,,,7415.408000572206,completion,,,,,false,,,,204920.4000005722,204920.4000005722,197488.294,197490.30000019073,197504.992,204921.64,8,400,,,
trial,html.Screen,4_32_0,2023-11-02T18:49:18.840Z,,0,1,,6448.460000381456,response,ISIC_5179884.JPG,5,ISIC_0033333.JPG,ISIC_0033333.JPG,false,0,keypress(z),500,211370.30000019073,211370.10000038147,204905.2,204920.5,204921.64,211388.861,8,400,33,,ISIC_5179884.JPG
break,html.Screen,4_32_1,2023-11-02T18:49:18.840Z,,0,,,NaN,,,,,,false,,,,211370.69999980927,211370.69999980927,,211370.4000005722,,211388.861,8,400,,,
break_continue,html.Screen,4_32_2,2023-11-02T18:49:18.841Z,,0,,,NaN,,,,,,false,,,,211370.80000019073,211370.80000019073,,211370.80000019073,,211388.861,8,400,,,
sequence,flow.Sequence,4_32,2023-11-02T18:49:18.841Z,,0,,,6449.160000190721,completion,,,,,false,,,,211370.9000005722,211370.80000019073,204905.2,204920.5,204921.64,211388.861,8,400,,,
trial,html.Screen,4_33_0,2023-11-02T18:49:23.435Z,,0,1,,4576.239000381465,response,ISIC_8297563.JPG,5,ISIC_3310364.JPG,ISIC_8297563.JPG,false,1,keypress(m),500,215965.19999980927,215965.10000038147,211355.196,211371,211388.861,215971.603,8,400,34,,ISIC_3310364.JPG
break,html.Screen,4_33_1,2023-11-02T18:49:23.435Z,,0,,,NaN,,,,,,false,,,,215965.69999980927,215965.60000038147,,215965.30000019073,,215971.603,8,400,,,
break_continue,html.Screen,4_33_2,2023-11-02T18:49:23.436Z,,0,,,NaN,,,,,,false,,,,215966,215965.9000005722,,215965.80000019073,,215971.603,8,400,,,
sequence,flow.Sequence,4_33,2023-11-02T18:49:23.436Z,,0,,,4577.0390005722,completion,,,,,false,,,,215966.10000038147,215965.9000005722,211355.196,211371,211388.861,215971.603,8,400,,,
trial,html.Screen,4_34_0,2023-11-02T18:49:28.174Z,,0,1,,4732.096999809262,response,ISIC_0032892.JPG,6,ISIC_0002435.JPG,ISIC_0032892.JPG,false,1,keypress(m),500,220703.80000019073,220703.69999980927,215954.97,215966.10000038147,215971.603,220722.56,8,400,35,,ISIC_0002435.JPG
break,html.Screen,4_34_1,2023-11-02T18:49:28.174Z,,0,,,NaN,,,,,,false,,,,220704.10000038147,220704,,220703.9000005722,,220722.56,8,400,,,
break_continue,html.Screen,4_34_2,2023-11-02T18:49:28.174Z,,0,,,NaN,,,,,,false,,,,220704.19999980927,220704.10000038147,,220704.10000038147,,220722.56,8,400,,,
sequence,flow.Sequence,4_34,2023-11-02T18:49:28.174Z,,0,,,4732.497000381467,completion,,,,,false,,,,220704.19999980927,220704.10000038147,215954.97,215966.10000038147,215971.603,220722.56,8,400,,,
trial,html.Screen,4_35_0,2023-11-02T18:49:32.512Z,,0,1,,4319.340000572207,response,ISIC_1369273.JPG,5,ISIC_8051628.JPG,ISIC_1369273.JPG,false,1,keypress(m),500,225042,225041.9000005722,220688.295,220704.4000005722,220722.56,225055.019,8,400,36,,ISIC_8051628.JPG
break,html.Screen,4_35_1,2023-11-02T18:49:32.512Z,,0,,,NaN,,,,,,false,,,,225042.69999980927,225042.5,,225042.19999980927,,225055.019,8,400,,,
break_continue,html.Screen,4_35_2,2023-11-02T18:49:32.513Z,,0,,,NaN,,,,,,false,,,,225043,225042.80000019073,,225042.80000019073,,225055.019,8,400,,,
sequence,flow.Sequence,4_35,2023-11-02T18:49:32.513Z,,0,,,4320.240000190737,completion,,,,,false,,,,225043,225042.80000019073,220688.295,220704.4000005722,220722.56,225055.019,8,400,,,
trial,html.Screen,4_36_0,2023-11-02T18:49:36.579Z,,0,1,,4053.7810001907346,response,ISIC_9927221.JPG,5,ISIC_4475268.JPG,ISIC_4475268.JPG,false,0,keypress(z),500,229109.10000038147,229108.80000019073,225038.328,225043.10000038147,225055.019,229121.575,8,400,37,,ISIC_9927221.JPG
break,html.Screen,4_36_1,2023-11-02T18:49:36.579Z,,0,,,NaN,,,,,,false,,,,229109.5,229109.4000005722,,229109.19999980927,,229121.575,8,400,,,
break_continue,html.Screen,4_36_2,2023-11-02T18:49:36.580Z,,0,,,NaN,,,,,,false,,,,229109.80000019073,229109.80000019073,,229109.60000038147,,229121.575,8,400,,,
sequence,flow.Sequence,4_36,2023-11-02T18:49:36.580Z,,0,,,4054.7810001907346,completion,,,,,false,,,,229109.9000005722,229109.80000019073,225038.328,225043,225055.019,229121.575,8,400,,,
trial,html.Screen,4_37_0,2023-11-02T18:49:40.325Z,,0,1,,3733.6249998092535,response,ISIC_3013569.JPG,6,ISIC_2739449.JPG,ISIC_3013569.JPG,false,1,keypress(m),500,232855.4000005722,232855.19999980927,229104.895,229110,229121.575,232871.592,8,400,38,,ISIC_2739449.JPG
break,html.Screen,4_37_1,2023-11-02T18:49:40.326Z,,0,,,NaN,,,,,,false,,,,232856.10000038147,232856,,232855.5,,232871.592,8,400,,,
break_continue,html.Screen,4_37_2,2023-11-02T18:49:40.326Z,,0,,,NaN,,,,,,false,,,,232856.4000005722,232856.30000019073,,232856.19999980927,,232871.592,8,400,,,
sequence,flow.Sequence,4_37,2023-11-02T18:49:40.326Z,,0,,,3734.725000190723,completion,,,,,false,,,,232856.60000038147,232856.30000019073,229104.895,229110,229121.575,232871.592,8,400,,,
trial,html.Screen,4_38_0,2023-11-02T18:49:47.353Z,,0,1,,7011.8080005722,response,ISIC_3492490.JPG,6,ISIC_0010923.JPG,ISIC_0010923.JPG,false,0,keypress(z),500,239883.4000005722,239883.4000005722,232855.071,232856.9000005722,232871.592,239888.395,8,400,39,,ISIC_3492490.JPG
break,html.Screen,4_38_1,2023-11-02T18:49:47.353Z,,0,,,NaN,,,,,,false,,,,239883.80000019073,239883.69999980927,,239883.60000038147,,239888.395,8,400,,,
break_continue,html.Screen,4_38_2,2023-11-02T18:49:47.354Z,,0,,,NaN,,,,,,false,,,,239883.9000005722,239883.9000005722,,239883.80000019073,,239888.395,8,400,,,
sequence,flow.Sequence,4_38,2023-11-02T18:49:47.354Z,,0,,,7012.3080005722,completion,,,,,false,,,,239884,239883.9000005722,232855.071,232856.80000019073,232871.592,239888.395,8,400,,,
trial,html.Screen,4_39_0,2023-11-02T18:49:51.578Z,,0,1,,4220.20500038148,response,ISIC_6635699.JPG,6,ISIC_0064907.JPG,ISIC_0064907.JPG,false,0,keypress(z),500,244108.69999980927,244108.60000038147,239871.558,239884,239888.395,244121.663,8,400,40,,ISIC_6635699.JPG
break,html.Screen,4_39_1,2023-11-02T18:49:51.579Z,,0,,,NaN,,,,,,false,,,,244109.10000038147,244109,,244108.80000019073,,244121.663,8,400,,,
break_continue,html.Screen,4_39_2,2023-11-02T18:49:51.579Z,,0,,,NaN,,,,,,false,,,,244109.19999980927,244109.19999980927,,244109.10000038147,,244121.663,8,400,,,
sequence,flow.Sequence,4_39,2023-11-02T18:49:51.579Z,,0,,,4220.804999809276,completion,,,,,false,,,,244109.30000019073,244109.19999980927,239871.558,239884,239888.395,244121.663,8,400,,,
trial,html.Screen,4_40_0,2023-11-02T18:49:56.381Z,,0,1,,4789.137000190734,response,ISIC_1154109.JPG,6,ISIC_2000319.JPG,ISIC_1154109.JPG,false,1,keypress(m),500,248910.9000005722,248910.80000019073,244104.939,244109.30000019073,244121.663,248921.722,8,400,41,,ISIC_2000319.JPG
break,html.Screen,4_40_1,2023-11-02T18:49:56.381Z,,0,,,NaN,,,,,,false,,,,248911.10000038147,248911.10000038147,,248911,,248921.722,8,400,,,
break_continue,html.Screen,4_40_2,2023-11-02T18:49:56.381Z,,0,,,NaN,,,,,,false,,,,248911.30000019073,248911.30000019073,,248911.30000019073,,248921.722,8,400,,,
sequence,flow.Sequence,4_40,2023-11-02T18:49:56.381Z,,0,,,4789.637000190734,completion,,,,,false,,,,248911.30000019073,248911.30000019073,244104.939,244109.30000019073,244121.663,248921.722,8,400,,,
trial,html.Screen,4_41_0,2023-11-02T18:49:59.887Z,,0,1,,3495.078000190726,response,ISIC_0010965.JPG,5,ISIC_0032901.JPG,ISIC_0010965.JPG,false,1,keypress(m),500,252417,252416.80000019073,248905.027,248911.5,248921.722,252421.751,8,400,42,,ISIC_0032901.JPG
break,html.Screen,4_41_1,2023-11-02T18:49:59.887Z,,0,,,NaN,,,,,,false,,,,252417.19999980927,252417.19999980927,,252417,,252421.751,8,400,,,
break_continue,html.Screen,4_41_2,2023-11-02T18:49:59.887Z,,0,,,NaN,,,,,,false,,,,252417.30000019073,252417.30000019073,,252417.30000019073,,252421.751,8,400,,,
sequence,flow.Sequence,4_41,2023-11-02T18:49:59.887Z,,0,,,3495.578000190726,completion,,,,,false,,,,252417.4000005722,252417.30000019073,248905.027,248911.4000005722,248921.722,252421.751,8,400,,,
trial,html.Screen,4_42_0,2023-11-02T18:50:03.377Z,,0,1,,3485.0490001907456,response,ISIC_8790198.JPG,4,ISIC_7544537.JPG,ISIC_8790198.JPG,false,1,keypress(m),500,255907,255906.80000019073,252405.024,252417.4000005722,252421.751,255921.6,8,400,43,,ISIC_7544537.JPG
break,html.Screen,4_42_1,2023-11-02T18:50:03.378Z,,0,,,NaN,,,,,,false,,,,255908.5,255907.4000005722,,255907.10000038147,,255921.6,8,400,,,
break_continue,html.Screen,4_42_2,2023-11-02T18:50:03.379Z,,0,,,NaN,,,,,,false,,,,255909.30000019073,255909.19999980927,,255909.10000038147,,255921.6,8,400,,,
sequence,flow.Sequence,4_42,2023-11-02T18:50:03.379Z,,0,,,3487.448999809276,completion,,,,,false,,,,255909.30000019073,255909.19999980927,252405.024,252417.4000005722,252421.751,255921.6,8,400,,,
trial,html.Screen,4_43_0,2023-11-02T18:50:06.324Z,,0,1,,2932.700000190729,response,ISIC_5777697.JPG,5,ISIC_0033377.JPG,ISIC_5777697.JPG,false,1,keypress(m),500,258854.5,258854.30000019073,255904.976,255909.5,255921.6,258871.778,8,400,44,,ISIC_0033377.JPG
break,html.Screen,4_43_1,2023-11-02T18:50:06.325Z,,0,,,NaN,,,,,,false,,,,258854.69999980927,258854.69999980927,,258854.60000038147,,258871.778,8,400,,,
break_continue,html.Screen,4_43_2,2023-11-02T18:50:06.325Z,,0,,,NaN,,,,,,false,,,,258854.9000005722,258854.80000019073,,258854.80000019073,,258871.778,8,400,,,
sequence,flow.Sequence,4_43,2023-11-02T18:50:06.325Z,,0,,,2933.200000190729,completion,,,,,false,,,,258855,258854.80000019073,255904.976,255909.4000005722,255921.6,258871.778,8,400,,,
trial,html.Screen,4_44_0,2023-11-02T18:50:10.342Z,,0,1,,4000.5220001907437,response,ISIC_0058024.JPG,6,ISIC_0069504.JPG,ISIC_0069504.JPG,false,0,keypress(z),500,262872.4000005722,262872.30000019073,258854.891,258855,258871.778,262888.19,8,400,45,,ISIC_0058024.JPG
break,html.Screen,4_44_1,2023-11-02T18:50:10.343Z,,0,,,NaN,,,,,,false,,,,262872.69999980927,262872.60000038147,,262872.5,,262888.19,8,400,,,
break_continue,html.Screen,4_44_2,2023-11-02T18:50:10.343Z,,0,,,NaN,,,,,,false,,,,262872.9000005722,262872.9000005722,,262872.69999980927,,262888.19,8,400,,,
sequence,flow.Sequence,4_44,2023-11-02T18:50:10.343Z,,0,,,4001.1220005722134,completion,,,,,false,,,,262873,262872.9000005722,258854.891,258855,258871.778,262888.19,8,400,,,
trial,html.Screen,4_45_0,2023-11-02T18:50:15.737Z,,0,1,,5379.1100001907325,response,ISIC_4384861.JPG,5,ISIC_7032028.JPG,ISIC_4384861.JPG,false,1,keypress(m),500,268267.4000005722,268267.30000019073,262871.531,262873,262888.19,268271.501,8,400,46,,ISIC_7032028.JPG
break,html.Screen,4_45_1,2023-11-02T18:50:15.738Z,,0,,,NaN,,,,,,false,,,,268267.69999980927,268267.60000038147,,268267.5,,268271.501,8,400,,,
break_continue,html.Screen,4_45_2,2023-11-02T18:50:15.738Z,,0,,,NaN,,,,,,false,,,,268267.80000019073,268267.80000019073,,268267.69999980927,,268271.501,8,400,,,
sequence,flow.Sequence,4_45,2023-11-02T18:50:15.738Z,,0,,,5379.6100001907325,completion,,,,,false,,,,268267.9000005722,268267.80000019073,262871.531,262873,262888.19,268271.501,8,400,,,
trial,html.Screen,4_46_0,2023-11-02T18:50:19.788Z,,0,1,,4046.698999809276,response,ISIC_3445468.JPG,5,ISIC_7509837.JPG,ISIC_3445468.JPG,false,1,keypress(m),500,272318.30000019073,272318.19999980927,268254.821,268267.9000005722,268271.501,272321.535,8,400,47,,ISIC_7509837.JPG
break,html.Screen,4_46_1,2023-11-02T18:50:19.788Z,,0,,,NaN,,,,,,false,,,,272318.60000038147,272318.5,,272318.30000019073,,272321.535,8,400,,,
break_continue,html.Screen,4_46_2,2023-11-02T18:50:19.789Z,,0,,,NaN,,,,,,false,,,,272318.69999980927,272318.69999980927,,272318.60000038147,,272321.535,8,400,,,
sequence,flow.Sequence,4_46,2023-11-02T18:50:19.789Z,,0,,,4047.198999809276,completion,,,,,false,,,,272318.69999980927,272318.69999980927,268254.821,268267.9000005722,268271.501,272321.535,8,400,,,
trial,html.Screen,4_47_0,2023-11-02T18:50:23.805Z,,0,1,,4013.9650000000256,response,ISIC_1177505.JPG,6,ISIC_0010848.JPG,ISIC_1177505.JPG,false,1,keypress(m),500,276335.60000038147,276335.5,272304.921,272318.80000019073,272321.535,276338.147,8,400,48,,ISIC_0010848.JPG
break,html.Screen,4_47_1,2023-11-02T18:50:23.806Z,,0,,,NaN,,,,,,false,,,,276335.80000019073,276335.80000019073,,276335.60000038147,,276338.147,8,400,,,
break_continue,html.Screen,4_47_2,2023-11-02T18:50:23.806Z,,0,,,NaN,,,,,,false,,,,276336,276335.9000005722,,276335.9000005722,,276338.147,8,400,,,
sequence,flow.Sequence,4_47,2023-11-02T18:50:23.806Z,,0,,,4014.36500057223,completion,,,,,false,,,,276336.10000038147,276335.9000005722,272304.921,272318.80000019073,272321.535,276338.147,8,400,,,
trial,html.Screen,4_48_0,2023-11-02T18:50:28.271Z,,0,1,,4462.753000572207,response,ISIC_7951202.JPG,6,ISIC_0030333.JPG,ISIC_7951202.JPG,false,1,keypress(m),500,280801.10000038147,280800.9000005722,276321.675,276336.10000038147,276338.147,280804.883,8,400,49,,ISIC_0030333.JPG
break,html.Screen,4_48_1,2023-11-02T18:50:28.271Z,,0,,,NaN,,,,,,false,,,,280801.4000005722,280801.30000019073,,280801.10000038147,,280804.883,8,400,,,
break_continue,html.Screen,4_48_2,2023-11-02T18:50:28.271Z,,0,,,NaN,,,,,,false,,,,280801.5,280801.4000005722,,280801.4000005722,,280804.883,8,400,,,
sequence,flow.Sequence,4_48,2023-11-02T18:50:28.271Z,,0,,,4463.253000572207,completion,,,,,false,,,,280801.5,280801.4000005722,276321.675,276336.10000038147,276338.147,280804.883,8,400,,,
trial,html.Screen,4_49_0,2023-11-02T18:50:33.105Z,,0,1,,4830.217000381497,response,ISIC_0027696.JPG,5,ISIC_7766007.JPG,ISIC_0027696.JPG,false,1,keypress(m),500,285635.5,285635.10000038147,280788.249,280801.60000038147,280804.883,285654.954,8,400,50,,ISIC_7766007.JPG