sender,sender_type,sender_id,timestamp,meta,,blockNo,condition,duration,ended_on,img_left,img_reveal,img_right,loser,practice,response,response_action,selection_duration,time_commit,time_end,time_render,time_run,time_show,time_switch,total_blocks,total_trials,trialNo,url,winner
informed_consent,html.Screen,0,2023-10-31T17:09:04.360Z,"{""labjs_version"":""20.2.4"",""labjs_build"":{""flavor"":""production"",""commit"":""f5b4a49f956347addd546a832a3327688c2c0fef""},""location"":""https://run.pavlovia.org/MurrayBennett/melanoma-2afc/?participant=66654&platform=sona"",""userAgent"":""Mozilla/5.0 (Macintosh; Intel Mac OS X 10_15_7) AppleWebKit/537.36 (KHTML, like Gecko) Chrome/118.0.0.0 Safari/537.36"",""platform"":""MacIntel"",""language"":""en-US"",""locale"":""en-US"",""timeZone"":""America/Chicago"",""timezoneOffset"":300,""screen_width"":1440,""screen_height"":900,""scroll_width"":1440,""scroll_height"":767,""window_innerWidth"":1440,""window_innerHeight"":815,""devicePixelRatio"":2}",,,,156769.59399997615,response,,,,,,consent,click button,,158637.39999997616,158626.39999997616,1406.824,1847.7999999523163,1856.806,158654.68,,,,"{""participant"":""66654"",""platform"":""sona""}",
Welcome,html.Screen,1,2023-10-31T17:09:37.843Z,,,,asymmetry,33445.61999995232,response,,,,,,continue,click button,,192120.89999997616,192100.29999995232,158621.348,158637.60000002384,158654.68,192137.367,,,,,
trial,html.Screen,2_0_0,2023-10-31T17:09:49.017Z,,0,0,,11157.03299997616,response,ISIC_0069348.JPG,,ISIC_6997061.JPG,ISIC_0069348.JPG,true,1,keypress(m),500,203295,203294.39999997616,192120.701,192121.10000002384,192137.367,203303.981,1,6,1,,ISIC_6997061.JPG
sequence,flow.Sequence,2_0,2023-10-31T17:09:49.018Z,,0,,,11157.03299997616,completion,,,,,true,,,,203295.29999995232,203294.39999997616,192120.701,192121,192137.367,203303.981,1,6,,,
trial,html.Screen,2_1_0,2023-10-31T17:09:55.630Z,,0,0,,6602.8189999523165,response,ISIC_0057368.JPG,,ISIC_0009529.JPG,ISIC_0057368.JPG,true,1,keypress(m),500,209907.10000002384,209906.79999995232,203287.315,203295.39999997616,203303.981,209920.661,1,6,2,,ISIC_0009529.JPG
sequence,flow.Sequence,2_1,2023-10-31T17:09:55.630Z,,0,,,6602.8189999523165,completion,,,,,true,,,,209907.60000002384,209906.79999995232,203287.315,203295.29999995232,203303.981,209920.661,1,6,,,
trial,html.Screen,2_2_0,2023-10-31T17:10:05.651Z,,0,0,,10007.638999952324,response,ISIC_9758671.JPG,,ISIC_0064954.JPG,ISIC_9758671.JPG,true,1,keypress(m),500,219928.69999992847,219928.29999995232,209903.995,209907.79999995232,209920.661,219937.189,1,6,3,,ISIC_0064954.JPG
sequence,flow.Sequence,2_2,2023-10-31T17:10:05.653Z,,0,,,10007.638999952324,completion,,,,,true,,,,219930.29999995232,219928.29999995232,209903.995,209907.69999992847,209920.661,219937.189,1,6,,,
trial,html.Screen,2_3_0,2023-10-31T17:10:10.950Z,,0,0,,5290.510999928461,response,ISIC_0005785.JPG,,ISIC_0000080.JPG,ISIC_0005785.JPG,true,1,keypress(m),500,225227.89999997616,225227.69999992847,219920.523,219930.5,219937.189,225236.977,1,6,4,,ISIC_0000080.JPG
sequence,flow.Sequence,2_3,2023-10-31T17:10:10.951Z,,0,,,5290.510999928461,completion,,,,,true,,,,225228.39999997616,225227.69999992847,219920.523,219930.39999997616,219937.189,225236.977,1,6,,,
trial,html.Screen,2_4_0,2023-10-31T17:10:16.217Z,,0,0,,5257.422999976145,response,ISIC_7944028.JPG,,ISIC_5390060.JPG,ISIC_5390060.JPG,true,0,keypress(z),500,230494.69999992847,230494.39999997616,225220.311,225228.5,225236.977,230503.71,1,6,5,,ISIC_7944028.JPG
sequence,flow.Sequence,2_4,2023-10-31T17:10:16.217Z,,0,,,5257.422999976145,completion,,,,,true,,,,230494.89999997616,230494.39999997616,225220.311,225228.5,225236.977,230503.71,1,6,,,
trial,html.Screen,2_5_0,2023-10-31T17:10:20.512Z,,0,0,,4285.489999928483,response,ISIC_0010188.JPG,,ISIC_0794216.JPG,ISIC_0010188.JPG,true,1,keypress(m),500,234789.39999997616,234789.19999992847,230487.044,230495,230503.71,234803.538,1,6,6,,ISIC_0794216.JPG
sequence,flow.Sequence,2_5,2023-10-31T17:10:20.512Z,,0,,,4285.489999928483,completion,,,,,true,,,,234789.60000002384,234789.19999992847,230487.044,230495,230503.71,234803.538,1,6,,,
loop,flow.Loop,2,2023-10-31T17:10:20.512Z,,,,,42651.832999928476,completion,,,,,true,,,,234789.79999995232,234789.19999992847,192120.701,192121,192137.367,234803.538,1,6,,,
exp_instructions,html.Screen,3,2023-10-31T17:10:31.298Z,,,,,10766.261999952316,response,,,,,,continue,keypress(Space),,245575.19999992847,245569.79999995232,234786.872,234789.89999997616,234803.538,245586.818,,,,,
trial,html.Screen,4_0_0,2023-10-31T17:10:37.158Z,,0,1,,5848.682000000001,response,ISIC_0655635.JPG,7,ISIC_7694069.JPG,ISIC_7694069.JPG,false,0,keypress(z),500,251435.79999995232,251435.5,245570.152,245575.29999995232,245586.818,251453.25,8,400,1,,ISIC_0655635.JPG
break,html.Screen,4_0_1,2023-10-31T17:10:37.160Z,,0,,,NaN,,,,,,false,,,,251438.10000002384,251437.19999992847,,251435.89999997616,,251453.25,8,400,,,
break_continue,html.Screen,4_0_2,2023-10-31T17:10:37.161Z,,0,,,NaN,,,,,,false,,,,251438.29999995232,251438.19999992847,,251438.10000002384,,251453.25,8,400,,,
sequence,flow.Sequence,4_0,2023-10-31T17:10:37.161Z,,0,,,5851.381999928475,completion,,,,,false,,,,251438.5,251438.19999992847,245570.152,245575.29999995232,245586.818,251453.25,8,400,,,
trial,html.Screen,4_1_0,2023-10-31T17:10:42.717Z,,0,1,,5540.649999976158,response,ISIC_3380212.JPG,8,ISIC_0046345.JPG,ISIC_3380212.JPG,false,1,keypress(m),500,256994.10000002384,256993.89999997616,251436.584,251438.5,251453.25,257003.343,8,400,2,,ISIC_0046345.JPG
break,html.Screen,4_1_1,2023-10-31T17:10:42.717Z,,0,,,NaN,,,,,,false,,,,256995,256994.79999995232,,256994.29999995232,,257003.343,8,400,,,
break_continue,html.Screen,4_1_2,2023-10-31T17:10:42.718Z,,0,,,NaN,,,,,,false,,,,256995.29999995232,256995.19999992847,,256995.10000002384,,257003.343,8,400,,,
sequence,flow.Sequence,4_1,2023-10-31T17:10:42.718Z,,0,,,5541.949999928474,completion,,,,,false,,,,256995.39999997616,256995.19999992847,251436.584,251438.5,251453.25,257003.343,8,400,,,
trial,html.Screen,4_2_0,2023-10-31T17:10:48.416Z,,0,1,,5690.356999928481,response,ISIC_5313574.JPG,5,ISIC_8249854.JPG,ISIC_8249854.JPG,false,0,keypress(z),500,262693.7999999523,262693.6999999285,256986.677,256995.5,257003.343,262703.115,8,400,3,,ISIC_5313574.JPG
break,html.Screen,4_2_1,2023-10-31T17:10:48.417Z,,0,,,NaN,,,,,,false,,,,262694.5,262694.2999999523,,262693.89999997616,,262703.115,8,400,,,
break_continue,html.Screen,4_2_2,2023-10-31T17:10:48.417Z,,0,,,NaN,,,,,,false,,,,262694.7999999523,262694.6999999285,,262694.6999999285,,262703.115,8,400,,,
sequence,flow.Sequence,4_2,2023-10-31T17:10:48.417Z,,0,,,5691.356999928481,completion,,,,,false,,,,262695,262694.6999999285,256986.677,256995.39999997616,257003.343,262703.115,8,400,,,
trial,html.Screen,4_3_0,2023-10-31T17:10:53.368Z,,0,1,,4941.885000000009,response,ISIC_0066412.JPG,8,ISIC_0066783.JPG,ISIC_0066412.JPG,false,1,keypress(m),500,267645.2999999523,267645,262686.449,262695.1999999285,262703.115,267653.188,8,400,4,,ISIC_0066783.JPG
break,html.Screen,4_3_1,2023-10-31T17:10:53.369Z,,0,,,NaN,,,,,,false,,,,267646.1999999285,267646,,267645.5,,267653.188,8,400,,,
break_continue,html.Screen,4_3_2,2023-10-31T17:10:53.369Z,,0,,,NaN,,,,,,false,,,,267646.39999997616,267646.2999999523,,267646.1999999285,,267653.188,8,400,,,
sequence,flow.Sequence,4_3,2023-10-31T17:10:53.369Z,,0,,,4943.184999952326,completion,,,,,false,,,,267646.5,267646.2999999523,262686.449,262695.10000002384,262703.115,267653.188,8,400,,,
trial,html.Screen,4_4_0,2023-10-31T17:11:00.497Z,,0,1,,7121.511999928451,response,ISIC_0033911.JPG,7,ISIC_0030994.JPG,ISIC_0033911.JPG,false,1,keypress(m),500,274775,274774.6999999285,267636.522,267646.60000002384,267653.188,274786.236,8,400,5,,ISIC_0030994.JPG
break,html.Screen,4_4_1,2023-10-31T17:11:00.499Z,,0,,,NaN,,,,,,false,,,,274776.2999999523,274776.1999999285,,274775.5,,274786.236,8,400,,,
break_continue,html.Screen,4_4_2,2023-10-31T17:11:00.499Z,,0,,,NaN,,,,,,false,,,,274776.5,274776.5,,274776.39999997616,,274786.236,8,400,,,
sequence,flow.Sequence,4_4,2023-10-31T17:11:00.499Z,,0,,,7123.311999999976,completion,,,,,false,,,,274776.6999999285,274776.5,267636.522,267646.60000002384,267653.188,274786.236,8,400,,,
trial,html.Screen,4_5_0,2023-10-31T17:11:05.800Z,,0,1,,5290.663999976183,response,ISIC_3416324.JPG,9,ISIC_8366864.JPG,ISIC_8366864.JPG,false,0,keypress(z),500,280077.10000002384,280076.89999997616,274769.57,274776.6999999285,274786.236,280086.302,8,400,6,,ISIC_3416324.JPG
break,html.Screen,4_5_1,2023-10-31T17:11:05.800Z,,0,,,NaN,,,,,,false,,,,280077.89999997616,280077.7999999523,,280077.2999999523,,280086.302,8,400,,,
break_continue,html.Screen,4_5_2,2023-10-31T17:11:05.801Z,,0,,,NaN,,,,,,false,,,,280078.10000002384,280078,,280078,,280086.302,8,400,,,
sequence,flow.Sequence,4_5,2023-10-31T17:11:05.801Z,,0,,,5291.764000000025,completion,,,,,false,,,,280078.1999999285,280078,274769.57,274776.6999999285,274786.236,280086.302,8,400,,,
trial,html.Screen,4_6_0,2023-10-31T17:11:11.569Z,,0,1,,5759.997999952291,response,ISIC_8539990.JPG,8,ISIC_2753279.JPG,ISIC_8539990.JPG,false,1,keypress(m),500,285846.39999997616,285846.2999999523,280069.636,280078.2999999523,280086.302,285852.738,8,400,7,,ISIC_2753279.JPG
break,html.Screen,4_6_1,2023-10-31T17:11:11.569Z,,0,,,NaN,,,,,,false,,,,285846.7999999523,285846.6999999285,,285846.39999997616,,285852.738,8,400,,,
break_continue,html.Screen,4_6_2,2023-10-31T17:11:11.569Z,,0,,,NaN,,,,,,false,,,,285847,285846.89999997616,,285846.89999997616,,285852.738,8,400,,,
sequence,flow.Sequence,4_6,2023-10-31T17:11:11.569Z,,0,,,5760.597999976133,completion,,,,,false,,,,285847,285846.89999997616,280069.636,280078.2999999523,280086.302,285852.738,8,400,,,
trial,html.Screen,4_7_0,2023-10-31T17:11:16.004Z,,0,1,,4427.661999976146,response,ISIC_0033318.JPG,8,ISIC_0028512.JPG,ISIC_0028512.JPG,false,0,keypress(z),500,290281.1999999285,290280.39999997616,285836.072,285847,285852.738,290286.216,8,400,8,,ISIC_0033318.JPG
break,html.Screen,4_7_1,2023-10-31T17:11:16.004Z,,0,,,NaN,,,,,,false,,,,290281.6999999285,290281.5,,290281.2999999523,,290286.216,8,400,,,
break_continue,html.Screen,4_7_2,2023-10-31T17:11:16.004Z,,0,,,NaN,,,,,,false,,,,290281.89999997616,290281.7999999523,,290281.7999999523,,290286.216,8,400,,,
sequence,flow.Sequence,4_7,2023-10-31T17:11:16.004Z,,0,,,4429.061999952304,completion,,,,,false,,,,290281.89999997616,290281.7999999523,285836.072,285847,285852.738,290286.216,8,400,,,
trial,html.Screen,4_8_0,2023-10-31T17:11:21.593Z,,0,1,,5583.783999999985,response,ISIC_0206758.JPG,5,ISIC_5306427.JPG,ISIC_5306427.JPG,false,0,keypress(z),500,295870.2999999523,295870,290269.55,290282,290286.216,295869.326,8,400,9,,ISIC_0206758.JPG
break,html.Screen,4_8_1,2023-10-31T17:11:21.594Z,,0,,,NaN,,,,,,false,,,,295871.2999999523,295870.89999997616,,295870.5,,295869.326,8,400,,,
break_continue,html.Screen,4_8_2,2023-10-31T17:11:21.595Z,,0,,,NaN,,,,,,false,,,,295873,295872.89999997616,,295872.39999997616,,295869.326,8,400,,,
sequence,flow.Sequence,4_8,2023-10-31T17:11:21.596Z,,0,,,5586.683999976143,completion,,,,,false,,,,295873.10000002384,295872.89999997616,290269.55,290282,290286.216,295869.326,8,400,,,
trial,html.Screen,4_9_0,2023-10-31T17:11:25.857Z,,0,1,,4265.3739999284735,response,ISIC_0030443.JPG,5,ISIC_0000135.JPG,ISIC_0030443.JPG,false,1,keypress(m),500,300134.7999999523,300134.6999999285,295852.66,295873.1999999285,295869.326,300152.758,8,400,10,,ISIC_0000135.JPG
break,html.Screen,4_9_1,2023-10-31T17:11:25.858Z,,0,,,NaN,,,,,,false,,,,300135.6999999285,300135.39999997616,,300135.10000002384,,300152.758,8,400,,,
break_continue,html.Screen,4_9_2,2023-10-31T17:11:25.858Z,,0,,,NaN,,,,,,false,,,,300136,300135.89999997616,,300135.6999999285,,300152.758,8,400,,,
sequence,flow.Sequence,4_9,2023-10-31T17:11:25.859Z,,0,,,4266.573999976157,completion,,,,,false,,,,300136.1999999285,300135.89999997616,295852.66,295873.1999999285,295869.326,300152.758,8,400,,,
trial,html.Screen,4_10_0,2023-10-31T17:11:29.893Z,,0,1,,4017.1419999761856,response,ISIC_3198731.JPG,6,ISIC_0031494.JPG,ISIC_0031494.JPG,false,0,keypress(z),500,304170.10000002384,304169.89999997616,300135.822,300136.1999999285,300152.758,304185.93,8,400,11,,ISIC_3198731.JPG
break,html.Screen,4_10_1,2023-10-31T17:11:29.893Z,,0,,,NaN,,,,,,false,,,,304170.60000002384,304170.5,,304170.1999999285,,304185.93,8,400,,,
break_continue,html.Screen,4_10_2,2023-10-31T17:11:29.893Z,,0,,,NaN,,,,,,false,,,,304170.6999999285,304170.6999999285,,304170.6999999285,,304185.93,8,400,,,
sequence,flow.Sequence,4_10,2023-10-31T17:11:29.893Z,,0,,,4017.941999928502,completion,,,,,false,,,,304170.89999997616,304170.6999999285,300135.822,300136.1999999285,300152.758,304185.93,8,400,,,
trial,html.Screen,4_11_0,2023-10-31T17:11:33.671Z,,0,1,,3762.7699999284814,response,ISIC_0032782.JPG,5,ISIC_0033925.JPG,ISIC_0033925.JPG,false,0,keypress(z),500,307948.7999999523,307948.6999999285,304169.264,304170.89999997616,304185.93,307952.446,8,400,12,,ISIC_0032782.JPG
break,html.Screen,4_11_1,2023-10-31T17:11:33.672Z,,0,,,NaN,,,,,,false,,,,307949.2999999523,307949.1999999285,,307948.89999997616,,307952.446,8,400,,,
break_continue,html.Screen,4_11_2,2023-10-31T17:11:33.672Z,,0,,,NaN,,,,,,false,,,,307949.5,307949.39999997616,,307949.39999997616,,307952.446,8,400,,,
sequence,flow.Sequence,4_11,2023-10-31T17:11:33.672Z,,0,,,3763.469999976165,completion,,,,,false,,,,307949.5,307949.39999997616,304169.264,304170.89999997616,304185.93,307952.446,8,400,,,
trial,html.Screen,4_12_0,2023-10-31T17:11:39.089Z,,0,1,,5414.154000023846,response,ISIC_0028225.JPG,9,ISIC_0013969.JPG,ISIC_0013969.JPG,false,0,keypress(z),500,313366.60000002384,313366.60000002384,307935.78,307949.60000002384,307952.446,313369.158,8,400,13,,ISIC_0028225.JPG
break,html.Screen,4_12_1,2023-10-31T17:11:39.089Z,,0,,,NaN,,,,,,false,,,,313367,313367,,313366.7999999523,,313369.158,8,400,,,
break_continue,html.Screen,4_12_2,2023-10-31T17:11:39.090Z,,0,,,NaN,,,,,,false,,,,313367.1999999285,313367.1999999285,,313367.10000002384,,313369.158,8,400,,,
sequence,flow.Sequence,4_12,2023-10-31T17:11:39.090Z,,0,,,5414.753999928478,completion,,,,,false,,,,313367.1999999285,313367.1999999285,307935.78,307949.60000002384,307952.446,313369.158,8,400,,,
trial,html.Screen,4_13_0,2023-10-31T17:11:43.604Z,,0,1,,4512.541999928479,response,ISIC_0026910.JPG,6,ISIC_7101810.JPG,ISIC_7101810.JPG,false,0,keypress(z),500,317882,317881.6999999285,313352.492,313367.2999999523,313369.158,317902.31,8,400,14,,ISIC_0026910.JPG
break,html.Screen,4_13_1,2023-10-31T17:11:43.605Z,,0,,,NaN,,,,,,false,,,,317882.6999999285,317882.60000002384,,317882.10000002384,,317902.31,8,400,,,
break_continue,html.Screen,4_13_2,2023-10-31T17:11:43.605Z,,0,,,NaN,,,,,,false,,,,317882.89999997616,317882.89999997616,,317882.7999999523,,317902.31,8,400,,,
sequence,flow.Sequence,4_13,2023-10-31T17:11:43.605Z,,0,,,4513.741999976162,completion,,,,,false,,,,317883.10000002384,317882.89999997616,313352.492,313367.2999999523,313369.158,317902.31,8,400,,,
trial,html.Screen,4_14_0,2023-10-31T17:11:47.789Z,,0,1,,4164.0899999761605,response,ISIC_4263521.JPG,8,ISIC_0029198.JPG,ISIC_0029198.JPG,false,0,keypress(z),500,322066.6999999285,322066.39999997616,317885.644,317883.1999999285,317902.31,322069.109,8,400,15,,ISIC_4263521.JPG
break,html.Screen,4_14_1,2023-10-31T17:11:47.790Z,,0,,,NaN,,,,,,false,,,,322067.39999997616,322067.2999999523,,322066.7999999523,,322069.109,8,400,,,
break_continue,html.Screen,4_14_2,2023-10-31T17:11:47.790Z,,0,,,NaN,,,,,,false,,,,322067.7999999523,322067.6999999285,,322067.60000002384,,322069.109,8,400,,,
sequence,flow.Sequence,4_14,2023-10-31T17:11:47.790Z,,0,,,4165.389999928477,completion,,,,,false,,,,322068,322067.6999999285,317885.644,317883.10000002384,317902.31,322069.109,8,400,,,
trial,html.Screen,4_15_0,2023-10-31T17:11:52.737Z,,0,1,,4945.6909999523195,response,ISIC_0073173.JPG,7,ISIC_0071043.JPG,ISIC_0071043.JPG,false,0,keypress(z),500,327015,327014.7999999523,322052.443,322068.10000002384,322069.109,327018.911,8,400,16,,ISIC_0073173.JPG
break,html.Screen,4_15_1,2023-10-31T17:11:52.738Z,,0,,,NaN,,,,,,false,,,,327015.6999999285,327015.5,,327015.10000002384,,327018.911,8,400,,,
break_continue,html.Screen,4_15_2,2023-10-31T17:11:52.738Z,,0,,,NaN,,,,,,false,,,,327016.10000002384,327016,,327015.89999997616,,327018.911,8,400,,,
sequence,flow.Sequence,4_15,2023-10-31T17:11:52.739Z,,0,,,4946.891000000003,completion,,,,,false,,,,327016.39999997616,327016,322052.443,322068.10000002384,322069.109,327018.911,8,400,,,
trial,html.Screen,4_16_0,2023-10-31T17:11:56.556Z,,0,1,,3814.4889999761363,response,ISIC_0033619.JPG,7,ISIC_3761253.JPG,ISIC_0033619.JPG,false,1,keypress(m),500,330833.6999999285,330833.39999997616,327002.245,327016.39999997616,327018.911,330852.091,8,400,17,,ISIC_3761253.JPG
break,html.Screen,4_16_1,2023-10-31T17:11:56.557Z,,0,,,NaN,,,,,,false,,,,330834.39999997616,330834.1999999285,,330834,,330852.091,8,400,,,
break_continue,html.Screen,4_16_2,2023-10-31T17:11:56.557Z,,0,,,NaN,,,,,,false,,,,330834.89999997616,330834.6999999285,,330834.5,,330852.091,8,400,,,
sequence,flow.Sequence,4_16,2023-10-31T17:11:56.557Z,,0,,,3815.7889999284525,completion,,,,,false,,,,330835.10000002384,330834.6999999285,327002.245,327016.39999997616,327018.911,330852.091,8,400,,,
trial,html.Screen,4_17_0,2023-10-31T17:12:00.980Z,,0,1,,4405.1089999284595,response,ISIC_8671662.JPG,6,ISIC_1008321.JPG,ISIC_8671662.JPG,false,1,keypress(m),500,335257.39999997616,335257.1999999285,330835.425,330835.1999999285,330852.091,335268.85,8,400,18,,ISIC_1008321.JPG
break,html.Screen,4_17_1,2023-10-31T17:12:00.980Z,,0,,,NaN,,,,,,false,,,,335258.10000002384,335257.89999997616,,335257.60000002384,,335268.85,8,400,,,
break_continue,html.Screen,4_17_2,2023-10-31T17:12:00.981Z,,0,,,NaN,,,,,,false,,,,335258.2999999523,335258.2999999523,,335258.1999999285,,335268.85,8,400,,,
sequence,flow.Sequence,4_17,2023-10-31T17:12:00.981Z,,0,,,4406.208999952301,completion,,,,,false,,,,335258.5,335258.2999999523,330835.425,330835.1999999285,330852.091,335268.85,8,400,,,
trial,html.Screen,4_18_0,2023-10-31T17:12:04.360Z,,0,1,,3368.0499999761814,response,ISIC_0056534.JPG,7,ISIC_0011972.JPG,ISIC_0056534.JPG,false,1,keypress(m),500,338637.10000002384,338636.89999997616,335252.184,335258.60000002384,335268.85,338652.048,8,400,19,,ISIC_0011972.JPG
break,html.Screen,4_18_1,2023-10-31T17:12:04.361Z,,0,,,NaN,,,,,,false,,,,338638.10000002384,338638,,338637.1999999285,,338652.048,8,400,,,
break_continue,html.Screen,4_18_2,2023-10-31T17:12:04.361Z,,0,,,NaN,,,,,,false,,,,338638.6999999285,338638.60000002384,,338638.2999999523,,338652.048,8,400,,,
sequence,flow.Sequence,4_18,2023-10-31T17:12:04.361Z,,0,,,3369.750000023865,completion,,,,,false,,,,338639.10000002384,338638.60000002384,335252.184,335258.5,335268.85,338652.048,8,400,,,
trial,html.Screen,4_19_0,2023-10-31T17:12:08.380Z,,0,1,,4005.45199999999,response,ISIC_5835765.JPG,8,ISIC_8481979.JPG,ISIC_5835765.JPG,false,1,keypress(m),500,342657.7999999523,342657.5,338635.382,338639.1999999285,338652.048,342668.824,8,400,20,,ISIC_8481979.JPG
break,html.Screen,4_19_1,2023-10-31T17:12:08.381Z,,0,,,NaN,,,,,,false,,,,342658.60000002384,342658.39999997616,,342658.10000002384,,342668.824,8,400,,,
break_continue,html.Screen,4_19_2,2023-10-31T17:12:08.381Z,,0,,,NaN,,,,,,false,,,,342658.89999997616,342658.7999999523,,342658.7999999523,,342668.824,8,400,,,
sequence,flow.Sequence,4_19,2023-10-31T17:12:08.381Z,,0,,,4006.7519999523065,completion,,,,,false,,,,342659,342658.7999999523,338635.382,338639.1999999285,338652.048,342668.824,8,400,,,
trial,html.Screen,4_20_0,2023-10-31T17:12:12.069Z,,0,1,,3677.375999928452,response,ISIC_0031784.JPG,5,ISIC_9418196.JPG,ISIC_0031784.JPG,false,1,keypress(m),500,346346.39999997616,346346.1999999285,342652.158,342659.10000002384,342668.824,346352.01,8,400,21,,ISIC_9418196.JPG
break,html.Screen,4_20_1,2023-10-31T17:12:12.070Z,,0,,,NaN,,,,,,false,,,,346347.1999999285,346347,,346346.60000002384,,346352.01,8,400,,,
break_continue,html.Screen,4_20_2,2023-10-31T17:12:12.070Z,,0,,,NaN,,,,,,false,,,,346347.5,346347.39999997616,,346347.39999997616,,346352.01,8,400,,,
sequence,flow.Sequence,4_20,2023-10-31T17:12:12.070Z,,0,,,3678.575999976136,completion,,,,,false,,,,346347.60000002384,346347.39999997616,342652.158,342659.10000002384,342668.824,346352.01,8,400,,,
trial,html.Screen,4_21_0,2023-10-31T17:12:16.941Z,,0,1,,4866.289999952307,response,ISIC_7454512.JPG,8,ISIC_6806545.JPG,ISIC_6806545.JPG,false,0,keypress(z),500,351218.5,351218.2999999523,346335.344,346347.6999999285,346352.01,351235.148,8,400,22,,ISIC_7454512.JPG
break,html.Screen,4_21_1,2023-10-31T17:12:16.942Z,,0,,,NaN,,,,,,false,,,,351219.1999999285,351219,,351218.6999999285,,351235.148,8,400,,,
break_continue,html.Screen,4_21_2,2023-10-31T17:12:16.942Z,,0,,,NaN,,,,,,false,,,,351219.39999997616,351219.2999999523,,351219.1999999285,,351235.148,8,400,,,
sequence,flow.Sequence,4_21,2023-10-31T17:12:16.942Z,,0,,,4867.289999952307,completion,,,,,false,,,,351219.5,351219.2999999523,346335.344,346347.60000002384,346352.01,351235.148,8,400,,,
trial,html.Screen,4_22_0,2023-10-31T17:12:21.088Z,,0,1,,4130.251999976172,response,ISIC_0001743.JPG,5,ISIC_1150482.JPG,ISIC_1150482.JPG,false,0,keypress(z),500,355365.6999999285,355365.39999997616,351218.482,351219.60000002384,351235.148,355368.579,8,400,23,,ISIC_0001743.JPG
break,html.Screen,4_22_1,2023-10-31T17:12:21.089Z,,0,,,NaN,,,,,,false,,,,355366.2999999523,355366.1999999285,,355365.7999999523,,355368.579,8,400,,,
break_continue,html.Screen,4_22_2,2023-10-31T17:12:21.089Z,,0,,,NaN,,,,,,false,,,,355366.60000002384,355366.60000002384,,355366.39999997616,,355368.579,8,400,,,
sequence,flow.Sequence,4_22,2023-10-31T17:12:21.089Z,,0,,,4131.452000023855,completion,,,,,false,,,,355366.6999999285,355366.60000002384,351218.482,351219.60000002384,351235.148,355368.579,8,400,,,
trial,html.Screen,4_23_0,2023-10-31T17:12:25.689Z,,0,1,,4597.620999928447,response,ISIC_6208508.JPG,6,ISIC_1067985.JPG,ISIC_6208508.JPG,false,1,keypress(m),500,359966.39999997616,359966.1999999285,355351.913,355366.89999997616,355368.579,359968.395,8,400,24,,ISIC_1067985.JPG
break,html.Screen,4_23_1,2023-10-31T17:12:25.689Z,,0,,,NaN,,,,,,false,,,,359967,359966.7999999523,,359966.5,,359968.395,8,400,,,
break_continue,html.Screen,4_23_2,2023-10-31T17:12:25.690Z,,0,,,NaN,,,,,,false,,,,359967.2999999523,359967.1999999285,,359967.10000002384,,359968.395,8,400,,,
sequence,flow.Sequence,4_23,2023-10-31T17:12:25.690Z,,0,,,4598.620999928447,completion,,,,,false,,,,359967.39999997616,359967.1999999285,355351.913,355366.7999999523,355368.579,359968.395,8,400,,,
trial,html.Screen,4_24_0,2023-10-31T17:12:29.548Z,,0,1,,3856.6049999999814,response,ISIC_1264725.JPG,5,ISIC_6410859.JPG,ISIC_6410859.JPG,false,0,keypress(z),500,363825.1999999285,363825,359951.729,359967.39999997616,359968.395,363835.198,8,400,25,,ISIC_1264725.JPG
break,html.Screen,4_24_1,2023-10-31T17:12:29.548Z,,0,,,NaN,,,,,,false,,,,363826,363825.6999999285,,363825.39999997616,,363835.198,8,400,,,
break_continue,html.Screen,4_24_2,2023-10-31T17:12:29.549Z,,0,,,NaN,,,,,,false,,,,363826.39999997616,363826.39999997616,,363826.1999999285,,363835.198,8,400,,,
sequence,flow.Sequence,4_24,2023-10-31T17:12:29.549Z,,0,,,3858.0049999761395,completion,,,,,false,,,,363826.60000002384,363826.39999997616,359951.729,359967.39999997616,359968.395,363835.198,8,400,,,
trial,html.Screen,4_25_0,2023-10-31T17:12:32.995Z,,0,1,,3437.5019999284996,response,ISIC_0059216.JPG,4,ISIC_2545299.JPG,ISIC_0059216.JPG,false,1,keypress(m),500,367272.89999997616,367272.6999999285,363818.532,363826.6999999285,363835.198,367285.06,8,400,26,,ISIC_2545299.JPG
break,html.Screen,4_25_1,2023-10-31T17:12:32.996Z,,0,,,NaN,,,,,,false,,,,367273.6999999285,367273.5,,367273.10000002384,,367285.06,8,400,,,
break_continue,html.Screen,4_25_2,2023-10-31T17:12:32.996Z,,0,,,NaN,,,,,,false,,,,367274,367273.89999997616,,367273.7999999523,,367285.06,8,400,,,
sequence,flow.Sequence,4_25,2023-10-31T17:12:32.997Z,,0,,,3438.7019999761833,completion,,,,,false,,,,367274.10000002384,367273.89999997616,363818.532,363826.6999999285,363835.198,367285.06,8,400,,,
trial,html.Screen,4_26_0,2023-10-31T17:12:38.795Z,,0,1,,5787.239999952319,response,ISIC_9268487.JPG,5,ISIC_4034244.JPG,ISIC_4034244.JPG,false,0,keypress(z),500,373072.60000002384,373072.2999999523,367268.394,367274.10000002384,367285.06,373084.828,8,400,27,,ISIC_9268487.JPG
break,html.Screen,4_26_1,2023-10-31T17:12:38.796Z,,0,,,NaN,,,,,,false,,,,373073.1999999285,373073.10000002384,,373072.6999999285,,373084.828,8,400,,,
break_continue,html.Screen,4_26_2,2023-10-31T17:12:38.796Z,,0,,,NaN,,,,,,false,,,,373073.39999997616,373073.2999999523,,373073.1999999285,,373084.828,8,400,,,
sequence,flow.Sequence,4_26,2023-10-31T17:12:38.796Z,,0,,,5788.239999952319,completion,,,,,false,,,,373073.5,373073.2999999523,367268.394,367274.10000002384,367285.06,373084.828,8,400,,,
trial,html.Screen,4_27_0,2023-10-31T17:12:42.749Z,,0,1,,3941.6720000000205,response,ISIC_2377039.JPG,6,ISIC_0032377.JPG,ISIC_2377039.JPG,false,1,keypress(m),500,377026.60000002384,377026.5,373068.162,373073.5,373084.828,377034.94,8,400,28,,ISIC_0032377.JPG
break,html.Screen,4_27_1,2023-10-31T17:12:42.749Z,,0,,,NaN,,,,,,false,,,,377027,377026.89999997616,,377026.7999999523,,377034.94,8,400,,,
break_continue,html.Screen,4_27_2,2023-10-31T17:12:42.750Z,,0,,,NaN,,,,,,false,,,,377027.10000002384,377027.10000002384,,377027.10000002384,,377034.94,8,400,,,
sequence,flow.Sequence,4_27,2023-10-31T17:12:42.750Z,,0,,,3942.2720000238623,completion,,,,,false,,,,377027.10000002384,377027.10000002384,373068.162,373073.5,373084.828,377034.94,8,400,,,
trial,html.Screen,4_28_0,2023-10-31T17:12:47.059Z,,0,1,,4300.959999976156,response,ISIC_0004667.JPG,6,ISIC_0033977.JPG,ISIC_0033977.JPG,false,0,keypress(z),500,381336.10000002384,381335.89999997616,377018.274,377027.1999999285,377034.94,381351.434,8,400,29,,ISIC_0004667.JPG
break,html.Screen,4_28_1,2023-10-31T17:12:47.059Z,,0,,,NaN,,,,,,false,,,,381336.89999997616,381336.6999999285,,381336.2999999523,,381351.434,8,400,,,
break_continue,html.Screen,4_28_2,2023-10-31T17:12:47.060Z,,0,,,NaN,,,,,,false,,,,381337.1999999285,381337.10000002384,,381337,,381351.434,8,400,,,
sequence,flow.Sequence,4_28,2023-10-31T17:12:47.060Z,,0,,,4302.1600000238395,completion,,,,,false,,,,381337.1999999285,381337.10000002384,377018.274,377027.1999999285,377034.94,381351.434,8,400,,,
trial,html.Screen,4_29_0,2023-10-31T17:12:50.629Z,,0,1,,3555.0659999999916,response,ISIC_0027863.JPG,5,ISIC_0732375.JPG,ISIC_0027863.JPG,false,1,keypress(m),500,384906.89999997616,384906.5,381334.768,381337.2999999523,381351.434,384918.239,8,400,30,,ISIC_0732375.JPG
break,html.Screen,4_29_1,2023-10-31T17:12:50.630Z,,0,,,NaN,,,,,,false,,,,384908,384907.60000002384,,384907.10000002384,,384918.239,8,400,,,
break_continue,html.Screen,4_29_2,2023-10-31T17:12:50.631Z,,0,,,NaN,,,,,,false,,,,384908.1999999285,384908.10000002384,,384908.10000002384,,384918.239,8,400,,,
sequence,flow.Sequence,4_29,2023-10-31T17:12:50.631Z,,0,,,3556.6660000238335,completion,,,,,false,,,,384908.2999999523,384908.10000002384,381334.768,381337.2999999523,381351.434,384918.239,8,400,,,
trial,html.Screen,4_30_0,2023-10-31T17:12:54.251Z,,0,1,,3609.6609999761567,response,ISIC_0013672.JPG,7,ISIC_7658133.JPG,ISIC_0013672.JPG,false,1,keypress(m),500,388528.10000002384,388527.89999997616,384901.573,384908.39999997616,384918.239,388534.761,8,400,31,,ISIC_7658133.JPG
break,html.Screen,4_30_1,2023-10-31T17:12:54.251Z,,0,,,NaN,,,,,,false,,,,388528.89999997616,388528.7999999523,,388528.1999999285,,388534.761,8,400,,,
break_continue,html.Screen,4_30_2,2023-10-31T17:12:54.252Z,,0,,,NaN,,,,,,false,,,,388529.10000002384,388529.10000002384,,388529,,388534.761,8,400,,,
sequence,flow.Sequence,4_30,2023-10-31T17:12:54.252Z,,0,,,3610.8610000238405,completion,,,,,false,,,,388529.2999999523,388529.10000002384,384901.573,384908.39999997616,384918.239,388534.761,8,400,,,
trial,html.Screen,4_31_0,2023-10-31T17:12:57.940Z,,0,1,,3682.6389999761595,response,ISIC_5041679.JPG,5,ISIC_5830274.JPG,ISIC_5830274.JPG,false,0,keypress(z),500,392217.5,392217.39999997616,388518.095,388529.2999999523,388534.761,392234.613,8,400,32,,ISIC_5041679.JPG
break,html.Screen,4_31_1,2023-10-31T17:12:57.941Z,,0,,,NaN,,,,,,false,,,,392218.2999999523,392218.1999999285,,392217.6999999285,,392234.613,8,400,,,
break_continue,html.Screen,4_31_2,2023-10-31T17:12:57.941Z,,0,,,NaN,,,,,,false,,,,392218.5,392218.5,,392218.39999997616,,392234.613,8,400,,,
sequence,flow.Sequence,4_31,2023-10-31T17:12:57.941Z,,0,,,3683.7390000000014,completion,,,,,false,,,,392218.7999999523,392218.5,388518.095,388529.2999999523,388534.761,392234.613,8,400,,,
trial,html.Screen,4_32_0,2023-10-31T17:13:01.770Z,,0,1,,3812.786999976146,response,ISIC_8671119.JPG,4,ISIC_0011728.JPG,ISIC_0011728.JPG,false,0,keypress(z),500,396047.60000002384,396047.39999997616,392217.947,392219,392234.613,396051.398,8,400,33,,ISIC_8671119.JPG
break,html.Screen,4_32_1,2023-10-31T17:13:01.771Z,,0,,,NaN,,,,,,false,,,,396048.2999999523,396048.10000002384,,396047.6999999285,,396051.398,8,400,,,
break_continue,html.Screen,4_32_2,2023-10-31T17:13:01.771Z,,0,,,NaN,,,,,,false,,,,396048.60000002384,396048.5,,396048.39999997616,,396051.398,8,400,,,
sequence,flow.Sequence,4_32,2023-10-31T17:13:01.771Z,,0,,,3813.886999999988,completion,,,,,false,,,,396048.6999999285,396048.5,392217.947,392219,392234.613,396051.398,8,400,,,
trial,html.Screen,4_33_0,2023-10-31T17:13:06.269Z,,0,1,,4494.90199995233,response,ISIC_0066094.JPG,6,ISIC_0058024.JPG,ISIC_0066094.JPG,false,1,keypress(m),500,400546.39999997616,400546.2999999523,396034.732,396048.7999999523,396051.398,400551.218,8,400,34,,ISIC_0058024.JPG
break,html.Screen,4_33_1,2023-10-31T17:13:06.270Z,,0,,,NaN,,,,,,false,,,,400547.1999999285,400547.10000002384,,400546.60000002384,,400551.218,8,400,,,
break_continue,html.Screen,4_33_2,2023-10-31T17:13:06.270Z,,0,,,NaN,,,,,,false,,,,400547.39999997616,400547.39999997616,,400547.1999999285,,400551.218,8,400,,,
sequence,flow.Sequence,4_33,2023-10-31T17:13:06.270Z,,0,,,4496.001999976172,completion,,,,,false,,,,400547.5,400547.39999997616,396034.732,396048.7999999523,396051.398,400551.218,8,400,,,
trial,html.Screen,4_34_0,2023-10-31T17:13:10.419Z,,0,1,,4144.7820000000065,response,ISIC_0247197.JPG,8,ISIC_8066660.JPG,ISIC_8066660.JPG,false,0,keypress(z),500,404696.2999999523,404696,400534.552,400547.60000002384,400551.218,404701.052,8,400,35,,ISIC_0247197.JPG
break,html.Screen,4_34_1,2023-10-31T17:13:10.419Z,,0,,,NaN,,,,,,false,,,,404697,404696.89999997616,,404696.5,,404701.052,8,400,,,
break_continue,html.Screen,4_34_2,2023-10-31T17:13:10.420Z,,0,,,NaN,,,,,,false,,,,404697.39999997616,404697.1999999285,,404697.10000002384,,404701.052,8,400,,,
sequence,flow.Sequence,4_34,2023-10-31T17:13:10.420Z,,0,,,4145.981999928481,completion,,,,,false,,,,404697.5,404697.1999999285,400534.552,400547.60000002384,400551.218,404701.052,8,400,,,
trial,html.Screen,4_35_0,2023-10-31T17:13:14.602Z,,0,1,,4178.548000023817,response,ISIC_0015193.JPG,8,ISIC_1002979.JPG,ISIC_1002979.JPG,false,0,keypress(z),500,408879.6999999285,408879.60000002384,404684.386,404697.60000002384,404701.052,408884.482,8,400,36,,ISIC_0015193.JPG
break,html.Screen,4_35_1,2023-10-31T17:13:14.603Z,,0,,,NaN,,,,,,false,,,,408880.5,408880.2999999523,,408879.89999997616,,408884.482,8,400,,,
break_continue,html.Screen,4_35_2,2023-10-31T17:13:14.603Z,,0,,,NaN,,,,,,false,,,,408880.6999999285,408880.60000002384,,408880.60000002384,,408884.482,8,400,,,
sequence,flow.Sequence,4_35,2023-10-31T17:13:14.603Z,,0,,,4179.548000023817,completion,,,,,false,,,,408880.89999997616,408880.60000002384,404684.386,404697.60000002384,404701.052,408884.482,8,400,,,
trial,html.Screen,4_36_0,2023-10-31T17:13:18.893Z,,0,1,,4285.717999928456,response,ISIC_5754023.JPG,5,ISIC_6507492.JPG,ISIC_6507492.JPG,false,0,keypress(z),500,413170.39999997616,413170.1999999285,408867.816,408880.89999997616,408884.482,413184.31,8,400,37,,ISIC_5754023.JPG
break,html.Screen,4_36_1,2023-10-31T17:13:18.894Z,,0,,,NaN,,,,,,false,,,,413171.39999997616,413171.1999999285,,413171,,413184.31,8,400,,,
break_continue,html.Screen,4_36_2,2023-10-31T17:13:18.894Z,,0,,,NaN,,,,,,false,,,,413171.7999999523,413171.60000002384,,413171.60000002384,,413184.31,8,400,,,
sequence,flow.Sequence,4_36,2023-10-31T17:13:18.894Z,,0,,,4287.118000023824,completion,,,,,false,,,,413171.7999999523,413171.60000002384,408867.816,408880.89999997616,408884.482,413184.31,8,400,,,
trial,html.Screen,4_37_0,2023-10-31T17:13:22.562Z,,0,1,,3655.0899999761605,response,ISIC_5507066.JPG,6,ISIC_0026915.JPG,ISIC_5507066.JPG,false,1,keypress(m),500,416839.6999999285,416839.39999997616,413167.644,413171.89999997616,413184.31,416851.13,8,400,38,,ISIC_0026915.JPG
break,html.Screen,4_37_1,2023-10-31T17:13:22.563Z,,0,,,NaN,,,,,,false,,,,416840.6999999285,416840.39999997616,,416839.89999997616,,416851.13,8,400,,,
break_continue,html.Screen,4_37_2,2023-10-31T17:13:22.563Z,,0,,,NaN,,,,,,false,,,,416841.10000002384,416841,,416840.7999999523,,416851.13,8,400,,,
sequence,flow.Sequence,4_37,2023-10-31T17:13:22.564Z,,0,,,3656.6900000000023,completion,,,,,false,,,,416841.1999999285,416841,413167.644,413171.89999997616,413184.31,416851.13,8,400,,,
trial,html.Screen,4_38_0,2023-10-31T17:13:26.906Z,,0,1,,4332.169999952312,response,ISIC_1805163.JPG,5,ISIC_0033377.JPG,ISIC_0033377.JPG,false,0,keypress(z),500,421183.60000002384,421183.2999999523,416834.464,416841.39999997616,416851.13,421200.956,8,400,39,,ISIC_1805163.JPG
break,html.Screen,4_38_1,2023-10-31T17:13:26.907Z,,0,,,NaN,,,,,,false,,,,421184.39999997616,421184.2999999523,,421183.7999999523,,421200.956,8,400,,,
break_continue,html.Screen,4_38_2,2023-10-31T17:13:26.907Z,,0,,,NaN,,,,,,false,,,,421184.6999999285,421184.60000002384,,421184.5,,421200.956,8,400,,,
sequence,flow.Sequence,4_38,2023-10-31T17:13:26.907Z,,0,,,4333.470000023837,completion,,,,,false,,,,421184.7999999523,421184.60000002384,416834.464,416841.39999997616,416851.13,421200.956,8,400,,,
trial,html.Screen,4_39_0,2023-10-31T17:13:31.055Z,,0,1,,4131.644000023836,response,ISIC_0004955.JPG,5,ISIC_4938994.JPG,ISIC_4938994.JPG,false,0,keypress(z),500,425332.89999997616,425332.60000002384,421184.29,421184.89999997616,421200.956,425334.124,8,400,40,,ISIC_0004955.JPG
break,html.Screen,4_39_1,2023-10-31T17:13:31.056Z,,0,,,NaN,,,,,,false,,,,425333.6999999285,425333.5,,425333.10000002384,,425334.124,8,400,,,
break_continue,html.Screen,4_39_2,2023-10-31T17:13:31.056Z,,0,,,NaN,,,,,,false,,,,425334,425333.7999999523,,425333.7999999523,,425334.124,8,400,,,
sequence,flow.Sequence,4_39,2023-10-31T17:13:31.056Z,,0,,,4132.843999952311,completion,,,,,false,,,,425334.10000002384,425333.7999999523,421184.29,421184.89999997616,421200.956,425334.124,8,400,,,
trial,html.Screen,4_40_0,2023-10-31T17:13:34.612Z,,0,1,,3555.1759999523056,response,ISIC_5147292.JPG,5,ISIC_2874218.JPG,ISIC_2874218.JPG,false,0,keypress(z),500,428889.6999999285,428889.2999999523,425317.458,425334.10000002384,425334.124,428900.919,8,400,41,,ISIC_5147292.JPG
break,html.Screen,4_40_1,2023-10-31T17:13:34.613Z,,0,,,NaN,,,,,,false,,,,428890.5,428890.39999997616,,428890.1999999285,,428900.919,8,400,,,
break_continue,html.Screen,4_40_2,2023-10-31T17:13:34.613Z,,0,,,NaN,,,,,,false,,,,428890.6999999285,428890.60000002384,,428890.60000002384,,428900.919,8,400,,,
sequence,flow.Sequence,4_40,2023-10-31T17:13:34.613Z,,0,,,3556.476000023831,completion,,,,,false,,,,428890.7999999523,428890.60000002384,425317.458,425334.10000002384,425334.124,428900.919,8,400,,,
trial,html.Screen,4_41_0,2023-10-31T17:13:38.201Z,,0,1,,3577.880999952322,response,ISIC_6532137.JPG,5,ISIC_0071857.JPG,ISIC_0071857.JPG,false,0,keypress(z),500,432479,432478.7999999523,428884.253,428890.7999999523,428900.919,432500.775,8,400,42,,ISIC_6532137.JPG
break,html.Screen,4_41_1,2023-10-31T17:13:38.210Z,,0,,,NaN,,,,,,false,,,,432487.7999999523,432481.39999997616,,432479.10000002384,,432500.775,8,400,,,
break_continue,html.Screen,4_41_2,2023-10-31T17:13:38.210Z,,0,,,NaN,,,,,,false,,,,432488,432488,,432487.89999997616,,432500.775,8,400,,,
sequence,flow.Sequence,4_41,2023-10-31T17:13:38.211Z,,0,,,3587.0810000000056,completion,,,,,false,,,,432488.10000002384,432488,428884.253,428890.7999999523,428900.919,432500.775,8,400,,,
trial,html.Screen,4_42_0,2023-10-31T17:13:44.444Z,,0,1,,6220.424999928451,response,ISIC_0620587.JPG,4,ISIC_0025724.JPG,ISIC_0025724.JPG,false,0,keypress(z),500,438721.39999997616,438721.1999999285,432484.109,432488.1999999285,432500.775,438734.161,8,400,43,,ISIC_0620587.JPG
break,html.Screen,4_42_1,2023-10-31T17:13:44.444Z,,0,,,NaN,,,,,,false,,,,438722,438721.89999997616,,438721.60000002384,,438734.161,8,400,,,
break_continue,html.Screen,4_42_2,2023-10-31T17:13:44.445Z,,0,,,NaN,,,,,,false,,,,438722.10000002384,438722.10000002384,,438722.10000002384,,438734.161,8,400,,,
sequence,flow.Sequence,4_42,2023-10-31T17:13:44.445Z,,0,,,6221.325000023819,completion,,,,,false,,,,438722.2999999523,438722.10000002384,432484.109,432488.10000002384,432500.775,438734.161,8,400,,,
trial,html.Screen,4_43_0,2023-10-31T17:13:47.808Z,,0,1,,3350.838999999978,response,ISIC_0232101.JPG,7,ISIC_0034034.JPG,ISIC_0034034.JPG,false,0,keypress(z),500,442085.39999997616,442085,438717.495,438722.39999997616,438734.161,442100.693,8,400,44,,ISIC_0232101.JPG
break,html.Screen,4_43_1,2023-10-31T17:13:47.808Z,,0,,,NaN,,,,,,false,,,,442086,442085.89999997616,,442085.60000002384,,442100.693,8,400,,,
break_continue,html.Screen,4_43_2,2023-10-31T17:13:47.809Z,,0,,,NaN,,,,,,false,,,,442086.2999999523,442086.1999999285,,442086.10000002384,,442100.693,8,400,,,
sequence,flow.Sequence,4_43,2023-10-31T17:13:47.809Z,,0,,,3352.0389999284525,completion,,,,,false,,,,442086.2999999523,442086.1999999285,438717.495,438722.39999997616,438734.161,442100.693,8,400,,,
trial,html.Screen,4_44_0,2023-10-31T17:13:51.222Z,,0,1,,3398.4070000238135,response,ISIC_2936321.JPG,5,ISIC_9080774.JPG,ISIC_2936321.JPG,false,1,keypress(m),500,445499.2999999523,445499.10000002384,442084.027,442086.5,442100.693,445500.557,8,400,45,,ISIC_9080774.JPG
break,html.Screen,4_44_1,2023-10-31T17:13:51.222Z,,0,,,NaN,,,,,,false,,,,445500.10000002384,445499.89999997616,,445499.5,,445500.557,8,400,,,
break_continue,html.Screen,4_44_2,2023-10-31T17:13:51.223Z,,0,,,NaN,,,,,,false,,,,445500.2999999523,445500.2999999523,,445500.10000002384,,445500.557,8,400,,,
sequence,flow.Sequence,4_44,2023-10-31T17:13:51.223Z,,0,,,3399.606999952288,completion,,,,,false,,,,445500.39999997616,445500.2999999523,442084.027,442086.5,442100.693,445500.557,8,400,,,
trial,html.Screen,4_45_0,2023-10-31T17:13:54.699Z,,0,1,,3475.3429999761865,response,ISIC_3291765.JPG,7,ISIC_8423326.JPG,ISIC_8423326.JPG,false,0,keypress(z),500,448976.1999999285,448975.89999997616,445483.891,445500.5,445500.557,448984.019,8,400,46,,ISIC_3291765.JPG
break,html.Screen,4_45_1,2023-10-31T17:13:54.699Z,,0,,,NaN,,,,,,false,,,,448976.89999997616,448976.60000002384,,448976.2999999523,,448984.019,8,400,,,
break_continue,html.Screen,4_45_2,2023-10-31T17:13:54.701Z,,0,,,NaN,,,,,,false,,,,448978.60000002384,448978.10000002384,,448977.7999999523,,448984.019,8,400,,,
sequence,flow.Sequence,4_45,2023-10-31T17:13:54.701Z,,0,,,3477.5430000238703,completion,,,,,false,,,,448978.6999999285,448978.10000002384,445483.891,445500.5,445500.557,448984.019,8,400,,,
trial,html.Screen,4_46_0,2023-10-31T17:13:58.487Z,,0,1,,3779.880999976187,response,ISIC_9544832.JPG,9,ISIC_6023518.JPG,ISIC_6023518.JPG,false,0,keypress(z),500,452764.10000002384,452763.89999997616,448967.353,448978.7999999523,448984.019,452767.201,8,400,47,,ISIC_9544832.JPG
break,html.Screen,4_46_1,2023-10-31T17:13:58.487Z,,0,,,NaN,,,,,,false,,,,452765,452764.7999999523,,452764.39999997616,,452767.201,8,400,,,
break_continue,html.Screen,4_46_2,2023-10-31T17:13:58.488Z,,0,,,NaN,,,,,,false,,,,452765.1999999285,452765.10000002384,,452765.10000002384,,452767.201,8,400,,,
sequence,flow.Sequence,4_46,2023-10-31T17:13:58.488Z,,0,,,3781.0810000238707,completion,,,,,false,,,,452765.39999997616,452765.10000002384,448967.353,448978.6999999285,448984.019,452767.201,8,400,,,
trial,html.Screen,4_47_0,2023-10-31T17:14:02.417Z,,0,1,,3927.698999976157,response,ISIC_4153234.JPG,8,ISIC_2768150.JPG,ISIC_2768150.JPG,false,0,keypress(z),500,456695.10000002384,456694.89999997616,452750.535,452765.39999997616,452767.201,456700.377,8,400,48,,ISIC_4153234.JPG
break,html.Screen,4_47_1,2023-10-31T17:14:02.419Z,,0,,,NaN,,,,,,false,,,,456696.89999997616,456696.6999999285,,456696.1999999285,,456700.377,8,400,,,
break_continue,html.Screen,4_47_2,2023-10-31T17:14:02.420Z,,0,,,NaN,,,,,,false,,,,456697.1999999285,456697.10000002384,,456696.89999997616,,456700.377,8,400,,,
sequence,flow.Sequence,4_47,2023-10-31T17:14:02.420Z,,0,,,3929.899000023841,completion,,,,,false,,,,456697.5,456697.10000002384,452750.535,452765.39999997616,452767.201,456700.377,8,400,,,
trial,html.Screen,4_48_0,2023-10-31T17:14:06.712Z,,0,1,,4289.52299997618,response,ISIC_0011196.JPG,8,ISIC_0010718.JPG,ISIC_0011196.JPG,false,1,keypress(m),500,460990.10000002384,460989.89999997616,456683.711,456697.60000002384,456700.377,461000.475,8,400,49,,ISIC_0010718.JPG
break,html.Screen,4_48_1,2023-10-31T17:14:06.713Z,,0,,,NaN,,,,,,false,,,,460990.6999999285,460990.5,,460990.1999999285,,461000.475,8,400,,,
break_continue,html.Screen,4_48_2,2023-10-31T17:14:06.713Z,,0,,,NaN,,,,,,false,,,,460991,460990.89999997616,,460990.7999999523,,461000.475,8,400,,,
sequence,flow.Sequence,4_48,2023-10-31T17:14:06.713Z,,0,,,4290.52299997618,completion,,,,,false,,,,460991.10000002384,460990.89999997616,456683.711,456697.60000002384,456700.377,461000.475,8,400,,,
trial,html.Screen,4_49_0,2023-10-31T17:14:11.952Z,,0,1,,5229.025000000023,response,ISIC_0003201.JPG,6,ISIC_0072292.JPG,ISIC_0072292.JPG,false,0,keypress(z),500,466229.89999997616,466229.5,460983.809,460991.1999999285,461000.475,466233.599,8,400,50,,ISIC_0003201.JPG
break,html.Screen,4_49_1,2023-10-31T17:14:21.940Z,,0,,,9999.863000000012,timeout,,,,,false,,,,476218.10000002384,476216.796,466216.933,466230.1999999285,466233.599,476233.462,8,400,,,
break_continue,html.Screen,4_49_2,2023-10-31T17:14:23.344Z,,0,,,1377.5380000000005,response,,,,,false,continue,keypress(Space),,477621.10000002384,477611,476216.796,476218.10000002384,476233.462,477633.406,8,400,,,
sequence,flow.Sequence,4_49,2023-10-31T17:14:23.344Z,,0,,,16610.525000000023,completion,,,,,false,,,,477621.1999999285,477611,460983.809,460991.10000002384,461000.475,477633.406,8,400,,,
trial,html.Screen,4_50_0,2023-10-31T17:14:27.842Z,,0,2,,4486.093999999983,response,ISIC_0058753.JPG,6,ISIC_2166661.JPG,ISIC_0058753.JPG,false,1,keypress(m),500,482120,482119.5,477616.74,477621.2999999523,477633.406,482133.495,8,400,1,,ISIC_2166661.JPG
break,html.Screen,4_50_1,2023-10-31T17:14:27.843Z,,0,,,NaN,,,,,,false,,,,482120.5,482120.2999999523,,482120.10000002384,,482133.495,8,400,,,
break_continue,html.Screen,4_50_2,2023-10-31T17:14:27.843Z,,0,,,NaN,,,,,,false,,,,482120.60000002384,482120.60000002384,,482120.5,,482133.495,8,400,,,
sequence,flow.Sequence,4_50,2023-10-31T17:14:27.843Z,,0,,,4487.194000023825,completion,,,,,false,,,,482120.6999999285,482120.60000002384,477616.74,477621.2999999523,477633.406,482133.495,8,400,,,
trial,html.Screen,4_51_0,2023-10-31T17:14:31.445Z,,0,2,,3588.5050000000047,response,ISIC_8419663.JPG,4,ISIC_0061085.JPG,ISIC_0061085.JPG,false,0,keypress(z),500,485722.10000002384,485722,482116.829,482120.7999999523,482133.495,485733.351,8,400,2,,ISIC_8419663.JPG
break,html.Screen,4_51_1,2023-10-31T17:14:31.445Z,,0,,,NaN,,,,,,false,,,,485722.60000002384,485722.5,,485722.2999999523,,485733.351,8,400,,,
break_continue,html.Screen,4_51_2,2023-10-31T17:14:31.445Z,,0,,,NaN,,,,,,false,,,,485722.6999999285,485722.6999999285,,485722.60000002384,,485733.351,8,400,,,
sequence,flow.Sequence,4_51,2023-10-31T17:14:31.445Z,,0,,,3589.204999928479,completion,,,,,false,,,,485722.89999997616,485722.6999999285,482116.829,482120.7999999523,482133.495,485733.351,8,400,,,
trial,html.Screen,4_52_0,2023-10-31T17:14:34.936Z,,0,2,,3479.548999976134,response,ISIC_3959570.JPG,8,ISIC_6712342.JPG,ISIC_6712342.JPG,false,0,keypress(z),500,489213.2999999523,489212.89999997616,485716.685,485723,485733.351,489216.545,8,400,3,,ISIC_3959570.JPG
break,html.Screen,4_52_1,2023-10-31T17:14:34.936Z,,0,,,NaN,,,,,,false,,,,489214,489213.89999997616,,489213.60000002384,,489216.545,8,400,,,
break_continue,html.Screen,4_52_2,2023-10-31T17:14:34.937Z,,0,,,NaN,,,,,,false,,,,489214.1999999285,489214.1999999285,,489214.1999999285,,489216.545,8,400,,,
sequence,flow.Sequence,4_52,2023-10-31T17:14:34.937Z,,0,,,3480.84899992845,completion,,,,,false,,,,489214.39999997616,489214.1999999285,485716.685,485723,485733.351,489216.545,8,400,,,
trial,html.Screen,4_53_0,2023-10-31T17:14:38.619Z,,0,2,,3679.555000023858,response,ISIC_6785680.JPG,6,ISIC_0026700.JPG,ISIC_6785680.JPG,false,1,keypress(m),500,492896.2999999523,492896.10000002384,489199.879,489214.5,489216.545,492899.995,8,400,4,,ISIC_0026700.JPG
break,html.Screen,4_53_1,2023-10-31T17:14:38.619Z,,0,,,NaN,,,,,,false,,,,492897,492896.7999999523,,492896.39999997616,,492899.995,8,400,,,
break_continue,html.Screen,4_53_2,2023-10-31T17:14:38.620Z,,0,,,NaN,,,,,,false,,,,492897.39999997616,492897.10000002384,,492897.10000002384,,492899.995,8,400,,,
sequence,flow.Sequence,4_53,2023-10-31T17:14:38.620Z,,0,,,3680.555000023858,completion,,,,,false,,,,492897.5,492897.10000002384,489199.879,489214.5,489216.545,492899.995,8,400,,,
trial,html.Screen,4_54_0,2023-10-31T17:14:41.567Z,,0,2,,2944.704999928479,response,ISIC_0024752.JPG,5,ISIC_6532137.JPG,ISIC_0024752.JPG,false,1,keypress(m),500,495845,495844.6999999285,492883.329,492897.60000002384,492899.995,495849.877,8,400,5,,ISIC_6532137.JPG
break,html.Screen,4_54_1,2023-10-31T17:14:41.568Z,,0,,,NaN,,,,,,false,,,,495846,495845.5,,495845.1999999285,,495849.877,8,400,,,
break_continue,html.Screen,4_54_2,2023-10-31T17:14:41.569Z,,0,,,NaN,,,,,,false,,,,495846.39999997616,495846.1999999285,,495846.10000002384,,495849.877,8,400,,,
sequence,flow.Sequence,4_54,2023-10-31T17:14:41.569Z,,0,,,2946.204999928479,completion,,,,,false,,,,495846.5,495846.1999999285,492883.329,492897.60000002384,492899.995,495849.877,8,400,,,
trial,html.Screen,4_55_0,2023-10-31T17:14:45.331Z,,0,2,,3758.322999928496,response,ISIC_7107030.JPG,5,ISIC_2585066.JPG,ISIC_7107030.JPG,false,1,keypress(m),500,499608.39999997616,499608.1999999285,495833.211,495846.6999999285,495849.877,499616.393,8,400,6,,ISIC_2585066.JPG
break,html.Screen,4_55_1,2023-10-31T17:14:45.331Z,,0,,,NaN,,,,,,false,,,,499609.10000002384,499608.89999997616,,499608.5,,499616.393,8,400,,,
break_continue,html.Screen,4_55_2,2023-10-31T17:14:45.332Z,,0,,,NaN,,,,,,false,,,,499609.1999999285,499609.1999999285,,499609.10000002384,,499616.393,8,400,,,
sequence,flow.Sequence,4_55,2023-10-31T17:14:45.332Z,,0,,,3759.322999928496,completion,,,,,false,,,,499609.39999997616,499609.1999999285,495833.211,495846.6999999285,495849.877,499616.393,8,400,,,
trial,html.Screen,4_56_0,2023-10-31T17:14:48.060Z,,0,2,,2721.107000000018,response,ISIC_1952599.JPG,5,ISIC_0025759.JPG,ISIC_0025759.JPG,false,0,keypress(z),500,502337.6999999285,502337.5,499599.727,499609.39999997616,499616.393,502349.889,8,400,7,,ISIC_1952599.JPG
break,html.Screen,4_56_1,2023-10-31T17:14:48.061Z,,0,,,NaN,,,,,,false,,,,502338.1999999285,502338.10000002384,,502337.7999999523,,502349.889,8,400,,,
break_continue,html.Screen,4_56_2,2023-10-31T17:14:48.061Z,,0,,,NaN,,,,,,false,,,,502338.39999997616,502338.2999999523,,502338.2999999523,,502349.889,8,400,,,
sequence,flow.Sequence,4_56,2023-10-31T17:14:48.061Z,,0,,,2721.9069999523344,completion,,,,,false,,,,502338.5,502338.2999999523,499599.727,499609.39999997616,499616.393,502349.889,8,400,,,
trial,html.Screen,4_57_0,2023-10-31T17:14:51.587Z,,0,2,,3514.711000023817,response,ISIC_0033561.JPG,7,ISIC_1264576.JPG,ISIC_0033561.JPG,false,1,keypress(m),500,505864.6999999285,505864.60000002384,502333.223,502338.60000002384,502349.889,505866.415,8,400,8,,ISIC_1264576.JPG
break,html.Screen,4_57_1,2023-10-31T17:14:51.588Z,,0,,,NaN,,,,,,false,,,,505865.5,505865.2999999523,,505865,,505866.415,8,400,,,
break_continue,html.Screen,4_57_2,2023-10-31T17:14:51.588Z,,0,,,NaN,,,,,,false,,,,505865.6999999285,505865.60000002384,,505865.5,,505866.415,8,400,,,
sequence,flow.Sequence,4_57,2023-10-31T17:14:51.588Z,,0,,,3515.711000023817,completion,,,,,false,,,,505865.7999999523,505865.60000002384,502333.223,502338.60000002384,502349.889,505866.415,8,400,,,
trial,html.Screen,4_58_0,2023-10-31T17:14:54.550Z,,0,2,,2960.7849999284954,response,ISIC_0058138.JPG,7,ISIC_0069515.JPG,ISIC_0058138.JPG,false,1,keypress(m),500,508827.39999997616,508827.1999999285,505849.749,505865.89999997616,505866.415,508832.963,8,400,9,,ISIC_0069515.JPG
break,html.Screen,4_58_1,2023-10-31T17:14:54.551Z,,0,,,NaN,,,,,,false,,,,508828.10000002384,508827.89999997616,,508827.5,,508832.963,8,400,,,
break_continue,html.Screen,4_58_2,2023-10-31T17:14:54.551Z,,0,,,NaN,,,,,,false,,,,508828.5,508828.39999997616,,508828.1999999285,,508832.963,8,400,,,
sequence,flow.Sequence,4_58,2023-10-31T17:14:54.551Z,,0,,,2961.984999976179,completion,,,,,false,,,,508828.60000002384,508828.39999997616,505849.749,505865.7999999523,505866.415,508832.963,8,400,,,
trial,html.Screen,4_59_0,2023-10-31T17:14:58.604Z,,0,2,,4048.137000023853,response,ISIC_7373074.JPG,6,ISIC_1337726.JPG,ISIC_7373074.JPG,false,1,keypress(m),500,512881.39999997616,512881.10000002384,508816.297,508828.7999999523,508832.963,512899.734,8,400,10,,ISIC_1337726.JPG
break,html.Screen,4_59_1,2023-10-31T17:14:58.605Z,,0,,,NaN,,,,,,false,,,,512882.10000002384,512882,,512881.5,,512899.734,8,400,,,
break_continue,html.Screen,4_59_2,2023-10-31T17:14:58.605Z,,0,,,NaN,,,,,,false,,,,512882.39999997616,512882.39999997616,,512882.1999999285,,512899.734,8,400,,,
sequence,flow.Sequence,4_59,2023-10-31T17:14:58.605Z,,0,,,4049.4369999761693,completion,,,,,false,,,,512882.5,512882.39999997616,508816.297,508828.6999999285,508832.963,512899.734,8,400,,,
trial,html.Screen,4_60_0,2023-10-31T17:15:02.353Z,,0,2,,3730.866000023845,response,ISIC_0028915.JPG,5,ISIC_5157799.JPG,ISIC_0028915.JPG,false,1,keypress(m),500,516630.6999999285,516630.60000002384,512883.068,512882.60000002384,512899.734,516632.918,8,400,11,,ISIC_5157799.JPG
break,html.Screen,4_60_1,2023-10-31T17:15:02.354Z,,0,,,NaN,,,,,,false,,,,516631.2999999523,516631.10000002384,,516630.89999997616,,516632.918,8,400,,,
break_continue,html.Screen,4_60_2,2023-10-31T17:15:02.354Z,,0,,,NaN,,,,,,false,,,,516631.39999997616,516631.39999997616,,516631.39999997616,,516632.918,8,400,,,
sequence,flow.Sequence,4_60,2023-10-31T17:15:02.354Z,,0,,,3731.6659999761614,completion,,,,,false,,,,516631.5,516631.39999997616,512883.068,512882.60000002384,512899.734,516632.918,8,400,,,
trial,html.Screen,4_61_0,2023-10-31T17:15:05.496Z,,0,2,,3140.381999952311,response,ISIC_6000407.JPG,5,ISIC_0000012.JPG,ISIC_0000012.JPG,false,0,keypress(z),500,519773.60000002384,519773.2999999523,516616.252,516631.6999999285,516632.918,519782.792,8,400,12,,ISIC_6000407.JPG
break,html.Screen,4_61_1,2023-10-31T17:15:05.497Z,,0,,,NaN,,,,,,false,,,,519774.39999997616,519774.2999999523,,519773.89999997616,,519782.792,8,400,,,
break_continue,html.Screen,4_61_2,2023-10-31T17:15:05.497Z,,0,,,NaN,,,,,,false,,,,519774.6999999285,519774.60000002384,,519774.5,,519782.792,8,400,,,
sequence,flow.Sequence,4_61,2023-10-31T17:15:05.497Z,,0,,,3141.6820000238367,completion,,,,,false,,,,519774.7999999523,519774.60000002384,516616.252,516631.60000002384,516632.918,519782.792,8,400,,,
trial,html.Screen,4_62_0,2023-10-31T17:15:08.604Z,,0,2,,3098.1079999761423,response,ISIC_6284312.JPG,6,ISIC_0027420.JPG,ISIC_6284312.JPG,false,1,keypress(m),500,522881.1999999285,522880.89999997616,519766.126,519774.89999997616,519782.792,522899.598,8,400,13,,ISIC_0027420.JPG
break,html.Screen,4_62_1,2023-10-31T17:15:08.605Z,,0,,,NaN,,,,,,false,,,,522882.39999997616,522882.39999997616,,522881.39999997616,,522899.598,8,400,,,
break_continue,html.Screen,4_62_2,2023-10-31T17:15:08.605Z,,0,,,NaN,,,,,,false,,,,522882.6999999285,522882.6999999285,,522882.5,,522899.598,8,400,,,
sequence,flow.Sequence,4_62,2023-10-31T17:15:08.605Z,,0,,,3099.9079999284586,completion,,,,,false,,,,522882.7999999523,522882.6999999285,519766.126,519774.89999997616,519782.792,522899.598,8,400,,,
trial,html.Screen,4_63_0,2023-10-31T17:15:11.728Z,,0,2,,3106.1019999284763,response,ISIC_0011517.JPG,5,ISIC_0067235.JPG,ISIC_0011517.JPG,false,1,keypress(m),500,526006,526005.6999999285,522882.932,522882.89999997616,522899.598,526016.14,8,400,14,,ISIC_0067235.JPG
break,html.Screen,4_63_1,2023-10-31T17:15:11.729Z,,0,,,NaN,,,,,,false,,,,526006.7999999523,526006.6000000238,,526006.1999999285,,526016.14,8,400,,,
break_continue,html.Screen,4_63_2,2023-10-31T17:15:11.729Z,,0,,,NaN,,,,,,false,,,,526007.1000000238,526007,,526006.8999999762,,526016.14,8,400,,,
sequence,flow.Sequence,4_63,2023-10-31T17:15:11.730Z,,0,,,3107.402000000002,completion,,,,,false,,,,526007.1999999285,526007,522882.932,522882.89999997616,522899.598,526016.14,8,400,,,
trial,html.Screen,4_64_0,2023-10-31T17:15:15.062Z,,0,2,,3322.960000023828,response,ISIC_0032907.JPG,8,ISIC_8268025.JPG,ISIC_8268025.JPG,false,0,keypress(z),500,529339.3999999762,529339.1000000238,525999.474,526007.1999999285,526016.14,529349.34,8,400,15,,ISIC_0032907.JPG
break,html.Screen,4_64_1,2023-10-31T17:15:15.063Z,,0,,,NaN,,,,,,false,,,,529340.1000000238,529340,,529339.5,,529349.34,8,400,,,
break_continue,html.Screen,4_64_2,2023-10-31T17:15:15.063Z,,0,,,NaN,,,,,,false,,,,529340.3999999762,529340.3999999762,,529340.1999999285,,529349.34,8,400,,,
sequence,flow.Sequence,4_64,2023-10-31T17:15:15.063Z,,0,,,3324.259999976144,completion,,,,,false,,,,529340.5,529340.3999999762,525999.474,526007.1999999285,526016.14,529349.34,8,400,,,
trial,html.Screen,4_65_0,2023-10-31T17:15:18.105Z,,0,2,,3033.1600000000326,response,ISIC_4013189.JPG,9,ISIC_0028215.JPG,ISIC_0028215.JPG,false,0,keypress(z),500,532382.6000000238,532382.5,529332.674,529340.6000000238,529349.34,532399.491,8,400,16,,ISIC_4013189.JPG
break,html.Screen,4_65_1,2023-10-31T17:15:18.106Z,,0,,,NaN,,,,,,false,,,,532383.2999999523,532383.1000000238,,532382.6999999285,,532399.491,8,400,,,
break_continue,html.Screen,4_65_2,2023-10-31T17:15:18.106Z,,0,,,NaN,,,,,,false,,,,532383.6999999285,532383.5,,532383.3999999762,,532399.491,8,400,,,
sequence,flow.Sequence,4_65,2023-10-31T17:15:18.106Z,,0,,,3034.1600000000326,completion,,,,,false,,,,532383.7999999523,532383.5,529332.674,529340.6000000238,529349.34,532399.491,8,400,,,
trial,html.Screen,4_66_0,2023-10-31T17:15:22.047Z,,0,2,,3924.7089999284362,response,ISIC_0055781.JPG,7,ISIC_0073102.JPG,ISIC_0073102.JPG,false,0,keypress(z),500,536324.3999999762,536324.1999999285,532382.825,532383.7999999523,532399.491,536332.667,8,400,17,,ISIC_0055781.JPG
break,html.Screen,4_66_1,2023-10-31T17:15:22.048Z,,0,,,NaN,,,,,,false,,,,536325.5,536325.1999999285,,536324.6999999285,,536332.667,8,400,,,
break_continue,html.Screen,4_66_2,2023-10-31T17:15:22.048Z,,0,,,NaN,,,,,,false,,,,536326,536325.7999999523,,536325.6000000238,,536332.667,8,400,,,
sequence,flow.Sequence,4_66,2023-10-31T17:15:22.049Z,,0,,,3926.308999952278,completion,,,,,false,,,,536326.1999999285,536325.7999999523,532382.825,532383.7999999523,532399.491,536332.667,8,400,,,
trial,html.Screen,4_67_0,2023-10-31T17:15:25.091Z,,0,2,,3035.433000023826,response,ISIC_0058768.JPG,6,ISIC_0011694.JPG,ISIC_0058768.JPG,false,1,keypress(m),500,539368.3999999762,539368.1000000238,536316.001,536326.1999999285,536332.667,539399.211,8,400,18,,ISIC_0011694.JPG
break,html.Screen,4_67_1,2023-10-31T17:15:25.092Z,,0,,,NaN,,,,,,false,,,,539369.1000000238,539368.8999999762,,539368.5,,539399.211,8,400,,,
break_continue,html.Screen,4_67_2,2023-10-31T17:15:25.092Z,,0,,,NaN,,,,,,false,,,,539369.5,539369.3999999762,,539369.2999999523,,539399.211,8,400,,,
sequence,flow.Sequence,4_67,2023-10-31T17:15:25.092Z,,0,,,3036.7329999761423,completion,,,,,false,,,,539369.6000000238,539369.3999999762,536316.001,536326.1999999285,536332.667,539399.211,8,400,,,
trial,html.Screen,4_68_0,2023-10-31T17:15:28.663Z,,0,2,,3541.2889999999898,response,ISIC_0057759.JPG,6,ISIC_0067577.JPG,ISIC_0057759.JPG,false,1,keypress(m),500,542940.6000000238,542940.5,539382.545,539369.8999999762,539399.211,542949.332,8,400,19,,ISIC_0067577.JPG
break,html.Screen,4_68_1,2023-10-31T17:15:28.664Z,,0,,,NaN,,,,,,false,,,,542941.1999999285,542941.1000000238,,542940.7999999523,,542949.332,8,400,,,
break_continue,html.Screen,4_68_2,2023-10-31T17:15:28.664Z,,0,,,NaN,,,,,,false,,,,542941.5,542941.2999999523,,542941.2999999523,,542949.332,8,400,,,
sequence,flow.Sequence,4_68,2023-10-31T17:15:28.664Z,,0,,,3542.088999952306,completion,,,,,false,,,,542941.6000000238,542941.2999999523,539382.545,539369.6000000238,539399.211,542949.332,8,400,,,
trial,html.Screen,4_69_0,2023-10-31T17:15:31.659Z,,0,2,,2987.167999999947,response,ISIC_1630301.JPG,6,ISIC_1377409.JPG,ISIC_1630301.JPG,false,1,keypress(m),500,545936.7999999523,545936.5,542932.666,542941.6999999285,542949.332,545949.212,8,400,20,,ISIC_1377409.JPG
break,html.Screen,4_69_1,2023-10-31T17:15:31.660Z,,0,,,NaN,,,,,,false,,,,545937.3999999762,545937.2999999523,,545937,,545949.212,8,400,,,
break_continue,html.Screen,4_69_2,2023-10-31T17:15:31.660Z,,0,,,NaN,,,,,,false,,,,545937.6000000238,545937.6000000238,,545937.5,,545949.212,8,400,,,
sequence,flow.Sequence,4_69,2023-10-31T17:15:31.660Z,,0,,,2988.2680000237888,completion,,,,,false,,,,545937.6999999285,545937.6000000238,542932.666,542941.6999999285,542949.332,545949.212,8,400,,,
trial,html.Screen,4_70_0,2023-10-31T17:15:35.070Z,,0,2,,3397.9879999284167,response,ISIC_4672131.JPG,8,ISIC_0013565.JPG,ISIC_0013565.JPG,false,0,keypress(z),500,549347.5,549347.1999999285,545932.546,545937.7999999523,545949.212,549365.742,8,400,21,,ISIC_4672131.JPG
break,html.Screen,4_70_1,2023-10-31T17:15:35.071Z,,0,,,NaN,,,,,,false,,,,549348.2999999523,549348,,549347.7999999523,,549365.742,8,400,,,
break_continue,html.Screen,4_70_2,2023-10-31T17:15:35.071Z,,0,,,NaN,,,,,,false,,,,549348.5,549348.3999999762,,549348.3999999762,,549365.742,8,400,,,
sequence,flow.Sequence,4_70,2023-10-31T17:15:35.071Z,,0,,,3399.1879999761004,completion,,,,,false,,,,549348.6999999285,549348.3999999762,545932.546,545937.7999999523,545949.212,549365.742,8,400,,,
trial,html.Screen,4_71_0,2023-10-31T17:15:37.830Z,,0,2,,2741.657999976189,response,ISIC_5614446.JPG,5,ISIC_7295035.JPG,ISIC_5614446.JPG,false,1,keypress(m),500,552107.5,552107.3999999762,549349.076,549348.6999999285,549365.742,552115.905,8,400,22,,ISIC_7295035.JPG
break,html.Screen,4_71_1,2023-10-31T17:15:37.830Z,,0,,,NaN,,,,,,false,,,,552108.1000000238,552107.8999999762,,552107.6999999285,,552115.905,8,400,,,
break_continue,html.Screen,4_71_2,2023-10-31T17:15:37.831Z,,0,,,NaN,,,,,,false,,,,552108.3999999762,552108.2999999523,,552108.1000000238,,552115.905,8,400,,,
sequence,flow.Sequence,4_71,2023-10-31T17:15:37.831Z,,0,,,2742.557999952347,completion,,,,,false,,,,552108.5,552108.2999999523,549349.076,549348.6999999285,549365.742,552115.905,8,400,,,
trial,html.Screen,4_72_0,2023-10-31T17:15:41.548Z,,0,2,,3709.8949999522883,response,ISIC_1308649.JPG,5,ISIC_2211136.JPG,ISIC_2211136.JPG,false,0,keypress(z),500,555826,555825.7999999523,552099.239,552108.5,552115.905,555849.089,8,400,23,,ISIC_1308649.JPG
break,html.Screen,4_72_1,2023-10-31T17:15:41.549Z,,0,,,NaN,,,,,,false,,,,555826.3999999762,555826.1999999285,,555826.1000000238,,555849.089,8,400,,,
break_continue,html.Screen,4_72_2,2023-10-31T17:15:41.549Z,,0,,,NaN,,,,,,false,,,,555826.5,555826.5,,555826.3999999762,,555849.089,8,400,,,
sequence,flow.Sequence,4_72,2023-10-31T17:15:41.549Z,,0,,,3710.594999999972,completion,,,,,false,,,,555826.6000000238,555826.5,552099.239,552108.5,552115.905,555849.089,8,400,,,
trial,html.Screen,4_73_0,2023-10-31T17:15:44.291Z,,0,2,,2719.5110000238055,response,ISIC_7927525.JPG,8,ISIC_0197873.JPG,ISIC_7927525.JPG,false,1,keypress(m),500,558568.8999999762,558568.6000000238,555832.423,555826.6999999285,555849.089,558582.313,8,400,24,,ISIC_0197873.JPG
break,html.Screen,4_73_1,2023-10-31T17:15:44.292Z,,0,,,NaN,,,,,,false,,,,558569.6999999285,558569.5,,558569.1000000238,,558582.313,8,400,,,
break_continue,html.Screen,4_73_2,2023-10-31T17:15:44.292Z,,0,,,NaN,,,,,,false,,,,558569.8999999762,558569.8999999762,,558569.7999999523,,558582.313,8,400,,,
sequence,flow.Sequence,4_73,2023-10-31T17:15:44.292Z,,0,,,2720.810999976122,completion,,,,,false,,,,558570.1000000238,558569.8999999762,555832.423,555826.6999999285,555849.089,558582.313,8,400,,,
trial,html.Screen,4_74_0,2023-10-31T17:15:47.627Z,,0,2,,3321.886999928509,response,ISIC_7300631.JPG,6,ISIC_6670242.JPG,ISIC_7300631.JPG,false,1,keypress(m),500,561904.3999999762,561904.1999999285,558565.647,558570.1999999285,558582.313,561915.789,8,400,25,,ISIC_6670242.JPG
break,html.Screen,4_74_1,2023-10-31T17:15:47.628Z,,0,,,NaN,,,,,,false,,,,561905.3999999762,561905.1999999285,,561905,,561915.789,8,400,,,
break_continue,html.Screen,4_74_2,2023-10-31T17:15:47.628Z,,0,,,NaN,,,,,,false,,,,561905.6000000238,561905.6000000238,,561905.3999999762,,561915.789,8,400,,,
sequence,flow.Sequence,4_74,2023-10-31T17:15:47.628Z,,0,,,3323.2870000238763,completion,,,,,false,,,,561905.6999999285,561905.6000000238,558565.647,558570.1999999285,558582.313,561915.789,8,400,,,
trial,html.Screen,4_75_0,2023-10-31T17:15:50.630Z,,0,2,,2991.6109999761684,response,ISIC_6265473.JPG,5,ISIC_0015193.JPG,ISIC_6265473.JPG,false,1,keypress(m),500,564907.5,564907.3999999762,561899.123,561905.7999999523,561915.789,564915.669,8,400,26,,ISIC_0015193.JPG
break,html.Screen,4_75_1,2023-10-31T17:15:50.630Z,,0,,,NaN,,,,,,false,,,,564907.8999999762,564907.7999999523,,564907.6000000238,,564915.669,8,400,,,
break_continue,html.Screen,4_75_2,2023-10-31T17:15:50.630Z,,0,,,NaN,,,,,,false,,,,564908.1000000238,564908,,564907.8999999762,,564915.669,8,400,,,
sequence,flow.Sequence,4_75,2023-10-31T17:15:50.631Z,,0,,,2992.2110000000102,completion,,,,,false,,,,564908.1000000238,564908,561899.123,561905.7999999523,561915.789,564915.669,8,400,,,
trial,html.Screen,4_76_0,2023-10-31T17:15:54.288Z,,0,2,,3649.3310000000056,response,ISIC_0063842.JPG,5,ISIC_0000296.JPG,ISIC_0063842.JPG,false,1,keypress(m),500,568565.1000000238,568565,564899.003,564908.1000000238,564915.669,568582.189,8,400,27,,ISIC_0000296.JPG
break,html.Screen,4_76_1,2023-10-31T17:15:54.288Z,,0,,,NaN,,,,,,false,,,,568565.7999999523,568565.6000000238,,568565.2999999523,,568582.189,8,400,,,
break_continue,html.Screen,4_76_2,2023-10-31T17:15:54.288Z,,0,,,NaN,,,,,,false,,,,568566,568565.8999999762,,568565.7999999523,,568582.189,8,400,,,
sequence,flow.Sequence,4_76,2023-10-31T17:15:54.289Z,,0,,,3650.2309999761637,completion,,,,,false,,,,568566.1000000238,568565.8999999762,564899.003,564908.1000000238,564915.669,568582.189,8,400,,,
trial,html.Screen,4_77_0,2023-10-31T17:15:57.266Z,,0,2,,2961.6109999523032,response,ISIC_6697332.JPG,6,ISIC_3251486.JPG,ISIC_3251486.JPG,false,0,keypress(z),500,571544,571543.7999999523,568565.523,568566.1999999285,568582.189,571548.737,8,400,28,,ISIC_6697332.JPG
break,html.Screen,4_77_1,2023-10-31T17:15:57.268Z,,0,,,NaN,,,,,,false,,,,571545.6000000238,571545.3999999762,,571544.6000000238,,571548.737,8,400,,,
break_continue,html.Screen,4_77_2,2023-10-31T17:15:57.268Z,,0,,,NaN,,,,,,false,,,,571545.7999999523,571545.7999999523,,571545.6999999285,,571548.737,8,400,,,
sequence,flow.Sequence,4_77,2023-10-31T17:15:57.268Z,,0,,,2963.6109999523032,completion,,,,,false,,,,571545.8999999762,571545.7999999523,568565.523,568566.1999999285,568582.189,571548.737,8,400,,,
trial,html.Screen,4_78_0,2023-10-31T17:16:00.197Z,,0,2,,2926.0629999523517,response,ISIC_8159718.JPG,5,ISIC_8301536.JPG,ISIC_8301536.JPG,false,0,keypress(z),500,574475,574474.7999999523,571532.071,571546,571548.737,574482.219,8,400,29,,ISIC_8159718.JPG
break,html.Screen,4_78_1,2023-10-31T17:16:00.198Z,,0,,,NaN,,,,,,false,,,,574475.3999999762,574475.2999999523,,574475.1000000238,,574482.219,8,400,,,
break_continue,html.Screen,4_78_2,2023-10-31T17:16:00.198Z,,0,,,NaN,,,,,,false,,,,574475.6000000238,574475.5,,574475.5,,574482.219,8,400,,,
sequence,flow.Sequence,4_78,2023-10-31T17:16:00.198Z,,0,,,2926.7630000000354,completion,,,,,false,,,,574475.6999999285,574475.5,571532.071,571545.8999999762,571548.737,574482.219,8,400,,,
trial,html.Screen,4_79_0,2023-10-31T17:16:04.714Z,,0,2,,4509.480999928433,response,ISIC_1380069.JPG,7,ISIC_9053988.JPG,ISIC_9053988.JPG,false,0,keypress(z),500,578991.8999999762,578991.6999999285,574465.553,574475.6999999285,574482.219,578998.705,8,400,30,,ISIC_1380069.JPG
break,html.Screen,4_79_1,2023-10-31T17:16:04.715Z,,0,,,NaN,,,,,,false,,,,578992.5,578992.2999999523,,578992,,578998.705,8,400,,,
break_continue,html.Screen,4_79_2,2023-10-31T17:16:04.715Z,,0,,,NaN,,,,,,false,,,,578992.7999999523,578992.6999999285,,578992.6000000238,,578998.705,8,400,,,
sequence,flow.Sequence,4_79,2023-10-31T17:16:04.715Z,,0,,,4510.480999928433,completion,,,,,false,,,,578992.8999999762,578992.6999999285,574465.553,574475.6999999285,574482.219,578998.705,8,400,,,
trial,html.Screen,4_80_0,2023-10-31T17:16:07.684Z,,0,2,,2962.295000000042,response,ISIC_0011780.JPG,5,ISIC_3582787.JPG,ISIC_0011780.JPG,false,1,keypress(m),500,581961.1999999285,581961,578982.039,578993.1000000238,578998.705,581965.253,8,400,31,,ISIC_3582787.JPG
break,html.Screen,4_80_1,2023-10-31T17:16:07.684Z,,0,,,NaN,,,,,,false,,,,581962,581961.7999999523,,581961.5,,581965.253,8,400,,,
break_continue,html.Screen,4_80_2,2023-10-31T17:16:07.685Z,,0,,,NaN,,,,,,false,,,,581962.3999999762,581962.1999999285,,581962.1000000238,,581965.253,8,400,,,
sequence,flow.Sequence,4_80,2023-10-31T17:16:07.685Z,,0,,,2963.4949999285163,completion,,,,,false,,,,581962.3999999762,581962.1999999285,578982.039,578993.1000000238,578998.705,581965.253,8,400,,,
trial,html.Screen,4_81_0,2023-10-31T17:16:10.638Z,,0,2,,2950.04699995229,response,ISIC_5015378.JPG,9,ISIC_9667908.JPG,ISIC_9667908.JPG,false,0,keypress(z),500,584915.5,584915.2999999523,581948.587,581962.5,581965.253,584932.073,8,400,32,,ISIC_5015378.JPG
break,html.Screen,4_81_1,2023-10-31T17:16:10.639Z,,0,,,NaN,,,,,,false,,,,584916.1999999285,584916,,584915.6000000238,,584932.073,8,400,,,
break_continue,html.Screen,4_81_2,2023-10-31T17:16:10.639Z,,0,,,NaN,,,,,,false,,,,584916.6000000238,584916.5,,584916.2999999523,,584932.073,8,400,,,
sequence,flow.Sequence,4_81,2023-10-31T17:16:10.639Z,,0,,,2951.246999999974,completion,,,,,false,,,,584916.6999999285,584916.5,581948.587,581962.3999999762,581965.253,584932.073,8,400,,,
trial,html.Screen,4_82_0,2023-10-31T17:16:13.715Z,,0,2,,3060.2269999523414,response,ISIC_0027170.JPG,7,ISIC_0062204.JPG,ISIC_0062204.JPG,false,0,keypress(z),500,587992.5,587992.2999999523,584915.407,584916.7999999523,584932.073,587998.617,8,400,33,,ISIC_0027170.JPG
break,html.Screen,4_82_1,2023-10-31T17:16:13.716Z,,0,,,NaN,,,,,,false,,,,587993.3999999762,587993.1999999285,,587992.6999999285,,587998.617,8,400,,,
break_continue,html.Screen,4_82_2,2023-10-31T17:16:13.716Z,,0,,,NaN,,,,,,false,,,,587993.7999999523,587993.6999999285,,587993.6000000238,,587998.617,8,400,,,
sequence,flow.Sequence,4_82,2023-10-31T17:16:13.716Z,,0,,,3061.6269999284996,completion,,,,,false,,,,587993.8999999762,587993.6999999285,584915.407,584916.6999999285,584932.073,587998.617,8,400,,,
trial,html.Screen,4_83_0,2023-10-31T17:16:16.758Z,,0,2,,3037.282999976189,response,ISIC_6906476.JPG,7,ISIC_1436929.JPG,ISIC_6906476.JPG,false,1,keypress(m),500,591036.1000000238,591035.8999999762,587981.951,587993.8999999762,587998.617,591048.495,8,400,34,,ISIC_1436929.JPG
break,html.Screen,4_83_1,2023-10-31T17:16:16.759Z,,0,,,NaN,,,,,,false,,,,591036.3999999762,591036.3999999762,,591036.1000000238,,591048.495,8,400,,,
break_continue,html.Screen,4_83_2,2023-10-31T17:16:16.759Z,,0,,,NaN,,,,,,false,,,,591036.6000000238,591036.6000000238,,591036.5,,591048.495,8,400,,,
sequence,flow.Sequence,4_83,2023-10-31T17:16:16.759Z,,0,,,3037.9830000238726,completion,,,,,false,,,,591036.6000000238,591036.6000000238,587981.951,587993.8999999762,587998.617,591048.495,8,400,,,
trial,html.Screen,4_84_0,2023-10-31T17:16:19.707Z,,0,2,,2936.1050000238465,response,ISIC_5400609.JPG,8,ISIC_4136591.JPG,ISIC_5400609.JPG,false,1,keypress(m),500,593984.7999999523,593984.6000000238,591031.829,591036.7999999523,591048.495,593998.641,8,400,35,,ISIC_4136591.JPG
break,html.Screen,4_84_1,2023-10-31T17:16:19.708Z,,0,,,NaN,,,,,,false,,,,593985.2999999523,593985.1999999285,,593984.8999999762,,593998.641,8,400,,,
break_continue,html.Screen,4_84_2,2023-10-31T17:16:19.708Z,,0,,,NaN,,,,,,false,,,,593985.5,593985.3999999762,,593985.3999999762,,593998.641,8,400,,,
sequence,flow.Sequence,4_84,2023-10-31T17:16:19.708Z,,0,,,2936.904999976163,completion,,,,,false,,,,593985.6999999285,593985.3999999762,591031.829,591036.7999999523,591048.495,593998.641,8,400,,,
trial,html.Screen,4_85_0,2023-10-31T17:16:22.590Z,,0,2,,2868.359000000055,response,ISIC_0821520.JPG,8,ISIC_0031671.JPG,ISIC_0821520.JPG,false,1,keypress(m),500,596867.2999999523,596867,593981.975,593985.7999999523,593998.641,596881.859,8,400,36,,ISIC_0031671.JPG
break,html.Screen,4_85_1,2023-10-31T17:16:22.591Z,,0,,,NaN,,,,,,false,,,,596868.3999999762,596868.2999999523,,596868.1000000238,,596881.859,8,400,,,
break_continue,html.Screen,4_85_2,2023-10-31T17:16:22.591Z,,0,,,NaN,,,,,,false,,,,596868.6000000238,596868.5,,596868.5,,596881.859,8,400,,,
sequence,flow.Sequence,4_85,2023-10-31T17:16:22.591Z,,0,,,2869.859000000055,completion,,,,,false,,,,596868.6999999285,596868.5,593981.975,593985.7999999523,593998.641,596881.859,8,400,,,
trial,html.Screen,4_86_0,2023-10-31T17:16:25.300Z,,0,2,,2695.3409999284195,response,ISIC_0033953.JPG,7,ISIC_0012338.JPG,ISIC_0012338.JPG,false,0,keypress(z),500,599577.3999999762,599577.1999999285,596865.193,596868.6999999285,596881.859,599581.751,8,400,37,,ISIC_0033953.JPG
break,html.Screen,4_86_1,2023-10-31T17:16:25.300Z,,0,,,NaN,,,,,,false,,,,599578,599577.7999999523,,599577.5,,599581.751,8,400,,,
break_continue,html.Screen,4_86_2,2023-10-31T17:16:25.301Z,,0,,,NaN,,,,,,false,,,,599578.2999999523,599578.1999999285,,599578.1000000238,,599581.751,8,400,,,
sequence,flow.Sequence,4_86,2023-10-31T17:16:25.301Z,,0,,,2696.3409999284195,completion,,,,,false,,,,599578.3999999762,599578.1999999285,596865.193,596868.6999999285,596881.859,599581.751,8,400,,,
trial,html.Screen,4_87_0,2023-10-31T17:16:28.122Z,,0,2,,2817.2489999999525,response,ISIC_6654619.JPG,8,ISIC_3478473.JPG,ISIC_6654619.JPG,false,1,keypress(m),500,602399.6000000238,602399,599565.085,599578.5,599581.751,602414.971,8,400,38,,ISIC_3478473.JPG
break,html.Screen,4_87_1,2023-10-31T17:16:28.123Z,,0,,,NaN,,,,,,false,,,,602400.2999999523,602400.1000000238,,602399.6999999285,,602414.971,8,400,,,
break_continue,html.Screen,4_87_2,2023-10-31T17:16:28.123Z,,0,,,NaN,,,,,,false,,,,602400.6000000238,602400.3999999762,,602400.2999999523,,602414.971,8,400,,,
sequence,flow.Sequence,4_87,2023-10-31T17:16:28.123Z,,0,,,2818.6489999761106,completion,,,,,false,,,,602400.6000000238,602400.3999999762,599565.085,599578.5,599581.751,602414.971,8,400,,,
trial,html.Screen,4_88_0,2023-10-31T17:16:31.293Z,,0,2,,3155.5289999999804,response,ISIC_8751106.JPG,5,ISIC_0054341.JPG,ISIC_0054341.JPG,false,0,keypress(z),500,605570.6999999285,605570.5,602398.305,602400.6999999285,602414.971,605581.782,8,400,39,,ISIC_8751106.JPG
break,html.Screen,4_88_1,2023-10-31T17:16:31.293Z,,0,,,NaN,,,,,,false,,,,605571,605571,,605570.6999999285,,605581.782,8,400,,,
break_continue,html.Screen,4_88_2,2023-10-31T17:16:31.294Z,,0,,,NaN,,,,,,false,,,,605571.1999999285,605571.1000000238,,605571,,605581.782,8,400,,,
sequence,flow.Sequence,4_88,2023-10-31T17:16:31.294Z,,0,,,3156.1290000238223,completion,,,,,false,,,,605571.1999999285,605571.1000000238,602398.305,602400.6999999285,602414.971,605581.782,8,400,,,
trial,html.Screen,4_89_0,2023-10-31T17:16:34.367Z,,0,2,,3063.1179999761516,response,ISIC_8751106.JPG,4,ISIC_1939413.JPG,ISIC_1939413.JPG,false,0,keypress(z),500,608645,608644.8999999762,605565.116,605571.2999999523,605581.782,608648.326,8,400,40,,ISIC_8751106.JPG
break,html.Screen,4_89_1,2023-10-31T17:16:34.368Z,,0,,,NaN,,,,,,false,,,,608645.6999999285,608645.3999999762,,608645.1000000238,,608648.326,8,400,,,
break_continue,html.Screen,4_89_2,2023-10-31T17:16:34.368Z,,0,,,NaN,,,,,,false,,,,608646,608645.7999999523,,608645.7999999523,,608648.326,8,400,,,
sequence,flow.Sequence,4_89,2023-10-31T17:16:34.368Z,,0,,,3064.0179999523098,completion,,,,,false,,,,608646,608645.7999999523,605565.116,605571.2999999523,605581.782,608648.326,8,400,,,
trial,html.Screen,4_90_0,2023-10-31T17:16:37.235Z,,0,2,,2864.4739999523154,response,ISIC_8214287.JPG,5,ISIC_1403974.JPG,ISIC_8214287.JPG,false,1,keypress(m),500,611512.8999999762,611512.7999999523,608631.66,608646.1999999285,608648.326,611514.878,8,400,41,,ISIC_1403974.JPG
break,html.Screen,4_90_1,2023-10-31T17:16:37.236Z,,0,,,NaN,,,,,,false,,,,611513.6999999285,611513.5,,611513.1000000238,,611514.878,8,400,,,
break_continue,html.Screen,4_90_2,2023-10-31T17:16:37.237Z,,0,,,NaN,,,,,,false,,,,611514.1999999285,611514.1000000238,,611513.7999999523,,611514.878,8,400,,,
sequence,flow.Sequence,4_90,2023-10-31T17:16:37.237Z,,0,,,2865.774000023841,completion,,,,,false,,,,611514.2999999523,611514.1000000238,608631.66,608646.1000000238,608648.326,611514.878,8,400,,,
trial,html.Screen,4_91_0,2023-10-31T17:16:40.023Z,,0,2,,2785.3219999284483,response,ISIC_1960468.JPG,5,ISIC_0030694.JPG,ISIC_0030694.JPG,false,0,keypress(z),500,614300.3999999762,614300.1999999285,611498.212,611514.3999999762,611514.878,614315.031,8,400,42,,ISIC_1960468.JPG
break,html.Screen,4_91_1,2023-10-31T17:16:40.024Z,,0,,,NaN,,,,,,false,,,,614301.3999999762,614301.1999999285,,614300.6000000238,,614315.031,8,400,,,
break_continue,html.Screen,4_91_2,2023-10-31T17:16:40.024Z,,0,,,NaN,,,,,,false,,,,614301.6999999285,614301.6000000238,,614301.5,,614315.031,8,400,,,
sequence,flow.Sequence,4_91,2023-10-31T17:16:40.024Z,,0,,,2786.722000023816,completion,,,,,false,,,,614301.7999999523,614301.6000000238,611498.212,611514.3999999762,611514.878,614315.031,8,400,,,
trial,html.Screen,4_92_0,2023-10-31T17:16:43.053Z,,0,2,,3014.969000000041,response,ISIC_0027941.JPG,8,ISIC_9969907.JPG,ISIC_0027941.JPG,false,1,keypress(m),500,617330.1999999285,617330,614298.365,614301.7999999523,614315.031,617331.577,8,400,43,,ISIC_9969907.JPG
break,html.Screen,4_92_1,2023-10-31T17:16:43.053Z,,0,,,NaN,,,,,,false,,,,617330.7999999523,617330.6000000238,,617330.2999999523,,617331.577,8,400,,,
break_continue,html.Screen,4_92_2,2023-10-31T17:16:43.054Z,,0,,,NaN,,,,,,false,,,,617331.1000000238,617331,,617330.8999999762,,617331.577,8,400,,,
sequence,flow.Sequence,4_92,2023-10-31T17:16:43.054Z,,0,,,3015.969000000041,completion,,,,,false,,,,617331.1999999285,617331,614298.365,614301.7999999523,614315.031,617331.577,8,400,,,
trial,html.Screen,4_93_0,2023-10-31T17:16:46.098Z,,0,2,,3044.122999928426,response,ISIC_0015455.JPG,8,ISIC_0011797.JPG,ISIC_0015455.JPG,false,1,keypress(m),500,620375.8999999762,620375.6999999285,617314.911,617331.2999999523,617331.577,620381.455,8,400,44,,ISIC_0011797.JPG
break,html.Screen,4_93_1,2023-10-31T17:16:46.099Z,,0,,,NaN,,,,,,false,,,,620376.3999999762,620376.2999999523,,620376,,620381.455,8,400,,,
break_continue,html.Screen,4_93_2,2023-10-31T17:16:46.099Z,,0,,,NaN,,,,,,false,,,,620376.6999999285,620376.6000000238,,620376.6000000238,,620381.455,8,400,,,
sequence,flow.Sequence,4_93,2023-10-31T17:16:46.099Z,,0,,,3045.0230000237934,completion,,,,,false,,,,620376.7999999523,620376.6000000238,617314.911,617331.2999999523,617331.577,620381.455,8,400,,,
trial,html.Screen,4_94_0,2023-10-31T17:16:48.764Z,,0,2,,2659.545000000042,response,ISIC_5578611.JPG,6,ISIC_4980656.JPG,ISIC_4980656.JPG,false,0,keypress(z),500,623041.3999999762,623041,620364.789,620376.8999999762,620381.455,623048.277,8,400,45,,ISIC_5578611.JPG
break,html.Screen,4_94_1,2023-10-31T17:16:48.765Z,,0,,,NaN,,,,,,false,,,,623042.1000000238,623041.8999999762,,623041.6000000238,,623048.277,8,400,,,
break_continue,html.Screen,4_94_2,2023-10-31T17:16:48.765Z,,0,,,NaN,,,,,,false,,,,623042.2999999523,623042.2999999523,,623042.1999999285,,623048.277,8,400,,,
sequence,flow.Sequence,4_94,2023-10-31T17:16:48.765Z,,0,,,2660.844999952358,completion,,,,,false,,,,623042.3999999762,623042.2999999523,620364.789,620376.8999999762,620381.455,623048.277,8,400,,,
trial,html.Screen,4_95_0,2023-10-31T17:16:51.505Z,,0,2,,2734.222999999998,response,ISIC_9199158.JPG,8,ISIC_0059904.JPG,ISIC_0059904.JPG,false,0,keypress(z),500,625782.6999999285,625782.5,623031.611,623042.6000000238,623048.277,625798.167,8,400,46,,ISIC_9199158.JPG
break,html.Screen,4_95_1,2023-10-31T17:16:51.506Z,,0,,,NaN,,,,,,false,,,,625784,625783.7999999523,,625783.1000000238,,625798.167,8,400,,,
break_continue,html.Screen,4_95_2,2023-10-31T17:16:51.507Z,,0,,,NaN,,,,,,false,,,,625784.5,625784.2999999523,,625784.1000000238,,625798.167,8,400,,,
sequence,flow.Sequence,4_95,2023-10-31T17:16:51.507Z,,0,,,2736.0229999523144,completion,,,,,false,,,,625784.6999999285,625784.2999999523,623031.611,623042.6000000238,623048.277,625798.167,8,400,,,
trial,html.Screen,4_96_0,2023-10-31T17:16:54.170Z,,0,2,,2648.832999999984,response,ISIC_0014891.JPG,4,ISIC_2619533.JPG,ISIC_0014891.JPG,false,1,keypress(m),500,628447.1999999285,628447,625781.501,625784.7999999523,625798.167,628464.727,8,400,47,,ISIC_2619533.JPG
break,html.Screen,4_96_1,2023-10-31T17:16:54.171Z,,0,,,NaN,,,,,,false,,,,628448.2999999523,628448,,628447.6000000238,,628464.727,8,400,,,
break_continue,html.Screen,4_96_2,2023-10-31T17:16:54.171Z,,0,,,NaN,,,,,,false,,,,628448.6000000238,628448.5,,628448.3999999762,,628464.727,8,400,,,
sequence,flow.Sequence,4_96,2023-10-31T17:16:54.171Z,,0,,,2650.332999999984,completion,,,,,false,,,,628448.6999999285,628448.5,625781.501,625784.6999999285,625798.167,628464.727,8,400,,,
trial,html.Screen,4_97_0,2023-10-31T17:16:57.069Z,,0,2,,2881.672999976203,response,ISIC_0024221.JPG,6,ISIC_5519357.JPG,ISIC_0024221.JPG,false,1,keypress(m),500,631346.5,631346.3999999762,628448.061,628448.7999999523,628464.727,631347.945,8,400,48,,ISIC_5519357.JPG
break,html.Screen,4_97_1,2023-10-31T17:16:57.069Z,,0,,,NaN,,,,,,false,,,,631347,631347,,631346.6999999285,,631347.945,8,400,,,
break_continue,html.Screen,4_97_2,2023-10-31T17:16:57.070Z,,0,,,NaN,,,,,,false,,,,631347.2999999523,631347.1999999285,,631347.1000000238,,631347.945,8,400,,,
sequence,flow.Sequence,4_97,2023-10-31T17:16:57.070Z,,0,,,2882.472999928519,completion,,,,,false,,,,631347.3999999762,631347.1999999285,628448.061,628448.6999999285,628464.727,631347.945,8,400,,,
trial,html.Screen,4_98_0,2023-10-31T17:16:59.795Z,,0,2,,2724.155000023893,response,ISIC_0033369.JPG,7,ISIC_0032840.JPG,ISIC_0032840.JPG,false,0,keypress(z),500,634072.2999999523,634072.1000000238,631331.279,631347.3999999762,631347.945,634081.439,8,400,49,,ISIC_0033369.JPG
break,html.Screen,4_98_1,2023-10-31T17:16:59.795Z,,0,,,NaN,,,,,,false,,,,634073.1000000238,634072.8999999762,,634072.3999999762,,634081.439,8,400,,,
break_continue,html.Screen,4_98_2,2023-10-31T17:16:59.796Z,,0,,,NaN,,,,,,false,,,,634073.3999999762,634073.1999999285,,634073.1000000238,,634081.439,8,400,,,
sequence,flow.Sequence,4_98,2023-10-31T17:16:59.796Z,,0,,,2725.2549999285256,completion,,,,,false,,,,634073.5,634073.1999999285,631331.279,631347.3999999762,631347.945,634081.439,8,400,,,
trial,html.Screen,4_99_0,2023-10-31T17:17:03.178Z,,0,2,,3373.3609999523032,response,ISIC_1985436.JPG,6,ISIC_3750329.JPG,ISIC_3750329.JPG,false,0,keypress(z),500,637455.1999999285,637454.7999999523,634064.773,634073.6000000238,634081.439,637464.637,8,400,50,,ISIC_1985436.JPG
break,html.Screen,4_99_1,2023-10-31T17:17:13.172Z,,0,,,9999.861999999965,timeout,,,,,false,,,,647449.3999999762,647447.833,637447.971,637455.6999999285,637464.637,647464.499,8,400,,,
break_continue,html.Screen,4_99_2,2023-10-31T17:17:13.978Z,,0,,,773.0010000000475,response,,,,,false,continue,keypress(Space),,648256,648237.5,647447.833,647449.3999999762,647464.499,648264.467,8,400,,,
sequence,flow.Sequence,4_99,2023-10-31T17:17:13.979Z,,0,,,14156.060999999987,completion,,,,,false,,,,648256.1000000238,648237.5,634064.773,634073.6000000238,634081.439,648264.467,8,400,,,
trial,html.Screen,4_100_0,2023-10-31T17:17:16.846Z,,0,3,,2858.7329999285284,response,ISIC_1689678.JPG,7,ISIC_9738202.JPG,ISIC_1689678.JPG,false,1,keypress(m),500,651123.3999999762,651123.1999999285,648247.801,648256.1999999285,648264.467,651131.019,8,400,1,,ISIC_9738202.JPG
break,html.Screen,4_100_1,2023-10-31T17:17:16.846Z,,0,,,NaN,,,,,,false,,,,651124.1000000238,651123.7999999523,,651123.5,,651131.019,8,400,,,
break_continue,html.Screen,4_100_2,2023-10-31T17:17:16.847Z,,0,,,NaN,,,,,,false,,,,651124.2999999523,651124.1999999285,,651124.1000000238,,651131.019,8,400,,,
sequence,flow.Sequence,4_100,2023-10-31T17:17:16.847Z,,0,,,2859.7329999285284,completion,,,,,false,,,,651124.3999999762,651124.1999999285,648247.801,648256.1000000238,648264.467,651131.019,8,400,,,
trial,html.Screen,4_101_0,2023-10-31T17:17:19.506Z,,0,3,,2652.280999952345,response,ISIC_0014559.JPG,7,ISIC_0046932.JPG,ISIC_0014559.JPG,false,1,keypress(m),500,653783.5,653783.2999999523,651114.353,651124.3999999762,651131.019,653797.851,8,400,2,,ISIC_0046932.JPG
break,html.Screen,4_101_1,2023-10-31T17:17:19.506Z,,0,,,NaN,,,,,,false,,,,653784.1000000238,653783.8999999762,,653783.6000000238,,653797.851,8,400,,,
break_continue,html.Screen,4_101_2,2023-10-31T17:17:19.507Z,,0,,,NaN,,,,,,false,,,,653784.2999999523,653784.1999999285,,653784.1000000238,,653797.851,8,400,,,
sequence,flow.Sequence,4_101,2023-10-31T17:17:19.507Z,,0,,,2653.1809999285033,completion,,,,,false,,,,653784.2999999523,653784.1999999285,651114.353,651124.3999999762,651131.019,653797.851,8,400,,,
trial,html.Screen,4_102_0,2023-10-31T17:17:22.309Z,,0,3,,2788.148999999976,response,ISIC_5403296.JPG,8,ISIC_0054523.JPG,ISIC_5403296.JPG,false,1,keypress(m),500,656586.2999999523,656586,653781.185,653784.3999999762,653797.851,656597.739,8,400,3,,ISIC_0054523.JPG
break,html.Screen,4_102_1,2023-10-31T17:17:22.310Z,,0,,,NaN,,,,,,false,,,,656587.1000000238,656587,,656586.5,,656597.739,8,400,,,
break_continue,html.Screen,4_102_2,2023-10-31T17:17:22.310Z,,0,,,NaN,,,,,,false,,,,656587.3999999762,656587.2999999523,,656587.1999999285,,656597.739,8,400,,,
sequence,flow.Sequence,4_102,2023-10-31T17:17:22.310Z,,0,,,2789.448999952292,completion,,,,,false,,,,656587.5,656587.2999999523,653781.185,653784.3999999762,653797.851,656597.739,8,400,,,
trial,html.Screen,4_103_0,2023-10-31T17:17:25.242Z,,0,3,,2921.660999976215,response,ISIC_5585279.JPG,8,ISIC_0029120.JPG,ISIC_5585279.JPG,false,1,keypress(m),500,659519.6999999285,659519.3999999762,656581.073,656587.6000000238,656597.739,659530.955,8,400,4,,ISIC_0029120.JPG
break,html.Screen,4_103_1,2023-10-31T17:17:25.243Z,,0,,,NaN,,,,,,false,,,,659520.2999999523,659520.1999999285,,659519.7999999523,,659530.955,8,400,,,
break_continue,html.Screen,4_103_2,2023-10-31T17:17:25.243Z,,0,,,NaN,,,,,,false,,,,659520.6000000238,659520.5,,659520.3999999762,,659530.955,8,400,,,
sequence,flow.Sequence,4_103,2023-10-31T17:17:25.243Z,,0,,,2922.761000000057,completion,,,,,false,,,,659520.6999999285,659520.5,656581.073,656587.5,656597.739,659530.955,8,400,,,
trial,html.Screen,4_104_0,2023-10-31T17:17:27.902Z,,0,3,,2648.1450000238838,response,ISIC_3582787.JPG,4,ISIC_0010174.JPG,ISIC_0010174.JPG,false,0,keypress(z),500,662179.3999999762,662179.1000000238,659514.289,659520.7999999523,659530.955,662197.515,8,400,5,,ISIC_3582787.JPG
break,html.Screen,4_104_1,2023-10-31T17:17:27.903Z,,0,,,NaN,,,,,,false,,,,662180.6999999285,662180.5,,662179.6000000238,,662197.515,8,400,,,
break_continue,html.Screen,4_104_2,2023-10-31T17:17:27.904Z,,0,,,NaN,,,,,,false,,,,662182,662181.8999999762,,662181.7999999523,,662197.515,8,400,,,
sequence,flow.Sequence,4_104,2023-10-31T17:17:27.905Z,,0,,,2650.9449999762,completion,,,,,false,,,,662182.1999999285,662181.8999999762,659514.289,659520.6999999285,659530.955,662197.515,8,400,,,
trial,html.Screen,4_105_0,2023-10-31T17:17:30.708Z,,0,3,,2788.085000023828,response,ISIC_1962844.JPG,5,ISIC_0055314.JPG,ISIC_0055314.JPG,false,0,keypress(z),500,664985.8999999762,664985.6000000238,662180.849,662182.1999999285,662197.515,664997.673,8,400,6,,ISIC_1962844.JPG
break,html.Screen,4_105_1,2023-10-31T17:17:30.709Z,,0,,,NaN,,,,,,false,,,,664986.6999999285,664986.5,,664986.1000000238,,664997.673,8,400,,,
break_continue,html.Screen,4_105_2,2023-10-31T17:17:30.709Z,,0,,,NaN,,,,,,false,,,,664987,664986.8999999762,,664986.7999999523,,664997.673,8,400,,,
sequence,flow.Sequence,4_105,2023-10-31T17:17:30.710Z,,0,,,2789.384999976144,completion,,,,,false,,,,664987.1000000238,664986.8999999762,662180.849,662182.1999999285,662197.515,664997.673,8,400,,,
trial,html.Screen,4_106_0,2023-10-31T17:17:33.404Z,,0,3,,2683.6269999523647,response,ISIC_1687004.JPG,5,ISIC_0000463.JPG,ISIC_0000463.JPG,false,0,keypress(z),500,667681.6000000238,667681.2999999523,664981.007,664987.1999999285,664997.673,667697.565,8,400,7,,ISIC_1687004.JPG
break,html.Screen,4_106_1,2023-10-31T17:17:33.405Z,,0,,,NaN,,,,,,false,,,,667682.3999999762,667682.1999999285,,667681.7999999523,,667697.565,8,400,,,
break_continue,html.Screen,4_106_2,2023-10-31T17:17:33.405Z,,0,,,NaN,,,,,,false,,,,667682.6000000238,667682.6000000238,,667682.3999999762,,667697.565,8,400,,,
sequence,flow.Sequence,4_106,2023-10-31T17:17:33.405Z,,0,,,2684.9270000238903,completion,,,,,false,,,,667682.6999999285,667682.6000000238,664981.007,664987.1000000238,664997.673,667697.565,8,400,,,
trial,html.Screen,4_107_0,2023-10-31T17:17:36.190Z,,0,3,,2770.0350000238977,response,ISIC_0027627.JPG,5,ISIC_8495875.JPG,ISIC_0027627.JPG,false,1,keypress(m),500,670467.7999999523,670467.6000000238,667680.899,667682.7999999523,667697.565,670480.787,8,400,8,,ISIC_8495875.JPG
break,html.Screen,4_107_1,2023-10-31T17:17:36.191Z,,0,,,NaN,,,,,,false,,,,670468.2999999523,670468.1999999285,,670467.8999999762,,670480.787,8,400,,,
break_continue,html.Screen,4_107_2,2023-10-31T17:17:36.191Z,,0,,,NaN,,,,,,false,,,,670468.5,670468.3999999762,,670468.3999999762,,670480.787,8,400,,,
sequence,flow.Sequence,4_107,2023-10-31T17:17:36.191Z,,0,,,2770.834999976214,completion,,,,,false,,,,670468.6999999285,670468.3999999762,667680.899,667682.7999999523,667697.565,670480.787,8,400,,,
trial,html.Screen,4_108_0,2023-10-31T17:17:38.996Z,,0,3,,2792.612999976147,response,ISIC_4443373.JPG,6,ISIC_6800044.JPG,ISIC_6800044.JPG,false,0,keypress(z),500,673273.6000000238,673273.3999999762,670464.121,670468.6999999285,670480.787,673280.675,8,400,9,,ISIC_4443373.JPG
break,html.Screen,4_108_1,2023-10-31T17:17:38.997Z,,0,,,NaN,,,,,,false,,,,673274.2999999523,673274,,673273.6999999285,,673280.675,8,400,,,
break_continue,html.Screen,4_108_2,2023-10-31T17:17:38.997Z,,0,,,NaN,,,,,,false,,,,673274.5,673274.3999999762,,673274.2999999523,,673280.675,8,400,,,
sequence,flow.Sequence,4_108,2023-10-31T17:17:38.997Z,,0,,,2793.612999976147,completion,,,,,false,,,,673274.6999999285,673274.3999999762,670464.121,670468.6999999285,670480.787,673280.675,8,400,,,
trial,html.Screen,4_109_0,2023-10-31T17:17:41.800Z,,0,3,,2796.9250000237953,response,ISIC_5791954.JPG,8,ISIC_9989617.JPG,ISIC_5791954.JPG,false,1,keypress(m),500,676077.6999999285,676077.6000000238,673264.009,673274.6999999285,673280.675,676080.842,8,400,10,,ISIC_9989617.JPG
break,html.Screen,4_109_1,2023-10-31T17:17:41.801Z,,0,,,NaN,,,,,,false,,,,676078.6999999285,676078.5,,676078,,676080.842,8,400,,,
break_continue,html.Screen,4_109_2,2023-10-31T17:17:41.801Z,,0,,,NaN,,,,,,false,,,,676078.8999999762,676078.7999999523,,676078.6999999285,,676080.842,8,400,,,
sequence,flow.Sequence,4_109,2023-10-31T17:17:41.801Z,,0,,,2798.1249999522697,completion,,,,,false,,,,676079,676078.7999999523,673264.009,673274.6999999285,673280.675,676080.842,8,400,,,
trial,html.Screen,4_110_0,2023-10-31T17:17:44.609Z,,0,3,,2805.4579999523703,response,ISIC_0010533.JPG,5,ISIC_0072173.JPG,ISIC_0072173.JPG,false,0,keypress(z),500,678886.5,678886.2999999523,676064.176,676079.1000000238,676080.842,678897.396,8,400,11,,ISIC_0010533.JPG
break,html.Screen,4_110_1,2023-10-31T17:17:44.610Z,,0,,,NaN,,,,,,false,,,,678887.2999999523,678887.1000000238,,678886.6000000238,,678897.396,8,400,,,
break_continue,html.Screen,4_110_2,2023-10-31T17:17:44.610Z,,0,,,NaN,,,,,,false,,,,678887.6000000238,678887.5,,678887.3999999762,,678897.396,8,400,,,
sequence,flow.Sequence,4_110,2023-10-31T17:17:44.610Z,,0,,,2806.658000000054,completion,,,,,false,,,,678887.6999999285,678887.5,676064.176,676079.1000000238,676080.842,678897.396,8,400,,,
trial,html.Screen,4_111_0,2023-10-31T17:17:47.287Z,,0,3,,2666.704000023892,response,ISIC_0029942.JPG,4,ISIC_0029349.JPG,ISIC_0029942.JPG,false,1,keypress(m),500,681564.3999999762,681564.1000000238,678880.73,678887.7999999523,678897.396,681580.622,8,400,12,,ISIC_0029349.JPG
break,html.Screen,4_111_1,2023-10-31T17:17:47.288Z,,0,,,NaN,,,,,,false,,,,681565.2999999523,681565.1000000238,,681564.5,,681580.622,8,400,,,
break_continue,html.Screen,4_111_2,2023-10-31T17:17:47.289Z,,0,,,NaN,,,,,,false,,,,681566.5,681566.2999999523,,681565.6000000238,,681580.622,8,400,,,
sequence,flow.Sequence,4_111,2023-10-31T17:17:47.289Z,,0,,,2668.9039999523666,completion,,,,,false,,,,681566.6000000238,681566.2999999523,678880.73,678887.7999999523,678897.396,681580.622,8,400,,,
trial,html.Screen,4_112_0,2023-10-31T17:17:50.030Z,,0,3,,2726.878000000026,response,ISIC_0046773.JPG,6,ISIC_7785723.JPG,ISIC_7785723.JPG,false,0,keypress(z),500,684307.6000000238,684307.5,681563.956,681566.8999999762,681580.622,684313.846,8,400,13,,ISIC_0046773.JPG
break,html.Screen,4_112_1,2023-10-31T17:17:50.030Z,,0,,,NaN,,,,,,false,,,,684308,684308,,684307.6999999285,,684313.846,8,400,,,
break_continue,html.Screen,4_112_2,2023-10-31T17:17:50.031Z,,0,,,NaN,,,,,,false,,,,684308.2999999523,684308.1000000238,,684308.1000000238,,684313.846,8,400,,,
sequence,flow.Sequence,4_112,2023-10-31T17:17:50.031Z,,0,,,2727.478000023868,completion,,,,,false,,,,684308.2999999523,684308.1000000238,681563.956,681566.7999999523,681580.622,684313.846,8,400,,,
trial,html.Screen,4_113_0,2023-10-31T17:17:52.819Z,,0,3,,2782.7540000238223,response,ISIC_0065823.JPG,5,ISIC_8109460.JPG,ISIC_0065823.JPG,false,1,keypress(m),500,687096.8999999762,687096.6000000238,684297.18,684308.3999999762,684313.846,687113.997,8,400,14,,ISIC_8109460.JPG
break,html.Screen,4_113_1,2023-10-31T17:17:52.821Z,,0,,,NaN,,,,,,false,,,,687098.1999999285,687098,,687097.3999999762,,687113.997,8,400,,,
break_continue,html.Screen,4_113_2,2023-10-31T17:17:52.821Z,,0,,,NaN,,,,,,false,,,,687098.5,687098.3999999762,,687098.2999999523,,687113.997,8,400,,,
sequence,flow.Sequence,4_113,2023-10-31T17:17:52.821Z,,0,,,2784.5539999761386,completion,,,,,false,,,,687098.6000000238,687098.3999999762,684297.18,684308.2999999523,684313.846,687113.997,8,400,,,
trial,html.Screen,4_114_0,2023-10-31T17:17:55.485Z,,0,3,,2648.003000000026,response,ISIC_5614446.JPG,6,ISIC_0011378.JPG,ISIC_5614446.JPG,false,1,keypress(m),500,689762.1999999285,689762,687097.331,687098.6000000238,687113.997,689763.891,8,400,15,,ISIC_0011378.JPG
break,html.Screen,4_114_1,2023-10-31T17:17:55.485Z,,0,,,NaN,,,,,,false,,,,689762.8999999762,689762.6999999285,,689762.2999999523,,689763.891,8,400,,,
break_continue,html.Screen,4_114_2,2023-10-31T17:17:55.486Z,,0,,,NaN,,,,,,false,,,,689763.3999999762,689763.1999999285,,689763.1000000238,,689763.891,8,400,,,
sequence,flow.Sequence,4_114,2023-10-31T17:17:55.486Z,,0,,,2649.2029999285005,completion,,,,,false,,,,689763.5,689763.1999999285,687097.331,687098.6000000238,687113.997,689763.891,8,400,,,
trial,html.Screen,4_115_0,2023-10-31T17:17:58.272Z,,0,3,,2785.109000000055,response,ISIC_8679617.JPG,7,ISIC_5569091.JPG,ISIC_8679617.JPG,false,1,keypress(m),500,692549.1000000238,692549,689747.225,689763.5,689763.891,692563.779,8,400,16,,ISIC_5569091.JPG
break,html.Screen,4_115_1,2023-10-31T17:17:58.272Z,,0,,,NaN,,,,,,false,,,,692549.8999999762,692549.7999999523,,692549.2999999523,,692563.779,8,400,,,
break_continue,html.Screen,4_115_2,2023-10-31T17:17:58.273Z,,0,,,NaN,,,,,,false,,,,692550.1999999285,692550.1000000238,,692550,,692563.779,8,400,,,
sequence,flow.Sequence,4_115,2023-10-31T17:17:58.273Z,,0,,,2786.209000023897,completion,,,,,false,,,,692550.2999999523,692550.1000000238,689747.225,689763.5,689763.891,692563.779,8,400,,,
trial,html.Screen,4_116_0,2023-10-31T17:18:00.902Z,,0,3,,2616.020999952336,response,ISIC_7050122.JPG,6,ISIC_6119208.JPG,ISIC_6119208.JPG,false,0,keypress(z),500,695180,695179.7999999523,692547.113,692550.2999999523,692563.779,695180.612,8,400,17,,ISIC_7050122.JPG
break,html.Screen,4_116_1,2023-10-31T17:18:00.903Z,,0,,,NaN,,,,,,false,,,,695180.6000000238,695180.3999999762,,695180.1000000238,,695180.612,8,400,,,
break_continue,html.Screen,4_116_2,2023-10-31T17:18:00.903Z,,0,,,NaN,,,,,,false,,,,695180.7999999523,695180.7999999523,,695180.6999999285,,695180.612,8,400,,,
sequence,flow.Sequence,4_116,2023-10-31T17:18:00.903Z,,0,,,2617.020999952336,completion,,,,,false,,,,695181,695180.7999999523,692547.113,692550.2999999523,692563.779,695180.612,8,400,,,
trial,html.Screen,4_117_0,2023-10-31T17:18:03.520Z,,0,3,,2616.58799992851,response,ISIC_6398669.JPG,8,ISIC_0010316.JPG,ISIC_6398669.JPG,false,1,keypress(m),500,697797.5,697797.1999999285,695163.946,695181.1000000238,695180.612,697813.84,8,400,18,,ISIC_0010316.JPG
break,html.Screen,4_117_1,2023-10-31T17:18:03.521Z,,0,,,NaN,,,,,,false,,,,697799,697798.7999999523,,697798.3999999762,,697813.84,8,400,,,
break_continue,html.Screen,4_117_2,2023-10-31T17:18:03.522Z,,0,,,NaN,,,,,,false,,,,697799.2999999523,697799.1999999285,,697799.1000000238,,697813.84,8,400,,,
sequence,flow.Sequence,4_117,2023-10-31T17:18:03.522Z,,0,,,2618.58799992851,completion,,,,,false,,,,697799.2999999523,697799.1999999285,695163.946,695181.1000000238,695180.612,697813.84,8,400,,,
trial,html.Screen,4_118_0,2023-10-31T17:18:06.229Z,,0,3,,2692.1600000000326,response,ISIC_0071966.JPG,6,ISIC_0001105.JPG,ISIC_0071966.JPG,false,1,keypress(m),500,700506.1999999285,700506,697797.174,697799.3999999762,697813.84,700513.732,8,400,19,,ISIC_0001105.JPG
break,html.Screen,4_118_1,2023-10-31T17:18:06.229Z,,0,,,NaN,,,,,,false,,,,700506.8999999762,700506.7999999523,,700506.3999999762,,700513.732,8,400,,,
break_continue,html.Screen,4_118_2,2023-10-31T17:18:06.230Z,,0,,,NaN,,,,,,false,,,,700507.2999999523,700507.1999999285,,700507.1000000238,,700513.732,8,400,,,
sequence,flow.Sequence,4_118,2023-10-31T17:18:06.230Z,,0,,,2693.359999928507,completion,,,,,false,,,,700507.3999999762,700507.1999999285,697797.174,697799.2999999523,697813.84,700513.732,8,400,,,
trial,html.Screen,4_119_0,2023-10-31T17:18:08.987Z,,0,3,,2750.5679999523563,response,ISIC_1247683.JPG,6,ISIC_3805025.JPG,ISIC_1247683.JPG,false,1,keypress(m),500,703264.6000000238,703264.2999999523,700497.066,700507.5,700513.732,703280.288,8,400,20,,ISIC_3805025.JPG
break,html.Screen,4_119_1,2023-10-31T17:18:08.988Z,,0,,,NaN,,,,,,false,,,,703265.5,703265.1000000238,,703264.7999999523,,703280.288,8,400,,,
break_continue,html.Screen,4_119_2,2023-10-31T17:18:08.988Z,,0,,,NaN,,,,,,false,,,,703265.7999999523,703265.6000000238,,703265.6000000238,,703280.288,8,400,,,
sequence,flow.Sequence,4_119,2023-10-31T17:18:08.988Z,,0,,,2751.868000023882,completion,,,,,false,,,,703265.8999999762,703265.6000000238,700497.066,700507.5,700513.732,703280.288,8,400,,,
trial,html.Screen,4_120_0,2023-10-31T17:18:12.097Z,,0,3,,3093.8120000238996,response,ISIC_4723378.JPG,6,ISIC_0046618.JPG,ISIC_4723378.JPG,false,1,keypress(m),500,706374.2999999523,706374.1000000238,703263.622,703266.1000000238,703280.288,706380.428,8,400,21,,ISIC_0046618.JPG
break,html.Screen,4_120_1,2023-10-31T17:18:12.098Z,,0,,,NaN,,,,,,false,,,,706375.1999999285,706374.8999999762,,706374.5,,706380.428,8,400,,,
break_continue,html.Screen,4_120_2,2023-10-31T17:18:12.098Z,,0,,,NaN,,,,,,false,,,,706375.3999999762,706375.3999999762,,706375.2999999523,,706380.428,8,400,,,
sequence,flow.Sequence,4_120,2023-10-31T17:18:12.098Z,,0,,,3095.111999976216,completion,,,,,false,,,,706375.5,706375.3999999762,703263.622,703266.1000000238,703280.288,706380.428,8,400,,,
trial,html.Screen,4_121_0,2023-10-31T17:18:15.414Z,,0,3,,3311.37199995236,response,ISIC_7994337.JPG,7,ISIC_0060481.JPG,ISIC_0060481.JPG,false,0,keypress(z),500,709692,709691.7999999523,706363.762,706375.6999999285,706380.428,709696.962,8,400,22,,ISIC_7994337.JPG
break,html.Screen,4_121_1,2023-10-31T17:18:15.415Z,,0,,,NaN,,,,,,false,,,,709692.7999999523,709692.6000000238,,709692.2999999523,,709696.962,8,400,,,
break_continue,html.Screen,4_121_2,2023-10-31T17:18:15.416Z,,0,,,NaN,,,,,,false,,,,709693.1000000238,709693.1000000238,,709692.8999999762,,709696.962,8,400,,,
sequence,flow.Sequence,4_121,2023-10-31T17:18:15.416Z,,0,,,3312.6720000238856,completion,,,,,false,,,,709693.2999999523,709693.1000000238,706363.762,706375.6000000238,706380.428,709696.962,8,400,,,
trial,html.Screen,4_122_0,2023-10-31T17:18:18.251Z,,0,3,,2831.4379999761004,response,ISIC_0002566.JPG,6,ISIC_0013898.JPG,ISIC_0013898.JPG,false,0,keypress(z),500,712528.6000000238,712528.3999999762,709680.296,709693.2999999523,709696.962,712530.182,8,400,23,,ISIC_0002566.JPG
break,html.Screen,4_122_1,2023-10-31T17:18:18.252Z,,0,,,NaN,,,,,,false,,,,712529.2999999523,712529.1000000238,,712528.6999999285,,712530.182,8,400,,,
break_continue,html.Screen,4_122_2,2023-10-31T17:18:18.252Z,,0,,,NaN,,,,,,false,,,,712529.6000000238,712529.5,,712529.3999999762,,712530.182,8,400,,,
sequence,flow.Sequence,4_122,2023-10-31T17:18:18.252Z,,0,,,2832.5379999999423,completion,,,,,false,,,,712529.6999999285,712529.5,709680.296,709693.2999999523,709696.962,712530.182,8,400,,,
trial,html.Screen,4_123_0,2023-10-31T17:18:21.137Z,,0,3,,2883.81799999997,response,ISIC_5714285.JPG,5,ISIC_0064026.JPG,ISIC_0064026.JPG,false,0,keypress(z),500,715414.2999999523,715414,712513.516,712529.7999999523,712530.182,715430.331,8,400,24,,ISIC_5714285.JPG
break,html.Screen,4_123_1,2023-10-31T17:18:21.137Z,,0,,,NaN,,,,,,false,,,,715415,715414.8999999762,,715414.3999999762,,715430.331,8,400,,,
break_continue,html.Screen,4_123_2,2023-10-31T17:18:21.138Z,,0,,,NaN,,,,,,false,,,,715415.2999999523,715415.1999999285,,715415.1999999285,,715430.331,8,400,,,
sequence,flow.Sequence,4_123,2023-10-31T17:18:21.138Z,,0,,,2885.0179999284446,completion,,,,,false,,,,715415.3999999762,715415.1999999285,712513.516,712529.7999999523,712530.182,715430.331,8,400,,,
trial,html.Screen,4_124_0,2023-10-31T17:18:24.068Z,,0,3,,2914.9689999523107,response,ISIC_5230371.JPG,7,ISIC_0770920.JPG,ISIC_0770920.JPG,false,0,keypress(z),500,718345.5,718345.2999999523,715413.665,715415.5,715430.331,718346.881,8,400,25,,ISIC_5230371.JPG
break,html.Screen,4_124_1,2023-10-31T17:18:24.069Z,,0,,,NaN,,,,,,false,,,,718346.1999999285,718346,,718345.6999999285,,718346.881,8,400,,,
break_continue,html.Screen,4_124_2,2023-10-31T17:18:24.069Z,,0,,,NaN,,,,,,false,,,,718346.5,718346.3999999762,,718346.2999999523,,718346.881,8,400,,,
sequence,flow.Sequence,4_124,2023-10-31T17:18:24.069Z,,0,,,2916.0689999761526,completion,,,,,false,,,,718346.6000000238,718346.3999999762,715413.665,715415.5,715430.331,718346.881,8,400,,,
trial,html.Screen,4_125_0,2023-10-31T17:18:27.226Z,,0,3,,3156.418999952264,response,ISIC_5931552.JPG,7,ISIC_0260316.JPG,ISIC_0260316.JPG,false,0,keypress(z),500,721503.6999999285,721503.2999999523,718330.215,718346.6999999285,718346.881,721513.421,8,400,26,,ISIC_5931552.JPG
break,html.Screen,4_125_1,2023-10-31T17:18:27.228Z,,0,,,NaN,,,,,,false,,,,721505.3999999762,721504.5,,721503.8999999762,,721513.421,8,400,,,
break_continue,html.Screen,4_125_2,2023-10-31T17:18:27.228Z,,0,,,NaN,,,,,,false,,,,721505.6999999285,721505.6000000238,,721505.5,,721513.421,8,400,,,
