sender,sender_type,sender_id,timestamp,meta,,blockNo,condition,duration,ended_on,img_left,img_reveal,img_right,loser,practice,response,response_action,selection_duration,time_commit,time_end,time_render,time_run,time_show,time_switch,total_blocks,total_trials,trialNo,url,winner
informed_consent,html.Screen,0,2023-10-31T00:57:39.715Z,"{""labjs_version"":""20.2.4"",""labjs_build"":{""flavor"":""production"",""commit"":""f5b4a49f956347addd546a832a3327688c2c0fef""},""location"":""https://run.pavlovia.org/MurrayBennett/melanoma-2afc/?participant=66240&platform=sona"",""userAgent"":""Mozilla/5.0 (Macintosh; Intel Mac OS X 10_15_7) AppleWebKit/605.1.15 (KHTML, like Gecko) Version/16.4 Safari/605.1.15"",""platform"":""MacIntel"",""language"":""en-US"",""locale"":""en-US"",""timeZone"":""America/Chicago"",""timezoneOffset"":300,""screen_width"":1440,""screen_height"":900,""scroll_width"":1440,""scroll_height"":772,""window_innerWidth"":1440,""window_innerHeight"":820,""devicePixelRatio"":2}",,,,4461,response,,,,,,consent,click button,,6992,6980,2519,2515,2534,7039,,,,"{""participant"":""66240"",""platform"":""sona""}",
Welcome,html.Screen,1,2023-10-31T00:57:42.638Z,,,,symmetry,2898,response,,,,,,continue,click button,,9914,9903,7005,6992,7039,9956,,,,,
trial,html.Screen,2_0_0,2023-10-31T00:57:54.163Z,,0,0,,11550,timeout,ISIC_0069348.JPG,,ISIC_6997061.JPG,,true,,,500,21439,21439,9922,9915.000000000002,9956,21506,1,6,1,,
sequence,flow.Sequence,2_0,2023-10-31T00:57:54.163Z,,0,,,11483,completion,,,,,true,,,,21440,21439,9922,9915.000000000002,9956,21506,1,6,,,
trial,html.Screen,2_1_0,2023-10-31T00:58:04.164Z,,0,0,,9968,response,ISIC_0009529.JPG,,ISIC_0057368.JPG,ISIC_0057368.JPG,true,0,keypress(z),500,31441,31440,21472,21440,21506,31489,1,6,2,,ISIC_0009529.JPG
sequence,flow.Sequence,2_1,2023-10-31T00:58:04.164Z,,0,,,9934,completion,,,,,true,,,,31441,31440,21472,21440,21506,31489,1,6,,,
trial,html.Screen,2_2_0,2023-10-31T00:58:08.626Z,,0,0,,4447,response,ISIC_0064954.JPG,,ISIC_9758671.JPG,ISIC_0064954.JPG,true,1,keypress(m),500,35903,35903,31456,31441,31489,35956,1,6,3,,ISIC_9758671.JPG
sequence,flow.Sequence,2_2,2023-10-31T00:58:08.627Z,,0,,,4414,completion,,,,,true,,,,35904,35903,31456,31441,31489,35956,1,6,,,
trial,html.Screen,2_3_0,2023-10-31T00:58:11.386Z,,0,0,,2740.0000000000073,response,ISIC_0000080.JPG,,ISIC_0005785.JPG,ISIC_0005785.JPG,true,0,keypress(z),500,38663.00000000001,38663.00000000001,35923,35904,35956,38706,1,6,4,,ISIC_0000080.JPG
sequence,flow.Sequence,2_3,2023-10-31T00:58:11.387Z,,0,,,2707.0000000000073,completion,,,,,true,,,,38664,38663.00000000001,35923,35904,35956,38706,1,6,,,
trial,html.Screen,2_4_0,2023-10-31T00:58:13.982Z,,0,0,,2586,response,ISIC_5390060.JPG,,ISIC_7944028.JPG,ISIC_5390060.JPG,true,1,keypress(m),500,41259,41258,38672,38664,38706,41306,1,6,5,,ISIC_7944028.JPG
sequence,flow.Sequence,2_4,2023-10-31T00:58:13.982Z,,0,,,2552,completion,,,,,true,,,,41259,41258,38672,38664,38706,41306,1,6,,,
trial,html.Screen,2_5_0,2023-10-31T00:58:16.587Z,,0,0,,2591,response,ISIC_0794216.JPG,,ISIC_0010188.JPG,ISIC_0010188.JPG,true,0,keypress(z),500,43864.00000000001,43863,41272,41259,41306,43906,1,6,6,,ISIC_0794216.JPG
sequence,flow.Sequence,2_5,2023-10-31T00:58:16.588Z,,0,,,2557,completion,,,,,true,,,,43865,43863,41272,41259,41306,43906,1,6,,,
loop,flow.Loop,2,2023-10-31T00:58:16.588Z,,,,,33907,completion,,,,,true,,,,43865,43863,9922,9915.000000000002,9956,43906,1,6,,,
exp_instructions,html.Screen,3,2023-10-31T00:58:22.375Z,,,,,5766,response,,,,,,continue,keypress(Space),,49652,49638,43872,43865,43906,49689,,,,,
trial,html.Screen,4_0_0,2023-10-31T00:58:25.659Z,,0,1,,3278,response,ISIC_0579047.JPG,2,ISIC_7448231.JPG,ISIC_7448231.JPG,false,0,keypress(z),500,52936,52935,49657,49653,49689,52989,8,400,1,,ISIC_0579047.JPG
break,html.Screen,4_0_1,2023-10-31T00:58:25.661Z,,0,,,NaN,,,,,,false,,,,52938,52937,,52936,,52989,8,400,,,
break_continue,html.Screen,4_0_2,2023-10-31T00:58:25.662Z,,0,,,NaN,,,,,,false,,,,52938,52938,,52938,,52989,8,400,,,
sequence,flow.Sequence,4_0,2023-10-31T00:58:25.662Z,,0,,,3249,completion,,,,,false,,,,52939,52938,49657,49653,49689,52989,8,400,,,
trial,html.Screen,4_1_0,2023-10-31T00:58:28.443Z,,0,1,,2763,response,ISIC_3993510.JPG,8,ISIC_0061320.JPG,ISIC_0061320.JPG,false,0,keypress(z),500,55720,55719,52956,52939,52989,55773,8,400,2,,ISIC_3993510.JPG
break,html.Screen,4_1_1,2023-10-31T00:58:28.445Z,,0,,,NaN,,,,,,false,,,,55722,55721,,55721,,55773,8,400,,,
break_continue,html.Screen,4_1_2,2023-10-31T00:58:28.446Z,,0,,,NaN,,,,,,false,,,,55723,55722,,55722,,55773,8,400,,,
sequence,flow.Sequence,4_1,2023-10-31T00:58:28.446Z,,0,,,2733,completion,,,,,false,,,,55723,55722,52956,52939,52989,55773,8,400,,,
trial,html.Screen,4_2_0,2023-10-31T00:58:31.212Z,,0,1,,2750.0000000000073,response,ISIC_0063447.JPG,8,ISIC_6737771.JPG,ISIC_0063447.JPG,false,1,keypress(m),500,58489.00000000001,58489.00000000001,55739,55723,55773,58539,8,400,3,,ISIC_6737771.JPG
break,html.Screen,4_2_1,2023-10-31T00:58:31.214Z,,0,,,NaN,,,,,,false,,,,58490,58490,,58490,,58539,8,400,,,
break_continue,html.Screen,4_2_2,2023-10-31T00:58:31.214Z,,0,,,NaN,,,,,,false,,,,58491,58491,,58491,,58539,8,400,,,
sequence,flow.Sequence,4_2,2023-10-31T00:58:31.214Z,,0,,,2718,completion,,,,,false,,,,58491,58491,55739,55723,55773,58539,8,400,,,
trial,html.Screen,4_3_0,2023-10-31T00:58:34.234Z,,0,1,,3004,response,ISIC_3384884.JPG,9,ISIC_2151727.JPG,ISIC_3384884.JPG,false,1,keypress(m),500,61510,61510,58506,58491,58539,61556,8,400,4,,ISIC_2151727.JPG
break,html.Screen,4_3_1,2023-10-31T00:58:34.235Z,,0,,,NaN,,,,,,false,,,,61512,61511,,61511,,61556,8,400,,,
break_continue,html.Screen,4_3_2,2023-10-31T00:58:34.235Z,,0,,,NaN,,,,,,false,,,,61512,61512,,61512,,61556,8,400,,,
sequence,flow.Sequence,4_3,2023-10-31T00:58:34.236Z,,0,,,2973,completion,,,,,false,,,,61512,61512,58506,58491,58539,61556,8,400,,,
trial,html.Screen,4_4_0,2023-10-31T00:58:37.454Z,,0,1,,3208.0000000000073,response,ISIC_6732560.JPG,8,ISIC_6340792.JPG,ISIC_6732560.JPG,false,1,keypress(m),500,64730.00000000001,64730.00000000001,61522,61513,61556,64772,8,400,5,,ISIC_6340792.JPG
break,html.Screen,4_4_1,2023-10-31T00:58:37.455Z,,0,,,NaN,,,,,,false,,,,64732,64730.99999999999,,64730.99999999999,,64772,8,400,,,
break_continue,html.Screen,4_4_2,2023-10-31T00:58:37.456Z,,0,,,NaN,,,,,,false,,,,64732,64732,,64732,,64772,8,400,,,
sequence,flow.Sequence,4_4,2023-10-31T00:58:37.456Z,,0,,,3176,completion,,,,,false,,,,64733.00000000001,64732,61522,61512,61556,64772,8,400,,,
trial,html.Screen,4_5_0,2023-10-31T00:58:40.420Z,,0,1,,2957,response,ISIC_0056201.JPG,2,ISIC_7349772.JPG,ISIC_0056201.JPG,false,1,keypress(m),500,67697,67696,64739,64733.00000000001,64772,67739,8,400,6,,ISIC_7349772.JPG
break,html.Screen,4_5_1,2023-10-31T00:58:40.421Z,,0,,,NaN,,,,,,false,,,,67698.00000000001,67698.00000000001,,67697,,67739,8,400,,,
break_continue,html.Screen,4_5_2,2023-10-31T00:58:40.422Z,,0,,,NaN,,,,,,false,,,,67698.00000000001,67698.00000000001,,67698.00000000001,,67739,8,400,,,
sequence,flow.Sequence,4_5,2023-10-31T00:58:40.422Z,,0,,,2926.0000000000146,completion,,,,,false,,,,67699,67698.00000000001,64739,64733.00000000001,64772,67739,8,400,,,
trial,html.Screen,4_6_0,2023-10-31T00:58:43.795Z,,0,1,,3365,response,ISIC_9485536.JPG,6,ISIC_0027936.JPG,ISIC_0027936.JPG,false,0,keypress(z),500,71072,71071,67706,67699,67739,71122,8,400,7,,ISIC_9485536.JPG
break,html.Screen,4_6_1,2023-10-31T00:58:43.796Z,,0,,,NaN,,,,,,false,,,,71073.00000000001,71073.00000000001,,71072,,71122,8,400,,,
break_continue,html.Screen,4_6_2,2023-10-31T00:58:43.797Z,,0,,,NaN,,,,,,false,,,,71074,71073.00000000001,,71073.00000000001,,71122,8,400,,,
sequence,flow.Sequence,4_6,2023-10-31T00:58:43.797Z,,0,,,3334.0000000000146,completion,,,,,false,,,,71074,71073.00000000001,67706,67699,67739,71122,8,400,,,
trial,html.Screen,4_7_0,2023-10-31T00:58:46.516Z,,0,1,,2703,response,ISIC_2304753.JPG,1,ISIC_0026352.JPG,ISIC_0026352.JPG,false,0,keypress(z),500,73793,73792,71089,71074,71122,73839,8,400,8,,ISIC_2304753.JPG
break,html.Screen,4_7_1,2023-10-31T00:58:46.518Z,,0,,,NaN,,,,,,false,,,,73795,73794,,73794,,73839,8,400,,,
break_continue,html.Screen,4_7_2,2023-10-31T00:58:46.519Z,,0,,,NaN,,,,,,false,,,,73795,73795,,73795,,73839,8,400,,,
sequence,flow.Sequence,4_7,2023-10-31T00:58:46.519Z,,0,,,2673,completion,,,,,false,,,,73796,73795,71089,71074,71122,73839,8,400,,,
trial,html.Screen,4_8_0,2023-10-31T00:58:49.474Z,,0,1,,2944,response,ISIC_1081051.JPG,2,ISIC_0011534.JPG,ISIC_0011534.JPG,false,0,keypress(z),500,76751,76750,73806,73796,73839,76789,8,400,9,,ISIC_1081051.JPG
break,html.Screen,4_8_1,2023-10-31T00:58:49.475Z,,0,,,NaN,,,,,,false,,,,76752,76752,,76751,,76789,8,400,,,
break_continue,html.Screen,4_8_2,2023-10-31T00:58:49.476Z,,0,,,NaN,,,,,,false,,,,76753,76752,,76752,,76789,8,400,,,
sequence,flow.Sequence,4_8,2023-10-31T00:58:49.476Z,,0,,,2913,completion,,,,,false,,,,76753,76752,73806,73796,73839,76789,8,400,,,
trial,html.Screen,4_9_0,2023-10-31T00:58:52.347Z,,0,1,,2868,response,ISIC_9209245.JPG,9,ISIC_0001121.JPG,ISIC_0001121.JPG,false,0,keypress(z),500,79623,79623,76755,76753,76789,79672,8,400,10,,ISIC_9209245.JPG
break,html.Screen,4_9_1,2023-10-31T00:58:52.348Z,,0,,,NaN,,,,,,false,,,,79624,79624,,79624,,79672,8,400,,,
break_continue,html.Screen,4_9_2,2023-10-31T00:58:52.348Z,,0,,,NaN,,,,,,false,,,,79625,79625,,79624,,79672,8,400,,,
sequence,flow.Sequence,4_9,2023-10-31T00:58:52.348Z,,0,,,2836,completion,,,,,false,,,,79625,79625,76755,76753,76789,79672,8,400,,,
trial,html.Screen,4_10_0,2023-10-31T00:58:55.223Z,,0,1,,2860,response,ISIC_4648593.JPG,6,ISIC_5546488.JPG,ISIC_4648593.JPG,false,1,keypress(m),500,82500,82499,79639,79625,79672,82539,8,400,11,,ISIC_5546488.JPG
break,html.Screen,4_10_1,2023-10-31T00:58:55.224Z,,0,,,NaN,,,,,,false,,,,82501,82501,,82500,,82539,8,400,,,
break_continue,html.Screen,4_10_2,2023-10-31T00:58:55.225Z,,0,,,NaN,,,,,,false,,,,82501,82501,,82501,,82539,8,400,,,
sequence,flow.Sequence,4_10,2023-10-31T00:58:55.225Z,,0,,,2829,completion,,,,,false,,,,82501,82501,79639,79625,79672,82539,8,400,,,
trial,html.Screen,4_11_0,2023-10-31T00:58:58.005Z,,0,1,,2776,response,ISIC_0789732.JPG,5,ISIC_0029026.JPG,ISIC_0029026.JPG,false,0,keypress(z),500,85282,85281,82505,82502,82539,85322,8,400,12,,ISIC_0789732.JPG
break,html.Screen,4_11_1,2023-10-31T00:58:58.007Z,,0,,,NaN,,,,,,false,,,,85283,85283,,85282,,85322,8,400,,,
break_continue,html.Screen,4_11_2,2023-10-31T00:58:58.007Z,,0,,,NaN,,,,,,false,,,,85283,85283,,85283,,85322,8,400,,,
sequence,flow.Sequence,4_11,2023-10-31T00:58:58.007Z,,0,,,2744,completion,,,,,false,,,,85284,85283,82505,82502,82539,85322,8,400,,,
trial,html.Screen,4_12_0,2023-10-31T00:59:00.662Z,,0,1,,2649,response,ISIC_0025955.JPG,4,ISIC_0013775.JPG,ISIC_0013775.JPG,false,0,keypress(z),500,87938,87938,85289,85284,85322,87989,8,400,13,,ISIC_0025955.JPG
break,html.Screen,4_12_1,2023-10-31T00:59:00.663Z,,0,,,NaN,,,,,,false,,,,87939,87939,,87939,,87989,8,400,,,
break_continue,html.Screen,4_12_2,2023-10-31T00:59:00.663Z,,0,,,NaN,,,,,,false,,,,87940,87940,,87940,,87989,8,400,,,
sequence,flow.Sequence,4_12,2023-10-31T00:59:00.663Z,,0,,,2618,completion,,,,,false,,,,87940,87940,85289,85284,85322,87989,8,400,,,
trial,html.Screen,4_13_0,2023-10-31T00:59:03.471Z,,0,1,,2792,response,ISIC_0025235.JPG,3,ISIC_0058149.JPG,ISIC_0058149.JPG,false,0,keypress(z),500,90748,90747,87955,87940,87989,90789,8,400,14,,ISIC_0025235.JPG
break,html.Screen,4_13_1,2023-10-31T00:59:03.473Z,,0,,,NaN,,,,,,false,,,,90750,90749,,90748,,90789,8,400,,,
break_continue,html.Screen,4_13_2,2023-10-31T00:59:03.473Z,,0,,,NaN,,,,,,false,,,,90750,90750,,90750,,90789,8,400,,,
sequence,flow.Sequence,4_13,2023-10-31T00:59:03.474Z,,0,,,2761,completion,,,,,false,,,,90750,90750,87955,87940,87989,90789,8,400,,,
trial,html.Screen,4_14_0,2023-10-31T00:59:06.512Z,,0,1,,3033,response,ISIC_8863344.JPG,7,ISIC_3203344.JPG,ISIC_8863344.JPG,false,1,keypress(m),500,93789,93788,90755,90750,90789,93839,8,400,15,,ISIC_3203344.JPG
break,html.Screen,4_14_1,2023-10-31T00:59:06.514Z,,0,,,NaN,,,,,,false,,,,93791,93790,,93790,,93839,8,400,,,
break_continue,html.Screen,4_14_2,2023-10-31T00:59:06.515Z,,0,,,NaN,,,,,,false,,,,93791,93791,,93791,,93839,8,400,,,
sequence,flow.Sequence,4_14,2023-10-31T00:59:06.515Z,,0,,,3002,completion,,,,,false,,,,93792,93791,90755,90750,90789,93839,8,400,,,
trial,html.Screen,4_15_0,2023-10-31T00:59:09.710Z,,0,1,,3180,response,ISIC_0010684.JPG,2,ISIC_3460125.JPG,ISIC_3460125.JPG,false,0,keypress(z),500,96987.00000000001,96986,93806,93792,93839,97039,8,400,16,,ISIC_0010684.JPG
break,html.Screen,4_15_1,2023-10-31T00:59:09.712Z,,0,,,NaN,,,,,,false,,,,96988,96988,,96987.00000000001,,97039,8,400,,,
break_continue,html.Screen,4_15_2,2023-10-31T00:59:09.712Z,,0,,,NaN,,,,,,false,,,,96989,96988,,96988,,97039,8,400,,,
sequence,flow.Sequence,4_15,2023-10-31T00:59:09.712Z,,0,,,3149,completion,,,,,false,,,,96989,96988,93806,93792,93839,97039,8,400,,,
trial,html.Screen,4_16_0,2023-10-31T00:59:13.649Z,,0,1,,3919,response,ISIC_2997601.JPG,12,ISIC_0953317.JPG,ISIC_0953317.JPG,false,0,keypress(z),500,100925,100925,97006,96989,97039,100973,8,400,17,,ISIC_2997601.JPG
break,html.Screen,4_16_1,2023-10-31T00:59:13.650Z,,0,,,NaN,,,,,,false,,,,100927,100926,,100925,,100973,8,400,,,
break_continue,html.Screen,4_16_2,2023-10-31T00:59:13.651Z,,0,,,NaN,,,,,,false,,,,100927,100927,,100927,,100973,8,400,,,
sequence,flow.Sequence,4_16,2023-10-31T00:59:13.651Z,,0,,,3888,completion,,,,,false,,,,100928,100927,97006,96989,97039,100973,8,400,,,
trial,html.Screen,4_17_0,2023-10-31T00:59:16.494Z,,0,1,,2831,response,ISIC_0059390.JPG,4,ISIC_7080584.JPG,ISIC_7080584.JPG,false,0,keypress(z),500,103771,103770,100939,100928,100973,103823,8,400,18,,ISIC_0059390.JPG
break,html.Screen,4_17_1,2023-10-31T00:59:16.495Z,,0,,,NaN,,,,,,false,,,,103772,103772,,103771,,103823,8,400,,,
break_continue,html.Screen,4_17_2,2023-10-31T00:59:16.496Z,,0,,,NaN,,,,,,false,,,,103772,103772,,103772,,103823,8,400,,,
sequence,flow.Sequence,4_17,2023-10-31T00:59:16.496Z,,0,,,2799,completion,,,,,false,,,,103773,103772,100939,100928,100973,103823,8,400,,,
trial,html.Screen,4_18_0,2023-10-31T00:59:19.526Z,,0,1,,3013,response,ISIC_0055054.JPG,9,ISIC_0063046.JPG,ISIC_0063046.JPG,false,0,keypress(z),500,106802,106802,103789,103773,103823,106856,8,400,19,,ISIC_0055054.JPG
break,html.Screen,4_18_1,2023-10-31T00:59:19.527Z,,0,,,NaN,,,,,,false,,,,106804,106803,,106803,,106856,8,400,,,
break_continue,html.Screen,4_18_2,2023-10-31T00:59:19.528Z,,0,,,NaN,,,,,,false,,,,106804,106804,,106804,,106856,8,400,,,
sequence,flow.Sequence,4_18,2023-10-31T00:59:19.528Z,,0,,,2981,completion,,,,,false,,,,106804,106804,103789,103773,103823,106856,8,400,,,
trial,html.Screen,4_19_0,2023-10-31T00:59:22.645Z,,0,1,,3098,response,ISIC_8569205.JPG,2,ISIC_0071133.JPG,ISIC_0071133.JPG,false,0,keypress(z),500,109922,109921,106823,106805,106856,109973,8,400,20,,ISIC_8569205.JPG
break,html.Screen,4_19_1,2023-10-31T00:59:22.647Z,,0,,,NaN,,,,,,false,,,,109923,109923,,109922,,109973,8,400,,,
break_continue,html.Screen,4_19_2,2023-10-31T00:59:22.647Z,,0,,,NaN,,,,,,false,,,,109924,109924,,109924,,109973,8,400,,,
sequence,flow.Sequence,4_19,2023-10-31T00:59:22.647Z,,0,,,3068,completion,,,,,false,,,,109924,109924,106823,106805,106856,109973,8,400,,,
trial,html.Screen,4_20_0,2023-10-31T00:59:25.331Z,,0,1,,2668,response,ISIC_6811363.JPG,9,ISIC_7047780.JPG,ISIC_7047780.JPG,false,0,keypress(z),500,112608,112607,109939,109924,109973,112656,8,400,21,,ISIC_6811363.JPG
break,html.Screen,4_20_1,2023-10-31T00:59:25.332Z,,0,,,NaN,,,,,,false,,,,112609.00000000001,112608,,112608,,112656,8,400,,,
break_continue,html.Screen,4_20_2,2023-10-31T00:59:25.332Z,,0,,,NaN,,,,,,false,,,,112609.00000000001,112609.00000000001,,112609.00000000001,,112656,8,400,,,
sequence,flow.Sequence,4_20,2023-10-31T00:59:25.333Z,,0,,,2636.0000000000146,completion,,,,,false,,,,112609.00000000001,112609.00000000001,109939,109924,109973,112656,8,400,,,
trial,html.Screen,4_21_0,2023-10-31T00:59:28.353Z,,0,1,,3005,response,ISIC_0072286.JPG,2,ISIC_0015208.JPG,ISIC_0072286.JPG,false,1,keypress(m),500,115629,115628,112623,112609.00000000001,112656,115673,8,400,22,,ISIC_0015208.JPG
break,html.Screen,4_21_1,2023-10-31T00:59:28.354Z,,0,,,NaN,,,,,,false,,,,115631,115630,,115630,,115673,8,400,,,
break_continue,html.Screen,4_21_2,2023-10-31T00:59:28.354Z,,0,,,NaN,,,,,,false,,,,115631,115631,,115631,,115673,8,400,,,
sequence,flow.Sequence,4_21,2023-10-31T00:59:28.355Z,,0,,,2975,completion,,,,,false,,,,115631,115631,112623,112609.00000000001,112656,115673,8,400,,,
trial,html.Screen,4_22_0,2023-10-31T00:59:31.254Z,,0,1,,2891,response,ISIC_0025316.JPG,2,ISIC_0032583.JPG,ISIC_0032583.JPG,false,0,keypress(z),500,118530,118530,115639,115631,115673,118573,8,400,23,,ISIC_0025316.JPG
break,html.Screen,4_22_1,2023-10-31T00:59:31.255Z,,0,,,NaN,,,,,,false,,,,118532,118531,,118531,,118573,8,400,,,
break_continue,html.Screen,4_22_2,2023-10-31T00:59:31.255Z,,0,,,NaN,,,,,,false,,,,118532,118532,,118532,,118573,8,400,,,
sequence,flow.Sequence,4_22,2023-10-31T00:59:31.256Z,,0,,,2859,completion,,,,,false,,,,118532,118532,115639,115631,115673,118573,8,400,,,
trial,html.Screen,4_23_0,2023-10-31T00:59:34.768Z,,0,1,,3505,response,ISIC_5166636.JPG,6,ISIC_1177505.JPG,ISIC_1177505.JPG,false,0,keypress(z),500,122044,122044,118539,118532,118573,122089,8,400,24,,ISIC_5166636.JPG
break,html.Screen,4_23_1,2023-10-31T00:59:34.769Z,,0,,,NaN,,,,,,false,,,,122045,122045,,122045,,122089,8,400,,,
break_continue,html.Screen,4_23_2,2023-10-31T00:59:34.769Z,,0,,,NaN,,,,,,false,,,,122046,122046,,122046,,122089,8,400,,,
sequence,flow.Sequence,4_23,2023-10-31T00:59:34.769Z,,0,,,3473,completion,,,,,false,,,,122046,122046,118539,118532,118573,122089,8,400,,,
trial,html.Screen,4_24_0,2023-10-31T00:59:37.340Z,,0,1,,2560,response,ISIC_0069481.JPG,5,ISIC_8759207.JPG,ISIC_0069481.JPG,false,1,keypress(m),500,124617,124616,122056,122046,122089,124656,8,400,25,,ISIC_8759207.JPG
break,html.Screen,4_24_1,2023-10-31T00:59:37.342Z,,0,,,NaN,,,,,,false,,,,124618.00000000001,124618.00000000001,,124617,,124656,8,400,,,
break_continue,html.Screen,4_24_2,2023-10-31T00:59:37.342Z,,0,,,NaN,,,,,,false,,,,124618.00000000001,124618.00000000001,,124618.00000000001,,124656,8,400,,,
sequence,flow.Sequence,4_24,2023-10-31T00:59:37.342Z,,0,,,2529.0000000000146,completion,,,,,false,,,,124619,124618.00000000001,122056,122046,122089,124656,8,400,,,
trial,html.Screen,4_25_0,2023-10-31T00:59:40.562Z,,0,1,,3217,response,ISIC_9322551.JPG,4,ISIC_2259861.JPG,ISIC_2259861.JPG,false,0,keypress(z),500,127839,127839,124622,124619,124656,127889,8,400,26,,ISIC_9322551.JPG
break,html.Screen,4_25_1,2023-10-31T00:59:40.564Z,,0,,,NaN,,,,,,false,,,,127840,127840,,127839,,127889,8,400,,,
break_continue,html.Screen,4_25_2,2023-10-31T00:59:40.564Z,,0,,,NaN,,,,,,false,,,,127840,127840,,127840,,127889,8,400,,,
sequence,flow.Sequence,4_25,2023-10-31T00:59:40.564Z,,0,,,3184,completion,,,,,false,,,,127841.00000000001,127840,124622,124619,124656,127889,8,400,,,
trial,html.Screen,4_26_0,2023-10-31T00:59:43.267Z,,0,1,,2687,response,ISIC_0053816.JPG,9,ISIC_0072136.JPG,ISIC_0053816.JPG,false,1,keypress(m),500,130543,130543,127856,127841.00000000001,127889,130589,8,400,27,,ISIC_0072136.JPG
break,html.Screen,4_26_1,2023-10-31T00:59:43.268Z,,0,,,NaN,,,,,,false,,,,130545.00000000001,130544.00000000001,,130544.00000000001,,130589,8,400,,,
break_continue,html.Screen,4_26_2,2023-10-31T00:59:43.269Z,,0,,,NaN,,,,,,false,,,,130545.00000000001,130545.00000000001,,130545.00000000001,,130589,8,400,,,
sequence,flow.Sequence,4_26,2023-10-31T00:59:43.269Z,,0,,,2656.0000000000146,completion,,,,,false,,,,130545.00000000001,130545.00000000001,127856,127841.00000000001,127889,130589,8,400,,,
trial,html.Screen,4_27_0,2023-10-31T00:59:45.916Z,,0,1,,2636,response,ISIC_0034316.JPG,6,ISIC_1445277.JPG,ISIC_0034316.JPG,false,1,keypress(m),500,133193,133192,130556,130545.00000000001,130589,133239,8,400,28,,ISIC_1445277.JPG
break,html.Screen,4_27_1,2023-10-31T00:59:45.917Z,,0,,,NaN,,,,,,false,,,,133194.00000000003,133194.00000000003,,133193,,133239,8,400,,,
break_continue,html.Screen,4_27_2,2023-10-31T00:59:45.918Z,,0,,,NaN,,,,,,false,,,,133194.00000000003,133194.00000000003,,133194.00000000003,,133239,8,400,,,
sequence,flow.Sequence,4_27,2023-10-31T00:59:45.918Z,,0,,,2605.000000000029,completion,,,,,false,,,,133194.00000000003,133194.00000000003,130556,130545.00000000001,130589,133239,8,400,,,
trial,html.Screen,4_28_0,2023-10-31T00:59:48.717Z,,0,1,,2787,response,ISIC_4899386.JPG,9,ISIC_9696502.JPG,ISIC_9696502.JPG,false,0,keypress(z),500,135994,135993,133206,133195,133239,136039,8,400,29,,ISIC_4899386.JPG
break,html.Screen,4_28_1,2023-10-31T00:59:48.718Z,,0,,,NaN,,,,,,false,,,,135995,135995,,135994,,136039,8,400,,,
break_continue,html.Screen,4_28_2,2023-10-31T00:59:48.719Z,,0,,,NaN,,,,,,false,,,,135995,135995,,135995,,136039,8,400,,,
sequence,flow.Sequence,4_28,2023-10-31T00:59:48.719Z,,0,,,2756,completion,,,,,false,,,,135996,135995,133206,133194.00000000003,133239,136039,8,400,,,
trial,html.Screen,4_29_0,2023-10-31T00:59:51.314Z,,0,1,,2583,response,ISIC_0034246.JPG,5,ISIC_4156010.JPG,ISIC_0034246.JPG,false,1,keypress(m),500,138590,138589,136006,135996,136039,138639,8,400,30,,ISIC_4156010.JPG
break,html.Screen,4_29_1,2023-10-31T00:59:51.315Z,,0,,,NaN,,,,,,false,,,,138591,138591,,138590,,138639,8,400,,,
break_continue,html.Screen,4_29_2,2023-10-31T00:59:51.315Z,,0,,,NaN,,,,,,false,,,,138592,138592,,138591,,138639,8,400,,,
sequence,flow.Sequence,4_29,2023-10-31T00:59:51.315Z,,0,,,2553,completion,,,,,false,,,,138592,138592,136006,135996,136039,138639,8,400,,,
trial,html.Screen,4_30_0,2023-10-31T00:59:54.044Z,,0,1,,2714,response,ISIC_3159924.JPG,1,ISIC_0066012.JPG,ISIC_0066012.JPG,false,0,keypress(z),500,141321,141320,138606,138592,138639,141373,8,400,31,,ISIC_3159924.JPG
break,html.Screen,4_30_1,2023-10-31T00:59:54.045Z,,0,,,NaN,,,,,,false,,,,141322,141321,,141321,,141373,8,400,,,
break_continue,html.Screen,4_30_2,2023-10-31T00:59:54.046Z,,0,,,NaN,,,,,,false,,,,141322,141322,,141322,,141373,8,400,,,
sequence,flow.Sequence,4_30,2023-10-31T00:59:54.046Z,,0,,,2683,completion,,,,,false,,,,141322,141322,138606,138592,138639,141373,8,400,,,
trial,html.Screen,4_31_0,2023-10-31T00:59:56.759Z,,0,1,,2696,response,ISIC_1122023.JPG,8,ISIC_3234908.JPG,ISIC_1122023.JPG,false,1,keypress(m),500,144036,144035,141339,141322,141373,144089,8,400,32,,ISIC_3234908.JPG
break,html.Screen,4_31_1,2023-10-31T00:59:56.760Z,,0,,,NaN,,,,,,false,,,,144037,144036,,144036,,144089,8,400,,,
break_continue,html.Screen,4_31_2,2023-10-31T00:59:56.761Z,,0,,,NaN,,,,,,false,,,,144037,144037,,144037,,144089,8,400,,,
sequence,flow.Sequence,4_31,2023-10-31T00:59:56.761Z,,0,,,2664,completion,,,,,false,,,,144037,144037,141339,141322,141373,144089,8,400,,,
trial,html.Screen,4_32_0,2023-10-31T00:59:59.838Z,,0,1,,3058,response,ISIC_3820669.JPG,5,ISIC_0032171.JPG,ISIC_3820669.JPG,false,1,keypress(m),500,147114,147114,144056,144037,144089,147156,8,400,33,,ISIC_0032171.JPG
break,html.Screen,4_32_1,2023-10-31T00:59:59.839Z,,0,,,NaN,,,,,,false,,,,147116,147115,,147115,,147156,8,400,,,
break_continue,html.Screen,4_32_2,2023-10-31T00:59:59.840Z,,0,,,NaN,,,,,,false,,,,147116,147116,,147116,,147156,8,400,,,
sequence,flow.Sequence,4_32,2023-10-31T00:59:59.840Z,,0,,,3027,completion,,,,,false,,,,147116,147116,144056,144037,144089,147156,8,400,,,
trial,html.Screen,4_33_0,2023-10-31T01:00:02.725Z,,0,1,,2879,response,ISIC_0033302.JPG,3,ISIC_0012425.JPG,ISIC_0012425.JPG,false,0,keypress(z),500,150001,150001,147122,147116,147156,150039,8,400,34,,ISIC_0033302.JPG
break,html.Screen,4_33_1,2023-10-31T01:00:02.725Z,,0,,,NaN,,,,,,false,,,,150002,150002,,150001,,150039,8,400,,,
break_continue,html.Screen,4_33_2,2023-10-31T01:00:02.726Z,,0,,,NaN,,,,,,false,,,,150002,150002,,150002,,150039,8,400,,,
sequence,flow.Sequence,4_33,2023-10-31T01:00:02.726Z,,0,,,2846,completion,,,,,false,,,,150003,150002,147122,147116,147156,150039,8,400,,,
trial,html.Screen,4_34_0,2023-10-31T01:00:05.413Z,,0,1,,2684,response,ISIC_5821293.JPG,6,ISIC_0072041.JPG,ISIC_5821293.JPG,false,1,keypress(m),500,152689,152689,150005,150003,150039,152739,8,400,35,,ISIC_0072041.JPG
break,html.Screen,4_34_1,2023-10-31T01:00:05.414Z,,0,,,NaN,,,,,,false,,,,152690,152690,,152689,,152739,8,400,,,
break_continue,html.Screen,4_34_2,2023-10-31T01:00:05.414Z,,0,,,NaN,,,,,,false,,,,152691,152691,,152690,,152739,8,400,,,
sequence,flow.Sequence,4_34,2023-10-31T01:00:05.414Z,,0,,,2652,completion,,,,,false,,,,152691,152691,150005,150003,150039,152739,8,400,,,
trial,html.Screen,4_35_0,2023-10-31T01:00:08.029Z,,0,1,,2598,response,ISIC_0027499.JPG,7,ISIC_0028422.JPG,ISIC_0027499.JPG,false,1,keypress(m),500,155305,155304,152706,152691,152739,155356,8,400,36,,ISIC_0028422.JPG
break,html.Screen,4_35_1,2023-10-31T01:00:08.030Z,,0,,,NaN,,,,,,false,,,,155306,155306,,155306,,155356,8,400,,,
break_continue,html.Screen,4_35_2,2023-10-31T01:00:08.030Z,,0,,,NaN,,,,,,false,,,,155307.00000000003,155307.00000000003,,155306,,155356,8,400,,,
sequence,flow.Sequence,4_35,2023-10-31T01:00:08.030Z,,0,,,2568.000000000029,completion,,,,,false,,,,155307.00000000003,155307.00000000003,152706,152691,152739,155356,8,400,,,
trial,html.Screen,4_36_0,2023-10-31T01:00:10.607Z,,0,1,,2560,response,ISIC_0024720.JPG,8,ISIC_1105263.JPG,ISIC_0024720.JPG,false,1,keypress(m),500,157883,157883,155323,155307.00000000003,155356,157923,8,400,37,,ISIC_1105263.JPG
break,html.Screen,4_36_1,2023-10-31T01:00:10.608Z,,0,,,NaN,,,,,,false,,,,157884,157884,,157884,,157923,8,400,,,
break_continue,html.Screen,4_36_2,2023-10-31T01:00:10.608Z,,0,,,NaN,,,,,,false,,,,157885,157885,,157885,,157923,8,400,,,
sequence,flow.Sequence,4_36,2023-10-31T01:00:10.609Z,,0,,,2529,completion,,,,,false,,,,157885,157885,155323,155307.00000000003,155356,157923,8,400,,,
trial,html.Screen,4_37_0,2023-10-31T01:00:13.251Z,,0,1,,2638.000000000029,response,ISIC_4936610.JPG,5,ISIC_0065360.JPG,ISIC_0065360.JPG,false,0,keypress(z),500,160527.00000000003,160527.00000000003,157889,157885,157923,160573,8,400,38,,ISIC_4936610.JPG
break,html.Screen,4_37_1,2023-10-31T01:00:13.252Z,,0,,,NaN,,,,,,false,,,,160528,160528,,160527.00000000003,,160573,8,400,,,
break_continue,html.Screen,4_37_2,2023-10-31T01:00:13.252Z,,0,,,NaN,,,,,,false,,,,160528,160528,,160528,,160573,8,400,,,
sequence,flow.Sequence,4_37,2023-10-31T01:00:13.252Z,,0,,,2605,completion,,,,,false,,,,160529,160528,157889,157885,157923,160573,8,400,,,
trial,html.Screen,4_38_0,2023-10-31T01:00:15.756Z,,0,1,,2493,response,ISIC_0025472.JPG,5,ISIC_5356775.JPG,ISIC_0025472.JPG,false,1,keypress(m),500,163033.00000000003,163032,160539,160529,160573,163073,8,400,39,,ISIC_5356775.JPG
break,html.Screen,4_38_1,2023-10-31T01:00:15.757Z,,0,,,NaN,,,,,,false,,,,163034,163033.00000000003,,163033.00000000003,,163073,8,400,,,
break_continue,html.Screen,4_38_2,2023-10-31T01:00:15.758Z,,0,,,NaN,,,,,,false,,,,163034,163034,,163034,,163073,8,400,,,
sequence,flow.Sequence,4_38,2023-10-31T01:00:15.758Z,,0,,,2461,completion,,,,,false,,,,163034,163034,160539,160529,160573,163073,8,400,,,
trial,html.Screen,4_39_0,2023-10-31T01:00:18.349Z,,0,1,,2585,response,ISIC_0749263.JPG,6,ISIC_4738636.JPG,ISIC_4738636.JPG,false,0,keypress(z),500,165625,165624,163039,163034,163073,165673,8,400,40,,ISIC_0749263.JPG
break,html.Screen,4_39_1,2023-10-31T01:00:18.350Z,,0,,,NaN,,,,,,false,,,,165626,165626,,165625,,165673,8,400,,,
break_continue,html.Screen,4_39_2,2023-10-31T01:00:18.350Z,,0,,,NaN,,,,,,false,,,,165626,165626,,165626,,165673,8,400,,,
sequence,flow.Sequence,4_39,2023-10-31T01:00:18.350Z,,0,,,2553,completion,,,,,false,,,,165626,165626,163039,163034,163073,165673,8,400,,,
trial,html.Screen,4_40_0,2023-10-31T01:00:20.902Z,,0,1,,2540,response,ISIC_0032828.JPG,6,ISIC_2927587.JPG,ISIC_0032828.JPG,false,1,keypress(m),500,168179,168178,165638,165627,165673,168223,8,400,41,,ISIC_2927587.JPG
break,html.Screen,4_40_1,2023-10-31T01:00:20.903Z,,0,,,NaN,,,,,,false,,,,168180,168179,,168179,,168223,8,400,,,
break_continue,html.Screen,4_40_2,2023-10-31T01:00:20.904Z,,0,,,NaN,,,,,,false,,,,168180,168180,,168180,,168223,8,400,,,
sequence,flow.Sequence,4_40,2023-10-31T01:00:20.904Z,,0,,,2507,completion,,,,,false,,,,168180,168180,165638,165627,165673,168223,8,400,,,
trial,html.Screen,4_41_0,2023-10-31T01:00:23.607Z,,0,1,,2694,response,ISIC_9286292.JPG,6,ISIC_0010007.JPG,ISIC_0010007.JPG,false,0,keypress(z),500,170884,170883,168189,168180,168223,170923,8,400,42,,ISIC_9286292.JPG
break,html.Screen,4_41_1,2023-10-31T01:00:23.608Z,,0,,,NaN,,,,,,false,,,,170885,170885,,170884,,170923,8,400,,,
break_continue,html.Screen,4_41_2,2023-10-31T01:00:23.609Z,,0,,,NaN,,,,,,false,,,,170885,170885,,170885,,170923,8,400,,,
sequence,flow.Sequence,4_41,2023-10-31T01:00:23.609Z,,0,,,2662,completion,,,,,false,,,,170885,170885,168189,168180,168223,170923,8,400,,,
trial,html.Screen,4_42_0,2023-10-31T01:00:26.268Z,,0,1,,2655,response,ISIC_4026540.JPG,8,ISIC_3810274.JPG,ISIC_3810274.JPG,false,0,keypress(z),500,173545.00000000003,173544,170889,170885,170923,173589,8,400,43,,ISIC_4026540.JPG
break,html.Screen,4_42_1,2023-10-31T01:00:26.269Z,,0,,,NaN,,,,,,false,,,,173546,173545.00000000003,,173545.00000000003,,173589,8,400,,,
break_continue,html.Screen,4_42_2,2023-10-31T01:00:26.270Z,,0,,,NaN,,,,,,false,,,,173546,173546,,173546,,173589,8,400,,,
sequence,flow.Sequence,4_42,2023-10-31T01:00:26.270Z,,0,,,2623,completion,,,,,false,,,,173546,173546,170889,170885,170923,173589,8,400,,,
trial,html.Screen,4_43_0,2023-10-31T01:00:28.753Z,,0,1,,2473,response,ISIC_0028505.JPG,4,ISIC_7947847.JPG,ISIC_0028505.JPG,false,1,keypress(m),500,176029,176029,173556,173546,173589,176073,8,400,44,,ISIC_7947847.JPG
break,html.Screen,4_43_1,2023-10-31T01:00:28.754Z,,0,,,NaN,,,,,,false,,,,176031,176030,,176029,,176073,8,400,,,
break_continue,html.Screen,4_43_2,2023-10-31T01:00:28.755Z,,0,,,NaN,,,,,,false,,,,176031,176031,,176031,,176073,8,400,,,
sequence,flow.Sequence,4_43,2023-10-31T01:00:28.755Z,,0,,,2442,completion,,,,,false,,,,176031,176031,173556,173546,173589,176073,8,400,,,
trial,html.Screen,4_44_0,2023-10-31T01:00:31.363Z,,0,1,,2600,response,ISIC_0054459.JPG,6,ISIC_1306790.JPG,ISIC_0054459.JPG,false,1,keypress(m),500,178640.00000000003,178639,176039,176031,176073,178690,8,400,45,,ISIC_1306790.JPG
break,html.Screen,4_44_1,2023-10-31T01:00:31.364Z,,0,,,NaN,,,,,,false,,,,178641,178641,,178640.00000000003,,178690,8,400,,,
break_continue,html.Screen,4_44_2,2023-10-31T01:00:31.365Z,,0,,,NaN,,,,,,false,,,,178641,178641,,178641,,178690,8,400,,,
sequence,flow.Sequence,4_44,2023-10-31T01:00:31.365Z,,0,,,2568,completion,,,,,false,,,,178641,178641,176039,176031,176073,178690,8,400,,,
trial,html.Screen,4_45_0,2023-10-31T01:00:34.082Z,,0,1,,2702,response,ISIC_3928910.JPG,8,ISIC_0046345.JPG,ISIC_3928910.JPG,false,1,keypress(m),500,181359,181358,178656,178642,178690,181406,8,400,46,,ISIC_0046345.JPG
break,html.Screen,4_45_1,2023-10-31T01:00:34.083Z,,0,,,NaN,,,,,,false,,,,181360,181360,,181359,,181406,8,400,,,
break_continue,html.Screen,4_45_2,2023-10-31T01:00:34.084Z,,0,,,NaN,,,,,,false,,,,181360,181360,,181360,,181406,8,400,,,
sequence,flow.Sequence,4_45,2023-10-31T01:00:34.084Z,,0,,,2670,completion,,,,,false,,,,181360,181360,178656,178642,178690,181406,8,400,,,
trial,html.Screen,4_46_0,2023-10-31T01:00:37.203Z,,0,1,,3105,response,ISIC_0057487.JPG,5,ISIC_0063319.JPG,ISIC_0057487.JPG,false,1,keypress(m),500,184479,184478,181373,181360,181406,184523,8,400,47,,ISIC_0063319.JPG
break,html.Screen,4_46_1,2023-10-31T01:00:37.204Z,,0,,,NaN,,,,,,false,,,,184480,184480,,184479,,184523,8,400,,,
break_continue,html.Screen,4_46_2,2023-10-31T01:00:37.204Z,,0,,,NaN,,,,,,false,,,,184480,184480,,184480,,184523,8,400,,,
sequence,flow.Sequence,4_46,2023-10-31T01:00:37.204Z,,0,,,3074,completion,,,,,false,,,,184481,184480,181373,181360,181406,184523,8,400,,,
trial,html.Screen,4_47_0,2023-10-31T01:00:40.048Z,,0,1,,2835,response,ISIC_6207688.JPG,9,ISIC_0028317.JPG,ISIC_6207688.JPG,false,1,keypress(m),500,187325.00000000003,187324,184489,184481,184523,187373,8,400,48,,ISIC_0028317.JPG
break,html.Screen,4_47_1,2023-10-31T01:00:40.049Z,,0,,,NaN,,,,,,false,,,,187326,187325.00000000003,,187325.00000000003,,187373,8,400,,,
break_continue,html.Screen,4_47_2,2023-10-31T01:00:40.050Z,,0,,,NaN,,,,,,false,,,,187326,187326,,187326,,187373,8,400,,,
sequence,flow.Sequence,4_47,2023-10-31T01:00:40.050Z,,0,,,2803,completion,,,,,false,,,,187326,187326,184489,184481,184523,187373,8,400,,,
trial,html.Screen,4_48_0,2023-10-31T01:00:42.992Z,,0,1,,2928,response,ISIC_7138875.JPG,4,ISIC_0004075.JPG,ISIC_0004075.JPG,false,0,keypress(z),500,190268,190267,187339,187326,187373,190306,8,400,49,,ISIC_7138875.JPG
break,html.Screen,4_48_1,2023-10-31T01:00:42.992Z,,0,,,NaN,,,,,,false,,,,190269,190268,,190268,,190306,8,400,,,
break_continue,html.Screen,4_48_2,2023-10-31T01:00:42.993Z,,0,,,NaN,,,,,,false,,,,190269,190269,,190269,,190306,8,400,,,
sequence,flow.Sequence,4_48,2023-10-31T01:00:42.993Z,,0,,,2896,completion,,,,,false,,,,190269,190269,187339,187326,187373,190306,8,400,,,
trial,html.Screen,4_49_0,2023-10-31T01:00:46.443Z,,0,1,,3446.000000000029,response,ISIC_1497800.JPG,3,ISIC_0024675.JPG,ISIC_0024675.JPG,false,0,keypress(z),500,193719,193718.00000000003,190272,190269,190306,193773,8,400,50,,ISIC_1497800.JPG
break,html.Screen,4_49_1,2023-10-31T01:00:56.464Z,,0,,,10000,timeout,,,,,false,,,,203740,203739,193739,193719,193773,203773,8,400,,,
break_continue,html.Screen,4_49_2,2023-10-31T01:00:57.852Z,,0,,,1372.000000000029,response,,,,,false,continue,keypress(Space),,205128,205111.00000000003,203739,203740,203773,205173,8,400,,,
sequence,flow.Sequence,4_49,2023-10-31T01:00:57.852Z,,0,,,14805.00000000003,completion,,,,,false,,,,205128,205111.00000000003,190272,190269,190306,205173,8,400,,,
trial,html.Screen,4_50_0,2023-10-31T01:01:01.060Z,,0,2,,3197,response,ISIC_0012055.JPG,1,ISIC_0013472.JPG,ISIC_0012055.JPG,false,1,keypress(m),500,208337.00000000003,208336,205139,205129,205173,208389,8,400,1,,ISIC_0013472.JPG
break,html.Screen,4_50_1,2023-10-31T01:01:01.061Z,,0,,,NaN,,,,,,false,,,,208337.00000000003,208337.00000000003,,208337.00000000003,,208389,8,400,,,
break_continue,html.Screen,4_50_2,2023-10-31T01:01:01.061Z,,0,,,NaN,,,,,,false,,,,208338,208338,,208338,,208389,8,400,,,
sequence,flow.Sequence,4_50,2023-10-31T01:01:01.062Z,,0,,,3165,completion,,,,,false,,,,208338,208338,205139,205129,205173,208389,8,400,,,
trial,html.Screen,4_51_0,2023-10-31T01:01:04.390Z,,0,2,,3309,response,ISIC_0032408.JPG,4,ISIC_7802213.JPG,ISIC_0032408.JPG,false,1,keypress(m),500,211666,211665,208356,208338,208389,211706,8,400,2,,ISIC_7802213.JPG
break,html.Screen,4_51_1,2023-10-31T01:01:04.391Z,,0,,,NaN,,,,,,false,,,,211667,211667,,211666,,211706,8,400,,,
break_continue,html.Screen,4_51_2,2023-10-31T01:01:04.391Z,,0,,,NaN,,,,,,false,,,,211667,211667,,211667,,211706,8,400,,,
sequence,flow.Sequence,4_51,2023-10-31T01:01:04.391Z,,0,,,3278,completion,,,,,false,,,,211667,211667,208356,208338,208389,211706,8,400,,,
trial,html.Screen,4_52_0,2023-10-31T01:01:07.429Z,,0,2,,3033,response,ISIC_0011007.JPG,6,ISIC_0000274.JPG,ISIC_0011007.JPG,false,1,keypress(m),500,214705,214705,211672,211668,211706,214756,8,400,3,,ISIC_0000274.JPG
break,html.Screen,4_52_1,2023-10-31T01:01:07.430Z,,0,,,NaN,,,,,,false,,,,214707,214706.00000000003,,214706.00000000003,,214756,8,400,,,
break_continue,html.Screen,4_52_2,2023-10-31T01:01:07.431Z,,0,,,NaN,,,,,,false,,,,214707,214707,,214707,,214756,8,400,,,
sequence,flow.Sequence,4_52,2023-10-31T01:01:07.431Z,,0,,,3001,completion,,,,,false,,,,214707,214707,211672,211668,211706,214756,8,400,,,
trial,html.Screen,4_53_0,2023-10-31T01:01:10.294Z,,0,2,,2847.000000000029,response,ISIC_6448312.JPG,6,ISIC_0011546.JPG,ISIC_0011546.JPG,false,0,keypress(z),500,217570,217569.00000000003,214722,214707,214756,217623,8,400,4,,ISIC_6448312.JPG
break,html.Screen,4_53_1,2023-10-31T01:01:10.295Z,,0,,,NaN,,,,,,false,,,,217571,217571,,217570,,217623,8,400,,,
break_continue,html.Screen,4_53_2,2023-10-31T01:01:10.295Z,,0,,,NaN,,,,,,false,,,,217571,217571,,217571,,217623,8,400,,,
sequence,flow.Sequence,4_53,2023-10-31T01:01:10.295Z,,0,,,2815,completion,,,,,false,,,,217572,217571,214722,214707,214756,217623,8,400,,,
trial,html.Screen,4_54_0,2023-10-31T01:01:13.174Z,,0,2,,2860.000000000029,response,ISIC_5555700.JPG,11,ISIC_5961333.JPG,ISIC_5961333.JPG,false,0,keypress(z),500,220450.00000000003,220450.00000000003,217590,217572,217623,220490,8,400,5,,ISIC_5555700.JPG
break,html.Screen,4_54_1,2023-10-31T01:01:13.175Z,,0,,,NaN,,,,,,false,,,,220452,220451,,220451,,220490,8,400,,,
break_continue,html.Screen,4_54_2,2023-10-31T01:01:13.176Z,,0,,,NaN,,,,,,false,,,,220452,220452,,220452,,220490,8,400,,,
sequence,flow.Sequence,4_54,2023-10-31T01:01:13.176Z,,0,,,2829,completion,,,,,false,,,,220452,220452,217590,217572,217623,220490,8,400,,,
trial,html.Screen,4_55_0,2023-10-31T01:01:17.217Z,,0,2,,4036.000000000029,response,ISIC_0030254.JPG,6,ISIC_0033454.JPG,ISIC_0030254.JPG,false,1,keypress(m),500,224493,224492.00000000003,220456,220452,220490,224539,8,400,6,,ISIC_0033454.JPG
break,html.Screen,4_55_1,2023-10-31T01:01:17.218Z,,0,,,NaN,,,,,,false,,,,224494,224494,,224493,,224539,8,400,,,
break_continue,html.Screen,4_55_2,2023-10-31T01:01:17.218Z,,0,,,NaN,,,,,,false,,,,224494,224494,,224494,,224539,8,400,,,
sequence,flow.Sequence,4_55,2023-10-31T01:01:17.218Z,,0,,,4004,completion,,,,,false,,,,224494,224494,220456,220452,220490,224539,8,400,,,
trial,html.Screen,4_56_0,2023-10-31T01:01:20.141Z,,0,2,,2911,response,ISIC_9101441.JPG,5,ISIC_6809586.JPG,ISIC_6809586.JPG,false,0,keypress(z),500,227417,227417,224506,224494,224539,227456,8,400,7,,ISIC_9101441.JPG
break,html.Screen,4_56_1,2023-10-31T01:01:20.142Z,,0,,,NaN,,,,,,false,,,,227418,227418,,227418,,227456,8,400,,,
break_continue,html.Screen,4_56_2,2023-10-31T01:01:20.142Z,,0,,,NaN,,,,,,false,,,,227419,227419,,227419,,227456,8,400,,,
sequence,flow.Sequence,4_56,2023-10-31T01:01:20.143Z,,0,,,2880,completion,,,,,false,,,,227419,227419,224506,224494,224539,227456,8,400,,,
trial,html.Screen,4_57_0,2023-10-31T01:01:22.858Z,,0,2,,2711,response,ISIC_3926019.JPG,0,ISIC_4462476.JPG,ISIC_4462476.JPG,false,0,keypress(z),500,230134,230133,227422,227419,227456,230173,8,400,8,,ISIC_3926019.JPG
break,html.Screen,4_57_1,2023-10-31T01:01:22.858Z,,0,,,NaN,,,,,,false,,,,230134,230134,,230134,,230173,8,400,,,
break_continue,html.Screen,4_57_2,2023-10-31T01:01:22.859Z,,0,,,NaN,,,,,,false,,,,230135,230135,,230135,,230173,8,400,,,
sequence,flow.Sequence,4_57,2023-10-31T01:01:22.859Z,,0,,,2679,completion,,,,,false,,,,230135,230135,227422,227419,227456,230173,8,400,,,
trial,html.Screen,4_58_0,2023-10-31T01:01:25.546Z,,0,2,,2683,response,ISIC_0032759.JPG,4,ISIC_4536407.JPG,ISIC_0032759.JPG,false,1,keypress(m),500,232822,232822,230139,230135,230173,232873,8,400,9,,ISIC_4536407.JPG
break,html.Screen,4_58_1,2023-10-31T01:01:25.547Z,,0,,,NaN,,,,,,false,,,,232824,232823,,232823,,232873,8,400,,,
break_continue,html.Screen,4_58_2,2023-10-31T01:01:25.548Z,,0,,,NaN,,,,,,false,,,,232824,232824,,232824,,232873,8,400,,,
sequence,flow.Sequence,4_58,2023-10-31T01:01:25.548Z,,0,,,2651,completion,,,,,false,,,,232824,232824,230139,230135,230173,232873,8,400,,,
trial,html.Screen,4_59_0,2023-10-31T01:01:28.650Z,,0,2,,3086.000000000029,response,ISIC_0010283.JPG,10,ISIC_3043475.JPG,ISIC_3043475.JPG,false,0,keypress(z),500,235926.00000000003,235926.00000000003,232840,232824,232873,235973,8,400,10,,ISIC_0010283.JPG
break,html.Screen,4_59_1,2023-10-31T01:01:28.651Z,,0,,,NaN,,,,,,false,,,,235927,235927,,235926.00000000003,,235973,8,400,,,
break_continue,html.Screen,4_59_2,2023-10-31T01:01:28.651Z,,0,,,NaN,,,,,,false,,,,235927,235927,,235927,,235973,8,400,,,
sequence,flow.Sequence,4_59,2023-10-31T01:01:28.651Z,,0,,,3054,completion,,,,,false,,,,235928,235927,232840,232824,232873,235973,8,400,,,
trial,html.Screen,4_60_0,2023-10-31T01:01:31.986Z,,0,2,,3322,response,ISIC_9568327.JPG,4,ISIC_3310364.JPG,ISIC_3310364.JPG,false,0,keypress(z),500,239262,239262,235940,235928,235973,239306,8,400,11,,ISIC_9568327.JPG
break,html.Screen,4_60_1,2023-10-31T01:01:31.987Z,,0,,,NaN,,,,,,false,,,,239263,239263,,239263,,239306,8,400,,,
break_continue,html.Screen,4_60_2,2023-10-31T01:01:31.988Z,,0,,,NaN,,,,,,false,,,,239264,239264,,239264,,239306,8,400,,,
sequence,flow.Sequence,4_60,2023-10-31T01:01:31.988Z,,0,,,3291,completion,,,,,false,,,,239264,239264,235940,235928,235973,239306,8,400,,,
trial,html.Screen,4_61_0,2023-10-31T01:01:34.767Z,,0,2,,2770,response,ISIC_7276156.JPG,1,ISIC_0011388.JPG,ISIC_7276156.JPG,false,1,keypress(m),500,242043,242043,239273,239264,239306,242090,8,400,12,,ISIC_0011388.JPG
break,html.Screen,4_61_1,2023-10-31T01:01:34.768Z,,0,,,NaN,,,,,,false,,,,242044,242044,,242043,,242090,8,400,,,
break_continue,html.Screen,4_61_2,2023-10-31T01:01:34.768Z,,0,,,NaN,,,,,,false,,,,242044,242044,,242044,,242090,8,400,,,
sequence,flow.Sequence,4_61,2023-10-31T01:01:34.768Z,,0,,,2738,completion,,,,,false,,,,242045.00000000003,242044,239273,239264,239306,242090,8,400,,,
trial,html.Screen,4_62_0,2023-10-31T01:01:38.876Z,,0,2,,4096.000000000029,response,ISIC_0062160.JPG,5,ISIC_2410240.JPG,ISIC_0062160.JPG,false,1,keypress(m),500,246152.00000000003,246152.00000000003,242056,242045.00000000003,242090,246190,8,400,13,,ISIC_2410240.JPG
break,html.Screen,4_62_1,2023-10-31T01:01:38.878Z,,0,,,NaN,,,,,,false,,,,246154,246153,,246153,,246190,8,400,,,
break_continue,html.Screen,4_62_2,2023-10-31T01:01:38.878Z,,0,,,NaN,,,,,,false,,,,246154,246154,,246154,,246190,8,400,,,
sequence,flow.Sequence,4_62,2023-10-31T01:01:38.878Z,,0,,,4064,completion,,,,,false,,,,246154,246154,242056,242045.00000000003,242090,246190,8,400,,,
trial,html.Screen,4_63_0,2023-10-31T01:01:41.918Z,,0,2,,3037.000000000029,response,ISIC_0024275.JPG,11,ISIC_8414396.JPG,ISIC_0024275.JPG,false,1,keypress(m),500,249195,249194.00000000003,246157,246154,246190,249240,8,400,14,,ISIC_8414396.JPG
break,html.Screen,4_63_1,2023-10-31T01:01:41.919Z,,0,,,NaN,,,,,,false,,,,249195,249195,,249195,,249240,8,400,,,
break_continue,html.Screen,4_63_2,2023-10-31T01:01:41.920Z,,0,,,NaN,,,,,,false,,,,249196,249196,,249196,,249240,8,400,,,
sequence,flow.Sequence,4_63,2023-10-31T01:01:41.920Z,,0,,,3006,completion,,,,,false,,,,249196,249196,246157,246154,246190,249240,8,400,,,
trial,html.Screen,4_64_0,2023-10-31T01:01:44.528Z,,0,2,,2598,response,ISIC_0031233.JPG,6,ISIC_0027359.JPG,ISIC_0031233.JPG,false,1,keypress(m),500,251804,251804,249206,249196,249240,251855,8,400,15,,ISIC_0027359.JPG
break,html.Screen,4_64_1,2023-10-31T01:01:44.529Z,,0,,,NaN,,,,,,false,,,,251805,251805,,251805,,251855,8,400,,,
break_continue,html.Screen,4_64_2,2023-10-31T01:01:44.530Z,,0,,,NaN,,,,,,false,,,,251806,251806,,251806,,251855,8,400,,,
sequence,flow.Sequence,4_64,2023-10-31T01:01:44.530Z,,0,,,2566,completion,,,,,false,,,,251806,251806,249206,249196,249240,251855,8,400,,,
trial,html.Screen,4_65_0,2023-10-31T01:01:47.155Z,,0,2,,2607,response,ISIC_9022005.JPG,2,ISIC_4257634.JPG,ISIC_9022005.JPG,false,1,keypress(m),500,254431,254430,251823,251806,251855,254472,8,400,16,,ISIC_4257634.JPG
break,html.Screen,4_65_1,2023-10-31T01:01:47.156Z,,0,,,NaN,,,,,,false,,,,254432.00000000003,254431,,254431,,254472,8,400,,,
break_continue,html.Screen,4_65_2,2023-10-31T01:01:47.156Z,,0,,,NaN,,,,,,false,,,,254432.00000000003,254432.00000000003,,254432.00000000003,,254472,8,400,,,
sequence,flow.Sequence,4_65,2023-10-31T01:01:47.156Z,,0,,,2577.000000000029,completion,,,,,false,,,,254432.00000000003,254432.00000000003,251823,251806,251855,254472,8,400,,,
trial,html.Screen,4_66_0,2023-10-31T01:01:50.107Z,,0,2,,2942,response,ISIC_0004794.JPG,9,ISIC_9023152.JPG,ISIC_9023152.JPG,false,0,keypress(z),500,257382.99999999997,257382,254440,254432.00000000003,254472,257423,8,400,17,,ISIC_0004794.JPG
break,html.Screen,4_66_1,2023-10-31T01:01:50.108Z,,0,,,NaN,,,,,,false,,,,257384,257384,,257382.99999999997,,257423,8,400,,,
break_continue,html.Screen,4_66_2,2023-10-31T01:01:50.108Z,,0,,,NaN,,,,,,false,,,,257384,257384,,257384,,257423,8,400,,,
sequence,flow.Sequence,4_66,2023-10-31T01:01:50.108Z,,0,,,2912,completion,,,,,false,,,,257384,257384,254440,254432.00000000003,254472,257423,8,400,,,
trial,html.Screen,4_67_0,2023-10-31T01:01:53.122Z,,0,2,,3008,response,ISIC_7336383.JPG,5,ISIC_2818530.JPG,ISIC_2818530.JPG,false,0,keypress(z),500,260398.00000000003,260397,257389,257384,257423,260440,8,400,18,,ISIC_7336383.JPG
break,html.Screen,4_67_1,2023-10-31T01:01:53.123Z,,0,,,NaN,,,,,,false,,,,260399,260398.00000000003,,260398.00000000003,,260440,8,400,,,
break_continue,html.Screen,4_67_2,2023-10-31T01:01:53.123Z,,0,,,NaN,,,,,,false,,,,260399,260399,,260399,,260440,8,400,,,
sequence,flow.Sequence,4_67,2023-10-31T01:01:53.123Z,,0,,,2976,completion,,,,,false,,,,260399,260399,257389,257384,257423,260440,8,400,,,
trial,html.Screen,4_68_0,2023-10-31T01:01:55.865Z,,0,2,,2735,response,ISIC_0011164.JPG,5,ISIC_3800541.JPG,ISIC_3800541.JPG,false,0,keypress(z),500,263141,263141,260406,260399,260440,263190,8,400,19,,ISIC_0011164.JPG
break,html.Screen,4_68_1,2023-10-31T01:01:55.866Z,,0,,,NaN,,,,,,false,,,,263142,263142,,263141,,263190,8,400,,,
break_continue,html.Screen,4_68_2,2023-10-31T01:01:55.866Z,,0,,,NaN,,,,,,false,,,,263143,263142,,263142,,263190,8,400,,,
sequence,flow.Sequence,4_68,2023-10-31T01:01:55.867Z,,0,,,2702,completion,,,,,false,,,,263143,263142,260406,260399,260440,263190,8,400,,,
trial,html.Screen,4_69_0,2023-10-31T01:01:58.553Z,,0,2,,2673,response,ISIC_8724944.JPG,0,ISIC_1008321.JPG,ISIC_8724944.JPG,false,1,keypress(m),500,265829,265829,263156,263143,263190,265873,8,400,20,,ISIC_1008321.JPG
break,html.Screen,4_69_1,2023-10-31T01:01:58.555Z,,0,,,NaN,,,,,,false,,,,265831,265830,,265830,,265873,8,400,,,
break_continue,html.Screen,4_69_2,2023-10-31T01:01:58.555Z,,0,,,NaN,,,,,,false,,,,265831,265831,,265831,,265873,8,400,,,
sequence,flow.Sequence,4_69,2023-10-31T01:01:58.555Z,,0,,,2641,completion,,,,,false,,,,265831,265831,263156,263143,263190,265873,8,400,,,
trial,html.Screen,4_70_0,2023-10-31T01:02:01.225Z,,0,2,,2660,response,ISIC_0011793.JPG,7,ISIC_8124900.JPG,ISIC_8124900.JPG,false,0,keypress(z),500,268501.00000000006,268500,265840,265832,265873,268540,8,400,21,,ISIC_0011793.JPG
break,html.Screen,4_70_1,2023-10-31T01:02:01.226Z,,0,,,NaN,,,,,,false,,,,268502,268502,,268501.00000000006,,268540,8,400,,,
break_continue,html.Screen,4_70_2,2023-10-31T01:02:01.226Z,,0,,,NaN,,,,,,false,,,,268503,268502,,268502,,268540,8,400,,,
sequence,flow.Sequence,4_70,2023-10-31T01:02:01.227Z,,0,,,2629,completion,,,,,false,,,,268503,268502,265840,265832,265873,268540,8,400,,,
trial,html.Screen,4_71_0,2023-10-31T01:02:03.903Z,,0,2,,2672,response,ISIC_6398283.JPG,1,ISIC_0054777.JPG,ISIC_6398283.JPG,false,1,keypress(m),500,271179.00000000006,271178,268506,268503,268540,271223,8,400,22,,ISIC_0054777.JPG
break,html.Screen,4_71_1,2023-10-31T01:02:03.904Z,,0,,,NaN,,,,,,false,,,,271180,271180,,271179.00000000006,,271223,8,400,,,
break_continue,html.Screen,4_71_2,2023-10-31T01:02:03.904Z,,0,,,NaN,,,,,,false,,,,271180,271180,,271180,,271223,8,400,,,
sequence,flow.Sequence,4_71,2023-10-31T01:02:03.904Z,,0,,,2640,completion,,,,,false,,,,271180,271180,268506,268503,268540,271223,8,400,,,
trial,html.Screen,4_72_0,2023-10-31T01:02:06.482Z,,0,2,,2568,response,ISIC_7242542.JPG,7,ISIC_7953039.JPG,ISIC_7953039.JPG,false,0,keypress(z),500,273758,273758,271190,271180,271223,273806,8,400,23,,ISIC_7242542.JPG
break,html.Screen,4_72_1,2023-10-31T01:02:06.483Z,,0,,,NaN,,,,,,false,,,,273759,273759,,273759,,273806,8,400,,,
break_continue,html.Screen,4_72_2,2023-10-31T01:02:06.484Z,,0,,,NaN,,,,,,false,,,,273760,273760,,273760,,273806,8,400,,,
sequence,flow.Sequence,4_72,2023-10-31T01:02:06.484Z,,0,,,2537,completion,,,,,false,,,,273760,273760,271190,271180,271223,273806,8,400,,,
trial,html.Screen,4_73_0,2023-10-31T01:02:10.526Z,,0,2,,4029,response,ISIC_5059476.JPG,7,ISIC_0055905.JPG,ISIC_5059476.JPG,false,1,keypress(m),500,277802,277802,273773,273760,273806,277856,8,400,24,,ISIC_0055905.JPG
break,html.Screen,4_73_1,2023-10-31T01:02:10.527Z,,0,,,NaN,,,,,,false,,,,277803,277803,,277802,,277856,8,400,,,
break_continue,html.Screen,4_73_2,2023-10-31T01:02:10.528Z,,0,,,NaN,,,,,,false,,,,277804.00000000006,277803,,277803,,277856,8,400,,,
sequence,flow.Sequence,4_73,2023-10-31T01:02:10.528Z,,0,,,3997,completion,,,,,false,,,,277804.00000000006,277803,273773,273760,273806,277856,8,400,,,
trial,html.Screen,4_74_0,2023-10-31T01:02:13.511Z,,0,2,,2963,response,ISIC_5529924.JPG,5,ISIC_0283541.JPG,ISIC_0283541.JPG,false,0,keypress(z),500,280787,280786,277823,277804.00000000006,277856,280840,8,400,25,,ISIC_5529924.JPG
break,html.Screen,4_74_1,2023-10-31T01:02:13.512Z,,0,,,NaN,,,,,,false,,,,280788,280788,,280787,,280840,8,400,,,
break_continue,html.Screen,4_74_2,2023-10-31T01:02:13.512Z,,0,,,NaN,,,,,,false,,,,280788,280788,,280788,,280840,8,400,,,
sequence,flow.Sequence,4_74,2023-10-31T01:02:13.512Z,,0,,,2932,completion,,,,,false,,,,280788,280788,277823,277804.00000000006,277856,280840,8,400,,,
trial,html.Screen,4_75_0,2023-10-31T01:02:17.062Z,,0,2,,3530,response,ISIC_0061381.JPG,3,ISIC_8462070.JPG,ISIC_8462070.JPG,false,0,keypress(z),500,284338,284337,280807,280788,280840,284390,8,400,26,,ISIC_0061381.JPG
break,html.Screen,4_75_1,2023-10-31T01:02:17.063Z,,0,,,NaN,,,,,,false,,,,284339,284339,,284338,,284390,8,400,,,
break_continue,html.Screen,4_75_2,2023-10-31T01:02:17.063Z,,0,,,NaN,,,,,,false,,,,284339,284339,,284339,,284390,8,400,,,
sequence,flow.Sequence,4_75,2023-10-31T01:02:17.063Z,,0,,,3499,completion,,,,,false,,,,284339,284339,280807,280788,280840,284390,8,400,,,
trial,html.Screen,4_76_0,2023-10-31T01:02:19.816Z,,0,2,,2735,response,ISIC_0058198.JPG,10,ISIC_8190708.JPG,ISIC_8190708.JPG,false,0,keypress(z),500,287091,287091,284356,284340.00000000006,284390,287140,8,400,27,,ISIC_0058198.JPG
break,html.Screen,4_76_1,2023-10-31T01:02:19.817Z,,0,,,NaN,,,,,,false,,,,287093,287092,,287092,,287140,8,400,,,
break_continue,html.Screen,4_76_2,2023-10-31T01:02:19.817Z,,0,,,NaN,,,,,,false,,,,287093,287093,,287093,,287140,8,400,,,
sequence,flow.Sequence,4_76,2023-10-31T01:02:19.817Z,,0,,,2703,completion,,,,,false,,,,287093,287093,284356,284340.00000000006,284390,287140,8,400,,,
trial,html.Screen,4_77_0,2023-10-31T01:02:22.760Z,,0,2,,2930,response,ISIC_1177505.JPG,4,ISIC_2805573.JPG,ISIC_1177505.JPG,false,1,keypress(m),500,290036,290036,287106,287093,287140,290090,8,400,28,,ISIC_2805573.JPG
break,html.Screen,4_77_1,2023-10-31T01:02:22.761Z,,0,,,NaN,,,,,,false,,,,290037,290037,,290036,,290090,8,400,,,
break_continue,html.Screen,4_77_2,2023-10-31T01:02:22.761Z,,0,,,NaN,,,,,,false,,,,290037,290037,,290037,,290090,8,400,,,
sequence,flow.Sequence,4_77,2023-10-31T01:02:22.762Z,,0,,,2897,completion,,,,,false,,,,290038,290037,287106,287093,287140,290090,8,400,,,
trial,html.Screen,4_78_0,2023-10-31T01:02:25.598Z,,0,2,,2817,response,ISIC_2424673.JPG,3,ISIC_0012369.JPG,ISIC_0012369.JPG,false,0,keypress(z),500,292874,292873,290056,290038,290090,292922,8,400,29,,ISIC_2424673.JPG
break,html.Screen,4_78_1,2023-10-31T01:02:25.599Z,,0,,,NaN,,,,,,false,,,,292875,292875,,292874,,292922,8,400,,,
break_continue,html.Screen,4_78_2,2023-10-31T01:02:25.599Z,,0,,,NaN,,,,,,false,,,,292875,292875,,292875,,292922,8,400,,,
sequence,flow.Sequence,4_78,2023-10-31T01:02:25.600Z,,0,,,2785,completion,,,,,false,,,,292876.00000000006,292875,290056,290038,290090,292922,8,400,,,
trial,html.Screen,4_79_0,2023-10-31T01:02:29.731Z,,0,2,,4116,response,ISIC_8414396.JPG,8,ISIC_0066854.JPG,ISIC_0066854.JPG,false,0,keypress(z),500,297007,297006,292890,292876.00000000006,292922,297040,8,400,30,,ISIC_8414396.JPG
break,html.Screen,4_79_1,2023-10-31T01:02:29.732Z,,0,,,NaN,,,,,,false,,,,297008,297008,,297007,,297040,8,400,,,
break_continue,html.Screen,4_79_2,2023-10-31T01:02:29.732Z,,0,,,NaN,,,,,,false,,,,297008,297008,,297008,,297040,8,400,,,
sequence,flow.Sequence,4_79,2023-10-31T01:02:29.732Z,,0,,,4086,completion,,,,,false,,,,297008,297008,292890,292876.00000000006,292922,297040,8,400,,,
trial,html.Screen,4_80_0,2023-10-31T01:02:34.644Z,,0,2,,4909,response,ISIC_2275181.JPG,5,ISIC_0000551.JPG,ISIC_0000551.JPG,false,0,keypress(z),500,301919,301919,297010,297008,297040,301973,8,400,31,,ISIC_2275181.JPG
break,html.Screen,4_80_1,2023-10-31T01:02:34.645Z,,0,,,NaN,,,,,,false,,,,301921,301920,,301920,,301973,8,400,,,
break_continue,html.Screen,4_80_2,2023-10-31T01:02:34.645Z,,0,,,NaN,,,,,,false,,,,301921,301921,,301921,,301973,8,400,,,
sequence,flow.Sequence,4_80,2023-10-31T01:02:34.645Z,,0,,,4881,completion,,,,,false,,,,301921,301921,297010,297008,297040,301973,8,400,,,
trial,html.Screen,4_81_0,2023-10-31T01:02:37.800Z,,0,2,,3136,response,ISIC_8659618.JPG,1,ISIC_0046331.JPG,ISIC_8659618.JPG,false,1,keypress(m),500,305076,305076,301940,301922,301973,305123,8,400,32,,ISIC_0046331.JPG
break,html.Screen,4_81_1,2023-10-31T01:02:37.802Z,,0,,,NaN,,,,,,false,,,,305077,305077,,305076,,305123,8,400,,,
break_continue,html.Screen,4_81_2,2023-10-31T01:02:37.802Z,,0,,,NaN,,,,,,false,,,,305078.00000000006,305078.00000000006,,305078.00000000006,,305123,8,400,,,
sequence,flow.Sequence,4_81,2023-10-31T01:02:37.802Z,,0,,,3105.000000000058,completion,,,,,false,,,,305078.00000000006,305078.00000000006,301940,301921,301973,305123,8,400,,,
trial,html.Screen,4_82_0,2023-10-31T01:02:40.815Z,,0,2,,3000.000000000058,response,ISIC_9092298.JPG,4,ISIC_0010068.JPG,ISIC_0010068.JPG,false,0,keypress(z),500,308091,308090.00000000006,305090,305078.00000000006,305123,308140,8,400,33,,ISIC_9092298.JPG
break,html.Screen,4_82_1,2023-10-31T01:02:40.816Z,,0,,,NaN,,,,,,false,,,,308092,308091,,308091,,308140,8,400,,,
break_continue,html.Screen,4_82_2,2023-10-31T01:02:40.816Z,,0,,,NaN,,,,,,false,,,,308092,308092,,308092,,308140,8,400,,,
sequence,flow.Sequence,4_82,2023-10-31T01:02:40.816Z,,0,,,2969,completion,,,,,false,,,,308092,308092,305090,305078.00000000006,305123,308140,8,400,,,
trial,html.Screen,4_83_0,2023-10-31T01:02:43.840Z,,0,2,,3010,response,ISIC_0012037.JPG,9,ISIC_0030171.JPG,ISIC_0030171.JPG,false,0,keypress(z),500,311116,311116,308106,308092,308140,311157,8,400,34,,ISIC_0012037.JPG
break,html.Screen,4_83_1,2023-10-31T01:02:43.842Z,,0,,,NaN,,,,,,false,,,,311118,311117,,311117,,311157,8,400,,,
break_continue,html.Screen,4_83_2,2023-10-31T01:02:43.842Z,,0,,,NaN,,,,,,false,,,,311118,311118,,311118,,311157,8,400,,,
sequence,flow.Sequence,4_83,2023-10-31T01:02:43.842Z,,0,,,2978,completion,,,,,false,,,,311118,311118,308106,308092,308140,311157,8,400,,,
trial,html.Screen,4_84_0,2023-10-31T01:02:46.638Z,,0,2,,2790,response,ISIC_0056141.JPG,3,ISIC_0025658.JPG,ISIC_0025658.JPG,false,0,keypress(z),500,313914,313913,311123,311118,311157,313957,8,400,35,,ISIC_0056141.JPG
break,html.Screen,4_84_1,2023-10-31T01:02:46.639Z,,0,,,NaN,,,,,,false,,,,313915,313915,,313914,,313957,8,400,,,
break_continue,html.Screen,4_84_2,2023-10-31T01:02:46.639Z,,0,,,NaN,,,,,,false,,,,313915,313915,,313915,,313957,8,400,,,
sequence,flow.Sequence,4_84,2023-10-31T01:02:46.640Z,,0,,,2758,completion,,,,,false,,,,313915,313915,311123,311118,311157,313957,8,400,,,
trial,html.Screen,4_85_0,2023-10-31T01:02:49.264Z,,0,2,,2618,response,ISIC_1782545.JPG,9,ISIC_0066401.JPG,ISIC_0066401.JPG,false,0,keypress(z),500,316540,316540,313922,313916,313957,316590,8,400,36,,ISIC_1782545.JPG
break,html.Screen,4_85_1,2023-10-31T01:02:49.265Z,,0,,,NaN,,,,,,false,,,,316541,316541,,316540,,316590,8,400,,,
break_continue,html.Screen,4_85_2,2023-10-31T01:02:49.265Z,,0,,,NaN,,,,,,false,,,,316541,316541,,316541,,316590,8,400,,,
sequence,flow.Sequence,4_85,2023-10-31T01:02:49.265Z,,0,,,2584,completion,,,,,false,,,,316541,316541,313922,313916,313957,316590,8,400,,,
trial,html.Screen,4_86_0,2023-10-31T01:02:52.170Z,,0,2,,2889,response,ISIC_0061152.JPG,5,ISIC_0033171.JPG,ISIC_0033171.JPG,false,0,keypress(z),500,319446,319446,316557,316541,316590,319490,8,400,37,,ISIC_0061152.JPG
break,html.Screen,4_86_1,2023-10-31T01:02:52.171Z,,0,,,NaN,,,,,,false,,,,319447,319447,,319447,,319490,8,400,,,
break_continue,html.Screen,4_86_2,2023-10-31T01:02:52.172Z,,0,,,NaN,,,,,,false,,,,319448,319448,,319447,,319490,8,400,,,
sequence,flow.Sequence,4_86,2023-10-31T01:02:52.172Z,,0,,,2858,completion,,,,,false,,,,319448,319448,316557,316541,316590,319490,8,400,,,
trial,html.Screen,4_87_0,2023-10-31T01:02:56.118Z,,0,2,,3936,response,ISIC_4197990.JPG,6,ISIC_5442834.JPG,ISIC_4197990.JPG,false,1,keypress(m),500,323394,323393,319457,319448,319490,323439,8,400,38,,ISIC_5442834.JPG
break,html.Screen,4_87_1,2023-10-31T01:02:56.119Z,,0,,,NaN,,,,,,false,,,,323395,323394,,323394,,323439,8,400,,,
break_continue,html.Screen,4_87_2,2023-10-31T01:02:56.119Z,,0,,,NaN,,,,,,false,,,,323395,323395,,323395,,323439,8,400,,,
sequence,flow.Sequence,4_87,2023-10-31T01:02:56.119Z,,0,,,3905,completion,,,,,false,,,,323395,323395,319457,319448,319490,323439,8,400,,,
trial,html.Screen,4_88_0,2023-10-31T01:02:58.806Z,,0,2,,2674,response,ISIC_6805527.JPG,4,ISIC_0033841.JPG,ISIC_6805527.JPG,false,1,keypress(m),500,326082,326081,323407,323395,323439,326123,8,400,39,,ISIC_0033841.JPG
break,html.Screen,4_88_1,2023-10-31T01:02:58.807Z,,0,,,NaN,,,,,,false,,,,326083,326082,,326082,,326123,8,400,,,
break_continue,html.Screen,4_88_2,2023-10-31T01:02:58.807Z,,0,,,NaN,,,,,,false,,,,326083,326083,,326083,,326123,8,400,,,
sequence,flow.Sequence,4_88,2023-10-31T01:02:58.807Z,,0,,,2644,completion,,,,,false,,,,326083,326083,323407,323395,323439,326123,8,400,,,
trial,html.Screen,4_89_0,2023-10-31T01:03:03.619Z,,0,2,,4805,response,ISIC_0011534.JPG,7,ISIC_0010533.JPG,ISIC_0011534.JPG,false,1,keypress(m),500,330895,330895,326090,326083,326123,330940,8,400,40,,ISIC_0010533.JPG
break,html.Screen,4_89_1,2023-10-31T01:03:03.620Z,,0,,,NaN,,,,,,false,,,,330896,330896,,330895,,330940,8,400,,,
break_continue,html.Screen,4_89_2,2023-10-31T01:03:03.620Z,,0,,,NaN,,,,,,false,,,,330896,330896,,330896,,330940,8,400,,,
sequence,flow.Sequence,4_89,2023-10-31T01:03:03.621Z,,0,,,4773,completion,,,,,false,,,,330896,330896,326090,326083,326123,330940,8,400,,,
trial,html.Screen,4_90_0,2023-10-31T01:03:08.225Z,,0,2,,4593,response,ISIC_2391053.JPG,6,ISIC_1979534.JPG,ISIC_1979534.JPG,false,0,keypress(z),500,335501.00000000006,335500,330907,330897,330940,335540,8,400,41,,ISIC_2391053.JPG
break,html.Screen,4_90_1,2023-10-31T01:03:08.226Z,,0,,,NaN,,,,,,false,,,,335502,335502,,335501.00000000006,,335540,8,400,,,
break_continue,html.Screen,4_90_2,2023-10-31T01:03:08.226Z,,0,,,NaN,,,,,,false,,,,335502,335502,,335502,,335540,8,400,,,
sequence,flow.Sequence,4_90,2023-10-31T01:03:08.227Z,,0,,,4562,completion,,,,,false,,,,335502,335502,330907,330897,330940,335540,8,400,,,
trial,html.Screen,4_91_0,2023-10-31T01:03:10.834Z,,0,2,,2603,response,ISIC_1473522.JPG,13,ISIC_0027751.JPG,ISIC_0027751.JPG,false,0,keypress(z),500,338110,338109,335506,335503,335540,338157,8,400,42,,ISIC_1473522.JPG
break,html.Screen,4_91_1,2023-10-31T01:03:10.835Z,,0,,,NaN,,,,,,false,,,,338111,338110,,338110,,338157,8,400,,,
break_continue,html.Screen,4_91_2,2023-10-31T01:03:10.835Z,,0,,,NaN,,,,,,false,,,,338111,338111,,338111,,338157,8,400,,,
sequence,flow.Sequence,4_91,2023-10-31T01:03:10.835Z,,0,,,2571,completion,,,,,false,,,,338111,338111,335506,335502,335540,338157,8,400,,,
trial,html.Screen,4_92_0,2023-10-31T01:03:13.452Z,,0,2,,2604.000000000058,response,ISIC_0027797.JPG,4,ISIC_8584239.JPG,ISIC_8584239.JPG,false,0,keypress(z),500,340728,340727.00000000006,338123,338111,338157,340773,8,400,43,,ISIC_0027797.JPG
break,html.Screen,4_92_1,2023-10-31T01:03:13.453Z,,0,,,NaN,,,,,,false,,,,340729,340729,,340728,,340773,8,400,,,
break_continue,html.Screen,4_92_2,2023-10-31T01:03:13.454Z,,0,,,NaN,,,,,,false,,,,340729,340729,,340729,,340773,8,400,,,
sequence,flow.Sequence,4_92,2023-10-31T01:03:13.454Z,,0,,,2572,completion,,,,,false,,,,340730,340729,338123,338111,338157,340773,8,400,,,
trial,html.Screen,4_93_0,2023-10-31T01:03:16.292Z,,0,2,,2827,response,ISIC_0073119.JPG,3,ISIC_0519386.JPG,ISIC_0519386.JPG,false,0,keypress(z),500,343568,343567,340740,340730,340773,343607,8,400,44,,ISIC_0073119.JPG
break,html.Screen,4_93_1,2023-10-31T01:03:16.293Z,,0,,,NaN,,,,,,false,,,,343569,343569,,343568,,343607,8,400,,,
break_continue,html.Screen,4_93_2,2023-10-31T01:03:16.293Z,,0,,,NaN,,,,,,false,,,,343569,343569,,343569,,343607,8,400,,,
sequence,flow.Sequence,4_93,2023-10-31T01:03:16.294Z,,0,,,2796,completion,,,,,false,,,,343569,343569,340740,340730,340773,343607,8,400,,,
trial,html.Screen,4_94_0,2023-10-31T01:03:19.213Z,,0,2,,2915,response,ISIC_5218773.JPG,7,ISIC_0069996.JPG,ISIC_0069996.JPG,false,0,keypress(z),500,346489.00000000006,346488,343573,343569,343607,346540,8,400,45,,ISIC_5218773.JPG
break,html.Screen,4_94_1,2023-10-31T01:03:19.214Z,,0,,,NaN,,,,,,false,,,,346490,346490,,346489.00000000006,,346540,8,400,,,
break_continue,html.Screen,4_94_2,2023-10-31T01:03:19.214Z,,0,,,NaN,,,,,,false,,,,346490,346490,,346490,,346540,8,400,,,
sequence,flow.Sequence,4_94,2023-10-31T01:03:19.215Z,,0,,,2883,completion,,,,,false,,,,346490,346490,343573,343569,343607,346540,8,400,,,
trial,html.Screen,4_95_0,2023-10-31T01:03:22.161Z,,0,2,,2930.000000000058,response,ISIC_4653167.JPG,8,ISIC_0003822.JPG,ISIC_4653167.JPG,false,1,keypress(m),500,349436.00000000006,349436.00000000006,346506,346490,346540,349490,8,400,46,,ISIC_0003822.JPG
break,html.Screen,4_95_1,2023-10-31T01:03:22.162Z,,0,,,NaN,,,,,,false,,,,349438,349437,,349437,,349490,8,400,,,
break_continue,html.Screen,4_95_2,2023-10-31T01:03:22.163Z,,0,,,NaN,,,,,,false,,,,349438,349438,,349438,,349490,8,400,,,
sequence,flow.Sequence,4_95,2023-10-31T01:03:22.163Z,,0,,,2898,completion,,,,,false,,,,349439,349438,346506,346490,346540,349490,8,400,,,
trial,html.Screen,4_96_0,2023-10-31T01:03:25.008Z,,0,2,,2826,response,ISIC_0069908.JPG,3,ISIC_0074311.JPG,ISIC_0069908.JPG,false,1,keypress(m),500,352283,352283,349457,349439,349490,352323,8,400,47,,ISIC_0074311.JPG
break,html.Screen,4_96_1,2023-10-31T01:03:25.009Z,,0,,,NaN,,,,,,false,,,,352285,352284,,352284,,352323,8,400,,,
break_continue,html.Screen,4_96_2,2023-10-31T01:03:25.009Z,,0,,,NaN,,,,,,false,,,,352285,352285,,352285,,352323,8,400,,,
sequence,flow.Sequence,4_96,2023-10-31T01:03:25.010Z,,0,,,2795,completion,,,,,false,,,,352285,352285,349457,349439,349490,352323,8,400,,,
trial,html.Screen,4_97_0,2023-10-31T01:03:28.015Z,,0,2,,3000,response,ISIC_0024864.JPG,4,ISIC_6945921.JPG,ISIC_0024864.JPG,false,1,keypress(m),500,355290,355290,352290,352285,352323,355339,8,400,48,,ISIC_6945921.JPG
break,html.Screen,4_97_1,2023-10-31T01:03:28.015Z,,0,,,NaN,,,,,,false,,,,355291,355291,,355291,,355339,8,400,,,
break_continue,html.Screen,4_97_2,2023-10-31T01:03:28.016Z,,0,,,NaN,,,,,,false,,,,355291,355291,,355291,,355339,8,400,,,
sequence,flow.Sequence,4_97,2023-10-31T01:03:28.016Z,,0,,,2968,completion,,,,,false,,,,355292.00000000006,355291,352290,352285,352323,355339,8,400,,,
trial,html.Screen,4_98_0,2023-10-31T01:03:30.965Z,,0,2,,2934,response,ISIC_4782878.JPG,7,ISIC_6284312.JPG,ISIC_6284312.JPG,false,0,keypress(z),500,358241,358241,355307,355292.00000000006,355339,358290,8,400,49,,ISIC_4782878.JPG
break,html.Screen,4_98_1,2023-10-31T01:03:30.966Z,,0,,,NaN,,,,,,false,,,,358242,358242,,358241,,358290,8,400,,,
break_continue,html.Screen,4_98_2,2023-10-31T01:03:30.967Z,,0,,,NaN,,,,,,false,,,,358242,358242,,358242,,358290,8,400,,,
sequence,flow.Sequence,4_98,2023-10-31T01:03:30.967Z,,0,,,2903,completion,,,,,false,,,,358242,358242,355307,355292.00000000006,355339,358290,8,400,,,
trial,html.Screen,4_99_0,2023-10-31T01:03:34.147Z,,0,2,,3165,response,ISIC_0001129.JPG,6,ISIC_1763577.JPG,ISIC_1763577.JPG,false,0,keypress(z),500,361423,361422,358257,358243,358290,361473,8,400,50,,ISIC_0001129.JPG
break,html.Screen,4_99_1,2023-10-31T01:03:44.165Z,,0,,,10000,timeout,,,,,false,,,,371440,371440,361440,361423,361473,371473,8,400,,,
break_continue,html.Screen,4_99_2,2023-10-31T01:03:45.325Z,,0,,,1144,response,,,,,false,continue,keypress(Space),,372601,372584,371440,371441.00000000006,371473,372640,8,400,,,
sequence,flow.Sequence,4_99,2023-10-31T01:03:45.325Z,,0,,,14294,completion,,,,,false,,,,372601,372584,358257,358243,358290,372640,8,400,,,
trial,html.Screen,4_100_0,2023-10-31T01:03:48.287Z,,0,3,,2957,response,ISIC_4401524.JPG,5,ISIC_0024259.JPG,ISIC_0024259.JPG,false,0,keypress(z),500,375563,375563,372606,372601,372640,375607,8,400,1,,ISIC_4401524.JPG
break,html.Screen,4_100_1,2023-10-31T01:03:48.288Z,,0,,,NaN,,,,,,false,,,,375564,375563,,375563,,375607,8,400,,,
break_continue,html.Screen,4_100_2,2023-10-31T01:03:48.288Z,,0,,,NaN,,,,,,false,,,,375564,375564,,375564,,375607,8,400,,,
sequence,flow.Sequence,4_100,2023-10-31T01:03:48.288Z,,0,,,2924,completion,,,,,false,,,,375564,375564,372606,372601,372640,375607,8,400,,,
trial,html.Screen,4_101_0,2023-10-31T01:03:50.942Z,,0,3,,2644,response,ISIC_9756858.JPG,4,ISIC_0061085.JPG,ISIC_0061085.JPG,false,0,keypress(z),500,378217,378217,375573,375564,375607,378257,8,400,2,,ISIC_9756858.JPG
break,html.Screen,4_101_1,2023-10-31T01:03:50.942Z,,0,,,NaN,,,,,,false,,,,378218,378218,,378217,,378257,8,400,,,
break_continue,html.Screen,4_101_2,2023-10-31T01:03:50.943Z,,0,,,NaN,,,,,,false,,,,378218,378218,,378218,,378257,8,400,,,
sequence,flow.Sequence,4_101,2023-10-31T01:03:50.943Z,,0,,,2611,completion,,,,,false,,,,378218,378218,375573,375564,375607,378257,8,400,,,
trial,html.Screen,4_102_0,2023-10-31T01:03:54.114Z,,0,3,,3166,response,ISIC_9560298.JPG,8,ISIC_1224329.JPG,ISIC_1224329.JPG,false,0,keypress(z),500,381389,381389,378223,378218,378257,381440,8,400,3,,ISIC_9560298.JPG
break,html.Screen,4_102_1,2023-10-31T01:03:54.114Z,,0,,,NaN,,,,,,false,,,,381390,381390,,381389,,381440,8,400,,,
break_continue,html.Screen,4_102_2,2023-10-31T01:03:54.115Z,,0,,,NaN,,,,,,false,,,,381390,381390,,381390,,381440,8,400,,,
sequence,flow.Sequence,4_102,2023-10-31T01:03:54.115Z,,0,,,3133,completion,,,,,false,,,,381390,381390,378223,378218,378257,381440,8,400,,,
trial,html.Screen,4_103_0,2023-10-31T01:03:56.878Z,,0,3,,2746,response,ISIC_6148533.JPG,10,ISIC_0063692.JPG,ISIC_0063692.JPG,false,0,keypress(z),500,384153,384153,381407,381390,381440,384206,8,400,4,,ISIC_6148533.JPG
break,html.Screen,4_103_1,2023-10-31T01:03:56.879Z,,0,,,NaN,,,,,,false,,,,384154,384154,,384154,,384206,8,400,,,
break_continue,html.Screen,4_103_2,2023-10-31T01:03:56.879Z,,0,,,NaN,,,,,,false,,,,384155.00000000006,384155.00000000006,,384155.00000000006,,384206,8,400,,,
sequence,flow.Sequence,4_103,2023-10-31T01:03:56.879Z,,0,,,2715.000000000058,completion,,,,,false,,,,384155.00000000006,384155.00000000006,381407,381390,381440,384206,8,400,,,
trial,html.Screen,4_104_0,2023-10-31T01:03:59.864Z,,0,3,,2966,response,ISIC_1414751.JPG,13,ISIC_9450906.JPG,ISIC_9450906.JPG,false,0,keypress(z),500,387140,387139,384173,384155.00000000006,384206,387190,8,400,5,,ISIC_1414751.JPG
break,html.Screen,4_104_1,2023-10-31T01:03:59.865Z,,0,,,NaN,,,,,,false,,,,387140,387140,,387140,,387190,8,400,,,
break_continue,html.Screen,4_104_2,2023-10-31T01:03:59.865Z,,0,,,NaN,,,,,,false,,,,387141,387141,,387141,,387190,8,400,,,
sequence,flow.Sequence,4_104,2023-10-31T01:03:59.865Z,,0,,,2935,completion,,,,,false,,,,387141,387141,384173,384155.00000000006,384206,387190,8,400,,,
trial,html.Screen,4_105_0,2023-10-31T01:04:03.049Z,,0,3,,3168,response,ISIC_6721869.JPG,2,ISIC_0033042.JPG,ISIC_0033042.JPG,false,0,keypress(z),500,390324,390324,387156,387141,387190,390373,8,400,6,,ISIC_6721869.JPG
break,html.Screen,4_105_1,2023-10-31T01:04:03.050Z,,0,,,NaN,,,,,,false,,,,390325,390325,,390324,,390373,8,400,,,
break_continue,html.Screen,4_105_2,2023-10-31T01:04:03.050Z,,0,,,NaN,,,,,,false,,,,390325,390325,,390325,,390373,8,400,,,
sequence,flow.Sequence,4_105,2023-10-31T01:04:03.050Z,,0,,,3135,completion,,,,,false,,,,390326,390325,387156,387141,387190,390373,8,400,,,
trial,html.Screen,4_106_0,2023-10-31T01:04:05.730Z,,0,3,,2666,response,ISIC_0070092.JPG,5,ISIC_5422940.JPG,ISIC_0070092.JPG,false,1,keypress(m),500,393006,393006,390340,390326,390373,393056,8,400,7,,ISIC_5422940.JPG
break,html.Screen,4_106_1,2023-10-31T01:04:05.732Z,,0,,,NaN,,,,,,false,,,,393007,393007,,393006,,393056,8,400,,,
break_continue,html.Screen,4_106_2,2023-10-31T01:04:05.732Z,,0,,,NaN,,,,,,false,,,,393008,393007,,393007,,393056,8,400,,,
sequence,flow.Sequence,4_106,2023-10-31T01:04:05.732Z,,0,,,2634,completion,,,,,false,,,,393008,393007,390340,390326,390373,393056,8,400,,,
trial,html.Screen,4_107_0,2023-10-31T01:04:08.583Z,,0,3,,2834,response,ISIC_0027171.JPG,3,ISIC_0071168.JPG,ISIC_0027171.JPG,false,1,keypress(m),500,395859,395858,393024,393008,393056,395907,8,400,8,,ISIC_0071168.JPG
break,html.Screen,4_107_1,2023-10-31T01:04:08.584Z,,0,,,NaN,,,,,,false,,,,395860,395859,,395859,,395907,8,400,,,
break_continue,html.Screen,4_107_2,2023-10-31T01:04:08.584Z,,0,,,NaN,,,,,,false,,,,395860,395860,,395860,,395907,8,400,,,
sequence,flow.Sequence,4_107,2023-10-31T01:04:08.585Z,,0,,,2804,completion,,,,,false,,,,395860,395860,393024,393008,393056,395907,8,400,,,
trial,html.Screen,4_108_0,2023-10-31T01:04:11.376Z,,0,3,,2777,response,ISIC_1569775.JPG,1,ISIC_0014255.JPG,ISIC_0014255.JPG,false,0,keypress(z),500,398652,398651,395874,395860,395907,398690,8,400,9,,ISIC_1569775.JPG
break,html.Screen,4_108_1,2023-10-31T01:04:11.377Z,,0,,,NaN,,,,,,false,,,,398653,398652,,398652,,398690,8,400,,,
break_continue,html.Screen,4_108_2,2023-10-31T01:04:11.377Z,,0,,,NaN,,,,,,false,,,,398653,398653,,398653,,398690,8,400,,,
sequence,flow.Sequence,4_108,2023-10-31T01:04:11.377Z,,0,,,2746,completion,,,,,false,,,,398653,398653,395874,395860,395907,398690,8,400,,,
trial,html.Screen,4_109_0,2023-10-31T01:04:14.640Z,,0,3,,3259,response,ISIC_0060656.JPG,5,ISIC_6234702.JPG,ISIC_0060656.JPG,false,1,keypress(m),500,401916,401915,398656,398653,398690,401957,8,400,10,,ISIC_6234702.JPG
break,html.Screen,4_109_1,2023-10-31T01:04:14.641Z,,0,,,NaN,,,,,,false,,,,401916,401916,,401916,,401957,8,400,,,
break_continue,html.Screen,4_109_2,2023-10-31T01:04:14.641Z,,0,,,NaN,,,,,,false,,,,401917.00000000006,401916,,401916,,401957,8,400,,,
sequence,flow.Sequence,4_109,2023-10-31T01:04:14.641Z,,0,,,3226,completion,,,,,false,,,,401917.00000000006,401916,398656,398653,398690,401957,8,400,,,
trial,html.Screen,4_110_0,2023-10-31T01:04:18.289Z,,0,3,,3641,response,ISIC_9579506.JPG,2,ISIC_0054459.JPG,ISIC_0054459.JPG,false,0,keypress(z),500,405564,405564,401923,401917.00000000006,401957,405607,8,400,11,,ISIC_9579506.JPG
break,html.Screen,4_110_1,2023-10-31T01:04:18.290Z,,0,,,NaN,,,,,,false,,,,405565,405565,,405565,,405607,8,400,,,
break_continue,html.Screen,4_110_2,2023-10-31T01:04:18.290Z,,0,,,NaN,,,,,,false,,,,405565,405565,,405565,,405607,8,400,,,
sequence,flow.Sequence,4_110,2023-10-31T01:04:18.290Z,,0,,,3608,completion,,,,,false,,,,405566.00000000006,405565,401923,401917.00000000006,401957,405607,8,400,,,
trial,html.Screen,4_111_0,2023-10-31T01:04:21.493Z,,0,3,,3195,response,ISIC_0069504.JPG,2,ISIC_3717983.JPG,ISIC_0069504.JPG,false,1,keypress(m),500,408769,408768,405573,405566.00000000006,405607,408807,8,400,12,,ISIC_3717983.JPG
break,html.Screen,4_111_1,2023-10-31T01:04:21.494Z,,0,,,NaN,,,,,,false,,,,408769,408769,,408769,,408807,8,400,,,
break_continue,html.Screen,4_111_2,2023-10-31T01:04:21.494Z,,0,,,NaN,,,,,,false,,,,408770,408769,,408769,,408807,8,400,,,
sequence,flow.Sequence,4_111,2023-10-31T01:04:21.494Z,,0,,,3162,completion,,,,,false,,,,408770,408769,405573,405566.00000000006,405607,408807,8,400,,,
trial,html.Screen,4_112_0,2023-10-31T01:04:25.117Z,,0,3,,3620,response,ISIC_0029591.JPG,5,ISIC_6423860.JPG,ISIC_0029591.JPG,false,1,keypress(m),500,412393,412393,408773,408770,408807,412440,8,400,13,,ISIC_6423860.JPG
break,html.Screen,4_112_1,2023-10-31T01:04:25.118Z,,0,,,NaN,,,,,,false,,,,412394,412394,,412393,,412440,8,400,,,
break_continue,html.Screen,4_112_2,2023-10-31T01:04:25.119Z,,0,,,NaN,,,,,,false,,,,412394,412394,,412394,,412440,8,400,,,
sequence,flow.Sequence,4_112,2023-10-31T01:04:25.119Z,,0,,,3587,completion,,,,,false,,,,412394,412394,408773,408770,408807,412440,8,400,,,
trial,html.Screen,4_113_0,2023-10-31T01:04:29.314Z,,0,3,,4182,response,ISIC_1690909.JPG,6,ISIC_4569077.JPG,ISIC_1690909.JPG,false,1,keypress(m),500,416589,416589,412407,412394,412440,416640,8,400,14,,ISIC_4569077.JPG
break,html.Screen,4_113_1,2023-10-31T01:04:29.315Z,,0,,,NaN,,,,,,false,,,,416590.00000000006,416590.00000000006,,416590.00000000006,,416640,8,400,,,
break_continue,html.Screen,4_113_2,2023-10-31T01:04:29.315Z,,0,,,NaN,,,,,,false,,,,416590.00000000006,416590.00000000006,,416590.00000000006,,416640,8,400,,,
sequence,flow.Sequence,4_113,2023-10-31T01:04:29.315Z,,0,,,4150.000000000058,completion,,,,,false,,,,416591,416590.00000000006,412407,412394,412440,416640,8,400,,,
trial,html.Screen,4_114_0,2023-10-31T01:04:32.255Z,,0,3,,2923.000000000058,response,ISIC_2153401.JPG,9,ISIC_2927587.JPG,ISIC_2153401.JPG,false,1,keypress(m),500,419530.00000000006,419530.00000000006,416607,416591,416640,419573,8,400,15,,ISIC_2927587.JPG
break,html.Screen,4_114_1,2023-10-31T01:04:32.255Z,,0,,,NaN,,,,,,false,,,,419531,419531,,419530.00000000006,,419573,8,400,,,
break_continue,html.Screen,4_114_2,2023-10-31T01:04:32.256Z,,0,,,NaN,,,,,,false,,,,419531,419531,,419531,,419573,8,400,,,
sequence,flow.Sequence,4_114,2023-10-31T01:04:32.256Z,,0,,,2891,completion,,,,,false,,,,419532,419531,416607,416591,416640,419573,8,400,,,
trial,html.Screen,4_115_0,2023-10-31T01:04:35.189Z,,0,3,,2924,response,ISIC_0032684.JPG,5,ISIC_5366657.JPG,ISIC_0032684.JPG,false,1,keypress(m),500,422464,422464,419540,419532,419573,422507,8,400,16,,ISIC_5366657.JPG
break,html.Screen,4_115_1,2023-10-31T01:04:35.190Z,,0,,,NaN,,,,,,false,,,,422465.00000000006,422465.00000000006,,422464,,422507,8,400,,,
break_continue,html.Screen,4_115_2,2023-10-31T01:04:35.190Z,,0,,,NaN,,,,,,false,,,,422465.00000000006,422465.00000000006,,422465.00000000006,,422507,8,400,,,
sequence,flow.Sequence,4_115,2023-10-31T01:04:35.190Z,,0,,,2892.000000000058,completion,,,,,false,,,,422465.00000000006,422465.00000000006,419540,419532,419573,422507,8,400,,,
trial,html.Screen,4_116_0,2023-10-31T01:04:38.306Z,,0,3,,3108,response,ISIC_0011780.JPG,9,ISIC_7896667.JPG,ISIC_7896667.JPG,false,0,keypress(z),500,425581,425581,422473,422465.00000000006,422507,425624,8,400,17,,ISIC_0011780.JPG
break,html.Screen,4_116_1,2023-10-31T01:04:38.307Z,,0,,,NaN,,,,,,false,,,,425583,425582,,425582,,425624,8,400,,,
break_continue,html.Screen,4_116_2,2023-10-31T01:04:38.307Z,,0,,,NaN,,,,,,false,,,,425583,425583,,425583,,425624,8,400,,,
sequence,flow.Sequence,4_116,2023-10-31T01:04:38.308Z,,0,,,3076,completion,,,,,false,,,,425583,425583,422473,422465.00000000006,422507,425624,8,400,,,
trial,html.Screen,4_117_0,2023-10-31T01:04:41.333Z,,0,3,,3018,response,ISIC_0059983.JPG,2,ISIC_0002745.JPG,ISIC_0059983.JPG,false,1,keypress(m),500,428608,428608,425590,425583,425624,428657,8,400,18,,ISIC_0002745.JPG
break,html.Screen,4_117_1,2023-10-31T01:04:41.334Z,,0,,,NaN,,,,,,false,,,,428609.00000000006,428609.00000000006,,428609.00000000006,,428657,8,400,,,
break_continue,html.Screen,4_117_2,2023-10-31T01:04:41.334Z,,0,,,NaN,,,,,,false,,,,428609.00000000006,428609.00000000006,,428609.00000000006,,428657,8,400,,,
sequence,flow.Sequence,4_117,2023-10-31T01:04:41.334Z,,0,,,2985.000000000058,completion,,,,,false,,,,428610,428609.00000000006,425590,425583,425624,428657,8,400,,,
trial,html.Screen,4_118_0,2023-10-31T01:04:45.112Z,,0,3,,3764,response,ISIC_2365588.JPG,4,ISIC_3356355.JPG,ISIC_3356355.JPG,false,0,keypress(z),500,432388.00000000006,432387,428623,428610,428657,432440,8,400,19,,ISIC_2365588.JPG
break,html.Screen,4_118_1,2023-10-31T01:04:45.113Z,,0,,,NaN,,,,,,false,,,,432389,432389,,432388.00000000006,,432440,8,400,,,
break_continue,html.Screen,4_118_2,2023-10-31T01:04:45.114Z,,0,,,NaN,,,,,,false,,,,432389,432389,,432389,,432440,8,400,,,
sequence,flow.Sequence,4_118,2023-10-31T01:04:45.114Z,,0,,,3732,completion,,,,,false,,,,432389,432389,428623,428610,428657,432440,8,400,,,
trial,html.Screen,4_119_0,2023-10-31T01:04:48.014Z,,0,3,,2882,response,ISIC_0056391.JPG,1,ISIC_4707475.JPG,ISIC_0056391.JPG,false,1,keypress(m),500,435290,435289,432407,432389,432440,435340,8,400,20,,ISIC_4707475.JPG
break,html.Screen,4_119_1,2023-10-31T01:04:48.015Z,,0,,,NaN,,,,,,false,,,,435291,435291,,435290,,435340,8,400,,,
break_continue,html.Screen,4_119_2,2023-10-31T01:04:48.016Z,,0,,,NaN,,,,,,false,,,,435291,435291,,435291,,435340,8,400,,,
sequence,flow.Sequence,4_119,2023-10-31T01:04:48.016Z,,0,,,2851,completion,,,,,false,,,,435292.00000000006,435291,432407,432389,432440,435340,8,400,,,
trial,html.Screen,4_120_0,2023-10-31T01:04:50.777Z,,0,3,,2745,response,ISIC_0056984.JPG,9,ISIC_0033975.JPG,ISIC_0056984.JPG,false,1,keypress(m),500,438052,438052,435307,435292.00000000006,435340,438090,8,400,21,,ISIC_0033975.JPG
break,html.Screen,4_120_1,2023-10-31T01:04:50.778Z,,0,,,NaN,,,,,,false,,,,438053,438053,,438052,,438090,8,400,,,
break_continue,html.Screen,4_120_2,2023-10-31T01:04:50.778Z,,0,,,NaN,,,,,,false,,,,438053,438053,,438053,,438090,8,400,,,
sequence,flow.Sequence,4_120,2023-10-31T01:04:50.778Z,,0,,,2713,completion,,,,,false,,,,438053,438053,435307,435292.00000000006,435340,438090,8,400,,,
trial,html.Screen,4_121_0,2023-10-31T01:04:53.717Z,,0,3,,2936,response,ISIC_2614347.JPG,2,ISIC_0025195.JPG,ISIC_0025195.JPG,false,0,keypress(z),500,440993,440992,438056,438054.00000000006,438090,441040,8,400,22,,ISIC_2614347.JPG
break,html.Screen,4_121_1,2023-10-31T01:04:53.718Z,,0,,,NaN,,,,,,false,,,,440994,440993,,440993,,441040,8,400,,,
break_continue,html.Screen,4_121_2,2023-10-31T01:04:53.719Z,,0,,,NaN,,,,,,false,,,,440994,440994,,440994,,441040,8,400,,,
sequence,flow.Sequence,4_121,2023-10-31T01:04:53.719Z,,0,,,2904,completion,,,,,false,,,,440994,440994,438056,438054.00000000006,438090,441040,8,400,,,
trial,html.Screen,4_122_0,2023-10-31T01:04:56.693Z,,0,3,,2961,response,ISIC_8438811.JPG,6,ISIC_0005879.JPG,ISIC_0005879.JPG,false,0,keypress(z),500,443969,443968,441007,440994,441040,444007,8,400,23,,ISIC_8438811.JPG
break,html.Screen,4_122_1,2023-10-31T01:04:56.694Z,,0,,,NaN,,,,,,false,,,,443969,443969,,443969,,444007,8,400,,,
break_continue,html.Screen,4_122_2,2023-10-31T01:04:56.694Z,,0,,,NaN,,,,,,false,,,,443970,443969,,443969,,444007,8,400,,,
sequence,flow.Sequence,4_122,2023-10-31T01:04:56.694Z,,0,,,2929,completion,,,,,false,,,,443970,443969,441007,440994,441040,444007,8,400,,,
trial,html.Screen,4_123_0,2023-10-31T01:04:59.340Z,,0,3,,2642,response,ISIC_3397377.JPG,8,ISIC_0030235.JPG,ISIC_3397377.JPG,false,1,keypress(m),500,446615,446615,443973,443970,444007,446657,8,400,24,,ISIC_0030235.JPG
break,html.Screen,4_123_1,2023-10-31T01:04:59.341Z,,0,,,NaN,,,,,,false,,,,446616,446616,,446615,,446657,8,400,,,
break_continue,html.Screen,4_123_2,2023-10-31T01:04:59.341Z,,0,,,NaN,,,,,,false,,,,446617,446617,,446616,,446657,8,400,,,
sequence,flow.Sequence,4_123,2023-10-31T01:04:59.341Z,,0,,,2610,completion,,,,,false,,,,446617,446617,443973,443970,444007,446657,8,400,,,
trial,html.Screen,4_124_0,2023-10-31T01:05:02.122Z,,0,3,,2774,response,ISIC_5037784.JPG,8,ISIC_7138875.JPG,ISIC_7138875.JPG,false,0,keypress(z),500,449398,449397,446623,446617,446657,449440,8,400,25,,ISIC_5037784.JPG
break,html.Screen,4_124_1,2023-10-31T01:05:02.123Z,,0,,,NaN,,,,,,false,,,,449399,449398,,449398,,449440,8,400,,,
break_continue,html.Screen,4_124_2,2023-10-31T01:05:02.124Z,,0,,,NaN,,,,,,false,,,,449399,449399,,449399,,449440,8,400,,,
sequence,flow.Sequence,4_124,2023-10-31T01:05:02.124Z,,0,,,2742,completion,,,,,false,,,,449399,449399,446623,446617,446657,449440,8,400,,,
trial,html.Screen,4_125_0,2023-10-31T01:05:04.717Z,,0,3,,2586,response,ISIC_0024900.JPG,6,ISIC_0250064.JPG,ISIC_0024900.JPG,false,1,keypress(m),500,451993,451992,449406,449399,449440,452040,8,400,26,,ISIC_0250064.JPG
break,html.Screen,4_125_1,2023-10-31T01:05:04.718Z,,0,,,NaN,,,,,,false,,,,451994,451993,,451993,,452040,8,400,,,
break_continue,html.Screen,4_125_2,2023-10-31T01:05:04.719Z,,0,,,NaN,,,,,,false,,,,451994,451994,,451994,,452040,8,400,,,
sequence,flow.Sequence,4_125,2023-10-31T01:05:04.719Z,,0,,,2554,completion,,,,,false,,,,451994,451994,449406,449399,449440,452040,8,400,,,
trial,html.Screen,4_126_0,2023-10-31T01:05:07.378Z,,0,3,,2646,response,ISIC_0029198.JPG,6,ISIC_2911251.JPG,ISIC_0029198.JPG,false,1,keypress(m),500,454654,454653,452007,451994,452040,454706,8,400,27,,ISIC_2911251.JPG
break,html.Screen,4_126_1,2023-10-31T01:05:07.379Z,,0,,,NaN,,,,,,false,,,,454655.00000000006,454654,,454654,,454706,8,400,,,
break_continue,html.Screen,4_126_2,2023-10-31T01:05:07.380Z,,0,,,NaN,,,,,,false,,,,454655.00000000006,454655.00000000006,,454655.00000000006,,454706,8,400,,,
sequence,flow.Sequence,4_126,2023-10-31T01:05:07.380Z,,0,,,2615.000000000058,completion,,,,,false,,,,454655.00000000006,454655.00000000006,452007,451994,452040,454706,8,400,,,
trial,html.Screen,4_127_0,2023-10-31T01:05:10.073Z,,0,3,,2674,response,ISIC_0024796.JPG,5,ISIC_0028757.JPG,ISIC_0028757.JPG,false,0,keypress(z),500,457348,457348,454674,454655.00000000006,454706,457390,8,400,28,,ISIC_0024796.JPG
break,html.Screen,4_127_1,2023-10-31T01:05:10.074Z,,0,,,NaN,,,,,,false,,,,457349,457349,,457348,,457390,8,400,,,
break_continue,html.Screen,4_127_2,2023-10-31T01:05:10.074Z,,0,,,NaN,,,,,,false,,,,457349,457349,,457349,,457390,8,400,,,
sequence,flow.Sequence,4_127,2023-10-31T01:05:10.074Z,,0,,,2643,completion,,,,,false,,,,457349,457349,454674,454655.00000000006,454706,457390,8,400,,,
trial,html.Screen,4_128_0,2023-10-31T01:05:13.207Z,,0,3,,3125,response,ISIC_7758102.JPG,8,ISIC_4289906.JPG,ISIC_7758102.JPG,false,1,keypress(m),500,460483,460482,457357,457349,457390,460524,8,400,29,,ISIC_4289906.JPG
break,html.Screen,4_128_1,2023-10-31T01:05:13.209Z,,0,,,NaN,,,,,,false,,,,460484.00000000006,460484.00000000006,,460483,,460524,8,400,,,
break_continue,html.Screen,4_128_2,2023-10-31T01:05:13.209Z,,0,,,NaN,,,,,,false,,,,460484.00000000006,460484.00000000006,,460484.00000000006,,460524,8,400,,,
sequence,flow.Sequence,4_128,2023-10-31T01:05:13.209Z,,0,,,3094.000000000058,completion,,,,,false,,,,460485,460484.00000000006,457357,457349,457390,460524,8,400,,,
trial,html.Screen,4_129_0,2023-10-31T01:05:16.034Z,,0,3,,2819,response,ISIC_0760740.JPG,5,ISIC_7131359.JPG,ISIC_7131359.JPG,false,0,keypress(z),500,463309,463309,460490,460485,460524,463357,8,400,30,,ISIC_0760740.JPG
break,html.Screen,4_129_1,2023-10-31T01:05:16.039Z,,0,,,NaN,,,,,,false,,,,463314,463311.00000000006,,463311.00000000006,,463357,8,400,,,
break_continue,html.Screen,4_129_2,2023-10-31T01:05:16.040Z,,0,,,NaN,,,,,,false,,,,463316.00000000006,463316.00000000006,,463314,,463357,8,400,,,
sequence,flow.Sequence,4_129,2023-10-31T01:05:16.040Z,,0,,,2792.000000000058,completion,,,,,false,,,,463316.00000000006,463316.00000000006,460490,460485,460524,463357,8,400,,,
trial,html.Screen,4_130_0,2023-10-31T01:05:18.707Z,,0,3,,2658,response,ISIC_0034243.JPG,7,ISIC_0027620.JPG,ISIC_0034243.JPG,false,1,keypress(m),500,465982,465982,463324,463316.00000000006,463357,466024,8,400,31,,ISIC_0027620.JPG
break,html.Screen,4_130_1,2023-10-31T01:05:18.708Z,,0,,,NaN,,,,,,false,,,,465983,465983,,465982,,466024,8,400,,,
break_continue,html.Screen,4_130_2,2023-10-31T01:05:18.708Z,,0,,,NaN,,,,,,false,,,,465983,465983,,465983,,466024,8,400,,,
sequence,flow.Sequence,4_130,2023-10-31T01:05:18.708Z,,0,,,2626,completion,,,,,false,,,,465983,465983,463324,463316.00000000006,463357,466024,8,400,,,
trial,html.Screen,4_131_0,2023-10-31T01:05:21.401Z,,0,3,,2686,response,ISIC_5993530.JPG,6,ISIC_0069591.JPG,ISIC_0069591.JPG,false,0,keypress(z),500,468676,468676,465990,465983,466024,468724,8,400,32,,ISIC_5993530.JPG
break,html.Screen,4_131_1,2023-10-31T01:05:21.402Z,,0,,,NaN,,,,,,false,,,,468677,468677,,468676,,468724,8,400,,,
break_continue,html.Screen,4_131_2,2023-10-31T01:05:21.403Z,,0,,,NaN,,,,,,false,,,,468678,468678,,468678,,468724,8,400,,,
sequence,flow.Sequence,4_131,2023-10-31T01:05:21.403Z,,0,,,2654,completion,,,,,false,,,,468678,468678,465990,465983,466024,468724,8,400,,,
trial,html.Screen,4_132_0,2023-10-31T01:05:24.651Z,,0,3,,3236,response,ISIC_0013953.JPG,5,ISIC_2489146.JPG,ISIC_0013953.JPG,false,1,keypress(m),500,471926,471926,468690,468678,468724,471974,8,400,33,,ISIC_2489146.JPG
break,html.Screen,4_132_1,2023-10-31T01:05:24.652Z,,0,,,NaN,,,,,,false,,,,471927,471927,,471926,,471974,8,400,,,
break_continue,html.Screen,4_132_2,2023-10-31T01:05:24.652Z,,0,,,NaN,,,,,,false,,,,471927,471927,,471927,,471974,8,400,,,
sequence,flow.Sequence,4_132,2023-10-31T01:05:24.652Z,,0,,,3203,completion,,,,,false,,,,471927,471927,468690,468678,468724,471974,8,400,,,
trial,html.Screen,4_133_0,2023-10-31T01:05:28.240Z,,0,3,,3575,response,ISIC_0060832.JPG,7,ISIC_0061336.JPG,ISIC_0060832.JPG,false,1,keypress(m),500,475515,475515,471940,471928,471974,475557,8,400,34,,ISIC_0061336.JPG
break,html.Screen,4_133_1,2023-10-31T01:05:28.241Z,,0,,,NaN,,,,,,false,,,,475516,475516,,475515,,475557,8,400,,,
break_continue,html.Screen,4_133_2,2023-10-31T01:05:28.241Z,,0,,,NaN,,,,,,false,,,,475517,475516,,475516,,475557,8,400,,,
sequence,flow.Sequence,4_133,2023-10-31T01:05:28.241Z,,0,,,3542,completion,,,,,false,,,,475517,475516,471940,471928,471974,475557,8,400,,,
trial,html.Screen,4_134_0,2023-10-31T01:05:30.890Z,,0,3,,2642,response,ISIC_0068886.JPG,4,ISIC_0012450.JPG,ISIC_0068886.JPG,false,1,keypress(m),500,478165,478165,475523,475517,475557,478207,8,400,35,,ISIC_0012450.JPG
break,html.Screen,4_134_1,2023-10-31T01:05:30.891Z,,0,,,NaN,,,,,,false,,,,478166,478166,,478166,,478207,8,400,,,
break_continue,html.Screen,4_134_2,2023-10-31T01:05:30.891Z,,0,,,NaN,,,,,,false,,,,478167.00000000006,478166,,478166,,478207,8,400,,,
sequence,flow.Sequence,4_134,2023-10-31T01:05:30.891Z,,0,,,2609,completion,,,,,false,,,,478167.00000000006,478166,475523,475517,475557,478207,8,400,,,
trial,html.Screen,4_135_0,2023-10-31T01:05:33.760Z,,0,3,,2862,response,ISIC_0032258.JPG,5,ISIC_7526530.JPG,ISIC_0032258.JPG,false,1,keypress(m),500,481036,481035,478173,478167.00000000006,478207,481074,8,400,36,,ISIC_7526530.JPG
break,html.Screen,4_135_1,2023-10-31T01:05:33.761Z,,0,,,NaN,,,,,,false,,,,481037.00000000006,481036,,481036,,481074,8,400,,,
break_continue,html.Screen,4_135_2,2023-10-31T01:05:33.762Z,,0,,,NaN,,,,,,false,,,,481037.00000000006,481037.00000000006,,481037.00000000006,,481074,8,400,,,
sequence,flow.Sequence,4_135,2023-10-31T01:05:33.762Z,,0,,,2830.000000000058,completion,,,,,false,,,,481037.00000000006,481037.00000000006,478173,478167.00000000006,478207,481074,8,400,,,
trial,html.Screen,4_136_0,2023-10-31T01:05:36.774Z,,0,3,,3009.000000000058,response,ISIC_0071367.JPG,5,ISIC_7277310.JPG,ISIC_0071367.JPG,false,1,keypress(m),500,484049.00000000006,484049.00000000006,481040,481037.00000000006,481074,484090,8,400,37,,ISIC_7277310.JPG
break,html.Screen,4_136_1,2023-10-31T01:05:36.775Z,,0,,,NaN,,,,,,false,,,,484050,484050,,484050,,484090,8,400,,,
break_continue,html.Screen,4_136_2,2023-10-31T01:05:36.775Z,,0,,,NaN,,,,,,false,,,,484051,484051,,484050,,484090,8,400,,,
sequence,flow.Sequence,4_136,2023-10-31T01:05:36.775Z,,0,,,2977,completion,,,,,false,,,,484051,484051,481040,481037.00000000006,481074,484090,8,400,,,
trial,html.Screen,4_137_0,2023-10-31T01:05:39.887Z,,0,3,,3105.000000000058,response,ISIC_1558504.JPG,6,ISIC_0029374.JPG,ISIC_1558504.JPG,false,1,keypress(m),500,487162.00000000006,487162.00000000006,484057,484051,484090,487207,8,400,38,,ISIC_0029374.JPG
break,html.Screen,4_137_1,2023-10-31T01:05:39.888Z,,0,,,NaN,,,,,,false,,,,487163,487163,,487162.00000000006,,487207,8,400,,,
break_continue,html.Screen,4_137_2,2023-10-31T01:05:39.888Z,,0,,,NaN,,,,,,false,,,,487163,487163,,487163,,487207,8,400,,,
sequence,flow.Sequence,4_137,2023-10-31T01:05:39.888Z,,0,,,3073,completion,,,,,false,,,,487163,487163,484057,484051,484090,487207,8,400,,,
trial,html.Screen,4_138_0,2023-10-31T01:05:42.808Z,,0,3,,2908,response,ISIC_0030843.JPG,4,ISIC_0813423.JPG,ISIC_0813423.JPG,false,0,keypress(z),500,490083,490082,487174,487164,487207,490124,8,400,39,,ISIC_0030843.JPG
break,html.Screen,4_138_1,2023-10-31T01:05:42.809Z,,0,,,NaN,,,,,,false,,,,490084,490084,,490083,,490124,8,400,,,
break_continue,html.Screen,4_138_2,2023-10-31T01:05:42.809Z,,0,,,NaN,,,,,,false,,,,490084,490084,,490084,,490124,8,400,,,
sequence,flow.Sequence,4_138,2023-10-31T01:05:42.809Z,,0,,,2877,completion,,,,,false,,,,490085.00000000006,490084,487174,487163,487207,490124,8,400,,,
trial,html.Screen,4_139_0,2023-10-31T01:05:45.437Z,,0,3,,2622,response,ISIC_0067727.JPG,6,ISIC_2468509.JPG,ISIC_0067727.JPG,false,1,keypress(m),500,492712,492712,490090,490085.00000000006,490124,492757,8,400,40,,ISIC_2468509.JPG
break,html.Screen,4_139_1,2023-10-31T01:05:45.438Z,,0,,,NaN,,,,,,false,,,,492713,492713,,492712,,492757,8,400,,,
break_continue,html.Screen,4_139_2,2023-10-31T01:05:45.438Z,,0,,,NaN,,,,,,false,,,,492714,492713,,492713,,492757,8,400,,,
sequence,flow.Sequence,4_139,2023-10-31T01:05:45.438Z,,0,,,2589,completion,,,,,false,,,,492714,492713,490090,490085.00000000006,490124,492757,8,400,,,
trial,html.Screen,4_140_0,2023-10-31T01:05:48.519Z,,0,3,,3070,response,ISIC_8671702.JPG,7,ISIC_9090822.JPG,ISIC_8671702.JPG,false,1,keypress(m),500,495795,495794,492724,492714,492757,495840,8,400,41,,ISIC_9090822.JPG
break,html.Screen,4_140_1,2023-10-31T01:05:48.520Z,,0,,,NaN,,,,,,false,,,,495795,495795,,495795,,495840,8,400,,,
break_continue,html.Screen,4_140_2,2023-10-31T01:05:48.520Z,,0,,,NaN,,,,,,false,,,,495796,495796,,495796,,495840,8,400,,,
sequence,flow.Sequence,4_140,2023-10-31T01:05:48.521Z,,0,,,3039,completion,,,,,false,,,,495796,495796,492724,492714,492757,495840,8,400,,,
trial,html.Screen,4_141_0,2023-10-31T01:05:51.381Z,,0,3,,2848.000000000058,response,ISIC_0001137.JPG,5,ISIC_9291926.JPG,ISIC_9291926.JPG,false,0,keypress(z),500,498656,498655.00000000006,495807,495796,495840,498707,8,400,42,,ISIC_0001137.JPG
break,html.Screen,4_141_1,2023-10-31T01:05:51.382Z,,0,,,NaN,,,,,,false,,,,498657,498657,,498656,,498707,8,400,,,
break_continue,html.Screen,4_141_2,2023-10-31T01:05:51.382Z,,0,,,NaN,,,,,,false,,,,498657,498657,,498657,,498707,8,400,,,
sequence,flow.Sequence,4_141,2023-10-31T01:05:51.382Z,,0,,,2817,completion,,,,,false,,,,498658,498657,495807,495796,495840,498707,8,400,,,
trial,html.Screen,4_142_0,2023-10-31T01:05:54.287Z,,0,3,,2889,response,ISIC_4131697.JPG,0,ISIC_5005961.JPG,ISIC_4131697.JPG,false,1,keypress(m),500,501562,501562,498673,498658,498707,501607,8,400,43,,ISIC_5005961.JPG
break,html.Screen,4_142_1,2023-10-31T01:05:54.288Z,,0,,,NaN,,,,,,false,,,,501564,501563,,501563,,501607,8,400,,,
break_continue,html.Screen,4_142_2,2023-10-31T01:05:54.289Z,,0,,,NaN,,,,,,false,,,,501564,501564,,501564,,501607,8,400,,,
sequence,flow.Sequence,4_142,2023-10-31T01:05:54.289Z,,0,,,2857,completion,,,,,false,,,,501564,501564,498673,498658,498707,501607,8,400,,,
trial,html.Screen,4_143_0,2023-10-31T01:05:56.985Z,,0,3,,2685,response,ISIC_4538207.JPG,8,ISIC_7260492.JPG,ISIC_4538207.JPG,false,1,keypress(m),500,504260,504259,501574,501564,501607,504307,8,400,44,,ISIC_7260492.JPG
break,html.Screen,4_143_1,2023-10-31T01:05:56.986Z,,0,,,NaN,,,,,,false,,,,504261,504261,,504260,,504307,8,400,,,
break_continue,html.Screen,4_143_2,2023-10-31T01:05:56.986Z,,0,,,NaN,,,,,,false,,,,504261,504261,,504261,,504307,8,400,,,
sequence,flow.Sequence,4_143,2023-10-31T01:05:56.986Z,,0,,,2654,completion,,,,,false,,,,504261,504261,501574,501564,501607,504307,8,400,,,
trial,html.Screen,4_144_0,2023-10-31T01:05:59.992Z,,0,3,,2993,response,ISIC_5980439.JPG,4,ISIC_8451869.JPG,ISIC_8451869.JPG,false,0,keypress(z),500,507268,507267,504274,504261,504307,507307,8,400,45,,ISIC_5980439.JPG
break,html.Screen,4_144_1,2023-10-31T01:05:59.993Z,,0,,,NaN,,,,,,false,,,,507269,507268,,507268,,507307,8,400,,,
break_continue,html.Screen,4_144_2,2023-10-31T01:05:59.994Z,,0,,,NaN,,,,,,false,,,,507269,507269,,507269,,507307,8,400,,,
sequence,flow.Sequence,4_144,2023-10-31T01:05:59.994Z,,0,,,2962,completion,,,,,false,,,,507269,507269,504274,504261,504307,507307,8,400,,,
trial,html.Screen,4_145_0,2023-10-31T01:06:03.081Z,,0,3,,3083,response,ISIC_0821520.JPG,4,ISIC_0011793.JPG,ISIC_0011793.JPG,false,0,keypress(z),500,510356,510356,507273,507269,507307,510407,8,400,46,,ISIC_0821520.JPG
break,html.Screen,4_145_1,2023-10-31T01:06:03.082Z,,0,,,NaN,,,,,,false,,,,510357,510357,,510356,,510407,8,400,,,
break_continue,html.Screen,4_145_2,2023-10-31T01:06:03.082Z,,0,,,NaN,,,,,,false,,,,510357,510357,,510357,,510407,8,400,,,
sequence,flow.Sequence,4_145,2023-10-31T01:06:03.082Z,,0,,,3050,completion,,,,,false,,,,510358,510357,507273,507269,507307,510407,8,400,,,
trial,html.Screen,4_146_0,2023-10-31T01:06:05.908Z,,0,3,,2809,response,ISIC_4564163.JPG,7,ISIC_4294705.JPG,ISIC_4294705.JPG,false,0,keypress(z),500,513183,513183,510374,510358,510407,513224,8,400,47,,ISIC_4564163.JPG
break,html.Screen,4_146_1,2023-10-31T01:06:05.909Z,,0,,,NaN,,,,,,false,,,,513183.99999999994,513183.99999999994,,513183.99999999994,,513224,8,400,,,
break_continue,html.Screen,4_146_2,2023-10-31T01:06:05.909Z,,0,,,NaN,,,,,,false,,,,513185.00000000006,513185.00000000006,,513185.00000000006,,513224,8,400,,,
sequence,flow.Sequence,4_146,2023-10-31T01:06:05.910Z,,0,,,2778.000000000058,completion,,,,,false,,,,513185.00000000006,513185.00000000006,510374,510358,510407,513224,8,400,,,
trial,html.Screen,4_147_0,2023-10-31T01:06:09.419Z,,0,3,,3503.999999999942,response,ISIC_5305288.JPG,5,ISIC_0034183.JPG,ISIC_5305288.JPG,false,1,keypress(m),500,516695.00000000006,516693.99999999994,513190,513185.00000000006,513224,516740,8,400,48,,ISIC_0034183.JPG
break,html.Screen,4_147_1,2023-10-31T01:06:09.420Z,,0,,,NaN,,,,,,false,,,,516696,516695.00000000006,,516695.00000000006,,516740,8,400,,,
break_continue,html.Screen,4_147_2,2023-10-31T01:06:09.421Z,,0,,,NaN,,,,,,false,,,,516696,516696,,516696,,516740,8,400,,,
sequence,flow.Sequence,4_147,2023-10-31T01:06:09.421Z,,0,,,3472,completion,,,,,false,,,,516696,516696,513190,513185.00000000006,513224,516740,8,400,,,
trial,html.Screen,4_148_0,2023-10-31T01:06:12.983Z,,0,3,,3551.000000000058,response,ISIC_7453676.JPG,8,ISIC_9027622.JPG,ISIC_7453676.JPG,false,1,keypress(m),500,520258.00000000006,520258.00000000006,516707,516696,516740,520307,8,400,49,,ISIC_9027622.JPG
break,html.Screen,4_148_1,2023-10-31T01:06:12.984Z,,0,,,NaN,,,,,,false,,,,520260,520259,,520259,,520307,8,400,,,
break_continue,html.Screen,4_148_2,2023-10-31T01:06:12.985Z,,0,,,NaN,,,,,,false,,,,520260,520260,,520260,,520307,8,400,,,
sequence,flow.Sequence,4_148,2023-10-31T01:06:12.985Z,,0,,,3520,completion,,,,,false,,,,520260,520260,516707,516696,516740,520307,8,400,,,
trial,html.Screen,4_149_0,2023-10-31T01:06:16.766Z,,0,3,,3767.000000000058,response,ISIC_0822116.JPG,8,ISIC_0000393.JPG,ISIC_0822116.JPG,false,1,keypress(m),500,524041.00000000006,524041.00000000006,520274,520260,520307,524091,8,400,50,,ISIC_0000393.JPG
break,html.Screen,4_149_1,2023-10-31T01:06:26.783Z,,0,,,10000,timeout,,,,,false,,,,534058,534057,524057,524042.00000000006,524091,534091,8,400,,,
break_continue,html.Screen,4_149_2,2023-10-31T01:06:28.020Z,,0,,,1216,response,,,,,false,continue,keypress(Space),,535296,535273,534057,534058,534091,535341,8,400,,,
sequence,flow.Sequence,4_149,2023-10-31T01:06:28.021Z,,0,,,14966,completion,,,,,false,,,,535296,535273,520274,520260,520307,535341,8,400,,,
trial,html.Screen,4_150_0,2023-10-31T01:06:31.002Z,,0,4,,2969.0000000001164,response,ISIC_4237064.JPG,8,ISIC_5490352.JPG,ISIC_4237064.JPG,false,1,keypress(m),500,538277,538276.0000000001,535307,535296,535341,538324,8,400,1,,ISIC_5490352.JPG
break,html.Screen,4_150_1,2023-10-31T01:06:31.003Z,,0,,,NaN,,,,,,false,,,,538278,538278,,538277,,538324,8,400,,,
break_continue,html.Screen,4_150_2,2023-10-31T01:06:31.003Z,,0,,,NaN,,,,,,false,,,,538279,538278,,538278,,538324,8,400,,,
sequence,flow.Sequence,4_150,2023-10-31T01:06:31.004Z,,0,,,2937,completion,,,,,false,,,,538279,538278,535307,535296,535341,538324,8,400,,,
trial,html.Screen,4_151_0,2023-10-31T01:06:33.862Z,,0,4,,2846,response,ISIC_3992223.JPG,7,ISIC_0029906.JPG,ISIC_0029906.JPG,false,0,keypress(z),500,541137,541136,538290,538279,538324,541191,8,400,2,,ISIC_3992223.JPG
break,html.Screen,4_151_1,2023-10-31T01:06:33.863Z,,0,,,NaN,,,,,,false,,,,541138,541138,,541137,,541191,8,400,,,
break_continue,html.Screen,4_151_2,2023-10-31T01:06:33.864Z,,0,,,NaN,,,,,,false,,,,541139,541138,,541138,,541191,8,400,,,
sequence,flow.Sequence,4_151,2023-10-31T01:06:33.864Z,,0,,,2814,completion,,,,,false,,,,541139,541138,538290,538279,538324,541191,8,400,,,
trial,html.Screen,4_152_0,2023-10-31T01:06:36.685Z,,0,4,,2803,response,ISIC_9756858.JPG,14,ISIC_0063544.JPG,ISIC_0063544.JPG,false,0,keypress(z),500,543960,543960,541157,541139,541191,544007,8,400,3,,ISIC_9756858.JPG
break,html.Screen,4_152_1,2023-10-31T01:06:36.686Z,,0,,,NaN,,,,,,false,,,,543961,543961,,543960,,544007,8,400,,,
break_continue,html.Screen,4_152_2,2023-10-31T01:06:36.686Z,,0,,,NaN,,,,,,false,,,,543961,543961,,543961,,544007,8,400,,,
sequence,flow.Sequence,4_152,2023-10-31T01:06:36.686Z,,0,,,2770,completion,,,,,false,,,,543961,543961,541157,541139,541191,544007,8,400,,,
trial,html.Screen,4_153_0,2023-10-31T01:06:39.425Z,,0,4,,2727,response,ISIC_0059257.JPG,0,ISIC_0000279.JPG,ISIC_0000279.JPG,false,0,keypress(z),500,546701,546700,543973,543961,544007,546740,8,400,4,,ISIC_0059257.JPG
break,html.Screen,4_153_1,2023-10-31T01:06:39.426Z,,0,,,NaN,,,,,,false,,,,546702,546701,,546701,,546740,8,400,,,
break_continue,html.Screen,4_153_2,2023-10-31T01:06:39.427Z,,0,,,NaN,,,,,,false,,,,546702,546702,,546702,,546740,8,400,,,
sequence,flow.Sequence,4_153,2023-10-31T01:06:39.427Z,,0,,,2695,completion,,,,,false,,,,546702,546702,543973,543961,544007,546740,8,400,,,
trial,html.Screen,4_154_0,2023-10-31T01:06:42.285Z,,0,4,,2852,response,ISIC_0032559.JPG,0,ISIC_8306983.JPG,ISIC_0032559.JPG,false,1,keypress(m),500,549560.0000000001,549559,546707,546702,546740,549607,8,400,5,,ISIC_8306983.JPG
break,html.Screen,4_154_1,2023-10-31T01:06:42.286Z,,0,,,NaN,,,,,,false,,,,549561,549561,,549560.0000000001,,549607,8,400,,,
break_continue,html.Screen,4_154_2,2023-10-31T01:06:42.286Z,,0,,,NaN,,,,,,false,,,,549561,549561,,549561,,549607,8,400,,,
sequence,flow.Sequence,4_154,2023-10-31T01:06:42.286Z,,0,,,2821,completion,,,,,false,,,,549561,549561,546707,546702,546740,549607,8,400,,,
trial,html.Screen,4_155_0,2023-10-31T01:06:45.047Z,,0,4,,2748,response,ISIC_9268141.JPG,4,ISIC_5278307.JPG,ISIC_5278307.JPG,false,0,keypress(z),500,552322,552321,549573,549561,549607,552374,8,400,6,,ISIC_9268141.JPG
break,html.Screen,4_155_1,2023-10-31T01:06:45.048Z,,0,,,NaN,,,,,,false,,,,552323,552323,,552322,,552374,8,400,,,
break_continue,html.Screen,4_155_2,2023-10-31T01:06:45.048Z,,0,,,NaN,,,,,,false,,,,552323,552323,,552323,,552374,8,400,,,
sequence,flow.Sequence,4_155,2023-10-31T01:06:45.048Z,,0,,,2716,completion,,,,,false,,,,552324,552323,549573,549561,549607,552374,8,400,,,
trial,html.Screen,4_156_0,2023-10-31T01:06:48.083Z,,0,4,,3016,response,ISIC_1700051.JPG,9,ISIC_0068966.JPG,ISIC_0068966.JPG,false,0,keypress(z),500,555358.0000000001,555357,552341,552324,552374,555407,8,400,7,,ISIC_1700051.JPG
break,html.Screen,4_156_1,2023-10-31T01:06:48.084Z,,0,,,NaN,,,,,,false,,,,555359,555359,,555358.0000000001,,555407,8,400,,,
break_continue,html.Screen,4_156_2,2023-10-31T01:06:48.084Z,,0,,,NaN,,,,,,false,,,,555359,555359,,555359,,555407,8,400,,,
sequence,flow.Sequence,4_156,2023-10-31T01:06:48.084Z,,0,,,2985,completion,,,,,false,,,,555359,555359,552341,552324,552374,555407,8,400,,,
trial,html.Screen,4_157_0,2023-10-31T01:06:50.749Z,,0,4,,2649,response,ISIC_0000175.JPG,7,ISIC_9307584.JPG,ISIC_9307584.JPG,false,0,keypress(z),500,558024,558023,555374,555360,555407,558074,8,400,8,,ISIC_0000175.JPG
break,html.Screen,4_157_1,2023-10-31T01:06:50.750Z,,0,,,NaN,,,,,,false,,,,558025,558025,,558024,,558074,8,400,,,
break_continue,html.Screen,4_157_2,2023-10-31T01:06:50.750Z,,0,,,NaN,,,,,,false,,,,558025,558025,,558025,,558074,8,400,,,
