sender,sender_type,sender_id,timestamp,meta,,blockNo,condition,duration,ended_on,img_left,img_reveal,img_right,loser,practice,response,response_action,selection_duration,time_commit,time_end,time_render,time_run,time_show,time_switch,total_blocks,total_trials,trialNo,url,winner
informed_consent,html.Screen,0,2023-11-01T23:02:32.932Z,"{""labjs_version"":""20.2.4"",""labjs_build"":{""flavor"":""production"",""commit"":""f5b4a49f956347addd546a832a3327688c2c0fef""},""location"":""https://run.pavlovia.org/MurrayBennett/melanoma-2afc/?participant=67569&platform=sona"",""userAgent"":""Mozilla/5.0 (Windows NT 10.0; Win64; x64) AppleWebKit/537.36 (KHTML, like Gecko) Chrome/118.0.0.0 Safari/537.36 Edg/118.0.2088.76"",""platform"":""Win32"",""language"":""en-US"",""locale"":""en-US"",""timeZone"":""America/Los_Angeles"",""timezoneOffset"":420,""screen_width"":1920,""screen_height"":1080,""scroll_width"":1703,""scroll_height"":900,""window_innerWidth"":1703,""window_innerHeight"":948,""devicePixelRatio"":1}",,,,4716.942000000186,response,,,,,,consent,click button,,6729.5,6728.700000000186,1878.36,2015.2000000001863,2011.758,6733.139,,,,"{""participant"":""67569"",""platform"":""sona""}",
Welcome,html.Screen,1,2023-11-01T23:02:34.468Z,,,,colourful,1531.6610000002793,response,,,,,,continue,click button,,8265.200000000186,8264.80000000028,6719.843,6729.600000000093,6733.139,8266.929,,,,,
trial,html.Screen,2_0_0,2023-11-01T23:02:45.954Z,,0,0,,11510.108,timeout,ISIC_0063388.JPG,,ISIC_0025593.JPG,,true,,,500,19751.400000000373,19751.100000000093,8253.693,8265.30000000028,8266.929,19777.037,1,6,1,,
sequence,flow.Sequence,2_0,2023-11-01T23:02:45.954Z,,0,,,11484.171000000093,completion,,,,,true,,,,19751.700000000186,19751.100000000093,8253.693,8265.30000000028,8266.929,19777.037,1,6,,,
trial,html.Screen,2_1_0,2023-11-01T23:02:53.108Z,,0,0,,7127.563000000093,response,ISIC_0028178.JPG,,ISIC_1309015.JPG,ISIC_1309015.JPG,true,0,keypress(z),500,26905,26904.600000000093,19763.722,19751.700000000186,19777.037,26912.61,1,6,2,,ISIC_0028178.JPG
sequence,flow.Sequence,2_1,2023-11-01T23:02:53.108Z,,0,,,7127.563000000093,completion,,,,,true,,,,26905.30000000028,26904.600000000093,19763.722,19751.700000000186,19777.037,26912.61,1,6,,,
trial,html.Screen,2_2_0,2023-11-01T23:02:59.559Z,,0,0,,6443.790000000372,response,ISIC_0031128.JPG,,ISIC_3314853.JPG,ISIC_3314853.JPG,true,0,keypress(z),500,33356.80000000028,33356.40000000037,26899.283,26905.600000000093,26912.61,33367.98,1,6,3,,ISIC_0031128.JPG
sequence,flow.Sequence,2_2,2023-11-01T23:02:59.560Z,,0,,,6443.790000000372,completion,,,,,true,,,,33357.40000000037,33356.40000000037,26899.283,26905.400000000373,26912.61,33367.98,1,6,,,
trial,html.Screen,2_3_0,2023-11-01T23:03:03.259Z,,0,0,,3688.220000000183,response,ISIC_8980141.JPG,,ISIC_0031612.JPG,ISIC_0031612.JPG,true,0,keypress(z),500,37056.40000000037,37056.200000000186,33347.117,33357.60000000009,33367.98,37062.19,1,6,4,,ISIC_8980141.JPG
sequence,flow.Sequence,2_3,2023-11-01T23:03:03.259Z,,0,,,3688.220000000183,completion,,,,,true,,,,37056.700000000186,37056.200000000186,33347.117,33357.60000000009,33367.98,37062.19,1,6,,,
trial,html.Screen,2_4_0,2023-11-01T23:03:07.310Z,,0,0,,4044.8099999999977,response,ISIC_1197737.JPG,,ISIC_9721604.JPG,ISIC_1197737.JPG,true,1,keypress(m),500,41107.10000000009,41107,37048.898,37056.90000000037,37062.19,41116.711,1,6,5,,ISIC_9721604.JPG
sequence,flow.Sequence,2_4,2023-11-01T23:03:07.310Z,,0,,,4044.8099999999977,completion,,,,,true,,,,41107.10000000009,41107,37048.898,37056.90000000037,37062.19,41116.711,1,6,,,
trial,html.Screen,2_5_0,2023-11-01T23:03:11.536Z,,0,0,,4216.089000000276,response,ISIC_0010681.JPG,,ISIC_0025346.JPG,ISIC_0010681.JPG,true,1,keypress(m),500,45333.10000000009,45332.80000000028,41103.293,41107.200000000186,41116.711,45344.918,1,6,6,,ISIC_0025346.JPG
sequence,flow.Sequence,2_5,2023-11-01T23:03:11.536Z,,0,,,4216.089000000276,completion,,,,,true,,,,45333.40000000037,45332.80000000028,41103.293,41107.200000000186,41116.711,45344.918,1,6,,,
loop,flow.Loop,2,2023-11-01T23:03:11.536Z,,,,,37065.871000000276,completion,,,,,true,,,,45333.700000000186,45332.80000000028,8253.693,8265.30000000028,8266.929,45344.918,1,6,,,
exp_instructions,html.Screen,3,2023-11-01T23:03:24.605Z,,,,,13056.682000000095,response,,,,,,continue,keypress(Space),,58402.40000000037,58401.60000000009,45331.338,45333.80000000028,45344.918,58415.706,,,,,
trial,html.Screen,4_0_0,2023-11-01T23:03:29.041Z,,0,1,,4421.894000000095,response,ISIC_0062367.JPG,5,ISIC_0007619.JPG,ISIC_0007619.JPG,false,0,keypress(z),500,62837.90000000037,62837.60000000009,58401.773,58402.60000000009,58415.706,62843.199,8,400,1,,ISIC_0062367.JPG
break,html.Screen,4_0_1,2023-11-01T23:03:29.042Z,,0,,,NaN,,,,,,false,,,,62839,62838.90000000037,,62838,,62843.199,8,400,,,
break_continue,html.Screen,4_0_2,2023-11-01T23:03:29.043Z,,0,,,NaN,,,,,,false,,,,62839.5,62839.30000000028,,62839.200000000186,,62843.199,8,400,,,
sequence,flow.Sequence,4_0,2023-11-01T23:03:29.043Z,,0,,,4423.594000000281,completion,,,,,false,,,,62839.5,62839.30000000028,58401.773,58402.5,58415.706,62843.199,8,400,,,
trial,html.Screen,4_1_0,2023-11-01T23:03:33.813Z,,0,1,,4766.201000000372,response,ISIC_2299749.JPG,5,ISIC_0030769.JPG,ISIC_2299749.JPG,false,1,keypress(m),500,67609.6000000001,67609.40000000037,62829.706,62839.60000000009,62843.199,67617.839,8,400,2,,ISIC_0030769.JPG
break,html.Screen,4_1_1,2023-11-01T23:03:33.813Z,,0,,,NaN,,,,,,false,,,,67610.20000000019,67610,,67609.70000000019,,67617.839,8,400,,,
break_continue,html.Screen,4_1_2,2023-11-01T23:03:33.813Z,,0,,,NaN,,,,,,false,,,,67610.40000000037,67610.30000000028,,67610.20000000019,,67617.839,8,400,,,
sequence,flow.Sequence,4_1,2023-11-01T23:03:33.814Z,,0,,,4767.101000000279,completion,,,,,false,,,,67610.5,67610.30000000028,62829.706,62839.60000000009,62843.199,67617.839,8,400,,,
trial,html.Screen,4_2_0,2023-11-01T23:03:37.912Z,,0,1,,4090.5610000003653,response,ISIC_6027459.JPG,5,ISIC_0010044.JPG,ISIC_6027459.JPG,false,1,keypress(m),500,71708.70000000019,71708.40000000037,67604.453,67610.6000000001,67617.839,71712.356,8,400,3,,ISIC_0010044.JPG
break,html.Screen,4_2_1,2023-11-01T23:03:37.913Z,,0,,,NaN,,,,,,false,,,,71709.70000000019,71709.5,,71708.90000000037,,71712.356,8,400,,,
break_continue,html.Screen,4_2_2,2023-11-01T23:03:37.913Z,,0,,,NaN,,,,,,false,,,,71710.1000000001,71710,,71709.90000000037,,71712.356,8,400,,,
sequence,flow.Sequence,4_2,2023-11-01T23:03:37.913Z,,0,,,4092.160999999993,completion,,,,,false,,,,71710.20000000019,71710,67604.453,67610.6000000001,67617.839,71712.356,8,400,,,
trial,html.Screen,4_3_0,2023-11-01T23:03:41.468Z,,0,1,,3551.8440000001865,response,ISIC_0011949.JPG,4,ISIC_0000424.JPG,ISIC_0011949.JPG,false,1,keypress(m),500,75264.5,75264.20000000019,71699.079,71710.40000000037,71712.356,75273.422,8,400,4,,ISIC_0000424.JPG
break,html.Screen,4_3_1,2023-11-01T23:03:41.468Z,,0,,,NaN,,,,,,false,,,,75265,75264.90000000037,,75264.6000000001,,75273.422,8,400,,,
break_continue,html.Screen,4_3_2,2023-11-01T23:03:41.468Z,,0,,,NaN,,,,,,false,,,,75265.30000000028,75265.20000000019,,75265.1000000001,,75273.422,8,400,,,
sequence,flow.Sequence,4_3,2023-11-01T23:03:41.468Z,,0,,,3552.8440000001865,completion,,,,,false,,,,75265.40000000037,75265.20000000019,71699.079,71710.30000000028,71712.356,75273.422,8,400,,,
trial,html.Screen,4_4_0,2023-11-01T23:03:45.406Z,,0,1,,3929.577999999994,response,ISIC_0070566.JPG,5,ISIC_0032718.JPG,ISIC_0032718.JPG,false,0,keypress(z),500,79203.20000000019,79203,75260.131,75265.5,75273.422,79207.951,8,400,5,,ISIC_0070566.JPG
break,html.Screen,4_4_1,2023-11-01T23:03:45.407Z,,0,,,NaN,,,,,,false,,,,79203.70000000019,79203.6000000001,,79203.30000000028,,79207.951,8,400,,,
break_continue,html.Screen,4_4_2,2023-11-01T23:03:45.407Z,,0,,,NaN,,,,,,false,,,,79204.20000000019,79204,,79203.80000000028,,79207.951,8,400,,,
sequence,flow.Sequence,4_4,2023-11-01T23:03:45.408Z,,0,,,3930.577999999994,completion,,,,,false,,,,79204.40000000037,79204,75260.131,75265.5,75273.422,79207.951,8,400,,,
trial,html.Screen,4_5_0,2023-11-01T23:03:49.713Z,,0,1,,4302.3490000002785,response,ISIC_3288342.JPG,5,ISIC_3649766.JPG,ISIC_3288342.JPG,false,1,keypress(m),500,83510.40000000037,83510.30000000028,79194.553,79204.6000000001,79207.951,83515.931,8,400,6,,ISIC_3649766.JPG
break,html.Screen,4_5_1,2023-11-01T23:03:49.714Z,,0,,,NaN,,,,,,false,,,,83511,83510.90000000037,,83510.5,,83515.931,8,400,,,
break_continue,html.Screen,4_5_2,2023-11-01T23:03:49.714Z,,0,,,NaN,,,,,,false,,,,83511.20000000019,83511.20000000019,,83511.1000000001,,83515.931,8,400,,,
sequence,flow.Sequence,4_5,2023-11-01T23:03:49.715Z,,0,,,4303.249000000185,completion,,,,,false,,,,83511.6000000001,83511.20000000019,79194.553,79204.5,79207.951,83515.931,8,400,,,
trial,html.Screen,4_6_0,2023-11-01T23:03:54.101Z,,0,1,,4381.3690000002825,response,ISIC_9395707.JPG,6,ISIC_0027234.JPG,ISIC_9395707.JPG,false,1,keypress(m),500,87897.40000000037,87897.30000000028,83502.426,83511.80000000028,83515.931,87903.911,8,400,7,,ISIC_0027234.JPG
break,html.Screen,4_6_1,2023-11-01T23:03:54.101Z,,0,,,NaN,,,,,,false,,,,87898.40000000037,87898.1000000001,,87897.6000000001,,87903.911,8,400,,,
break_continue,html.Screen,4_6_2,2023-11-01T23:03:54.102Z,,0,,,NaN,,,,,,false,,,,87898.70000000019,87898.6000000001,,87898.5,,87903.911,8,400,,,
sequence,flow.Sequence,4_6,2023-11-01T23:03:54.102Z,,0,,,4382.669000000096,completion,,,,,false,,,,87898.80000000028,87898.6000000001,83502.426,83511.80000000028,83515.931,87903.911,8,400,,,
trial,html.Screen,4_7_0,2023-11-01T23:03:59.256Z,,0,1,,5148.6890000001,response,ISIC_0002878.JPG,5,ISIC_6023518.JPG,ISIC_0002878.JPG,false,1,keypress(m),500,93052.80000000028,93052.6000000001,87890.37,87898.90000000037,87903.911,93065.242,8,400,8,,ISIC_6023518.JPG
break,html.Screen,4_7_1,2023-11-01T23:03:59.257Z,,0,,,NaN,,,,,,false,,,,93053.6000000001,93053.5,,93053,,93065.242,8,400,,,
break_continue,html.Screen,4_7_2,2023-11-01T23:03:59.257Z,,0,,,NaN,,,,,,false,,,,93053.90000000037,93053.80000000028,,93053.70000000019,,93065.242,8,400,,,
sequence,flow.Sequence,4_7,2023-11-01T23:03:59.257Z,,0,,,5149.889000000287,completion,,,,,false,,,,93054,93053.80000000028,87890.37,87898.90000000037,87903.911,93065.242,8,400,,,
trial,html.Screen,4_8_0,2023-11-01T23:04:04.314Z,,0,1,,5045.858000000095,response,ISIC_0056991.JPG,530,ISIC_0030237.JPG,ISIC_0056991.JPG,false,1,keypress(m),500,98111.30000000028,98111.1000000001,93051.934,93054,93065.242,98120.112,8,400,9,,ISIC_0030237.JPG
break,html.Screen,4_8_1,2023-11-01T23:04:04.315Z,,0,,,NaN,,,,,,false,,,,98112.40000000037,98112,,98111.40000000037,,98120.112,8,400,,,
break_continue,html.Screen,4_8_2,2023-11-01T23:04:04.316Z,,0,,,NaN,,,,,,false,,,,98112.70000000019,98112.6000000001,,98112.6000000001,,98120.112,8,400,,,
sequence,flow.Sequence,4_8,2023-11-01T23:04:04.316Z,,0,,,5047.358000000095,completion,,,,,false,,,,98112.90000000037,98112.6000000001,93051.934,93054,93065.242,98120.112,8,400,,,
trial,html.Screen,4_9_0,2023-11-01T23:04:08.206Z,,0,1,,3882.288000000379,response,ISIC_7912183.JPG,5,ISIC_2861793.JPG,ISIC_2861793.JPG,false,0,keypress(z),500,102002.6000000001,102002.40000000037,98106.83,98113,98120.112,102014.637,8,400,10,,ISIC_7912183.JPG
break,html.Screen,4_9_1,2023-11-01T23:04:08.206Z,,0,,,NaN,,,,,,false,,,,102003.30000000028,102003.1000000001,,102002.80000000028,,102014.637,8,400,,,
break_continue,html.Screen,4_9_2,2023-11-01T23:04:08.207Z,,0,,,NaN,,,,,,false,,,,102003.5,102003.5,,102003.40000000037,,102014.637,8,400,,,
sequence,flow.Sequence,4_9,2023-11-01T23:04:08.207Z,,0,,,3883.3880000000063,completion,,,,,false,,,,102003.6000000001,102003.5,98106.83,98113,98120.112,102014.637,8,400,,,
trial,html.Screen,4_10_0,2023-11-01T23:04:11.200Z,,0,1,,2982.26300000037,response,ISIC_0069620.JPG,5,ISIC_0000547.JPG,ISIC_0000547.JPG,false,0,keypress(z),500,104997.1000000001,104996.90000000037,102001.351,102003.70000000019,102014.637,105002.261,8,400,11,,ISIC_0069620.JPG
break,html.Screen,4_10_1,2023-11-01T23:04:11.201Z,,0,,,NaN,,,,,,false,,,,104997.70000000019,104997.5,,104997.20000000019,,105002.261,8,400,,,
break_continue,html.Screen,4_10_2,2023-11-01T23:04:11.201Z,,0,,,NaN,,,,,,false,,,,104998.1000000001,104997.90000000037,,104997.80000000028,,105002.261,8,400,,,
sequence,flow.Sequence,4_10,2023-11-01T23:04:11.201Z,,0,,,2983.26300000037,completion,,,,,false,,,,104998.30000000028,104997.90000000037,102001.351,102003.70000000019,102014.637,105002.261,8,400,,,
trial,html.Screen,4_11_0,2023-11-01T23:04:15.235Z,,0,1,,4028.9390000001877,response,ISIC_7342840.JPG,6,ISIC_0000406.JPG,ISIC_7342840.JPG,false,1,keypress(m),500,109031.5,109031.20000000019,104988.945,104998.40000000037,105002.261,109043.469,8,400,12,,ISIC_0000406.JPG
break,html.Screen,4_11_1,2023-11-01T23:04:15.235Z,,0,,,NaN,,,,,,false,,,,109032.30000000028,109032.1000000001,,109031.70000000019,,109043.469,8,400,,,
break_continue,html.Screen,4_11_2,2023-11-01T23:04:15.236Z,,0,,,NaN,,,,,,false,,,,109032.70000000019,109032.6000000001,,109032.5,,109043.469,8,400,,,
sequence,flow.Sequence,4_11,2023-11-01T23:04:15.236Z,,0,,,4030.3390000000945,completion,,,,,false,,,,109032.80000000028,109032.6000000001,104988.945,104998.40000000037,105002.261,109043.469,8,400,,,
trial,html.Screen,4_12_0,2023-11-01T23:04:19.719Z,,0,1,,4472.031000000003,response,ISIC_0033947.JPG,5,ISIC_4022621.JPG,ISIC_4022621.JPG,false,0,keypress(z),500,113515.70000000019,113515.5,109029.948,109032.90000000037,109043.469,113524.688,8,400,13,,ISIC_0033947.JPG
break,html.Screen,4_12_1,2023-11-01T23:04:19.720Z,,0,,,NaN,,,,,,false,,,,113516.5,113516.30000000028,,113515.90000000037,,113524.688,8,400,,,
break_continue,html.Screen,4_12_2,2023-11-01T23:04:19.720Z,,0,,,NaN,,,,,,false,,,,113516.80000000028,113516.70000000019,,113516.6000000001,,113524.688,8,400,,,
sequence,flow.Sequence,4_12,2023-11-01T23:04:19.720Z,,0,,,4473.231000000189,completion,,,,,false,,,,113517,113516.70000000019,109029.948,109032.90000000037,109043.469,113524.688,8,400,,,
trial,html.Screen,4_13_0,2023-11-01T23:04:22.731Z,,0,1,,3002.5120000001916,response,ISIC_8579259.JPG,5,ISIC_0034253.JPG,ISIC_8579259.JPG,false,1,keypress(m),500,116527.5,116527.20000000019,113511.465,113517.1000000001,113524.688,116538.928,8,400,14,,ISIC_0034253.JPG
break,html.Screen,4_13_1,2023-11-01T23:04:22.732Z,,0,,,NaN,,,,,,false,,,,116528.70000000019,116528.30000000028,,116527.70000000019,,116538.928,8,400,,,
break_continue,html.Screen,4_13_2,2023-11-01T23:04:22.732Z,,0,,,NaN,,,,,,false,,,,116529.20000000019,116529.1000000001,,116528.90000000037,,116538.928,8,400,,,
sequence,flow.Sequence,4_13,2023-11-01T23:04:22.732Z,,0,,,3004.4120000000985,completion,,,,,false,,,,116529.30000000028,116529.1000000001,113511.465,113517.1000000001,113524.688,116538.928,8,400,,,
trial,html.Screen,4_14_0,2023-11-01T23:04:26.462Z,,0,1,,3719.6720000000932,response,ISIC_0032841.JPG,5,ISIC_0030563.JPG,ISIC_0030563.JPG,false,0,keypress(z),500,120258.90000000037,120258.6000000001,116525.524,116529.5,116538.928,120273.682,8,400,15,,ISIC_0032841.JPG
break,html.Screen,4_14_1,2023-11-01T23:04:26.463Z,,0,,,NaN,,,,,,false,,,,120260.1000000001,120259.70000000019,,120259.20000000019,,120273.682,8,400,,,
break_continue,html.Screen,4_14_2,2023-11-01T23:04:26.464Z,,0,,,NaN,,,,,,false,,,,120260.6000000001,120260.5,,120260.30000000028,,120273.682,8,400,,,
sequence,flow.Sequence,4_14,2023-11-01T23:04:26.464Z,,0,,,3721.572,completion,,,,,false,,,,120260.70000000019,120260.5,116525.524,116529.5,116538.928,120273.682,8,400,,,
trial,html.Screen,4_15_0,2023-11-01T23:04:29.537Z,,0,1,,3060.5180000001856,response,ISIC_4153542.JPG,4,ISIC_0027327.JPG,ISIC_4153542.JPG,false,1,keypress(m),500,123334.5,123334.20000000019,120246.783,120260.90000000037,120273.682,123340.969,8,400,16,,ISIC_0027327.JPG
break,html.Screen,4_15_1,2023-11-01T23:04:29.538Z,,0,,,NaN,,,,,,false,,,,123335.30000000028,123335.1000000001,,123334.70000000019,,123340.969,8,400,,,
break_continue,html.Screen,4_15_2,2023-11-01T23:04:29.539Z,,0,,,NaN,,,,,,false,,,,123335.6000000001,123335.6000000001,,123335.40000000037,,123340.969,8,400,,,
sequence,flow.Sequence,4_15,2023-11-01T23:04:29.539Z,,0,,,3061.9180000000924,completion,,,,,false,,,,123335.80000000028,123335.6000000001,120246.783,120260.90000000037,120273.682,123340.969,8,400,,,
trial,html.Screen,4_16_0,2023-11-01T23:04:32.853Z,,0,1,,3309.131000000096,response,ISIC_0080817.JPG,5,ISIC_0010421.JPG,ISIC_0080817.JPG,false,1,keypress(m),500,126650.20000000019,126650.1000000001,123327.523,123336,123340.969,126670.816,8,400,17,,ISIC_0010421.JPG
break,html.Screen,4_16_1,2023-11-01T23:04:32.854Z,,0,,,NaN,,,,,,false,,,,126650.80000000028,126650.70000000019,,126650.5,,126670.816,8,400,,,
break_continue,html.Screen,4_16_2,2023-11-01T23:04:32.854Z,,0,,,NaN,,,,,,false,,,,126651.40000000037,126651.20000000019,,126651.1000000001,,126670.816,8,400,,,
sequence,flow.Sequence,4_16,2023-11-01T23:04:32.854Z,,0,,,3310.231000000189,completion,,,,,false,,,,126651.5,126651.20000000019,123327.523,123335.90000000037,123340.969,126670.816,8,400,,,
trial,html.Screen,4_17_0,2023-11-01T23:04:35.961Z,,0,1,,3086.784000000087,response,ISIC_0059597.JPG,5,ISIC_2562668.JPG,ISIC_2562668.JPG,false,0,keypress(z),500,129757.80000000028,129757.6000000001,126648.548,126652.5,126670.816,129769.538,8,400,18,,ISIC_0059597.JPG
break,html.Screen,4_17_1,2023-11-01T23:04:35.962Z,,0,,,NaN,,,,,,false,,,,129759,129758.6000000001,,129758.1000000001,,129769.538,8,400,,,
break_continue,html.Screen,4_17_2,2023-11-01T23:04:35.962Z,,0,,,NaN,,,,,,false,,,,129759.5,129759.30000000028,,129759.20000000019,,129769.538,8,400,,,
sequence,flow.Sequence,4_17,2023-11-01T23:04:35.963Z,,0,,,3088.484000000273,completion,,,,,false,,,,129759.70000000019,129759.30000000028,126648.548,126652.40000000037,126670.816,129769.538,8,400,,,
trial,html.Screen,4_18_0,2023-11-01T23:04:40.540Z,,0,1,,4567.662000000186,response,ISIC_0055087.JPG,6,ISIC_0000013.JPG,ISIC_0000013.JPG,false,0,keypress(z),500,134337.40000000037,134337.2000000002,129756.262,129759.80000000028,129769.538,134344.282,8,400,19,,ISIC_0055087.JPG
break,html.Screen,4_18_1,2023-11-01T23:04:40.541Z,,0,,,NaN,,,,,,false,,,,134338.6000000001,134338,,134337.6000000001,,134344.282,8,400,,,
break_continue,html.Screen,4_18_2,2023-11-01T23:04:40.542Z,,0,,,NaN,,,,,,false,,,,134339.1000000001,134338.90000000037,,134338.7000000002,,134344.282,8,400,,,
sequence,flow.Sequence,4_18,2023-11-01T23:04:40.542Z,,0,,,4569.362000000372,completion,,,,,false,,,,134339.2000000002,134338.90000000037,129756.262,129759.70000000019,129769.538,134344.282,8,400,,,
trial,html.Screen,4_19_0,2023-11-01T23:04:43.937Z,,0,1,,3389.118000000366,response,ISIC_0062997.JPG,4,ISIC_0028508.JPG,ISIC_0062997.JPG,false,1,keypress(m),500,137733.6000000001,137733.40000000037,134331.028,134339.40000000037,134344.282,137745.412,8,400,20,,ISIC_0028508.JPG
break,html.Screen,4_19_1,2023-11-01T23:04:43.937Z,,0,,,NaN,,,,,,false,,,,137734.30000000028,137734.2000000002,,137733.80000000028,,137745.412,8,400,,,
break_continue,html.Screen,4_19_2,2023-11-01T23:04:43.938Z,,0,,,NaN,,,,,,false,,,,137734.6000000001,137734.6000000001,,137734.5,,137745.412,8,400,,,
sequence,flow.Sequence,4_19,2023-11-01T23:04:43.938Z,,0,,,3390.3180000000866,completion,,,,,false,,,,137734.80000000028,137734.6000000001,134331.028,134339.40000000037,134344.282,137745.412,8,400,,,
trial,html.Screen,4_20_0,2023-11-01T23:04:47.363Z,,0,1,,3414.688000000082,response,ISIC_0027872.JPG,6,ISIC_4502605.JPG,ISIC_0027872.JPG,false,1,keypress(m),500,141160.40000000037,141160.1000000001,137731.775,137734.80000000028,137745.412,141173.023,8,400,21,,ISIC_4502605.JPG
break,html.Screen,4_20_1,2023-11-01T23:04:47.364Z,,0,,,NaN,,,,,,false,,,,141161.6000000001,141161.1000000001,,141160.6000000001,,141173.023,8,400,,,
break_continue,html.Screen,4_20_2,2023-11-01T23:04:47.365Z,,0,,,NaN,,,,,,false,,,,141162,141161.90000000037,,141161.7000000002,,141173.023,8,400,,,
sequence,flow.Sequence,4_20,2023-11-01T23:04:47.365Z,,0,,,3416.4880000003614,completion,,,,,false,,,,141162.2000000002,141161.90000000037,137731.775,137734.80000000028,137745.412,141173.023,8,400,,,
trial,html.Screen,4_21_0,2023-11-01T23:04:51.703Z,,0,1,,4326.377000000386,response,ISIC_8340256.JPG,4,ISIC_0012810.JPG,ISIC_8340256.JPG,false,1,keypress(m),500,145499.7000000002,145499.40000000037,141159.503,141162.30000000028,141173.023,145507.499,8,400,22,,ISIC_0012810.JPG
break,html.Screen,4_21_1,2023-11-01T23:04:51.704Z,,0,,,NaN,,,,,,false,,,,145500.90000000037,145500.5,,145500,,145507.499,8,400,,,
break_continue,html.Screen,4_21_2,2023-11-01T23:04:51.704Z,,0,,,NaN,,,,,,false,,,,145501.30000000028,145501.2000000002,,145501,,145507.499,8,400,,,
sequence,flow.Sequence,4_21,2023-11-01T23:04:51.705Z,,0,,,4328.1770000002,completion,,,,,false,,,,145501.6000000001,145501.2000000002,141159.503,141162.30000000028,141173.023,145507.499,8,400,,,
trial,html.Screen,4_22_0,2023-11-01T23:04:55.802Z,,0,1,,4091.7010000001756,response,ISIC_0027436.JPG,6,ISIC_0030911.JPG,ISIC_0030911.JPG,false,0,keypress(z),500,149599.5,149599.2000000002,145494.109,145501.80000000028,145507.499,149602.104,8,400,23,,ISIC_0027436.JPG
break,html.Screen,4_22_1,2023-11-01T23:04:55.803Z,,0,,,NaN,,,,,,false,,,,149600.40000000037,149600.2000000002,,149599.7000000002,,149602.104,8,400,,,
break_continue,html.Screen,4_22_2,2023-11-01T23:04:55.804Z,,0,,,NaN,,,,,,false,,,,149601,149600.80000000028,,149600.7000000002,,149602.104,8,400,,,
sequence,flow.Sequence,4_22,2023-11-01T23:04:55.804Z,,0,,,4093.3010000002687,completion,,,,,false,,,,149601.2000000002,149600.80000000028,145494.109,145501.7000000002,145507.499,149602.104,8,400,,,
trial,html.Screen,4_23_0,2023-11-01T23:04:59.326Z,,0,1,,3521.1960000002873,response,ISIC_1370142.JPG,4,ISIC_0014347.JPG,ISIC_0014347.JPG,false,0,keypress(z),500,153123.5,153123.30000000028,149588.753,149601.30000000028,149602.104,153136.427,8,400,24,,ISIC_1370142.JPG
break,html.Screen,4_23_1,2023-11-01T23:04:59.327Z,,0,,,NaN,,,,,,false,,,,153124.40000000037,153124.2000000002,,153123.80000000028,,153136.427,8,400,,,
break_continue,html.Screen,4_23_2,2023-11-01T23:04:59.328Z,,0,,,NaN,,,,,,false,,,,153124.7000000002,153124.6000000001,,153124.5,,153136.427,8,400,,,
sequence,flow.Sequence,4_23,2023-11-01T23:04:59.328Z,,0,,,3522.496000000101,completion,,,,,false,,,,153124.90000000037,153124.6000000001,149588.753,149601.30000000028,149602.104,153136.427,8,400,,,
trial,html.Screen,4_24_0,2023-11-01T23:05:03.922Z,,0,1,,4582.673000000097,response,ISIC_0015443.JPG,5,ISIC_0062997.JPG,ISIC_0015443.JPG,false,1,keypress(m),500,157719.40000000037,157719.1000000001,153123.001,153125,153136.427,157724.621,8,400,25,,ISIC_0062997.JPG
break,html.Screen,4_24_1,2023-11-01T23:05:03.923Z,,0,,,NaN,,,,,,false,,,,157720.2000000002,157720.1000000001,,157719.7000000002,,157724.621,8,400,,,
break_continue,html.Screen,4_24_2,2023-11-01T23:05:03.923Z,,0,,,NaN,,,,,,false,,,,157720.6000000001,157720.40000000037,,157720.40000000037,,157724.621,8,400,,,
sequence,flow.Sequence,4_24,2023-11-01T23:05:03.924Z,,0,,,4583.9730000003765,completion,,,,,false,,,,157720.80000000028,157720.40000000037,153123.001,153124.90000000037,153136.427,157724.621,8,400,,,
trial,html.Screen,4_25_0,2023-11-01T23:05:07.622Z,,0,1,,3694.4790000000794,response,ISIC_0011169.JPG,5,ISIC_1308081.JPG,ISIC_1308081.JPG,false,0,keypress(z),500,161419.40000000037,161419.1000000001,157711.094,157720.80000000028,157724.621,161432.186,8,400,26,,ISIC_0011169.JPG
break,html.Screen,4_25_1,2023-11-01T23:05:07.623Z,,0,,,NaN,,,,,,false,,,,161420.5,161420.2000000002,,161419.7000000002,,161432.186,8,400,,,
break_continue,html.Screen,4_25_2,2023-11-01T23:05:07.624Z,,0,,,NaN,,,,,,false,,,,161421,161420.80000000028,,161420.7000000002,,161432.186,8,400,,,
sequence,flow.Sequence,4_25,2023-11-01T23:05:07.624Z,,0,,,3696.1790000002657,completion,,,,,false,,,,161421.1000000001,161420.80000000028,157711.094,157720.80000000028,157724.621,161432.186,8,400,,,
trial,html.Screen,4_26_0,2023-11-01T23:05:11.340Z,,0,1,,3704.814000000013,response,ISIC_3690890.JPG,5,ISIC_4570724.JPG,ISIC_3690890.JPG,false,1,keypress(m),500,165137.30000000028,165137,161418.809,161421.2000000002,161432.186,165140.072,8,400,27,,ISIC_4570724.JPG
break,html.Screen,4_26_1,2023-11-01T23:05:11.341Z,,0,,,NaN,,,,,,false,,,,165138,165137.90000000037,,165137.5,,165140.072,8,400,,,
break_continue,html.Screen,4_26_2,2023-11-01T23:05:11.342Z,,0,,,NaN,,,,,,false,,,,165138.7000000002,165138.5,,165138.2000000002,,165140.072,8,400,,,
sequence,flow.Sequence,4_26,2023-11-01T23:05:11.342Z,,0,,,3706.314000000013,completion,,,,,false,,,,165138.90000000037,165138.5,161418.809,161421.2000000002,161432.186,165140.072,8,400,,,
trial,html.Screen,4_27_0,2023-11-01T23:05:15.873Z,,0,1,,4529.228000000294,response,ISIC_0014308.JPG,6,ISIC_0033175.JPG,ISIC_0033175.JPG,false,0,keypress(z),500,169669.7000000002,169669.30000000028,165126.563,165139.1000000001,165140.072,169689.227,8,400,28,,ISIC_0014308.JPG
break,html.Screen,4_27_1,2023-11-01T23:05:15.873Z,,0,,,NaN,,,,,,false,,,,169670.40000000037,169670.2000000002,,169669.90000000037,,169689.227,8,400,,,
break_continue,html.Screen,4_27_2,2023-11-01T23:05:15.874Z,,0,,,NaN,,,,,,false,,,,169670.80000000028,169670.7000000002,,169670.6000000001,,169689.227,8,400,,,
sequence,flow.Sequence,4_27,2023-11-01T23:05:15.874Z,,0,,,4530.628000000201,completion,,,,,false,,,,169670.90000000037,169670.7000000002,165126.563,165139.1000000001,165140.072,169689.227,8,400,,,
trial,html.Screen,4_28_0,2023-11-01T23:05:19.332Z,,0,1,,3439.4730000001728,response,ISIC_0010350.JPG,5,ISIC_0071586.JPG,ISIC_0010350.JPG,false,1,keypress(m),500,173129,173128.7000000002,169661.189,169671.1000000001,169689.227,173142.251,8,400,29,,ISIC_0071586.JPG
break,html.Screen,4_28_1,2023-11-01T23:05:19.333Z,,0,,,NaN,,,,,,false,,,,173130.30000000028,173130,,173129.2000000002,,173142.251,8,400,,,
break_continue,html.Screen,4_28_2,2023-11-01T23:05:19.334Z,,0,,,NaN,,,,,,false,,,,173130.7000000002,173130.5,,173130.40000000037,,173142.251,8,400,,,
sequence,flow.Sequence,4_28,2023-11-01T23:05:19.334Z,,0,,,3441.2729999999865,completion,,,,,false,,,,173130.80000000028,173130.5,169661.189,169671.1000000001,169689.227,173142.251,8,400,,,
trial,html.Screen,4_29_0,2023-11-01T23:05:22.984Z,,0,1,,3638.1490000003832,response,ISIC_0027928.JPG,4,ISIC_7980387.JPG,ISIC_7980387.JPG,false,0,keypress(z),500,176780.6000000001,176780.40000000037,173129.178,173130.90000000037,173142.251,176783.6,8,400,30,,ISIC_0027928.JPG
break,html.Screen,4_29_1,2023-11-01T23:05:22.985Z,,0,,,NaN,,,,,,false,,,,176781.90000000037,176781.40000000037,,176780.90000000037,,176783.6,8,400,,,
break_continue,html.Screen,4_29_2,2023-11-01T23:05:22.985Z,,0,,,NaN,,,,,,false,,,,176782.30000000028,176782.2000000002,,176782,,176783.6,8,400,,,
sequence,flow.Sequence,4_29,2023-11-01T23:05:22.985Z,,0,,,3639.949000000197,completion,,,,,false,,,,176782.40000000037,176782.2000000002,173129.178,173130.90000000037,173142.251,176783.6,8,400,,,
trial,html.Screen,4_30_0,2023-11-01T23:05:25.708Z,,0,1,,2720.899999999994,response,ISIC_0055024.JPG,5,ISIC_6855540.JPG,ISIC_6855540.JPG,false,0,keypress(z),500,179504.80000000028,179504.5,176770.016,176782.6000000001,176783.6,179517.54,8,400,31,,ISIC_0055024.JPG
break,html.Screen,4_30_1,2023-11-01T23:05:25.709Z,,0,,,NaN,,,,,,false,,,,179505.90000000037,179505.5,,179505,,179517.54,8,400,,,
break_continue,html.Screen,4_30_2,2023-11-01T23:05:25.710Z,,0,,,NaN,,,,,,false,,,,179506.6000000001,179506.5,,179506.2000000002,,179517.54,8,400,,,
sequence,flow.Sequence,4_30,2023-11-01T23:05:25.710Z,,0,,,2722.899999999994,completion,,,,,false,,,,179506.80000000028,179506.5,176770.016,176782.5,176783.6,179517.54,8,400,,,
trial,html.Screen,4_31_0,2023-11-01T23:05:28.865Z,,0,1,,3144.160000000178,response,ISIC_4035599.JPG,5,ISIC_0024546.JPG,ISIC_4035599.JPG,false,1,keypress(m),500,182662,182661.7000000002,179504.413,179508,179517.54,182665.217,8,400,32,,ISIC_0024546.JPG
break,html.Screen,4_31_1,2023-11-01T23:05:28.866Z,,0,,,NaN,,,,,,false,,,,182662.90000000037,182662.6000000001,,182662.2000000002,,182665.217,8,400,,,
break_continue,html.Screen,4_31_2,2023-11-01T23:05:28.866Z,,0,,,NaN,,,,,,false,,,,182663.30000000028,182663.30000000028,,182663.1000000001,,182665.217,8,400,,,
sequence,flow.Sequence,4_31,2023-11-01T23:05:28.867Z,,0,,,3145.7600000002712,completion,,,,,false,,,,182663.6000000001,182663.30000000028,179504.413,179507.90000000037,179517.54,182665.217,8,400,,,
trial,html.Screen,4_32_0,2023-11-01T23:05:31.876Z,,0,1,,3007.483000000182,response,ISIC_0000153.JPG,6,ISIC_9744305.JPG,ISIC_0000153.JPG,false,1,keypress(m),500,185673,185672.7000000002,182652.083,182663.6000000001,182665.217,185679.629,8,400,33,,ISIC_9744305.JPG
break,html.Screen,4_32_1,2023-11-01T23:05:31.877Z,,0,,,NaN,,,,,,false,,,,185673.80000000028,185673.6000000001,,185673.2000000002,,185679.629,8,400,,,
break_continue,html.Screen,4_32_2,2023-11-01T23:05:31.877Z,,0,,,NaN,,,,,,false,,,,185674.2000000002,185674,,185674,,185679.629,8,400,,,
sequence,flow.Sequence,4_32,2023-11-01T23:05:31.877Z,,0,,,3008.782999999996,completion,,,,,false,,,,185674.30000000028,185674,182652.083,182663.6000000001,182665.217,185679.629,8,400,,,
trial,html.Screen,4_33_0,2023-11-01T23:05:34.775Z,,0,1,,2892.2710000003863,response,ISIC_0046526.JPG,5,ISIC_0059066.JPG,ISIC_0059066.JPG,false,0,keypress(z),500,188572.2000000002,188571.90000000037,185665.912,185674.5,185679.629,188586.846,8,400,34,,ISIC_0046526.JPG
break,html.Screen,4_33_1,2023-11-01T23:05:34.776Z,,0,,,NaN,,,,,,false,,,,188573,188572.90000000037,,188572.5,,188586.846,8,400,,,
break_continue,html.Screen,4_33_2,2023-11-01T23:05:34.776Z,,0,,,NaN,,,,,,false,,,,188573.40000000037,188573.30000000028,,188573.2000000002,,188586.846,8,400,,,
sequence,flow.Sequence,4_33,2023-11-01T23:05:34.777Z,,0,,,2893.671000000293,completion,,,,,false,,,,188573.6000000001,188573.30000000028,185665.912,185674.40000000037,185679.629,188586.846,8,400,,,
trial,html.Screen,4_34_0,2023-11-01T23:05:37.707Z,,0,1,,2916.7540000001027,response,ISIC_9927221.JPG,5,ISIC_9798721.JPG,ISIC_9927221.JPG,false,1,keypress(m),500,191503.90000000037,191503.6000000001,188573.702,188573.6000000001,188586.846,191507.825,8,400,35,,ISIC_9798721.JPG
break,html.Screen,4_34_1,2023-11-01T23:05:37.708Z,,0,,,NaN,,,,,,false,,,,191504.90000000037,191504.6000000001,,191504.1000000001,,191507.825,8,400,,,
break_continue,html.Screen,4_34_2,2023-11-01T23:05:37.708Z,,0,,,NaN,,,,,,false,,,,191505.30000000028,191505.30000000028,,191505.1000000001,,191507.825,8,400,,,
sequence,flow.Sequence,4_34,2023-11-01T23:05:37.709Z,,0,,,2918.454000000289,completion,,,,,false,,,,191505.5,191505.30000000028,188573.702,188573.6000000001,188586.846,191507.825,8,400,,,
trial,html.Screen,4_35_0,2023-11-01T23:05:41.119Z,,0,1,,3407.8750000001746,response,ISIC_4699066.JPG,5,ISIC_3729849.JPG,ISIC_3729849.JPG,false,0,keypress(z),500,194915.90000000037,194915.7000000002,191494.293,191505.6000000001,191507.825,194922.289,8,400,36,,ISIC_4699066.JPG
break,html.Screen,4_35_1,2023-11-01T23:05:41.120Z,,0,,,NaN,,,,,,false,,,,194917.1000000001,194916.7000000002,,194916.2000000002,,194922.289,8,400,,,
break_continue,html.Screen,4_35_2,2023-11-01T23:05:41.121Z,,0,,,NaN,,,,,,false,,,,194917.5,194917.5,,194917.30000000028,,194922.289,8,400,,,
sequence,flow.Sequence,4_35,2023-11-01T23:05:41.121Z,,0,,,3409.6749999999884,completion,,,,,false,,,,194917.80000000028,194917.5,191494.293,191505.6000000001,191507.825,194922.289,8,400,,,
trial,html.Screen,4_36_0,2023-11-01T23:05:44.466Z,,0,1,,3340.7110000000102,response,ISIC_0058158.JPG,5,ISIC_0026756.JPG,ISIC_0058158.JPG,false,1,keypress(m),500,198263.30000000028,198263,194908.82,194917.90000000037,194922.289,198269.824,8,400,37,,ISIC_0026756.JPG
break,html.Screen,4_36_1,2023-11-01T23:05:44.467Z,,0,,,NaN,,,,,,false,,,,198264,198263.90000000037,,198263.5,,198269.824,8,400,,,
break_continue,html.Screen,4_36_2,2023-11-01T23:05:44.467Z,,0,,,NaN,,,,,,false,,,,198264.40000000037,198264.30000000028,,198264.2000000002,,198269.824,8,400,,,
sequence,flow.Sequence,4_36,2023-11-01T23:05:44.468Z,,0,,,3342.0110000002896,completion,,,,,false,,,,198264.6000000001,198264.30000000028,194908.82,194917.90000000037,194922.289,198269.824,8,400,,,
trial,html.Screen,4_37_0,2023-11-01T23:05:47.462Z,,0,1,,2988.5760000003793,response,ISIC_0034076.JPG,4,ISIC_4014307.JPG,ISIC_4014307.JPG,false,0,keypress(z),500,201258.6000000001,201258.40000000037,198256.687,198264.6000000001,198269.824,201270.62,8,400,38,,ISIC_0034076.JPG
break,html.Screen,4_37_1,2023-11-01T23:05:47.462Z,,0,,,NaN,,,,,,false,,,,201259.40000000037,201259.30000000028,,201258.80000000028,,201270.62,8,400,,,
break_continue,html.Screen,4_37_2,2023-11-01T23:05:47.463Z,,0,,,NaN,,,,,,false,,,,201260.1000000001,201259.80000000028,,201259.6000000001,,201270.62,8,400,,,
sequence,flow.Sequence,4_37,2023-11-01T23:05:47.463Z,,0,,,2989.976000000286,completion,,,,,false,,,,201260.30000000028,201259.80000000028,198256.687,198264.6000000001,198269.824,201270.62,8,400,,,
trial,html.Screen,4_38_0,2023-11-01T23:05:50.681Z,,0,1,,3206.980000000098,response,ISIC_0068776.JPG,5,ISIC_1034397.JPG,ISIC_0068776.JPG,false,1,keypress(m),500,204478,204477.6000000001,201257.204,201260.5,201270.62,204484.902,8,400,39,,ISIC_1034397.JPG
break,html.Screen,4_38_1,2023-11-01T23:05:50.682Z,,0,,,NaN,,,,,,false,,,,204479,204478.6000000001,,204478.2000000002,,204484.902,8,400,,,
break_continue,html.Screen,4_38_2,2023-11-01T23:05:50.683Z,,0,,,NaN,,,,,,false,,,,204479.5,204479.30000000028,,204479.2000000002,,204484.902,8,400,,,
sequence,flow.Sequence,4_38,2023-11-01T23:05:50.683Z,,0,,,3208.680000000284,completion,,,,,false,,,,204479.6000000001,204479.30000000028,201257.204,201260.40000000037,201270.62,204484.902,8,400,,,
trial,html.Screen,4_39_0,2023-11-01T23:05:53.805Z,,0,1,,3116.6980000000913,response,ISIC_0030407.JPG,5,ISIC_0054559.JPG,ISIC_0030407.JPG,false,1,keypress(m),500,207601.90000000037,207601.6000000001,204471.766,204479.80000000028,204484.902,207605.923,8,400,40,,ISIC_0054559.JPG
break,html.Screen,4_39_1,2023-11-01T23:05:53.806Z,,0,,,NaN,,,,,,false,,,,207602.6000000001,207602.5,,207602,,207605.923,8,400,,,
break_continue,html.Screen,4_39_2,2023-11-01T23:05:53.806Z,,0,,,NaN,,,,,,false,,,,207603,207602.90000000037,,207602.80000000028,,207605.923,8,400,,,
sequence,flow.Sequence,4_39,2023-11-01T23:05:53.806Z,,0,,,3117.9980000003707,completion,,,,,false,,,,207603.2000000002,207602.90000000037,204471.766,204479.80000000028,204484.902,207605.923,8,400,,,
trial,html.Screen,4_40_0,2023-11-01T23:05:56.544Z,,0,1,,2734.7770000001765,response,ISIC_3070206.JPG,5,ISIC_0033258.JPG,ISIC_3070206.JPG,false,1,keypress(m),500,210341.1000000001,210340.7000000002,207592.755,207603.30000000028,207605.923,210353.28,8,400,41,,ISIC_0033258.JPG
break,html.Screen,4_40_1,2023-11-01T23:05:56.545Z,,0,,,NaN,,,,,,false,,,,210342,210341.7000000002,,210341.30000000028,,210353.28,8,400,,,
break_continue,html.Screen,4_40_2,2023-11-01T23:05:56.545Z,,0,,,NaN,,,,,,false,,,,210342.40000000037,210342.2000000002,,210342.1000000001,,210353.28,8,400,,,
sequence,flow.Sequence,4_40,2023-11-01T23:05:56.546Z,,0,,,2736.2770000001765,completion,,,,,false,,,,210342.5,210342.2000000002,207592.755,207603.2000000002,207605.923,210353.28,8,400,,,
trial,html.Screen,4_41_0,2023-11-01T23:05:59.108Z,,0,1,,2551.0200000002806,response,ISIC_1774797.JPG,6,ISIC_0032192.JPG,ISIC_1774797.JPG,false,1,keypress(m),500,212904.5,212904.30000000028,210339.937,210342.80000000028,210353.28,212914.078,8,400,42,,ISIC_0032192.JPG
break,html.Screen,4_41_1,2023-11-01T23:05:59.108Z,,0,,,NaN,,,,,,false,,,,212905.40000000037,212905.2000000002,,212904.80000000028,,212914.078,8,400,,,
break_continue,html.Screen,4_41_2,2023-11-01T23:05:59.109Z,,0,,,NaN,,,,,,false,,,,212905.7000000002,212905.6000000001,,212905.40000000037,,212914.078,8,400,,,
sequence,flow.Sequence,4_41,2023-11-01T23:05:59.109Z,,0,,,2552.3200000000943,completion,,,,,false,,,,212905.90000000037,212905.6000000001,210339.937,210342.7000000002,210353.28,212914.078,8,400,,,
trial,html.Screen,4_42_0,2023-11-01T23:06:02.759Z,,0,1,,3641.322000000364,response,ISIC_0002774.JPG,4,ISIC_9270367.JPG,ISIC_0002774.JPG,false,1,keypress(m),500,216555.7000000002,216555.40000000037,212900.917,212905.90000000037,212914.078,216568.42,8,400,43,,ISIC_9270367.JPG
break,html.Screen,4_42_1,2023-11-01T23:06:02.760Z,,0,,,NaN,,,,,,false,,,,216556.6000000001,216556.40000000037,,216555.90000000037,,216568.42,8,400,,,
break_continue,html.Screen,4_42_2,2023-11-01T23:06:02.760Z,,0,,,NaN,,,,,,false,,,,216557,216556.90000000037,,216556.80000000028,,216568.42,8,400,,,
sequence,flow.Sequence,4_42,2023-11-01T23:06:02.760Z,,0,,,3642.822000000364,completion,,,,,false,,,,216557.1000000001,216556.90000000037,212900.917,212905.90000000037,212914.078,216568.42,8,400,,,
trial,html.Screen,4_43_0,2023-11-01T23:06:05.482Z,,0,1,,2710.3800000002666,response,ISIC_0032907.JPG,5,ISIC_5179620.JPG,ISIC_5179620.JPG,false,0,keypress(z),500,219279.1000000001,219278.80000000028,216557.066,216557.30000000028,216568.42,219289.269,8,400,44,,ISIC_0032907.JPG
break,html.Screen,4_43_1,2023-11-01T23:06:05.483Z,,0,,,NaN,,,,,,false,,,,219280.40000000037,219280,,219279.5,,219289.269,8,400,,,
break_continue,html.Screen,4_43_2,2023-11-01T23:06:05.484Z,,0,,,NaN,,,,,,false,,,,219280.80000000028,219280.7000000002,,219280.6000000001,,219289.269,8,400,,,
sequence,flow.Sequence,4_43,2023-11-01T23:06:05.484Z,,0,,,2712.2800000001735,completion,,,,,false,,,,219281,219280.7000000002,216557.066,216557.2000000002,216568.42,219289.269,8,400,,,
trial,html.Screen,4_44_0,2023-11-01T23:06:09.182Z,,0,1,,3689.6310000003723,response,ISIC_5149162.JPG,5,ISIC_0033538.JPG,ISIC_5149162.JPG,false,1,keypress(m),500,222979,222978.90000000037,219275.855,219281.1000000001,219289.269,222983.632,8,400,45,,ISIC_0033538.JPG
break,html.Screen,4_44_1,2023-11-01T23:06:09.183Z,,0,,,NaN,,,,,,false,,,,222979.7000000002,222979.5,,222979.30000000028,,222983.632,8,400,,,
break_continue,html.Screen,4_44_2,2023-11-01T23:06:09.183Z,,0,,,NaN,,,,,,false,,,,222980.2000000002,222980,,222979.80000000028,,222983.632,8,400,,,
sequence,flow.Sequence,4_44,2023-11-01T23:06:09.183Z,,0,,,3690.7309999999998,completion,,,,,false,,,,222980.30000000028,222980,219275.855,219281.1000000001,219289.269,222983.632,8,400,,,
trial,html.Screen,4_45_0,2023-11-01T23:06:11.921Z,,0,1,,2733.76800000036,response,ISIC_0028156.JPG,5,ISIC_3418245.JPG,ISIC_3418245.JPG,false,0,keypress(z),500,225717.6000000001,225717.40000000037,222970.29,222980.40000000037,222983.632,225731.227,8,400,46,,ISIC_0028156.JPG
break,html.Screen,4_45_1,2023-11-01T23:06:11.921Z,,0,,,NaN,,,,,,false,,,,225718.40000000037,225718.2000000002,,225717.80000000028,,225731.227,8,400,,,
break_continue,html.Screen,4_45_2,2023-11-01T23:06:11.922Z,,0,,,NaN,,,,,,false,,,,225718.80000000028,225718.7000000002,,225718.6000000001,,225731.227,8,400,,,
sequence,flow.Sequence,4_45,2023-11-01T23:06:11.922Z,,0,,,2735.068000000174,completion,,,,,false,,,,225718.90000000037,225718.7000000002,222970.29,222980.40000000037,222983.632,225731.227,8,400,,,
trial,html.Screen,4_46_0,2023-11-01T23:06:14.565Z,,0,1,,2630.2729999999865,response,ISIC_0015291.JPG,5,ISIC_6844752.JPG,ISIC_6844752.JPG,false,0,keypress(z),500,228361.80000000028,228361.5,225717.858,225719,225731.227,228371.971,8,400,47,,ISIC_0015291.JPG
break,html.Screen,4_46_1,2023-11-01T23:06:14.566Z,,0,,,NaN,,,,,,false,,,,228362.5,228362.40000000037,,228362,,228371.971,8,400,,,
break_continue,html.Screen,4_46_2,2023-11-01T23:06:14.566Z,,0,,,NaN,,,,,,false,,,,228362.90000000037,228362.7000000002,,228362.7000000002,,228371.971,8,400,,,
sequence,flow.Sequence,4_46,2023-11-01T23:06:14.566Z,,0,,,2631.4730000001728,completion,,,,,false,,,,228363,228362.7000000002,225717.858,225719,225731.227,228371.971,8,400,,,
trial,html.Screen,4_47_0,2023-11-01T23:06:17.065Z,,0,1,,2489.429000000382,response,ISIC_8812621.JPG,4,ISIC_9099430.JPG,ISIC_8812621.JPG,false,1,keypress(m),500,230861.7000000002,230861.40000000037,228360.462,228363.1000000001,228371.971,230879.669,8,400,48,,ISIC_9099430.JPG
break,html.Screen,4_47_1,2023-11-01T23:06:17.066Z,,0,,,NaN,,,,,,false,,,,230862.40000000037,230862.30000000028,,230861.90000000037,,230879.669,8,400,,,
break_continue,html.Screen,4_47_2,2023-11-01T23:06:17.066Z,,0,,,NaN,,,,,,false,,,,230862.80000000028,230862.7000000002,,230862.7000000002,,230879.669,8,400,,,
sequence,flow.Sequence,4_47,2023-11-01T23:06:17.066Z,,0,,,2490.729000000196,completion,,,,,false,,,,230863,230862.7000000002,228360.462,228363.1000000001,228371.971,230879.669,8,400,,,
trial,html.Screen,4_48_0,2023-11-01T23:06:19.884Z,,0,1,,2801.131000000285,response,ISIC_0066358.JPG,5,ISIC_0057287.JPG,ISIC_0066358.JPG,false,1,keypress(m),500,233681.1000000001,233680.80000000028,230852.675,230863.2000000002,230879.669,233693.518,8,400,49,,ISIC_0057287.JPG
break,html.Screen,4_48_1,2023-11-01T23:06:19.885Z,,0,,,NaN,,,,,,false,,,,233681.80000000028,233681.6000000001,,233681.2000000002,,233693.518,8,400,,,
break_continue,html.Screen,4_48_2,2023-11-01T23:06:19.885Z,,0,,,NaN,,,,,,false,,,,233682.1000000001,233682.1000000001,,233681.90000000037,,233693.518,8,400,,,
sequence,flow.Sequence,4_48,2023-11-01T23:06:19.885Z,,0,,,2802.4310000000987,completion,,,,,false,,,,233682.30000000028,233682.1000000001,230852.675,230863.1000000001,230879.669,233693.518,8,400,,,
trial,html.Screen,4_49_0,2023-11-01T23:06:22.431Z,,0,1,,2534.481999999989,response,ISIC_5267208.JPG,5,ISIC_8960223.JPG,ISIC_8960223.JPG,false,0,keypress(z),500,236228.2000000002,236228,233680.061,233682.40000000037,233693.518,236241.007,8,400,50,,ISIC_5267208.JPG
break,html.Screen,4_49_1,2023-11-01T23:06:32.434Z,,0,,,10002.848999999987,timeout,,,,,false,,,,246231.2000000002,246230.493,236227.51,236228.5,236241.007,246243.856,8,400,,,
break_continue,html.Screen,4_49_2,2023-11-01T23:06:33.985Z,,0,,,1527.3440000001865,response,,,,,false,continue,keypress(Space),,247781.7000000002,247771.2000000002,246230.493,246231.30000000028,246243.856,247790.915,8,400,,,
sequence,flow.Sequence,4_49,2023-11-01T23:06:33.985Z,,0,,,14077.682000000175,completion,,,,,false,,,,247781.80000000028,247771.2000000002,233680.061,233682.40000000037,233693.518,247790.915,8,400,,,
trial,html.Screen,4_50_0,2023-11-01T23:06:37.250Z,,0,2,,3256.084999999992,response,ISIC_0027359.JPG,5,ISIC_9348399.JPG,ISIC_9348399.JPG,false,0,keypress(z),500,251047.30000000028,251047,247777.475,247781.80000000028,247790.915,251058.625,8,400,1,,ISIC_0027359.JPG
break,html.Screen,4_50_1,2023-11-01T23:06:37.252Z,,0,,,NaN,,,,,,false,,,,251048.30000000028,251048,,251047.5,,251058.625,8,400,,,
break_continue,html.Screen,4_50_2,2023-11-01T23:06:37.252Z,,0,,,NaN,,,,,,false,,,,251048.90000000037,251048.7000000002,,251048.5,,251058.625,8,400,,,
sequence,flow.Sequence,4_50,2023-11-01T23:06:37.252Z,,0,,,3257.785000000178,completion,,,,,false,,,,251049,251048.7000000002,247777.475,247781.80000000028,247790.915,251058.625,8,400,,,
trial,html.Screen,4_51_0,2023-11-01T23:06:39.878Z,,0,2,,2615.7750000003725,response,ISIC_6344073.JPG,4,ISIC_0031565.JPG,ISIC_6344073.JPG,false,1,keypress(m),500,253674.7000000002,253674.40000000037,251045.236,251049.1000000001,251058.625,253686.041,8,400,2,,ISIC_0031565.JPG
break,html.Screen,4_51_1,2023-11-01T23:06:39.879Z,,0,,,NaN,,,,,,false,,,,253675.80000000028,253675.5,,253674.90000000037,,253686.041,8,400,,,
break_continue,html.Screen,4_51_2,2023-11-01T23:06:39.879Z,,0,,,NaN,,,,,,false,,,,253676.2000000002,253676.1000000001,,253675.90000000037,,253686.041,8,400,,,
sequence,flow.Sequence,4_51,2023-11-01T23:06:39.880Z,,0,,,2617.475000000093,completion,,,,,false,,,,253676.40000000037,253676.1000000001,251045.236,251049.1000000001,251058.625,253686.041,8,400,,,
trial,html.Screen,4_52_0,2023-11-01T23:06:42.986Z,,0,2,,3096.5590000000957,response,ISIC_0150363.JPG,5,ISIC_6157226.JPG,ISIC_0150363.JPG,false,1,keypress(m),500,256782.80000000028,256782.6000000001,253672.881,253676.5,253686.041,256793.566,8,400,3,,ISIC_6157226.JPG
break,html.Screen,4_52_1,2023-11-01T23:06:42.987Z,,0,,,NaN,,,,,,false,,,,256784,256783.7000000002,,256783.1000000001,,256793.566,8,400,,,
break_continue,html.Screen,4_52_2,2023-11-01T23:06:42.988Z,,0,,,NaN,,,,,,false,,,,256784.40000000037,256784.30000000028,,256784.2000000002,,256793.566,8,400,,,
sequence,flow.Sequence,4_52,2023-11-01T23:06:42.988Z,,0,,,3098.259000000282,completion,,,,,false,,,,256784.7000000002,256784.30000000028,253672.881,253676.5,253686.041,256793.566,8,400,,,
trial,html.Screen,4_53_0,2023-11-01T23:06:46.269Z,,0,2,,3272.234000000288,response,ISIC_0525687.JPG,5,ISIC_8755163.JPG,ISIC_0525687.JPG,false,1,keypress(m),500,260066.1000000001,260065.80000000028,256780.465,256784.7000000002,256793.566,260074.773,8,400,4,,ISIC_8755163.JPG
break,html.Screen,4_53_1,2023-11-01T23:06:46.270Z,,0,,,NaN,,,,,,false,,,,260066.90000000037,260066.7000000002,,260066.30000000028,,260074.773,8,400,,,
break_continue,html.Screen,4_53_2,2023-11-01T23:06:46.270Z,,0,,,NaN,,,,,,false,,,,260067.30000000028,260067.2000000002,,260067,,260074.773,8,400,,,
sequence,flow.Sequence,4_53,2023-11-01T23:06:46.271Z,,0,,,3273.6340000001946,completion,,,,,false,,,,260067.5,260067.2000000002,256780.465,256784.7000000002,256793.566,260074.773,8,400,,,
trial,html.Screen,4_54_0,2023-11-01T23:06:49.617Z,,0,2,,3338.9270000001998,response,ISIC_0032433.JPG,4,ISIC_9008095.JPG,ISIC_9008095.JPG,false,0,keypress(z),500,263414,263413.7000000002,260061.217,260067.6000000001,260074.773,263422.479,8,400,5,,ISIC_0032433.JPG
break,html.Screen,4_54_1,2023-11-01T23:06:49.618Z,,0,,,NaN,,,,,,false,,,,263415.2000000002,263414.8000000003,,263414.2000000002,,263422.479,8,400,,,
break_continue,html.Screen,4_54_2,2023-11-01T23:06:49.619Z,,0,,,NaN,,,,,,false,,,,263415.6000000001,263415.5,,263415.4000000004,,263422.479,8,400,,,
sequence,flow.Sequence,4_54,2023-11-01T23:06:49.619Z,,0,,,3340.7270000000135,completion,,,,,false,,,,263415.8000000003,263415.5,260061.217,260067.5,260074.773,263422.479,8,400,,,
trial,html.Screen,4_55_0,2023-11-01T23:06:52.309Z,,0,2,,2683.4210000003804,response,ISIC_2375394.JPG,5,ISIC_4105234.JPG,ISIC_2375394.JPG,false,1,keypress(m),500,266106.1000000001,266105.9000000004,263408.866,263415.9000000004,263422.479,266116.475,8,400,6,,ISIC_4105234.JPG
break,html.Screen,4_55_1,2023-11-01T23:06:52.310Z,,0,,,NaN,,,,,,false,,,,266107.2000000002,266106.9000000004,,266106.4000000004,,266116.475,8,400,,,
break_continue,html.Screen,4_55_2,2023-11-01T23:06:52.311Z,,0,,,NaN,,,,,,false,,,,266107.7000000002,266107.6000000001,,266107.3000000003,,266116.475,8,400,,,
sequence,flow.Sequence,4_55,2023-11-01T23:06:52.311Z,,0,,,2685.121000000101,completion,,,,,false,,,,266107.8000000003,266107.6000000001,263408.866,263415.9000000004,263422.479,266116.475,8,400,,,
trial,html.Screen,4_56_0,2023-11-01T23:06:55.400Z,,0,2,,3080.5250000000233,response,ISIC_6298228.JPG,4,ISIC_0009908.JPG,ISIC_0009908.JPG,false,0,keypress(z),500,269197.2000000002,269197,266103.087,266108,266116.475,269210.633,8,400,7,,ISIC_6298228.JPG
break,html.Screen,4_56_1,2023-11-01T23:06:55.401Z,,0,,,NaN,,,,,,false,,,,269198.1000000001,269197.9000000004,,269197.4000000004,,269210.633,8,400,,,
break_continue,html.Screen,4_56_2,2023-11-01T23:06:55.402Z,,0,,,NaN,,,,,,false,,,,269198.5,269198.4000000004,,269198.2000000002,,269210.633,8,400,,,
sequence,flow.Sequence,4_56,2023-11-01T23:06:55.402Z,,0,,,3081.925000000396,completion,,,,,false,,,,269198.6000000001,269198.4000000004,266103.087,266107.9000000004,266116.475,269210.633,8,400,,,
trial,html.Screen,4_57_0,2023-11-01T23:06:58.123Z,,0,2,,2709.167000000307,response,ISIC_7711947.JPG,5,ISIC_0013967.JPG,ISIC_7711947.JPG,false,1,keypress(m),500,271920.1000000001,271919.8000000003,269197.46,269198.7000000002,269210.633,271931.381,8,400,8,,ISIC_0013967.JPG
break,html.Screen,4_57_1,2023-11-01T23:06:58.124Z,,0,,,NaN,,,,,,false,,,,271920.9000000004,271920.7000000002,,271920.3000000003,,271931.381,8,400,,,
break_continue,html.Screen,4_57_2,2023-11-01T23:06:58.124Z,,0,,,NaN,,,,,,false,,,,271921.3000000003,271921.1000000001,,271921,,271931.381,8,400,,,
sequence,flow.Sequence,4_57,2023-11-01T23:06:58.125Z,,0,,,2710.4670000001206,completion,,,,,false,,,,271921.4000000004,271921.1000000001,269197.46,269198.7000000002,269210.633,271931.381,8,400,,,
trial,html.Screen,4_58_0,2023-11-01T23:07:00.782Z,,0,2,,2647.5190000003786,response,ISIC_0695029.JPG,5,ISIC_2858419.JPG,ISIC_0695029.JPG,false,1,keypress(m),500,274579.2000000002,274578.9000000004,271918.018,271921.5,271931.381,274585.505,8,400,9,,ISIC_2858419.JPG
break,html.Screen,4_58_1,2023-11-01T23:07:00.783Z,,0,,,NaN,,,,,,false,,,,274580.4000000004,274580,,274579.4000000004,,274585.505,8,400,,,
break_continue,html.Screen,4_58_2,2023-11-01T23:07:00.784Z,,0,,,NaN,,,,,,false,,,,274580.8000000003,274580.7000000002,,274580.6000000001,,274585.505,8,400,,,
sequence,flow.Sequence,4_58,2023-11-01T23:07:00.784Z,,0,,,2649.3190000001923,completion,,,,,false,,,,274581,274580.7000000002,271918.018,271921.5,271931.381,274585.505,8,400,,,
trial,html.Screen,4_59_0,2023-11-01T23:07:04.387Z,,0,2,,3598.0950000000885,response,ISIC_0170101.JPG,5,ISIC_0034187.JPG,ISIC_0170101.JPG,false,1,keypress(m),500,278183.9000000004,278183.6000000001,274572.226,274581.1000000001,274585.505,278186.741,8,400,10,,ISIC_0034187.JPG
break,html.Screen,4_59_1,2023-11-01T23:07:04.388Z,,0,,,NaN,,,,,,false,,,,278185.1000000001,278184.8000000003,,278184.1000000001,,278186.741,8,400,,,
break_continue,html.Screen,4_59_2,2023-11-01T23:07:04.389Z,,0,,,NaN,,,,,,false,,,,278185.6000000001,278185.4000000004,,278185.2000000002,,278186.741,8,400,,,
sequence,flow.Sequence,4_59,2023-11-01T23:07:04.389Z,,0,,,3599.895000000368,completion,,,,,false,,,,278185.8000000003,278185.4000000004,274572.226,274581,274585.505,278186.741,8,400,,,
trial,html.Screen,4_60_0,2023-11-01T23:07:08.615Z,,0,2,,4224.859000000113,response,ISIC_0025324.JPG,4,ISIC_4293419.JPG,ISIC_0025324.JPG,false,1,keypress(m),500,282411.7000000002,282411.6000000001,278173.235,278186,278186.741,282414.412,8,400,11,,ISIC_4293419.JPG
break,html.Screen,4_60_1,2023-11-01T23:07:08.615Z,,0,,,NaN,,,,,,false,,,,282412,282411.8000000003,,282411.7000000002,,282414.412,8,400,,,
break_continue,html.Screen,4_60_2,2023-11-01T23:07:08.615Z,,0,,,NaN,,,,,,false,,,,282412.2000000002,282412.1000000001,,282412,,282414.412,8,400,,,
sequence,flow.Sequence,4_60,2023-11-01T23:07:08.615Z,,0,,,4225.359000000113,completion,,,,,false,,,,282412.2000000002,282412.1000000001,278173.235,278186,278186.741,282414.412,8,400,,,
trial,html.Screen,4_61_0,2023-11-01T23:07:12.137Z,,0,2,,3519.388000000268,response,ISIC_7319169.JPG,4,ISIC_0002288.JPG,ISIC_0002288.JPG,false,0,keypress(z),500,285934,285933.8000000003,282401.111,282412.3000000003,282414.412,285950.71,8,400,12,,ISIC_7319169.JPG
break,html.Screen,4_61_1,2023-11-01T23:07:12.138Z,,0,,,NaN,,,,,,false,,,,285935.1000000001,285934.8000000003,,285934.3000000003,,285950.71,8,400,,,
break_continue,html.Screen,4_61_2,2023-11-01T23:07:12.139Z,,0,,,NaN,,,,,,false,,,,285935.7000000002,285935.4000000004,,285935.3000000003,,285950.71,8,400,,,
sequence,flow.Sequence,4_61,2023-11-01T23:07:12.139Z,,0,,,3520.9880000003614,completion,,,,,false,,,,285935.9000000004,285935.4000000004,282401.111,282412.3000000003,282414.412,285950.71,8,400,,,
trial,html.Screen,4_62_0,2023-11-01T23:07:15.980Z,,0,2,,3826.289999999979,response,ISIC_2924968.JPG,4,ISIC_0028422.JPG,ISIC_2924968.JPG,false,1,keypress(m),500,289777.2000000002,289777,285922.394,285936,285950.71,289790.286,8,400,13,,ISIC_0028422.JPG
break,html.Screen,4_62_1,2023-11-01T23:07:15.982Z,,0,,,NaN,,,,,,false,,,,289778.4000000004,289778,,289777.5,,289790.286,8,400,,,
break_continue,html.Screen,4_62_2,2023-11-01T23:07:15.982Z,,0,,,NaN,,,,,,false,,,,289778.9000000004,289778.7000000002,,289778.6000000001,,289790.286,8,400,,,
sequence,flow.Sequence,4_62,2023-11-01T23:07:15.982Z,,0,,,3827.9900000001653,completion,,,,,false,,,,289779.1000000001,289778.7000000002,285922.394,285936,285950.71,289790.286,8,400,,,
trial,html.Screen,4_63_0,2023-11-01T23:07:19.040Z,,0,2,,3046.1140000003506,response,ISIC_5909451.JPG,5,ISIC_9219692.JPG,ISIC_5909451.JPG,false,1,keypress(m),500,292836.6000000001,292836.4000000004,289776.713,289779.1000000001,289790.286,292844.563,8,400,14,,ISIC_9219692.JPG
break,html.Screen,4_63_1,2023-11-01T23:07:19.041Z,,0,,,NaN,,,,,,false,,,,292837.5,292837.3000000003,,292836.9000000004,,292844.563,8,400,,,
break_continue,html.Screen,4_63_2,2023-11-01T23:07:19.041Z,,0,,,NaN,,,,,,false,,,,292837.8000000003,292837.7000000002,,292837.6000000001,,292844.563,8,400,,,
sequence,flow.Sequence,4_63,2023-11-01T23:07:19.041Z,,0,,,3047.4140000001644,completion,,,,,false,,,,292838,292837.7000000002,289776.713,289779.1000000001,289790.286,292844.563,8,400,,,
trial,html.Screen,4_64_0,2023-11-01T23:07:21.748Z,,0,2,,2699.6370000001625,response,ISIC_6951506.JPG,5,ISIC_0056796.JPG,ISIC_0056796.JPG,false,0,keypress(z),500,295544.4000000004,295544.2000000002,292830.85,292838.1000000001,292844.563,295552.006,8,400,15,,ISIC_6951506.JPG
break,html.Screen,4_64_1,2023-11-01T23:07:21.749Z,,0,,,NaN,,,,,,false,,,,295545.6000000001,295545.2000000002,,295544.6000000001,,295552.006,8,400,,,
break_continue,html.Screen,4_64_2,2023-11-01T23:07:21.749Z,,0,,,NaN,,,,,,false,,,,295546.2000000002,295546,,295545.8000000003,,295552.006,8,400,,,
sequence,flow.Sequence,4_64,2023-11-01T23:07:21.749Z,,0,,,2701.4369999999763,completion,,,,,false,,,,295546.3000000003,295546,292830.85,292838.1000000001,292844.563,295552.006,8,400,,,
trial,html.Screen,4_65_0,2023-11-01T23:07:24.647Z,,0,2,,2891.8940000003786,response,ISIC_7820005.JPG,5,ISIC_5495413.JPG,ISIC_7820005.JPG,false,1,keypress(m),500,298444.1000000001,298443.9000000004,295538.334,295546.5,295552.006,298445.848,8,400,16,,ISIC_5495413.JPG
break,html.Screen,4_65_1,2023-11-01T23:07:24.647Z,,0,,,NaN,,,,,,false,,,,298444.3000000003,298444.3000000003,,298444.1000000001,,298445.848,8,400,,,
break_continue,html.Screen,4_65_2,2023-11-01T23:07:24.648Z,,0,,,NaN,,,,,,false,,,,298444.5,298444.5,,298444.4000000004,,298445.848,8,400,,,
sequence,flow.Sequence,4_65,2023-11-01T23:07:24.648Z,,0,,,2892.494000000006,completion,,,,,false,,,,298444.6000000001,298444.5,295538.334,295546.4000000004,295552.006,298445.848,8,400,,,
trial,html.Screen,4_66_0,2023-11-01T23:07:27.737Z,,0,2,,3087.752000000095,response,ISIC_0054851.JPG,5,ISIC_6392478.JPG,ISIC_6392478.JPG,false,0,keypress(z),500,301533.7000000002,301533.6000000001,298432.658,298444.6000000001,298445.848,301540.111,8,400,17,,ISIC_0054851.JPG
break,html.Screen,4_66_1,2023-11-01T23:07:27.737Z,,0,,,NaN,,,,,,false,,,,301534.1000000001,301534.1000000001,,301533.9000000004,,301540.111,8,400,,,
break_continue,html.Screen,4_66_2,2023-11-01T23:07:27.737Z,,0,,,NaN,,,,,,false,,,,301534.1000000001,301534.1000000001,,301534.1000000001,,301540.111,8,400,,,
sequence,flow.Sequence,4_66,2023-11-01T23:07:27.737Z,,0,,,3088.252000000095,completion,,,,,false,,,,301534.2000000002,301534.1000000001,298432.658,298444.6000000001,298445.848,301540.111,8,400,,,
trial,html.Screen,4_67_0,2023-11-01T23:07:30.299Z,,0,2,,2555.289000000397,response,ISIC_5179884.JPG,4,ISIC_0011995.JPG,ISIC_5179884.JPG,false,1,keypress(m),500,304095.8000000003,304095.4000000004,301526.894,301534.2000000002,301540.111,304100.997,8,400,18,,ISIC_0011995.JPG
break,html.Screen,4_67_1,2023-11-01T23:07:30.300Z,,0,,,NaN,,,,,,false,,,,304096.9000000004,304096.5,,304096,,304100.997,8,400,,,
break_continue,html.Screen,4_67_2,2023-11-01T23:07:30.301Z,,0,,,NaN,,,,,,false,,,,304097.5,304097.4000000004,,304097.3000000003,,304100.997,8,400,,,
sequence,flow.Sequence,4_67,2023-11-01T23:07:30.301Z,,0,,,2557.289000000397,completion,,,,,false,,,,304097.8000000003,304097.4000000004,301526.894,301534.2000000002,301540.111,304100.997,8,400,,,
trial,html.Screen,4_68_0,2023-11-01T23:07:33.279Z,,0,2,,2974.603000000119,response,ISIC_0027591.JPG,4,ISIC_8181142.JPG,ISIC_8181142.JPG,false,0,keypress(z),500,307075.9000000004,307075.6000000001,304087.639,304097.9000000004,304100.997,307088.706,8,400,19,,ISIC_0027591.JPG
break,html.Screen,4_68_1,2023-11-01T23:07:33.280Z,,0,,,NaN,,,,,,false,,,,307076.7000000002,307076.5,,307076.1000000001,,307088.706,8,400,,,
break_continue,html.Screen,4_68_2,2023-11-01T23:07:33.281Z,,0,,,NaN,,,,,,false,,,,307077.6000000001,307077.3000000003,,307077,,307088.706,8,400,,,
sequence,flow.Sequence,4_68,2023-11-01T23:07:33.281Z,,0,,,2976.3030000003055,completion,,,,,false,,,,307077.8000000003,307077.3000000003,304087.639,304097.9000000004,304100.997,307088.706,8,400,,,
trial,html.Screen,4_69_0,2023-11-01T23:07:36.611Z,,0,2,,3318.694000000367,response,ISIC_0027817.JPG,5,ISIC_0025006.JPG,ISIC_0027817.JPG,false,1,keypress(m),500,310407.7000000002,310407.4000000004,307075.247,307078,307088.706,310423.507,8,400,20,,ISIC_0025006.JPG
break,html.Screen,4_69_1,2023-11-01T23:07:36.612Z,,0,,,NaN,,,,,,false,,,,310408.9000000004,310408.4000000004,,310407.8000000003,,310423.507,8,400,,,
break_continue,html.Screen,4_69_2,2023-11-01T23:07:36.612Z,,0,,,NaN,,,,,,false,,,,310409.3000000003,310409.1000000001,,310409,,310423.507,8,400,,,
sequence,flow.Sequence,4_69,2023-11-01T23:07:36.612Z,,0,,,3320.3940000000875,completion,,,,,false,,,,310409.4000000004,310409.1000000001,307075.247,307077.9000000004,307088.706,310423.507,8,400,,,
trial,html.Screen,4_70_0,2023-11-01T23:07:39.318Z,,0,2,,2691.293000000296,response,ISIC_0068176.JPG,6,ISIC_0025327.JPG,ISIC_0025327.JPG,false,0,keypress(z),500,313115,313114.8000000003,310396.062,310409.5,310423.507,313130.566,8,400,21,,ISIC_0068176.JPG
break,html.Screen,4_70_1,2023-11-01T23:07:39.319Z,,0,,,NaN,,,,,,false,,,,313115.8000000003,313115.6000000001,,313115.2000000002,,313130.566,8,400,,,
break_continue,html.Screen,4_70_2,2023-11-01T23:07:39.319Z,,0,,,NaN,,,,,,false,,,,313116.1000000001,313116,,313116,,313130.566,8,400,,,
sequence,flow.Sequence,4_70,2023-11-01T23:07:39.319Z,,0,,,2692.4930000000168,completion,,,,,false,,,,313116.3000000003,313116,310396.062,310409.5,310423.507,313130.566,8,400,,,
trial,html.Screen,4_71_0,2023-11-01T23:07:42.410Z,,0,2,,3076.5340000001015,response,ISIC_2092911.JPG,5,ISIC_6546981.JPG,ISIC_2092911.JPG,false,1,keypress(m),500,316207.4000000004,316207.1000000001,313103.895,313116.5,313130.566,316211.286,8,400,22,,ISIC_6546981.JPG
break,html.Screen,4_71_1,2023-11-01T23:07:42.412Z,,0,,,NaN,,,,,,false,,,,316208.8000000003,316208.5,,316207.6000000001,,316211.286,8,400,,,
break_continue,html.Screen,4_71_2,2023-11-01T23:07:42.412Z,,0,,,NaN,,,,,,false,,,,316209.3000000003,316209.1000000001,,316209,,316211.286,8,400,,,
sequence,flow.Sequence,4_71,2023-11-01T23:07:42.412Z,,0,,,3078.5340000001015,completion,,,,,false,,,,316209.4000000004,316209.1000000001,313103.895,313116.5,313130.566,316211.286,8,400,,,
trial,html.Screen,4_72_0,2023-11-01T23:07:44.863Z,,0,2,,2448.213999999978,response,ISIC_0002295.JPG,5,ISIC_0002639.JPG,ISIC_0002639.JPG,false,0,keypress(z),500,318659.8000000003,318659.5,316197.795,316209.6000000001,316211.286,318665.679,8,400,23,,ISIC_0002295.JPG
break,html.Screen,4_72_1,2023-11-01T23:07:44.864Z,,0,,,NaN,,,,,,false,,,,318660.6000000001,318660.4000000004,,318660,,318665.679,8,400,,,
break_continue,html.Screen,4_72_2,2023-11-01T23:07:44.864Z,,0,,,NaN,,,,,,false,,,,318660.9000000004,318660.8000000003,,318660.7000000002,,318665.679,8,400,,,
sequence,flow.Sequence,4_72,2023-11-01T23:07:44.864Z,,0,,,2449.5140000002575,completion,,,,,false,,,,318661,318660.8000000003,316197.795,316209.5,316211.286,318665.679,8,400,,,
trial,html.Screen,4_73_0,2023-11-01T23:07:47.682Z,,0,2,,2813.221000000369,response,ISIC_8073555.JPG,5,ISIC_0031642.JPG,ISIC_0031642.JPG,false,0,keypress(z),500,321479.1000000001,321478.9000000004,318651.827,318661.2000000002,318665.679,321492.926,8,400,24,,ISIC_8073555.JPG
break,html.Screen,4_73_1,2023-11-01T23:07:47.683Z,,0,,,NaN,,,,,,false,,,,321480,321479.8000000003,,321479.4000000004,,321492.926,8,400,,,
break_continue,html.Screen,4_73_2,2023-11-01T23:07:47.683Z,,0,,,NaN,,,,,,false,,,,321480.3000000003,321480.2000000002,,321480.1000000001,,321492.926,8,400,,,
sequence,flow.Sequence,4_73,2023-11-01T23:07:47.684Z,,0,,,2814.5210000001825,completion,,,,,false,,,,321480.5,321480.2000000002,318651.827,318661.2000000002,318665.679,321492.926,8,400,,,
trial,html.Screen,4_74_0,2023-11-01T23:07:50.085Z,,0,2,,2389.0740000000224,response,ISIC_5240387.JPG,5,ISIC_0000814.JPG,ISIC_0000814.JPG,false,0,keypress(z),500,323882.2000000002,323882,321479.269,321480.6000000001,321492.926,323893.622,8,400,25,,ISIC_5240387.JPG
break,html.Screen,4_74_1,2023-11-01T23:07:50.086Z,,0,,,NaN,,,,,,false,,,,323883.1000000001,323883,,323882.5,,323893.622,8,400,,,
break_continue,html.Screen,4_74_2,2023-11-01T23:07:50.086Z,,0,,,NaN,,,,,,false,,,,323883.4000000004,323883.3000000003,,323883.2000000002,,323893.622,8,400,,,
sequence,flow.Sequence,4_74,2023-11-01T23:07:50.087Z,,0,,,2390.3740000003017,completion,,,,,false,,,,323883.6000000001,323883.3000000003,321479.269,321480.6000000001,321492.926,323893.622,8,400,,,
trial,html.Screen,4_75_0,2023-11-01T23:07:53.225Z,,0,2,,3127.878000000026,response,ISIC_0059512.JPG,5,ISIC_4502605.JPG,ISIC_0059512.JPG,false,1,keypress(m),500,327021.8000000003,327021.5,323880.07,323883.7000000002,323893.622,327027.819,8,400,26,,ISIC_4502605.JPG
break,html.Screen,4_75_1,2023-11-01T23:07:53.226Z,,0,,,NaN,,,,,,false,,,,327023.2000000002,327022.5,,327022,,327027.819,8,400,,,
break_continue,html.Screen,4_75_2,2023-11-01T23:07:53.227Z,,0,,,NaN,,,,,,false,,,,327023.6000000001,327023.4000000004,,327023.2000000002,,327027.819,8,400,,,
sequence,flow.Sequence,4_75,2023-11-01T23:07:53.227Z,,0,,,3129.7780000003986,completion,,,,,false,,,,327023.7000000002,327023.4000000004,323880.07,323883.7000000002,323893.622,327027.819,8,400,,,
trial,html.Screen,4_76_0,2023-11-01T23:07:55.709Z,,0,2,,2478.1809999999823,response,ISIC_0046443.JPG,5,ISIC_0024280.JPG,ISIC_0046443.JPG,false,1,keypress(m),500,329506.2000000002,329506,327014.758,327023.9000000004,327027.819,329508.61,8,400,27,,ISIC_0024280.JPG
break,html.Screen,4_76_1,2023-11-01T23:07:55.710Z,,0,,,NaN,,,,,,false,,,,329507.4000000004,329507,,329506.5,,329508.61,8,400,,,
break_continue,html.Screen,4_76_2,2023-11-01T23:07:55.711Z,,0,,,NaN,,,,,,false,,,,329507.7000000002,329507.6000000001,,329507.5,,329508.61,8,400,,,
sequence,flow.Sequence,4_76,2023-11-01T23:07:55.711Z,,0,,,2479.7810000000754,completion,,,,,false,,,,329507.9000000004,329507.6000000001,327014.758,327023.8000000003,327027.819,329508.61,8,400,,,
trial,html.Screen,4_77_0,2023-11-01T23:07:59.697Z,,0,2,,3985.2900000003865,response,ISIC_9358630.JPG,6,ISIC_5140952.JPG,ISIC_5140952.JPG,false,0,keypress(z),500,333494.1000000001,333493.9000000004,329495.005,329508.1000000001,329508.61,333509.639,8,400,28,,ISIC_9358630.JPG
break,html.Screen,4_77_1,2023-11-01T23:07:59.698Z,,0,,,NaN,,,,,,false,,,,333495,333494.8000000003,,333494.4000000004,,333509.639,8,400,,,
break_continue,html.Screen,4_77_2,2023-11-01T23:07:59.698Z,,0,,,NaN,,,,,,false,,,,333495.3000000003,333495.2000000002,,333495.1000000001,,333509.639,8,400,,,
sequence,flow.Sequence,4_77,2023-11-01T23:07:59.698Z,,0,,,3986.5900000002002,completion,,,,,false,,,,333495.4000000004,333495.2000000002,329495.005,329508.1000000001,329508.61,333509.639,8,400,,,
trial,html.Screen,4_78_0,2023-11-01T23:08:03.172Z,,0,2,,3459.4610000000685,response,ISIC_0031999.JPG,4,ISIC_4851652.JPG,ISIC_0031999.JPG,false,1,keypress(m),500,336969.3000000003,336969.1000000001,333496.2,333495.5,333509.639,336990.586,8,400,29,,ISIC_4851652.JPG
break,html.Screen,4_78_1,2023-11-01T23:08:03.173Z,,0,,,NaN,,,,,,false,,,,336969.9000000004,336969.8000000003,,336969.5,,336990.586,8,400,,,
break_continue,html.Screen,4_78_2,2023-11-01T23:08:03.173Z,,0,,,NaN,,,,,,false,,,,336970.1000000001,336970,,336970,,336990.586,8,400,,,
sequence,flow.Sequence,4_78,2023-11-01T23:08:03.173Z,,0,,,3460.3609999999753,completion,,,,,false,,,,336970.2000000002,336970,333496.2,333495.5,333509.639,336990.586,8,400,,,
trial,html.Screen,4_79_0,2023-11-01T23:08:06.295Z,,0,2,,3101.4139999999898,response,ISIC_0000054.JPG,5,ISIC_4582670.JPG,ISIC_4582670.JPG,false,0,keypress(z),500,340092.4000000004,340092,336977.276,336970.3000000003,336990.586,340098.251,8,400,30,,ISIC_0000054.JPG
break,html.Screen,4_79_1,2023-11-01T23:08:06.297Z,,0,,,NaN,,,,,,false,,,,340093.4000000004,340093,,340092.6000000001,,340098.251,8,400,,,
break_continue,html.Screen,4_79_2,2023-11-01T23:08:06.297Z,,0,,,NaN,,,,,,false,,,,340093.9000000004,340093.8000000003,,340093.6000000001,,340098.251,8,400,,,
sequence,flow.Sequence,4_79,2023-11-01T23:08:06.297Z,,0,,,3103.214000000269,completion,,,,,false,,,,340094.1000000001,340093.8000000003,336977.276,336970.3000000003,336990.586,340098.251,8,400,,,
trial,html.Screen,4_80_0,2023-11-01T23:08:08.891Z,,0,2,,2589.949000000197,response,ISIC_1054090.JPG,5,ISIC_0056246.JPG,ISIC_1054090.JPG,false,1,keypress(m),500,342688.5,342688.2000000002,340084.81,340094.2000000002,340098.251,342698.971,8,400,31,,ISIC_0056246.JPG
break,html.Screen,4_80_1,2023-11-01T23:08:08.893Z,,0,,,NaN,,,,,,false,,,,342689.6000000001,342689.3000000003,,342688.7000000002,,342698.971,8,400,,,
break_continue,html.Screen,4_80_2,2023-11-01T23:08:08.893Z,,0,,,NaN,,,,,,false,,,,342690.1000000001,342689.9000000004,,342689.7000000002,,342698.971,8,400,,,
sequence,flow.Sequence,4_80,2023-11-01T23:08:08.894Z,,0,,,2591.6490000003832,completion,,,,,false,,,,342690.5,342689.9000000004,340084.81,340094.2000000002,340098.251,342698.971,8,400,,,
trial,html.Screen,4_81_0,2023-11-01T23:08:11.455Z,,0,2,,2553.1290000000736,response,ISIC_4544879.JPG,5,ISIC_0065235.JPG,ISIC_4544879.JPG,false,1,keypress(m),500,345252.4000000004,345252.1000000001,342685.595,342690.7000000002,342698.971,345259.835,8,400,32,,ISIC_0065235.JPG
break,html.Screen,4_81_1,2023-11-01T23:08:11.457Z,,0,,,NaN,,,,,,false,,,,345253.6000000001,345253.2000000002,,345252.6000000001,,345259.835,8,400,,,
break_continue,html.Screen,4_81_2,2023-11-01T23:08:11.457Z,,0,,,NaN,,,,,,false,,,,345254.1000000001,345254,,345253.8000000003,,345259.835,8,400,,,
sequence,flow.Sequence,4_81,2023-11-01T23:08:11.457Z,,0,,,2555.0289999999804,completion,,,,,false,,,,345254.3000000003,345254,342685.595,342690.7000000002,342698.971,345259.835,8,400,,,
trial,html.Screen,4_82_0,2023-11-01T23:08:13.891Z,,0,2,,2427.5650000003516,response,ISIC_0024527.JPG,5,ISIC_0056246.JPG,ISIC_0024527.JPG,false,1,keypress(m),500,347687.8000000003,347687.4000000004,345246.347,345254.4000000004,345259.835,347700.759,8,400,33,,ISIC_0056246.JPG
break,html.Screen,4_82_1,2023-11-01T23:08:13.892Z,,0,,,NaN,,,,,,false,,,,347689,347688.5,,347688,,347700.759,8,400,,,
break_continue,html.Screen,4_82_2,2023-11-01T23:08:13.893Z,,0,,,NaN,,,,,,false,,,,347689.5,347689.4000000004,,347689.2000000002,,347700.759,8,400,,,
sequence,flow.Sequence,4_82,2023-11-01T23:08:13.893Z,,0,,,2429.5650000003516,completion,,,,,false,,,,347689.7000000002,347689.4000000004,345246.347,345254.4000000004,345259.835,347700.759,8,400,,,
trial,html.Screen,4_83_0,2023-11-01T23:08:16.630Z,,0,2,,2726.341000000073,response,ISIC_1412843.JPG,4,ISIC_0025702.JPG,ISIC_0025702.JPG,false,0,keypress(z),500,350427.3000000003,350427.1000000001,347687.085,347689.8000000003,347700.759,350434.847,8,400,34,,ISIC_1412843.JPG
break,html.Screen,4_83_1,2023-11-01T23:08:16.631Z,,0,,,NaN,,,,,,false,,,,350428.2000000002,350428,,350427.6000000001,,350434.847,8,400,,,
break_continue,html.Screen,4_83_2,2023-11-01T23:08:16.632Z,,0,,,NaN,,,,,,false,,,,350428.5,350428.4000000004,,350428.4000000004,,350434.847,8,400,,,
sequence,flow.Sequence,4_83,2023-11-01T23:08:16.632Z,,0,,,2727.6410000003525,completion,,,,,false,,,,350428.6000000001,350428.4000000004,347687.085,347689.8000000003,347700.759,350434.847,8,400,,,
trial,html.Screen,4_84_0,2023-11-01T23:08:20.794Z,,0,2,,4155.453000000271,response,ISIC_3652884.JPG,5,ISIC_6785041.JPG,ISIC_3652884.JPG,false,1,keypress(m),500,354590.6000000001,354590.3000000003,350421.176,350428.8000000003,350434.847,354595.784,8,400,35,,ISIC_6785041.JPG
break,html.Screen,4_84_1,2023-11-01T23:08:20.794Z,,0,,,NaN,,,,,,false,,,,354591.4000000004,354591.2000000002,,354590.8000000003,,354595.784,8,400,,,
break_continue,html.Screen,4_84_2,2023-11-01T23:08:20.795Z,,0,,,NaN,,,,,,false,,,,354591.7000000002,354591.7000000002,,354591.6000000001,,354595.784,8,400,,,
sequence,flow.Sequence,4_84,2023-11-01T23:08:20.795Z,,0,,,4156.853000000177,completion,,,,,false,,,,354591.9000000004,354591.7000000002,350421.176,350428.7000000002,350434.847,354595.784,8,400,,,
trial,html.Screen,4_85_0,2023-11-01T23:08:23.405Z,,0,2,,2605.916000000201,response,ISIC_8048668.JPG,5,ISIC_0013411.JPG,ISIC_8048668.JPG,false,1,keypress(m),500,357201.9000000004,357201.7000000002,354582.718,354592.1000000001,354595.784,357209.959,8,400,36,,ISIC_0013411.JPG
break,html.Screen,4_85_1,2023-11-01T23:08:23.406Z,,0,,,NaN,,,,,,false,,,,357203.1000000001,357202.7000000002,,357202.2000000002,,357209.959,8,400,,,
break_continue,html.Screen,4_85_2,2023-11-01T23:08:23.407Z,,0,,,NaN,,,,,,false,,,,357203.5,357203.5,,357203.3000000003,,357209.959,8,400,,,
sequence,flow.Sequence,4_85,2023-11-01T23:08:23.407Z,,0,,,2607.716000000015,completion,,,,,false,,,,357203.7000000002,357203.5,354582.718,354592,354595.784,357209.959,8,400,,,
trial,html.Screen,4_86_0,2023-11-01T23:08:26.656Z,,0,2,,3242.841000000306,response,ISIC_0069056.JPG,4,ISIC_0032098.JPG,ISIC_0069056.JPG,false,1,keypress(m),500,360453,360452.8000000003,357196.828,357203.8000000003,357209.959,360477.55,8,400,37,,ISIC_0032098.JPG
break,html.Screen,4_86_1,2023-11-01T23:08:26.657Z,,0,,,NaN,,,,,,false,,,,360453.7000000002,360453.5,,360453.2000000002,,360477.55,8,400,,,
break_continue,html.Screen,4_86_2,2023-11-01T23:08:26.657Z,,0,,,NaN,,,,,,false,,,,360454,360453.8000000003,,360453.8000000003,,360477.55,8,400,,,
sequence,flow.Sequence,4_86,2023-11-01T23:08:26.657Z,,0,,,3243.841000000306,completion,,,,,false,,,,360454.1000000001,360453.8000000003,357196.828,357203.8000000003,357209.959,360477.55,8,400,,,
trial,html.Screen,4_87_0,2023-11-01T23:08:29.523Z,,0,2,,2841.850000000384,response,ISIC_2406492.JPG,4,ISIC_0010649.JPG,ISIC_0010649.JPG,false,0,keypress(z),500,363319.7000000002,363319.4000000004,360464.191,360454.2000000002,360477.55,363331.794,8,400,38,,ISIC_2406492.JPG
break,html.Screen,4_87_1,2023-11-01T23:08:29.524Z,,0,,,NaN,,,,,,false,,,,363320.4000000004,363320.3000000003,,363319.9000000004,,363331.794,8,400,,,
break_continue,html.Screen,4_87_2,2023-11-01T23:08:29.524Z,,0,,,NaN,,,,,,false,,,,363320.9000000004,363320.7000000002,,363320.5,,363331.794,8,400,,,
sequence,flow.Sequence,4_87,2023-11-01T23:08:29.524Z,,0,,,2843.150000000198,completion,,,,,false,,,,363321,363320.7000000002,360464.191,360454.2000000002,360477.55,363331.794,8,400,,,
trial,html.Screen,4_88_0,2023-11-01T23:08:33.846Z,,0,2,,4310.406000000192,response,ISIC_8649055.JPG,4,ISIC_3819893.JPG,ISIC_8649055.JPG,false,1,keypress(m),500,367642.4000000004,367642.2000000002,363318.342,363321.1000000001,363331.794,367653.734,8,400,39,,ISIC_3819893.JPG
break,html.Screen,4_88_1,2023-11-01T23:08:33.846Z,,0,,,NaN,,,,,,false,,,,367643.3000000003,367643.1000000001,,367642.7000000002,,367653.734,8,400,,,
break_continue,html.Screen,4_88_2,2023-11-01T23:08:33.847Z,,0,,,NaN,,,,,,false,,,,367643.6000000001,367643.6000000001,,367643.5,,367653.734,8,400,,,
sequence,flow.Sequence,4_88,2023-11-01T23:08:33.847Z,,0,,,4311.806000000099,completion,,,,,false,,,,367643.9000000004,367643.6000000001,363318.342,363321.1000000001,363331.794,367653.734,8,400,,,
trial,html.Screen,4_89_0,2023-11-01T23:08:36.489Z,,0,2,,2632.0660000002827,response,ISIC_0009939.JPG,4,ISIC_0024591.JPG,ISIC_0009939.JPG,false,1,keypress(m),500,370286.1000000001,370285.8000000003,367639.572,367644,367653.734,370293.998,8,400,40,,ISIC_0024591.JPG
break,html.Screen,4_89_1,2023-11-01T23:08:36.490Z,,0,,,NaN,,,,,,false,,,,370287.2000000002,370286.7000000002,,370286.3000000003,,370293.998,8,400,,,
break_continue,html.Screen,4_89_2,2023-11-01T23:08:36.491Z,,0,,,NaN,,,,,,false,,,,370287.7000000002,370287.6000000001,,370287.4000000004,,370293.998,8,400,,,
sequence,flow.Sequence,4_89,2023-11-01T23:08:36.491Z,,0,,,2633.8660000000964,completion,,,,,false,,,,370287.9000000004,370287.6000000001,367639.572,367644,367653.734,370293.998,8,400,,,
trial,html.Screen,4_90_0,2023-11-01T23:08:39.613Z,,0,2,,3116.0019999999786,response,ISIC_1328488.JPG,5,ISIC_7714981.JPG,ISIC_1328488.JPG,false,1,keypress(m),500,373410.2000000002,373410,370280.678,370288.1000000001,370293.998,373414.668,8,400,41,,ISIC_7714981.JPG
break,html.Screen,4_90_1,2023-11-01T23:08:39.614Z,,0,,,NaN,,,,,,false,,,,373410.7000000002,373410.6000000001,,373410.3000000003,,373414.668,8,400,,,
break_continue,html.Screen,4_90_2,2023-11-01T23:08:39.614Z,,0,,,NaN,,,,,,false,,,,373410.9000000004,373410.8000000003,,373410.8000000003,,373414.668,8,400,,,
sequence,flow.Sequence,4_90,2023-11-01T23:08:39.614Z,,0,,,3116.802000000258,completion,,,,,false,,,,373411,373410.8000000003,370280.678,370288.1000000001,370293.998,373414.668,8,400,,,
trial,html.Screen,4_91_0,2023-11-01T23:08:44.528Z,,0,2,,4909.732000000367,response,ISIC_1009042.JPG,5,ISIC_0030610.JPG,ISIC_1009042.JPG,false,1,keypress(m),500,378324.7000000002,378324.4000000004,373401.307,373411,373414.668,378336.324,8,400,42,,ISIC_0030610.JPG
break,html.Screen,4_91_1,2023-11-01T23:08:44.529Z,,0,,,NaN,,,,,,false,,,,378325.9000000004,378325.4000000004,,378324.9000000004,,378336.324,8,400,,,
break_continue,html.Screen,4_91_2,2023-11-01T23:08:44.529Z,,0,,,NaN,,,,,,false,,,,378326.2000000002,378326.1000000001,,378325.9000000004,,378336.324,8,400,,,
sequence,flow.Sequence,4_91,2023-11-01T23:08:44.529Z,,0,,,4911.432000000088,completion,,,,,false,,,,378326.4000000004,378326.1000000001,373401.307,373411,373414.668,378336.324,8,400,,,
trial,html.Screen,4_92_0,2023-11-01T23:08:50.372Z,,0,2,,5832.07600000035,response,ISIC_0069257.JPG,5,ISIC_0528044.JPG,ISIC_0069257.JPG,false,1,keypress(m),500,384168.7000000002,384168.4000000004,378322.978,378326.5,378336.324,384177.928,8,400,43,,ISIC_0528044.JPG
break,html.Screen,4_92_1,2023-11-01T23:08:50.373Z,,0,,,NaN,,,,,,false,,,,384169.9000000004,384169.4000000004,,384169,,384177.928,8,400,,,
break_continue,html.Screen,4_92_2,2023-11-01T23:08:50.373Z,,0,,,NaN,,,,,,false,,,,384170.3000000003,384170.2000000002,,384170,,384177.928,8,400,,,
sequence,flow.Sequence,4_92,2023-11-01T23:08:50.374Z,,0,,,5833.876000000164,completion,,,,,false,,,,384170.5,384170.2000000002,378322.978,378326.5,378336.324,384177.928,8,400,,,
trial,html.Screen,4_93_0,2023-11-01T23:08:55.319Z,,0,2,,4937.872000000265,response,ISIC_0064337.JPG,5,ISIC_6640227.JPG,ISIC_6640227.JPG,false,0,keypress(z),500,389116,389115.8000000003,384164.444,384170.6000000001,384177.928,389126.082,8,400,44,,ISIC_0064337.JPG
break,html.Screen,4_93_1,2023-11-01T23:08:55.320Z,,0,,,NaN,,,,,,false,,,,389117.1000000001,389116.9000000004,,389116.3000000003,,389126.082,8,400,,,
break_continue,html.Screen,4_93_2,2023-11-01T23:08:55.321Z,,0,,,NaN,,,,,,false,,,,389117.9000000004,389117.5,,389117.2000000002,,389126.082,8,400,,,
sequence,flow.Sequence,4_93,2023-11-01T23:08:55.321Z,,0,,,4939.571999999986,completion,,,,,false,,,,389118.1000000001,389117.5,384164.444,384170.6000000001,384177.928,389126.082,8,400,,,
trial,html.Screen,4_94_0,2023-11-01T23:08:58.155Z,,0,2,,2825.918000000005,response,ISIC_0026089.JPG,5,ISIC_0061918.JPG,ISIC_0026089.JPG,false,1,keypress(m),500,391952.2000000002,391952,389112.62,389118.3000000003,389126.082,391966.925,8,400,45,,ISIC_0061918.JPG
break,html.Screen,4_94_1,2023-11-01T23:08:58.156Z,,0,,,NaN,,,,,,false,,,,391953.1000000001,391952.9000000004,,391952.5,,391966.925,8,400,,,
break_continue,html.Screen,4_94_2,2023-11-01T23:08:58.156Z,,0,,,NaN,,,,,,false,,,,391953.4000000004,391953.3000000003,,391953.2000000002,,391966.925,8,400,,,
sequence,flow.Sequence,4_94,2023-11-01T23:08:58.157Z,,0,,,2827.2180000002845,completion,,,,,false,,,,391953.5,391953.3000000003,389112.62,389118.3000000003,389126.082,391966.925,8,400,,,
trial,html.Screen,4_95_0,2023-11-01T23:09:00.799Z,,0,2,,2629.0750000000116,response,ISIC_0692990.JPG,5,ISIC_0027271.JPG,ISIC_0692990.JPG,false,1,keypress(m),500,394596.3000000003,394596,391953.444,391953.7000000002,391966.925,394607.594,8,400,46,,ISIC_0027271.JPG
break,html.Screen,4_95_1,2023-11-01T23:09:00.800Z,,0,,,NaN,,,,,,false,,,,394597.1000000001,394596.9000000004,,394596.5,,394607.594,8,400,,,
break_continue,html.Screen,4_95_2,2023-11-01T23:09:00.801Z,,0,,,NaN,,,,,,false,,,,394598.1000000001,394597.5,,394597.4000000004,,394607.594,8,400,,,
sequence,flow.Sequence,4_95,2023-11-01T23:09:00.802Z,,0,,,2630.5750000000116,completion,,,,,false,,,,394598.5,394597.5,391953.444,391953.6000000001,391966.925,394607.594,8,400,,,
trial,html.Screen,4_96_0,2023-11-01T23:09:05.733Z,,0,2,,4922.1060000002035,response,ISIC_0026402.JPG,5,ISIC_1461068.JPG,ISIC_1461068.JPG,false,0,keypress(z),500,399530.1000000001,399529.7000000002,394594.198,394598.6000000001,394607.594,399543.213,8,400,47,,ISIC_0026402.JPG
break,html.Screen,4_96_1,2023-11-01T23:09:05.734Z,,0,,,NaN,,,,,,false,,,,399530.9000000004,399530.7000000002,,399530.3000000003,,399543.213,8,400,,,
break_continue,html.Screen,4_96_2,2023-11-01T23:09:05.735Z,,0,,,NaN,,,,,,false,,,,399531.9000000004,399531.5,,399531.2000000002,,399543.213,8,400,,,
sequence,flow.Sequence,4_96,2023-11-01T23:09:05.735Z,,0,,,4923.906000000017,completion,,,,,false,,,,399532.2000000002,399531.5,394594.198,394598.5,394607.594,399543.213,8,400,,,
trial,html.Screen,4_97_0,2023-11-01T23:09:09.097Z,,0,2,,3350.6870000003837,response,ISIC_9174306.JPG,6,ISIC_6507412.JPG,ISIC_6507412.JPG,false,0,keypress(z),500,402894.2000000002,402893.9000000004,399529.01,399532.3000000003,399543.213,402903.649,8,400,48,,ISIC_9174306.JPG
break,html.Screen,4_97_1,2023-11-01T23:09:09.098Z,,0,,,NaN,,,,,,false,,,,402895.4000000004,402894.8000000003,,402894.3000000003,,402903.649,8,400,,,
break_continue,html.Screen,4_97_2,2023-11-01T23:09:09.099Z,,0,,,NaN,,,,,,false,,,,402895.8000000003,402895.6000000001,,402895.5,,402903.649,8,400,,,
sequence,flow.Sequence,4_97,2023-11-01T23:09:09.099Z,,0,,,3352.3870000001043,completion,,,,,false,,,,402896,402895.6000000001,399529.01,399532.3000000003,399543.213,402903.649,8,400,,,
trial,html.Screen,4_98_0,2023-11-01T23:09:12.462Z,,0,2,,3354.4510000001173,response,ISIC_0000700.JPG,5,ISIC_0058024.JPG,ISIC_0000700.JPG,false,1,keypress(m),500,406258.4000000004,406258.1000000001,402889.968,402896.2000000002,402903.649,406264.533,8,400,49,,ISIC_0058024.JPG
break,html.Screen,4_98_1,2023-11-01T23:09:12.462Z,,0,,,NaN,,,,,,false,,,,406259.4000000004,406259.2000000002,,406258.8000000003,,406264.533,8,400,,,
break_continue,html.Screen,4_98_2,2023-11-01T23:09:12.463Z,,0,,,NaN,,,,,,false,,,,406260.3000000003,406260,,406259.8000000003,,406264.533,8,400,,,
sequence,flow.Sequence,4_98,2023-11-01T23:09:12.464Z,,0,,,3356.351000000024,completion,,,,,false,,,,406260.6000000001,406260,402889.968,402896.1000000001,402903.649,406264.533,8,400,,,
trial,html.Screen,4_99_0,2023-11-01T23:09:15.377Z,,0,2,,2909.3670000003767,response,ISIC_2456538.JPG,6,ISIC_9433473.JPG,ISIC_9433473.JPG,false,0,keypress(z),500,409174.1000000001,409173.9000000004,406251.137,406260.7000000002,406264.533,409185.23,8,400,50,,ISIC_2456538.JPG
break,html.Screen,4_99_1,2023-11-01T23:09:25.379Z,,0,,,10002.94200000004,timeout,,,,,false,,,,419175.6000000001,419174.854,409172.002,409174.4000000004,409185.23,419188.172,8,400,,,
break_continue,html.Screen,4_99_2,2023-11-01T23:09:29.070Z,,0,,,3662.728000000352,response,,,,,false,continue,keypress(Space),,422866.7000000002,422850.9000000004,419174.854,419175.7000000002,419188.172,422869.147,8,400,,,
sequence,flow.Sequence,4_99,2023-11-01T23:09:29.070Z,,0,,,16586.367000000377,completion,,,,,false,,,,422866.8000000003,422850.9000000004,406251.137,406260.7000000002,406264.533,422869.147,8,400,,,
trial,html.Screen,4_100_0,2023-11-01T23:09:31.711Z,,0,3,,2638.453000000096,response,ISIC_0056326.JPG,4,ISIC_0072004.JPG,ISIC_0056326.JPG,false,1,keypress(m),500,425507.9000000004,425507.6000000001,422855.558,422866.8000000003,422869.147,425510.192,8,400,1,,ISIC_0072004.JPG
break,html.Screen,4_100_1,2023-11-01T23:09:31.712Z,,0,,,NaN,,,,,,false,,,,425509,425508.5,,425508.1000000001,,425510.192,8,400,,,
break_continue,html.Screen,4_100_2,2023-11-01T23:09:31.713Z,,0,,,NaN,,,,,,false,,,,425509.5,425509.4000000004,,425509.2000000002,,425510.192,8,400,,,
sequence,flow.Sequence,4_100,2023-11-01T23:09:31.713Z,,0,,,2640.2530000003753,completion,,,,,false,,,,425509.7000000002,425509.4000000004,422855.558,422866.8000000003,422869.147,425510.192,8,400,,,
trial,html.Screen,4_101_0,2023-11-01T23:09:34.611Z,,0,3,,2897.308000000019,response,ISIC_0010266.JPG,5,ISIC_5048571.JPG,ISIC_0010266.JPG,false,1,keypress(m),500,428407.7000000002,428407.5,425497.024,425509.8000000003,425510.192,428417.618,8,400,2,,ISIC_5048571.JPG
break,html.Screen,4_101_1,2023-11-01T23:09:34.612Z,,0,,,NaN,,,,,,false,,,,428408.8000000003,428408.3000000003,,428407.9000000004,,428417.618,8,400,,,
break_continue,html.Screen,4_101_2,2023-11-01T23:09:34.612Z,,0,,,NaN,,,,,,false,,,,428409.2000000002,428409.1000000001,,428409,,428417.618,8,400,,,
sequence,flow.Sequence,4_101,2023-11-01T23:09:34.612Z,,0,,,2898.908000000112,completion,,,,,false,,,,428409.4000000004,428409.1000000001,425497.024,425509.8000000003,425510.192,428417.618,8,400,,,
trial,html.Screen,4_102_0,2023-11-01T23:09:37.383Z,,0,3,,2761.5820000001695,response,ISIC_1957685.JPG,5,ISIC_0002862.JPG,ISIC_0002862.JPG,false,0,keypress(z),500,431179.5,431179.2000000002,428404.165,428409.5,428417.618,431191.872,8,400,3,,ISIC_1957685.JPG
break,html.Screen,4_102_1,2023-11-01T23:09:37.384Z,,0,,,NaN,,,,,,false,,,,431180.9000000004,431180.2000000002,,431179.8000000003,,431191.872,8,400,,,
break_continue,html.Screen,4_102_2,2023-11-01T23:09:37.384Z,,0,,,NaN,,,,,,false,,,,431181.4000000004,431181.2000000002,,431181.1000000001,,431191.872,8,400,,,
sequence,flow.Sequence,4_102,2023-11-01T23:09:37.385Z,,0,,,2763.5820000001695,completion,,,,,false,,,,431181.5,431181.2000000002,428404.165,428409.5,428417.618,431191.872,8,400,,,
trial,html.Screen,4_103_0,2023-11-01T23:09:39.962Z,,0,3,,2567.3280000002123,response,ISIC_0057593.JPG,5,ISIC_7441957.JPG,ISIC_0057593.JPG,false,1,keypress(m),500,433759.4000000004,433759.2000000002,431178.4,431181.7000000002,431191.872,433765.818,8,400,4,,ISIC_7441957.JPG
break,html.Screen,4_103_1,2023-11-01T23:09:39.963Z,,0,,,NaN,,,,,,false,,,,433760.3000000003,433760,,433759.7000000002,,433765.818,8,400,,,
break_continue,html.Screen,4_103_2,2023-11-01T23:09:39.964Z,,0,,,NaN,,,,,,false,,,,433760.6000000001,433760.4000000004,,433760.3000000003,,433765.818,8,400,,,
sequence,flow.Sequence,4_103,2023-11-01T23:09:39.964Z,,0,,,2568.5280000003986,completion,,,,,false,,,,433760.7000000002,433760.4000000004,431178.4,431181.6000000001,431191.872,433765.818,8,400,,,
trial,html.Screen,4_104_0,2023-11-01T23:09:42.751Z,,0,3,,2782.082000000344,response,ISIC_0055783.JPG,6,ISIC_0033574.JPG,ISIC_0033574.JPG,false,0,keypress(z),500,436548.3000000003,436547.9000000004,433752.478,433760.9000000004,433765.818,436553.744,8,400,5,,ISIC_0055783.JPG
break,html.Screen,4_104_1,2023-11-01T23:09:42.753Z,,0,,,NaN,,,,,,false,,,,436549.5,436548.9000000004,,436548.5,,436553.744,8,400,,,
break_continue,html.Screen,4_104_2,2023-11-01T23:09:42.753Z,,0,,,NaN,,,,,,false,,,,436550,436549.9000000004,,436549.7000000002,,436553.744,8,400,,,
sequence,flow.Sequence,4_104,2023-11-01T23:09:42.753Z,,0,,,2784.082000000344,completion,,,,,false,,,,436550.1000000001,436549.9000000004,433752.478,433760.9000000004,433765.818,436553.744,8,400,,,
trial,html.Screen,4_105_0,2023-11-01T23:09:45.332Z,,0,3,,2574.45600000018,response,ISIC_0031611.JPG,5,ISIC_7262685.JPG,ISIC_7262685.JPG,false,0,keypress(z),500,439128.5,439128.2000000002,436540.249,436550.3000000003,436553.744,439140.717,8,400,6,,ISIC_0031611.JPG
break,html.Screen,4_105_1,2023-11-01T23:09:45.333Z,,0,,,NaN,,,,,,false,,,,439129.8000000003,439129.3000000003,,439128.8000000003,,439140.717,8,400,,,
break_continue,html.Screen,4_105_2,2023-11-01T23:09:45.333Z,,0,,,NaN,,,,,,false,,,,439130.3000000003,439130.1000000001,,439129.9000000004,,439140.717,8,400,,,
sequence,flow.Sequence,4_105,2023-11-01T23:09:45.333Z,,0,,,2576.356000000087,completion,,,,,false,,,,439130.4000000004,439130.1000000001,436540.249,436550.2000000002,436553.744,439140.717,8,400,,,
trial,html.Screen,4_106_0,2023-11-01T23:09:49.240Z,,0,3,,3895.383000000089,response,ISIC_5538169.JPG,6,ISIC_3251773.JPG,ISIC_5538169.JPG,false,1,keypress(m),500,443036.5,443036.1000000001,439127.441,439130.6000000001,439140.717,443048.935,8,400,7,,ISIC_3251773.JPG
break,html.Screen,4_106_1,2023-11-01T23:09:49.240Z,,0,,,NaN,,,,,,false,,,,443037.2000000002,443037.1000000001,,443036.7000000002,,443048.935,8,400,,,
break_continue,html.Screen,4_106_2,2023-11-01T23:09:49.241Z,,0,,,NaN,,,,,,false,,,,443037.6000000001,443037.5,,443037.4000000004,,443048.935,8,400,,,
sequence,flow.Sequence,4_106,2023-11-01T23:09:49.241Z,,0,,,3896.782999999996,completion,,,,,false,,,,443037.8000000003,443037.5,439127.441,439130.5,439140.717,443048.935,8,400,,,
trial,html.Screen,4_107_0,2023-11-01T23:09:52.187Z,,0,3,,2934.965000000375,response,ISIC_0064247.JPG,5,ISIC_1132788.JPG,ISIC_1132788.JPG,false,0,keypress(z),500,445984.2000000002,445983.9000000004,443035.213,443037.9000000004,443048.935,445996.07,8,400,8,,ISIC_0064247.JPG
break,html.Screen,4_107_1,2023-11-01T23:09:52.188Z,,0,,,NaN,,,,,,false,,,,445985.4000000004,445985,,445984.4000000004,,445996.07,8,400,,,
break_continue,html.Screen,4_107_2,2023-11-01T23:09:52.189Z,,0,,,NaN,,,,,,false,,,,445985.8000000003,445985.6000000001,,445985.5,,445996.07,8,400,,,
sequence,flow.Sequence,4_107,2023-11-01T23:09:52.189Z,,0,,,2936.6650000000955,completion,,,,,false,,,,445986,445985.6000000001,443035.213,443037.8000000003,443048.935,445996.07,8,400,,,
trial,html.Screen,4_108_0,2023-11-01T23:09:54.768Z,,0,3,,2568.6300000001793,response,ISIC_4837536.JPG,4,ISIC_2021321.JPG,ISIC_4837536.JPG,false,1,keypress(m),500,448565,448564.7000000002,445982.716,445986.2000000002,445996.07,448570.206,8,400,9,,ISIC_2021321.JPG
break,html.Screen,4_108_1,2023-11-01T23:09:54.769Z,,0,,,NaN,,,,,,false,,,,448565.8000000003,448565.6000000001,,448565.2000000002,,448570.206,8,400,,,
break_continue,html.Screen,4_108_2,2023-11-01T23:09:54.769Z,,0,,,NaN,,,,,,false,,,,448566.1000000001,448566,,448565.9000000004,,448570.206,8,400,,,
sequence,flow.Sequence,4_108,2023-11-01T23:09:54.769Z,,0,,,2569.929999999993,completion,,,,,false,,,,448566.3000000003,448566,445982.716,445986.1000000001,445996.07,448570.206,8,400,,,
trial,html.Screen,4_109_0,2023-11-01T23:09:57.363Z,,0,3,,2589.4940000001807,response,ISIC_0010289.JPG,5,ISIC_0032872.JPG,ISIC_0032872.JPG,false,0,keypress(z),500,451160,451159.7000000002,448556.889,448566.4000000004,448570.206,451171.084,8,400,10,,ISIC_0010289.JPG
break,html.Screen,4_109_1,2023-11-01T23:09:57.364Z,,0,,,NaN,,,,,,false,,,,451160.7000000002,451160.6000000001,,451160.1000000001,,451171.084,8,400,,,
break_continue,html.Screen,4_109_2,2023-11-01T23:09:57.364Z,,0,,,NaN,,,,,,false,,,,451161.1000000001,451161,,451160.8000000003,,451171.084,8,400,,,
sequence,flow.Sequence,4_109,2023-11-01T23:09:57.364Z,,0,,,2590.7939999999944,completion,,,,,false,,,,451161.2000000002,451161,448556.889,448566.4000000004,448570.206,451171.084,8,400,,,
trial,html.Screen,4_110_0,2023-11-01T23:09:59.751Z,,0,3,,2376.4160000000265,response,ISIC_0027552.JPG,5,ISIC_6875745.JPG,ISIC_0027552.JPG,false,1,keypress(m),500,453547.8000000003,453547.5,451157.695,451161.4000000004,451171.084,453558.325,8,400,11,,ISIC_6875745.JPG
break,html.Screen,4_110_1,2023-11-01T23:09:59.752Z,,0,,,NaN,,,,,,false,,,,453549,453548.6000000001,,453548,,453558.325,8,400,,,
break_continue,html.Screen,4_110_2,2023-11-01T23:09:59.752Z,,0,,,NaN,,,,,,false,,,,453549.3000000003,453549.2000000002,,453549.1000000001,,453558.325,8,400,,,
sequence,flow.Sequence,4_110,2023-11-01T23:09:59.753Z,,0,,,2378.116000000213,completion,,,,,false,,,,453549.6000000001,453549.2000000002,451157.695,451161.3000000003,451171.084,453558.325,8,400,,,
trial,html.Screen,4_111_0,2023-11-01T23:10:02.058Z,,0,3,,2296.575000000361,response,ISIC_7319169.JPG,5,ISIC_5190484.JPG,ISIC_5190484.JPG,false,0,keypress(z),500,455855.3000000003,455854.9000000004,453544.905,453549.6000000001,453558.325,455879.001,8,400,12,,ISIC_7319169.JPG
break,html.Screen,4_111_1,2023-11-01T23:10:02.059Z,,0,,,NaN,,,,,,false,,,,455856,455855.8000000003,,455855.4000000004,,455879.001,8,400,,,
break_continue,html.Screen,4_111_2,2023-11-01T23:10:02.059Z,,0,,,NaN,,,,,,false,,,,455856.3000000003,455856.3000000003,,455856.1000000001,,455879.001,8,400,,,
sequence,flow.Sequence,4_111,2023-11-01T23:10:02.060Z,,0,,,2297.9750000002678,completion,,,,,false,,,,455856.5,455856.3000000003,453544.905,453549.6000000001,453558.325,455879.001,8,400,,,
trial,html.Screen,4_112_0,2023-11-01T23:10:06.798Z,,0,3,,4715.399000000383,response,ISIC_0014788.JPG,5,ISIC_8274622.JPG,ISIC_8274622.JPG,false,0,keypress(z),500,460594.7000000002,460594.4000000004,455865.966,455856.6000000001,455879.001,460600.6,8,400,13,,ISIC_0014788.JPG
break,html.Screen,4_112_1,2023-11-01T23:10:06.798Z,,0,,,NaN,,,,,,false,,,,460595.4000000004,460595.2000000002,,460594.9000000004,,460600.6,8,400,,,
break_continue,html.Screen,4_112_2,2023-11-01T23:10:06.799Z,,0,,,NaN,,,,,,false,,,,460595.8000000003,460595.6000000001,,460595.6000000001,,460600.6,8,400,,,
sequence,flow.Sequence,4_112,2023-11-01T23:10:06.799Z,,0,,,4716.599000000104,completion,,,,,false,,,,460596,460595.6000000001,455865.966,455856.6000000001,455879.001,460600.6,8,400,,,
trial,html.Screen,4_113_0,2023-11-01T23:10:10.801Z,,0,3,,3997.2000000003027,response,ISIC_6635699.JPG,5,ISIC_0061184.JPG,ISIC_6635699.JPG,false,1,keypress(m),500,464598.1000000001,464597.8000000003,460587.04,460596,460600.6,464601.891,8,400,14,,ISIC_0061184.JPG
break,html.Screen,4_113_1,2023-11-01T23:10:10.802Z,,0,,,NaN,,,,,,false,,,,464599.2000000002,464598.9000000004,,464598.3000000003,,464601.891,8,400,,,
break_continue,html.Screen,4_113_2,2023-11-01T23:10:10.803Z,,0,,,NaN,,,,,,false,,,,464599.6000000001,464599.5,,464599.4000000004,,464601.891,8,400,,,
sequence,flow.Sequence,4_113,2023-11-01T23:10:10.803Z,,0,,,3998.9000000000233,completion,,,,,false,,,,464599.8000000003,464599.5,460587.04,460596,460600.6,464601.891,8,400,,,
trial,html.Screen,4_114_0,2023-11-01T23:10:14.916Z,,0,3,,4111.20900000009,response,ISIC_7189490.JPG,5,ISIC_0060153.JPG,ISIC_7189490.JPG,false,1,keypress(m),500,468713.4000000004,468713.1000000001,464588.222,464599.9000000004,464601.891,468722.979,8,400,15,,ISIC_0060153.JPG
break,html.Screen,4_114_1,2023-11-01T23:10:14.918Z,,0,,,NaN,,,,,,false,,,,468714.6000000001,468714.1000000001,,468713.6000000001,,468722.979,8,400,,,
break_continue,html.Screen,4_114_2,2023-11-01T23:10:14.918Z,,0,,,NaN,,,,,,false,,,,468714.9000000004,468714.9000000004,,468714.7000000002,,468722.979,8,400,,,
sequence,flow.Sequence,4_114,2023-11-01T23:10:14.918Z,,0,,,4113.009000000369,completion,,,,,false,,,,468715.1000000001,468714.9000000004,464588.222,464599.9000000004,464601.891,468722.979,8,400,,,
trial,html.Screen,4_115_0,2023-11-01T23:10:18.424Z,,0,3,,3497.3210000002873,response,ISIC_0030597.JPG,5,ISIC_6004197.JPG,ISIC_6004197.JPG,false,0,keypress(z),500,472220.6000000001,472220.3000000003,468709.464,468715.3000000003,468722.979,472230.558,8,400,16,,ISIC_0030597.JPG
break,html.Screen,4_115_1,2023-11-01T23:10:18.425Z,,0,,,NaN,,,,,,false,,,,472221.5,472221.3000000003,,472220.8000000003,,472230.558,8,400,,,
break_continue,html.Screen,4_115_2,2023-11-01T23:10:18.425Z,,0,,,NaN,,,,,,false,,,,472221.8000000003,472221.7000000002,,472221.6000000001,,472230.558,8,400,,,
sequence,flow.Sequence,4_115,2023-11-01T23:10:18.425Z,,0,,,3498.721000000194,completion,,,,,false,,,,472222,472221.7000000002,468709.464,468715.2000000002,468722.979,472230.558,8,400,,,
trial,html.Screen,4_116_0,2023-11-01T23:10:21.260Z,,0,3,,2825.642000000167,response,ISIC_0069260.JPG,5,ISIC_0032873.JPG,ISIC_0069260.JPG,false,1,keypress(m),500,475056.6000000001,475056.2000000002,472217.091,472222.1000000001,472230.558,475071.495,8,400,17,,ISIC_0032873.JPG
break,html.Screen,4_116_1,2023-11-01T23:10:21.260Z,,0,,,NaN,,,,,,false,,,,475057.3000000003,475057.2000000002,,475056.8000000003,,475071.495,8,400,,,
break_continue,html.Screen,4_116_2,2023-11-01T23:10:21.261Z,,0,,,NaN,,,,,,false,,,,475057.7000000002,475057.6000000001,,475057.5,,475071.495,8,400,,,
sequence,flow.Sequence,4_116,2023-11-01T23:10:21.261Z,,0,,,2827.042000000074,completion,,,,,false,,,,475057.9000000004,475057.6000000001,472217.091,472222.1000000001,472230.558,475071.495,8,400,,,
trial,html.Screen,4_117_0,2023-11-01T23:10:23.983Z,,0,3,,2708.205000000191,response,ISIC_0070351.JPG,4,ISIC_6220953.JPG,ISIC_6220953.JPG,false,0,keypress(z),500,477780,477779.7000000002,475057.921,475057.9000000004,475071.495,477792.336,8,400,18,,ISIC_0070351.JPG
break,html.Screen,4_117_1,2023-11-01T23:10:23.984Z,,0,,,NaN,,,,,,false,,,,477780.8000000003,477780.7000000002,,477780.2000000002,,477792.336,8,400,,,
break_continue,html.Screen,4_117_2,2023-11-01T23:10:23.984Z,,0,,,NaN,,,,,,false,,,,477781.2000000002,477781,,477780.9000000004,,477792.336,8,400,,,
sequence,flow.Sequence,4_117,2023-11-01T23:10:23.984Z,,0,,,2709.5050000000047,completion,,,,,false,,,,477781.3000000003,477781,475057.921,475057.9000000004,475071.495,477792.336,8,400,,,
trial,html.Screen,4_118_0,2023-11-01T23:10:26.770Z,,0,3,,2774.764000000083,response,ISIC_0069192.JPG,5,ISIC_0059341.JPG,ISIC_0059341.JPG,false,0,keypress(z),500,480567.3000000003,480567.1000000001,477778.802,477781.5,477792.336,480579.614,8,400,19,,ISIC_0069192.JPG
break,html.Screen,4_118_1,2023-11-01T23:10:26.771Z,,0,,,NaN,,,,,,false,,,,480568.1000000001,480568,,480567.5,,480579.614,8,400,,,
break_continue,html.Screen,4_118_2,2023-11-01T23:10:26.772Z,,0,,,NaN,,,,,,false,,,,480568.5,480568.4000000004,,480568.3000000003,,480579.614,8,400,,,
sequence,flow.Sequence,4_118,2023-11-01T23:10:26.772Z,,0,,,2776.0640000003623,completion,,,,,false,,,,480568.7000000002,480568.4000000004,477778.802,477781.4000000004,477792.336,480579.614,8,400,,,
trial,html.Screen,4_119_0,2023-11-01T23:10:29.702Z,,0,3,,2919.4860000000917,response,ISIC_0033470.JPG,4,ISIC_6913045.JPG,ISIC_6913045.JPG,false,0,keypress(z),500,483499.3000000003,483499.1000000001,480566.633,480568.8000000003,480579.614,483514.063,8,400,20,,ISIC_0033470.JPG
break,html.Screen,4_119_1,2023-11-01T23:10:29.703Z,,0,,,NaN,,,,,,false,,,,483500.2000000002,483500,,483499.6000000001,,483514.063,8,400,,,
break_continue,html.Screen,4_119_2,2023-11-01T23:10:29.704Z,,0,,,NaN,,,,,,false,,,,483500.9000000004,483500.6000000001,,483500.4000000004,,483514.063,8,400,,,
sequence,flow.Sequence,4_119,2023-11-01T23:10:29.704Z,,0,,,2920.9860000000917,completion,,,,,false,,,,483501,483500.6000000001,480566.633,480568.8000000003,480579.614,483514.063,8,400,,,
trial,html.Screen,4_120_0,2023-11-01T23:10:33.146Z,,0,3,,3429.2370000002556,response,ISIC_0068215.JPG,5,ISIC_8458843.JPG,ISIC_8458843.JPG,false,0,keypress(z),500,486943.5,486943.3000000003,483487.254,483501.2000000002,483514.063,486954.804,8,400,21,,ISIC_0068215.JPG
break,html.Screen,4_120_1,2023-11-01T23:10:33.147Z,,0,,,NaN,,,,,,false,,,,486944.3000000003,486944.1000000001,,486943.7000000002,,486954.804,8,400,,,
break_continue,html.Screen,4_120_2,2023-11-01T23:10:33.148Z,,0,,,NaN,,,,,,false,,,,486944.7000000002,486944.6000000001,,486944.5,,486954.804,8,400,,,
sequence,flow.Sequence,4_120,2023-11-01T23:10:33.148Z,,0,,,3430.5370000000694,completion,,,,,false,,,,486944.8000000003,486944.6000000001,483487.254,483501.2000000002,483514.063,486954.804,8,400,,,
trial,html.Screen,4_121_0,2023-11-01T23:10:36.062Z,,0,3,,2904.4960000002757,response,ISIC_4401524.JPG,5,ISIC_4814912.JPG,ISIC_4401524.JPG,false,1,keypress(m),500,489859.6000000001,489859.3000000003,486941.47,486945.2000000002,486954.804,489862.573,8,400,22,,ISIC_4814912.JPG
break,html.Screen,4_121_1,2023-11-01T23:10:36.064Z,,0,,,NaN,,,,,,false,,,,489860.8000000003,489860.3000000003,,489859.8000000003,,489862.573,8,400,,,
break_continue,html.Screen,4_121_2,2023-11-01T23:10:36.064Z,,0,,,NaN,,,,,,false,,,,489861.3000000003,489861.1000000001,,489860.9000000004,,489862.573,8,400,,,
sequence,flow.Sequence,4_121,2023-11-01T23:10:36.064Z,,0,,,2906.2960000000894,completion,,,,,false,,,,489861.4000000004,489861.1000000001,486941.47,486945.1000000001,486954.804,489862.573,8,400,,,
trial,html.Screen,4_122_0,2023-11-01T23:10:40.498Z,,0,3,,4432.027000000118,response,ISIC_0962787.JPG,5,ISIC_0027190.JPG,ISIC_0962787.JPG,false,1,keypress(m),500,494295,494294.6000000001,489849.401,489861.5,489862.573,494303.721,8,400,23,,ISIC_0027190.JPG
break,html.Screen,4_122_1,2023-11-01T23:10:40.499Z,,0,,,NaN,,,,,,false,,,,494296.1000000001,494295.8000000003,,494295.2000000002,,494303.721,8,400,,,
break_continue,html.Screen,4_122_2,2023-11-01T23:10:40.500Z,,0,,,NaN,,,,,,false,,,,494296.8000000003,494296.5,,494296.3000000003,,494303.721,8,400,,,
sequence,flow.Sequence,4_122,2023-11-01T23:10:40.500Z,,0,,,4433.927000000025,completion,,,,,false,,,,494297,494296.5,489849.401,489861.5,489862.573,494303.721,8,400,,,
trial,html.Screen,4_123_0,2023-11-01T23:10:43.142Z,,0,3,,2635.07900000026,response,ISIC_0061625.JPG,5,ISIC_9441572.JPG,ISIC_0061625.JPG,false,1,keypress(m),500,496939.1000000001,496938.8000000003,494290.346,494297.1000000001,494303.721,496957.711,8,400,24,,ISIC_9441572.JPG
break,html.Screen,4_123_1,2023-11-01T23:10:43.142Z,,0,,,NaN,,,,,,false,,,,496939.6000000001,496939.4000000004,,496939.2000000002,,496957.711,8,400,,,
break_continue,html.Screen,4_123_2,2023-11-01T23:10:43.143Z,,0,,,NaN,,,,,,false,,,,496939.9000000004,496939.9000000004,,496939.8000000003,,496957.711,8,400,,,
sequence,flow.Sequence,4_123,2023-11-01T23:10:43.143Z,,0,,,2636.179000000353,completion,,,,,false,,,,496940.1000000001,496939.9000000004,494290.346,494297,494303.721,496957.711,8,400,,,
trial,html.Screen,4_124_0,2023-11-01T23:10:46.778Z,,0,3,,3616.7889999999898,response,ISIC_0054748.JPG,6,ISIC_2739449.JPG,ISIC_2739449.JPG,false,0,keypress(z),500,500574.7000000002,500574.5,496944.454,496940.1000000001,496957.711,500585.559,8,400,25,,ISIC_0054748.JPG
break,html.Screen,4_124_1,2023-11-01T23:10:46.778Z,,0,,,NaN,,,,,,false,,,,500575.6000000001,500575.4000000004,,500575,,500585.559,8,400,,,
break_continue,html.Screen,4_124_2,2023-11-01T23:10:46.779Z,,0,,,NaN,,,,,,false,,,,500576,500575.8000000003,,500575.7000000002,,500585.559,8,400,,,
sequence,flow.Sequence,4_124,2023-11-01T23:10:46.779Z,,0,,,3618.089000000269,completion,,,,,false,,,,500576.6000000001,500575.8000000003,496944.454,496940.1000000001,496957.711,500585.559,8,400,,,
trial,html.Screen,4_125_0,2023-11-01T23:10:49.439Z,,0,3,,2650.741000000271,response,ISIC_3382231.JPG,5,ISIC_5315486.JPG,ISIC_5315486.JPG,false,0,keypress(z),500,503236.6000000001,503236.3000000003,500572.17,500576.8000000003,500585.559,503239.852,8,400,26,,ISIC_3382231.JPG
break,html.Screen,4_125_1,2023-11-01T23:10:49.440Z,,0,,,NaN,,,,,,false,,,,503237.4000000004,503237.2000000002,,503236.8000000003,,503239.852,8,400,,,
break_continue,html.Screen,4_125_2,2023-11-01T23:10:49.441Z,,0,,,NaN,,,,,,false,,,,503237.7000000002,503237.6000000001,,503237.5,,503239.852,8,400,,,
sequence,flow.Sequence,4_125,2023-11-01T23:10:49.441Z,,0,,,2652.0410000000848,completion,,,,,false,,,,503238.2000000002,503237.6000000001,500572.17,500576.8000000003,500585.559,503239.852,8,400,,,
trial,html.Screen,4_126_0,2023-11-01T23:10:52.179Z,,0,3,,2736.2480000000796,response,ISIC_3926019.JPG,6,ISIC_1305537.JPG,ISIC_3926019.JPG,false,1,keypress(m),500,505976.4000000004,505976.1000000001,503226.376,503238.4000000004,503239.852,505987.083,8,400,27,,ISIC_1305537.JPG
break,html.Screen,4_126_1,2023-11-01T23:10:52.180Z,,0,,,NaN,,,,,,false,,,,505977.4000000004,505977.1000000001,,505976.7000000002,,505987.083,8,400,,,
