sender,sender_type,sender_id,timestamp,meta,,blockNo,condition,duration,ended_on,img_left,img_reveal,img_right,loser,practice,response,response_action,selection_duration,time_commit,time_end,time_render,time_run,time_show,time_switch,total_blocks,total_trials,trialNo,url,winner
informed_consent,html.Screen,0,2023-05-02T19:34:51.035Z,"{""labjs_version"":""20.2.4"",""labjs_build"":{""flavor"":""production"",""commit"":""f5b4a49f956347addd546a832a3327688c2c0fef""},""location"":""https://run.pavlovia.org/MurrayBennett/melanoma-2afc/?participant=64678"",""userAgent"":""Mozilla/5.0 (Macintosh; Intel Mac OS X 10_15_7) AppleWebKit/605.1.15 (KHTML, like Gecko) Version/16.4 Safari/605.1.15"",""platform"":""MacIntel"",""language"":""en-US"",""locale"":""en-US"",""timeZone"":""America/Chicago"",""timezoneOffset"":300,""screen_width"":820,""screen_height"":1180,""scroll_width"":1180,""scroll_height"":729,""window_innerWidth"":1180,""window_innerHeight"":723,""devicePixelRatio"":2}",,,,9221,response,,,,,,consent,click button,,12570,12567,3346,3342,3372,12605,,,,"{""participant"":""64678""}",
Welcome,html.Screen,1,2023-05-02T19:34:52.345Z,,,,irregular,1300,response,,,,,,continue,click button,,13880,13879,12579,12571,12605,13892,,,,,
trial,html.Screen,2_0_0,2023-05-02T19:34:56.051Z,,0,0,,3700,response,ISIC_0061792.JPG,,ISIC_4679428.JPG,ISIC_4679428.JPG,true,0,keypress(z),500,17586.000000000004,17585,13885,13881,13892,17593,1,6,1,,ISIC_0061792.JPG
sequence,flow.Sequence,2_0,2023-05-02T19:34:56.052Z,,0,,,3693,completion,,,,,true,,,,17587,17585,13885,13881,13892,17593,1,6,,,
trial,html.Screen,2_1_0,2023-05-02T19:34:59.246Z,,0,0,,3190,response,ISIC_0776486.JPG,,ISIC_5199497.JPG,ISIC_0776486.JPG,true,1,keypress(m),500,20780,20780,17590,17587,17593,20788,1,6,2,,ISIC_5199497.JPG
sequence,flow.Sequence,2_1,2023-05-02T19:34:59.246Z,,0,,,3187,completion,,,,,true,,,,20781,20780,17590,17587,17593,20788,1,6,,,
trial,html.Screen,2_2_0,2023-05-02T19:35:01.958Z,,0,0,,2708,response,ISIC_2556187.JPG,,ISIC_8575776.JPG,ISIC_8575776.JPG,true,0,keypress(z),500,23493.000000000004,23492,20784,20781,20788,23499,1,6,3,,ISIC_2556187.JPG
sequence,flow.Sequence,2_2,2023-05-02T19:35:01.958Z,,0,,,2704,completion,,,,,true,,,,23493.000000000004,23492,20784,20781,20788,23499,1,6,,,
trial,html.Screen,2_3_0,2023-05-02T19:35:04.597Z,,0,0,,2636,response,ISIC_8141769.JPG,,ISIC_9238366.JPG,ISIC_8141769.JPG,true,1,keypress(m),500,26132,26132,23496,23494,23499,26139,1,6,4,,ISIC_9238366.JPG
sequence,flow.Sequence,2_3,2023-05-02T19:35:04.598Z,,0,,,2633,completion,,,,,true,,,,26133,26132,23496,23493.000000000004,23499,26139,1,6,,,
trial,html.Screen,2_4_0,2023-05-02T19:35:10.659Z,,0,0,,6057.999999999996,response,ISIC_8949026.JPG,,ISIC_9959593.JPG,ISIC_9959593.JPG,true,0,keypress(z),500,32194.000000000004,32192.999999999996,26135,26133,26139,32201,1,6,5,,ISIC_8949026.JPG
sequence,flow.Sequence,2_4,2023-05-02T19:35:10.660Z,,0,,,6053.999999999996,completion,,,,,true,,,,32195,32192.999999999996,26135,26133,26139,32201,1,6,,,
trial,html.Screen,2_5_0,2023-05-02T19:35:13.529Z,,0,0,,2865,response,ISIC_0010479.JPG,,ISIC_0460240.JPG,ISIC_0010479.JPG,true,1,keypress(m),500,35063,35063,32198,32195,32201,35070,1,6,6,,ISIC_0460240.JPG
sequence,flow.Sequence,2_5,2023-05-02T19:35:13.529Z,,0,,,2862,completion,,,,,true,,,,35064,35063,32198,32195,32201,35070,1,6,,,
loop,flow.Loop,2,2023-05-02T19:35:13.529Z,,,,,21171,completion,,,,,true,,,,35064,35063,13885,13880,13892,35070,1,6,,,
exp_instructions,html.Screen,3,2023-05-02T19:35:15.224Z,,,,,1691,response,,,,,,continue,keypress(Space),,36758,36758,35067,35064,35070,36771,,,,,
trial,html.Screen,4_0_0,2023-05-02T19:35:18.527Z,,0,1,,3298,response,ISIC_4821309.JPG,,ISIC_2957732.JPG,ISIC_4821309.JPG,false,1,keypress(m),500,40061,40061,36763,36759,36771,40070,8,400,1,,ISIC_2957732.JPG
break,html.Screen,4_0_1,2023-05-02T19:35:18.528Z,,0,,,NaN,,,,,,false,,,,40063,40063,,40062,,40070,8,400,,,
break_continue,html.Screen,4_0_2,2023-05-02T19:35:18.529Z,,0,,,NaN,,,,,,false,,,,40063,40063,,40063,,40070,8,400,,,
sequence,flow.Sequence,4_0,2023-05-02T19:35:18.529Z,,0,,,3292,completion,,,,,false,,,,40064,40063,36763,36759,36771,40070,8,400,,,
trial,html.Screen,4_1_0,2023-05-02T19:35:21.901Z,,0,1,,3367,response,ISIC_0026160.JPG,,ISIC_5067317.JPG,ISIC_0026160.JPG,false,1,keypress(m),500,43436,43434,40067,40064,40070,43445,8,400,2,,ISIC_5067317.JPG
break,html.Screen,4_1_1,2023-05-02T19:35:21.902Z,,0,,,NaN,,,,,,false,,,,43437,43437,,43436,,43445,8,400,,,
break_continue,html.Screen,4_1_2,2023-05-02T19:35:21.903Z,,0,,,NaN,,,,,,false,,,,43438,43438,,43438,,43445,8,400,,,
sequence,flow.Sequence,4_1,2023-05-02T19:35:21.904Z,,0,,,3368,completion,,,,,false,,,,43438,43438,40067,40064,40070,43445,8,400,,,
trial,html.Screen,4_2_0,2023-05-02T19:35:25.626Z,,0,1,,3719.0000000000073,response,ISIC_5005961.JPG,,ISIC_0063473.JPG,ISIC_5005961.JPG,false,1,keypress(m),500,47160.00000000001,47160.00000000001,43441,43439,43445,47169,8,400,3,,ISIC_0063473.JPG
break,html.Screen,4_2_1,2023-05-02T19:35:25.627Z,,0,,,NaN,,,,,,false,,,,47162,47161,,47161,,47169,8,400,,,
break_continue,html.Screen,4_2_2,2023-05-02T19:35:25.627Z,,0,,,NaN,,,,,,false,,,,47162,47162,,47162,,47169,8,400,,,
sequence,flow.Sequence,4_2,2023-05-02T19:35:25.628Z,,0,,,3717,completion,,,,,false,,,,47162,47162,43441,43438,43445,47169,8,400,,,
trial,html.Screen,4_3_0,2023-05-02T19:35:31.141Z,,0,1,,5510.000000000007,response,ISIC_7984646.JPG,,ISIC_0026619.JPG,ISIC_0026619.JPG,false,0,keypress(z),500,52675.00000000001,52675.00000000001,47165,47162,47169,52684,8,400,4,,ISIC_7984646.JPG
break,html.Screen,4_3_1,2023-05-02T19:35:31.142Z,,0,,,NaN,,,,,,false,,,,52677,52676,,52676,,52684,8,400,,,
break_continue,html.Screen,4_3_2,2023-05-02T19:35:31.143Z,,0,,,NaN,,,,,,false,,,,52678.00000000001,52677,,52677,,52684,8,400,,,
sequence,flow.Sequence,4_3,2023-05-02T19:35:31.144Z,,0,,,5508,completion,,,,,false,,,,52678.00000000001,52677,47165,47162,47169,52684,8,400,,,
trial,html.Screen,4_4_0,2023-05-02T19:35:34.262Z,,0,1,,3115,response,ISIC_0064784.JPG,,ISIC_0033977.JPG,ISIC_0064784.JPG,false,1,keypress(m),500,55797.00000000001,55796,52681,52679,52684,55806,8,400,5,,ISIC_0033977.JPG
break,html.Screen,4_4_1,2023-05-02T19:35:34.264Z,,0,,,NaN,,,,,,false,,,,55799,55798,,55797.00000000001,,55806,8,400,,,
break_continue,html.Screen,4_4_2,2023-05-02T19:35:34.265Z,,0,,,NaN,,,,,,false,,,,55799,55799,,55799,,55806,8,400,,,
sequence,flow.Sequence,4_4,2023-05-02T19:35:34.265Z,,0,,,3115,completion,,,,,false,,,,55799,55799,52681,52678.00000000001,52684,55806,8,400,,,
trial,html.Screen,4_5_0,2023-05-02T19:35:37.541Z,,0,1,,3273,response,ISIC_0032717.JPG,,ISIC_0010789.JPG,ISIC_0032717.JPG,false,1,keypress(m),500,59076,59075,55802,55800.00000000001,55806,59084,8,400,6,,ISIC_0010789.JPG
break,html.Screen,4_5_1,2023-05-02T19:35:37.543Z,,0,,,NaN,,,,,,false,,,,59077,59077,,59076,,59084,8,400,,,
break_continue,html.Screen,4_5_2,2023-05-02T19:35:37.543Z,,0,,,NaN,,,,,,false,,,,59078,59078,,59077,,59084,8,400,,,
sequence,flow.Sequence,4_5,2023-05-02T19:35:37.544Z,,0,,,3272,completion,,,,,false,,,,59078,59078,55802,55800.00000000001,55806,59084,8,400,,,
trial,html.Screen,4_6_0,2023-05-02T19:35:42.047Z,,0,1,,4500,response,ISIC_5821293.JPG,,ISIC_8133871.JPG,ISIC_8133871.JPG,false,0,keypress(z),500,63582,63581,59081,59078,59084,63591,8,400,7,,ISIC_5821293.JPG
break,html.Screen,4_6_1,2023-05-02T19:35:42.048Z,,0,,,NaN,,,,,,false,,,,63583,63583,,63582,,63591,8,400,,,
break_continue,html.Screen,4_6_2,2023-05-02T19:35:42.049Z,,0,,,NaN,,,,,,false,,,,63583,63583,,63583,,63591,8,400,,,
sequence,flow.Sequence,4_6,2023-05-02T19:35:42.050Z,,0,,,4499,completion,,,,,false,,,,63584,63583,59081,59078,59084,63591,8,400,,,
trial,html.Screen,4_7_0,2023-05-02T19:35:46.540Z,,0,1,,4487,response,ISIC_5498202.JPG,,ISIC_7966295.JPG,ISIC_5498202.JPG,false,1,keypress(m),500,68074,68074,63587,63585,63591,68083,8,400,8,,ISIC_7966295.JPG
break,html.Screen,4_7_1,2023-05-02T19:35:46.541Z,,0,,,NaN,,,,,,false,,,,68076.00000000001,68075,,68075,,68083,8,400,,,
break_continue,html.Screen,4_7_2,2023-05-02T19:35:46.542Z,,0,,,NaN,,,,,,false,,,,68076.00000000001,68076.00000000001,,68076.00000000001,,68083,8,400,,,
sequence,flow.Sequence,4_7,2023-05-02T19:35:46.542Z,,0,,,4485.000000000015,completion,,,,,false,,,,68076.00000000001,68076.00000000001,63587,63585,63591,68083,8,400,,,
trial,html.Screen,4_8_0,2023-05-02T19:35:49.392Z,,0,1,,2847,response,ISIC_3416324.JPG,,ISIC_3738751.JPG,ISIC_3416324.JPG,false,1,keypress(m),500,70926,70926,68079,68076.00000000001,68083,70934,8,400,9,,ISIC_3738751.JPG
break,html.Screen,4_8_1,2023-05-02T19:35:49.393Z,,0,,,NaN,,,,,,false,,,,70927,70927,,70927,,70934,8,400,,,
break_continue,html.Screen,4_8_2,2023-05-02T19:35:49.393Z,,0,,,NaN,,,,,,false,,,,70928,70928,,70927,,70934,8,400,,,
sequence,flow.Sequence,4_8,2023-05-02T19:35:49.393Z,,0,,,2845,completion,,,,,false,,,,70928,70928,68079,68076.00000000001,68083,70934,8,400,,,
trial,html.Screen,4_9_0,2023-05-02T19:35:53.594Z,,0,1,,4198,response,ISIC_0056692.JPG,,ISIC_0830131.JPG,ISIC_0056692.JPG,false,1,keypress(m),500,75129,75128,70930,70928,70934,75136,8,400,10,,ISIC_0830131.JPG
break,html.Screen,4_9_1,2023-05-02T19:35:53.595Z,,0,,,NaN,,,,,,false,,,,75129,75129,,75129,,75136,8,400,,,
break_continue,html.Screen,4_9_2,2023-05-02T19:35:53.595Z,,0,,,NaN,,,,,,false,,,,75130,75130,,75130,,75136,8,400,,,
sequence,flow.Sequence,4_9,2023-05-02T19:35:53.596Z,,0,,,4196,completion,,,,,false,,,,75130,75130,70930,70928,70934,75136,8,400,,,
trial,html.Screen,4_10_0,2023-05-02T19:35:56.541Z,,0,1,,2943,response,ISIC_0066492.JPG,,ISIC_0377965.JPG,ISIC_0377965.JPG,false,0,keypress(z),500,78075,78075,75132,75130,75136,78084,8,400,11,,ISIC_0066492.JPG
break,html.Screen,4_10_1,2023-05-02T19:35:56.542Z,,0,,,NaN,,,,,,false,,,,78076.00000000001,78076.00000000001,,78076.00000000001,,78084,8,400,,,
break_continue,html.Screen,4_10_2,2023-05-02T19:35:56.542Z,,0,,,NaN,,,,,,false,,,,78077,78077,,78076.00000000001,,78084,8,400,,,
sequence,flow.Sequence,4_10,2023-05-02T19:35:56.543Z,,0,,,2941,completion,,,,,false,,,,78077,78077,75132,75130,75136,78084,8,400,,,
trial,html.Screen,4_11_0,2023-05-02T19:35:59.838Z,,0,1,,3292,response,ISIC_0027067.JPG,,ISIC_1566931.JPG,ISIC_1566931.JPG,false,0,keypress(z),500,81373,81372,78080,78078,78084,81381,8,400,12,,ISIC_0027067.JPG
break,html.Screen,4_11_1,2023-05-02T19:35:59.840Z,,0,,,NaN,,,,,,false,,,,81374,81374,,81373,,81381,8,400,,,
break_continue,html.Screen,4_11_2,2023-05-02T19:35:59.840Z,,0,,,NaN,,,,,,false,,,,81375,81374,,81374,,81381,8,400,,,
sequence,flow.Sequence,4_11,2023-05-02T19:35:59.840Z,,0,,,3290,completion,,,,,false,,,,81375,81374,78080,78078,78084,81381,8,400,,,
trial,html.Screen,4_12_0,2023-05-02T19:36:03.005Z,,0,1,,3160,response,ISIC_0002693.JPG,,ISIC_2366652.JPG,ISIC_0002693.JPG,false,1,keypress(m),500,84539,84538,81378,81375,81381,84547,8,400,13,,ISIC_2366652.JPG
break,html.Screen,4_12_1,2023-05-02T19:36:03.006Z,,0,,,NaN,,,,,,false,,,,84540,84540,,84539,,84547,8,400,,,
break_continue,html.Screen,4_12_2,2023-05-02T19:36:03.006Z,,0,,,NaN,,,,,,false,,,,84541,84540,,84540,,84547,8,400,,,
sequence,flow.Sequence,4_12,2023-05-02T19:36:03.007Z,,0,,,3159,completion,,,,,false,,,,84541,84540,81378,81375,81381,84547,8,400,,,
trial,html.Screen,4_13_0,2023-05-02T19:36:06.072Z,,0,1,,3062.0000000000146,response,ISIC_9865814.JPG,,ISIC_0015226.JPG,ISIC_0015226.JPG,false,0,keypress(z),500,87606.00000000001,87606.00000000001,84544,84541,84547,87614,8,400,14,,ISIC_9865814.JPG
break,html.Screen,4_13_1,2023-05-02T19:36:06.073Z,,0,,,NaN,,,,,,false,,,,87607,87607,,87606.00000000001,,87614,8,400,,,
break_continue,html.Screen,4_13_2,2023-05-02T19:36:06.073Z,,0,,,NaN,,,,,,false,,,,87607,87607,,87607,,87614,8,400,,,
sequence,flow.Sequence,4_13,2023-05-02T19:36:06.073Z,,0,,,3060,completion,,,,,false,,,,87608,87607,84544,84541,84547,87614,8,400,,,
trial,html.Screen,4_14_0,2023-05-02T19:36:08.871Z,,0,1,,2795,response,ISIC_0027669.JPG,,ISIC_0069379.JPG,ISIC_0069379.JPG,false,0,keypress(z),500,90405,90405,87610,87608,87614,90413,8,400,15,,ISIC_0027669.JPG
break,html.Screen,4_14_1,2023-05-02T19:36:08.872Z,,0,,,NaN,,,,,,false,,,,90407,90406,,90406,,90413,8,400,,,
break_continue,html.Screen,4_14_2,2023-05-02T19:36:08.873Z,,0,,,NaN,,,,,,false,,,,90407,90407,,90407,,90413,8,400,,,
sequence,flow.Sequence,4_14,2023-05-02T19:36:08.873Z,,0,,,2793,completion,,,,,false,,,,90407,90407,87610,87608,87614,90413,8,400,,,
trial,html.Screen,4_15_0,2023-05-02T19:36:11.587Z,,0,1,,2711,response,ISIC_4653167.JPG,,ISIC_9355535.JPG,ISIC_9355535.JPG,false,0,keypress(z),500,93121,93121,90410,90408,90413,93130,8,400,16,,ISIC_4653167.JPG
break,html.Screen,4_15_1,2023-05-02T19:36:11.588Z,,0,,,NaN,,,,,,false,,,,93122,93122,,93121,,93130,8,400,,,
break_continue,html.Screen,4_15_2,2023-05-02T19:36:11.588Z,,0,,,NaN,,,,,,false,,,,93123,93122,,93122,,93130,8,400,,,
sequence,flow.Sequence,4_15,2023-05-02T19:36:11.589Z,,0,,,2709,completion,,,,,false,,,,93123,93122,90410,90408,90413,93130,8,400,,,
trial,html.Screen,4_16_0,2023-05-02T19:36:14.203Z,,0,1,,2611.0000000000146,response,ISIC_6906476.JPG,,ISIC_0065421.JPG,ISIC_6906476.JPG,false,1,keypress(m),500,95737.00000000001,95737.00000000001,93126,93123,93130,95746,8,400,17,,ISIC_0065421.JPG
break,html.Screen,4_16_1,2023-05-02T19:36:14.204Z,,0,,,NaN,,,,,,false,,,,95739,95738,,95738,,95746,8,400,,,
break_continue,html.Screen,4_16_2,2023-05-02T19:36:14.205Z,,0,,,NaN,,,,,,false,,,,95739,95739,,95739,,95746,8,400,,,
sequence,flow.Sequence,4_16,2023-05-02T19:36:14.205Z,,0,,,2609,completion,,,,,false,,,,95739,95739,93126,93123,93130,95746,8,400,,,
trial,html.Screen,4_17_0,2023-05-02T19:36:17.304Z,,0,1,,3096.0000000000146,response,ISIC_7358691.JPG,,ISIC_0002622.JPG,ISIC_0002622.JPG,false,0,keypress(z),500,98838.00000000001,98838.00000000001,95742,95739,95746,98846,8,400,18,,ISIC_7358691.JPG
break,html.Screen,4_17_1,2023-05-02T19:36:17.305Z,,0,,,NaN,,,,,,false,,,,98839,98839,,98839,,98846,8,400,,,
break_continue,html.Screen,4_17_2,2023-05-02T19:36:17.306Z,,0,,,NaN,,,,,,false,,,,98840,98840,,98839,,98846,8,400,,,
sequence,flow.Sequence,4_17,2023-05-02T19:36:17.306Z,,0,,,3094,completion,,,,,false,,,,98840,98840,95742,95739,95746,98846,8,400,,,
trial,html.Screen,4_18_0,2023-05-02T19:36:19.970Z,,0,1,,2660,response,ISIC_0014926.JPG,,ISIC_0055797.JPG,ISIC_0014926.JPG,false,1,keypress(m),500,101504,101503,98843,98840,98846,101512,8,400,19,,ISIC_0055797.JPG
break,html.Screen,4_18_1,2023-05-02T19:36:19.971Z,,0,,,NaN,,,,,,false,,,,101505,101505,,101504,,101512,8,400,,,
break_continue,html.Screen,4_18_2,2023-05-02T19:36:19.972Z,,0,,,NaN,,,,,,false,,,,101506,101506,,101505,,101512,8,400,,,
sequence,flow.Sequence,4_18,2023-05-02T19:36:19.972Z,,0,,,2660,completion,,,,,false,,,,101506,101506,98843,98840,98846,101512,8,400,,,
trial,html.Screen,4_19_0,2023-05-02T19:36:22.543Z,,0,1,,2568,response,ISIC_2196127.JPG,,ISIC_0057371.JPG,ISIC_2196127.JPG,false,1,keypress(m),500,104078,104077,101509,101507,101512,104085,8,400,20,,ISIC_0057371.JPG
break,html.Screen,4_19_1,2023-05-02T19:36:22.544Z,,0,,,NaN,,,,,,false,,,,104078,104078,,104078,,104085,8,400,,,
break_continue,html.Screen,4_19_2,2023-05-02T19:36:22.545Z,,0,,,NaN,,,,,,false,,,,104079.00000000001,104079.00000000001,,104079.00000000001,,104085,8,400,,,
sequence,flow.Sequence,4_19,2023-05-02T19:36:22.545Z,,0,,,2567.0000000000146,completion,,,,,false,,,,104079.00000000001,104079.00000000001,101509,101507,101512,104085,8,400,,,
trial,html.Screen,4_20_0,2023-05-02T19:36:26.105Z,,0,1,,3557,response,ISIC_8803600.JPG,,ISIC_0010618.JPG,ISIC_8803600.JPG,false,1,keypress(m),500,107639,107638,104081,104079.00000000001,104085,107647,8,400,21,,ISIC_0010618.JPG
break,html.Screen,4_20_1,2023-05-02T19:36:26.106Z,,0,,,NaN,,,,,,false,,,,107640,107640,,107640,,107647,8,400,,,
break_continue,html.Screen,4_20_2,2023-05-02T19:36:26.107Z,,0,,,NaN,,,,,,false,,,,107641,107641,,107641,,107647,8,400,,,
sequence,flow.Sequence,4_20,2023-05-02T19:36:26.107Z,,0,,,3556,completion,,,,,false,,,,107641,107641,104081,104079.00000000001,104085,107647,8,400,,,
trial,html.Screen,4_21_0,2023-05-02T19:36:28.704Z,,0,1,,2594.0000000000146,response,ISIC_0057009.JPG,,ISIC_7984080.JPG,ISIC_7984080.JPG,false,0,keypress(z),500,110238,110237.00000000001,107643,107641,107647,110246,8,400,22,,ISIC_0057009.JPG
break,html.Screen,4_21_1,2023-05-02T19:36:28.705Z,,0,,,NaN,,,,,,false,,,,110240.00000000001,110239,,110238,,110246,8,400,,,
break_continue,html.Screen,4_21_2,2023-05-02T19:36:28.706Z,,0,,,NaN,,,,,,false,,,,110240.00000000001,110240.00000000001,,110240.00000000001,,110246,8,400,,,
sequence,flow.Sequence,4_21,2023-05-02T19:36:28.706Z,,0,,,2593.0000000000146,completion,,,,,false,,,,110240.00000000001,110240.00000000001,107643,107641,107647,110246,8,400,,,
trial,html.Screen,4_22_0,2023-05-02T19:36:31.486Z,,0,1,,2777,response,ISIC_3319229.JPG,,ISIC_6274085.JPG,ISIC_6274085.JPG,false,0,keypress(z),500,113020,113020,110243,110241,110246,113028,8,400,23,,ISIC_3319229.JPG
break,html.Screen,4_22_1,2023-05-02T19:36:31.487Z,,0,,,NaN,,,,,,false,,,,113022,113021,,113020,,113028,8,400,,,
break_continue,html.Screen,4_22_2,2023-05-02T19:36:31.488Z,,0,,,NaN,,,,,,false,,,,113022,113022,,113022,,113028,8,400,,,
sequence,flow.Sequence,4_22,2023-05-02T19:36:31.488Z,,0,,,2776,completion,,,,,false,,,,113022,113022,110243,110241,110246,113028,8,400,,,
trial,html.Screen,4_23_0,2023-05-02T19:36:35.152Z,,0,1,,3662,response,ISIC_0070566.JPG,,ISIC_7637091.JPG,ISIC_7637091.JPG,false,0,keypress(z),500,116686,116686,113024,113022,113028,116695,8,400,24,,ISIC_0070566.JPG
break,html.Screen,4_23_1,2023-05-02T19:36:35.154Z,,0,,,NaN,,,,,,false,,,,116688,116687,,116687,,116695,8,400,,,
break_continue,html.Screen,4_23_2,2023-05-02T19:36:35.154Z,,0,,,NaN,,,,,,false,,,,116688,116688,,116688,,116695,8,400,,,
sequence,flow.Sequence,4_23,2023-05-02T19:36:35.154Z,,0,,,3660,completion,,,,,false,,,,116688,116688,113024,113022,113028,116695,8,400,,,
trial,html.Screen,4_24_0,2023-05-02T19:36:37.925Z,,0,1,,2767,response,ISIC_5426854.JPG,,ISIC_0000413.JPG,ISIC_5426854.JPG,false,1,keypress(m),500,119459,119458,116691,116689,116695,119466,8,400,25,,ISIC_0000413.JPG
break,html.Screen,4_24_1,2023-05-02T19:36:37.926Z,,0,,,NaN,,,,,,false,,,,119460.00000000001,119460.00000000001,,119459,,119466,8,400,,,
break_continue,html.Screen,4_24_2,2023-05-02T19:36:37.926Z,,0,,,NaN,,,,,,false,,,,119460.00000000001,119460.00000000001,,119460.00000000001,,119466,8,400,,,
sequence,flow.Sequence,4_24,2023-05-02T19:36:37.927Z,,0,,,2765.0000000000146,completion,,,,,false,,,,119461,119460.00000000001,116691,116688,116695,119466,8,400,,,
trial,html.Screen,4_25_0,2023-05-02T19:36:42.788Z,,0,1,,4858,response,ISIC_0057997.JPG,,ISIC_0055048.JPG,ISIC_0057997.JPG,false,1,keypress(m),500,124322,124321,119463,119461,119466,124363,8,400,26,,ISIC_0055048.JPG
break,html.Screen,4_25_1,2023-05-02T19:36:42.789Z,,0,,,NaN,,,,,,false,,,,124323.00000000001,124323.00000000001,,124322,,124363,8,400,,,
break_continue,html.Screen,4_25_2,2023-05-02T19:36:42.789Z,,0,,,NaN,,,,,,false,,,,124323.00000000001,124323.00000000001,,124323.00000000001,,124363,8,400,,,
sequence,flow.Sequence,4_25,2023-05-02T19:36:42.789Z,,0,,,4857.000000000015,completion,,,,,false,,,,124323.00000000001,124323.00000000001,119463,119461,119466,124363,8,400,,,
trial,html.Screen,4_26_0,2023-05-02T19:36:46.073Z,,0,1,,3276.0000000000146,response,ISIC_0024792.JPG,,ISIC_0060893.JPG,ISIC_0024792.JPG,false,1,keypress(m),500,127607,127606.00000000001,124330,124323.00000000001,124363,127615,8,400,27,,ISIC_0060893.JPG
break,html.Screen,4_26_1,2023-05-02T19:36:46.074Z,,0,,,NaN,,,,,,false,,,,127608,127608,,127607,,127615,8,400,,,
break_continue,html.Screen,4_26_2,2023-05-02T19:36:46.075Z,,0,,,NaN,,,,,,false,,,,127609.00000000001,127608,,127608,,127615,8,400,,,
sequence,flow.Sequence,4_26,2023-05-02T19:36:46.075Z,,0,,,3245,completion,,,,,false,,,,127609.00000000001,127608,124330,124323.00000000001,124363,127615,8,400,,,
trial,html.Screen,4_27_0,2023-05-02T19:36:49.342Z,,0,1,,3264,response,ISIC_0028505.JPG,,ISIC_0028746.JPG,ISIC_0028746.JPG,false,0,keypress(z),500,130876,130875,127611,127609.00000000001,127615,130884,8,400,28,,ISIC_0028505.JPG
break,html.Screen,4_27_1,2023-05-02T19:36:49.343Z,,0,,,NaN,,,,,,false,,,,130877.00000000001,130877.00000000001,,130876,,130884,8,400,,,
break_continue,html.Screen,4_27_2,2023-05-02T19:36:49.344Z,,0,,,NaN,,,,,,false,,,,130878.00000000001,130878.00000000001,,130877.00000000001,,130884,8,400,,,
sequence,flow.Sequence,4_27,2023-05-02T19:36:49.344Z,,0,,,3263.0000000000146,completion,,,,,false,,,,130878.00000000001,130878.00000000001,127611,127609.00000000001,127615,130884,8,400,,,
trial,html.Screen,4_28_0,2023-05-02T19:36:53.569Z,,0,1,,4221,response,ISIC_9087221.JPG,,ISIC_5833015.JPG,ISIC_9087221.JPG,false,1,keypress(m),500,135103,135102,130881,130878.00000000001,130884,135111,8,400,29,,ISIC_5833015.JPG
break,html.Screen,4_28_1,2023-05-02T19:36:53.570Z,,0,,,NaN,,,,,,false,,,,135104,135104,,135103,,135111,8,400,,,
break_continue,html.Screen,4_28_2,2023-05-02T19:36:53.570Z,,0,,,NaN,,,,,,false,,,,135104,135104,,135104,,135111,8,400,,,
sequence,flow.Sequence,4_28,2023-05-02T19:36:53.571Z,,0,,,4220,completion,,,,,false,,,,135104,135104,130881,130878.00000000001,130884,135111,8,400,,,
trial,html.Screen,4_29_0,2023-05-02T19:37:00.467Z,,0,1,,6893,response,ISIC_7404937.JPG,,ISIC_5400609.JPG,ISIC_7404937.JPG,false,1,keypress(m),500,142001,142000,135107,135105,135111,142009,8,400,30,,ISIC_5400609.JPG
break,html.Screen,4_29_1,2023-05-02T19:37:00.468Z,,0,,,NaN,,,,,,false,,,,142002,142002,,142001,,142009,8,400,,,
break_continue,html.Screen,4_29_2,2023-05-02T19:37:00.469Z,,0,,,NaN,,,,,,false,,,,142003,142003,,142003,,142009,8,400,,,
sequence,flow.Sequence,4_29,2023-05-02T19:37:00.469Z,,0,,,6892,completion,,,,,false,,,,142003,142003,135107,135105,135111,142009,8,400,,,
trial,html.Screen,4_30_0,2023-05-02T19:37:03.674Z,,0,1,,3201,response,ISIC_2634356.JPG,,ISIC_8451869.JPG,ISIC_2634356.JPG,false,1,keypress(m),500,145208,145207,142006,142003,142009,145215,8,400,31,,ISIC_8451869.JPG
break,html.Screen,4_30_1,2023-05-02T19:37:03.675Z,,0,,,NaN,,,,,,false,,,,145209,145208,,145208,,145215,8,400,,,
break_continue,html.Screen,4_30_2,2023-05-02T19:37:03.675Z,,0,,,NaN,,,,,,false,,,,145209,145209,,145209,,145215,8,400,,,
sequence,flow.Sequence,4_30,2023-05-02T19:37:03.675Z,,0,,,3200,completion,,,,,false,,,,145209,145209,142006,142003,142009,145215,8,400,,,
trial,html.Screen,4_31_0,2023-05-02T19:37:07.021Z,,0,1,,3342,response,ISIC_0028176.JPG,,ISIC_5942564.JPG,ISIC_5942564.JPG,false,0,keypress(z),500,148555,148554,145212,145210,145215,148563,8,400,32,,ISIC_0028176.JPG
break,html.Screen,4_31_1,2023-05-02T19:37:07.022Z,,0,,,NaN,,,,,,false,,,,148556,148555,,148555,,148563,8,400,,,
break_continue,html.Screen,4_31_2,2023-05-02T19:37:07.023Z,,0,,,NaN,,,,,,false,,,,148556,148556,,148556,,148563,8,400,,,
sequence,flow.Sequence,4_31,2023-05-02T19:37:07.023Z,,0,,,3341,completion,,,,,false,,,,148557.00000000003,148556,145212,145209,145215,148563,8,400,,,
trial,html.Screen,4_32_0,2023-05-02T19:37:14.274Z,,0,1,,7248.000000000029,response,ISIC_8150108.JPG,,ISIC_7351443.JPG,ISIC_7351443.JPG,false,0,keypress(z),500,155808,155807.00000000003,148559,148557.00000000003,148563,155815,8,400,33,,ISIC_8150108.JPG
break,html.Screen,4_32_1,2023-05-02T19:37:14.275Z,,0,,,NaN,,,,,,false,,,,155809,155808,,155808,,155815,8,400,,,
break_continue,html.Screen,4_32_2,2023-05-02T19:37:14.275Z,,0,,,NaN,,,,,,false,,,,155809,155809,,155809,,155815,8,400,,,
sequence,flow.Sequence,4_32,2023-05-02T19:37:14.275Z,,0,,,7246,completion,,,,,false,,,,155809,155809,148559,148557.00000000003,148563,155815,8,400,,,
trial,html.Screen,4_33_0,2023-05-02T19:37:18.317Z,,0,1,,4038,response,ISIC_8837880.JPG,,ISIC_6168754.JPG,ISIC_8837880.JPG,false,1,keypress(m),500,159850,159850,155812,155809,155815,159858,8,400,34,,ISIC_6168754.JPG
break,html.Screen,4_33_1,2023-05-02T19:37:18.318Z,,0,,,NaN,,,,,,false,,,,159851,159851,,159851,,159858,8,400,,,
break_continue,html.Screen,4_33_2,2023-05-02T19:37:18.318Z,,0,,,NaN,,,,,,false,,,,159852,159852,,159851,,159858,8,400,,,
sequence,flow.Sequence,4_33,2023-05-02T19:37:18.318Z,,0,,,4037,completion,,,,,false,,,,159852,159852,155812,155809,155815,159858,8,400,,,
trial,html.Screen,4_34_0,2023-05-02T19:37:20.782Z,,0,1,,2461,response,ISIC_6785249.JPG,,ISIC_9837030.JPG,ISIC_6785249.JPG,false,1,keypress(m),500,162316,162315,159854,159852,159858,162324,8,400,35,,ISIC_9837030.JPG
break,html.Screen,4_34_1,2023-05-02T19:37:20.784Z,,0,,,NaN,,,,,,false,,,,162317,162317,,162317,,162324,8,400,,,
break_continue,html.Screen,4_34_2,2023-05-02T19:37:20.784Z,,0,,,NaN,,,,,,false,,,,162318,162318,,162318,,162324,8,400,,,
sequence,flow.Sequence,4_34,2023-05-02T19:37:20.784Z,,0,,,2460,completion,,,,,false,,,,162318,162318,159854,159852,159858,162324,8,400,,,
trial,html.Screen,4_35_0,2023-05-02T19:37:23.149Z,,0,1,,2361.000000000029,response,ISIC_0031293.JPG,,ISIC_0000140.JPG,ISIC_0031293.JPG,false,1,keypress(m),500,164683,164682.00000000003,162321,162318,162324,164691,8,400,36,,ISIC_0000140.JPG
break,html.Screen,4_35_1,2023-05-02T19:37:23.150Z,,0,,,NaN,,,,,,false,,,,164684,164684,,164683,,164691,8,400,,,
break_continue,html.Screen,4_35_2,2023-05-02T19:37:23.151Z,,0,,,NaN,,,,,,false,,,,164685,164685,,164684,,164691,8,400,,,
sequence,flow.Sequence,4_35,2023-05-02T19:37:23.151Z,,0,,,2361,completion,,,,,false,,,,164685,164685,162321,162318,162324,164691,8,400,,,
trial,html.Screen,4_36_0,2023-05-02T19:37:25.482Z,,0,1,,2328.000000000029,response,ISIC_0030089.JPG,,ISIC_0013316.JPG,ISIC_0030089.JPG,false,1,keypress(m),500,167015.00000000003,167015.00000000003,164687,164685,164691,167022,8,400,37,,ISIC_0013316.JPG
break,html.Screen,4_36_1,2023-05-02T19:37:25.483Z,,0,,,NaN,,,,,,false,,,,167016,167016,,167016,,167022,8,400,,,
break_continue,html.Screen,4_36_2,2023-05-02T19:37:25.483Z,,0,,,NaN,,,,,,false,,,,167017,167016,,167016,,167022,8,400,,,
sequence,flow.Sequence,4_36,2023-05-02T19:37:25.483Z,,0,,,2325,completion,,,,,false,,,,167017,167016,164687,164685,164691,167022,8,400,,,
trial,html.Screen,4_37_0,2023-05-02T19:37:29.005Z,,0,1,,3519,response,ISIC_7260977.JPG,,ISIC_0031357.JPG,ISIC_0031357.JPG,false,0,keypress(z),500,170538,170538,167019,167017,167022,170545,8,400,38,,ISIC_7260977.JPG
break,html.Screen,4_37_1,2023-05-02T19:37:29.006Z,,0,,,NaN,,,,,,false,,,,170539.00000000003,170539.00000000003,,170538,,170545,8,400,,,
break_continue,html.Screen,4_37_2,2023-05-02T19:37:29.006Z,,0,,,NaN,,,,,,false,,,,170540,170539.00000000003,,170539.00000000003,,170545,8,400,,,
sequence,flow.Sequence,4_37,2023-05-02T19:37:29.006Z,,0,,,3517.000000000029,completion,,,,,false,,,,170540,170539.00000000003,167019,167017,167022,170545,8,400,,,
trial,html.Screen,4_38_0,2023-05-02T19:37:32.283Z,,0,1,,3274,response,ISIC_0031926.JPG,,ISIC_2311665.JPG,ISIC_0031926.JPG,false,1,keypress(m),500,173816,173816,170542,170540,170545,173824,8,400,39,,ISIC_2311665.JPG
break,html.Screen,4_38_1,2023-05-02T19:37:32.284Z,,0,,,NaN,,,,,,false,,,,173818,173817,,173817,,173824,8,400,,,
break_continue,html.Screen,4_38_2,2023-05-02T19:37:32.285Z,,0,,,NaN,,,,,,false,,,,173818,173818,,173818,,173824,8,400,,,
sequence,flow.Sequence,4_38,2023-05-02T19:37:32.285Z,,0,,,3273,completion,,,,,false,,,,173818,173818,170542,170540,170545,173824,8,400,,,
trial,html.Screen,4_39_0,2023-05-02T19:37:35.481Z,,0,1,,3193,response,ISIC_5220698.JPG,,ISIC_2619533.JPG,ISIC_5220698.JPG,false,1,keypress(m),500,177014,177014,173821,173818,173824,177023,8,400,40,,ISIC_2619533.JPG
break,html.Screen,4_39_1,2023-05-02T19:37:35.482Z,,0,,,NaN,,,,,,false,,,,177015.00000000003,177015.00000000003,,177015.00000000003,,177023,8,400,,,
break_continue,html.Screen,4_39_2,2023-05-02T19:37:35.482Z,,0,,,NaN,,,,,,false,,,,177016,177016,,177015.00000000003,,177023,8,400,,,
sequence,flow.Sequence,4_39,2023-05-02T19:37:35.483Z,,0,,,3192,completion,,,,,false,,,,177016,177016,173821,173818,173824,177023,8,400,,,
trial,html.Screen,4_40_0,2023-05-02T19:37:38.647Z,,0,1,,3161,response,ISIC_0070689.JPG,,ISIC_4518384.JPG,ISIC_0070689.JPG,false,1,keypress(m),500,180181,180180,177019,177016,177023,180188,8,400,41,,ISIC_4518384.JPG
break,html.Screen,4_40_1,2023-05-02T19:37:38.648Z,,0,,,NaN,,,,,,false,,,,180182.00000000003,180182.00000000003,,180181,,180188,8,400,,,
break_continue,html.Screen,4_40_2,2023-05-02T19:37:38.649Z,,0,,,NaN,,,,,,false,,,,180182.00000000003,180182.00000000003,,180182.00000000003,,180188,8,400,,,
sequence,flow.Sequence,4_40,2023-05-02T19:37:38.649Z,,0,,,3159.000000000029,completion,,,,,false,,,,180182.00000000003,180182.00000000003,177019,177016,177023,180188,8,400,,,
trial,html.Screen,4_41_0,2023-05-02T19:37:41.497Z,,0,1,,2846,response,ISIC_5313574.JPG,,ISIC_5097947.JPG,ISIC_5097947.JPG,false,0,keypress(z),500,183030,183030,180184,180182.00000000003,180188,183038,8,400,42,,ISIC_5313574.JPG
break,html.Screen,4_41_1,2023-05-02T19:37:41.498Z,,0,,,NaN,,,,,,false,,,,183032,183031,,183031,,183038,8,400,,,
break_continue,html.Screen,4_41_2,2023-05-02T19:37:41.498Z,,0,,,NaN,,,,,,false,,,,183032,183032,,183032,,183038,8,400,,,
sequence,flow.Sequence,4_41,2023-05-02T19:37:41.498Z,,0,,,2844,completion,,,,,false,,,,183032,183032,180184,180182.00000000003,180188,183038,8,400,,,
trial,html.Screen,4_42_0,2023-05-02T19:37:44.402Z,,0,1,,2900,response,ISIC_0026832.JPG,,ISIC_0070092.JPG,ISIC_0026832.JPG,false,1,keypress(m),500,185935,185935,183035,183032,183038,185944,8,400,43,,ISIC_0070092.JPG
break,html.Screen,4_42_1,2023-05-02T19:37:44.403Z,,0,,,NaN,,,,,,false,,,,185936,185936,,185936,,185944,8,400,,,
break_continue,html.Screen,4_42_2,2023-05-02T19:37:44.403Z,,0,,,NaN,,,,,,false,,,,185937,185936,,185936,,185944,8,400,,,
sequence,flow.Sequence,4_42,2023-05-02T19:37:44.403Z,,0,,,2898,completion,,,,,false,,,,185937,185936,183035,183032,183038,185944,8,400,,,
trial,html.Screen,4_43_0,2023-05-02T19:37:47.480Z,,0,1,,3073,response,ISIC_0014598.JPG,,ISIC_0072041.JPG,ISIC_0014598.JPG,false,1,keypress(m),500,189014,189013,185940,185937,185944,189021,8,400,44,,ISIC_0072041.JPG
break,html.Screen,4_43_1,2023-05-02T19:37:47.481Z,,0,,,NaN,,,,,,false,,,,189015.00000000003,189015.00000000003,,189014,,189021,8,400,,,
break_continue,html.Screen,4_43_2,2023-05-02T19:37:47.482Z,,0,,,NaN,,,,,,false,,,,189015.00000000003,189015.00000000003,,189015.00000000003,,189021,8,400,,,
sequence,flow.Sequence,4_43,2023-05-02T19:37:47.482Z,,0,,,3071.000000000029,completion,,,,,false,,,,189015.00000000003,189015.00000000003,185940,185937,185944,189021,8,400,,,
trial,html.Screen,4_44_0,2023-05-02T19:37:50.265Z,,0,1,,2779,response,ISIC_0063899.JPG,,ISIC_0024591.JPG,ISIC_0024591.JPG,false,0,keypress(z),500,191798,191797,189018,189015.00000000003,189021,191806,8,400,45,,ISIC_0063899.JPG
break,html.Screen,4_44_1,2023-05-02T19:37:50.266Z,,0,,,NaN,,,,,,false,,,,191799,191799,,191798,,191806,8,400,,,
break_continue,html.Screen,4_44_2,2023-05-02T19:37:50.266Z,,0,,,NaN,,,,,,false,,,,191800,191800,,191799,,191806,8,400,,,
sequence,flow.Sequence,4_44,2023-05-02T19:37:50.266Z,,0,,,2779,completion,,,,,false,,,,191800,191800,189018,189015.00000000003,189021,191806,8,400,,,
trial,html.Screen,4_45_0,2023-05-02T19:37:53.603Z,,0,1,,3334,response,ISIC_1552232.JPG,,ISIC_1752943.JPG,ISIC_1752943.JPG,false,0,keypress(z),500,195136,195136,191802,191800,191806,195144,8,400,46,,ISIC_1552232.JPG
break,html.Screen,4_45_1,2023-05-02T19:37:53.603Z,,0,,,NaN,,,,,,false,,,,195137,195137,,195136,,195144,8,400,,,
break_continue,html.Screen,4_45_2,2023-05-02T19:37:53.604Z,,0,,,NaN,,,,,,false,,,,195137,195137,,195137,,195144,8,400,,,
sequence,flow.Sequence,4_45,2023-05-02T19:37:53.604Z,,0,,,3331,completion,,,,,false,,,,195137,195137,191802,191800,191806,195144,8,400,,,
trial,html.Screen,4_46_0,2023-05-02T19:37:57.179Z,,0,1,,3572.000000000029,response,ISIC_0455743.JPG,,ISIC_6784593.JPG,ISIC_6784593.JPG,false,0,keypress(z),500,198713,198712.00000000003,195140,195137,195144,198721,8,400,47,,ISIC_0455743.JPG
break,html.Screen,4_46_1,2023-05-02T19:37:57.181Z,,0,,,NaN,,,,,,false,,,,198714,198714,,198713,,198721,8,400,,,
break_continue,html.Screen,4_46_2,2023-05-02T19:37:57.181Z,,0,,,NaN,,,,,,false,,,,198714,198714,,198714,,198721,8,400,,,
sequence,flow.Sequence,4_46,2023-05-02T19:37:57.181Z,,0,,,3570,completion,,,,,false,,,,198714,198714,195140,195137,195144,198721,8,400,,,
trial,html.Screen,4_47_0,2023-05-02T19:38:01.696Z,,0,1,,4512,response,ISIC_2750230.JPG,,ISIC_2002605.JPG,ISIC_2002605.JPG,false,0,keypress(z),500,203229,203229,198717,198715,198721,203237,8,400,48,,ISIC_2750230.JPG
break,html.Screen,4_47_1,2023-05-02T19:38:01.697Z,,0,,,NaN,,,,,,false,,,,203231,203230.00000000003,,203230.00000000003,,203237,8,400,,,
break_continue,html.Screen,4_47_2,2023-05-02T19:38:01.698Z,,0,,,NaN,,,,,,false,,,,203231,203231,,203231,,203237,8,400,,,
sequence,flow.Sequence,4_47,2023-05-02T19:38:01.698Z,,0,,,4510,completion,,,,,false,,,,203231,203231,198717,198715,198721,203237,8,400,,,
trial,html.Screen,4_48_0,2023-05-02T19:38:05.263Z,,0,1,,3562,response,ISIC_0011520.JPG,,ISIC_4631711.JPG,ISIC_4631711.JPG,false,0,keypress(z),500,206796,206796,203234,203232,203237,206803,8,400,49,,ISIC_0011520.JPG
break,html.Screen,4_48_1,2023-05-02T19:38:05.264Z,,0,,,NaN,,,,,,false,,,,206797,206797,,206797,,206803,8,400,,,
break_continue,html.Screen,4_48_2,2023-05-02T19:38:05.264Z,,0,,,NaN,,,,,,false,,,,206797,206797,,206797,,206803,8,400,,,
sequence,flow.Sequence,4_48,2023-05-02T19:38:05.264Z,,0,,,3560,completion,,,,,false,,,,206798,206797,203234,203231,203237,206803,8,400,,,
trial,html.Screen,4_49_0,2023-05-02T19:38:10.746Z,,0,1,,5479,response,ISIC_9386509.JPG,,ISIC_7939816.JPG,ISIC_7939816.JPG,false,0,keypress(z),500,212279,212279,206800,206798,206803,212293,8,400,50,,ISIC_9386509.JPG
break,html.Screen,4_49_1,2023-05-02T19:38:15.740Z,,0,,,4997,timeout,,,,,false,,,,217273,217273,212285,212280,212293,217290,8,400,,,
break_continue,html.Screen,4_49_2,2023-05-02T19:38:18.067Z,,0,,,2326.000000000029,response,,,,,false,continue,keypress(Space),,219600,219599.00000000003,217273,217273,217290,219610,8,400,,,
sequence,flow.Sequence,4_49,2023-05-02T19:38:18.067Z,,0,,,12796.00000000003,completion,,,,,false,,,,219600,219599.00000000003,206800,206798,206803,219610,8,400,,,
trial,html.Screen,4_50_0,2023-05-02T19:38:22.461Z,,0,2,,4391,response,ISIC_0011930.JPG,,ISIC_9786863.JPG,ISIC_9786863.JPG,false,0,keypress(z),500,223994,223994,219603,219600,219610,224003,8,400,1,,ISIC_0011930.JPG
break,html.Screen,4_50_1,2023-05-02T19:38:22.462Z,,0,,,NaN,,,,,,false,,,,223995,223995,,223994,,224003,8,400,,,
break_continue,html.Screen,4_50_2,2023-05-02T19:38:22.462Z,,0,,,NaN,,,,,,false,,,,223995,223995,,223995,,224003,8,400,,,
sequence,flow.Sequence,4_50,2023-05-02T19:38:22.462Z,,0,,,4385,completion,,,,,false,,,,223995,223995,219603,219600,219610,224003,8,400,,,
trial,html.Screen,4_51_0,2023-05-02T19:38:25.636Z,,0,2,,3171.000000000029,response,ISIC_0070447.JPG,,ISIC_0012382.JPG,ISIC_0012382.JPG,false,0,keypress(z),500,227170.00000000003,227170.00000000003,223999,223996,224003,227177,8,400,2,,ISIC_0070447.JPG
break,html.Screen,4_51_1,2023-05-02T19:38:25.637Z,,0,,,NaN,,,,,,false,,,,227171,227171,,227170.00000000003,,227177,8,400,,,
break_continue,html.Screen,4_51_2,2023-05-02T19:38:25.637Z,,0,,,NaN,,,,,,false,,,,227171,227171,,227171,,227177,8,400,,,
sequence,flow.Sequence,4_51,2023-05-02T19:38:25.637Z,,0,,,3168,completion,,,,,false,,,,227171,227171,223999,223996,224003,227177,8,400,,,
trial,html.Screen,4_52_0,2023-05-02T19:38:28.572Z,,0,2,,2937.000000000029,response,ISIC_3902917.JPG,,ISIC_3026660.JPG,ISIC_3902917.JPG,false,1,keypress(m),500,230112,230111.00000000003,227174,227172,227177,230119,8,400,3,,ISIC_3026660.JPG
break,html.Screen,4_52_1,2023-05-02T19:38:28.574Z,,0,,,NaN,,,,,,false,,,,230113,230113,,230112,,230119,8,400,,,
break_continue,html.Screen,4_52_2,2023-05-02T19:38:28.574Z,,0,,,NaN,,,,,,false,,,,230114,230113,,230113,,230119,8,400,,,
sequence,flow.Sequence,4_52,2023-05-02T19:38:28.574Z,,0,,,2936,completion,,,,,false,,,,230114,230113,227174,227172,227177,230119,8,400,,,
trial,html.Screen,4_53_0,2023-05-02T19:38:32.273Z,,0,2,,3702,response,ISIC_0034104.JPG,,ISIC_0005304.JPG,ISIC_0005304.JPG,false,0,keypress(z),500,233818,233818,230116,230114,230119,233824,8,400,4,,ISIC_0034104.JPG
break,html.Screen,4_53_1,2023-05-02T19:38:32.274Z,,0,,,NaN,,,,,,false,,,,233819.00000000003,233819.00000000003,,233818,,233824,8,400,,,
break_continue,html.Screen,4_53_2,2023-05-02T19:38:32.274Z,,0,,,NaN,,,,,,false,,,,233819.00000000003,233819.00000000003,,233819.00000000003,,233824,8,400,,,
sequence,flow.Sequence,4_53,2023-05-02T19:38:32.274Z,,0,,,3700.000000000029,completion,,,,,false,,,,233819.00000000003,233819.00000000003,230116,230114,230119,233824,8,400,,,
trial,html.Screen,4_54_0,2023-05-02T19:38:35.247Z,,0,2,,2973,response,ISIC_9745038.JPG,,ISIC_0055776.JPG,ISIC_9745038.JPG,false,1,keypress(m),500,236795.00000000003,236794,233821,233819.00000000003,233824,236803,8,400,5,,ISIC_0055776.JPG
break,html.Screen,4_54_1,2023-05-02T19:38:35.248Z,,0,,,NaN,,,,,,false,,,,236796,236796,,236795.00000000003,,236803,8,400,,,
break_continue,html.Screen,4_54_2,2023-05-02T19:38:35.248Z,,0,,,NaN,,,,,,false,,,,236797,236797,,236796,,236803,8,400,,,
sequence,flow.Sequence,4_54,2023-05-02T19:38:35.248Z,,0,,,2973,completion,,,,,false,,,,236797,236797,233821,233819.00000000003,233824,236803,8,400,,,
trial,html.Screen,4_55_0,2023-05-02T19:38:38.278Z,,0,2,,3030,response,ISIC_0058658.JPG,,ISIC_0010878.JPG,ISIC_0058658.JPG,false,1,keypress(m),500,239829,239829,236799,236797,236803,239837,8,400,6,,ISIC_0010878.JPG
break,html.Screen,4_55_1,2023-05-02T19:38:38.279Z,,0,,,NaN,,,,,,false,,,,239830,239830,,239829,,239837,8,400,,,
break_continue,html.Screen,4_55_2,2023-05-02T19:38:38.279Z,,0,,,NaN,,,,,,false,,,,239831.00000000003,239831.00000000003,,239831.00000000003,,239837,8,400,,,
sequence,flow.Sequence,4_55,2023-05-02T19:38:38.280Z,,0,,,3028.000000000029,completion,,,,,false,,,,239831.00000000003,239831.00000000003,236799,236797,236803,239837,8,400,,,
trial,html.Screen,4_56_0,2023-05-02T19:38:41.539Z,,0,2,,3259,response,ISIC_2050638.JPG,,ISIC_3018550.JPG,ISIC_2050638.JPG,false,1,keypress(m),500,243093.00000000003,243092,239833,239831.00000000003,239837,243100,8,400,7,,ISIC_3018550.JPG
break,html.Screen,4_56_1,2023-05-02T19:38:41.540Z,,0,,,NaN,,,,,,false,,,,243094,243093.00000000003,,243093.00000000003,,243100,8,400,,,
break_continue,html.Screen,4_56_2,2023-05-02T19:38:41.540Z,,0,,,NaN,,,,,,false,,,,243094,243094,,243094,,243100,8,400,,,
sequence,flow.Sequence,4_56,2023-05-02T19:38:41.540Z,,0,,,3257,completion,,,,,false,,,,243094,243094,239833,239831.00000000003,239837,243100,8,400,,,
trial,html.Screen,4_57_0,2023-05-02T19:38:44.439Z,,0,2,,2898,response,ISIC_0024344.JPG,,ISIC_0034062.JPG,ISIC_0024344.JPG,false,1,keypress(m),500,245995,245994,243096,243094,243100,246003,8,400,8,,ISIC_0034062.JPG
break,html.Screen,4_57_1,2023-05-02T19:38:44.440Z,,0,,,NaN,,,,,,false,,,,245996,245996,,245995,,246003,8,400,,,
break_continue,html.Screen,4_57_2,2023-05-02T19:38:44.440Z,,0,,,NaN,,,,,,false,,,,245996,245996,,245996,,246003,8,400,,,
sequence,flow.Sequence,4_57,2023-05-02T19:38:44.441Z,,0,,,2896,completion,,,,,false,,,,245997,245996,243096,243094,243100,246003,8,400,,,
trial,html.Screen,4_58_0,2023-05-02T19:38:47.420Z,,0,2,,2978,response,ISIC_8848134.JPG,,ISIC_8929288.JPG,ISIC_8848134.JPG,false,1,keypress(m),500,248978,248977,245999,245997,246003,248984,8,400,9,,ISIC_8929288.JPG
break,html.Screen,4_58_1,2023-05-02T19:38:47.421Z,,0,,,NaN,,,,,,false,,,,248979,248978,,248978,,248984,8,400,,,
break_continue,html.Screen,4_58_2,2023-05-02T19:38:47.421Z,,0,,,NaN,,,,,,false,,,,248979,248979,,248979,,248984,8,400,,,
sequence,flow.Sequence,4_58,2023-05-02T19:38:47.421Z,,0,,,2976,completion,,,,,false,,,,248979,248979,245999,245997,246003,248984,8,400,,,
trial,html.Screen,4_59_0,2023-05-02T19:38:50.874Z,,0,2,,3452,response,ISIC_0062734.JPG,,ISIC_0476606.JPG,ISIC_0062734.JPG,false,1,keypress(m),500,252433,252433,248981,248979,248984,252440,8,400,10,,ISIC_0476606.JPG
break,html.Screen,4_59_1,2023-05-02T19:38:50.875Z,,0,,,NaN,,,,,,false,,,,252434,252434,,252434,,252440,8,400,,,
break_continue,html.Screen,4_59_2,2023-05-02T19:38:50.875Z,,0,,,NaN,,,,,,false,,,,252435,252434,,252434,,252440,8,400,,,
sequence,flow.Sequence,4_59,2023-05-02T19:38:50.876Z,,0,,,3450,completion,,,,,false,,,,252435,252434,248981,248979,248984,252440,8,400,,,
trial,html.Screen,4_60_0,2023-05-02T19:38:54.067Z,,0,2,,3189,response,ISIC_5420979.JPG,,ISIC_6033222.JPG,ISIC_5420979.JPG,false,1,keypress(m),500,255627,255626,252437,252435,252440,255635,8,400,11,,ISIC_6033222.JPG
break,html.Screen,4_60_1,2023-05-02T19:38:54.068Z,,0,,,NaN,,,,,,false,,,,255628,255628,,255627,,255635,8,400,,,
break_continue,html.Screen,4_60_2,2023-05-02T19:38:54.068Z,,0,,,NaN,,,,,,false,,,,255628,255628,,255628,,255635,8,400,,,
sequence,flow.Sequence,4_60,2023-05-02T19:38:54.068Z,,0,,,3188,completion,,,,,false,,,,255628,255628,252437,252435,252440,255635,8,400,,,
trial,html.Screen,4_61_0,2023-05-02T19:38:56.972Z,,0,2,,2900.999999999971,response,ISIC_0056608.JPG,,ISIC_4116770.JPG,ISIC_0056608.JPG,false,1,keypress(m),500,258533.00000000003,258531.99999999997,255631,255629.00000000003,255635,258541,8,400,12,,ISIC_4116770.JPG
break,html.Screen,4_61_1,2023-05-02T19:38:56.974Z,,0,,,NaN,,,,,,false,,,,258535.00000000003,258534,,258534,,258541,8,400,,,
break_continue,html.Screen,4_61_2,2023-05-02T19:38:56.974Z,,0,,,NaN,,,,,,false,,,,258535.00000000003,258535.00000000003,,258535.00000000003,,258541,8,400,,,
sequence,flow.Sequence,4_61,2023-05-02T19:38:56.974Z,,0,,,2900.000000000029,completion,,,,,false,,,,258535.00000000003,258535.00000000003,255631,255629.00000000003,255635,258541,8,400,,,
trial,html.Screen,4_62_0,2023-05-02T19:39:00.131Z,,0,2,,3154,response,ISIC_0002578.JPG,,ISIC_1039970.JPG,ISIC_1039970.JPG,false,0,keypress(z),500,261692.99999999997,261692,258538,258535.00000000003,258541,261701,8,400,13,,ISIC_0002578.JPG
break,html.Screen,4_62_1,2023-05-02T19:39:00.133Z,,0,,,NaN,,,,,,false,,,,261694.00000000003,261694.00000000003,,261692.99999999997,,261701,8,400,,,
break_continue,html.Screen,4_62_2,2023-05-02T19:39:00.133Z,,0,,,NaN,,,,,,false,,,,261695,261695,,261695,,261701,8,400,,,
sequence,flow.Sequence,4_62,2023-05-02T19:39:00.133Z,,0,,,3154,completion,,,,,false,,,,261695,261695,258538,258535.00000000003,258541,261701,8,400,,,
trial,html.Screen,4_63_0,2023-05-02T19:39:03.280Z,,0,2,,3144,response,ISIC_8773962.JPG,,ISIC_0058768.JPG,ISIC_8773962.JPG,false,1,keypress(m),500,264843,264842,261698,261695,261701,264851,8,400,14,,ISIC_0058768.JPG
break,html.Screen,4_63_1,2023-05-02T19:39:03.282Z,,0,,,NaN,,,,,,false,,,,264844,264844,,264843,,264851,8,400,,,
break_continue,html.Screen,4_63_2,2023-05-02T19:39:03.282Z,,0,,,NaN,,,,,,false,,,,264844,264844,,264844,,264851,8,400,,,
sequence,flow.Sequence,4_63,2023-05-02T19:39:03.282Z,,0,,,3143,completion,,,,,false,,,,264844,264844,261698,261695,261701,264851,8,400,,,
trial,html.Screen,4_64_0,2023-05-02T19:39:08.812Z,,0,2,,5528,response,ISIC_2868199.JPG,,ISIC_0057539.JPG,ISIC_2868199.JPG,false,1,keypress(m),500,270375,270375,264847,264845,264851,270383,8,400,15,,ISIC_0057539.JPG
break,html.Screen,4_64_1,2023-05-02T19:39:08.814Z,,0,,,NaN,,,,,,false,,,,270377,270377,,270376.00000000006,,270383,8,400,,,
break_continue,html.Screen,4_64_2,2023-05-02T19:39:08.814Z,,0,,,NaN,,,,,,false,,,,270377,270377,,270377,,270383,8,400,,,
sequence,flow.Sequence,4_64,2023-05-02T19:39:08.814Z,,0,,,5526,completion,,,,,false,,,,270377,270377,264847,264845,264851,270383,8,400,,,
trial,html.Screen,4_65_0,2023-05-02T19:39:11.912Z,,0,2,,3096,response,ISIC_0028616.JPG,,ISIC_7008969.JPG,ISIC_0028616.JPG,false,1,keypress(m),500,273475,273475,270379,270377,270383,273483,8,400,16,,ISIC_7008969.JPG
break,html.Screen,4_65_1,2023-05-02T19:39:11.913Z,,0,,,NaN,,,,,,false,,,,273476,273476,,273476,,273483,8,400,,,
break_continue,html.Screen,4_65_2,2023-05-02T19:39:11.913Z,,0,,,NaN,,,,,,false,,,,273477.00000000006,273477.00000000006,,273477.00000000006,,273483,8,400,,,
sequence,flow.Sequence,4_65,2023-05-02T19:39:11.913Z,,0,,,3094.000000000058,completion,,,,,false,,,,273477.00000000006,273477.00000000006,270379,270377,270383,273483,8,400,,,
trial,html.Screen,4_66_0,2023-05-02T19:39:17.643Z,,0,2,,5728,response,ISIC_0027971.JPG,,ISIC_3296136.JPG,ISIC_0027971.JPG,false,1,keypress(m),500,279207,279207,273479,273477.00000000006,273483,279215,8,400,17,,ISIC_3296136.JPG
break,html.Screen,4_66_1,2023-05-02T19:39:17.645Z,,0,,,NaN,,,,,,false,,,,279209,279208,,279208,,279215,8,400,,,
break_continue,html.Screen,4_66_2,2023-05-02T19:39:17.645Z,,0,,,NaN,,,,,,false,,,,279209,279209,,279209,,279215,8,400,,,
sequence,flow.Sequence,4_66,2023-05-02T19:39:17.645Z,,0,,,5726,completion,,,,,false,,,,279209,279209,273479,273477.00000000006,273483,279215,8,400,,,
trial,html.Screen,4_67_0,2023-05-02T19:39:20.944Z,,0,2,,3297,response,ISIC_5746904.JPG,,ISIC_0059412.JPG,ISIC_5746904.JPG,false,1,keypress(m),500,282508,282508,279211,279209,279215,282516,8,400,18,,ISIC_0059412.JPG
break,html.Screen,4_67_1,2023-05-02T19:39:20.945Z,,0,,,NaN,,,,,,false,,,,282509,282509,,282508,,282516,8,400,,,
break_continue,html.Screen,4_67_2,2023-05-02T19:39:20.945Z,,0,,,NaN,,,,,,false,,,,282510,282509,,282509,,282516,8,400,,,
sequence,flow.Sequence,4_67,2023-05-02T19:39:20.946Z,,0,,,3294,completion,,,,,false,,,,282510,282509,279211,279209,279215,282516,8,400,,,
trial,html.Screen,4_68_0,2023-05-02T19:39:23.896Z,,0,2,,2948,response,ISIC_6414435.JPG,,ISIC_1370142.JPG,ISIC_6414435.JPG,false,1,keypress(m),500,285461,285460,282512,282510,282516,285469,8,400,19,,ISIC_1370142.JPG
break,html.Screen,4_68_1,2023-05-02T19:39:23.898Z,,0,,,NaN,,,,,,false,,,,285462,285462,,285461,,285469,8,400,,,
break_continue,html.Screen,4_68_2,2023-05-02T19:39:23.898Z,,0,,,NaN,,,,,,false,,,,285463,285462,,285462,,285469,8,400,,,
sequence,flow.Sequence,4_68,2023-05-02T19:39:23.898Z,,0,,,2946,completion,,,,,false,,,,285463,285462,282512,282510,282516,285469,8,400,,,
trial,html.Screen,4_69_0,2023-05-02T19:39:27.048Z,,0,2,,3147,response,ISIC_2679689.JPG,,ISIC_8635853.JPG,ISIC_2679689.JPG,false,1,keypress(m),500,288612,288612,285465,285463,285469,288621,8,400,20,,ISIC_8635853.JPG
break,html.Screen,4_69_1,2023-05-02T19:39:27.050Z,,0,,,NaN,,,,,,false,,,,288614.00000000006,288614.00000000006,,288613,,288621,8,400,,,
break_continue,html.Screen,4_69_2,2023-05-02T19:39:27.050Z,,0,,,NaN,,,,,,false,,,,288614.00000000006,288614.00000000006,,288614.00000000006,,288621,8,400,,,
sequence,flow.Sequence,4_69,2023-05-02T19:39:27.050Z,,0,,,3145.000000000058,completion,,,,,false,,,,288615,288614.00000000006,285465,285463,285469,288621,8,400,,,
trial,html.Screen,4_70_0,2023-05-02T19:39:29.859Z,,0,2,,2807,response,ISIC_0012068.JPG,,ISIC_7057495.JPG,ISIC_0012068.JPG,false,1,keypress(m),500,291424,291424,288617,288615,288621,291433,8,400,21,,ISIC_7057495.JPG
break,html.Screen,4_70_1,2023-05-02T19:39:29.860Z,,0,,,NaN,,,,,,false,,,,291425,291425,,291424,,291433,8,400,,,
break_continue,html.Screen,4_70_2,2023-05-02T19:39:29.861Z,,0,,,NaN,,,,,,false,,,,291426,291426,,291425,,291433,8,400,,,
sequence,flow.Sequence,4_70,2023-05-02T19:39:29.861Z,,0,,,2805,completion,,,,,false,,,,291426,291426,288617,288615,288621,291433,8,400,,,
trial,html.Screen,4_71_0,2023-05-02T19:39:32.779Z,,0,2,,2914,response,ISIC_0033653.JPG,,ISIC_4642190.JPG,ISIC_4642190.JPG,false,0,keypress(z),500,294344,294343,291429,291426,291433,294352,8,400,22,,ISIC_0033653.JPG
break,html.Screen,4_71_1,2023-05-02T19:39:32.780Z,,0,,,NaN,,,,,,false,,,,294345,294345,,294344,,294352,8,400,,,
break_continue,html.Screen,4_71_2,2023-05-02T19:39:32.781Z,,0,,,NaN,,,,,,false,,,,294346,294345,,294345,,294352,8,400,,,
sequence,flow.Sequence,4_71,2023-05-02T19:39:32.781Z,,0,,,2912,completion,,,,,false,,,,294346,294345,291429,291426,291433,294352,8,400,,,
trial,html.Screen,4_72_0,2023-05-02T19:39:35.848Z,,0,2,,3064.000000000058,response,ISIC_0010379.JPG,,ISIC_0056444.JPG,ISIC_0056444.JPG,false,0,keypress(z),500,297413,297412.00000000006,294348,294346,294352,297421,8,400,23,,ISIC_0010379.JPG
break,html.Screen,4_72_1,2023-05-02T19:39:35.849Z,,0,,,NaN,,,,,,false,,,,297414,297414,,297413,,297421,8,400,,,
break_continue,html.Screen,4_72_2,2023-05-02T19:39:35.850Z,,0,,,NaN,,,,,,false,,,,297414,297414,,297414,,297421,8,400,,,
sequence,flow.Sequence,4_72,2023-05-02T19:39:35.850Z,,0,,,3062,completion,,,,,false,,,,297415,297414,294348,294346,294352,297421,8,400,,,
trial,html.Screen,4_73_0,2023-05-02T19:39:40.214Z,,0,2,,4362,response,ISIC_0072733.JPG,,ISIC_2852805.JPG,ISIC_0072733.JPG,false,1,keypress(m),500,301779,301779,297417,297415,297421,301786,8,400,24,,ISIC_2852805.JPG
break,html.Screen,4_73_1,2023-05-02T19:39:40.215Z,,0,,,NaN,,,,,,false,,,,301780.00000000006,301780.00000000006,,301779,,301786,8,400,,,
break_continue,html.Screen,4_73_2,2023-05-02T19:39:40.215Z,,0,,,NaN,,,,,,false,,,,301780.00000000006,301780.00000000006,,301780.00000000006,,301786,8,400,,,
sequence,flow.Sequence,4_73,2023-05-02T19:39:40.216Z,,0,,,4359.000000000058,completion,,,,,false,,,,301781,301780.00000000006,297417,297415,297421,301786,8,400,,,
trial,html.Screen,4_74_0,2023-05-02T19:39:43.301Z,,0,2,,3082,response,ISIC_0070351.JPG,,ISIC_7766007.JPG,ISIC_0070351.JPG,false,1,keypress(m),500,304866,304865,301783,301781,301786,304874,8,400,25,,ISIC_7766007.JPG
break,html.Screen,4_74_1,2023-05-02T19:39:43.302Z,,0,,,NaN,,,,,,false,,,,304867,304867,,304866,,304874,8,400,,,
break_continue,html.Screen,4_74_2,2023-05-02T19:39:43.303Z,,0,,,NaN,,,,,,false,,,,304867,304867,,304867,,304874,8,400,,,
sequence,flow.Sequence,4_74,2023-05-02T19:39:43.303Z,,0,,,3081,completion,,,,,false,,,,304868,304867,301783,301781,301786,304874,8,400,,,
trial,html.Screen,4_75_0,2023-05-02T19:39:46.023Z,,0,2,,2718,response,ISIC_0026910.JPG,,ISIC_1452314.JPG,ISIC_1452314.JPG,false,0,keypress(z),500,307588,307588,304870,304868,304874,307597,8,400,26,,ISIC_0026910.JPG
break,html.Screen,4_75_1,2023-05-02T19:39:46.024Z,,0,,,NaN,,,,,,false,,,,307589,307589,,307589,,307597,8,400,,,
break_continue,html.Screen,4_75_2,2023-05-02T19:39:46.024Z,,0,,,NaN,,,,,,false,,,,307589,307589,,307589,,307597,8,400,,,
sequence,flow.Sequence,4_75,2023-05-02T19:39:46.025Z,,0,,,2715,completion,,,,,false,,,,307590.00000000006,307589,304870,304868,304874,307597,8,400,,,
trial,html.Screen,4_76_0,2023-05-02T19:39:48.946Z,,0,2,,2917,response,ISIC_7763042.JPG,,ISIC_8211214.JPG,ISIC_7763042.JPG,false,1,keypress(m),500,310511,310510,307593,307590.00000000006,307597,310520,8,400,27,,ISIC_8211214.JPG
break,html.Screen,4_76_1,2023-05-02T19:39:48.947Z,,0,,,NaN,,,,,,false,,,,310512,310512,,310511,,310520,8,400,,,
break_continue,html.Screen,4_76_2,2023-05-02T19:39:48.947Z,,0,,,NaN,,,,,,false,,,,310512,310512,,310512,,310520,8,400,,,
sequence,flow.Sequence,4_76,2023-05-02T19:39:48.948Z,,0,,,2915,completion,,,,,false,,,,310513.00000000006,310512,307593,307590.00000000006,307597,310520,8,400,,,
trial,html.Screen,4_77_0,2023-05-02T19:39:52.078Z,,0,2,,3127,response,ISIC_6469202.JPG,,ISIC_0025735.JPG,ISIC_0025735.JPG,false,0,keypress(z),500,313643,313643,310516,310513.00000000006,310520,313650,8,400,28,,ISIC_6469202.JPG
break,html.Screen,4_77_1,2023-05-02T19:39:52.079Z,,0,,,NaN,,,,,,false,,,,313644,313644,,313644,,313650,8,400,,,
break_continue,html.Screen,4_77_2,2023-05-02T19:39:52.079Z,,0,,,NaN,,,,,,false,,,,313645,313644,,313644,,313650,8,400,,,
sequence,flow.Sequence,4_77,2023-05-02T19:39:52.080Z,,0,,,3124,completion,,,,,false,,,,313645,313644,310516,310513.00000000006,310520,313650,8,400,,,
trial,html.Screen,4_78_0,2023-05-02T19:39:55.124Z,,0,2,,3042,response,ISIC_8163269.JPG,,ISIC_0053555.JPG,ISIC_8163269.JPG,false,1,keypress(m),500,316689,316689,313647,313645,313650,316698,8,400,29,,ISIC_0053555.JPG
break,html.Screen,4_78_1,2023-05-02T19:39:55.125Z,,0,,,NaN,,,,,,false,,,,316690,316690,,316689,,316698,8,400,,,
break_continue,html.Screen,4_78_2,2023-05-02T19:39:55.125Z,,0,,,NaN,,,,,,false,,,,316691.00000000006,316690,,316690,,316698,8,400,,,
sequence,flow.Sequence,4_78,2023-05-02T19:39:55.126Z,,0,,,3040,completion,,,,,false,,,,316691.00000000006,316690,313647,313645,313650,316698,8,400,,,
trial,html.Screen,4_79_0,2023-05-02T19:39:58.106Z,,0,2,,2977,response,ISIC_8214287.JPG,,ISIC_6892561.JPG,ISIC_6892561.JPG,false,0,keypress(z),500,319671,319671,316694,316691.00000000006,316698,319679,8,400,30,,ISIC_8214287.JPG
break,html.Screen,4_79_1,2023-05-02T19:39:58.107Z,,0,,,NaN,,,,,,false,,,,319672,319672,,319671,,319679,8,400,,,
break_continue,html.Screen,4_79_2,2023-05-02T19:39:58.108Z,,0,,,NaN,,,,,,false,,,,319673,319673,,319673,,319679,8,400,,,
sequence,flow.Sequence,4_79,2023-05-02T19:39:58.108Z,,0,,,2975,completion,,,,,false,,,,319673,319673,316694,316691.00000000006,316698,319679,8,400,,,
trial,html.Screen,4_80_0,2023-05-02T19:40:00.913Z,,0,2,,2802.000000000058,response,ISIC_0012395.JPG,,ISIC_0033325.JPG,ISIC_0012395.JPG,false,1,keypress(m),500,322478,322477.00000000006,319675,319673,319679,322486,8,400,31,,ISIC_0033325.JPG
break,html.Screen,4_80_1,2023-05-02T19:40:00.914Z,,0,,,NaN,,,,,,false,,,,322479,322479,,322478,,322486,8,400,,,
break_continue,html.Screen,4_80_2,2023-05-02T19:40:00.914Z,,0,,,NaN,,,,,,false,,,,322479,322479,,322479,,322486,8,400,,,
sequence,flow.Sequence,4_80,2023-05-02T19:40:00.914Z,,0,,,2800,completion,,,,,false,,,,322479,322479,319675,319673,319679,322486,8,400,,,
trial,html.Screen,4_81_0,2023-05-02T19:40:03.821Z,,0,2,,2904,response,ISIC_0033689.JPG,,ISIC_0031717.JPG,ISIC_0033689.JPG,false,1,keypress(m),500,325386,325386,322482,322479,322486,325393,8,400,32,,ISIC_0031717.JPG
break,html.Screen,4_81_1,2023-05-02T19:40:03.822Z,,0,,,NaN,,,,,,false,,,,325387,325387,,325386,,325393,8,400,,,
break_continue,html.Screen,4_81_2,2023-05-02T19:40:03.822Z,,0,,,NaN,,,,,,false,,,,325387,325387,,325387,,325393,8,400,,,
sequence,flow.Sequence,4_81,2023-05-02T19:40:03.822Z,,0,,,2901,completion,,,,,false,,,,325387,325387,322482,322479,322486,325393,8,400,,,
trial,html.Screen,4_82_0,2023-05-02T19:40:06.873Z,,0,2,,3047,response,ISIC_0002693.JPG,,ISIC_5287679.JPG,ISIC_0002693.JPG,false,1,keypress(m),500,328438,328437,325390,325388.00000000006,325393,328445,8,400,33,,ISIC_5287679.JPG
break,html.Screen,4_82_1,2023-05-02T19:40:06.873Z,,0,,,NaN,,,,,,false,,,,328439,328438,,328438,,328445,8,400,,,
break_continue,html.Screen,4_82_2,2023-05-02T19:40:06.874Z,,0,,,NaN,,,,,,false,,,,328439,328439,,328439,,328445,8,400,,,
sequence,flow.Sequence,4_82,2023-05-02T19:40:06.874Z,,0,,,3046,completion,,,,,false,,,,328439,328439,325390,325388.00000000006,325393,328445,8,400,,,
trial,html.Screen,4_83_0,2023-05-02T19:40:09.525Z,,0,2,,2647,response,ISIC_0046618.JPG,,ISIC_8397011.JPG,ISIC_0046618.JPG,false,1,keypress(m),500,331091,331089,328442,328439,328445,331098,8,400,34,,ISIC_8397011.JPG
break,html.Screen,4_83_1,2023-05-02T19:40:09.526Z,,0,,,NaN,,,,,,false,,,,331092,331091,,331091,,331098,8,400,,,
break_continue,html.Screen,4_83_2,2023-05-02T19:40:09.527Z,,0,,,NaN,,,,,,false,,,,331092,331092,,331092,,331098,8,400,,,
sequence,flow.Sequence,4_83,2023-05-02T19:40:09.527Z,,0,,,2647,completion,,,,,false,,,,331092,331092,328442,328439,328445,331098,8,400,,,
trial,html.Screen,4_84_0,2023-05-02T19:40:12.926Z,,0,2,,3396,response,ISIC_0000518.JPG,,ISIC_4843102.JPG,ISIC_0000518.JPG,false,1,keypress(m),500,334491,334490,331094,331092,331098,334499,8,400,35,,ISIC_4843102.JPG
break,html.Screen,4_84_1,2023-05-02T19:40:12.927Z,,0,,,NaN,,,,,,false,,,,334492,334492,,334491,,334499,8,400,,,
break_continue,html.Screen,4_84_2,2023-05-02T19:40:12.927Z,,0,,,NaN,,,,,,false,,,,334492,334492,,334492,,334499,8,400,,,
sequence,flow.Sequence,4_84,2023-05-02T19:40:12.927Z,,0,,,3394,completion,,,,,false,,,,334493,334492,331094,331092,331098,334499,8,400,,,
trial,html.Screen,4_85_0,2023-05-02T19:40:15.938Z,,0,2,,3008,response,ISIC_0030828.JPG,,ISIC_0000151.JPG,ISIC_0030828.JPG,false,1,keypress(m),500,337503,337503,334495,334493,334499,337511,8,400,36,,ISIC_0000151.JPG
break,html.Screen,4_85_1,2023-05-02T19:40:15.939Z,,0,,,NaN,,,,,,false,,,,337505,337504,,337504,,337511,8,400,,,
break_continue,html.Screen,4_85_2,2023-05-02T19:40:15.940Z,,0,,,NaN,,,,,,false,,,,337505,337505,,337505,,337511,8,400,,,
sequence,flow.Sequence,4_85,2023-05-02T19:40:15.940Z,,0,,,3006,completion,,,,,false,,,,337505,337505,334495,334493,334499,337511,8,400,,,
trial,html.Screen,4_86_0,2023-05-02T19:40:19.905Z,,0,2,,3962,response,ISIC_0054459.JPG,,ISIC_0064589.JPG,ISIC_0064589.JPG,false,0,keypress(z),500,341470,341469,337507,337505,337511,341477,8,400,37,,ISIC_0054459.JPG
break,html.Screen,4_86_1,2023-05-02T19:40:19.905Z,,0,,,NaN,,,,,,false,,,,341471,341470,,341470,,341477,8,400,,,
break_continue,html.Screen,4_86_2,2023-05-02T19:40:19.906Z,,0,,,NaN,,,,,,false,,,,341471,341471,,341471,,341477,8,400,,,
sequence,flow.Sequence,4_86,2023-05-02T19:40:19.906Z,,0,,,3960,completion,,,,,false,,,,341471,341471,337507,337505,337511,341477,8,400,,,
trial,html.Screen,4_87_0,2023-05-02T19:40:23.012Z,,0,2,,3103,response,ISIC_4099428.JPG,,ISIC_0010730.JPG,ISIC_4099428.JPG,false,1,keypress(m),500,344577,344576,341473,341471,341477,344585,8,400,38,,ISIC_0010730.JPG
break,html.Screen,4_87_1,2023-05-02T19:40:23.013Z,,0,,,NaN,,,,,,false,,,,344578.00000000006,344578.00000000006,,344577,,344585,8,400,,,
break_continue,html.Screen,4_87_2,2023-05-02T19:40:23.013Z,,0,,,NaN,,,,,,false,,,,344578.00000000006,344578.00000000006,,344578.00000000006,,344585,8,400,,,
sequence,flow.Sequence,4_87,2023-05-02T19:40:23.013Z,,0,,,3101.000000000058,completion,,,,,false,,,,344578.00000000006,344578.00000000006,341473,341471,341477,344585,8,400,,,
trial,html.Screen,4_88_0,2023-05-02T19:40:25.702Z,,0,2,,2686,response,ISIC_5174685.JPG,,ISIC_0014422.JPG,ISIC_5174685.JPG,false,1,keypress(m),500,347268,347267,344581,344578.00000000006,344585,347274,8,400,39,,ISIC_0014422.JPG
break,html.Screen,4_88_1,2023-05-02T19:40:25.703Z,,0,,,NaN,,,,,,false,,,,347268,347268,,347268,,347274,8,400,,,
break_continue,html.Screen,4_88_2,2023-05-02T19:40:25.704Z,,0,,,NaN,,,,,,false,,,,347269,347269,,347269,,347274,8,400,,,
sequence,flow.Sequence,4_88,2023-05-02T19:40:25.704Z,,0,,,2684,completion,,,,,false,,,,347269,347269,344581,344578.00000000006,344585,347274,8,400,,,
trial,html.Screen,4_89_0,2023-05-02T19:40:28.797Z,,0,2,,3090,response,ISIC_5152000.JPG,,ISIC_0026882.JPG,ISIC_5152000.JPG,false,1,keypress(m),500,350362,350361,347271,347269,347274,350369,8,400,40,,ISIC_0026882.JPG
break,html.Screen,4_89_1,2023-05-02T19:40:28.798Z,,0,,,NaN,,,,,,false,,,,350363,350363,,350362,,350369,8,400,,,
break_continue,html.Screen,4_89_2,2023-05-02T19:40:28.798Z,,0,,,NaN,,,,,,false,,,,350363,350363,,350363,,350369,8,400,,,
sequence,flow.Sequence,4_89,2023-05-02T19:40:28.798Z,,0,,,3089,completion,,,,,false,,,,350363,350363,347271,347269,347274,350369,8,400,,,
trial,html.Screen,4_90_0,2023-05-02T19:40:31.853Z,,0,2,,3051.000000000058,response,ISIC_0028512.JPG,,ISIC_0029693.JPG,ISIC_0028512.JPG,false,1,keypress(m),500,353418,353417.00000000006,350366,350363,350369,353426,8,400,41,,ISIC_0029693.JPG
break,html.Screen,4_90_1,2023-05-02T19:40:31.854Z,,0,,,NaN,,,,,,false,,,,353419,353419,,353418,,353426,8,400,,,
break_continue,html.Screen,4_90_2,2023-05-02T19:40:31.854Z,,0,,,NaN,,,,,,false,,,,353420,353419,,353419,,353426,8,400,,,
sequence,flow.Sequence,4_90,2023-05-02T19:40:31.855Z,,0,,,3050,completion,,,,,false,,,,353420,353419,350366,350363,350369,353426,8,400,,,
trial,html.Screen,4_91_0,2023-05-02T19:40:34.921Z,,0,2,,3064,response,ISIC_0032779.JPG,,ISIC_0025754.JPG,ISIC_0032779.JPG,false,1,keypress(m),500,356487,356486,353422,353420,353426,356494,8,400,42,,ISIC_0025754.JPG
break,html.Screen,4_91_1,2023-05-02T19:40:34.923Z,,0,,,NaN,,,,,,false,,,,356488,356488,,356487,,356494,8,400,,,
break_continue,html.Screen,4_91_2,2023-05-02T19:40:34.923Z,,0,,,NaN,,,,,,false,,,,356488,356488,,356488,,356494,8,400,,,
sequence,flow.Sequence,4_91,2023-05-02T19:40:34.923Z,,0,,,3062,completion,,,,,false,,,,356489.00000000006,356488,353422,353420,353426,356494,8,400,,,
trial,html.Screen,4_92_0,2023-05-02T19:40:38.404Z,,0,2,,3479,response,ISIC_7724764.JPG,,ISIC_2740756.JPG,ISIC_2740756.JPG,false,0,keypress(z),500,359969,359969,356490,356489.00000000006,356494,359977,8,400,43,,ISIC_7724764.JPG
break,html.Screen,4_92_1,2023-05-02T19:40:38.406Z,,0,,,NaN,,,,,,false,,,,359971,359970,,359970,,359977,8,400,,,
break_continue,html.Screen,4_92_2,2023-05-02T19:40:38.406Z,,0,,,NaN,,,,,,false,,,,359971,359971,,359971,,359977,8,400,,,
sequence,flow.Sequence,4_92,2023-05-02T19:40:38.406Z,,0,,,3477,completion,,,,,false,,,,359971,359971,356490,356489.00000000006,356494,359977,8,400,,,
trial,html.Screen,4_93_0,2023-05-02T19:40:41.952Z,,0,2,,3543,response,ISIC_6672654.JPG,,ISIC_2879267.JPG,ISIC_2879267.JPG,false,0,keypress(z),500,363518,363517,359974,359972,359977,363524,8,400,44,,ISIC_6672654.JPG
break,html.Screen,4_93_1,2023-05-02T19:40:41.953Z,,0,,,NaN,,,,,,false,,,,363518,363518,,363518,,363524,8,400,,,
break_continue,html.Screen,4_93_2,2023-05-02T19:40:41.954Z,,0,,,NaN,,,,,,false,,,,363519,363519,,363519,,363524,8,400,,,
sequence,flow.Sequence,4_93,2023-05-02T19:40:41.954Z,,0,,,3542,completion,,,,,false,,,,363519,363519,359974,359972,359977,363524,8,400,,,
trial,html.Screen,4_94_0,2023-05-02T19:40:44.937Z,,0,2,,2980.000000000058,response,ISIC_5922588.JPG,,ISIC_2466892.JPG,ISIC_2466892.JPG,false,0,keypress(z),500,366502,366501.00000000006,363521,363519,363524,366510,8,400,45,,ISIC_5922588.JPG
break,html.Screen,4_94_1,2023-05-02T19:40:44.938Z,,0,,,NaN,,,,,,false,,,,366503,366503,,366502,,366510,8,400,,,
break_continue,html.Screen,4_94_2,2023-05-02T19:40:44.938Z,,0,,,NaN,,,,,,false,,,,366503,366503,,366503,,366510,8,400,,,
sequence,flow.Sequence,4_94,2023-05-02T19:40:44.939Z,,0,,,2979,completion,,,,,false,,,,366504,366503,363521,363519,363524,366510,8,400,,,
trial,html.Screen,4_95_0,2023-05-02T19:40:49.143Z,,0,2,,4202,response,ISIC_1870415.JPG,,ISIC_0002162.JPG,ISIC_0002162.JPG,false,0,keypress(z),500,370708,370708,366506,366504,366510,370716,8,400,46,,ISIC_1870415.JPG
break,html.Screen,4_95_1,2023-05-02T19:40:49.144Z,,0,,,NaN,,,,,,false,,,,370710,370709,,370709,,370716,8,400,,,
break_continue,html.Screen,4_95_2,2023-05-02T19:40:49.145Z,,0,,,NaN,,,,,,false,,,,370710,370710,,370710,,370716,8,400,,,
sequence,flow.Sequence,4_95,2023-05-02T19:40:49.145Z,,0,,,4200,completion,,,,,false,,,,370710,370710,366506,366504,366510,370716,8,400,,,
trial,html.Screen,4_96_0,2023-05-02T19:40:52.401Z,,0,2,,3253,response,ISIC_3844404.JPG,,ISIC_0014144.JPG,ISIC_0014144.JPG,false,0,keypress(z),500,373967,373966,370713,370710,370716,373974,8,400,47,,ISIC_3844404.JPG
break,html.Screen,4_96_1,2023-05-02T19:40:52.402Z,,0,,,NaN,,,,,,false,,,,373968,373967,,373967,,373974,8,400,,,
break_continue,html.Screen,4_96_2,2023-05-02T19:40:52.403Z,,0,,,NaN,,,,,,false,,,,373968,373968,,373968,,373974,8,400,,,
sequence,flow.Sequence,4_96,2023-05-02T19:40:52.403Z,,0,,,3252,completion,,,,,false,,,,373968,373968,370713,370710,370716,373974,8,400,,,
trial,html.Screen,4_97_0,2023-05-02T19:40:55.460Z,,0,2,,3054.000000000058,response,ISIC_9754098.JPG,,ISIC_6020636.JPG,ISIC_6020636.JPG,false,0,keypress(z),500,377025.00000000006,377025.00000000006,373971,373968,373974,377033,8,400,48,,ISIC_9754098.JPG
break,html.Screen,4_97_1,2023-05-02T19:40:55.462Z,,0,,,NaN,,,,,,false,,,,377027,377027,,377026,,377033,8,400,,,
break_continue,html.Screen,4_97_2,2023-05-02T19:40:55.462Z,,0,,,NaN,,,,,,false,,,,377027,377027,,377027,,377033,8,400,,,
sequence,flow.Sequence,4_97,2023-05-02T19:40:55.462Z,,0,,,3053,completion,,,,,false,,,,377027,377027,373971,373968,373974,377033,8,400,,,
trial,html.Screen,4_98_0,2023-05-02T19:40:58.736Z,,0,2,,3270,response,ISIC_0032907.JPG,,ISIC_0060585.JPG,ISIC_0032907.JPG,false,1,keypress(m),500,380301,380300,377030,377027,377033,380309,8,400,49,,ISIC_0060585.JPG
break,html.Screen,4_98_1,2023-05-02T19:40:58.737Z,,0,,,NaN,,,,,,false,,,,380302,380302,,380301,,380309,8,400,,,
break_continue,html.Screen,4_98_2,2023-05-02T19:40:58.737Z,,0,,,NaN,,,,,,false,,,,380302,380302,,380302,,380309,8,400,,,
sequence,flow.Sequence,4_98,2023-05-02T19:40:58.737Z,,0,,,3269,completion,,,,,false,,,,380302,380302,377030,377027,377033,380309,8,400,,,
trial,html.Screen,4_99_0,2023-05-02T19:41:02.121Z,,0,2,,3381.000000000058,response,ISIC_0059632.JPG,,ISIC_0032160.JPG,ISIC_0032160.JPG,false,0,keypress(z),500,383686.00000000006,383686.00000000006,380305,380303,380309,383698,8,400,50,,ISIC_0059632.JPG
break,html.Screen,4_99_1,2023-05-02T19:41:07.112Z,,0,,,4995,timeout,,,,,false,,,,388677,388677,383690,383687,383698,388693,8,400,,,
break_continue,html.Screen,4_99_2,2023-05-02T19:41:08.809Z,,0,,,1697,response,,,,,false,continue,keypress(Space),,390374,390374,388677,388678,388693,390384,8,400,,,
sequence,flow.Sequence,4_99,2023-05-02T19:41:08.809Z,,0,,,10065,completion,,,,,false,,,,390374,390374,380305,380303,380309,390384,8,400,,,
trial,html.Screen,4_100_0,2023-05-02T19:41:11.690Z,,0,3,,2878,response,ISIC_0029216.JPG,,ISIC_0199116.JPG,ISIC_0199116.JPG,false,0,keypress(z),500,393255,393255,390377,390374,390384,393263,8,400,1,,ISIC_0029216.JPG
break,html.Screen,4_100_1,2023-05-02T19:41:11.691Z,,0,,,NaN,,,,,,false,,,,393256,393256,,393255,,393263,8,400,,,
break_continue,html.Screen,4_100_2,2023-05-02T19:41:11.691Z,,0,,,NaN,,,,,,false,,,,393256,393256,,393256,,393263,8,400,,,
sequence,flow.Sequence,4_100,2023-05-02T19:41:11.691Z,,0,,,2872,completion,,,,,false,,,,393257,393256,390377,390374,390384,393263,8,400,,,
trial,html.Screen,4_101_0,2023-05-02T19:41:14.457Z,,0,3,,2763,response,ISIC_1020369.JPG,,ISIC_0058046.JPG,ISIC_1020369.JPG,false,1,keypress(m),500,396022,396022,393259,393257,393263,396030,8,400,2,,ISIC_0058046.JPG
break,html.Screen,4_101_1,2023-05-02T19:41:14.458Z,,0,,,NaN,,,,,,false,,,,396023,396023,,396023,,396030,8,400,,,
break_continue,html.Screen,4_101_2,2023-05-02T19:41:14.459Z,,0,,,NaN,,,,,,false,,,,396024,396024,,396024,,396030,8,400,,,
sequence,flow.Sequence,4_101,2023-05-02T19:41:14.459Z,,0,,,2761,completion,,,,,false,,,,396024,396024,393259,393257,393263,396030,8,400,,,
trial,html.Screen,4_102_0,2023-05-02T19:41:17.083Z,,0,3,,2621,response,ISIC_7914631.JPG,,ISIC_5483119.JPG,ISIC_7914631.JPG,false,1,keypress(m),500,398648,398648,396027,396024,396030,398657,8,400,3,,ISIC_5483119.JPG
break,html.Screen,4_102_1,2023-05-02T19:41:17.084Z,,0,,,NaN,,,,,,false,,,,398650.00000000006,398649,,398649,,398657,8,400,,,
break_continue,html.Screen,4_102_2,2023-05-02T19:41:17.085Z,,0,,,NaN,,,,,,false,,,,398650.00000000006,398650.00000000006,,398650.00000000006,,398657,8,400,,,
sequence,flow.Sequence,4_102,2023-05-02T19:41:17.085Z,,0,,,2620.000000000058,completion,,,,,false,,,,398650.00000000006,398650.00000000006,396027,396024,396030,398657,8,400,,,
trial,html.Screen,4_103_0,2023-05-02T19:41:19.916Z,,0,3,,2828,response,ISIC_4692454.JPG,,ISIC_0331124.JPG,ISIC_4692454.JPG,false,1,keypress(m),500,401481,401481,398653,398650.00000000006,398657,401488,8,400,4,,ISIC_0331124.JPG
break,html.Screen,4_103_1,2023-05-02T19:41:19.917Z,,0,,,NaN,,,,,,false,,,,401482,401482,,401481,,401488,8,400,,,
break_continue,html.Screen,4_103_2,2023-05-02T19:41:19.917Z,,0,,,NaN,,,,,,false,,,,401482,401482,,401482,,401488,8,400,,,
sequence,flow.Sequence,4_103,2023-05-02T19:41:19.917Z,,0,,,2825,completion,,,,,false,,,,401482,401482,398653,398650.00000000006,398657,401488,8,400,,,
trial,html.Screen,4_104_0,2023-05-02T19:41:22.956Z,,0,3,,3035,response,ISIC_0033309.JPG,,ISIC_0071906.JPG,ISIC_0033309.JPG,false,1,keypress(m),500,404521,404520,401485,401482,401488,404528,8,400,5,,ISIC_0071906.JPG
break,html.Screen,4_104_1,2023-05-02T19:41:22.957Z,,0,,,NaN,,,,,,false,,,,404522,404522,,404521,,404528,8,400,,,
break_continue,html.Screen,4_104_2,2023-05-02T19:41:22.957Z,,0,,,NaN,,,,,,false,,,,404522,404522,,404522,,404528,8,400,,,
sequence,flow.Sequence,4_104,2023-05-02T19:41:22.957Z,,0,,,3034,completion,,,,,false,,,,404523,404522,401485,401482,401488,404528,8,400,,,
trial,html.Screen,4_105_0,2023-05-02T19:41:25.767Z,,0,3,,2806,response,ISIC_8140072.JPG,,ISIC_9409255.JPG,ISIC_8140072.JPG,false,1,keypress(m),500,407332,407331,404525,404523,404528,407338,8,400,6,,ISIC_9409255.JPG
break,html.Screen,4_105_1,2023-05-02T19:41:25.768Z,,0,,,NaN,,,,,,false,,,,407333,407333,,407332,,407338,8,400,,,
break_continue,html.Screen,4_105_2,2023-05-02T19:41:25.768Z,,0,,,NaN,,,,,,false,,,,407333,407333,,407333,,407338,8,400,,,
sequence,flow.Sequence,4_105,2023-05-02T19:41:25.768Z,,0,,,2805,completion,,,,,false,,,,407333,407333,404525,404523,404528,407338,8,400,,,
trial,html.Screen,4_106_0,2023-05-02T19:41:28.566Z,,0,3,,2796,response,ISIC_0025015.JPG,,ISIC_0032244.JPG,ISIC_0025015.JPG,false,1,keypress(m),500,410132,410131,407335,407333,407338,410138,8,400,7,,ISIC_0032244.JPG
break,html.Screen,4_106_1,2023-05-02T19:41:28.568Z,,0,,,NaN,,,,,,false,,,,410133,410133,,410132,,410138,8,400,,,
break_continue,html.Screen,4_106_2,2023-05-02T19:41:28.568Z,,0,,,NaN,,,,,,false,,,,410133,410133,,410133,,410138,8,400,,,
sequence,flow.Sequence,4_106,2023-05-02T19:41:28.568Z,,0,,,2795,completion,,,,,false,,,,410133,410133,407335,407333,407338,410138,8,400,,,
trial,html.Screen,4_107_0,2023-05-02T19:41:31.151Z,,0,3,,2580.000000000058,response,ISIC_0055022.JPG,,ISIC_0011794.JPG,ISIC_0055022.JPG,false,1,keypress(m),500,412716,412715.00000000006,410135,410133,410138,412723,8,400,8,,ISIC_0011794.JPG
break,html.Screen,4_107_1,2023-05-02T19:41:31.152Z,,0,,,NaN,,,,,,false,,,,412717,412717,,412716,,412723,8,400,,,
break_continue,html.Screen,4_107_2,2023-05-02T19:41:31.152Z,,0,,,NaN,,,,,,false,,,,412717,412717,,412717,,412723,8,400,,,
sequence,flow.Sequence,4_107,2023-05-02T19:41:31.152Z,,0,,,2579,completion,,,,,false,,,,412718,412717,410135,410133,410138,412723,8,400,,,
trial,html.Screen,4_108_0,2023-05-02T19:41:34.033Z,,0,3,,2877.000000000058,response,ISIC_0055826.JPG,,ISIC_1004416.JPG,ISIC_0055826.JPG,false,1,keypress(m),500,415598,415597.00000000006,412720,412718,412723,415605,8,400,9,,ISIC_1004416.JPG
break,html.Screen,4_108_1,2023-05-02T19:41:34.033Z,,0,,,NaN,,,,,,false,,,,415599,415598,,415598,,415605,8,400,,,
break_continue,html.Screen,4_108_2,2023-05-02T19:41:34.034Z,,0,,,NaN,,,,,,false,,,,415599,415599,,415599,,415605,8,400,,,
sequence,flow.Sequence,4_108,2023-05-02T19:41:34.034Z,,0,,,2876,completion,,,,,false,,,,415599,415599,412720,412718,412723,415605,8,400,,,
trial,html.Screen,4_109_0,2023-05-02T19:41:38.365Z,,0,3,,4329,response,ISIC_6954782.JPG,,ISIC_4978697.JPG,ISIC_4978697.JPG,false,0,keypress(z),500,419931,419930,415601,415599,415605,419939,8,400,10,,ISIC_6954782.JPG
break,html.Screen,4_109_1,2023-05-02T19:41:38.367Z,,0,,,NaN,,,,,,false,,,,419932,419931,,419931,,419939,8,400,,,
break_continue,html.Screen,4_109_2,2023-05-02T19:41:38.367Z,,0,,,NaN,,,,,,false,,,,419933,419932,,419932,,419939,8,400,,,
sequence,flow.Sequence,4_109,2023-05-02T19:41:38.368Z,,0,,,4327,completion,,,,,false,,,,419933,419932,415601,415599,415605,419939,8,400,,,
trial,html.Screen,4_110_0,2023-05-02T19:41:41.316Z,,0,3,,2945,response,ISIC_1955991.JPG,,ISIC_0005377.JPG,ISIC_0005377.JPG,false,0,keypress(z),500,422881,422880,419935,419933,419939,422888,8,400,11,,ISIC_1955991.JPG
break,html.Screen,4_110_1,2023-05-02T19:41:41.317Z,,0,,,NaN,,,,,,false,,,,422882,422882,,422881,,422888,8,400,,,
break_continue,html.Screen,4_110_2,2023-05-02T19:41:41.317Z,,0,,,NaN,,,,,,false,,,,422882,422882,,422882,,422888,8,400,,,
sequence,flow.Sequence,4_110,2023-05-02T19:41:41.317Z,,0,,,2943,completion,,,,,false,,,,422883,422882,419935,419933,419939,422888,8,400,,,
trial,html.Screen,4_111_0,2023-05-02T19:41:46.437Z,,0,3,,5117,response,ISIC_3377082.JPG,,ISIC_0014059.JPG,ISIC_3377082.JPG,false,1,keypress(m),500,428003,428002,422885,422883,422888,428010,8,400,12,,ISIC_0014059.JPG
break,html.Screen,4_111_1,2023-05-02T19:41:46.439Z,,0,,,NaN,,,,,,false,,,,428004,428004,,428003,,428010,8,400,,,
break_continue,html.Screen,4_111_2,2023-05-02T19:41:46.439Z,,0,,,NaN,,,,,,false,,,,428005,428004,,428004,,428010,8,400,,,
sequence,flow.Sequence,4_111,2023-05-02T19:41:46.440Z,,0,,,5116,completion,,,,,false,,,,428005,428004,422885,422883,422888,428010,8,400,,,
trial,html.Screen,4_112_0,2023-05-02T19:41:49.555Z,,0,3,,3113,response,ISIC_5644242.JPG,,ISIC_0069486.JPG,ISIC_0069486.JPG,false,0,keypress(z),500,431120,431120,428007,428005,428010,431128,8,400,13,,ISIC_5644242.JPG
break,html.Screen,4_112_1,2023-05-02T19:41:49.556Z,,0,,,NaN,,,,,,false,,,,431122,431121,,431121,,431128,8,400,,,
break_continue,html.Screen,4_112_2,2023-05-02T19:41:49.557Z,,0,,,NaN,,,,,,false,,,,431122,431122,,431122,,431128,8,400,,,
sequence,flow.Sequence,4_112,2023-05-02T19:41:49.557Z,,0,,,3112,completion,,,,,false,,,,431122,431122,428007,428005,428010,431128,8,400,,,
trial,html.Screen,4_113_0,2023-05-02T19:41:52.881Z,,0,3,,3321,response,ISIC_6124481.JPG,,ISIC_5578239.JPG,ISIC_5578239.JPG,false,0,keypress(z),500,434446,434446,431125,431122,431128,434454,8,400,14,,ISIC_6124481.JPG
break,html.Screen,4_113_1,2023-05-02T19:41:52.882Z,,0,,,NaN,,,,,,false,,,,434448.00000000006,434447,,434447,,434454,8,400,,,
break_continue,html.Screen,4_113_2,2023-05-02T19:41:52.883Z,,0,,,NaN,,,,,,false,,,,434448.00000000006,434448.00000000006,,434448.00000000006,,434454,8,400,,,
sequence,flow.Sequence,4_113,2023-05-02T19:41:52.883Z,,0,,,3320.000000000058,completion,,,,,false,,,,434448.00000000006,434448.00000000006,431125,431122,431128,434454,8,400,,,
trial,html.Screen,4_114_0,2023-05-02T19:41:56.268Z,,0,3,,3382,response,ISIC_0029383.JPG,,ISIC_0066223.JPG,ISIC_0066223.JPG,false,0,keypress(z),500,437833,437832,434450,434448.00000000006,434454,437840,8,400,15,,ISIC_0029383.JPG
break,html.Screen,4_114_1,2023-05-02T19:41:56.269Z,,0,,,NaN,,,,,,false,,,,437834,437834,,437833,,437840,8,400,,,
break_continue,html.Screen,4_114_2,2023-05-02T19:41:56.269Z,,0,,,NaN,,,,,,false,,,,437834,437834,,437834,,437840,8,400,,,
sequence,flow.Sequence,4_114,2023-05-02T19:41:56.269Z,,0,,,3380,completion,,,,,false,,,,437834,437834,434450,434448.00000000006,434454,437840,8,400,,,
trial,html.Screen,4_115_0,2023-05-02T19:41:59.549Z,,0,3,,3277.000000000058,response,ISIC_0066289.JPG,,ISIC_0012883.JPG,ISIC_0012883.JPG,false,0,keypress(z),500,441115,441114.00000000006,437837,437834,437840,441123,8,400,16,,ISIC_0066289.JPG
break,html.Screen,4_115_1,2023-05-02T19:41:59.550Z,,0,,,NaN,,,,,,false,,,,441115,441115,,441115,,441123,8,400,,,
break_continue,html.Screen,4_115_2,2023-05-02T19:41:59.551Z,,0,,,NaN,,,,,,false,,,,441116,441116,,441116,,441123,8,400,,,
sequence,flow.Sequence,4_115,2023-05-02T19:41:59.551Z,,0,,,3276,completion,,,,,false,,,,441116,441116,437837,437834,437840,441123,8,400,,,
trial,html.Screen,4_116_0,2023-05-02T19:42:03.479Z,,0,3,,3925,response,ISIC_6280523.JPG,,ISIC_6209119.JPG,ISIC_6209119.JPG,false,0,keypress(z),500,445045,445044,441119,441116,441123,445052,8,400,17,,ISIC_6280523.JPG
break,html.Screen,4_116_1,2023-05-02T19:42:03.480Z,,0,,,NaN,,,,,,false,,,,445045,445045,,445045,,445052,8,400,,,
break_continue,html.Screen,4_116_2,2023-05-02T19:42:03.481Z,,0,,,NaN,,,,,,false,,,,445046,445046,,445046,,445052,8,400,,,
sequence,flow.Sequence,4_116,2023-05-02T19:42:03.481Z,,0,,,3923,completion,,,,,false,,,,445046,445046,441119,441116,441123,445052,8,400,,,
trial,html.Screen,4_117_0,2023-05-02T19:42:07.570Z,,0,3,,4086,response,ISIC_6118204.JPG,,ISIC_7462953.JPG,ISIC_6118204.JPG,false,1,keypress(m),500,449135,449134,445048,445046,445052,449143,8,400,18,,ISIC_7462953.JPG
break,html.Screen,4_117_1,2023-05-02T19:42:07.571Z,,0,,,NaN,,,,,,false,,,,449136,449136,,449135,,449143,8,400,,,
break_continue,html.Screen,4_117_2,2023-05-02T19:42:07.571Z,,0,,,NaN,,,,,,false,,,,449136,449136,,449136,,449143,8,400,,,
sequence,flow.Sequence,4_117,2023-05-02T19:42:07.571Z,,0,,,4084,completion,,,,,false,,,,449136,449136,445048,445046,445052,449143,8,400,,,
trial,html.Screen,4_118_0,2023-05-02T19:42:10.529Z,,0,3,,2954,response,ISIC_0026548.JPG,,ISIC_0033831.JPG,ISIC_0026548.JPG,false,1,keypress(m),500,452094,452093,449139,449137,449143,452101,8,400,19,,ISIC_0033831.JPG
break,html.Screen,4_118_1,2023-05-02T19:42:10.530Z,,0,,,NaN,,,,,,false,,,,452095,452095,,452094,,452101,8,400,,,
break_continue,html.Screen,4_118_2,2023-05-02T19:42:10.530Z,,0,,,NaN,,,,,,false,,,,452095,452095,,452095,,452101,8,400,,,
sequence,flow.Sequence,4_118,2023-05-02T19:42:10.530Z,,0,,,2952,completion,,,,,false,,,,452095,452095,449139,449136,449143,452101,8,400,,,
trial,html.Screen,4_119_0,2023-05-02T19:42:13.633Z,,0,3,,3100,response,ISIC_8006094.JPG,,ISIC_7883190.JPG,ISIC_8006094.JPG,false,1,keypress(m),500,455198.00000000006,455197,452097,452095,452101,455205,8,400,20,,ISIC_7883190.JPG
break,html.Screen,4_119_1,2023-05-02T19:42:13.634Z,,0,,,NaN,,,,,,false,,,,455199,455199,,455198.00000000006,,455205,8,400,,,
break_continue,html.Screen,4_119_2,2023-05-02T19:42:13.634Z,,0,,,NaN,,,,,,false,,,,455199,455199,,455199,,455205,8,400,,,
sequence,flow.Sequence,4_119,2023-05-02T19:42:13.634Z,,0,,,3098,completion,,,,,false,,,,455199,455199,452097,452095,452101,455205,8,400,,,
trial,html.Screen,4_120_0,2023-05-02T19:42:16.446Z,,0,3,,2808,response,ISIC_0010901.JPG,,ISIC_4494516.JPG,ISIC_4494516.JPG,false,0,keypress(z),500,458011,458010,455202,455199,455205,458019,8,400,21,,ISIC_0010901.JPG
break,html.Screen,4_120_1,2023-05-02T19:42:16.447Z,,0,,,NaN,,,,,,false,,,,458012,458012,,458011,,458019,8,400,,,
break_continue,html.Screen,4_120_2,2023-05-02T19:42:16.447Z,,0,,,NaN,,,,,,false,,,,458013.00000000006,458012,,458012,,458019,8,400,,,
sequence,flow.Sequence,4_120,2023-05-02T19:42:16.448Z,,0,,,2807,completion,,,,,false,,,,458013.00000000006,458012,455202,455199,455205,458019,8,400,,,
trial,html.Screen,4_121_0,2023-05-02T19:42:19.345Z,,0,3,,2895,response,ISIC_9709594.JPG,,ISIC_0072976.JPG,ISIC_9709594.JPG,false,1,keypress(m),500,460910,460910,458015,458013.00000000006,458019,460918,8,400,22,,ISIC_0072976.JPG
break,html.Screen,4_121_1,2023-05-02T19:42:19.346Z,,0,,,NaN,,,,,,false,,,,460911,460911,,460911,,460918,8,400,,,
break_continue,html.Screen,4_121_2,2023-05-02T19:42:19.347Z,,0,,,NaN,,,,,,false,,,,460912.00000000006,460912.00000000006,,460912.00000000006,,460918,8,400,,,
sequence,flow.Sequence,4_121,2023-05-02T19:42:19.347Z,,0,,,2893.000000000058,completion,,,,,false,,,,460912.00000000006,460912.00000000006,458015,458013.00000000006,458019,460918,8,400,,,
trial,html.Screen,4_122_0,2023-05-02T19:42:25.012Z,,0,3,,5663,response,ISIC_4325452.JPG,,ISIC_6774326.JPG,ISIC_6774326.JPG,false,0,keypress(z),500,466577,466577,460914,460912.00000000006,460918,466585,8,400,23,,ISIC_4325452.JPG
break,html.Screen,4_122_1,2023-05-02T19:42:25.013Z,,0,,,NaN,,,,,,false,,,,466578.00000000006,466578.00000000006,,466578.00000000006,,466585,8,400,,,
break_continue,html.Screen,4_122_2,2023-05-02T19:42:25.013Z,,0,,,NaN,,,,,,false,,,,466579,466578.00000000006,,466578.00000000006,,466585,8,400,,,
sequence,flow.Sequence,4_122,2023-05-02T19:42:25.014Z,,0,,,5660.000000000058,completion,,,,,false,,,,466579,466578.00000000006,460914,460912.00000000006,460918,466585,8,400,,,
trial,html.Screen,4_123_0,2023-05-02T19:42:28.514Z,,0,3,,3497,response,ISIC_8773685.JPG,,ISIC_2867416.JPG,ISIC_8773685.JPG,false,1,keypress(m),500,470080,470079,466582,466579,466585,470087,8,400,24,,ISIC_2867416.JPG
break,html.Screen,4_123_1,2023-05-02T19:42:28.516Z,,0,,,NaN,,,,,,false,,,,470081,470081,,470080,,470087,8,400,,,
break_continue,html.Screen,4_123_2,2023-05-02T19:42:28.516Z,,0,,,NaN,,,,,,false,,,,470081,470081,,470081,,470087,8,400,,,
sequence,flow.Sequence,4_123,2023-05-02T19:42:28.516Z,,0,,,3496,completion,,,,,false,,,,470082,470081,466582,466579,466585,470087,8,400,,,
trial,html.Screen,4_124_0,2023-05-02T19:42:31.745Z,,0,3,,3227,response,ISIC_0011013.JPG,,ISIC_0014173.JPG,ISIC_0011013.JPG,false,1,keypress(m),500,473310,473310,470083,470082,470087,473318,8,400,25,,ISIC_0014173.JPG
break,html.Screen,4_124_1,2023-05-02T19:42:31.746Z,,0,,,NaN,,,,,,false,,,,473311.00000000006,473311.00000000006,,473311.00000000006,,473318,8,400,,,
break_continue,html.Screen,4_124_2,2023-05-02T19:42:31.746Z,,0,,,NaN,,,,,,false,,,,473311.00000000006,473311.00000000006,,473311.00000000006,,473318,8,400,,,
sequence,flow.Sequence,4_124,2023-05-02T19:42:31.746Z,,0,,,3224.000000000058,completion,,,,,false,,,,473312,473311.00000000006,470083,470082,470087,473318,8,400,,,
trial,html.Screen,4_125_0,2023-05-02T19:42:36.445Z,,0,3,,4696,response,ISIC_0016123.JPG,,ISIC_0030546.JPG,ISIC_0016123.JPG,false,1,keypress(m),500,478010,478010,473314,473312,473318,478019,8,400,26,,ISIC_0030546.JPG
break,html.Screen,4_125_1,2023-05-02T19:42:36.446Z,,0,,,NaN,,,,,,false,,,,478011,478011,,478010,,478019,8,400,,,
break_continue,html.Screen,4_125_2,2023-05-02T19:42:36.446Z,,0,,,NaN,,,,,,false,,,,478011,478011,,478011,,478019,8,400,,,
sequence,flow.Sequence,4_125,2023-05-02T19:42:36.446Z,,0,,,4693,completion,,,,,false,,,,478012,478011,473314,473312,473318,478019,8,400,,,
trial,html.Screen,4_126_0,2023-05-02T19:42:40.053Z,,0,3,,3602,response,ISIC_4527661.JPG,,ISIC_0071457.JPG,ISIC_4527661.JPG,false,1,keypress(m),500,481618,481617,478015,478012,478019,481625,8,400,27,,ISIC_0071457.JPG
break,html.Screen,4_126_1,2023-05-02T19:42:40.054Z,,0,,,NaN,,,,,,false,,,,481619,481618,,481618,,481625,8,400,,,
break_continue,html.Screen,4_126_2,2023-05-02T19:42:40.054Z,,0,,,NaN,,,,,,false,,,,481619,481619,,481619,,481625,8,400,,,
sequence,flow.Sequence,4_126,2023-05-02T19:42:40.054Z,,0,,,3600,completion,,,,,false,,,,481619,481619,478015,478012,478019,481625,8,400,,,
trial,html.Screen,4_127_0,2023-05-02T19:42:43.145Z,,0,3,,3088,response,ISIC_0046597.JPG,,ISIC_0024675.JPG,ISIC_0046597.JPG,false,1,keypress(m),500,484710.00000000006,484709,481621,481619,481625,484717,8,400,28,,ISIC_0024675.JPG
break,html.Screen,4_127_1,2023-05-02T19:42:43.146Z,,0,,,NaN,,,,,,false,,,,484711,484711,,484711,,484717,8,400,,,
break_continue,html.Screen,4_127_2,2023-05-02T19:42:43.146Z,,0,,,NaN,,,,,,false,,,,484711,484711,,484711,,484717,8,400,,,
sequence,flow.Sequence,4_127,2023-05-02T19:42:43.146Z,,0,,,3086,completion,,,,,false,,,,484712,484711,481621,481619,481625,484717,8,400,,,
trial,html.Screen,4_128_0,2023-05-02T19:42:45.544Z,,0,3,,2395.000000000058,response,ISIC_7630831.JPG,,ISIC_0016013.JPG,ISIC_0016013.JPG,false,0,keypress(z),500,487109.00000000006,487109.00000000006,484714,484712,484717,487117,8,400,29,,ISIC_7630831.JPG
break,html.Screen,4_128_1,2023-05-02T19:42:45.545Z,,0,,,NaN,,,,,,false,,,,487110,487110,,487109.00000000006,,487117,8,400,,,
break_continue,html.Screen,4_128_2,2023-05-02T19:42:45.545Z,,0,,,NaN,,,,,,false,,,,487110,487110,,487110,,487117,8,400,,,
sequence,flow.Sequence,4_128,2023-05-02T19:42:45.545Z,,0,,,2393,completion,,,,,false,,,,487110,487110,484714,484712,484717,487117,8,400,,,
trial,html.Screen,4_129_0,2023-05-02T19:42:47.883Z,,0,3,,2333,response,ISIC_9058340.JPG,,ISIC_2772066.JPG,ISIC_9058340.JPG,false,1,keypress(m),500,489448.00000000006,489447,487114,487111,487117,489456,8,400,30,,ISIC_2772066.JPG
break,html.Screen,4_129_1,2023-05-02T19:42:47.884Z,,0,,,NaN,,,,,,false,,,,489449,489449,,489448.00000000006,,489456,8,400,,,
break_continue,html.Screen,4_129_2,2023-05-02T19:42:47.884Z,,0,,,NaN,,,,,,false,,,,489450,489449,,489449,,489456,8,400,,,
sequence,flow.Sequence,4_129,2023-05-02T19:42:47.884Z,,0,,,2332,completion,,,,,false,,,,489450,489449,487114,487111,487117,489456,8,400,,,
trial,html.Screen,4_130_0,2023-05-02T19:42:51.043Z,,0,3,,3156,response,ISIC_0000291.JPG,,ISIC_0024900.JPG,ISIC_0000291.JPG,false,1,keypress(m),500,492608,492608,489452,489450,489456,492616,8,400,31,,ISIC_0024900.JPG
break,html.Screen,4_130_1,2023-05-02T19:42:51.044Z,,0,,,NaN,,,,,,false,,,,492609.00000000006,492609.00000000006,,492609.00000000006,,492616,8,400,,,
break_continue,html.Screen,4_130_2,2023-05-02T19:42:51.045Z,,0,,,NaN,,,,,,false,,,,492610,492610,,492610,,492616,8,400,,,
sequence,flow.Sequence,4_130,2023-05-02T19:42:51.045Z,,0,,,3154,completion,,,,,false,,,,492610,492610,489452,489450,489456,492616,8,400,,,
trial,html.Screen,4_131_0,2023-05-02T19:42:55.292Z,,0,3,,4245,response,ISIC_0059866.JPG,,ISIC_0030047.JPG,ISIC_0059866.JPG,false,1,keypress(m),500,496857,496857,492612,492610,492616,496869,8,400,32,,ISIC_0030047.JPG
break,html.Screen,4_131_1,2023-05-02T19:42:55.293Z,,0,,,NaN,,,,,,false,,,,496858,496858,,496858,,496869,8,400,,,
break_continue,html.Screen,4_131_2,2023-05-02T19:42:55.294Z,,0,,,NaN,,,,,,false,,,,496859.00000000006,496859.00000000006,,496858,,496869,8,400,,,
sequence,flow.Sequence,4_131,2023-05-02T19:42:55.294Z,,0,,,4243.000000000058,completion,,,,,false,,,,496859.00000000006,496859.00000000006,492612,492610,492616,496869,8,400,,,
trial,html.Screen,4_132_0,2023-05-02T19:42:58.400Z,,0,3,,3103,response,ISIC_4138377.JPG,,ISIC_0067521.JPG,ISIC_4138377.JPG,false,1,keypress(m),500,499965.00000000006,499964,496861,496859.00000000006,496869,499973,8,400,33,,ISIC_0067521.JPG
break,html.Screen,4_132_1,2023-05-02T19:42:58.402Z,,0,,,NaN,,,,,,false,,,,499967,499966,,499966,,499973,8,400,,,
break_continue,html.Screen,4_132_2,2023-05-02T19:42:58.402Z,,0,,,NaN,,,,,,false,,,,499967,499967,,499967,,499973,8,400,,,
sequence,flow.Sequence,4_132,2023-05-02T19:42:58.402Z,,0,,,3098,completion,,,,,false,,,,499967,499967,496861,496859.00000000006,496869,499973,8,400,,,
trial,html.Screen,4_133_0,2023-05-02T19:43:01.631Z,,0,3,,3225,response,ISIC_0011717.JPG,,ISIC_0032181.JPG,ISIC_0011717.JPG,false,1,keypress(m),500,503196,503195,499970,499967,499973,503203,8,400,34,,ISIC_0032181.JPG
break,html.Screen,4_133_1,2023-05-02T19:43:01.631Z,,0,,,NaN,,,,,,false,,,,503197,503196,,503196,,503203,8,400,,,
break_continue,html.Screen,4_133_2,2023-05-02T19:43:01.632Z,,0,,,NaN,,,,,,false,,,,503197,503197,,503197,,503203,8,400,,,
sequence,flow.Sequence,4_133,2023-05-02T19:43:01.632Z,,0,,,3224,completion,,,,,false,,,,503197,503197,499970,499967,499973,503203,8,400,,,
trial,html.Screen,4_134_0,2023-05-02T19:43:04.645Z,,0,3,,3011.000000000058,response,ISIC_0011130.JPG,,ISIC_0069705.JPG,ISIC_0011130.JPG,false,1,keypress(m),500,506211,506210.00000000006,503199,503197,503203,506219,8,400,35,,ISIC_0069705.JPG
break,html.Screen,4_134_1,2023-05-02T19:43:04.646Z,,0,,,NaN,,,,,,false,,,,506212,506211,,506211,,506219,8,400,,,
break_continue,html.Screen,4_134_2,2023-05-02T19:43:04.647Z,,0,,,NaN,,,,,,false,,,,506212,506212,,506212,,506219,8,400,,,
sequence,flow.Sequence,4_134,2023-05-02T19:43:04.647Z,,0,,,3009,completion,,,,,false,,,,506212,506212,503199,503197,503203,506219,8,400,,,
trial,html.Screen,4_135_0,2023-05-02T19:43:07.443Z,,0,3,,2793.000000000058,response,ISIC_0009886.JPG,,ISIC_9837030.JPG,ISIC_9837030.JPG,false,0,keypress(z),500,509008.00000000006,509008.00000000006,506215,506212,506219,509016,8,400,36,,ISIC_0009886.JPG
break,html.Screen,4_135_1,2023-05-02T19:43:07.444Z,,0,,,NaN,,,,,,false,,,,509009,509009,,509009,,509016,8,400,,,
break_continue,html.Screen,4_135_2,2023-05-02T19:43:07.445Z,,0,,,NaN,,,,,,false,,,,509010,509010,,509010,,509016,8,400,,,
sequence,flow.Sequence,4_135,2023-05-02T19:43:07.445Z,,0,,,2791,completion,,,,,false,,,,509010,509010,506215,506212,506219,509016,8,400,,,
trial,html.Screen,4_136_0,2023-05-02T19:43:10.441Z,,0,3,,2994,response,ISIC_0010958.JPG,,ISIC_3474681.JPG,ISIC_3474681.JPG,false,0,keypress(z),500,512006,512006,509012,509010,509016,512014,8,400,37,,ISIC_0010958.JPG
break,html.Screen,4_136_1,2023-05-02T19:43:10.442Z,,0,,,NaN,,,,,,false,,,,512007.00000000006,512007.00000000006,,512006,,512014,8,400,,,
break_continue,html.Screen,4_136_2,2023-05-02T19:43:10.443Z,,0,,,NaN,,,,,,false,,,,512008.00000000006,512007.00000000006,,512007.00000000006,,512014,8,400,,,
sequence,flow.Sequence,4_136,2023-05-02T19:43:10.443Z,,0,,,2991.000000000058,completion,,,,,false,,,,512008.00000000006,512007.00000000006,509012,509010,509016,512014,8,400,,,
trial,html.Screen,4_137_0,2023-05-02T19:43:13.394Z,,0,3,,2946.999999999942,response,ISIC_1080647.JPG,,ISIC_9141065.JPG,ISIC_9141065.JPG,false,0,keypress(z),500,514959.00000000006,514957.99999999994,512011,512008.00000000006,512014,514965,8,400,38,,ISIC_1080647.JPG
break,html.Screen,4_137_1,2023-05-02T19:43:13.394Z,,0,,,NaN,,,,,,false,,,,514960.00000000006,514959.00000000006,,514959.00000000006,,514965,8,400,,,
break_continue,html.Screen,4_137_2,2023-05-02T19:43:13.395Z,,0,,,NaN,,,,,,false,,,,514960.00000000006,514960.00000000006,,514960.00000000006,,514965,8,400,,,
sequence,flow.Sequence,4_137,2023-05-02T19:43:13.395Z,,0,,,2946.000000000058,completion,,,,,false,,,,514960.00000000006,514960.00000000006,512011,512008.00000000006,512014,514965,8,400,,,
trial,html.Screen,4_138_0,2023-05-02T19:43:18.733Z,,0,3,,5336,response,ISIC_9544832.JPG,,ISIC_5363229.JPG,ISIC_9544832.JPG,false,1,keypress(m),500,520298,520298,514962,514960.00000000006,514965,520306,8,400,39,,ISIC_5363229.JPG
break,html.Screen,4_138_1,2023-05-02T19:43:18.735Z,,0,,,NaN,,,,,,false,,,,520299.99999999994,520299.99999999994,,520299,,520306,8,400,,,
break_continue,html.Screen,4_138_2,2023-05-02T19:43:18.735Z,,0,,,NaN,,,,,,false,,,,520299.99999999994,520299.99999999994,,520299.99999999994,,520306,8,400,,,
sequence,flow.Sequence,4_138,2023-05-02T19:43:18.735Z,,0,,,5334.999999999942,completion,,,,,false,,,,520299.99999999994,520299.99999999994,514962,514960.00000000006,514965,520306,8,400,,,
trial,html.Screen,4_139_0,2023-05-02T19:43:21.843Z,,0,3,,3104.000000000058,response,ISIC_5388493.JPG,,ISIC_0071132.JPG,ISIC_5388493.JPG,false,1,keypress(m),500,523408,523407.00000000006,520303,520299.99999999994,520306,523416,8,400,40,,ISIC_0071132.JPG
break,html.Screen,4_139_1,2023-05-02T19:43:21.844Z,,0,,,NaN,,,,,,false,,,,523409,523409,,523408,,523416,8,400,,,
break_continue,html.Screen,4_139_2,2023-05-02T19:43:21.844Z,,0,,,NaN,,,,,,false,,,,523409,523409,,523409,,523416,8,400,,,
sequence,flow.Sequence,4_139,2023-05-02T19:43:21.845Z,,0,,,3103,completion,,,,,false,,,,523409.99999999994,523409,520303,520299.99999999994,520306,523416,8,400,,,
trial,html.Screen,4_140_0,2023-05-02T19:43:24.967Z,,0,3,,3119,response,ISIC_0062827.JPG,,ISIC_0004000.JPG,ISIC_0004000.JPG,false,0,keypress(z),500,526532,526532,523413,523409.99999999994,523416,526543,8,400,41,,ISIC_0062827.JPG
break,html.Screen,4_140_1,2023-05-02T19:43:24.972Z,,0,,,NaN,,,,,,false,,,,526537,526533,,526533,,526543,8,400,,,
break_continue,html.Screen,4_140_2,2023-05-02T19:43:24.972Z,,0,,,NaN,,,,,,false,,,,526537,526537,,526537,,526543,8,400,,,
sequence,flow.Sequence,4_140,2023-05-02T19:43:24.972Z,,0,,,3121,completion,,,,,false,,,,526537,526537,523413,523409.99999999994,523416,526543,8,400,,,
trial,html.Screen,4_141_0,2023-05-02T19:43:28.507Z,,0,3,,3533,response,ISIC_0030171.JPG,,ISIC_4052597.JPG,ISIC_4052597.JPG,false,0,keypress(z),500,530072,530072,526539,526537,526543,530080,8,400,42,,ISIC_0030171.JPG
break,html.Screen,4_141_1,2023-05-02T19:43:28.508Z,,0,,,NaN,,,,,,false,,,,530073,530073,,530073,,530080,8,400,,,
break_continue,html.Screen,4_141_2,2023-05-02T19:43:28.508Z,,0,,,NaN,,,,,,false,,,,530074,530073,,530073,,530080,8,400,,,
sequence,flow.Sequence,4_141,2023-05-02T19:43:28.509Z,,0,,,3530,completion,,,,,false,,,,530074,530073,526539,526537,526543,530080,8,400,,,
trial,html.Screen,4_142_0,2023-05-02T19:43:32.073Z,,0,3,,3560,response,ISIC_7231192.JPG,,ISIC_0027100.JPG,ISIC_7231192.JPG,false,1,keypress(m),500,533638,533637,530077,530074,530080,533646,8,400,43,,ISIC_0027100.JPG
break,html.Screen,4_142_1,2023-05-02T19:43:32.074Z,,0,,,NaN,,,,,,false,,,,533639,533639,,533638,,533646,8,400,,,
break_continue,html.Screen,4_142_2,2023-05-02T19:43:32.074Z,,0,,,NaN,,,,,,false,,,,533639,533639,,533639,,533646,8,400,,,
sequence,flow.Sequence,4_142,2023-05-02T19:43:32.074Z,,0,,,3559,completion,,,,,false,,,,533639,533639,530077,530074,530080,533646,8,400,,,
trial,html.Screen,4_143_0,2023-05-02T19:43:35.044Z,,0,3,,2967,response,ISIC_4220010.JPG,,ISIC_7462953.JPG,ISIC_4220010.JPG,false,1,keypress(m),500,536609,536609,533642,533640,533646,536617,8,400,44,,ISIC_7462953.JPG
break,html.Screen,4_143_1,2023-05-02T19:43:35.045Z,,0,,,NaN,,,,,,false,,,,536610,536610,,536610,,536617,8,400,,,
break_continue,html.Screen,4_143_2,2023-05-02T19:43:35.045Z,,0,,,NaN,,,,,,false,,,,536611,536610,,536610,,536617,8,400,,,
sequence,flow.Sequence,4_143,2023-05-02T19:43:35.046Z,,0,,,2964,completion,,,,,false,,,,536611,536610,533642,533640,533646,536617,8,400,,,
trial,html.Screen,4_144_0,2023-05-02T19:43:38.247Z,,0,3,,3197,response,ISIC_0014545.JPG,,ISIC_0063053.JPG,ISIC_0063053.JPG,false,0,keypress(z),500,539812,539811,536614,536611,536617,539819,8,400,45,,ISIC_0014545.JPG
break,html.Screen,4_144_1,2023-05-02T19:43:38.247Z,,0,,,NaN,,,,,,false,,,,539813,539812,,539812,,539819,8,400,,,
break_continue,html.Screen,4_144_2,2023-05-02T19:43:38.248Z,,0,,,NaN,,,,,,false,,,,539813,539813,,539813,,539819,8,400,,,
sequence,flow.Sequence,4_144,2023-05-02T19:43:38.248Z,,0,,,3196,completion,,,,,false,,,,539813,539813,536614,536611,536617,539819,8,400,,,
trial,html.Screen,4_145_0,2023-05-02T19:43:45.458Z,,0,3,,7207,response,ISIC_7575957.JPG,,ISIC_5673859.JPG,ISIC_5673859.JPG,false,0,keypress(z),500,547023,547022,539815,539813,539819,547030,8,400,46,,ISIC_7575957.JPG
break,html.Screen,4_145_1,2023-05-02T19:43:45.459Z,,0,,,NaN,,,,,,false,,,,547024,547024,,547023,,547030,8,400,,,
break_continue,html.Screen,4_145_2,2023-05-02T19:43:45.459Z,,0,,,NaN,,,,,,false,,,,547024,547024,,547024,,547030,8,400,,,
sequence,flow.Sequence,4_145,2023-05-02T19:43:45.460Z,,0,,,7205,completion,,,,,false,,,,547025,547024,539815,539813,539819,547030,8,400,,,
trial,html.Screen,4_146_0,2023-05-02T19:43:48.365Z,,0,3,,2902,response,ISIC_9323095.JPG,,ISIC_8727731.JPG,ISIC_8727731.JPG,false,0,keypress(z),500,549930.0000000001,549929,547027,547025,547030,549938,8,400,47,,ISIC_9323095.JPG
break,html.Screen,4_146_1,2023-05-02T19:43:48.366Z,,0,,,NaN,,,,,,false,,,,549931,549931,,549930.0000000001,,549938,8,400,,,
break_continue,html.Screen,4_146_2,2023-05-02T19:43:48.366Z,,0,,,NaN,,,,,,false,,,,549931,549931,,549931,,549938,8,400,,,
sequence,flow.Sequence,4_146,2023-05-02T19:43:48.366Z,,0,,,2901,completion,,,,,false,,,,549932,549931,547027,547025,547030,549938,8,400,,,
trial,html.Screen,4_147_0,2023-05-02T19:43:51.272Z,,0,3,,2902,response,ISIC_0060897.JPG,,ISIC_0032812.JPG,ISIC_0032812.JPG,false,0,keypress(z),500,552837,552836,549934,549932,549938,552845,8,400,48,,ISIC_0060897.JPG
break,html.Screen,4_147_1,2023-05-02T19:43:51.273Z,,0,,,NaN,,,,,,false,,,,552838,552838,,552837,,552845,8,400,,,
break_continue,html.Screen,4_147_2,2023-05-02T19:43:51.273Z,,0,,,NaN,,,,,,false,,,,552838,552838,,552838,,552845,8,400,,,
sequence,flow.Sequence,4_147,2023-05-02T19:43:51.273Z,,0,,,2900,completion,,,,,false,,,,552839,552838,549934,549932,549938,552845,8,400,,,
trial,html.Screen,4_148_0,2023-05-02T19:43:54.405Z,,0,3,,3129,response,ISIC_0027928.JPG,,ISIC_2616719.JPG,ISIC_2616719.JPG,false,0,keypress(z),500,555970,555970,552841,552839,552845,555979,8,400,49,,ISIC_0027928.JPG
break,html.Screen,4_148_1,2023-05-02T19:43:54.406Z,,0,,,NaN,,,,,,false,,,,555971,555971,,555970,,555979,8,400,,,
break_continue,html.Screen,4_148_2,2023-05-02T19:43:54.407Z,,0,,,NaN,,,,,,false,,,,555972,555971,,555971,,555979,8,400,,,
sequence,flow.Sequence,4_148,2023-05-02T19:43:54.407Z,,0,,,3126,completion,,,,,false,,,,555972,555971,552841,552839,552845,555979,8,400,,,
trial,html.Screen,4_149_0,2023-05-02T19:43:57.323Z,,0,3,,2912,response,ISIC_0055727.JPG,,ISIC_0029609.JPG,ISIC_0055727.JPG,false,1,keypress(m),500,558888,558887,555975,555972,555979,558898,8,400,50,,ISIC_0029609.JPG
break,html.Screen,4_149_1,2023-05-02T19:44:02.316Z,,0,,,4999,timeout,,,,,false,,,,563881,563880,558891,558889,558898,563897,8,400,,,
break_continue,html.Screen,4_149_2,2023-05-02T19:44:03.613Z,,0,,,1298,response,,,,,false,continue,keypress(Space),,565178,565178,563880,563881,563897,565188,8,400,,,
sequence,flow.Sequence,4_149,2023-05-02T19:44:03.613Z,,0,,,9199,completion,,,,,false,,,,565178,565178,555975,555972,555979,565188,8,400,,,
trial,html.Screen,4_150_0,2023-05-02T19:44:06.871Z,,0,4,,3254.0000000001164,response,ISIC_0178370.JPG,,ISIC_5364330.JPG,ISIC_0178370.JPG,false,1,keypress(m),500,568436,568435.0000000001,565181,565178,565188,568444,8,400,1,,ISIC_5364330.JPG
break,html.Screen,4_150_1,2023-05-02T19:44:06.873Z,,0,,,NaN,,,,,,false,,,,568438,568437,,568437,,568444,8,400,,,
break_continue,html.Screen,4_150_2,2023-05-02T19:44:06.873Z,,0,,,NaN,,,,,,false,,,,568438,568438,,568438,,568444,8,400,,,
sequence,flow.Sequence,4_150,2023-05-02T19:44:06.873Z,,0,,,3250,completion,,,,,false,,,,568438,568438,565181,565178,565188,568444,8,400,,,
trial,html.Screen,4_151_0,2023-05-02T19:44:09.855Z,,0,4,,2978,response,ISIC_0000523.JPG,,ISIC_0009735.JPG,ISIC_0009735.JPG,false,0,keypress(z),500,571420,571419,568441,568438,568444,571429,8,400,2,,ISIC_0000523.JPG
break,html.Screen,4_151_1,2023-05-02T19:44:09.856Z,,0,,,NaN,,,,,,false,,,,571421,571421,,571420,,571429,8,400,,,
break_continue,html.Screen,4_151_2,2023-05-02T19:44:09.856Z,,0,,,NaN,,,,,,false,,,,571421,571421,,571421,,571429,8,400,,,
sequence,flow.Sequence,4_151,2023-05-02T19:44:09.856Z,,0,,,2977,completion,,,,,false,,,,571421,571421,568441,568438,568444,571429,8,400,,,
trial,html.Screen,4_152_0,2023-05-02T19:44:13.111Z,,0,4,,3250.0000000001164,response,ISIC_7268123.JPG,,ISIC_5807112.JPG,ISIC_5807112.JPG,false,0,keypress(z),500,574676,574675.0000000001,571425,571422,571429,574683,8,400,3,,ISIC_7268123.JPG
break,html.Screen,4_152_1,2023-05-02T19:44:13.112Z,,0,,,NaN,,,,,,false,,,,574677,574677,,574676,,574683,8,400,,,
break_continue,html.Screen,4_152_2,2023-05-02T19:44:13.112Z,,0,,,NaN,,,,,,false,,,,574677,574677,,574677,,574683,8,400,,,
sequence,flow.Sequence,4_152,2023-05-02T19:44:13.112Z,,0,,,3248,completion,,,,,false,,,,574677,574677,571425,571422,571429,574683,8,400,,,
trial,html.Screen,4_153_0,2023-05-02T19:44:15.808Z,,0,4,,2692,response,ISIC_4642190.JPG,,ISIC_4973549.JPG,ISIC_4642190.JPG,false,1,keypress(m),500,577373,577372,574680,574678,574683,577381,8,400,4,,ISIC_4973549.JPG
break,html.Screen,4_153_1,2023-05-02T19:44:15.809Z,,0,,,NaN,,,,,,false,,,,577374,577374,,577373,,577381,8,400,,,
break_continue,html.Screen,4_153_2,2023-05-02T19:44:15.809Z,,0,,,NaN,,,,,,false,,,,577374,577374,,577374,,577381,8,400,,,
sequence,flow.Sequence,4_153,2023-05-02T19:44:15.809Z,,0,,,2691,completion,,,,,false,,,,577375,577374,574680,574678,574683,577381,8,400,,,
trial,html.Screen,4_154_0,2023-05-02T19:44:18.536Z,,0,4,,2723,response,ISIC_0031293.JPG,,ISIC_0830217.JPG,ISIC_0031293.JPG,false,1,keypress(m),500,580101,580100,577377,577375,577381,580110,8,400,5,,ISIC_0830217.JPG
break,html.Screen,4_154_1,2023-05-02T19:44:18.537Z,,0,,,NaN,,,,,,false,,,,580102,580102,,580102,,580110,8,400,,,
break_continue,html.Screen,4_154_2,2023-05-02T19:44:18.538Z,,0,,,NaN,,,,,,false,,,,580103.0000000001,580103.0000000001,,580103.0000000001,,580110,8,400,,,
sequence,flow.Sequence,4_154,2023-05-02T19:44:18.538Z,,0,,,2722.0000000001164,completion,,,,,false,,,,580103.0000000001,580103.0000000001,577377,577375,577381,580110,8,400,,,
trial,html.Screen,4_155_0,2023-05-02T19:44:21.289Z,,0,4,,2747.0000000001164,response,ISIC_3791309.JPG,,ISIC_0060696.JPG,ISIC_3791309.JPG,false,1,keypress(m),500,582854,582853.0000000001,580106,580103.0000000001,580110,582863,8,400,6,,ISIC_0060696.JPG
break,html.Screen,4_155_1,2023-05-02T19:44:21.290Z,,0,,,NaN,,,,,,false,,,,582855,582855,,582854,,582863,8,400,,,
break_continue,html.Screen,4_155_2,2023-05-02T19:44:21.291Z,,0,,,NaN,,,,,,false,,,,582856,582855,,582855,,582863,8,400,,,
sequence,flow.Sequence,4_155,2023-05-02T19:44:21.291Z,,0,,,2745,completion,,,,,false,,,,582856,582855,580106,580103.0000000001,580110,582863,8,400,,,
trial,html.Screen,4_156_0,2023-05-02T19:44:24.136Z,,0,4,,2843,response,ISIC_8438811.JPG,,ISIC_0027684.JPG,ISIC_8438811.JPG,false,1,keypress(m),500,585702,585701,582858,582856,582863,585708,8,400,7,,ISIC_0027684.JPG
break,html.Screen,4_156_1,2023-05-02T19:44:24.137Z,,0,,,NaN,,,,,,false,,,,585702,585702,,585702,,585708,8,400,,,
