sender,sender_type,sender_id,timestamp,meta,,blockNo,condition,duration,ended_on,img_left,img_reveal,img_right,loser,practice,response,response_action,selection_duration,time_commit,time_end,time_render,time_run,time_show,time_switch,total_blocks,total_trials,trialNo,url,winner
informed_consent,html.Screen,0,2023-09-13T20:40:16.824Z,"{""labjs_version"":""20.2.4"",""labjs_build"":{""flavor"":""production"",""commit"":""f5b4a49f956347addd546a832a3327688c2c0fef""},""location"":""https://run.pavlovia.org/MurrayBennett/melanoma-2afc/?participant=67271&platform=sona"",""userAgent"":""Mozilla/5.0 (Macintosh; Intel Mac OS X 10_15_7) AppleWebKit/537.36 (KHTML, like Gecko) Chrome/116.0.0.0 Safari/537.36"",""platform"":""MacIntel"",""language"":""en-US"",""locale"":""en-US"",""timeZone"":""America/Chicago"",""timezoneOffset"":300,""screen_width"":1920,""screen_height"":1080,""scroll_width"":1920,""scroll_height"":947,""window_innerWidth"":1920,""window_innerHeight"":995,""devicePixelRatio"":1}",,,,2363.0079999523164,response,,,,,,consent,click button,,4424.699999928474,4421.299999952316,2044.954,2057.600000023842,2058.292,4445.794,,,,"{""participant"":""67271"",""platform"":""sona""}",
Welcome,html.Screen,1,2023-09-13T20:40:17.915Z,,,,asymmetry,1067.2060000000001,response,,,,,,continue,click button,,5516,5513,4419.118,4425,4445.794,5526.172,,,,,
trial,html.Screen,2_0_0,2023-09-13T20:40:24.970Z,,0,0,,7044.727999976159,response,ISIC_0069348.JPG,,ISIC_6997061.JPG,ISIC_6997061.JPG,true,0,keypress(z),500,12571.5,12570.899999976158,5512.834,5516.299999952316,5526.172,12582.195,1,6,1,,ISIC_0069348.JPG
sequence,flow.Sequence,2_0,2023-09-13T20:40:24.971Z,,0,,,7044.727999976159,completion,,,,,true,,,,12572,12570.899999976158,5512.834,5516.199999928474,5526.172,12582.195,1,6,,,
trial,html.Screen,2_1_0,2023-09-13T20:40:29.118Z,,0,0,,4136.305,response,ISIC_0009529.JPG,,ISIC_0057368.JPG,ISIC_0057368.JPG,true,0,keypress(z),500,16718.899999976158,16718.5,12568.857,12572.199999928474,12582.195,16730.313,1,6,2,,ISIC_0009529.JPG
sequence,flow.Sequence,2_1,2023-09-13T20:40:29.118Z,,0,,,4136.305,completion,,,,,true,,,,16719.299999952316,16718.5,12568.857,12572.199999928474,12582.195,16730.313,1,6,,,
trial,html.Screen,2_2_0,2023-09-13T20:40:32.483Z,,0,0,,3353.886999928476,response,ISIC_9758671.JPG,,ISIC_0064954.JPG,ISIC_9758671.JPG,true,1,keypress(m),500,20084.600000023842,20084.199999928474,16716.975,16719.600000023842,16730.313,20091.721,1,6,3,,ISIC_0064954.JPG
sequence,flow.Sequence,2_2,2023-09-13T20:40:32.484Z,,0,,,3353.886999928476,completion,,,,,true,,,,20084.799999952316,20084.199999928474,16716.975,16719.5,16730.313,20091.721,1,6,,,
trial,html.Screen,2_3_0,2023-09-13T20:40:35.657Z,,0,0,,3166.078999952315,response,ISIC_0005785.JPG,,ISIC_0000080.JPG,ISIC_0005785.JPG,true,1,keypress(m),500,23258.299999952316,23257.799999952316,20078.383,20085.100000023842,20091.721,23266.165,1,6,4,,ISIC_0000080.JPG
sequence,flow.Sequence,2_3,2023-09-13T20:40:35.657Z,,0,,,3166.078999952315,completion,,,,,true,,,,23258.799999952316,23257.799999952316,20078.383,20085,20091.721,23266.165,1,6,,,
trial,html.Screen,2_4_0,2023-09-13T20:40:39.679Z,,0,0,,4013.5349999284736,response,ISIC_7944028.JPG,,ISIC_5390060.JPG,ISIC_5390060.JPG,true,0,keypress(z),500,27280.299999952316,27279.699999928474,23252.827,23259.100000023842,23266.165,27294.241,1,6,5,,ISIC_7944028.JPG
sequence,flow.Sequence,2_4,2023-09-13T20:40:39.679Z,,0,,,4013.5349999284736,completion,,,,,true,,,,27280.699999928474,27279.699999928474,23252.827,23259,23266.165,27294.241,1,6,,,
trial,html.Screen,2_5_0,2023-09-13T20:40:42.755Z,,0,0,,3061.758999999998,response,ISIC_0794216.JPG,,ISIC_0010188.JPG,ISIC_0794216.JPG,true,1,keypress(m),500,30356.399999976158,30356,27280.903,27280.899999976158,27294.241,30362.219,1,6,6,,ISIC_0010188.JPG
sequence,flow.Sequence,2_5,2023-09-13T20:40:42.755Z,,0,,,3061.758999999998,completion,,,,,true,,,,30356.899999976158,30356,27280.903,27280.799999952316,27294.241,30362.219,1,6,,,
loop,flow.Loop,2,2023-09-13T20:40:42.756Z,,,,,24829.828,completion,,,,,true,,,,30357.199999928474,30356,5512.834,5516.199999928474,5526.172,30362.219,1,6,,,
exp_instructions,html.Screen,3,2023-09-13T20:41:18.300Z,,,,,35532.18099997616,response,,,,,,continue,keypress(Space),,65901.89999997616,65894.39999997616,30348.881,30357.199999928474,30362.219,65907.989,,,,,
trial,html.Screen,4_0_0,2023-09-13T20:41:21.059Z,,0,1,,2752.210999928473,response,ISIC_9740245.JPG,8,ISIC_0817654.JPG,ISIC_0817654.JPG,false,0,keypress(z),500,68660.69999992847,68660.19999992847,65894.651,65902.19999992847,65907.989,68669.662,8,400,1,,ISIC_9740245.JPG
break,html.Screen,4_0_1,2023-09-13T20:41:21.060Z,,0,,,NaN,,,,,,false,,,,68662.10000002384,68661.79999995232,,68661,,68669.662,8,400,,,
break_continue,html.Screen,4_0_2,2023-09-13T20:41:21.061Z,,0,,,NaN,,,,,,false,,,,68662.60000002384,68662.39999997616,,68662.19999992847,,68669.662,8,400,,,
sequence,flow.Sequence,4_0,2023-09-13T20:41:21.061Z,,0,,,2754.4109999761567,completion,,,,,false,,,,68662.79999995232,68662.39999997616,65894.651,65902.19999992847,65907.989,68669.662,8,400,,,
trial,html.Screen,4_1_0,2023-09-13T20:41:23.737Z,,0,1,,2669.2379999761615,response,ISIC_6808543.JPG,8,ISIC_0033137.JPG,ISIC_0033137.JPG,false,0,keypress(z),500,71339.39999997616,71338.89999997616,68656.324,68662.89999997616,68669.662,71350.6,8,400,2,,ISIC_6808543.JPG
break,html.Screen,4_1_1,2023-09-13T20:41:23.738Z,,0,,,NaN,,,,,,false,,,,71340.39999997616,71340.10000002384,,71339.60000002384,,71350.6,8,400,,,
break_continue,html.Screen,4_1_2,2023-09-13T20:41:23.739Z,,0,,,NaN,,,,,,false,,,,71340.69999992847,71340.60000002384,,71340.5,,71350.6,8,400,,,
sequence,flow.Sequence,4_1,2023-09-13T20:41:23.739Z,,0,,,2670.9380000238452,completion,,,,,false,,,,71340.79999995232,71340.60000002384,68656.324,68662.89999997616,68669.662,71350.6,8,400,,,
trial,html.Screen,4_2_0,2023-09-13T20:41:26.303Z,,0,1,,2554.2999999761523,response,ISIC_2910705.JPG,8,ISIC_3814807.JPG,ISIC_2910705.JPG,false,1,keypress(m),500,73905.29999995232,73904.89999997616,71337.262,71341,71350.6,73911.496,8,400,3,,ISIC_3814807.JPG
break,html.Screen,4_2_1,2023-09-13T20:41:26.304Z,,0,,,NaN,,,,,,false,,,,73906.39999997616,73906.10000002384,,73905.69999992847,,73911.496,8,400,,,
break_continue,html.Screen,4_2_2,2023-09-13T20:41:26.305Z,,0,,,NaN,,,,,,false,,,,73906.69999992847,73906.60000002384,,73906.5,,73911.496,8,400,,,
sequence,flow.Sequence,4_2,2023-09-13T20:41:26.305Z,,0,,,2556.000000023836,completion,,,,,false,,,,73907,73906.60000002384,71337.262,71340.89999997616,71350.6,73911.496,8,400,,,
trial,html.Screen,4_3_0,2023-09-13T20:41:28.887Z,,0,1,,2576.7039999284752,response,ISIC_0014684.JPG,8,ISIC_2378211.JPG,ISIC_2378211.JPG,false,0,keypress(z),500,76488.69999992847,76488.19999992847,73898.158,73907.10000002384,73911.496,76499.435,8,400,4,,ISIC_0014684.JPG
break,html.Screen,4_3_1,2023-09-13T20:41:28.887Z,,0,,,NaN,,,,,,false,,,,76489.69999992847,76489.39999997616,,76489,,76499.435,8,400,,,
break_continue,html.Screen,4_3_2,2023-09-13T20:41:28.888Z,,0,,,NaN,,,,,,false,,,,76490.10000002384,76489.89999997616,,76489.69999992847,,76499.435,8,400,,,
sequence,flow.Sequence,4_3,2023-09-13T20:41:28.888Z,,0,,,2578.403999976159,completion,,,,,false,,,,76490.19999992847,76489.89999997616,73898.158,73907,73911.496,76499.435,8,400,,,
trial,html.Screen,4_4_0,2023-09-13T20:41:32.587Z,,0,1,,3689.665000023844,response,ISIC_1955991.JPG,7,ISIC_8104064.JPG,ISIC_8104064.JPG,false,0,keypress(z),500,80189.5,80189.10000002384,76486.097,76490.39999997616,76499.435,80194.061,8,400,5,,ISIC_1955991.JPG
break,html.Screen,4_4_1,2023-09-13T20:41:32.588Z,,0,,,NaN,,,,,,false,,,,80190.60000002384,80190.29999995232,,80189.79999995232,,80194.061,8,400,,,
break_continue,html.Screen,4_4_2,2023-09-13T20:41:32.589Z,,0,,,NaN,,,,,,false,,,,80191,80190.79999995232,,80190.79999995232,,80194.061,8,400,,,
sequence,flow.Sequence,4_4,2023-09-13T20:41:32.589Z,,0,,,3691.3649999523186,completion,,,,,false,,,,80191.10000002384,80190.79999995232,76486.097,76490.29999995232,76499.435,80194.061,8,400,,,
trial,html.Screen,4_5_0,2023-09-13T20:41:35.490Z,,0,1,,2897.7389999523148,response,ISIC_5651106.JPG,8,ISIC_5167209.JPG,ISIC_5651106.JPG,false,1,keypress(m),500,83092.19999992847,83091.79999995232,80180.723,80191.29999995232,80194.061,83101.745,8,400,6,,ISIC_5167209.JPG
break,html.Screen,4_5_1,2023-09-13T20:41:35.491Z,,0,,,NaN,,,,,,false,,,,83093.29999995232,83093,,83092.5,,83101.745,8,400,,,
break_continue,html.Screen,4_5_2,2023-09-13T20:41:35.491Z,,0,,,NaN,,,,,,false,,,,83093.69999992847,83093.5,,83093.39999997616,,83101.745,8,400,,,
sequence,flow.Sequence,4_5,2023-09-13T20:41:35.492Z,,0,,,2899.4389999999985,completion,,,,,false,,,,83093.89999997616,83093.5,80180.723,80191.19999992847,80194.061,83101.745,8,400,,,
trial,html.Screen,4_6_0,2023-09-13T20:41:38.048Z,,0,1,,2547.954999928479,response,ISIC_5150200.JPG,7,ISIC_5616806.JPG,ISIC_5616806.JPG,false,0,keypress(z),500,85650.10000002384,85649.69999992847,83088.407,83094.10000002384,83101.745,85662.641,8,400,7,,ISIC_5150200.JPG
break,html.Screen,4_6_1,2023-09-13T20:41:38.049Z,,0,,,NaN,,,,,,false,,,,85651.10000002384,85650.89999997616,,85650.5,,85662.641,8,400,,,
break_continue,html.Screen,4_6_2,2023-09-13T20:41:38.049Z,,0,,,NaN,,,,,,false,,,,85651.5,85651.39999997616,,85651.39999997616,,85662.641,8,400,,,
sequence,flow.Sequence,4_6,2023-09-13T20:41:38.049Z,,0,,,2549.654999976163,completion,,,,,false,,,,85651.69999992847,85651.39999997616,83088.407,83094,83101.745,85662.641,8,400,,,
trial,html.Screen,4_7_0,2023-09-13T20:41:40.790Z,,0,1,,2729.258999976155,response,ISIC_0062204.JPG,9,ISIC_4879187.JPG,ISIC_4879187.JPG,false,0,keypress(z),500,88392.29999995232,88391.89999997616,85649.303,85651.89999997616,85662.641,88397.166,8,400,8,,ISIC_0062204.JPG
break,html.Screen,4_7_1,2023-09-13T20:41:40.791Z,,0,,,NaN,,,,,,false,,,,88393.29999995232,88393.10000002384,,88392.69999992847,,88397.166,8,400,,,
break_continue,html.Screen,4_7_2,2023-09-13T20:41:40.791Z,,0,,,NaN,,,,,,false,,,,88393.69999992847,88393.60000002384,,88393.39999997616,,88397.166,8,400,,,
sequence,flow.Sequence,4_7,2023-09-13T20:41:40.792Z,,0,,,2730.9590000238386,completion,,,,,false,,,,88393.89999997616,88393.60000002384,85649.303,85651.89999997616,85662.641,88397.166,8,400,,,
trial,html.Screen,4_8_0,2023-09-13T20:41:43.391Z,,0,1,,2595.9340000238444,response,ISIC_0033090.JPG,8,ISIC_8733345.JPG,ISIC_8733345.JPG,false,0,keypress(z),500,90993.60000002384,90993.10000002384,88383.828,88394.10000002384,88397.166,90998.076,8,400,9,,ISIC_0033090.JPG
break,html.Screen,4_8_1,2023-09-13T20:41:43.392Z,,0,,,NaN,,,,,,false,,,,90994.60000002384,90994.39999997616,,90993.89999997616,,90998.076,8,400,,,
break_continue,html.Screen,4_8_2,2023-09-13T20:41:43.393Z,,0,,,NaN,,,,,,false,,,,90995,90994.89999997616,,90994.79999995232,,90998.076,8,400,,,
sequence,flow.Sequence,4_8,2023-09-13T20:41:43.393Z,,0,,,2597.7339999761607,completion,,,,,false,,,,90995.10000002384,90994.89999997616,88383.828,88394,88397.166,90998.076,8,400,,,
trial,html.Screen,4_9_0,2023-09-13T20:41:46.758Z,,0,1,,3361.6239999284735,response,ISIC_7938688.JPG,7,ISIC_5611515.JPG,ISIC_7938688.JPG,false,1,keypress(m),500,94360,94359.69999992847,90984.738,90995.29999995232,90998.076,94372.59,8,400,10,,ISIC_5611515.JPG
break,html.Screen,4_9_1,2023-09-13T20:41:46.758Z,,0,,,NaN,,,,,,false,,,,94360.69999992847,94360.60000002384,,94360.19999992847,,94372.59,8,400,,,
break_continue,html.Screen,4_9_2,2023-09-13T20:41:46.758Z,,0,,,NaN,,,,,,false,,,,94360.89999997616,94360.79999995232,,94360.79999995232,,94372.59,8,400,,,
sequence,flow.Sequence,4_9,2023-09-13T20:41:46.759Z,,0,,,3362.7239999523154,completion,,,,,false,,,,94361,94360.79999995232,90984.738,90995.19999992847,90998.076,94372.59,8,400,,,
trial,html.Screen,4_10_0,2023-09-13T20:41:49.225Z,,0,1,,2454.5100000238454,response,ISIC_0066889.JPG,5,ISIC_0067893.JPG,ISIC_0067893.JPG,false,0,keypress(z),500,96827.60000002384,96827.10000002384,94359.252,94361.10000002384,94372.59,96840.12,8,400,11,,ISIC_0066889.JPG
break,html.Screen,4_10_1,2023-09-13T20:41:49.226Z,,0,,,NaN,,,,,,false,,,,96828.60000002384,96828.39999997616,,96827.89999997616,,96840.12,8,400,,,
break_continue,html.Screen,4_10_2,2023-09-13T20:41:49.226Z,,0,,,NaN,,,,,,false,,,,96829,96828.79999995232,,96828.79999995232,,96840.12,8,400,,,
sequence,flow.Sequence,4_10,2023-09-13T20:41:49.227Z,,0,,,2456.20999995232,completion,,,,,false,,,,96829.10000002384,96828.79999995232,94359.252,94361,94372.59,96840.12,8,400,,,
trial,html.Screen,4_11_0,2023-09-13T20:41:51.790Z,,0,1,,2552.079999928479,response,ISIC_0027804.JPG,7,ISIC_7125023.JPG,ISIC_7125023.JPG,false,0,keypress(z),500,99392.5,99392.19999992847,96826.782,96829.29999995232,96840.12,99401.26,8,400,12,,ISIC_0027804.JPG
break,html.Screen,4_11_1,2023-09-13T20:41:51.791Z,,0,,,NaN,,,,,,false,,,,99393.39999997616,99393.29999995232,,99392.79999995232,,99401.26,8,400,,,
break_continue,html.Screen,4_11_2,2023-09-13T20:41:51.791Z,,0,,,NaN,,,,,,false,,,,99393.79999995232,99393.69999992847,,99393.60000002384,,99401.26,8,400,,,
sequence,flow.Sequence,4_11,2023-09-13T20:41:51.791Z,,0,,,2553.579999928479,completion,,,,,false,,,,99394,99393.69999992847,96826.782,96829.19999992847,96840.12,99401.26,8,400,,,
trial,html.Screen,4_12_0,2023-09-13T20:41:54.311Z,,0,1,,2511.6399999761634,response,ISIC_0033007.JPG,5,ISIC_0073136.JPG,ISIC_0033007.JPG,false,1,keypress(m),500,101913.29999995232,101912.89999997616,99387.922,99394.10000002384,99401.26,101922.142,8,400,13,,ISIC_0073136.JPG
break,html.Screen,4_12_1,2023-09-13T20:41:54.312Z,,0,,,NaN,,,,,,false,,,,101914.19999992847,101914,,101913.60000002384,,101922.142,8,400,,,
break_continue,html.Screen,4_12_2,2023-09-13T20:41:54.312Z,,0,,,NaN,,,,,,false,,,,101914.5,101914.39999997616,,101914.29999995232,,101922.142,8,400,,,
sequence,flow.Sequence,4_12,2023-09-13T20:41:54.312Z,,0,,,2513.1399999761634,completion,,,,,false,,,,101914.79999995232,101914.39999997616,99387.922,99394,99401.26,101922.142,8,400,,,
trial,html.Screen,4_13_0,2023-09-13T20:41:57.054Z,,0,1,,2733.857999999993,response,ISIC_0067804.JPG,8,ISIC_1233104.JPG,ISIC_1233104.JPG,false,0,keypress(z),500,104656.39999997616,104656,101908.804,101914.79999995232,101922.142,104669.77,8,400,14,,ISIC_0067804.JPG
break,html.Screen,4_13_1,2023-09-13T20:41:57.055Z,,0,,,NaN,,,,,,false,,,,104657.39999997616,104657.29999995232,,104656.69999992847,,104669.77,8,400,,,
break_continue,html.Screen,4_13_2,2023-09-13T20:41:57.055Z,,0,,,NaN,,,,,,false,,,,104657.79999995232,104657.69999992847,,104657.60000002384,,104669.77,8,400,,,
sequence,flow.Sequence,4_13,2023-09-13T20:41:57.055Z,,0,,,2735.5579999284673,completion,,,,,false,,,,104658,104657.69999992847,101908.804,101914.79999995232,101922.142,104669.77,8,400,,,
trial,html.Screen,4_14_0,2023-09-13T20:42:00.085Z,,0,1,,3017.229999999996,response,ISIC_0010862.JPG,8,ISIC_6253295.JPG,ISIC_6253295.JPG,false,0,keypress(z),500,107687.60000002384,107687,104656.432,104658.10000002384,104669.77,107697.732,8,400,15,,ISIC_0010862.JPG
break,html.Screen,4_14_1,2023-09-13T20:42:00.086Z,,0,,,NaN,,,,,,false,,,,107688.5,107688.29999995232,,107687.79999995232,,107697.732,8,400,,,
break_continue,html.Screen,4_14_2,2023-09-13T20:42:00.086Z,,0,,,NaN,,,,,,false,,,,107688.79999995232,107688.79999995232,,107688.69999992847,,107697.732,8,400,,,
sequence,flow.Sequence,4_14,2023-09-13T20:42:00.086Z,,0,,,3019.029999952312,completion,,,,,false,,,,107689.10000002384,107688.79999995232,104656.432,104658.10000002384,104669.77,107697.732,8,400,,,
trial,html.Screen,4_15_0,2023-09-13T20:42:02.665Z,,0,1,,2569.1679999761545,response,ISIC_0033564.JPG,8,ISIC_0028230.JPG,ISIC_0028230.JPG,false,0,keypress(z),500,110267.29999995232,110266.89999997616,107684.394,107689.19999992847,107697.732,110271.966,8,400,16,,ISIC_0033564.JPG
break,html.Screen,4_15_1,2023-09-13T20:42:02.665Z,,0,,,NaN,,,,,,false,,,,110268,110267.89999997616,,110267.5,,110271.966,8,400,,,
break_continue,html.Screen,4_15_2,2023-09-13T20:42:02.666Z,,0,,,NaN,,,,,,false,,,,110268.29999995232,110268.19999992847,,110268.10000002384,,110271.966,8,400,,,
sequence,flow.Sequence,4_15,2023-09-13T20:42:02.666Z,,0,,,2570.467999928471,completion,,,,,false,,,,110268.39999997616,110268.19999992847,107684.394,107689.10000002384,107697.732,110271.966,8,400,,,
trial,html.Screen,4_16_0,2023-09-13T20:42:06.174Z,,0,1,,3504.5339999999997,response,ISIC_1598039.JPG,6,ISIC_7558912.JPG,ISIC_1598039.JPG,false,1,keypress(m),500,113776.89999997616,113776.5,110258.628,110268.39999997616,110271.966,113779.86,8,400,17,,ISIC_7558912.JPG
break,html.Screen,4_16_1,2023-09-13T20:42:06.175Z,,0,,,NaN,,,,,,false,,,,113777.89999997616,113777.69999992847,,113777.19999992847,,113779.86,8,400,,,
break_continue,html.Screen,4_16_2,2023-09-13T20:42:06.176Z,,0,,,NaN,,,,,,false,,,,113778.29999995232,113778.19999992847,,113778,,113779.86,8,400,,,
sequence,flow.Sequence,4_16,2023-09-13T20:42:06.176Z,,0,,,3506.233999928474,completion,,,,,false,,,,113778.5,113778.19999992847,110258.628,110268.39999997616,110271.966,113779.86,8,400,,,
trial,html.Screen,4_17_0,2023-09-13T20:42:10.321Z,,0,1,,4143.339999928474,response,ISIC_0006727.JPG,6,ISIC_3706743.JPG,ISIC_0006727.JPG,false,1,keypress(m),500,117923.69999992847,117923.19999992847,113766.522,113778.60000002384,113779.86,117928.21,8,400,18,,ISIC_3706743.JPG
break,html.Screen,4_17_1,2023-09-13T20:42:10.322Z,,0,,,NaN,,,,,,false,,,,117924.60000002384,117924.5,,117924,,117928.21,8,400,,,
break_continue,html.Screen,4_17_2,2023-09-13T20:42:10.322Z,,0,,,NaN,,,,,,false,,,,117925.10000002384,117924.89999997616,,117924.79999995232,,117928.21,8,400,,,
sequence,flow.Sequence,4_17,2023-09-13T20:42:10.322Z,,0,,,4145.039999976158,completion,,,,,false,,,,117925.19999992847,117924.89999997616,113766.522,113778.60000002384,113779.86,117928.21,8,400,,,
trial,html.Screen,4_18_0,2023-09-13T20:42:13.974Z,,0,1,,3647.8900000238355,response,ISIC_0003822.JPG,8,ISIC_4525317.JPG,ISIC_4525317.JPG,false,0,keypress(z),500,121576.60000002384,121576.10000002384,117914.872,117925.29999995232,117928.21,121582.822,8,400,19,,ISIC_0003822.JPG
break,html.Screen,4_18_1,2023-09-13T20:42:13.975Z,,0,,,NaN,,,,,,false,,,,121577.5,121577.29999995232,,121576.89999997616,,121582.822,8,400,,,
break_continue,html.Screen,4_18_2,2023-09-13T20:42:13.975Z,,0,,,NaN,,,,,,false,,,,121578,121577.89999997616,,121577.60000002384,,121582.822,8,400,,,
sequence,flow.Sequence,4_18,2023-09-13T20:42:13.975Z,,0,,,3649.6899999761517,completion,,,,,false,,,,121578.10000002384,121577.89999997616,117914.872,117925.29999995232,117928.21,121582.822,8,400,,,
trial,html.Screen,4_19_0,2023-09-13T20:42:16.733Z,,0,1,,2752.2780000238417,response,ISIC_0034159.JPG,8,ISIC_0032130.JPG,ISIC_0032130.JPG,false,0,keypress(z),500,124335.60000002384,124335.10000002384,121569.484,121578.29999995232,121582.822,124343.788,8,400,20,,ISIC_0034159.JPG
break,html.Screen,4_19_1,2023-09-13T20:42:16.734Z,,0,,,NaN,,,,,,false,,,,124336.5,124336.39999997616,,124335.89999997616,,124343.788,8,400,,,
break_continue,html.Screen,4_19_2,2023-09-13T20:42:16.734Z,,0,,,NaN,,,,,,false,,,,124337,124336.79999995232,,124336.69999992847,,124343.788,8,400,,,
sequence,flow.Sequence,4_19,2023-09-13T20:42:16.734Z,,0,,,2753.977999952316,completion,,,,,false,,,,124337.10000002384,124336.79999995232,121569.484,121578.19999992847,121582.822,124343.788,8,400,,,
trial,html.Screen,4_20_0,2023-09-13T20:42:19.635Z,,0,1,,2894.2119999999995,response,ISIC_0033202.JPG,8,ISIC_3984167.JPG,ISIC_3984167.JPG,false,0,keypress(z),500,127238.39999997616,127238,124330.45,124337.19999992847,124343.788,127251.472,8,400,21,,ISIC_0033202.JPG
break,html.Screen,4_20_1,2023-09-13T20:42:19.636Z,,0,,,NaN,,,,,,false,,,,127239.29999995232,127239.19999992847,,127238.69999992847,,127251.472,8,400,,,
break_continue,html.Screen,4_20_2,2023-09-13T20:42:19.637Z,,0,,,NaN,,,,,,false,,,,127239.69999992847,127239.60000002384,,127239.39999997616,,127251.472,8,400,,,
sequence,flow.Sequence,4_20,2023-09-13T20:42:19.637Z,,0,,,2895.8120000238414,completion,,,,,false,,,,127239.79999995232,127239.60000002384,124330.45,124337.19999992847,124343.788,127251.472,8,400,,,
trial,html.Screen,4_21_0,2023-09-13T20:42:22.408Z,,0,1,,2759.5280000000057,response,ISIC_0014703.JPG,5,ISIC_2808622.JPG,ISIC_2808622.JPG,false,0,keypress(z),500,130011.39999997616,130011,127238.134,127240,127251.472,130012.672,8,400,22,,ISIC_0014703.JPG
break,html.Screen,4_21_1,2023-09-13T20:42:22.409Z,,0,,,NaN,,,,,,false,,,,130012.29999995232,130012.10000002384,,130011.69999992847,,130012.672,8,400,,,
break_continue,html.Screen,4_21_2,2023-09-13T20:42:22.410Z,,0,,,NaN,,,,,,false,,,,130012.79999995232,130012.69999992847,,130012.5,,130012.672,8,400,,,
sequence,flow.Sequence,4_21,2023-09-13T20:42:22.410Z,,0,,,2761.22799992848,completion,,,,,false,,,,130013,130012.69999992847,127238.134,127240,127251.472,130012.672,8,400,,,
trial,html.Screen,4_22_0,2023-09-13T20:42:25.127Z,,0,1,,2717.0279999284685,response,ISIC_0034133.JPG,7,ISIC_0071257.JPG,ISIC_0071257.JPG,false,0,keypress(z),500,132730.10000002384,132729.69999992847,129999.334,130013.10000002384,130012.672,132733.624,8,400,23,,ISIC_0034133.JPG
break,html.Screen,4_22_1,2023-09-13T20:42:25.128Z,,0,,,NaN,,,,,,false,,,,132731.10000002384,132730.89999997616,,132730.39999997616,,132733.624,8,400,,,
break_continue,html.Screen,4_22_2,2023-09-13T20:42:25.128Z,,0,,,NaN,,,,,,false,,,,132731.5,132731.39999997616,,132731.19999992847,,132733.624,8,400,,,
sequence,flow.Sequence,4_22,2023-09-13T20:42:25.129Z,,0,,,2718.727999976152,completion,,,,,false,,,,132731.69999992847,132731.39999997616,129999.334,130013,130012.672,132733.624,8,400,,,
trial,html.Screen,4_23_0,2023-09-13T20:42:29.374Z,,0,1,,4242.675999952306,response,ISIC_0033245.JPG,7,ISIC_0069150.JPG,ISIC_0033245.JPG,false,1,keypress(m),500,136976.79999995232,136976.29999995232,132720.286,132731.79999995232,132733.624,136988.446,8,400,24,,ISIC_0069150.JPG
break,html.Screen,4_23_1,2023-09-13T20:42:29.375Z,,0,,,NaN,,,,,,false,,,,136977.79999995232,136977.69999992847,,136977.19999992847,,136988.446,8,400,,,
break_continue,html.Screen,4_23_2,2023-09-13T20:42:29.375Z,,0,,,NaN,,,,,,false,,,,136978.19999992847,136978.10000002384,,136977.89999997616,,136988.446,8,400,,,
sequence,flow.Sequence,4_23,2023-09-13T20:42:29.375Z,,0,,,4244.476000023831,completion,,,,,false,,,,136978.39999997616,136978.10000002384,132720.286,132731.79999995232,132733.624,136988.446,8,400,,,
trial,html.Screen,4_24_0,2023-09-13T20:42:31.952Z,,0,1,,2565.85399995232,response,ISIC_9442018.JPG,8,ISIC_0033938.JPG,ISIC_0033938.JPG,false,0,keypress(z),500,139554.79999995232,139554.29999995232,136975.108,136978.5,136988.446,139562.917,8,400,25,,ISIC_9442018.JPG
break,html.Screen,4_24_1,2023-09-13T20:42:31.953Z,,0,,,NaN,,,,,,false,,,,139555.79999995232,139555.5,,139555,,139562.917,8,400,,,
break_continue,html.Screen,4_24_2,2023-09-13T20:42:31.953Z,,0,,,NaN,,,,,,false,,,,139556.10000002384,139556,,139555.89999997616,,139562.917,8,400,,,
sequence,flow.Sequence,4_24,2023-09-13T20:42:31.953Z,,0,,,2567.5540000000037,completion,,,,,false,,,,139556.29999995232,139556,136975.108,136978.5,136988.446,139562.917,8,400,,,
trial,html.Screen,4_25_0,2023-09-13T20:42:34.511Z,,0,1,,2550.9829999761714,response,ISIC_0027187.JPG,8,ISIC_0021901.JPG,ISIC_0027187.JPG,false,1,keypress(m),500,142114.39999997616,142113.89999997616,139549.579,139556.5,139562.917,142123.813,8,400,26,,ISIC_0021901.JPG
break,html.Screen,4_25_1,2023-09-13T20:42:34.512Z,,0,,,NaN,,,,,,false,,,,142115.39999997616,142115.19999992847,,142114.69999992847,,142123.813,8,400,,,
break_continue,html.Screen,4_25_2,2023-09-13T20:42:34.513Z,,0,,,NaN,,,,,,false,,,,142115.69999992847,142115.60000002384,,142115.39999997616,,142123.813,8,400,,,
sequence,flow.Sequence,4_25,2023-09-13T20:42:34.513Z,,0,,,2552.683000023855,completion,,,,,false,,,,142115.89999997616,142115.60000002384,139549.579,139556.39999997616,139562.917,142123.813,8,400,,,
trial,html.Screen,4_26_0,2023-09-13T20:42:37.095Z,,0,1,,2573.9869999523216,response,ISIC_9125543.JPG,7,ISIC_0013652.JPG,ISIC_0013652.JPG,false,0,keypress(z),500,144698.29999995232,144697.79999995232,142110.475,142116,142123.813,144711.385,8,400,27,,ISIC_9125543.JPG
break,html.Screen,4_26_1,2023-09-13T20:42:37.096Z,,0,,,NaN,,,,,,false,,,,144699.29999995232,144699.10000002384,,144698.60000002384,,144711.385,8,400,,,
break_continue,html.Screen,4_26_2,2023-09-13T20:42:37.096Z,,0,,,NaN,,,,,,false,,,,144699.69999992847,144699.60000002384,,144699.5,,144711.385,8,400,,,
sequence,flow.Sequence,4_26,2023-09-13T20:42:37.097Z,,0,,,2575.787000023847,completion,,,,,false,,,,144699.89999997616,144699.60000002384,142110.475,142116,142123.813,144711.385,8,400,,,
trial,html.Screen,4_27_0,2023-09-13T20:42:39.597Z,,0,1,,2488.814999928465,response,ISIC_7637597.JPG,8,ISIC_0059314.JPG,ISIC_7637597.JPG,false,1,keypress(m),500,147200.69999992847,147200.19999992847,144698.047,144700,144711.385,147205.591,8,400,28,,ISIC_0059314.JPG
break,html.Screen,4_27_1,2023-09-13T20:42:39.598Z,,0,,,NaN,,,,,,false,,,,147201.60000002384,147201.5,,147201,,147205.591,8,400,,,
break_continue,html.Screen,4_27_2,2023-09-13T20:42:39.599Z,,0,,,NaN,,,,,,false,,,,147202,147201.89999997616,,147201.79999995232,,147205.591,8,400,,,
sequence,flow.Sequence,4_27,2023-09-13T20:42:39.599Z,,0,,,2490.514999976149,completion,,,,,false,,,,147202.10000002384,147201.89999997616,144698.047,144700,144711.385,147205.591,8,400,,,
trial,html.Screen,4_28_0,2023-09-13T20:42:42.672Z,,0,1,,3068.909000000014,response,ISIC_0002347.JPG,6,ISIC_7973598.JPG,ISIC_0002347.JPG,false,1,keypress(m),500,150275.10000002384,150274.5,147192.253,147202.29999995232,147205.591,150286.895,8,400,29,,ISIC_7973598.JPG
break,html.Screen,4_28_1,2023-09-13T20:42:42.673Z,,0,,,NaN,,,,,,false,,,,150276,150275.79999995232,,150275.29999995232,,150286.895,8,400,,,
break_continue,html.Screen,4_28_2,2023-09-13T20:42:42.673Z,,0,,,NaN,,,,,,false,,,,150276.29999995232,150276.29999995232,,150276.19999992847,,150286.895,8,400,,,
sequence,flow.Sequence,4_28,2023-09-13T20:42:42.673Z,,0,,,3070.7089999523305,completion,,,,,false,,,,150276.60000002384,150276.29999995232,147192.253,147202.29999995232,147205.591,150286.895,8,400,,,
trial,html.Screen,4_29_0,2023-09-13T20:42:45.703Z,,0,1,,3019.0049999761686,response,ISIC_1081430.JPG,8,ISIC_2822718.JPG,ISIC_1081430.JPG,false,1,keypress(m),500,153306.19999992847,153305.89999997616,150273.557,150276.69999992847,150286.895,153314.621,8,400,30,,ISIC_2822718.JPG
break,html.Screen,4_29_1,2023-09-13T20:42:45.704Z,,0,,,NaN,,,,,,false,,,,153307.10000002384,153306.79999995232,,153306.5,,153314.621,8,400,,,
break_continue,html.Screen,4_29_2,2023-09-13T20:42:45.704Z,,0,,,NaN,,,,,,false,,,,153307.39999997616,153307.29999995232,,153307.19999992847,,153314.621,8,400,,,
sequence,flow.Sequence,4_29,2023-09-13T20:42:45.704Z,,0,,,3020.4049999523268,completion,,,,,false,,,,153307.69999992847,153307.29999995232,150273.557,150276.69999992847,150286.895,153314.621,8,400,,,
trial,html.Screen,4_30_0,2023-09-13T20:42:48.269Z,,0,1,,2557.479000023828,response,ISIC_8068693.JPG,8,ISIC_0147869.JPG,ISIC_0147869.JPG,false,0,keypress(z),500,155872.69999992847,155872.10000002384,153301.283,153307.79999995232,153314.621,155875.517,8,400,31,,ISIC_8068693.JPG
break,html.Screen,4_30_1,2023-09-13T20:42:48.270Z,,0,,,NaN,,,,,,false,,,,155873.69999992847,155873.5,,155872.89999997616,,155875.517,8,400,,,
break_continue,html.Screen,4_30_2,2023-09-13T20:42:48.271Z,,0,,,NaN,,,,,,false,,,,155874,155873.89999997616,,155873.79999995232,,155875.517,8,400,,,
sequence,flow.Sequence,4_30,2023-09-13T20:42:48.271Z,,0,,,2559.2789999761444,completion,,,,,false,,,,155874.19999992847,155873.89999997616,153301.283,153307.69999992847,153314.621,155875.517,8,400,,,
trial,html.Screen,4_31_0,2023-09-13T20:42:51.071Z,,0,1,,2798.182999928482,response,ISIC_6535558.JPG,8,ISIC_0558485.JPG,ISIC_0558485.JPG,false,0,keypress(z),500,158674.10000002384,158673.69999992847,155862.179,155874.39999997616,155875.517,158676.497,8,400,32,,ISIC_6535558.JPG
break,html.Screen,4_31_1,2023-09-13T20:42:51.072Z,,0,,,NaN,,,,,,false,,,,158675.19999992847,158675,,158674.39999997616,,158676.497,8,400,,,
break_continue,html.Screen,4_31_2,2023-09-13T20:42:51.072Z,,0,,,NaN,,,,,,false,,,,158675.5,158675.5,,158675.29999995232,,158676.497,8,400,,,
sequence,flow.Sequence,4_31,2023-09-13T20:42:51.072Z,,0,,,2799.9830000000075,completion,,,,,false,,,,158675.79999995232,158675.5,155862.179,155874.29999995232,155875.517,158676.497,8,400,,,
trial,html.Screen,4_32_0,2023-09-13T20:42:53.509Z,,0,1,,2435.8029999523133,response,ISIC_7519274.JPG,7,ISIC_1597566.JPG,ISIC_7519274.JPG,false,1,keypress(m),500,161112.69999992847,161112.29999995232,158663.159,158675.89999997616,158676.497,161117.593,8,400,33,,ISIC_1597566.JPG
break,html.Screen,4_32_1,2023-09-13T20:42:53.510Z,,0,,,NaN,,,,,,false,,,,161113.69999992847,161113.5,,161113,,161117.593,8,400,,,
break_continue,html.Screen,4_32_2,2023-09-13T20:42:53.511Z,,0,,,NaN,,,,,,false,,,,161114.10000002384,161113.89999997616,,161113.79999995232,,161117.593,8,400,,,
sequence,flow.Sequence,4_32,2023-09-13T20:42:53.511Z,,0,,,2437.402999976155,completion,,,,,false,,,,161114.19999992847,161113.89999997616,158663.159,158675.89999997616,158676.497,161117.593,8,400,,,
trial,html.Screen,4_33_0,2023-09-13T20:42:56.124Z,,0,1,,2609.3069999761647,response,ISIC_6523645.JPG,6,ISIC_0029998.JPG,ISIC_6523645.JPG,false,1,keypress(m),500,163727.29999995232,163726.89999997616,161104.255,161114.39999997616,161117.593,163731.841,8,400,34,,ISIC_0029998.JPG
break,html.Screen,4_33_1,2023-09-13T20:42:56.125Z,,0,,,NaN,,,,,,false,,,,163728.29999995232,163728.10000002384,,163727.69999992847,,163731.841,8,400,,,
break_continue,html.Screen,4_33_2,2023-09-13T20:42:56.125Z,,0,,,NaN,,,,,,false,,,,163728.69999992847,163728.5,,163728.39999997616,,163731.841,8,400,,,
sequence,flow.Sequence,4_33,2023-09-13T20:42:56.125Z,,0,,,2610.9070000000065,completion,,,,,false,,,,163728.79999995232,163728.5,161104.255,161114.29999995232,161117.593,163731.841,8,400,,,
trial,html.Screen,4_34_0,2023-09-13T20:42:58.850Z,,0,1,,2721.3589999284886,response,ISIC_9740245.JPG,7,ISIC_0067601.JPG,ISIC_9740245.JPG,false,1,keypress(m),500,166453.69999992847,166453.19999992847,163718.503,163728.89999997616,163731.841,166466.131,8,400,35,,ISIC_0067601.JPG
break,html.Screen,4_34_1,2023-09-13T20:42:58.851Z,,0,,,NaN,,,,,,false,,,,166454.79999995232,166454.5,,166454,,166466.131,8,400,,,
break_continue,html.Screen,4_34_2,2023-09-13T20:42:58.852Z,,0,,,NaN,,,,,,false,,,,166455.10000002384,166454.89999997616,,166454.89999997616,,166466.131,8,400,,,
sequence,flow.Sequence,4_34,2023-09-13T20:42:58.852Z,,0,,,2723.0589999761723,completion,,,,,false,,,,166455.29999995232,166454.89999997616,163718.503,163728.79999995232,163731.841,166466.131,8,400,,,
trial,html.Screen,4_35_0,2023-09-13T20:43:01.385Z,,0,1,,2522.268999976164,response,ISIC_3716504.JPG,6,ISIC_3934537.JPG,ISIC_3934537.JPG,false,0,keypress(z),500,168988.89999997616,168988.39999997616,166452.793,166455.39999997616,166466.131,169000.351,8,400,36,,ISIC_3716504.JPG
break,html.Screen,4_35_1,2023-09-13T20:43:01.386Z,,0,,,NaN,,,,,,false,,,,168989.89999997616,168989.69999992847,,168989.19999992847,,169000.351,8,400,,,
break_continue,html.Screen,4_35_2,2023-09-13T20:43:01.387Z,,0,,,NaN,,,,,,false,,,,168990.19999992847,168990.10000002384,,168990,,169000.351,8,400,,,
sequence,flow.Sequence,4_35,2023-09-13T20:43:01.387Z,,0,,,2523.969000023848,completion,,,,,false,,,,168990.39999997616,168990.10000002384,166452.793,166455.29999995232,166466.131,169000.351,8,400,,,
trial,html.Screen,4_36_0,2023-09-13T20:43:03.975Z,,0,1,,2577.8489999284793,response,ISIC_0026470.JPG,8,ISIC_1410408.JPG,ISIC_1410408.JPG,false,0,keypress(z),500,171578.60000002384,171578.19999992847,168987.013,168990.60000002384,169000.351,171588.162,8,400,37,,ISIC_0026470.JPG
break,html.Screen,4_36_1,2023-09-13T20:43:03.976Z,,0,,,NaN,,,,,,false,,,,171579.29999995232,171579.19999992847,,171578.79999995232,,171588.162,8,400,,,
break_continue,html.Screen,4_36_2,2023-09-13T20:43:03.976Z,,0,,,NaN,,,,,,false,,,,171579.60000002384,171579.5,,171579.39999997616,,171588.162,8,400,,,
sequence,flow.Sequence,4_36,2023-09-13T20:43:03.976Z,,0,,,2579.149000000005,completion,,,,,false,,,,171579.69999992847,171579.5,168987.013,168990.5,169000.351,171588.162,8,400,,,
trial,html.Screen,4_37_0,2023-09-13T20:43:06.796Z,,0,1,,2811.0379999284633,response,ISIC_9331097.JPG,8,ISIC_0627979.JPG,ISIC_0627979.JPG,false,0,keypress(z),500,174399.69999992847,174399.19999992847,171574.824,171579.69999992847,171588.162,174402.48,8,400,38,,ISIC_9331097.JPG
break,html.Screen,4_37_1,2023-09-13T20:43:06.797Z,,0,,,NaN,,,,,,false,,,,174400.60000002384,174400.5,,174399.89999997616,,174402.48,8,400,,,
break_continue,html.Screen,4_37_2,2023-09-13T20:43:06.797Z,,0,,,NaN,,,,,,false,,,,174401,174400.79999995232,,174400.69999992847,,174402.48,8,400,,,
sequence,flow.Sequence,4_37,2023-09-13T20:43:06.797Z,,0,,,2812.637999952305,completion,,,,,false,,,,174401.10000002384,174400.79999995232,171574.824,171579.69999992847,171588.162,174402.48,8,400,,,
trial,html.Screen,4_38_0,2023-09-13T20:43:09.392Z,,0,1,,2593.1200000238314,response,ISIC_5457229.JPG,9,ISIC_0067597.JPG,ISIC_5457229.JPG,false,1,keypress(m),500,176996.19999992847,176995.60000002384,174389.142,174401.29999995232,174402.48,177003.39,8,400,39,,ISIC_0067597.JPG
break,html.Screen,4_38_1,2023-09-13T20:43:09.393Z,,0,,,NaN,,,,,,false,,,,176997.10000002384,176996.89999997616,,176996.39999997616,,177003.39,8,400,,,
break_continue,html.Screen,4_38_2,2023-09-13T20:43:09.394Z,,0,,,NaN,,,,,,false,,,,176997.5,176997.39999997616,,176997.19999992847,,177003.39,8,400,,,
sequence,flow.Sequence,4_38,2023-09-13T20:43:09.394Z,,0,,,2594.9199999761477,completion,,,,,false,,,,176997.60000002384,176997.39999997616,174389.142,174401.19999992847,174402.48,177003.39,8,400,,,
trial,html.Screen,4_39_0,2023-09-13T20:43:11.896Z,,0,1,,2495.609999999986,response,ISIC_8127578.JPG,7,ISIC_0033950.JPG,ISIC_8127578.JPG,false,1,keypress(m),500,179499.5,179499,176990.052,176997.79999995232,177003.39,179510.934,8,400,40,,ISIC_0033950.JPG
break,html.Screen,4_39_1,2023-09-13T20:43:11.897Z,,0,,,NaN,,,,,,false,,,,179500.5,179500.39999997616,,179499.89999997616,,179510.934,8,400,,,
break_continue,html.Screen,4_39_2,2023-09-13T20:43:11.897Z,,0,,,NaN,,,,,,false,,,,179500.79999995232,179500.79999995232,,179500.60000002384,,179510.934,8,400,,,
sequence,flow.Sequence,4_39,2023-09-13T20:43:11.897Z,,0,,,2497.4099999523023,completion,,,,,false,,,,179501.10000002384,179500.79999995232,176990.052,176997.69999992847,177003.39,179510.934,8,400,,,
trial,html.Screen,4_40_0,2023-09-13T20:43:14.382Z,,0,1,,2474.765999928466,response,ISIC_0056849.JPG,8,ISIC_1508215.JPG,ISIC_1508215.JPG,false,0,keypress(z),500,181986.10000002384,181985.69999992847,179497.596,179501.19999992847,179510.934,181992.042,8,400,41,,ISIC_0056849.JPG
break,html.Screen,4_40_1,2023-09-13T20:43:14.383Z,,0,,,NaN,,,,,,false,,,,181987.10000002384,181986.89999997616,,181986.5,,181992.042,8,400,,,
break_continue,html.Screen,4_40_2,2023-09-13T20:43:14.384Z,,0,,,NaN,,,,,,false,,,,181987.39999997616,181987.29999995232,,181987.19999992847,,181992.042,8,400,,,
sequence,flow.Sequence,4_40,2023-09-13T20:43:14.384Z,,0,,,2476.365999952308,completion,,,,,false,,,,181987.60000002384,181987.29999995232,179497.596,179501.19999992847,179510.934,181992.042,8,400,,,
trial,html.Screen,4_41_0,2023-09-13T20:43:16.834Z,,0,1,,2445.6579999284877,response,ISIC_5702591.JPG,7,ISIC_8654660.JPG,ISIC_5702591.JPG,false,1,keypress(m),500,184438,184437.69999992847,181978.704,181987.79999995232,181992.042,184446.234,8,400,42,,ISIC_8654660.JPG
break,html.Screen,4_41_1,2023-09-13T20:43:16.835Z,,0,,,NaN,,,,,,false,,,,184438.69999992847,184438.5,,184438.19999992847,,184446.234,8,400,,,
break_continue,html.Screen,4_41_2,2023-09-13T20:43:16.835Z,,0,,,NaN,,,,,,false,,,,184438.89999997616,184438.79999995232,,184438.69999992847,,184446.234,8,400,,,
sequence,flow.Sequence,4_41,2023-09-13T20:43:16.835Z,,0,,,2446.7579999523296,completion,,,,,false,,,,184439,184438.79999995232,181978.704,181987.69999992847,181992.042,184446.234,8,400,,,
trial,html.Screen,4_42_0,2023-09-13T20:43:19.296Z,,0,1,,2452.7660000000033,response,ISIC_5994645.JPG,8,ISIC_0053884.JPG,ISIC_5994645.JPG,false,1,keypress(m),500,186899.39999997616,186899,184432.896,184439.10000002384,184446.234,186913.764,8,400,43,,ISIC_0053884.JPG
break,html.Screen,4_42_1,2023-09-13T20:43:19.297Z,,0,,,NaN,,,,,,false,,,,186900.39999997616,186900.19999992847,,186899.79999995232,,186913.764,8,400,,,
break_continue,html.Screen,4_42_2,2023-09-13T20:43:19.297Z,,0,,,NaN,,,,,,false,,,,186900.79999995232,186900.60000002384,,186900.5,,186913.764,8,400,,,
sequence,flow.Sequence,4_42,2023-09-13T20:43:19.297Z,,0,,,2454.366000023845,completion,,,,,false,,,,186900.89999997616,186900.60000002384,184432.896,184439.10000002384,184446.234,186913.764,8,400,,,
trial,html.Screen,4_43_0,2023-09-13T20:43:21.711Z,,0,1,,2400.7360000000044,response,ISIC_0029071.JPG,8,ISIC_6209119.JPG,ISIC_6209119.JPG,false,0,keypress(z),500,189315,189314.5,186900.426,186901,186913.764,189327.942,8,400,44,,ISIC_0029071.JPG
break,html.Screen,4_43_1,2023-09-13T20:43:21.712Z,,0,,,NaN,,,,,,false,,,,189316,189315.79999995232,,189315.29999995232,,189327.942,8,400,,,
break_continue,html.Screen,4_43_2,2023-09-13T20:43:21.712Z,,0,,,NaN,,,,,,false,,,,189316.29999995232,189316.19999992847,,189316,,189327.942,8,400,,,
sequence,flow.Sequence,4_43,2023-09-13T20:43:21.713Z,,0,,,2402.435999928479,completion,,,,,false,,,,189316.60000002384,189316.19999992847,186900.426,186901,186913.764,189327.942,8,400,,,
trial,html.Screen,4_44_0,2023-09-13T20:43:24.175Z,,0,1,,2450.658000023832,response,ISIC_0000226.JPG,8,ISIC_0033476.JPG,ISIC_0000226.JPG,false,1,keypress(m),500,191779.10000002384,191778.60000002384,189314.604,189316.69999992847,189327.942,191782.381,8,400,45,,ISIC_0033476.JPG
break,html.Screen,4_44_1,2023-09-13T20:43:24.176Z,,0,,,NaN,,,,,,false,,,,191780,191779.79999995232,,191779.39999997616,,191782.381,8,400,,,
break_continue,html.Screen,4_44_2,2023-09-13T20:43:24.176Z,,0,,,NaN,,,,,,false,,,,191780.39999997616,191780.29999995232,,191780.10000002384,,191782.381,8,400,,,
sequence,flow.Sequence,4_44,2023-09-13T20:43:24.177Z,,0,,,2452.3579999523063,completion,,,,,false,,,,191780.60000002384,191780.29999995232,189314.604,189316.60000002384,189327.942,191782.381,8,400,,,
trial,html.Screen,4_45_0,2023-09-13T20:43:26.639Z,,0,1,,2460.018999976164,response,ISIC_5343231.JPG,7,ISIC_2634356.JPG,ISIC_2634356.JPG,false,0,keypress(z),500,194242.79999995232,194242.39999997616,191769.043,191780.69999992847,191782.381,194249.911,8,400,46,,ISIC_5343231.JPG
break,html.Screen,4_45_1,2023-09-13T20:43:26.640Z,,0,,,NaN,,,,,,false,,,,194243.89999997616,194243.60000002384,,194243.10000002384,,194249.911,8,400,,,
break_continue,html.Screen,4_45_2,2023-09-13T20:43:26.640Z,,0,,,NaN,,,,,,false,,,,194244.29999995232,194244.10000002384,,194243.89999997616,,194249.911,8,400,,,
sequence,flow.Sequence,4_45,2023-09-13T20:43:26.640Z,,0,,,2461.719000023848,completion,,,,,false,,,,194244.39999997616,194244.10000002384,191769.043,191780.69999992847,191782.381,194249.911,8,400,,,
trial,html.Screen,4_46_0,2023-09-13T20:43:29.023Z,,0,1,,2376.4889999761654,response,ISIC_4259290.JPG,8,ISIC_0028422.JPG,ISIC_4259290.JPG,false,1,keypress(m),500,196626.89999997616,196626.39999997616,194236.573,194244.5,194249.911,196637.413,8,400,47,,ISIC_0028422.JPG
break,html.Screen,4_46_1,2023-09-13T20:43:29.024Z,,0,,,NaN,,,,,,false,,,,196627.89999997616,196627.60000002384,,196627.19999992847,,196637.413,8,400,,,
break_continue,html.Screen,4_46_2,2023-09-13T20:43:29.024Z,,0,,,NaN,,,,,,false,,,,196628.29999995232,196628.19999992847,,196628,,196637.413,8,400,,,
sequence,flow.Sequence,4_46,2023-09-13T20:43:29.024Z,,0,,,2378.2889999284816,completion,,,,,false,,,,196628.39999997616,196628.19999992847,194236.573,194244.5,194249.911,196637.413,8,400,,,
trial,html.Screen,4_47_0,2023-09-13T20:43:31.557Z,,0,1,,2522.886999952316,response,ISIC_0031337.JPG,7,ISIC_0026369.JPG,ISIC_0031337.JPG,false,1,keypress(m),500,199160.79999995232,199160.29999995232,196624.075,196628.69999992847,196637.413,199171.633,8,400,48,,ISIC_0026369.JPG
break,html.Screen,4_47_1,2023-09-13T20:43:31.558Z,,0,,,NaN,,,,,,false,,,,199161.69999992847,199161.5,,199161,,199171.633,8,400,,,
break_continue,html.Screen,4_47_2,2023-09-13T20:43:31.558Z,,0,,,NaN,,,,,,false,,,,199162.19999992847,199161.89999997616,,199161.89999997616,,199171.633,8,400,,,
sequence,flow.Sequence,4_47,2023-09-13T20:43:31.558Z,,0,,,2524.4869999761577,completion,,,,,false,,,,199162.29999995232,199161.89999997616,196624.075,196628.60000002384,196637.413,199171.633,8,400,,,
trial,html.Screen,4_48_0,2023-09-13T20:43:34.089Z,,0,1,,2521.2669999761565,response,ISIC_5884700.JPG,9,ISIC_0011095.JPG,ISIC_5884700.JPG,false,1,keypress(m),500,201693.39999997616,201692.89999997616,199158.295,199162.5,199171.633,201706.085,8,400,49,,ISIC_0011095.JPG
break,html.Screen,4_48_1,2023-09-13T20:43:34.090Z,,0,,,NaN,,,,,,false,,,,201694.29999995232,201694.19999992847,,201693.60000002384,,201706.085,8,400,,,
break_continue,html.Screen,4_48_2,2023-09-13T20:43:34.091Z,,0,,,NaN,,,,,,false,,,,201694.69999992847,201694.60000002384,,201694.39999997616,,201706.085,8,400,,,
sequence,flow.Sequence,4_48,2023-09-13T20:43:34.091Z,,0,,,2522.9670000238402,completion,,,,,false,,,,201694.89999997616,201694.60000002384,199158.295,199162.39999997616,199171.633,201706.085,8,400,,,
trial,html.Screen,4_49_0,2023-09-13T20:43:36.526Z,,0,1,,2423.3149999761663,response,ISIC_0024732.JPG,8,ISIC_9029813.JPG,ISIC_9029813.JPG,false,0,keypress(z),500,204129.89999997616,204129.39999997616,201692.747,201694.89999997616,201706.085,204146.939,8,400,50,,ISIC_0024732.JPG
break,html.Screen,4_49_1,2023-09-13T20:43:46.537Z,,0,,,10003.733999999997,timeout,,,,,false,,,,214141.5,214137.335,204133.601,204130.10000002384,204146.939,214150.673,8,400,,,
break_continue,html.Screen,4_49_2,2023-09-13T20:43:48.160Z,,0,,,1601.2269999761484,response,,,,,false,continue,keypress(Space),,215764.39999997616,215751.89999997616,214137.335,214141.69999992847,214150.673,215777.909,8,400,,,
sequence,flow.Sequence,4_49,2023-09-13T20:43:48.160Z,,0,,,14045.814999976166,completion,,,,,false,,,,215764.60000002384,215751.89999997616,201692.747,201694.89999997616,201706.085,215777.909,8,400,,,
trial,html.Screen,4_50_0,2023-09-13T20:43:51.126Z,,0,2,,2951.490999976144,response,ISIC_0033061.JPG,9,ISIC_8901133.JPG,ISIC_8901133.JPG,false,0,keypress(z),500,218729.89999997616,218729.39999997616,215764.571,215764.60000002384,215777.909,218738.945,8,400,1,,ISIC_0033061.JPG
break,html.Screen,4_50_1,2023-09-13T20:43:51.127Z,,0,,,NaN,,,,,,false,,,,218730.89999997616,218730.69999992847,,218730.29999995232,,218738.945,8,400,,,
break_continue,html.Screen,4_50_2,2023-09-13T20:43:51.127Z,,0,,,NaN,,,,,,false,,,,218731.29999995232,218731.19999992847,,218731.10000002384,,218738.945,8,400,,,
sequence,flow.Sequence,4_50,2023-09-13T20:43:51.127Z,,0,,,2953.29099992846,completion,,,,,false,,,,218731.5,218731.19999992847,215764.571,215764.60000002384,215777.909,218738.945,8,400,,,
trial,html.Screen,4_51_0,2023-09-13T20:43:53.468Z,,0,2,,2332.8549999523093,response,ISIC_0025544.JPG,8,ISIC_0063243.JPG,ISIC_0025544.JPG,false,1,keypress(m),500,221072.29999995232,221071.79999995232,218725.607,218731.69999992847,218738.945,221086.433,8,400,2,,ISIC_0063243.JPG
break,html.Screen,4_51_1,2023-09-13T20:43:53.469Z,,0,,,NaN,,,,,,false,,,,221073.29999995232,221073.10000002384,,221072.5,,221086.433,8,400,,,
break_continue,html.Screen,4_51_2,2023-09-13T20:43:53.469Z,,0,,,NaN,,,,,,false,,,,221073.69999992847,221073.5,,221073.5,,221086.433,8,400,,,
sequence,flow.Sequence,4_51,2023-09-13T20:43:53.469Z,,0,,,2334.554999999993,completion,,,,,false,,,,221073.79999995232,221073.5,218725.607,218731.5,218738.945,221086.433,8,400,,,
trial,html.Screen,4_52_0,2023-09-13T20:43:56.035Z,,0,2,,2552.2669999284844,response,ISIC_0007622.JPG,8,ISIC_0392105.JPG,ISIC_0007622.JPG,false,1,keypress(m),500,223639.19999992847,223638.69999992847,221073.095,221073.89999997616,221086.433,223647.561,8,400,3,,ISIC_0392105.JPG
break,html.Screen,4_52_1,2023-09-13T20:43:56.036Z,,0,,,NaN,,,,,,false,,,,223640.10000002384,223640,,223639.5,,223647.561,8,400,,,
break_continue,html.Screen,4_52_2,2023-09-13T20:43:56.036Z,,0,,,NaN,,,,,,false,,,,223640.5,223640.39999997616,,223640.19999992847,,223647.561,8,400,,,
sequence,flow.Sequence,4_52,2023-09-13T20:43:56.036Z,,0,,,2553.966999976168,completion,,,,,false,,,,223640.79999995232,223640.39999997616,221073.095,221073.89999997616,221086.433,223647.561,8,400,,,
trial,html.Screen,4_53_0,2023-09-13T20:43:58.426Z,,0,2,,2382.939000000013,response,ISIC_6392089.JPG,8,ISIC_8479913.JPG,ISIC_8479913.JPG,false,0,keypress(z),500,226030.79999995232,226030.5,223634.223,223641,223647.561,226035.063,8,400,4,,ISIC_6392089.JPG
break,html.Screen,4_53_1,2023-09-13T20:43:58.427Z,,0,,,NaN,,,,,,false,,,,226031.89999997616,226031.60000002384,,226031.10000002384,,226035.063,8,400,,,
break_continue,html.Screen,4_53_2,2023-09-13T20:43:58.428Z,,0,,,NaN,,,,,,false,,,,226032.19999992847,226032.10000002384,,226032,,226035.063,8,400,,,
sequence,flow.Sequence,4_53,2023-09-13T20:43:58.428Z,,0,,,2384.539000023855,completion,,,,,false,,,,226032.29999995232,226032.10000002384,223634.223,223640.89999997616,223647.561,226035.063,8,400,,,
trial,html.Screen,4_54_0,2023-09-13T20:44:00.854Z,,0,2,,2422.7369999523216,response,ISIC_0028929.JPG,5,ISIC_4462476.JPG,ISIC_0028929.JPG,false,1,keypress(m),500,228458.29999995232,228457.79999995232,226021.725,226032.5,226035.063,228462.579,8,400,5,,ISIC_4462476.JPG
break,html.Screen,4_54_1,2023-09-13T20:44:00.855Z,,0,,,NaN,,,,,,false,,,,228459.19999992847,228459,,228458.60000002384,,228462.579,8,400,,,
break_continue,html.Screen,4_54_2,2023-09-13T20:44:00.855Z,,0,,,NaN,,,,,,false,,,,228459.60000002384,228459.5,,228459.39999997616,,228462.579,8,400,,,
sequence,flow.Sequence,4_54,2023-09-13T20:44:00.855Z,,0,,,2424.4370000000054,completion,,,,,false,,,,228459.69999992847,228459.5,226021.725,226032.39999997616,226035.063,228462.579,8,400,,,
trial,html.Screen,4_55_0,2023-09-13T20:44:03.329Z,,0,2,,2470.7209999523184,response,ISIC_5499139.JPG,6,ISIC_0014832.JPG,ISIC_5499139.JPG,false,1,keypress(m),500,230933.69999992847,230933.29999995232,228449.241,228459.89999997616,228462.579,230956.785,8,400,6,,ISIC_0014832.JPG
break,html.Screen,4_55_1,2023-09-13T20:44:03.330Z,,0,,,NaN,,,,,,false,,,,230934.60000002384,230934.39999997616,,230934,,230956.785,8,400,,,
break_continue,html.Screen,4_55_2,2023-09-13T20:44:03.330Z,,0,,,NaN,,,,,,false,,,,230935,230934.79999995232,,230934.69999992847,,230956.785,8,400,,,
sequence,flow.Sequence,4_55,2023-09-13T20:44:03.331Z,,0,,,2472.2209999523184,completion,,,,,false,,,,230935.10000002384,230934.79999995232,228449.241,228459.89999997616,228462.579,230956.785,8,400,,,
trial,html.Screen,4_56_0,2023-09-13T20:44:06.110Z,,0,2,,2757.414999928471,response,ISIC_0034065.JPG,7,ISIC_0068993.JPG,ISIC_0034065.JPG,false,1,keypress(m),500,233714.60000002384,233714.19999992847,230943.447,230935.29999995232,230956.785,233717.983,8,400,7,,ISIC_0068993.JPG
break,html.Screen,4_56_1,2023-09-13T20:44:06.111Z,,0,,,NaN,,,,,,false,,,,233715.5,233715.39999997616,,233714.89999997616,,233717.983,8,400,,,
break_continue,html.Screen,4_56_2,2023-09-13T20:44:06.111Z,,0,,,NaN,,,,,,false,,,,233715.89999997616,233715.69999992847,,233715.60000002384,,233717.983,8,400,,,
sequence,flow.Sequence,4_56,2023-09-13T20:44:06.111Z,,0,,,2758.914999928471,completion,,,,,false,,,,233716.10000002384,233715.69999992847,230943.447,230935.19999992847,230956.785,233717.983,8,400,,,
trial,html.Screen,4_57_0,2023-09-13T20:44:08.895Z,,0,2,,2780.816999952309,response,ISIC_0030072.JPG,8,ISIC_0066378.JPG,ISIC_0030072.JPG,false,1,keypress(m),500,236499.29999995232,236498.79999995232,233704.645,233716.10000002384,233717.983,236505.625,8,400,8,,ISIC_0066378.JPG
break,html.Screen,4_57_1,2023-09-13T20:44:08.896Z,,0,,,NaN,,,,,,false,,,,236500.19999992847,236500.10000002384,,236499.60000002384,,236505.625,8,400,,,
break_continue,html.Screen,4_57_2,2023-09-13T20:44:08.896Z,,0,,,NaN,,,,,,false,,,,236500.60000002384,236500.5,,236500.39999997616,,236505.625,8,400,,,
sequence,flow.Sequence,4_57,2023-09-13T20:44:08.896Z,,0,,,2782.5169999999925,completion,,,,,false,,,,236500.79999995232,236500.5,233704.645,233716.10000002384,233717.983,236505.625,8,400,,,
trial,html.Screen,4_58_0,2023-09-13T20:44:11.364Z,,0,2,,2463.274999976158,response,ISIC_0027327.JPG,7,ISIC_2355374.JPG,ISIC_2355374.JPG,false,0,keypress(z),500,238969,238968.89999997616,236492.287,236500.89999997616,236505.625,238973.155,8,400,9,,ISIC_0027327.JPG
break,html.Screen,4_58_1,2023-09-13T20:44:11.365Z,,0,,,NaN,,,,,,false,,,,238969.19999992847,238969.19999992847,,238969,,238973.155,8,400,,,
break_continue,html.Screen,4_58_2,2023-09-13T20:44:11.365Z,,0,,,NaN,,,,,,false,,,,238969.19999992847,238969.19999992847,,238969.19999992847,,238973.155,8,400,,,
sequence,flow.Sequence,4_58,2023-09-13T20:44:11.365Z,,0,,,2463.5749999284744,completion,,,,,false,,,,238969.29999995232,238969.19999992847,236492.287,236500.89999997616,236505.625,238973.155,8,400,,,
trial,html.Screen,4_59_0,2023-09-13T20:44:14.007Z,,0,2,,2638.0449999284756,response,ISIC_0010061.JPG,5,ISIC_0011366.JPG,ISIC_0011366.JPG,false,0,keypress(z),500,241611.60000002384,241611.19999992847,238959.817,238969.29999995232,238973.155,241614.308,8,400,10,,ISIC_0010061.JPG
break,html.Screen,4_59_1,2023-09-13T20:44:14.008Z,,0,,,NaN,,,,,,false,,,,241612.60000002384,241612.39999997616,,241611.89999997616,,241614.308,8,400,,,
break_continue,html.Screen,4_59_2,2023-09-13T20:44:14.008Z,,0,,,NaN,,,,,,false,,,,241613,241612.89999997616,,241612.69999992847,,241614.308,8,400,,,
sequence,flow.Sequence,4_59,2023-09-13T20:44:14.009Z,,0,,,2639.7449999761593,completion,,,,,false,,,,241613.19999992847,241612.89999997616,238959.817,238969.29999995232,238973.155,241614.308,8,400,,,
trial,html.Screen,4_60_0,2023-09-13T20:44:16.989Z,,0,2,,2978.8919999284844,response,ISIC_0057759.JPG,6,ISIC_0033644.JPG,ISIC_0033644.JPG,false,0,keypress(z),500,244593.69999992847,244593.19999992847,241600.97,241613.39999997616,241614.308,244602.02,8,400,11,,ISIC_0057759.JPG
break,html.Screen,4_60_1,2023-09-13T20:44:16.990Z,,0,,,NaN,,,,,,false,,,,244594.60000002384,244594.39999997616,,244594,,244602.02,8,400,,,
break_continue,html.Screen,4_60_2,2023-09-13T20:44:16.990Z,,0,,,NaN,,,,,,false,,,,244595,244594.89999997616,,244594.79999995232,,244602.02,8,400,,,
sequence,flow.Sequence,4_60,2023-09-13T20:44:16.990Z,,0,,,2980.591999976168,completion,,,,,false,,,,244595.19999992847,244594.89999997616,241600.97,241613.29999995232,241614.308,244602.02,8,400,,,
trial,html.Screen,4_61_0,2023-09-13T20:44:19.694Z,,0,2,,2696.3799999761686,response,ISIC_3797095.JPG,5,ISIC_0029825.JPG,ISIC_3797095.JPG,false,1,keypress(m),500,247298.79999995232,247298.39999997616,244588.682,244595.39999997616,244602.02,247309.634,8,400,12,,ISIC_0029825.JPG
break,html.Screen,4_61_1,2023-09-13T20:44:19.695Z,,0,,,NaN,,,,,,false,,,,247299.60000002384,247299.5,,247299,,247309.634,8,400,,,
break_continue,html.Screen,4_61_2,2023-09-13T20:44:19.695Z,,0,,,NaN,,,,,,false,,,,247300,247299.89999997616,,247299.79999995232,,247309.634,8,400,,,
sequence,flow.Sequence,4_61,2023-09-13T20:44:19.695Z,,0,,,2697.8799999761686,completion,,,,,false,,,,247300.19999992847,247299.89999997616,244588.682,244595.29999995232,244602.02,247309.634,8,400,,,
trial,html.Screen,4_62_0,2023-09-13T20:44:22.209Z,,0,2,,2503.866000000009,response,ISIC_0026264.JPG,5,ISIC_0021442.JPG,ISIC_0021442.JPG,false,0,keypress(z),500,249813.79999995232,249813.5,247296.296,247300.19999992847,247309.634,249817.178,8,400,13,,ISIC_0026264.JPG
break,html.Screen,4_62_1,2023-09-13T20:44:22.210Z,,0,,,NaN,,,,,,false,,,,249814.69999992847,249814.5,,249814.10000002384,,249817.178,8,400,,,
break_continue,html.Screen,4_62_2,2023-09-13T20:44:22.210Z,,0,,,NaN,,,,,,false,,,,249815,249814.79999995232,,249814.69999992847,,249817.178,8,400,,,
sequence,flow.Sequence,4_62,2023-09-13T20:44:22.210Z,,0,,,2505.1659999523254,completion,,,,,false,,,,249815.10000002384,249814.79999995232,247296.296,247300.19999992847,247309.634,249817.178,8,400,,,
trial,html.Screen,4_63_0,2023-09-13T20:44:28.014Z,,0,2,,5801.121999952302,response,ISIC_0027081.JPG,7,ISIC_1578399.JPG,ISIC_1578399.JPG,false,0,keypress(z),500,255618.79999995232,255618.29999995232,249803.84,249815.19999992847,249817.178,255632.775,8,400,14,,ISIC_0027081.JPG
break,html.Screen,4_63_1,2023-09-13T20:44:28.015Z,,0,,,NaN,,,,,,false,,,,255619.79999995232,255619.5,,255619.10000002384,,255632.775,8,400,,,
break_continue,html.Screen,4_63_2,2023-09-13T20:44:28.015Z,,0,,,NaN,,,,,,false,,,,255620.19999992847,255620,,255619.79999995232,,255632.775,8,400,,,
sequence,flow.Sequence,4_63,2023-09-13T20:44:28.015Z,,0,,,5802.821999999986,completion,,,,,false,,,,255620.39999997616,255620,249803.84,249815.19999992847,249817.178,255632.775,8,400,,,
trial,html.Screen,4_64_0,2023-09-13T20:44:31.078Z,,0,2,,3049.8250000238477,response,ISIC_6646939.JPG,8,ISIC_0064694.JPG,ISIC_6646939.JPG,false,1,keypress(m),500,258683.29999995232,258682.60000002384,255619.437,255620.5,255632.775,258687.177,8,400,15,,ISIC_0064694.JPG
break,html.Screen,4_64_1,2023-09-13T20:44:31.079Z,,0,,,NaN,,,,,,false,,,,258684.29999995232,258684.10000002384,,258683.5,,258687.177,8,400,,,
break_continue,html.Screen,4_64_2,2023-09-13T20:44:31.080Z,,0,,,NaN,,,,,,false,,,,258684.60000002384,258684.5,,258684.29999995232,,258687.177,8,400,,,
sequence,flow.Sequence,4_64,2023-09-13T20:44:31.080Z,,0,,,3051.725000000006,completion,,,,,false,,,,258684.79999995232,258684.5,255619.437,255620.5,255632.775,258687.177,8,400,,,
trial,html.Screen,4_65_0,2023-09-13T20:44:33.595Z,,0,2,,2512.222999976162,response,ISIC_0027769.JPG,7,ISIC_0059864.JPG,ISIC_0027769.JPG,false,1,keypress(m),500,261199.89999997616,261199.39999997616,258673.839,258685,258687.177,261208.059,8,400,16,,ISIC_0059864.JPG
break,html.Screen,4_65_1,2023-09-13T20:44:33.596Z,,0,,,NaN,,,,,,false,,,,261200.89999997616,261200.60000002384,,261200.19999992847,,261208.059,8,400,,,
break_continue,html.Screen,4_65_2,2023-09-13T20:44:33.596Z,,0,,,NaN,,,,,,false,,,,261201.19999992847,261201.10000002384,,261200.89999997616,,261208.059,8,400,,,
sequence,flow.Sequence,4_65,2023-09-13T20:44:33.596Z,,0,,,2513.923000023846,completion,,,,,false,,,,261201.29999995232,261201.10000002384,258673.839,258684.89999997616,258687.177,261208.059,8,400,,,
trial,html.Screen,4_66_0,2023-09-13T20:44:36.065Z,,0,2,,2461.5410000238335,response,ISIC_6882582.JPG,7,ISIC_0024214.JPG,ISIC_0024214.JPG,false,0,keypress(z),500,263670.1999999285,263669.60000002384,261194.721,261201.5,261208.059,263675.841,8,400,17,,ISIC_6882582.JPG
break,html.Screen,4_66_1,2023-09-13T20:44:36.066Z,,0,,,NaN,,,,,,false,,,,263671.10000002384,263670.89999997616,,263670.39999997616,,263675.841,8,400,,,
break_continue,html.Screen,4_66_2,2023-09-13T20:44:36.066Z,,0,,,NaN,,,,,,false,,,,263671.39999997616,263671.2999999523,,263671.1999999285,,263675.841,8,400,,,
sequence,flow.Sequence,4_66,2023-09-13T20:44:36.067Z,,0,,,2463.240999952308,completion,,,,,false,,,,263671.6999999285,263671.2999999523,261194.721,261201.39999997616,261208.059,263675.841,8,400,,,
trial,html.Screen,4_67_0,2023-09-13T20:44:38.566Z,,0,2,,2494.4589999523014,response,ISIC_0905367.JPG,7,ISIC_4882123.JPG,ISIC_4882123.JPG,false,0,keypress(z),500,266170.7999999523,266170.2999999523,263662.503,263671.7999999523,263675.841,266183.385,8,400,18,,ISIC_0905367.JPG
break,html.Screen,4_67_1,2023-09-13T20:44:38.567Z,,0,,,NaN,,,,,,false,,,,266171.89999997616,266171.6999999285,,266171.10000002384,,266183.385,8,400,,,
break_continue,html.Screen,4_67_2,2023-09-13T20:44:38.567Z,,0,,,NaN,,,,,,false,,,,266172.1999999285,266172.10000002384,,266172,,266183.385,8,400,,,
sequence,flow.Sequence,4_67,2023-09-13T20:44:38.567Z,,0,,,2496.259000023827,completion,,,,,false,,,,266172.5,266172.10000002384,263662.503,263671.6999999285,263675.841,266183.385,8,400,,,
trial,html.Screen,4_68_0,2023-09-13T20:44:41.309Z,,0,2,,2730.314999928465,response,ISIC_9788545.JPG,8,ISIC_9223156.JPG,ISIC_9788545.JPG,false,1,keypress(m),500,268913.89999997616,268913.6999999285,266170.047,266172.60000002384,266183.385,268917.675,8,400,19,,ISIC_9223156.JPG
break,html.Screen,4_68_1,2023-09-13T20:44:41.309Z,,0,,,NaN,,,,,,false,,,,268914.2999999523,268914.1999999285,,268914,,268917.675,8,400,,,
break_continue,html.Screen,4_68_2,2023-09-13T20:44:41.309Z,,0,,,NaN,,,,,,false,,,,268914.39999997616,268914.39999997616,,268914.2999999523,,268917.675,8,400,,,
sequence,flow.Sequence,4_68,2023-09-13T20:44:41.309Z,,0,,,2731.014999976149,completion,,,,,false,,,,268914.5,268914.39999997616,266170.047,266172.5,266183.385,268917.675,8,400,,,
trial,html.Screen,4_69_0,2023-09-13T20:44:44.498Z,,0,2,,3185.124999952328,response,ISIC_4153687.JPG,6,ISIC_6268546.JPG,ISIC_6268546.JPG,false,0,keypress(z),500,272103.2999999523,272102.7999999523,268904.337,268914.60000002384,268917.675,272105.457,8,400,20,,ISIC_4153687.JPG
break,html.Screen,4_69_1,2023-09-13T20:44:44.499Z,,0,,,NaN,,,,,,false,,,,272104.2999999523,272104.10000002384,,272103.60000002384,,272105.457,8,400,,,
break_continue,html.Screen,4_69_2,2023-09-13T20:44:44.500Z,,0,,,NaN,,,,,,false,,,,272104.60000002384,272104.5,,272104.39999997616,,272105.457,8,400,,,
sequence,flow.Sequence,4_69,2023-09-13T20:44:44.500Z,,0,,,3186.8250000000116,completion,,,,,false,,,,272104.7999999523,272104.5,268904.337,268914.5,268917.675,272105.457,8,400,,,
trial,html.Screen,4_70_0,2023-09-13T20:44:47.146Z,,0,2,,2645.4429999761633,response,ISIC_0060486.JPG,6,ISIC_6340792.JPG,ISIC_0060486.JPG,false,1,keypress(m),500,274751.39999997616,274750.89999997616,272092.119,272105,272105.457,274759.96,8,400,21,,ISIC_6340792.JPG
break,html.Screen,4_70_1,2023-09-13T20:44:47.147Z,,0,,,NaN,,,,,,false,,,,274752.60000002384,274752.2999999523,,274751.6999999285,,274759.96,8,400,,,
break_continue,html.Screen,4_70_2,2023-09-13T20:44:47.148Z,,0,,,NaN,,,,,,false,,,,274752.7999999523,274752.7999999523,,274752.6999999285,,274759.96,8,400,,,
sequence,flow.Sequence,4_70,2023-09-13T20:44:47.148Z,,0,,,2647.3429999523214,completion,,,,,false,,,,274753,274752.7999999523,272092.119,272105,272105.457,274759.96,8,400,,,
trial,html.Screen,4_71_0,2023-09-13T20:44:50.158Z,,0,2,,3002.939999976137,response,ISIC_0068447.JPG,8,ISIC_8659618.JPG,ISIC_8659618.JPG,false,0,keypress(z),500,277763.5,277762.89999997616,274746.622,274753.10000002384,274759.96,277774.348,8,400,22,,ISIC_0068447.JPG
break,html.Screen,4_71_1,2023-09-13T20:44:50.159Z,,0,,,NaN,,,,,,false,,,,277764.6999999285,277764.39999997616,,277763.89999997616,,277774.348,8,400,,,
break_continue,html.Screen,4_71_2,2023-09-13T20:44:50.160Z,,0,,,NaN,,,,,,false,,,,277765,277764.7999999523,,277764.7999999523,,277774.348,8,400,,,
sequence,flow.Sequence,4_71,2023-09-13T20:44:50.160Z,,0,,,3004.8399999522953,completion,,,,,false,,,,277765.10000002384,277764.7999999523,274746.622,274753.10000002384,274759.96,277774.348,8,400,,,
trial,html.Screen,4_72_0,2023-09-13T20:44:52.790Z,,0,2,,2619.951999952318,response,ISIC_5457889.JPG,8,ISIC_3561065.JPG,ISIC_3561065.JPG,false,0,keypress(z),500,280394.7999999523,280394.2999999523,277761.01,277765.2999999523,277774.348,280401.934,8,400,23,,ISIC_5457889.JPG
break,html.Screen,4_72_1,2023-09-13T20:44:52.791Z,,0,,,NaN,,,,,,false,,,,280395.89999997616,280395.60000002384,,280395.10000002384,,280401.934,8,400,,,
break_continue,html.Screen,4_72_2,2023-09-13T20:44:52.791Z,,0,,,NaN,,,,,,false,,,,280396.1999999285,280396.10000002384,,280396,,280401.934,8,400,,,
sequence,flow.Sequence,4_72,2023-09-13T20:44:52.791Z,,0,,,2621.7520000238437,completion,,,,,false,,,,280396.39999997616,280396.10000002384,277761.01,277765.1999999285,277774.348,280401.934,8,400,,,
trial,html.Screen,4_73_0,2023-09-13T20:44:55.221Z,,0,2,,2423.6660000238335,response,ISIC_7167811.JPG,8,ISIC_1714941.JPG,ISIC_7167811.JPG,false,1,keypress(m),500,282826,282825.60000002384,280388.596,280396.5,280401.934,282829.45,8,400,24,,ISIC_1714941.JPG
break,html.Screen,4_73_1,2023-09-13T20:44:55.222Z,,0,,,NaN,,,,,,false,,,,282827.10000002384,282826.7999999523,,282826.2999999523,,282829.45,8,400,,,
break_continue,html.Screen,4_73_2,2023-09-13T20:44:55.222Z,,0,,,NaN,,,,,,false,,,,282827.5,282827.2999999523,,282827.1999999285,,282829.45,8,400,,,
sequence,flow.Sequence,4_73,2023-09-13T20:44:55.222Z,,0,,,2425.365999952308,completion,,,,,false,,,,282827.60000002384,282827.2999999523,280388.596,280396.39999997616,280401.934,282829.45,8,400,,,
trial,html.Screen,4_74_0,2023-09-13T20:44:57.771Z,,0,2,,2546.749999928463,response,ISIC_0001148.JPG,7,ISIC_0945844.JPG,ISIC_0945844.JPG,false,0,keypress(z),500,285376.6999999285,285376.1999999285,282816.112,282827.7999999523,282829.45,285390.591,8,400,25,,ISIC_0001148.JPG
break,html.Screen,4_74_1,2023-09-13T20:44:57.772Z,,0,,,NaN,,,,,,false,,,,285377.6999999285,285377.5,,285377,,285390.591,8,400,,,
break_continue,html.Screen,4_74_2,2023-09-13T20:44:57.773Z,,0,,,NaN,,,,,,false,,,,285378,285377.7999999523,,285377.7999999523,,285390.591,8,400,,,
sequence,flow.Sequence,4_74,2023-09-13T20:44:57.773Z,,0,,,2548.3499999523046,completion,,,,,false,,,,285378.1999999285,285377.7999999523,282816.112,282827.6999999285,282829.45,285390.591,8,400,,,
trial,html.Screen,4_75_0,2023-09-13T20:45:00.494Z,,0,2,,2707.908999999985,response,ISIC_0054677.JPG,6,ISIC_5569568.JPG,ISIC_5569568.JPG,false,0,keypress(z),500,288099.10000002384,288098.5,285377.253,285378.1999999285,285390.591,288111.543,8,400,26,,ISIC_0054677.JPG
break,html.Screen,4_75_1,2023-09-13T20:45:00.495Z,,0,,,NaN,,,,,,false,,,,288100.1999999285,288099.89999997616,,288099.2999999523,,288111.543,8,400,,,
break_continue,html.Screen,4_75_2,2023-09-13T20:45:00.495Z,,0,,,NaN,,,,,,false,,,,288100.5,288100.39999997616,,288100.2999999523,,288111.543,8,400,,,
sequence,flow.Sequence,4_75,2023-09-13T20:45:00.495Z,,0,,,2709.8089999761432,completion,,,,,false,,,,288100.6999999285,288100.39999997616,285377.253,285378.1999999285,285390.591,288111.543,8,400,,,
trial,html.Screen,4_76_0,2023-09-13T20:45:03.491Z,,0,2,,2984.0570000238367,response,ISIC_0008619.JPG,8,ISIC_9822801.JPG,ISIC_0008619.JPG,false,1,keypress(m),500,291096.10000002384,291095.60000002384,288098.205,288100.89999997616,288111.543,291099.255,8,400,27,,ISIC_9822801.JPG
break,html.Screen,4_76_1,2023-09-13T20:45:03.492Z,,0,,,NaN,,,,,,false,,,,291097.10000002384,291097,,291096.39999997616,,291099.255,8,400,,,
break_continue,html.Screen,4_76_2,2023-09-13T20:45:03.492Z,,0,,,NaN,,,,,,false,,,,291097.5,291097.39999997616,,291097.2999999523,,291099.255,8,400,,,
sequence,flow.Sequence,4_76,2023-09-13T20:45:03.492Z,,0,,,2985.856999976153,completion,,,,,false,,,,291097.6999999285,291097.39999997616,288098.205,288100.89999997616,288111.543,291099.255,8,400,,,
trial,html.Screen,4_77_0,2023-09-13T20:45:06.598Z,,0,2,,3104.0449999523116,response,ISIC_0033603.JPG,8,ISIC_7528996.JPG,ISIC_7528996.JPG,false,0,keypress(z),500,294203.6999999285,294203.2999999523,291085.917,291097.7999999523,291099.255,294207.009,8,400,28,,ISIC_0033603.JPG
break,html.Screen,4_77_1,2023-09-13T20:45:06.599Z,,0,,,NaN,,,,,,false,,,,294204.6999999285,294204.5,,294204,,294207.009,8,400,,,
break_continue,html.Screen,4_77_2,2023-09-13T20:45:06.600Z,,0,,,NaN,,,,,,false,,,,294205.10000002384,294205,,294204.89999997616,,294207.009,8,400,,,
sequence,flow.Sequence,4_77,2023-09-13T20:45:06.600Z,,0,,,3105.7449999999953,completion,,,,,false,,,,294205.2999999523,294205,291085.917,291097.7999999523,291099.255,294207.009,8,400,,,
trial,html.Screen,4_78_0,2023-09-13T20:45:09.157Z,,0,2,,2555.1909999284544,response,ISIC_3386753.JPG,7,ISIC_2445475.JPG,ISIC_2445475.JPG,false,0,keypress(z),500,296762.6999999285,296762.1999999285,294193.671,294205.5,294207.009,296768.144,8,400,29,,ISIC_3386753.JPG
break,html.Screen,4_78_1,2023-09-13T20:45:09.158Z,,0,,,NaN,,,,,,false,,,,296763.6999999285,296763.60000002384,,296763,,296768.144,8,400,,,
break_continue,html.Screen,4_78_2,2023-09-13T20:45:09.159Z,,0,,,NaN,,,,,,false,,,,296764.10000002384,296764,,296763.89999997616,,296768.144,8,400,,,
sequence,flow.Sequence,4_78,2023-09-13T20:45:09.159Z,,0,,,2556.99099999998,completion,,,,,false,,,,296764.1999999285,296764,294193.671,294205.2999999523,294207.009,296768.144,8,400,,,
trial,html.Screen,4_79_0,2023-09-13T20:45:11.717Z,,0,2,,2553.9560000238707,response,ISIC_3775417.JPG,7,ISIC_0060050.JPG,ISIC_0060050.JPG,false,0,keypress(z),500,299322.6999999285,299322.10000002384,296754.806,296764.39999997616,296768.144,299329.04,8,400,30,,ISIC_3775417.JPG
break,html.Screen,4_79_1,2023-09-13T20:45:11.718Z,,0,,,NaN,,,,,,false,,,,299323.6999999285,299323.39999997616,,299323,,299329.04,8,400,,,
break_continue,html.Screen,4_79_2,2023-09-13T20:45:11.718Z,,0,,,NaN,,,,,,false,,,,299324,299323.89999997616,,299323.7999999523,,299329.04,8,400,,,
sequence,flow.Sequence,4_79,2023-09-13T20:45:11.719Z,,0,,,2555.755999976187,completion,,,,,false,,,,299324.1999999285,299323.89999997616,296754.806,296764.39999997616,296768.144,299329.04,8,400,,,
trial,html.Screen,4_80_0,2023-09-13T20:45:14.341Z,,0,2,,2617.359999976179,response,ISIC_0058828.JPG,8,ISIC_9556334.JPG,ISIC_9556334.JPG,false,0,keypress(z),500,301946.89999997616,301946.39999997616,299315.702,299324.2999999523,299329.04,301956.626,8,400,31,,ISIC_0058828.JPG
break,html.Screen,4_80_1,2023-09-13T20:45:14.342Z,,0,,,NaN,,,,,,false,,,,301947.89999997616,301947.6999999285,,301947.1999999285,,301956.626,8,400,,,
break_continue,html.Screen,4_80_2,2023-09-13T20:45:14.343Z,,0,,,NaN,,,,,,false,,,,301948.39999997616,301948.2999999523,,301948.1999999285,,301956.626,8,400,,,
sequence,flow.Sequence,4_80,2023-09-13T20:45:14.343Z,,0,,,2619.2599999523372,completion,,,,,false,,,,301948.60000002384,301948.2999999523,299315.702,299324.2999999523,299329.04,301956.626,8,400,,,
trial,html.Screen,4_81_0,2023-09-13T20:45:16.892Z,,0,2,,2540.573999928485,response,ISIC_0025464.JPG,5,ISIC_5194705.JPG,ISIC_5194705.JPG,false,0,keypress(z),500,304497.6999999285,304497.1999999285,301943.288,301948.6999999285,301956.626,304504.184,8,400,32,,ISIC_0025464.JPG
break,html.Screen,4_81_1,2023-09-13T20:45:16.893Z,,0,,,NaN,,,,,,false,,,,304498.60000002384,304498.5,,304497.89999997616,,304504.184,8,400,,,
break_continue,html.Screen,4_81_2,2023-09-13T20:45:16.893Z,,0,,,NaN,,,,,,false,,,,304499.10000002384,304498.89999997616,,304498.7999999523,,304504.184,8,400,,,
sequence,flow.Sequence,4_81,2023-09-13T20:45:16.894Z,,0,,,2542.273999976169,completion,,,,,false,,,,304499.2999999523,304498.89999997616,301943.288,301948.60000002384,301956.626,304504.184,8,400,,,
trial,html.Screen,4_82_0,2023-09-13T20:45:19.649Z,,0,2,,2750.615999952308,response,ISIC_3649766.JPG,6,ISIC_2819721.JPG,ISIC_3649766.JPG,false,1,keypress(m),500,307255.1999999285,307254.7999999523,304490.846,304499.39999997616,304504.184,307265.386,8,400,33,,ISIC_2819721.JPG
break,html.Screen,4_82_1,2023-09-13T20:45:19.650Z,,0,,,NaN,,,,,,false,,,,307256.1999999285,307255.89999997616,,307255.39999997616,,307265.386,8,400,,,
break_continue,html.Screen,4_82_2,2023-09-13T20:45:19.651Z,,0,,,NaN,,,,,,false,,,,307256.39999997616,307256.2999999523,,307256.2999999523,,307265.386,8,400,,,
sequence,flow.Sequence,4_82,2023-09-13T20:45:19.651Z,,0,,,2752.115999952308,completion,,,,,false,,,,307256.6999999285,307256.2999999523,304490.846,304499.39999997616,304504.184,307265.386,8,400,,,
trial,html.Screen,4_83_0,2023-09-13T20:45:22.076Z,,0,2,,2416.0139999761595,response,ISIC_3757004.JPG,8,ISIC_2259190.JPG,ISIC_2259190.JPG,false,0,keypress(z),500,309681.7999999523,309681.39999997616,307252.048,307256.7999999523,307265.386,309692.902,8,400,34,,ISIC_3757004.JPG
break,html.Screen,4_83_1,2023-09-13T20:45:22.077Z,,0,,,NaN,,,,,,false,,,,309682.39999997616,309682.2999999523,,309682,,309692.902,8,400,,,
break_continue,html.Screen,4_83_2,2023-09-13T20:45:22.077Z,,0,,,NaN,,,,,,false,,,,309682.6999999285,309682.60000002384,,309682.60000002384,,309692.902,8,400,,,
sequence,flow.Sequence,4_83,2023-09-13T20:45:22.077Z,,0,,,2417.2140000238433,completion,,,,,false,,,,309682.7999999523,309682.60000002384,307252.048,307256.7999999523,307265.386,309692.902,8,400,,,
trial,html.Screen,4_84_0,2023-09-13T20:45:24.656Z,,0,2,,2568.097999999998,response,ISIC_1105263.JPG,6,ISIC_7136995.JPG,ISIC_7136995.JPG,false,0,keypress(z),500,312261.5,312261,309679.564,309683,309692.902,312267.136,8,400,35,,ISIC_1105263.JPG
break,html.Screen,4_84_1,2023-09-13T20:45:24.657Z,,0,,,NaN,,,,,,false,,,,312262.39999997616,312262.1999999285,,312261.6999999285,,312267.136,8,400,,,
break_continue,html.Screen,4_84_2,2023-09-13T20:45:24.657Z,,0,,,NaN,,,,,,false,,,,312262.7999999523,312262.60000002384,,312262.60000002384,,312267.136,8,400,,,
sequence,flow.Sequence,4_84,2023-09-13T20:45:24.657Z,,0,,,2569.69800002384,completion,,,,,false,,,,312262.89999997616,312262.60000002384,309679.564,309682.89999997616,309692.902,312267.136,8,400,,,
trial,html.Screen,4_85_0,2023-09-13T20:45:27.574Z,,0,2,,2912.563999928476,response,ISIC_0033534.JPG,8,ISIC_0034002.JPG,ISIC_0034002.JPG,false,0,keypress(z),500,315180.1999999285,315179.6999999285,312253.798,312263.10000002384,312267.136,315188.393,8,400,36,,ISIC_0033534.JPG
break,html.Screen,4_85_1,2023-09-13T20:45:27.575Z,,0,,,NaN,,,,,,false,,,,315181.2999999523,315181,,315180.5,,315188.393,8,400,,,
break_continue,html.Screen,4_85_2,2023-09-13T20:45:27.576Z,,0,,,NaN,,,,,,false,,,,315181.5,315181.39999997616,,315181.2999999523,,315188.393,8,400,,,
sequence,flow.Sequence,4_85,2023-09-13T20:45:27.576Z,,0,,,2914.2639999761595,completion,,,,,false,,,,315181.6999999285,315181.39999997616,312253.798,312263,312267.136,315188.393,8,400,,,
trial,html.Screen,4_86_0,2023-09-13T20:45:30.525Z,,0,2,,2941.8069999284926,response,ISIC_5581297.JPG,6,ISIC_1531204.JPG,ISIC_1531204.JPG,false,0,keypress(z),500,318130.7999999523,318130.1999999285,315175.055,315181.89999997616,315188.393,318136.091,8,400,37,,ISIC_5581297.JPG
break,html.Screen,4_86_1,2023-09-13T20:45:30.526Z,,0,,,NaN,,,,,,false,,,,318131.7999999523,318131.5,,318131.10000002384,,318136.091,8,400,,,
break_continue,html.Screen,4_86_2,2023-09-13T20:45:30.526Z,,0,,,NaN,,,,,,false,,,,318132,318132,,318131.89999997616,,318136.091,8,400,,,
sequence,flow.Sequence,4_86,2023-09-13T20:45:30.526Z,,0,,,2943.607000000018,completion,,,,,false,,,,318132.1999999285,318132,315175.055,315181.7999999523,315188.393,318136.091,8,400,,,
trial,html.Screen,4_87_0,2023-09-13T20:45:33.219Z,,0,2,,2688.408999999985,response,ISIC_5966190.JPG,6,ISIC_3738751.JPG,ISIC_5966190.JPG,false,1,keypress(m),500,320825.10000002384,320824.5,318122.753,318132.39999997616,318136.091,320830.367,8,400,38,,ISIC_3738751.JPG
break,html.Screen,4_87_1,2023-09-13T20:45:33.220Z,,0,,,NaN,,,,,,false,,,,320826.10000002384,320825.89999997616,,320825.2999999523,,320830.367,8,400,,,
break_continue,html.Screen,4_87_2,2023-09-13T20:45:33.221Z,,0,,,NaN,,,,,,false,,,,320826.5,320826.39999997616,,320826.1999999285,,320830.367,8,400,,,
sequence,flow.Sequence,4_87,2023-09-13T20:45:33.221Z,,0,,,2690.3089999761432,completion,,,,,false,,,,320826.6999999285,320826.39999997616,318122.753,318132.2999999523,318136.091,320830.367,8,400,,,
trial,html.Screen,4_88_0,2023-09-13T20:45:35.800Z,,0,2,,2574.5329999761307,response,ISIC_0026497.JPG,8,ISIC_8969855.JPG,ISIC_8969855.JPG,false,0,keypress(z),500,323405.5,323404.89999997616,320817.029,320826.89999997616,320830.367,323417.939,8,400,39,,ISIC_0026497.JPG
break,html.Screen,4_88_1,2023-09-13T20:45:35.800Z,,0,,,NaN,,,,,,false,,,,323406.5,323406.1999999285,,323405.6999999285,,323417.939,8,400,,,
break_continue,html.Screen,4_88_2,2023-09-13T20:45:35.801Z,,0,,,NaN,,,,,,false,,,,323406.6999999285,323406.60000002384,,323406.5,,323417.939,8,400,,,
sequence,flow.Sequence,4_88,2023-09-13T20:45:35.801Z,,0,,,2576.2330000238144,completion,,,,,false,,,,323406.89999997616,323406.60000002384,320817.029,320826.7999999523,320830.367,323417.939,8,400,,,
trial,html.Screen,4_89_0,2023-09-13T20:45:38.687Z,,0,2,,2874.7609999284614,response,ISIC_0056092.JPG,8,ISIC_3568218.JPG,ISIC_3568218.JPG,false,0,keypress(z),500,326293.2999999523,326292.6999999285,323404.601,323407.10000002384,323417.939,326299.177,8,400,40,,ISIC_0056092.JPG
break,html.Screen,4_89_1,2023-09-13T20:45:38.688Z,,0,,,NaN,,,,,,false,,,,326294.1999999285,326294,,326293.5,,326299.177,8,400,,,
break_continue,html.Screen,4_89_2,2023-09-13T20:45:38.689Z,,0,,,NaN,,,,,,false,,,,326294.60000002384,326294.5,,326294.2999999523,,326299.177,8,400,,,
sequence,flow.Sequence,4_89,2023-09-13T20:45:38.689Z,,0,,,2876.560999999987,completion,,,,,false,,,,326294.6999999285,326294.5,323404.601,323407,323417.939,326299.177,8,400,,,
trial,html.Screen,4_90_0,2023-09-13T20:45:41.253Z,,0,2,,2559.622999952291,response,ISIC_5623844.JPG,8,ISIC_8321148.JPG,ISIC_5623844.JPG,false,1,keypress(m),500,328859.39999997616,328858.7999999523,326285.839,326294.7999999523,326299.177,328873.411,8,400,41,,ISIC_8321148.JPG
break,html.Screen,4_90_1,2023-09-13T20:45:41.254Z,,0,,,NaN,,,,,,false,,,,328860.2999999523,328860.10000002384,,328859.60000002384,,328873.411,8,400,,,
break_continue,html.Screen,4_90_2,2023-09-13T20:45:41.255Z,,0,,,NaN,,,,,,false,,,,328860.60000002384,328860.5,,328860.39999997616,,328873.411,8,400,,,
sequence,flow.Sequence,4_90,2023-09-13T20:45:41.255Z,,0,,,2561.322999999975,completion,,,,,false,,,,328860.7999999523,328860.5,326285.839,326294.7999999523,326299.177,328873.411,8,400,,,
trial,html.Screen,4_91_0,2023-09-13T20:45:43.637Z,,0,2,,2368.68900002382,response,ISIC_4055361.JPG,7,ISIC_2731621.JPG,ISIC_2731621.JPG,false,0,keypress(z),500,331242.6999999285,331242.10000002384,328860.073,328860.89999997616,328873.411,331247.575,8,400,42,,ISIC_4055361.JPG
break,html.Screen,4_91_1,2023-09-13T20:45:43.638Z,,0,,,NaN,,,,,,false,,,,331243.6999999285,331243.39999997616,,331243,,331247.575,8,400,,,
break_continue,html.Screen,4_91_2,2023-09-13T20:45:43.638Z,,0,,,NaN,,,,,,false,,,,331244,331243.7999999523,,331243.6999999285,,331247.575,8,400,,,
sequence,flow.Sequence,4_91,2023-09-13T20:45:43.638Z,,0,,,2370.3889999522944,completion,,,,,false,,,,331244.1999999285,331243.7999999523,328860.073,328860.89999997616,328873.411,331247.575,8,400,,,
trial,html.Screen,4_92_0,2023-09-13T20:45:46.155Z,,0,2,,2513.3249999761465,response,ISIC_8363069.JPG,8,ISIC_1569775.JPG,ISIC_1569775.JPG,false,0,keypress(z),500,333761.5,333760.89999997616,331234.237,331244.2999999523,331247.575,333768.457,8,400,43,,ISIC_8363069.JPG
break,html.Screen,4_92_1,2023-09-13T20:45:46.156Z,,0,,,NaN,,,,,,false,,,,333762.39999997616,333762.2999999523,,333761.7999999523,,333768.457,8,400,,,
break_continue,html.Screen,4_92_2,2023-09-13T20:45:46.157Z,,0,,,NaN,,,,,,false,,,,333762.7999999523,333762.6999999285,,333762.5,,333768.457,8,400,,,
sequence,flow.Sequence,4_92,2023-09-13T20:45:46.157Z,,0,,,2515.124999928463,completion,,,,,false,,,,333763,333762.6999999285,331234.237,331244.2999999523,331247.575,333768.457,8,400,,,
trial,html.Screen,4_93_0,2023-09-13T20:45:48.815Z,,0,2,,2652.643000023847,response,ISIC_0059625.JPG,8,ISIC_0010810.JPG,ISIC_0059625.JPG,false,1,keypress(m),500,336421.2999999523,336421.10000002384,333755.119,333763.10000002384,333768.457,336422.955,8,400,44,,ISIC_0010810.JPG
break,html.Screen,4_93_1,2023-09-13T20:45:48.816Z,,0,,,NaN,,,,,,false,,,,336422.10000002384,336421.89999997616,,336421.5,,336422.955,8,400,,,
break_continue,html.Screen,4_93_2,2023-09-13T20:45:48.816Z,,0,,,NaN,,,,,,false,,,,336422.39999997616,336422.2999999523,,336422.1999999285,,336422.955,8,400,,,
sequence,flow.Sequence,4_93,2023-09-13T20:45:48.816Z,,0,,,2653.8429999523214,completion,,,,,false,,,,336422.60000002384,336422.2999999523,333755.119,333763.10000002384,333768.457,336422.955,8,400,,,
trial,html.Screen,4_94_0,2023-09-13T20:45:51.292Z,,0,2,,2475.1450000238256,response,ISIC_0064284.JPG,5,ISIC_5501183.JPG,ISIC_5501183.JPG,false,0,keypress(z),500,338898.39999997616,338898.10000002384,336409.617,336422.60000002384,336422.955,338917.161,8,400,45,,ISIC_0064284.JPG
break,html.Screen,4_94_1,2023-09-13T20:45:51.293Z,,0,,,NaN,,,,,,false,,,,338899.2999999523,338899.1999999285,,338898.6999999285,,338917.161,8,400,,,
break_continue,html.Screen,4_94_2,2023-09-13T20:45:51.294Z,,0,,,NaN,,,,,,false,,,,338899.6999999285,338899.60000002384,,338899.5,,338917.161,8,400,,,
sequence,flow.Sequence,4_94,2023-09-13T20:45:51.294Z,,0,,,2476.6450000238256,completion,,,,,false,,,,338899.7999999523,338899.60000002384,336409.617,336422.60000002384,336422.955,338917.161,8,400,,,
trial,html.Screen,4_95_0,2023-09-13T20:45:53.601Z,,0,2,,2289.7389999761363,response,ISIC_0072943.JPG,8,ISIC_0053554.JPG,ISIC_0072943.JPG,false,1,keypress(m),500,341207.39999997616,341206.89999997616,338903.823,338900.10000002384,338917.161,341224.635,8,400,46,,ISIC_0053554.JPG
break,html.Screen,4_95_1,2023-09-13T20:45:53.602Z,,0,,,NaN,,,,,,false,,,,341208.2999999523,341208.1999999285,,341207.6999999285,,341224.635,8,400,,,
break_continue,html.Screen,4_95_2,2023-09-13T20:45:53.602Z,,0,,,NaN,,,,,,false,,,,341208.6999999285,341208.5,,341208.5,,341224.635,8,400,,,
sequence,flow.Sequence,4_95,2023-09-13T20:45:53.603Z,,0,,,2291.338999999978,completion,,,,,false,,,,341208.7999999523,341208.5,338903.823,338899.89999997616,338917.161,341224.635,8,400,,,
trial,html.Screen,4_96_0,2023-09-13T20:45:57.339Z,,0,2,,3720.4650000238325,response,ISIC_0010810.JPG,8,ISIC_0069192.JPG,ISIC_0010810.JPG,false,1,keypress(m),500,344945.1999999285,344945.10000002384,341211.297,341208.89999997616,341224.635,344945.937,8,400,47,,ISIC_0069192.JPG
break,html.Screen,4_96_1,2023-09-13T20:45:57.339Z,,0,,,NaN,,,,,,false,,,,344945.5,344945.39999997616,,344945.2999999523,,344945.937,8,400,,,
break_continue,html.Screen,4_96_2,2023-09-13T20:45:57.339Z,,0,,,NaN,,,,,,false,,,,344945.60000002384,344945.5,,344945.5,,344945.937,8,400,,,
sequence,flow.Sequence,4_96,2023-09-13T20:45:57.339Z,,0,,,3720.8649999999907,completion,,,,,false,,,,344945.60000002384,344945.5,341211.297,341208.89999997616,341224.635,344945.937,8,400,,,
trial,html.Screen,4_97_0,2023-09-13T20:46:09.028Z,,0,2,,12484.368000000017,timeout,ISIC_0063225.JPG,191,ISIC_3234908.JPG,,false,,,500,356634.6999999285,356634.39999997616,344932.599,344945.60000002384,344945.937,357430.305,8,400,48,,
break,html.Screen,4_97_1,2023-09-13T20:46:09.029Z,,0,,,NaN,,,,,,false,,,,356635.10000002384,356635,,356634.7999999523,,357430.305,8,400,,,
break_continue,html.Screen,4_97_2,2023-09-13T20:46:09.029Z,,0,,,NaN,,,,,,false,,,,356635.1999999285,356635.1999999285,,356635.1999999285,,357430.305,8,400,,,
sequence,flow.Sequence,4_97,2023-09-13T20:46:09.029Z,,0,,,11689.262999928498,completion,,,,,false,,,,356635.2999999523,356635.1999999285,344932.599,344945.60000002384,344945.937,357430.305,8,400,,,
trial,html.Screen,4_98_0,2023-09-13T20:46:12.408Z,,0,2,,2583.594999976165,response,ISIC_0009991.JPG,9,ISIC_0060817.JPG,ISIC_0009991.JPG,false,1,keypress(m),500,360014.39999997616,360013.89999997616,357416.967,356635.39999997616,357430.305,360018.387,8,400,49,,ISIC_0060817.JPG
break,html.Screen,4_98_1,2023-09-13T20:46:12.409Z,,0,,,NaN,,,,,,false,,,,360015.2999999523,360015.10000002384,,360014.60000002384,,360018.387,8,400,,,
break_continue,html.Screen,4_98_2,2023-09-13T20:46:12.409Z,,0,,,NaN,,,,,,false,,,,360015.6999999285,360015.5,,360015.39999997616,,360018.387,8,400,,,
sequence,flow.Sequence,4_98,2023-09-13T20:46:12.409Z,,0,,,2585.195000000007,completion,,,,,false,,,,360015.7999999523,360015.5,357416.967,356635.39999997616,357430.305,360018.387,8,400,,,
trial,html.Screen,4_99_0,2023-09-13T20:46:14.932Z,,0,2,,2519.3129999284865,response,ISIC_5484086.JPG,6,ISIC_0010416.JPG,ISIC_5484086.JPG,false,1,keypress(m),500,362538.2999999523,362537.6999999285,360005.049,360015.89999997616,360018.387,362539.269,8,400,50,,ISIC_0010416.JPG
break,html.Screen,4_99_1,2023-09-13T20:46:24.926Z,,0,,,10003.728000000003,timeout,,,,,false,,,,372533,372529.659,362525.931,362538.5,362539.269,372542.997,8,400,,,
break_continue,html.Screen,4_99_2,2023-09-13T20:46:50.055Z,,0,,,25100.802999952342,response,,,,,false,continue,keypress(Space),,397661.60000002384,397643.7999999523,372529.659,372533.1999999285,372542.997,397672.35,8,400,,,
sequence,flow.Sequence,4_99,2023-09-13T20:46:50.055Z,,0,,,37625.41299995233,completion,,,,,false,,,,397661.7999999523,397643.7999999523,360005.049,360015.89999997616,360018.387,397672.35,8,400,,,
trial,html.Screen,4_100_0,2023-09-13T20:46:54.393Z,,0,3,,4327.349999928498,response,ISIC_0000377.JPG,8,ISIC_0064997.JPG,ISIC_0064997.JPG,false,0,keypress(z),500,402000.10000002384,401999.6999999285,397659.012,397661.89999997616,397672.35,402007.2,8,400,1,,ISIC_0000377.JPG
break,html.Screen,4_100_1,2023-09-13T20:46:54.394Z,,0,,,NaN,,,,,,false,,,,402001,402000.7999999523,,402000.39999997616,,402007.2,8,400,,,
break_continue,html.Screen,4_100_2,2023-09-13T20:46:54.394Z,,0,,,NaN,,,,,,false,,,,402001.39999997616,402001.2999999523,,402001.10000002384,,402007.2,8,400,,,
sequence,flow.Sequence,4_100,2023-09-13T20:46:54.394Z,,0,,,4328.94999995234,completion,,,,,false,,,,402001.5,402001.2999999523,397659.012,397661.89999997616,397672.35,402007.2,8,400,,,
trial,html.Screen,4_101_0,2023-09-13T20:46:57.230Z,,0,3,,2829.6999999761465,response,ISIC_0056677.JPG,7,ISIC_0054728.JPG,ISIC_0054728.JPG,false,0,keypress(z),500,404837.5,404836.89999997616,401993.862,402001.6999999285,402007.2,404848.194,8,400,2,,ISIC_0056677.JPG
break,html.Screen,4_101_1,2023-09-13T20:46:57.231Z,,0,,,NaN,,,,,,false,,,,404838.39999997616,404838.2999999523,,404837.6999999285,,404848.194,8,400,,,
break_continue,html.Screen,4_101_2,2023-09-13T20:46:57.232Z,,0,,,NaN,,,,,,false,,,,404838.89999997616,404838.6999999285,,404838.60000002384,,404848.194,8,400,,,
sequence,flow.Sequence,4_101,2023-09-13T20:46:57.232Z,,0,,,2831.499999928463,completion,,,,,false,,,,404839,404838.6999999285,401993.862,402001.60000002384,402007.2,404848.194,8,400,,,
trial,html.Screen,4_102_0,2023-09-13T20:46:59.828Z,,0,3,,2586.8059999999823,response,ISIC_0068905.JPG,8,ISIC_8388593.JPG,ISIC_8388593.JPG,false,0,keypress(z),500,407435.39999997616,407435,404834.856,404839.10000002384,404848.194,407449.104,8,400,3,,ISIC_0068905.JPG
break,html.Screen,4_102_1,2023-09-13T20:46:59.829Z,,0,,,NaN,,,,,,false,,,,407436.5,407436.2999999523,,407435.7999999523,,407449.104,8,400,,,
break_continue,html.Screen,4_102_2,2023-09-13T20:46:59.830Z,,0,,,NaN,,,,,,false,,,,407436.7999999523,407436.6999999285,,407436.60000002384,,407449.104,8,400,,,
sequence,flow.Sequence,4_102,2023-09-13T20:46:59.830Z,,0,,,2588.5059999284567,completion,,,,,false,,,,407437,407436.6999999285,404834.856,404839.10000002384,404848.194,407449.104,8,400,,,
trial,html.Screen,4_103_0,2023-09-13T20:47:03.700Z,,0,3,,3858.0959999284823,response,ISIC_0071133.JPG,8,ISIC_0028173.JPG,ISIC_0028173.JPG,false,0,keypress(z),500,411307.7999999523,411307.1999999285,407435.766,407437.10000002384,407449.104,411317.473,8,400,4,,ISIC_0071133.JPG
break,html.Screen,4_103_1,2023-09-13T20:47:03.701Z,,0,,,NaN,,,,,,false,,,,411308.6999999285,411308.5,,411308,,411317.473,8,400,,,
break_continue,html.Screen,4_103_2,2023-09-13T20:47:03.702Z,,0,,,NaN,,,,,,false,,,,411309.10000002384,411308.89999997616,,411308.89999997616,,411317.473,8,400,,,
sequence,flow.Sequence,4_103,2023-09-13T20:47:03.702Z,,0,,,3859.795999976166,completion,,,,,false,,,,411309.1999999285,411308.89999997616,407435.766,407437.10000002384,407449.104,411317.473,8,400,,,
trial,html.Screen,4_104_0,2023-09-13T20:47:06.564Z,,0,3,,2852.92699997616,response,ISIC_0536433.JPG,8,ISIC_5323725.JPG,ISIC_0536433.JPG,false,1,keypress(m),500,414170.89999997616,414170.39999997616,411304.135,411309.39999997616,411317.473,414171.805,8,400,5,,ISIC_5323725.JPG
break,html.Screen,4_104_1,2023-09-13T20:47:06.565Z,,0,,,NaN,,,,,,false,,,,414171.89999997616,414171.6999999285,,414171.1999999285,,414171.805,8,400,,,
break_continue,html.Screen,4_104_2,2023-09-13T20:47:06.565Z,,0,,,NaN,,,,,,false,,,,414172.2999999523,414172.10000002384,,414172,,414171.805,8,400,,,
sequence,flow.Sequence,4_104,2023-09-13T20:47:06.565Z,,0,,,2854.6270000238437,completion,,,,,false,,,,414172.39999997616,414172.10000002384,411304.135,411309.39999997616,411317.473,414171.805,8,400,,,
trial,html.Screen,4_105_0,2023-09-13T20:47:09.656Z,,0,3,,3090.8949999284814,response,ISIC_0011374.JPG,8,ISIC_3074949.JPG,ISIC_3074949.JPG,false,0,keypress(z),500,417263,417262.6999999285,414158.467,414172.60000002384,414171.805,417266.221,8,400,6,,ISIC_0011374.JPG
break,html.Screen,4_105_1,2023-09-13T20:47:09.657Z,,0,,,NaN,,,,,,false,,,,417264.10000002384,417263.7999999523,,417263.2999999523,,417266.221,8,400,,,
break_continue,html.Screen,4_105_2,2023-09-13T20:47:09.657Z,,0,,,NaN,,,,,,false,,,,417264.5,417264.2999999523,,417264.1999999285,,417266.221,8,400,,,
sequence,flow.Sequence,4_105,2023-09-13T20:47:09.657Z,,0,,,3092.4949999523233,completion,,,,,false,,,,417264.60000002384,417264.2999999523,414158.467,414172.5,414171.805,417266.221,8,400,,,
trial,html.Screen,4_106_0,2023-09-13T20:47:12.171Z,,0,3,,2511.7789999999804,response,ISIC_3922580.JPG,8,ISIC_0024221.JPG,ISIC_3922580.JPG,false,1,keypress(m),500,419778.2999999523,419778,417252.883,417264.6999999285,417266.221,419787.343,8,400,7,,ISIC_0024221.JPG
break,html.Screen,4_106_1,2023-09-13T20:47:12.171Z,,0,,,NaN,,,,,,false,,,,419778.89999997616,419778.7999999523,,419778.5,,419787.343,8,400,,,
break_continue,html.Screen,4_106_2,2023-09-13T20:47:12.172Z,,0,,,NaN,,,,,,false,,,,419779,419779,,419778.89999997616,,419787.343,8,400,,,
sequence,flow.Sequence,4_106,2023-09-13T20:47:12.172Z,,0,,,2512.7789999999804,completion,,,,,false,,,,419779.1999999285,419779,417252.883,417264.6999999285,417266.221,419787.343,8,400,,,
trial,html.Screen,4_107_0,2023-09-13T20:47:14.699Z,,0,3,,2519.1570000000065,response,ISIC_2299749.JPG,5,ISIC_0064936.JPG,ISIC_2299749.JPG,false,1,keypress(m),500,422307,422306.5,419774.005,419779.1999999285,419787.343,422308.225,8,400,8,,ISIC_0064936.JPG
break,html.Screen,4_107_1,2023-09-13T20:47:14.700Z,,0,,,NaN,,,,,,false,,,,422307.89999997616,422307.6999999285,,422307.1999999285,,422308.225,8,400,,,
break_continue,html.Screen,4_107_2,2023-09-13T20:47:14.701Z,,0,,,NaN,,,,,,false,,,,422308.2999999523,422308.10000002384,,422308,,422308.225,8,400,,,
sequence,flow.Sequence,4_107,2023-09-13T20:47:14.701Z,,0,,,2520.7570000238484,completion,,,,,false,,,,422308.39999997616,422308.10000002384,419774.005,419779.1999999285,419787.343,422308.225,8,400,,,
trial,html.Screen,4_108_0,2023-09-13T20:47:17.218Z,,0,3,,2517.1749999761814,response,ISIC_0010629.JPG,6,ISIC_0072917.JPG,ISIC_0072917.JPG,false,0,keypress(z),500,424825.89999997616,424825.39999997616,422294.887,422308.5,422308.225,424829.107,8,400,9,,ISIC_0010629.JPG
break,html.Screen,4_108_1,2023-09-13T20:47:17.219Z,,0,,,NaN,,,,,,false,,,,424826.89999997616,424826.6999999285,,424826.1999999285,,424829.107,8,400,,,
break_continue,html.Screen,4_108_2,2023-09-13T20:47:17.220Z,,0,,,NaN,,,,,,false,,,,424827.2999999523,424827.1999999285,,424827,,424829.107,8,400,,,
sequence,flow.Sequence,4_108,2023-09-13T20:47:17.220Z,,0,,,2518.9749999284977,completion,,,,,false,,,,424827.39999997616,424827.1999999285,422294.887,422308.5,422308.225,424829.107,8,400,,,
trial,html.Screen,4_109_0,2023-09-13T20:47:19.763Z,,0,3,,2541.392999999982,response,ISIC_0013558.JPG,8,ISIC_1888865.JPG,ISIC_1888865.JPG,false,0,keypress(z),500,427370.89999997616,427370.5,424815.769,424827.60000002384,424829.107,427376.665,8,400,10,,ISIC_0013558.JPG
break,html.Screen,4_109_1,2023-09-13T20:47:19.764Z,,0,,,NaN,,,,,,false,,,,427371.89999997616,427371.60000002384,,427371.1999999285,,427376.665,8,400,,,
break_continue,html.Screen,4_109_2,2023-09-13T20:47:19.765Z,,0,,,NaN,,,,,,false,,,,427372.1999999285,427372.10000002384,,427372,,427376.665,8,400,,,
sequence,flow.Sequence,4_109,2023-09-13T20:47:19.765Z,,0,,,2542.9930000238237,completion,,,,,false,,,,427372.39999997616,427372.10000002384,424815.769,424827.5,424829.107,427376.665,8,400,,,
trial,html.Screen,4_110_0,2023-09-13T20:47:22.891Z,,0,3,,3121.335000000021,response,ISIC_6446753.JPG,8,ISIC_0055701.JPG,ISIC_0055701.JPG,false,0,keypress(z),500,430498.5,430498,427363.327,427372.5,427376.665,430511.332,8,400,11,,ISIC_6446753.JPG
break,html.Screen,4_110_1,2023-09-13T20:47:22.892Z,,0,,,NaN,,,,,,false,,,,430499.39999997616,430499.1999999285,,430498.6999999285,,430511.332,8,400,,,
break_continue,html.Screen,4_110_2,2023-09-13T20:47:22.892Z,,0,,,NaN,,,,,,false,,,,430499.7999999523,430499.6999999285,,430499.5,,430511.332,8,400,,,
sequence,flow.Sequence,4_110,2023-09-13T20:47:22.892Z,,0,,,3123.0349999284954,completion,,,,,false,,,,430499.89999997616,430499.6999999285,427363.327,427372.39999997616,427376.665,430511.332,8,400,,,
trial,html.Screen,4_111_0,2023-09-13T20:47:25.498Z,,0,3,,2593.5679999761633,response,ISIC_0060390.JPG,8,ISIC_0069830.JPG,ISIC_0060390.JPG,false,1,keypress(m),500,433105.2999999523,433104.89999997616,430497.994,430500.10000002384,430511.332,433112.242,8,400,12,,ISIC_0069830.JPG
break,html.Screen,4_111_1,2023-09-13T20:47:25.499Z,,0,,,NaN,,,,,,false,,,,433106.39999997616,433106.10000002384,,433105.60000002384,,433112.242,8,400,,,
break_continue,html.Screen,4_111_2,2023-09-13T20:47:25.499Z,,0,,,NaN,,,,,,false,,,,433106.7999999523,433106.60000002384,,433106.39999997616,,433112.242,8,400,,,
sequence,flow.Sequence,4_111,2023-09-13T20:47:25.499Z,,0,,,2595.268000023847,completion,,,,,false,,,,433106.7999999523,433106.60000002384,430497.994,430500.10000002384,430511.332,433112.242,8,400,,,
trial,html.Screen,4_112_0,2023-09-13T20:47:28.026Z,,0,3,,2521.1579999761307,response,ISIC_0060559.JPG,8,ISIC_0060342.JPG,ISIC_0060559.JPG,false,1,keypress(m),500,435633.89999997616,435633.39999997616,433098.904,433107,433112.242,435646.462,8,400,13,,ISIC_0060342.JPG
break,html.Screen,4_112_1,2023-09-13T20:47:28.027Z,,0,,,NaN,,,,,,false,,,,435634.7999999523,435634.60000002384,,435634.10000002384,,435646.462,8,400,,,
break_continue,html.Screen,4_112_2,2023-09-13T20:47:28.028Z,,0,,,NaN,,,,,,false,,,,435635.1999999285,435635.10000002384,,435635,,435646.462,8,400,,,
sequence,flow.Sequence,4_112,2023-09-13T20:47:28.028Z,,0,,,2522.8580000238144,completion,,,,,false,,,,435635.2999999523,435635.10000002384,433098.904,433107,433112.242,435646.462,8,400,,,
trial,html.Screen,4_113_0,2023-09-13T20:47:30.817Z,,0,3,,2778.1380000238423,response,ISIC_0025305.JPG,8,ISIC_6668093.JPG,ISIC_6668093.JPG,false,0,keypress(z),500,438425,438424.60000002384,435633.124,435635.5,435646.462,438434.104,8,400,14,,ISIC_0025305.JPG
break,html.Screen,4_113_1,2023-09-13T20:47:30.818Z,,0,,,NaN,,,,,,false,,,,438426.10000002384,438425.7999999523,,438425.39999997616,,438434.104,8,400,,,
break_continue,html.Screen,4_113_2,2023-09-13T20:47:30.819Z,,0,,,NaN,,,,,,false,,,,438426.5,438426.2999999523,,438426.1999999285,,438434.104,8,400,,,
sequence,flow.Sequence,4_113,2023-09-13T20:47:30.819Z,,0,,,2779.8379999523167,completion,,,,,false,,,,438426.60000002384,438426.2999999523,435633.124,435635.5,435646.462,438434.104,8,400,,,
trial,html.Screen,4_114_0,2023-09-13T20:47:33.382Z,,0,3,,2554.896000000008,response,ISIC_0054185.JPG,8,ISIC_9806131.JPG,ISIC_9806131.JPG,false,0,keypress(z),500,440989.39999997616,440989,438420.766,438426.6999999285,438434.104,440995.226,8,400,15,,ISIC_0054185.JPG
break,html.Screen,4_114_1,2023-09-13T20:47:33.383Z,,0,,,NaN,,,,,,false,,,,440990.5,440990.1999999285,,440989.6999999285,,440995.226,8,400,,,
break_continue,html.Screen,4_114_2,2023-09-13T20:47:33.383Z,,0,,,NaN,,,,,,false,,,,440990.7999999523,440990.6999999285,,440990.5,,440995.226,8,400,,,
sequence,flow.Sequence,4_114,2023-09-13T20:47:33.383Z,,0,,,2556.5959999284823,completion,,,,,false,,,,440990.89999997616,440990.6999999285,438420.766,438426.6999999285,438434.104,440995.226,8,400,,,
trial,html.Screen,4_115_0,2023-09-13T20:47:36.011Z,,0,3,,2623.273999999976,response,ISIC_1985436.JPG,8,ISIC_1910158.JPG,ISIC_1910158.JPG,false,0,keypress(z),500,443618.89999997616,443618.5,440981.888,440991.10000002384,440995.226,443622.812,8,400,16,,ISIC_1985436.JPG
break,html.Screen,4_115_1,2023-09-13T20:47:36.012Z,,0,,,NaN,,,,,,false,,,,443619.89999997616,443619.6999999285,,443619.1999999285,,443622.812,8,400,,,
break_continue,html.Screen,4_115_2,2023-09-13T20:47:36.012Z,,0,,,NaN,,,,,,false,,,,443620.1999999285,443620.1999999285,,443620,,443622.812,8,400,,,
sequence,flow.Sequence,4_115,2023-09-13T20:47:36.013Z,,0,,,2624.97399992845,completion,,,,,false,,,,443620.5,443620.1999999285,440981.888,440991.10000002384,440995.226,443622.812,8,400,,,
trial,html.Screen,4_116_0,2023-09-13T20:47:38.914Z,,0,3,,2898.887999928498,response,ISIC_0061199.JPG,8,ISIC_5309814.JPG,ISIC_5309814.JPG,false,0,keypress(z),500,446522.2999999523,446521.6999999285,443609.474,443620.60000002384,443622.812,446530.496,8,400,17,,ISIC_0061199.JPG
break,html.Screen,4_116_1,2023-09-13T20:47:38.915Z,,0,,,NaN,,,,,,false,,,,446523.1999999285,446523,,446522.5,,446530.496,8,400,,,
break_continue,html.Screen,4_116_2,2023-09-13T20:47:38.916Z,,0,,,NaN,,,,,,false,,,,446523.60000002384,446523.5,,446523.2999999523,,446530.496,8,400,,,
sequence,flow.Sequence,4_116,2023-09-13T20:47:38.916Z,,0,,,2900.6880000000237,completion,,,,,false,,,,446523.6999999285,446523.5,443609.474,443620.5,443622.812,446530.496,8,400,,,
trial,html.Screen,4_117_0,2023-09-13T20:47:41.673Z,,0,3,,2750.0040000000154,response,ISIC_0016050.JPG,8,ISIC_4640181.JPG,ISIC_0016050.JPG,false,1,keypress(m),500,449280.89999997616,449280.5,446517.158,446523.89999997616,446530.496,449291.702,8,400,18,,ISIC_4640181.JPG
break,html.Screen,4_117_1,2023-09-13T20:47:41.674Z,,0,,,NaN,,,,,,false,,,,449282,449281.7999999523,,449281.2999999523,,449291.702,8,400,,,
break_continue,html.Screen,4_117_2,2023-09-13T20:47:41.674Z,,0,,,NaN,,,,,,false,,,,449282.2999999523,449282.1999999285,,449282.10000002384,,449291.702,8,400,,,
sequence,flow.Sequence,4_117,2023-09-13T20:47:41.675Z,,0,,,2751.70399992849,completion,,,,,false,,,,449282.5,449282.1999999285,446517.158,446523.89999997616,446530.496,449291.702,8,400,,,
trial,html.Screen,4_118_0,2023-09-13T20:47:44.299Z,,0,3,,2614.3980000238516,response,ISIC_6592334.JPG,8,ISIC_2918128.JPG,ISIC_2918128.JPG,false,0,keypress(z),500,451906.6999999285,451906.10000002384,449278.364,449282.6999999285,449291.702,451919.288,8,400,19,,ISIC_6592334.JPG
break,html.Screen,4_118_1,2023-09-13T20:47:44.300Z,,0,,,NaN,,,,,,false,,,,451907.60000002384,451907.39999997616,,451906.89999997616,,451919.288,8,400,,,
break_continue,html.Screen,4_118_2,2023-09-13T20:47:44.300Z,,0,,,NaN,,,,,,false,,,,451908,451907.89999997616,,451907.6999999285,,451919.288,8,400,,,
sequence,flow.Sequence,4_118,2023-09-13T20:47:44.300Z,,0,,,2616.197999976168,completion,,,,,false,,,,451908.1999999285,451907.89999997616,449278.364,449282.60000002384,449291.702,451919.288,8,400,,,
trial,html.Screen,4_119_0,2023-09-13T20:47:46.986Z,,0,3,,2674.3120000238414,response,ISIC_0030610.JPG,9,ISIC_0031829.JPG,ISIC_0031829.JPG,false,0,keypress(z),500,454594.1999999285,454593.60000002384,451905.95,451908.39999997616,451919.288,454600.226,8,400,20,,ISIC_0030610.JPG
break,html.Screen,4_119_1,2023-09-13T20:47:46.987Z,,0,,,NaN,,,,,,false,,,,454595.10000002384,454594.89999997616,,454594.5,,454600.226,8,400,,,
break_continue,html.Screen,4_119_2,2023-09-13T20:47:46.988Z,,0,,,NaN,,,,,,false,,,,454595.5,454595.2999999523,,454595.2999999523,,454600.226,8,400,,,
sequence,flow.Sequence,4_119,2023-09-13T20:47:46.988Z,,0,,,2676.011999952316,completion,,,,,false,,,,454595.60000002384,454595.2999999523,451905.95,451908.2999999523,451919.288,454600.226,8,400,,,
trial,html.Screen,4_120_0,2023-09-13T20:47:49.778Z,,0,3,,2785.073999952292,response,ISIC_0058079.JPG,7,ISIC_0014826.JPG,ISIC_0058079.JPG,false,1,keypress(m),500,457385.7999999523,457385.2999999523,454586.888,454595.7999999523,454600.226,457387.868,8,400,21,,ISIC_0014826.JPG
break,html.Screen,4_120_1,2023-09-13T20:47:49.779Z,,0,,,NaN,,,,,,false,,,,457386.7999999523,457386.6999999285,,457386.1999999285,,457387.868,8,400,,,
break_continue,html.Screen,4_120_2,2023-09-13T20:47:49.779Z,,0,,,NaN,,,,,,false,,,,457387.1999999285,457387.10000002384,,457387,,457387.868,8,400,,,
sequence,flow.Sequence,4_120,2023-09-13T20:47:49.779Z,,0,,,2786.8740000238176,completion,,,,,false,,,,457387.39999997616,457387.10000002384,454586.888,454595.7999999523,454600.226,457387.868,8,400,,,
trial,html.Screen,4_121_0,2023-09-13T20:47:52.392Z,,0,3,,2611.9319999522995,response,ISIC_2863397.JPG,8,ISIC_0002435.JPG,ISIC_2863397.JPG,false,1,keypress(m),500,460000.2999999523,459999.7999999523,457374.53,457387.5,457387.868,460002.347,8,400,22,,ISIC_0002435.JPG
break,html.Screen,4_121_1,2023-09-13T20:47:52.393Z,,0,,,NaN,,,,,,false,,,,460001.2999999523,460001.10000002384,,460000.60000002384,,460002.347,8,400,,,
break_continue,html.Screen,4_121_2,2023-09-13T20:47:52.394Z,,0,,,NaN,,,,,,false,,,,460001.7999999523,460001.60000002384,,460001.39999997616,,460002.347,8,400,,,
sequence,flow.Sequence,4_121,2023-09-13T20:47:52.394Z,,0,,,2613.732000023825,completion,,,,,false,,,,460001.89999997616,460001.60000002384,457374.53,457387.5,457387.868,460002.347,8,400,,,
trial,html.Screen,4_122_0,2023-09-13T20:47:55.215Z,,0,3,,2820.3529999284656,response,ISIC_6356522.JPG,7,ISIC_0029815.JPG,ISIC_6356522.JPG,false,1,keypress(m),500,462823.2999999523,462822.6999999285,459989.009,460002,460002.347,462830.003,8,400,23,,ISIC_0029815.JPG
break,html.Screen,4_122_1,2023-09-13T20:47:55.216Z,,0,,,NaN,,,,,,false,,,,462824.1999999285,462824.10000002384,,462823.5,,462830.003,8,400,,,
break_continue,html.Screen,4_122_2,2023-09-13T20:47:55.217Z,,0,,,NaN,,,,,,false,,,,462824.60000002384,462824.39999997616,,462824.39999997616,,462830.003,8,400,,,
sequence,flow.Sequence,4_122,2023-09-13T20:47:55.217Z,,0,,,2822.0529999761493,completion,,,,,false,,,,462824.6999999285,462824.39999997616,459989.009,460001.89999997616,460002.347,462830.003,8,400,,,
trial,html.Screen,4_123_0,2023-09-13T20:47:57.892Z,,0,3,,2669.896999976132,response,ISIC_3632419.JPG,5,ISIC_1605945.JPG,ISIC_3632419.JPG,false,1,keypress(m),500,465500.39999997616,465499.89999997616,462816.665,462824.7999999523,462830.003,465510.941,8,400,24,,ISIC_1605945.JPG
break,html.Screen,4_123_1,2023-09-13T20:47:57.893Z,,0,,,NaN,,,,,,false,,,,465501.39999997616,465501.10000002384,,465500.60000002384,,465510.941,8,400,,,
break_continue,html.Screen,4_123_2,2023-09-13T20:47:57.894Z,,0,,,NaN,,,,,,false,,,,465501.6999999285,465501.60000002384,,465501.5,,465510.941,8,400,,,
sequence,flow.Sequence,4_123,2023-09-13T20:47:57.894Z,,0,,,2671.597000023816,completion,,,,,false,,,,465501.89999997616,465501.60000002384,462816.665,462824.7999999523,462830.003,465510.941,8,400,,,
trial,html.Screen,4_124_0,2023-09-13T20:48:00.697Z,,0,3,,2793.258999928483,response,ISIC_0068993.JPG,5,ISIC_0034263.JPG,ISIC_0068993.JPG,false,1,keypress(m),500,468304.6999999285,468304.1999999285,465497.603,465502.10000002384,465510.941,468311.921,8,400,25,,ISIC_0034263.JPG
break,html.Screen,4_124_1,2023-09-13T20:48:00.697Z,,0,,,NaN,,,,,,false,,,,468305.60000002384,468305.5,,468305,,468311.921,8,400,,,
break_continue,html.Screen,4_124_2,2023-09-13T20:48:00.698Z,,0,,,NaN,,,,,,false,,,,468306,468306,,468305.7999999523,,468311.921,8,400,,,
sequence,flow.Sequence,4_124,2023-09-13T20:48:00.698Z,,0,,,2795.0590000000084,completion,,,,,false,,,,468306.1999999285,468306,465497.603,465502,465510.941,468311.921,8,400,,,
trial,html.Screen,4_125_0,2023-09-13T20:48:03.582Z,,0,3,,2877.478999976185,response,ISIC_6414435.JPG,4,ISIC_0054770.JPG,ISIC_0054770.JPG,false,0,keypress(z),500,471190,471189.39999997616,468298.583,468306.39999997616,468311.921,471193.167,8,400,26,,ISIC_6414435.JPG
break,html.Screen,4_125_1,2023-09-13T20:48:03.583Z,,0,,,NaN,,,,,,false,,,,471191,471190.7999999523,,471190.2999999523,,471193.167,8,400,,,
break_continue,html.Screen,4_125_2,2023-09-13T20:48:03.583Z,,0,,,NaN,,,,,,false,,,,471191.2999999523,471191.1999999285,,471191.10000002384,,471193.167,8,400,,,
