sender,sender_type,sender_id,timestamp,meta,,blockNo,condition,duration,ended_on,img_left,img_reveal,img_right,loser,practice,response,response_action,selection_duration,time_commit,time_end,time_render,time_run,time_show,time_switch,total_blocks,total_trials,trialNo,url,winner
informed_consent,html.Screen,0,2023-05-01T16:44:03.658Z,"{""labjs_version"":""20.2.4"",""labjs_build"":{""flavor"":""production"",""commit"":""f5b4a49f956347addd546a832a3327688c2c0fef""},""location"":""https://run.pavlovia.org/MurrayBennett/melanoma-2afc/?participant=65477"",""userAgent"":""Mozilla/5.0 (Macintosh; Intel Mac OS X 10_15_7) AppleWebKit/605.1.15 (KHTML, like Gecko) Version/14.1.1 Safari/605.1.15"",""platform"":""MacIntel"",""language"":""en-us"",""locale"":""en-US"",""timeZone"":""America/Chicago"",""timezoneOffset"":300,""screen_width"":1440,""screen_height"":900,""scroll_width"":1440,""scroll_height"":772,""window_innerWidth"":1440,""window_innerHeight"":820,""devicePixelRatio"":2}",,,,2360,response,,,,,,continue,click button,,4750,4731,2371,2368,2411,4775,,,,"{""participant"":""65477""}",
Welcome,html.Screen,1,2023-05-01T16:44:09.019Z,,,,irregular,5331.000000000002,response,,,,,,continue,click button,,10112,10091.000000000002,4760,4750,4775,10142,,,,,
trial,html.Screen,2_0_0,2023-05-01T16:44:16.746Z,,0,0,,7713,response,ISIC_0061792.JPG,,ISIC_4679428.JPG,ISIC_4679428.JPG,true,0,keypress(z),500,17838,17837,10124,10113,10142,17874,1,6,1,,ISIC_0061792.JPG
sequence,flow.Sequence,2_0,2023-05-01T16:44:16.746Z,,0,,,7695,completion,,,,,true,,,,17839,17837,10124,10113,10142,17874,1,6,,,
trial,html.Screen,2_1_0,2023-05-01T16:44:20.375Z,,0,0,,3609,response,ISIC_0776486.JPG,,ISIC_5199497.JPG,ISIC_5199497.JPG,true,0,keypress(z),500,21468,21467,17858,17839,17874,21507,1,6,2,,ISIC_0776486.JPG
sequence,flow.Sequence,2_1,2023-05-01T16:44:20.376Z,,0,,,3593,completion,,,,,true,,,,21468,21467,17858,17839,17874,21507,1,6,,,
trial,html.Screen,2_2_0,2023-05-01T16:44:28.842Z,,0,0,,8443,response,ISIC_2556187.JPG,,ISIC_8575776.JPG,ISIC_8575776.JPG,true,0,keypress(z),500,29934,29934,21491,21468,21507,29974,1,6,3,,ISIC_2556187.JPG
sequence,flow.Sequence,2_2,2023-05-01T16:44:28.842Z,,0,,,8427,completion,,,,,true,,,,29935.000000000004,29934,21491,21468,21507,29974,1,6,,,
trial,html.Screen,2_3_0,2023-05-01T16:44:31.867Z,,0,0,,3000,response,ISIC_8141769.JPG,,ISIC_9238366.JPG,ISIC_9238366.JPG,true,0,keypress(z),500,32959,32958,29958,29935.000000000004,29974,32991,1,6,4,,ISIC_8141769.JPG
sequence,flow.Sequence,2_3,2023-05-01T16:44:31.867Z,,0,,,2984,completion,,,,,true,,,,32959,32958,29958,29935.000000000004,29974,32991,1,6,,,
trial,html.Screen,2_4_0,2023-05-01T16:44:35.219Z,,0,0,,3336,response,ISIC_8949026.JPG,,ISIC_9959593.JPG,ISIC_8949026.JPG,true,1,keypress(m),500,36311,36311,32975,32960,32991,36341,1,6,5,,ISIC_9959593.JPG
sequence,flow.Sequence,2_4,2023-05-01T16:44:35.219Z,,0,,,3320,completion,,,,,true,,,,36312,36311,32975,32959,32991,36341,1,6,,,
trial,html.Screen,2_5_0,2023-05-01T16:44:39.777Z,,0,0,,4544,response,ISIC_0010479.JPG,,ISIC_0460240.JPG,ISIC_0460240.JPG,true,0,keypress(z),500,40870,40869,36325,36312,36341,40908,1,6,6,,ISIC_0010479.JPG
sequence,flow.Sequence,2_5,2023-05-01T16:44:39.778Z,,0,,,4528,completion,,,,,true,,,,40870,40869,36325,36312,36341,40908,1,6,,,
loop,flow.Loop,2,2023-05-01T16:44:39.778Z,,,,,30727,completion,,,,,true,,,,40870,40869,10124,10113,10142,40908,1,6,,,
exp_instructions,html.Screen,3,2023-05-01T16:44:40.992Z,,,,,1170,response,,,,,,continue,keypress(Space),,42084,42061,40891,40871,40908,42125,,,,,
trial,html.Screen,4_0_0,2023-05-01T16:44:44.611Z,,0,1,,3594,response,ISIC_1097830.JPG,,ISIC_0098784.JPG,ISIC_1097830.JPG,false,1,keypress(m),500,45703,45702,42108,42085,42125,45741,6,300,1,,ISIC_0098784.JPG
break,html.Screen,4_0_1,2023-05-01T16:44:44.612Z,,0,,,NaN,,,,,,false,,,,45704,45704,,45704,,45741,6,300,,,
break_continue,html.Screen,4_0_2,2023-05-01T16:44:44.612Z,,0,,,NaN,,,,,,false,,,,45705,45705,,45705,,45741,6,300,,,
sequence,flow.Sequence,4_0,2023-05-01T16:44:44.613Z,,0,,,3580,completion,,,,,false,,,,45705,45705,42108,42085,42125,45741,6,300,,,
trial,html.Screen,4_1_0,2023-05-01T16:44:49.316Z,,0,1,,4682,response,ISIC_1205826.JPG,,ISIC_0058346.JPG,ISIC_0058346.JPG,false,0,keypress(z),500,50408,50407,45725,45705,45741,50441,6,300,2,,ISIC_1205826.JPG
break,html.Screen,4_1_1,2023-05-01T16:44:49.317Z,,0,,,NaN,,,,,,false,,,,50409,50409,,50408,,50441,6,300,,,
break_continue,html.Screen,4_1_2,2023-05-01T16:44:49.317Z,,0,,,NaN,,,,,,false,,,,50410.00000000001,50410.00000000001,,50409,,50441,6,300,,,
sequence,flow.Sequence,4_1,2023-05-01T16:44:49.318Z,,0,,,4669.000000000007,completion,,,,,false,,,,50410.00000000001,50410.00000000001,45725,45705,45741,50441,6,300,,,
trial,html.Screen,4_2_0,2023-05-01T16:44:52.487Z,,0,1,,3155,response,ISIC_4573624.JPG,,ISIC_0024574.JPG,ISIC_4573624.JPG,false,1,keypress(m),500,53580,53579,50424,50410.00000000001,50441,53608,6,300,3,,ISIC_0024574.JPG
break,html.Screen,4_2_1,2023-05-01T16:44:52.488Z,,0,,,NaN,,,,,,false,,,,53581,53581,,53580,,53608,6,300,,,
break_continue,html.Screen,4_2_2,2023-05-01T16:44:52.489Z,,0,,,NaN,,,,,,false,,,,53581,53581,,53581,,53608,6,300,,,
sequence,flow.Sequence,4_2,2023-05-01T16:44:52.489Z,,0,,,3140,completion,,,,,false,,,,53581,53581,50424,50410.00000000001,50441,53608,6,300,,,
trial,html.Screen,4_3_0,2023-05-01T16:44:55.452Z,,0,1,,2952,response,ISIC_2673511.JPG,,ISIC_0072215.JPG,ISIC_2673511.JPG,false,1,keypress(m),500,56544.00000000001,56543,53591,53582,53608,56575,6,300,4,,ISIC_0072215.JPG
break,html.Screen,4_3_1,2023-05-01T16:44:55.453Z,,0,,,NaN,,,,,,false,,,,56545,56545,,56544.00000000001,,56575,6,300,,,
break_continue,html.Screen,4_3_2,2023-05-01T16:44:55.453Z,,0,,,NaN,,,,,,false,,,,56545,56545,,56545,,56575,6,300,,,
sequence,flow.Sequence,4_3,2023-05-01T16:44:55.453Z,,0,,,2937,completion,,,,,false,,,,56545,56545,53591,53582,53608,56575,6,300,,,
trial,html.Screen,4_4_0,2023-05-01T16:45:00.930Z,,0,1,,5463,response,ISIC_0062740.JPG,,ISIC_0026247.JPG,ISIC_0026247.JPG,false,0,keypress(z),500,62022,62021,56558,56546,56575,62058,6,300,5,,ISIC_0062740.JPG
break,html.Screen,4_4_1,2023-05-01T16:45:00.931Z,,0,,,NaN,,,,,,false,,,,62024,62024,,62023,,62058,6,300,,,
break_continue,html.Screen,4_4_2,2023-05-01T16:45:00.932Z,,0,,,NaN,,,,,,false,,,,62024,62024,,62024,,62058,6,300,,,
sequence,flow.Sequence,4_4,2023-05-01T16:45:00.932Z,,0,,,5449,completion,,,,,false,,,,62024,62024,56558,56546,56575,62058,6,300,,,
trial,html.Screen,4_5_0,2023-05-01T16:45:03.731Z,,0,1,,2781,response,ISIC_1784255.JPG,,ISIC_0032690.JPG,ISIC_1784255.JPG,false,1,keypress(m),500,64823.00000000001,64822,62041,62025,62058,64858,6,300,6,,ISIC_0032690.JPG
break,html.Screen,4_5_1,2023-05-01T16:45:03.732Z,,0,,,NaN,,,,,,false,,,,64824,64824,,64823.00000000001,,64858,6,300,,,
break_continue,html.Screen,4_5_2,2023-05-01T16:45:03.732Z,,0,,,NaN,,,,,,false,,,,64824,64824,,64824,,64858,6,300,,,
sequence,flow.Sequence,4_5,2023-05-01T16:45:03.732Z,,0,,,2766,completion,,,,,false,,,,64825,64824,62041,62024,62058,64858,6,300,,,
trial,html.Screen,4_6_0,2023-05-01T16:45:06.847Z,,0,1,,3098,response,ISIC_0032447.JPG,,ISIC_0911264.JPG,ISIC_0911264.JPG,false,0,keypress(z),500,67940,67939,64841,64825,64858,67974,6,300,7,,ISIC_0032447.JPG
break,html.Screen,4_6_1,2023-05-01T16:45:06.849Z,,0,,,NaN,,,,,,false,,,,67941,67941,,67940,,67974,6,300,,,
break_continue,html.Screen,4_6_2,2023-05-01T16:45:06.849Z,,0,,,NaN,,,,,,false,,,,67941,67941,,67941,,67974,6,300,,,
sequence,flow.Sequence,4_6,2023-05-01T16:45:06.849Z,,0,,,3083,completion,,,,,false,,,,67941,67941,64841,64825,64858,67974,6,300,,,
trial,html.Screen,4_7_0,2023-05-01T16:45:09.832Z,,0,1,,2965,response,ISIC_0059093.JPG,,ISIC_9667297.JPG,ISIC_9667297.JPG,false,0,keypress(z),500,70924,70923,67958,67942,67974,70958,6,300,8,,ISIC_0059093.JPG
break,html.Screen,4_7_1,2023-05-01T16:45:09.833Z,,0,,,NaN,,,,,,false,,,,70926,70925,,70925,,70958,6,300,,,
break_continue,html.Screen,4_7_2,2023-05-01T16:45:09.834Z,,0,,,NaN,,,,,,false,,,,70926,70926,,70926,,70958,6,300,,,
sequence,flow.Sequence,4_7,2023-05-01T16:45:09.834Z,,0,,,2952,completion,,,,,false,,,,70926,70926,67958,67942,67974,70958,6,300,,,
trial,html.Screen,4_8_0,2023-05-01T16:45:12.604Z,,0,1,,2754.0000000000146,response,ISIC_2733043.JPG,,ISIC_0066626.JPG,ISIC_2733043.JPG,false,1,keypress(m),500,73696,73695.00000000001,70941,70927,70958,73724,6,300,9,,ISIC_0066626.JPG
break,html.Screen,4_8_1,2023-05-01T16:45:12.606Z,,0,,,NaN,,,,,,false,,,,73698.00000000001,73698.00000000001,,73697,,73724,6,300,,,
break_continue,html.Screen,4_8_2,2023-05-01T16:45:12.606Z,,0,,,NaN,,,,,,false,,,,73698.00000000001,73698.00000000001,,73698.00000000001,,73724,6,300,,,
sequence,flow.Sequence,4_8,2023-05-01T16:45:12.606Z,,0,,,2740.0000000000146,completion,,,,,false,,,,73699,73698.00000000001,70941,70927,70958,73724,6,300,,,
trial,html.Screen,4_9_0,2023-05-01T16:45:16.129Z,,0,1,,3513,response,ISIC_5993356.JPG,,ISIC_7852890.JPG,ISIC_7852890.JPG,false,0,keypress(z),500,77221,77221,73708,73699,73724,77258,6,300,10,,ISIC_5993356.JPG
break,html.Screen,4_9_1,2023-05-01T16:45:16.131Z,,0,,,NaN,,,,,,false,,,,77223,77222.00000000001,,77222.00000000001,,77258,6,300,,,
break_continue,html.Screen,4_9_2,2023-05-01T16:45:16.131Z,,0,,,NaN,,,,,,false,,,,77223,77223,,77223,,77258,6,300,,,
sequence,flow.Sequence,4_9,2023-05-01T16:45:16.131Z,,0,,,3499,completion,,,,,false,,,,77224,77223,73708,73699,73724,77258,6,300,,,
trial,html.Screen,4_10_0,2023-05-01T16:45:19.202Z,,0,1,,3053,response,ISIC_0028705.JPG,,ISIC_2208006.JPG,ISIC_2208006.JPG,false,0,keypress(z),500,80294,80294,77241,77224,77258,80324,6,300,11,,ISIC_0028705.JPG
break,html.Screen,4_10_1,2023-05-01T16:45:19.203Z,,0,,,NaN,,,,,,false,,,,80296,80295,,80295,,80324,6,300,,,
break_continue,html.Screen,4_10_2,2023-05-01T16:45:19.204Z,,0,,,NaN,,,,,,false,,,,80296,80296,,80296,,80324,6,300,,,
sequence,flow.Sequence,4_10,2023-05-01T16:45:19.204Z,,0,,,3038,completion,,,,,false,,,,80297,80296,77241,77224,77258,80324,6,300,,,
trial,html.Screen,4_11_0,2023-05-01T16:45:22.114Z,,0,1,,2897,response,ISIC_7755106.JPG,,ISIC_0000551.JPG,ISIC_7755106.JPG,false,1,keypress(m),500,83206,83205,80308,80297,80324,83241,6,300,12,,ISIC_0000551.JPG
break,html.Screen,4_11_1,2023-05-01T16:45:22.115Z,,0,,,NaN,,,,,,false,,,,83208,83207.00000000001,,83207.00000000001,,83241,6,300,,,
break_continue,html.Screen,4_11_2,2023-05-01T16:45:22.116Z,,0,,,NaN,,,,,,false,,,,83208,83208,,83208,,83241,6,300,,,
sequence,flow.Sequence,4_11,2023-05-01T16:45:22.116Z,,0,,,2884,completion,,,,,false,,,,83208,83208,80308,80297,80324,83241,6,300,,,
trial,html.Screen,4_12_0,2023-05-01T16:45:24.946Z,,0,1,,2813,response,ISIC_3336353.JPG,,ISIC_0059733.JPG,ISIC_3336353.JPG,false,1,keypress(m),500,86038,86037,83224,83208,83241,86075,6,300,13,,ISIC_0059733.JPG
break,html.Screen,4_12_1,2023-05-01T16:45:24.947Z,,0,,,NaN,,,,,,false,,,,86039,86039,,86038,,86075,6,300,,,
break_continue,html.Screen,4_12_2,2023-05-01T16:45:24.947Z,,0,,,NaN,,,,,,false,,,,86039,86039,,86039,,86075,6,300,,,
sequence,flow.Sequence,4_12,2023-05-01T16:45:24.947Z,,0,,,2798,completion,,,,,false,,,,86040,86039,83224,83208,83241,86075,6,300,,,
trial,html.Screen,4_13_0,2023-05-01T16:45:28.026Z,,0,1,,3060,response,ISIC_0069105.JPG,,ISIC_2700320.JPG,ISIC_0069105.JPG,false,1,keypress(m),500,89119,89118,86058,86040,86075,89158,6,300,14,,ISIC_2700320.JPG
break,html.Screen,4_13_1,2023-05-01T16:45:28.027Z,,0,,,NaN,,,,,,false,,,,89120,89120,,89119,,89158,6,300,,,
break_continue,html.Screen,4_13_2,2023-05-01T16:45:28.028Z,,0,,,NaN,,,,,,false,,,,89120,89120,,89120,,89158,6,300,,,
sequence,flow.Sequence,4_13,2023-05-01T16:45:28.028Z,,0,,,3045,completion,,,,,false,,,,89120,89120,86058,86040,86075,89158,6,300,,,
trial,html.Screen,4_14_0,2023-05-01T16:45:31.075Z,,0,1,,3025,response,ISIC_0007622.JPG,,ISIC_5484086.JPG,ISIC_0007622.JPG,false,1,keypress(m),500,92167,92166,89141,89121,89158,92208,6,300,15,,ISIC_5484086.JPG
break,html.Screen,4_14_1,2023-05-01T16:45:31.076Z,,0,,,NaN,,,,,,false,,,,92169,92168,,92168,,92208,6,300,,,
break_continue,html.Screen,4_14_2,2023-05-01T16:45:31.077Z,,0,,,NaN,,,,,,false,,,,92169,92169,,92169,,92208,6,300,,,
sequence,flow.Sequence,4_14,2023-05-01T16:45:31.077Z,,0,,,3011,completion,,,,,false,,,,92169,92169,89141,89121,89158,92208,6,300,,,
trial,html.Screen,4_15_0,2023-05-01T16:45:33.972Z,,0,1,,2873,response,ISIC_5504560.JPG,,ISIC_5318217.JPG,ISIC_5318217.JPG,false,0,keypress(z),500,95065,95064,92191,92170,92208,95108,6,300,16,,ISIC_5504560.JPG
break,html.Screen,4_15_1,2023-05-01T16:45:33.973Z,,0,,,NaN,,,,,,false,,,,95066,95066,,95065,,95108,6,300,,,
break_continue,html.Screen,4_15_2,2023-05-01T16:45:33.974Z,,0,,,NaN,,,,,,false,,,,95066,95066,,95066,,95108,6,300,,,
sequence,flow.Sequence,4_15,2023-05-01T16:45:33.974Z,,0,,,2858,completion,,,,,false,,,,95067,95066,92191,92169,92208,95108,6,300,,,
trial,html.Screen,4_16_0,2023-05-01T16:45:36.809Z,,0,1,,2810,response,ISIC_2587955.JPG,,ISIC_0033841.JPG,ISIC_2587955.JPG,false,1,keypress(m),500,97901,97901,95091,95067,95108,97941,6,300,17,,ISIC_0033841.JPG
break,html.Screen,4_16_1,2023-05-01T16:45:36.810Z,,0,,,NaN,,,,,,false,,,,97903,97902,,97902,,97941,6,300,,,
break_continue,html.Screen,4_16_2,2023-05-01T16:45:36.811Z,,0,,,NaN,,,,,,false,,,,97903,97903,,97903,,97941,6,300,,,
sequence,flow.Sequence,4_16,2023-05-01T16:45:36.811Z,,0,,,2795,completion,,,,,false,,,,97903,97903,95091,95067,95108,97941,6,300,,,
trial,html.Screen,4_17_0,2023-05-01T16:45:43.492Z,,0,1,,6660,response,ISIC_3327201.JPG,,ISIC_1254469.JPG,ISIC_3327201.JPG,false,1,keypress(m),500,104584,104584,97924,97903,97941,104625,6,300,18,,ISIC_1254469.JPG
break,html.Screen,4_17_1,2023-05-01T16:45:43.493Z,,0,,,NaN,,,,,,false,,,,104586,104585.00000000001,,104585.00000000001,,104625,6,300,,,
break_continue,html.Screen,4_17_2,2023-05-01T16:45:43.494Z,,0,,,NaN,,,,,,false,,,,104586,104586,,104586,,104625,6,300,,,
sequence,flow.Sequence,4_17,2023-05-01T16:45:43.494Z,,0,,,6645,completion,,,,,false,,,,104586,104586,97924,97903,97941,104625,6,300,,,
trial,html.Screen,4_18_0,2023-05-01T16:45:46.340Z,,0,1,,2823,response,ISIC_4965832.JPG,,ISIC_0008055.JPG,ISIC_0008055.JPG,false,0,keypress(z),500,107432,107431,104608,104586,104625,107475,6,300,19,,ISIC_4965832.JPG
break,html.Screen,4_18_1,2023-05-01T16:45:46.341Z,,0,,,NaN,,,,,,false,,,,107433,107433,,107432,,107475,6,300,,,
break_continue,html.Screen,4_18_2,2023-05-01T16:45:46.341Z,,0,,,NaN,,,,,,false,,,,107433,107433,,107433,,107475,6,300,,,
sequence,flow.Sequence,4_18,2023-05-01T16:45:46.341Z,,0,,,2808,completion,,,,,false,,,,107434,107433,104608,104586,104625,107475,6,300,,,
trial,html.Screen,4_19_0,2023-05-01T16:45:49.278Z,,0,1,,2912,response,ISIC_2605120.JPG,,ISIC_4634128.JPG,ISIC_4634128.JPG,false,0,keypress(z),500,110370,110370,107458,107434,107475,110408,6,300,20,,ISIC_2605120.JPG
break,html.Screen,4_19_1,2023-05-01T16:45:49.279Z,,0,,,NaN,,,,,,false,,,,110371.00000000001,110371.00000000001,,110371.00000000001,,110408,6,300,,,
break_continue,html.Screen,4_19_2,2023-05-01T16:45:49.279Z,,0,,,NaN,,,,,,false,,,,110372,110372,,110371.00000000001,,110408,6,300,,,
sequence,flow.Sequence,4_19,2023-05-01T16:45:49.280Z,,0,,,2897,completion,,,,,false,,,,110372,110372,107458,107434,107475,110408,6,300,,,
trial,html.Screen,4_20_0,2023-05-01T16:45:52.222Z,,0,1,,2921,response,ISIC_0030666.JPG,,ISIC_1641823.JPG,ISIC_1641823.JPG,false,0,keypress(z),500,113314,113313,110392,110372,110408,113342,6,300,21,,ISIC_0030666.JPG
break,html.Screen,4_20_1,2023-05-01T16:45:52.223Z,,0,,,NaN,,,,,,false,,,,113315,113315,,113314,,113342,6,300,,,
break_continue,html.Screen,4_20_2,2023-05-01T16:45:52.223Z,,0,,,NaN,,,,,,false,,,,113315,113315,,113315,,113342,6,300,,,
sequence,flow.Sequence,4_20,2023-05-01T16:45:52.223Z,,0,,,2907,completion,,,,,false,,,,113315,113315,110392,110372,110408,113342,6,300,,,
trial,html.Screen,4_21_0,2023-05-01T16:45:55.379Z,,0,1,,3145,response,ISIC_0060559.JPG,,ISIC_5041679.JPG,ISIC_5041679.JPG,false,0,keypress(z),500,116471,116470,113325,113316,113342,116509,6,300,22,,ISIC_0060559.JPG
break,html.Screen,4_21_1,2023-05-01T16:45:55.380Z,,0,,,NaN,,,,,,false,,,,116472.00000000001,116472.00000000001,,116471,,116509,6,300,,,
break_continue,html.Screen,4_21_2,2023-05-01T16:45:55.381Z,,0,,,NaN,,,,,,false,,,,116473,116473,,116473,,116509,6,300,,,
sequence,flow.Sequence,4_21,2023-05-01T16:45:55.381Z,,0,,,3131,completion,,,,,false,,,,116473,116473,113325,113315,113342,116509,6,300,,,
trial,html.Screen,4_22_0,2023-05-01T16:45:58.156Z,,0,1,,2757,response,ISIC_0010514.JPG,,ISIC_0031649.JPG,ISIC_0031649.JPG,false,0,keypress(z),500,119249.00000000001,119248,116491,116473,116509,119292,6,300,23,,ISIC_0010514.JPG
break,html.Screen,4_22_1,2023-05-01T16:45:58.158Z,,0,,,NaN,,,,,,false,,,,119250,119250,,119249.00000000001,,119292,6,300,,,
break_continue,html.Screen,4_22_2,2023-05-01T16:45:58.159Z,,0,,,NaN,,,,,,false,,,,119251,119251,,119250,,119292,6,300,,,
sequence,flow.Sequence,4_22,2023-05-01T16:45:58.159Z,,0,,,2742,completion,,,,,false,,,,119251,119251,116491,116473,116509,119292,6,300,,,
trial,html.Screen,4_23_0,2023-05-01T16:46:01.146Z,,0,1,,2963,response,ISIC_1927858.JPG,,ISIC_0010923.JPG,ISIC_1927858.JPG,false,1,keypress(m),500,122238,122238,119275,119252.00000000001,119292,122275,6,300,24,,ISIC_0010923.JPG
break,html.Screen,4_23_1,2023-05-01T16:46:01.147Z,,0,,,NaN,,,,,,false,,,,122240.00000000001,122239,,122239,,122275,6,300,,,
break_continue,html.Screen,4_23_2,2023-05-01T16:46:01.148Z,,0,,,NaN,,,,,,false,,,,122240.00000000001,122240.00000000001,,122240.00000000001,,122275,6,300,,,
sequence,flow.Sequence,4_23,2023-05-01T16:46:01.148Z,,0,,,2948.0000000000146,completion,,,,,false,,,,122241,122240.00000000001,119275,119251,119292,122275,6,300,,,
trial,html.Screen,4_24_0,2023-05-01T16:46:10.790Z,,0,1,,9622,response,ISIC_0011264.JPG,,ISIC_0030913.JPG,ISIC_0030913.JPG,false,0,keypress(z),500,131882,131881,122259,122241,122275,131925,6,300,25,,ISIC_0011264.JPG
break,html.Screen,4_24_1,2023-05-01T16:46:10.791Z,,0,,,NaN,,,,,,false,,,,131883,131883,,131882,,131925,6,300,,,
break_continue,html.Screen,4_24_2,2023-05-01T16:46:10.791Z,,0,,,NaN,,,,,,false,,,,131884,131883,,131883,,131925,6,300,,,
sequence,flow.Sequence,4_24,2023-05-01T16:46:10.792Z,,0,,,9608,completion,,,,,false,,,,131884,131883,122259,122241,122275,131925,6,300,,,
trial,html.Screen,4_25_0,2023-05-01T16:46:20.817Z,,0,1,,10017,timeout,ISIC_0026730.JPG,,ISIC_8510848.JPG,,false,,,500,141909,141909,131909,131884,131925,141942,6,300,26,,
break,html.Screen,4_25_1,2023-05-01T16:46:20.818Z,,0,,,NaN,,,,,,false,,,,141911,141910,,141910,,141942,6,300,,,
break_continue,html.Screen,4_25_2,2023-05-01T16:46:20.819Z,,0,,,NaN,,,,,,false,,,,141911,141911,,141911,,141942,6,300,,,
sequence,flow.Sequence,4_25,2023-05-01T16:46:20.819Z,,0,,,9986,completion,,,,,false,,,,141911,141911,131909,131884,131925,141942,6,300,,,
trial,html.Screen,4_26_0,2023-05-01T16:46:25.528Z,,0,1,,4694,response,ISIC_5552066.JPG,,ISIC_7462953.JPG,ISIC_5552066.JPG,false,1,keypress(m),500,146620,146619,141925,141911,141942,146658,6,300,27,,ISIC_7462953.JPG
break,html.Screen,4_26_1,2023-05-01T16:46:25.529Z,,0,,,NaN,,,,,,false,,,,146621,146621,,146620,,146658,6,300,,,
break_continue,html.Screen,4_26_2,2023-05-01T16:46:25.529Z,,0,,,NaN,,,,,,false,,,,146621,146621,,146621,,146658,6,300,,,
sequence,flow.Sequence,4_26,2023-05-01T16:46:25.530Z,,0,,,4679,completion,,,,,false,,,,146622,146621,141925,141911,141942,146658,6,300,,,
trial,html.Screen,4_27_0,2023-05-01T16:46:29.783Z,,0,1,,4233,response,ISIC_0068776.JPG,,ISIC_9668514.JPG,ISIC_9668514.JPG,false,0,keypress(z),500,150875,150875,146642,146622,146658,150909,6,300,28,,ISIC_0068776.JPG
break,html.Screen,4_27_1,2023-05-01T16:46:29.784Z,,0,,,NaN,,,,,,false,,,,150876,150876,,150876,,150909,6,300,,,
break_continue,html.Screen,4_27_2,2023-05-01T16:46:29.785Z,,0,,,NaN,,,,,,false,,,,150877,150877,,150876,,150909,6,300,,,
sequence,flow.Sequence,4_27,2023-05-01T16:46:29.785Z,,0,,,4219,completion,,,,,false,,,,150877,150877,146642,146622,146658,150909,6,300,,,
trial,html.Screen,4_28_0,2023-05-01T16:46:39.801Z,,0,1,,10016,timeout,ISIC_0025267.JPG,,ISIC_1858989.JPG,,false,,,500,160893,160892,150892,150877,150909,160925,6,300,29,,
break,html.Screen,4_28_1,2023-05-01T16:46:39.802Z,,0,,,NaN,,,,,,false,,,,160894,160894,,160893,,160925,6,300,,,
break_continue,html.Screen,4_28_2,2023-05-01T16:46:39.802Z,,0,,,NaN,,,,,,false,,,,160894,160894,,160894,,160925,6,300,,,
sequence,flow.Sequence,4_28,2023-05-01T16:46:39.802Z,,0,,,9985,completion,,,,,false,,,,160894,160894,150892,150877,150909,160925,6,300,,,
trial,html.Screen,4_29_0,2023-05-01T16:46:43.043Z,,0,1,,3225,response,ISIC_8433108.JPG,,ISIC_8158081.JPG,ISIC_8433108.JPG,false,1,keypress(m),500,164135,164134,160909,160895,160925,164175,6,300,30,,ISIC_8158081.JPG
break,html.Screen,4_29_1,2023-05-01T16:46:43.044Z,,0,,,NaN,,,,,,false,,,,164136,164136,,164135,,164175,6,300,,,
break_continue,html.Screen,4_29_2,2023-05-01T16:46:43.044Z,,0,,,NaN,,,,,,false,,,,164136,164136,,164136,,164175,6,300,,,
sequence,flow.Sequence,4_29,2023-05-01T16:46:43.045Z,,0,,,3211,completion,,,,,false,,,,164137,164136,160909,160894,160925,164175,6,300,,,
trial,html.Screen,4_30_0,2023-05-01T16:46:46.204Z,,0,1,,3136.000000000029,response,ISIC_8030914.JPG,,ISIC_6427157.JPG,ISIC_6427157.JPG,false,0,keypress(z),500,167296,167295.00000000003,164159,164138,164175,167325,6,300,31,,ISIC_8030914.JPG
break,html.Screen,4_30_1,2023-05-01T16:46:46.205Z,,0,,,NaN,,,,,,false,,,,167297,167297,,167296,,167325,6,300,,,
break_continue,html.Screen,4_30_2,2023-05-01T16:46:46.205Z,,0,,,NaN,,,,,,false,,,,167298,167297,,167297,,167325,6,300,,,
sequence,flow.Sequence,4_30,2023-05-01T16:46:46.206Z,,0,,,3122,completion,,,,,false,,,,167298,167297,164159,164138,164175,167325,6,300,,,
trial,html.Screen,4_31_0,2023-05-01T16:46:49.324Z,,0,1,,3106,response,ISIC_4425657.JPG,,ISIC_0010965.JPG,ISIC_4425657.JPG,false,1,keypress(m),500,170416,170415,167309,167298,167325,170459,6,300,32,,ISIC_0010965.JPG
break,html.Screen,4_31_1,2023-05-01T16:46:49.325Z,,0,,,NaN,,,,,,false,,,,170417,170417,,170416,,170459,6,300,,,
break_continue,html.Screen,4_31_2,2023-05-01T16:46:49.325Z,,0,,,NaN,,,,,,false,,,,170417,170417,,170417,,170459,6,300,,,
sequence,flow.Sequence,4_31,2023-05-01T16:46:49.325Z,,0,,,3092,completion,,,,,false,,,,170417,170417,167309,167298,167325,170459,6,300,,,
trial,html.Screen,4_32_0,2023-05-01T16:46:52.253Z,,0,1,,2903,response,ISIC_9485536.JPG,,ISIC_7966295.JPG,ISIC_7966295.JPG,false,0,keypress(z),500,173345,173344,170441,170418,170459,173375,6,300,33,,ISIC_9485536.JPG
break,html.Screen,4_32_1,2023-05-01T16:46:52.254Z,,0,,,NaN,,,,,,false,,,,173347,173346,,173345,,173375,6,300,,,
break_continue,html.Screen,4_32_2,2023-05-01T16:46:52.255Z,,0,,,NaN,,,,,,false,,,,173347,173347,,173347,,173375,6,300,,,
sequence,flow.Sequence,4_32,2023-05-01T16:46:52.255Z,,0,,,2888,completion,,,,,false,,,,173347,173347,170441,170418,170459,173375,6,300,,,
trial,html.Screen,4_33_0,2023-05-01T16:46:55.097Z,,0,1,,2829.000000000029,response,ISIC_0031356.JPG,,ISIC_0010068.JPG,ISIC_0031356.JPG,false,1,keypress(m),500,176189,176188.00000000003,173359,173347,173375,176226,6,300,34,,ISIC_0010068.JPG
break,html.Screen,4_33_1,2023-05-01T16:46:55.098Z,,0,,,NaN,,,,,,false,,,,176190,176190,,176189,,176226,6,300,,,
break_continue,html.Screen,4_33_2,2023-05-01T16:46:55.098Z,,0,,,NaN,,,,,,false,,,,176190,176190,,176190,,176226,6,300,,,
sequence,flow.Sequence,4_33,2023-05-01T16:46:55.098Z,,0,,,2815,completion,,,,,false,,,,176191,176190,173359,173347,173375,176226,6,300,,,
trial,html.Screen,4_34_0,2023-05-01T16:46:57.823Z,,0,1,,2706,response,ISIC_2508901.JPG,,ISIC_0069595.JPG,ISIC_2508901.JPG,false,1,keypress(m),500,178915,178915,176209,176191,176226,178959,6,300,35,,ISIC_0069595.JPG
break,html.Screen,4_34_1,2023-05-01T16:46:57.824Z,,0,,,NaN,,,,,,false,,,,178916,178916,,178916,,178959,6,300,,,
break_continue,html.Screen,4_34_2,2023-05-01T16:46:57.825Z,,0,,,NaN,,,,,,false,,,,178917,178917,,178917,,178959,6,300,,,
sequence,flow.Sequence,4_34,2023-05-01T16:46:57.825Z,,0,,,2691,completion,,,,,false,,,,178917,178917,176209,176191,176226,178959,6,300,,,
trial,html.Screen,4_35_0,2023-05-01T16:47:00.807Z,,0,1,,2956,response,ISIC_0066012.JPG,,ISIC_1619470.JPG,ISIC_1619470.JPG,false,0,keypress(z),500,181899,181898,178942,178917,178959,181942,6,300,36,,ISIC_0066012.JPG
break,html.Screen,4_35_1,2023-05-01T16:47:00.808Z,,0,,,NaN,,,,,,false,,,,181900,181900,,181899,,181942,6,300,,,
break_continue,html.Screen,4_35_2,2023-05-01T16:47:00.809Z,,0,,,NaN,,,,,,false,,,,181901,181901,,181901,,181942,6,300,,,
sequence,flow.Sequence,4_35,2023-05-01T16:47:00.809Z,,0,,,2942,completion,,,,,false,,,,181901,181901,178942,178917,178959,181942,6,300,,,
trial,html.Screen,4_36_0,2023-05-01T16:47:03.794Z,,0,1,,2960,response,ISIC_6828892.JPG,,ISIC_0028445.JPG,ISIC_6828892.JPG,false,1,keypress(m),500,184886,184885,181925,181901,181942,184925,6,300,37,,ISIC_0028445.JPG
break,html.Screen,4_36_1,2023-05-01T16:47:03.795Z,,0,,,NaN,,,,,,false,,,,184887,184887,,184886,,184925,6,300,,,
break_continue,html.Screen,4_36_2,2023-05-01T16:47:03.795Z,,0,,,NaN,,,,,,false,,,,184887,184887,,184887,,184925,6,300,,,
sequence,flow.Sequence,4_36,2023-05-01T16:47:03.795Z,,0,,,2945,completion,,,,,false,,,,184887,184887,181925,181901,181942,184925,6,300,,,
trial,html.Screen,4_37_0,2023-05-01T16:47:06.586Z,,0,1,,2769,response,ISIC_0002613.JPG,,ISIC_0027712.JPG,ISIC_0002613.JPG,false,1,keypress(m),500,187678,187677,184908,184888,184925,187708,6,300,38,,ISIC_0027712.JPG
break,html.Screen,4_37_1,2023-05-01T16:47:06.586Z,,0,,,NaN,,,,,,false,,,,187679,187678,,187678,,187708,6,300,,,
break_continue,html.Screen,4_37_2,2023-05-01T16:47:06.587Z,,0,,,NaN,,,,,,false,,,,187679,187679,,187679,,187708,6,300,,,
sequence,flow.Sequence,4_37,2023-05-01T16:47:06.587Z,,0,,,2754,completion,,,,,false,,,,187679,187679,184908,184888,184925,187708,6,300,,,
trial,html.Screen,4_38_0,2023-05-01T16:47:09.529Z,,0,1,,2929,response,ISIC_0261253.JPG,,ISIC_0059943.JPG,ISIC_0261253.JPG,false,1,keypress(m),500,190621,190621,187692,187679,187708,190659,6,300,39,,ISIC_0059943.JPG
break,html.Screen,4_38_1,2023-05-01T16:47:09.531Z,,0,,,NaN,,,,,,false,,,,190623,190623,,190622,,190659,6,300,,,
break_continue,html.Screen,4_38_2,2023-05-01T16:47:09.531Z,,0,,,NaN,,,,,,false,,,,190623,190623,,190623,,190659,6,300,,,
sequence,flow.Sequence,4_38,2023-05-01T16:47:09.531Z,,0,,,2915,completion,,,,,false,,,,190623,190623,187692,187679,187708,190659,6,300,,,
trial,html.Screen,4_39_0,2023-05-01T16:47:12.306Z,,0,1,,2755,response,ISIC_0032522.JPG,,ISIC_3123377.JPG,ISIC_3123377.JPG,false,0,keypress(z),500,193398,193397,190642,190624,190659,193442,6,300,40,,ISIC_0032522.JPG
break,html.Screen,4_39_1,2023-05-01T16:47:12.307Z,,0,,,NaN,,,,,,false,,,,193399,193399,,193398,,193442,6,300,,,
break_continue,html.Screen,4_39_2,2023-05-01T16:47:12.308Z,,0,,,NaN,,,,,,false,,,,193400,193400,,193399,,193442,6,300,,,
sequence,flow.Sequence,4_39,2023-05-01T16:47:12.308Z,,0,,,2741,completion,,,,,false,,,,193400,193400,190642,190624,190659,193442,6,300,,,
trial,html.Screen,4_40_0,2023-05-01T16:47:14.965Z,,0,1,,2631,response,ISIC_1241817.JPG,,ISIC_3386753.JPG,ISIC_3386753.JPG,false,0,keypress(z),500,196057.00000000003,196056,193425,193400,193442,196092,6,300,41,,ISIC_1241817.JPG
break,html.Screen,4_40_1,2023-05-01T16:47:14.966Z,,0,,,NaN,,,,,,false,,,,196058,196058,,196057.00000000003,,196092,6,300,,,
break_continue,html.Screen,4_40_2,2023-05-01T16:47:14.966Z,,0,,,NaN,,,,,,false,,,,196058,196058,,196058,,196092,6,300,,,
sequence,flow.Sequence,4_40,2023-05-01T16:47:14.966Z,,0,,,2616,completion,,,,,false,,,,196058,196058,193425,193400,193442,196092,6,300,,,
trial,html.Screen,4_41_0,2023-05-01T16:47:17.800Z,,0,1,,2817,response,ISIC_4035599.JPG,,ISIC_0066882.JPG,ISIC_4035599.JPG,false,1,keypress(m),500,198892,198892,196075,196058,196092,198926,6,300,42,,ISIC_0066882.JPG
break,html.Screen,4_41_1,2023-05-01T16:47:17.801Z,,0,,,NaN,,,,,,false,,,,198893,198893,,198893,,198926,6,300,,,
break_continue,html.Screen,4_41_2,2023-05-01T16:47:17.802Z,,0,,,NaN,,,,,,false,,,,198894,198894,,198894,,198926,6,300,,,
sequence,flow.Sequence,4_41,2023-05-01T16:47:17.802Z,,0,,,2802,completion,,,,,false,,,,198894,198894,196075,196058,196092,198926,6,300,,,
trial,html.Screen,4_42_0,2023-05-01T16:47:20.743Z,,0,1,,2925,response,ISIC_0072290.JPG,,ISIC_2513933.JPG,ISIC_2513933.JPG,false,0,keypress(z),500,201835,201834,198909,198895,198926,201875,6,300,43,,ISIC_0072290.JPG
break,html.Screen,4_42_1,2023-05-01T16:47:20.744Z,,0,,,NaN,,,,,,false,,,,201836,201836,,201835,,201875,6,300,,,
break_continue,html.Screen,4_42_2,2023-05-01T16:47:20.744Z,,0,,,NaN,,,,,,false,,,,201837.00000000003,201836,,201836,,201875,6,300,,,
sequence,flow.Sequence,4_42,2023-05-01T16:47:20.745Z,,0,,,2910,completion,,,,,false,,,,201837.00000000003,201836,198909,198895,198926,201875,6,300,,,
trial,html.Screen,4_43_0,2023-05-01T16:47:23.539Z,,0,1,,2772,response,ISIC_0033454.JPG,,ISIC_0056364.JPG,ISIC_0056364.JPG,false,0,keypress(z),500,204631,204631,201859,201837.00000000003,201875,204658,6,300,44,,ISIC_0033454.JPG
break,html.Screen,4_43_1,2023-05-01T16:47:23.540Z,,0,,,NaN,,,,,,false,,,,204633,204632,,204632,,204658,6,300,,,
break_continue,html.Screen,4_43_2,2023-05-01T16:47:23.541Z,,0,,,NaN,,,,,,false,,,,204633,204633,,204633,,204658,6,300,,,
sequence,flow.Sequence,4_43,2023-05-01T16:47:23.541Z,,0,,,2758,completion,,,,,false,,,,204633,204633,201859,201837.00000000003,201875,204658,6,300,,,
trial,html.Screen,4_44_0,2023-05-01T16:47:27.346Z,,0,1,,3795,response,ISIC_0025791.JPG,,ISIC_0006672.JPG,ISIC_0006672.JPG,false,0,keypress(z),500,208438.00000000003,208437,204642,204633,204658,208475,6,300,45,,ISIC_0025791.JPG
break,html.Screen,4_44_1,2023-05-01T16:47:27.347Z,,0,,,NaN,,,,,,false,,,,208439,208439,,208438.00000000003,,208475,6,300,,,
break_continue,html.Screen,4_44_2,2023-05-01T16:47:27.347Z,,0,,,NaN,,,,,,false,,,,208439,208439,,208439,,208475,6,300,,,
sequence,flow.Sequence,4_44,2023-05-01T16:47:27.347Z,,0,,,3781,completion,,,,,false,,,,208439,208439,204642,204633,204658,208475,6,300,,,
trial,html.Screen,4_45_0,2023-05-01T16:47:30.018Z,,0,1,,2650,response,ISIC_0072377.JPG,,ISIC_0011057.JPG,ISIC_0011057.JPG,false,0,keypress(z),500,211110,211109,208459,208439,208475,211142,6,300,46,,ISIC_0072377.JPG
break,html.Screen,4_45_1,2023-05-01T16:47:30.019Z,,0,,,NaN,,,,,,false,,,,211111.00000000003,211111.00000000003,,211110,,211142,6,300,,,
break_continue,html.Screen,4_45_2,2023-05-01T16:47:30.020Z,,0,,,NaN,,,,,,false,,,,211112,211112,,211111.00000000003,,211142,6,300,,,
sequence,flow.Sequence,4_45,2023-05-01T16:47:30.020Z,,0,,,2637,completion,,,,,false,,,,211112,211112,208459,208439,208475,211142,6,300,,,
trial,html.Screen,4_46_0,2023-05-01T16:47:32.603Z,,0,1,,2570,response,ISIC_5530598.JPG,,ISIC_0024427.JPG,ISIC_5530598.JPG,false,1,keypress(m),500,213695,213695,211125,211112,211142,213725,6,300,47,,ISIC_0024427.JPG
break,html.Screen,4_46_1,2023-05-01T16:47:32.604Z,,0,,,NaN,,,,,,false,,,,213696,213696,,213695,,213725,6,300,,,
break_continue,html.Screen,4_46_2,2023-05-01T16:47:32.605Z,,0,,,NaN,,,,,,false,,,,213697,213696,,213696,,213725,6,300,,,
sequence,flow.Sequence,4_46,2023-05-01T16:47:32.605Z,,0,,,2554,completion,,,,,false,,,,213697,213696,211125,211112,211142,213725,6,300,,,
trial,html.Screen,4_47_0,2023-05-01T16:47:35.494Z,,0,1,,2876,response,ISIC_0014657.JPG,,ISIC_1831600.JPG,ISIC_1831600.JPG,false,0,keypress(z),500,216586,216585,213709,213697,213725,216625,6,300,48,,ISIC_0014657.JPG
break,html.Screen,4_47_1,2023-05-01T16:47:35.495Z,,0,,,NaN,,,,,,false,,,,216587.00000000003,216586,,216586,,216625,6,300,,,
break_continue,html.Screen,4_47_2,2023-05-01T16:47:35.495Z,,0,,,NaN,,,,,,false,,,,216587.00000000003,216587.00000000003,,216587.00000000003,,216625,6,300,,,
sequence,flow.Sequence,4_47,2023-05-01T16:47:35.495Z,,0,,,2862.000000000029,completion,,,,,false,,,,216587.00000000003,216587.00000000003,213709,213697,213725,216625,6,300,,,
trial,html.Screen,4_48_0,2023-05-01T16:47:38.696Z,,0,1,,3179,response,ISIC_0429825.JPG,,ISIC_0060827.JPG,ISIC_0429825.JPG,false,1,keypress(m),500,219788,219788,216609,216587.00000000003,216625,219825,6,300,49,,ISIC_0060827.JPG
break,html.Screen,4_48_1,2023-05-01T16:47:38.697Z,,0,,,NaN,,,,,,false,,,,219789.00000000003,219789.00000000003,,219789.00000000003,,219825,6,300,,,
break_continue,html.Screen,4_48_2,2023-05-01T16:47:38.698Z,,0,,,NaN,,,,,,false,,,,219790,219790,,219790,,219825,6,300,,,
sequence,flow.Sequence,4_48,2023-05-01T16:47:38.698Z,,0,,,3165,completion,,,,,false,,,,219790,219790,216609,216587.00000000003,216625,219825,6,300,,,
trial,html.Screen,4_49_0,2023-05-01T16:47:41.722Z,,0,1,,3005,response,ISIC_0014129.JPG,,ISIC_0056707.JPG,ISIC_0014129.JPG,false,1,keypress(m),500,222814,222814,219809,219791,219825,222841,6,300,50,,ISIC_0056707.JPG
break,html.Screen,4_49_1,2023-05-01T16:47:46.733Z,,0,,,5000,timeout,,,,,false,,,,227825.00000000003,227825,222826,222815,222841,227841,6,300,,,
break_continue,html.Screen,4_49_2,2023-05-01T16:47:52.186Z,,0,,,5426,response,,,,,false,continue,keypress(Space),,233278,233251,227825,227825.00000000003,227841,233309,6,300,,,
sequence,flow.Sequence,4_49,2023-05-01T16:47:52.187Z,,0,,,13426,completion,,,,,false,,,,233279,233251,219809,219790,219825,233309,6,300,,,
trial,html.Screen,4_50_0,2023-05-01T16:47:54.876Z,,0,2,,2676.000000000029,response,ISIC_5486460.JPG,,ISIC_7885010.JPG,ISIC_5486460.JPG,false,1,keypress(m),500,235969,235968.00000000003,233292,233279,233309,236009,6,300,1,,ISIC_7885010.JPG
break,html.Screen,4_50_1,2023-05-01T16:47:54.878Z,,0,,,NaN,,,,,,false,,,,235970,235969,,235969,,236009,6,300,,,
break_continue,html.Screen,4_50_2,2023-05-01T16:47:54.878Z,,0,,,NaN,,,,,,false,,,,235970,235970,,235970,,236009,6,300,,,
sequence,flow.Sequence,4_50,2023-05-01T16:47:54.878Z,,0,,,2661,completion,,,,,false,,,,235970,235970,233292,233279,233309,236009,6,300,,,
trial,html.Screen,4_51_0,2023-05-01T16:47:57.275Z,,0,2,,2374,response,ISIC_3992223.JPG,,ISIC_0014270.JPG,ISIC_0014270.JPG,false,0,keypress(z),500,238367.00000000003,238366,235992,235970,236009,238409,6,300,2,,ISIC_3992223.JPG
break,html.Screen,4_51_1,2023-05-01T16:47:57.277Z,,0,,,NaN,,,,,,false,,,,238369,238368,,238368,,238409,6,300,,,
break_continue,html.Screen,4_51_2,2023-05-01T16:47:57.277Z,,0,,,NaN,,,,,,false,,,,238369,238369,,238369,,238409,6,300,,,
sequence,flow.Sequence,4_51,2023-05-01T16:47:57.277Z,,0,,,2360,completion,,,,,false,,,,238369,238369,235992,235970,236009,238409,6,300,,,
trial,html.Screen,4_52_0,2023-05-01T16:48:00.080Z,,0,2,,2779,response,ISIC_0027406.JPG,,ISIC_9228729.JPG,ISIC_9228729.JPG,false,0,keypress(z),500,241172,241171,238392,238370,238409,241192,6,300,3,,ISIC_0027406.JPG
break,html.Screen,4_52_1,2023-05-01T16:48:00.081Z,,0,,,NaN,,,,,,false,,,,241173,241173,,241172,,241192,6,300,,,
break_continue,html.Screen,4_52_2,2023-05-01T16:48:00.081Z,,0,,,NaN,,,,,,false,,,,241173,241173,,241173,,241192,6,300,,,
sequence,flow.Sequence,4_52,2023-05-01T16:48:00.081Z,,0,,,2764,completion,,,,,false,,,,241173,241173,238392,238369,238409,241192,6,300,,,
trial,html.Screen,4_53_0,2023-05-01T16:48:02.663Z,,0,2,,2578.000000000029,response,ISIC_6780471.JPG,,ISIC_0011380.JPG,ISIC_6780471.JPG,false,1,keypress(m),500,243755,243754.00000000003,241176,241174,241192,243776,6,300,4,,ISIC_0011380.JPG
break,html.Screen,4_53_1,2023-05-01T16:48:02.664Z,,0,,,NaN,,,,,,false,,,,243756,243756,,243755,,243776,6,300,,,
break_continue,html.Screen,4_53_2,2023-05-01T16:48:02.664Z,,0,,,NaN,,,,,,false,,,,243756,243756,,243756,,243776,6,300,,,
sequence,flow.Sequence,4_53,2023-05-01T16:48:02.664Z,,0,,,2564,completion,,,,,false,,,,243756,243756,241176,241174,241192,243776,6,300,,,
trial,html.Screen,4_54_0,2023-05-01T16:48:05.284Z,,0,2,,2616,response,ISIC_0033496.JPG,,ISIC_6511689.JPG,ISIC_6511689.JPG,false,0,keypress(z),500,246376,246375,243759,243757,243776,246409,6,300,5,,ISIC_0033496.JPG
break,html.Screen,4_54_1,2023-05-01T16:48:05.285Z,,0,,,NaN,,,,,,false,,,,246377,246377,,246376,,246409,6,300,,,
break_continue,html.Screen,4_54_2,2023-05-01T16:48:05.286Z,,0,,,NaN,,,,,,false,,,,246378,246378,,246377,,246409,6,300,,,
sequence,flow.Sequence,4_54,2023-05-01T16:48:05.286Z,,0,,,2602,completion,,,,,false,,,,246378,246378,243759,243757,243776,246409,6,300,,,
trial,html.Screen,4_55_0,2023-05-01T16:48:07.786Z,,0,2,,2486,response,ISIC_0032682.JPG,,ISIC_6767038.JPG,ISIC_6767038.JPG,false,0,keypress(z),500,248878,248878,246392,246378,246409,248909,6,300,6,,ISIC_0032682.JPG
break,html.Screen,4_55_1,2023-05-01T16:48:07.787Z,,0,,,NaN,,,,,,false,,,,248879.00000000003,248879.00000000003,,248878,,248909,6,300,,,
break_continue,html.Screen,4_55_2,2023-05-01T16:48:07.787Z,,0,,,NaN,,,,,,false,,,,248879.00000000003,248879.00000000003,,248879.00000000003,,248909,6,300,,,
sequence,flow.Sequence,4_55,2023-05-01T16:48:07.788Z,,0,,,2470.000000000029,completion,,,,,false,,,,248880,248879.00000000003,246392,246378,246409,248909,6,300,,,
trial,html.Screen,4_56_0,2023-05-01T16:48:10.459Z,,0,2,,2660.000000000029,response,ISIC_6118824.JPG,,ISIC_0014867.JPG,ISIC_6118824.JPG,false,1,keypress(m),500,251551.00000000003,251551.00000000003,248891,248880,248909,251576,6,300,7,,ISIC_0014867.JPG
break,html.Screen,4_56_1,2023-05-01T16:48:10.460Z,,0,,,NaN,,,,,,false,,,,251552,251552,,251551.00000000003,,251576,6,300,,,
break_continue,html.Screen,4_56_2,2023-05-01T16:48:10.460Z,,0,,,NaN,,,,,,false,,,,251552,251552,,251552,,251576,6,300,,,
sequence,flow.Sequence,4_56,2023-05-01T16:48:10.461Z,,0,,,2643,completion,,,,,false,,,,251553,251552,248891,248880,248909,251576,6,300,,,
trial,html.Screen,4_57_0,2023-05-01T16:48:13.112Z,,0,2,,2645,response,ISIC_0001745.JPG,,ISIC_9412963.JPG,ISIC_0001745.JPG,false,1,keypress(m),500,254204,254204,251559,251553,251576,254226,6,300,8,,ISIC_9412963.JPG
break,html.Screen,4_57_1,2023-05-01T16:48:13.114Z,,0,,,NaN,,,,,,false,,,,254206.00000000003,254205,,254205,,254226,6,300,,,
break_continue,html.Screen,4_57_2,2023-05-01T16:48:13.114Z,,0,,,NaN,,,,,,false,,,,254206.00000000003,254206.00000000003,,254206.00000000003,,254226,6,300,,,
sequence,flow.Sequence,4_57,2023-05-01T16:48:13.114Z,,0,,,2630.000000000029,completion,,,,,false,,,,254206.00000000003,254206.00000000003,251559,251553,251576,254226,6,300,,,
trial,html.Screen,4_58_0,2023-05-01T16:48:15.753Z,,0,2,,2635,response,ISIC_7074321.JPG,,ISIC_0024739.JPG,ISIC_0024739.JPG,false,0,keypress(z),500,256845.00000000003,256844,254209,254207,254226,256876,6,300,9,,ISIC_7074321.JPG
break,html.Screen,4_58_1,2023-05-01T16:48:15.754Z,,0,,,NaN,,,,,,false,,,,256846,256846,,256845.00000000003,,256876,6,300,,,
break_continue,html.Screen,4_58_2,2023-05-01T16:48:15.754Z,,0,,,NaN,,,,,,false,,,,256846,256846,,256846,,256876,6,300,,,
sequence,flow.Sequence,4_58,2023-05-01T16:48:15.754Z,,0,,,2620,completion,,,,,false,,,,256846,256846,254209,254207,254226,256876,6,300,,,
trial,html.Screen,4_59_0,2023-05-01T16:48:18.510Z,,0,2,,2742,response,ISIC_0927854.JPG,,ISIC_0061735.JPG,ISIC_0061735.JPG,false,0,keypress(z),500,259602.00000000003,259601,256859,256846.99999999997,256876,259642,6,300,10,,ISIC_0927854.JPG
break,html.Screen,4_59_1,2023-05-01T16:48:18.510Z,,0,,,NaN,,,,,,false,,,,259602.00000000003,259602.00000000003,,259602.00000000003,,259642,6,300,,,
break_continue,html.Screen,4_59_2,2023-05-01T16:48:18.511Z,,0,,,NaN,,,,,,false,,,,259603,259603,,259603,,259642,6,300,,,
sequence,flow.Sequence,4_59,2023-05-01T16:48:18.511Z,,0,,,2727,completion,,,,,false,,,,259603,259603,256859,256846,256876,259642,6,300,,,
trial,html.Screen,4_60_0,2023-05-01T16:48:21.133Z,,0,2,,2598,response,ISIC_0025580.JPG,,ISIC_1008609.JPG,ISIC_1008609.JPG,false,0,keypress(z),500,262225,262224,259626,259603,259642,262258,6,300,11,,ISIC_0025580.JPG
break,html.Screen,4_60_1,2023-05-01T16:48:21.134Z,,0,,,NaN,,,,,,false,,,,262226,262226,,262225,,262258,6,300,,,
break_continue,html.Screen,4_60_2,2023-05-01T16:48:21.134Z,,0,,,NaN,,,,,,false,,,,262226,262226,,262226,,262258,6,300,,,
sequence,flow.Sequence,4_60,2023-05-01T16:48:21.134Z,,0,,,2584,completion,,,,,false,,,,262226,262226,259626,259603,259642,262258,6,300,,,
trial,html.Screen,4_61_0,2023-05-01T16:48:23.788Z,,0,2,,2637,response,ISIC_0031127.JPG,,ISIC_6377622.JPG,ISIC_6377622.JPG,false,0,keypress(z),500,264880,264879,262242,262226,262258,264909,6,300,12,,ISIC_0031127.JPG
break,html.Screen,4_61_1,2023-05-01T16:48:23.789Z,,0,,,NaN,,,,,,false,,,,264881,264881,,264880,,264909,6,300,,,
break_continue,html.Screen,4_61_2,2023-05-01T16:48:23.790Z,,0,,,NaN,,,,,,false,,,,264882,264882,,264881,,264909,6,300,,,
sequence,flow.Sequence,4_61,2023-05-01T16:48:23.790Z,,0,,,2624,completion,,,,,false,,,,264882,264882,262242,262226,262258,264909,6,300,,,
trial,html.Screen,4_62_0,2023-05-01T16:48:26.419Z,,0,2,,2618,response,ISIC_0061647.JPG,,ISIC_7262685.JPG,ISIC_7262685.JPG,false,0,keypress(z),500,267511,267510,264892,264882,264909,267542,6,300,13,,ISIC_0061647.JPG
break,html.Screen,4_62_1,2023-05-01T16:48:26.420Z,,0,,,NaN,,,,,,false,,,,267512,267512,,267511,,267542,6,300,,,
break_continue,html.Screen,4_62_2,2023-05-01T16:48:26.420Z,,0,,,NaN,,,,,,false,,,,267512,267512,,267512,,267542,6,300,,,
sequence,flow.Sequence,4_62,2023-05-01T16:48:26.420Z,,0,,,2603,completion,,,,,false,,,,267512,267512,264892,264882,264909,267542,6,300,,,
trial,html.Screen,4_63_0,2023-05-01T16:48:28.927Z,,0,2,,2493,response,ISIC_0026921.JPG,,ISIC_7822725.JPG,ISIC_7822725.JPG,false,0,keypress(z),500,270019,270019,267526,267513.00000000006,267542,270042,6,300,14,,ISIC_0026921.JPG
break,html.Screen,4_63_1,2023-05-01T16:48:28.929Z,,0,,,NaN,,,,,,false,,,,270021,270020,,270020,,270042,6,300,,,
break_continue,html.Screen,4_63_2,2023-05-01T16:48:28.929Z,,0,,,NaN,,,,,,false,,,,270021,270021,,270021,,270042,6,300,,,
sequence,flow.Sequence,4_63,2023-05-01T16:48:28.929Z,,0,,,2479,completion,,,,,false,,,,270021,270021,267526,267512,267542,270042,6,300,,,
trial,html.Screen,4_64_0,2023-05-01T16:48:31.595Z,,0,2,,2660,response,ISIC_0024219.JPG,,ISIC_9542544.JPG,ISIC_9542544.JPG,false,0,keypress(z),500,272687,272686,270026,270021,270042,272708,6,300,15,,ISIC_0024219.JPG
break,html.Screen,4_64_1,2023-05-01T16:48:31.596Z,,0,,,NaN,,,,,,false,,,,272688,272688,,272687,,272708,6,300,,,
break_continue,html.Screen,4_64_2,2023-05-01T16:48:31.596Z,,0,,,NaN,,,,,,false,,,,272688,272688,,272688,,272708,6,300,,,
sequence,flow.Sequence,4_64,2023-05-01T16:48:31.597Z,,0,,,2646,completion,,,,,false,,,,272689,272688,270026,270021,270042,272708,6,300,,,
trial,html.Screen,4_65_0,2023-05-01T16:48:34.282Z,,0,2,,2681,response,ISIC_3256887.JPG,,ISIC_0034211.JPG,ISIC_0034211.JPG,false,0,keypress(z),500,275374,275373,272692,272689,272708,275409,6,300,16,,ISIC_3256887.JPG
break,html.Screen,4_65_1,2023-05-01T16:48:34.283Z,,0,,,NaN,,,,,,false,,,,275375,275375,,275374,,275409,6,300,,,
break_continue,html.Screen,4_65_2,2023-05-01T16:48:34.283Z,,0,,,NaN,,,,,,false,,,,275375,275375,,275375,,275409,6,300,,,
sequence,flow.Sequence,4_65,2023-05-01T16:48:34.284Z,,0,,,2667,completion,,,,,false,,,,275376.00000000006,275375,272692,272689,272708,275409,6,300,,,
trial,html.Screen,4_66_0,2023-05-01T16:48:37.053Z,,0,2,,2753,response,ISIC_0033881.JPG,,ISIC_9119549.JPG,ISIC_9119549.JPG,false,0,keypress(z),500,278145,278145,275392,275376.00000000006,275409,278176,6,300,17,,ISIC_0033881.JPG
break,html.Screen,4_66_1,2023-05-01T16:48:37.054Z,,0,,,NaN,,,,,,false,,,,278146,278146,,278146,,278176,6,300,,,
break_continue,html.Screen,4_66_2,2023-05-01T16:48:37.055Z,,0,,,NaN,,,,,,false,,,,278147,278146,,278146,,278176,6,300,,,
sequence,flow.Sequence,4_66,2023-05-01T16:48:37.055Z,,0,,,2737,completion,,,,,false,,,,278147,278146,275392,275376.00000000006,275409,278176,6,300,,,
trial,html.Screen,4_67_0,2023-05-01T16:48:39.608Z,,0,2,,2540,response,ISIC_3564136.JPG,,ISIC_0055859.JPG,ISIC_0055859.JPG,false,0,keypress(z),500,280700,280699,278159,278147,278176,280726,6,300,18,,ISIC_3564136.JPG
break,html.Screen,4_67_1,2023-05-01T16:48:39.610Z,,0,,,NaN,,,,,,false,,,,280702,280701,,280701,,280726,6,300,,,
break_continue,html.Screen,4_67_2,2023-05-01T16:48:39.610Z,,0,,,NaN,,,,,,false,,,,280702,280702,,280702,,280726,6,300,,,
sequence,flow.Sequence,4_67,2023-05-01T16:48:39.610Z,,0,,,2526,completion,,,,,false,,,,280702,280702,278159,278147,278176,280726,6,300,,,
trial,html.Screen,4_68_0,2023-05-01T16:48:42.258Z,,0,2,,2641,response,ISIC_0773096.JPG,,ISIC_9538419.JPG,ISIC_9538419.JPG,false,0,keypress(z),500,283350,283349,280708,280703.00000000006,280726,283376,6,300,19,,ISIC_0773096.JPG
break,html.Screen,4_68_1,2023-05-01T16:48:42.259Z,,0,,,NaN,,,,,,false,,,,283351,283350,,283350,,283376,6,300,,,
break_continue,html.Screen,4_68_2,2023-05-01T16:48:42.259Z,,0,,,NaN,,,,,,false,,,,283351,283351,,283351,,283376,6,300,,,
sequence,flow.Sequence,4_68,2023-05-01T16:48:42.260Z,,0,,,2625,completion,,,,,false,,,,283352.00000000006,283351,280708,280702,280726,283376,6,300,,,
trial,html.Screen,4_69_0,2023-05-01T16:48:44.776Z,,0,2,,2508,response,ISIC_1132496.JPG,,ISIC_3792196.JPG,ISIC_3792196.JPG,false,0,keypress(z),500,285868,285867,283359,283352.00000000006,283376,285892,6,300,20,,ISIC_1132496.JPG
break,html.Screen,4_69_1,2023-05-01T16:48:44.778Z,,0,,,NaN,,,,,,false,,,,285870,285869,,285869,,285892,6,300,,,
break_continue,html.Screen,4_69_2,2023-05-01T16:48:44.778Z,,0,,,NaN,,,,,,false,,,,285870,285870,,285870,,285892,6,300,,,
sequence,flow.Sequence,4_69,2023-05-01T16:48:44.778Z,,0,,,2494,completion,,,,,false,,,,285870,285870,283359,283352.00000000006,283376,285892,6,300,,,
trial,html.Screen,4_70_0,2023-05-01T16:48:47.396Z,,0,2,,2611,response,ISIC_4695396.JPG,,ISIC_8692155.JPG,ISIC_4695396.JPG,false,1,keypress(m),500,288488,288487,285876,285870,285892,288509,6,300,21,,ISIC_8692155.JPG
break,html.Screen,4_70_1,2023-05-01T16:48:47.397Z,,0,,,NaN,,,,,,false,,,,288489.00000000006,288489.00000000006,,288488,,288509,6,300,,,
break_continue,html.Screen,4_70_2,2023-05-01T16:48:47.398Z,,0,,,NaN,,,,,,false,,,,288489.00000000006,288489.00000000006,,288489.00000000006,,288509,6,300,,,
sequence,flow.Sequence,4_70,2023-05-01T16:48:47.398Z,,0,,,2597.000000000058,completion,,,,,false,,,,288490,288489.00000000006,285876,285870,285892,288509,6,300,,,
trial,html.Screen,4_71_0,2023-05-01T16:48:50.048Z,,0,2,,2647,response,ISIC_0033962.JPG,,ISIC_0034232.JPG,ISIC_0034232.JPG,false,0,keypress(z),500,291140,291139,288492,288490,288509,291176,6,300,22,,ISIC_0033962.JPG
break,html.Screen,4_71_1,2023-05-01T16:48:50.050Z,,0,,,NaN,,,,,,false,,,,291142,291141,,291141,,291176,6,300,,,
break_continue,html.Screen,4_71_2,2023-05-01T16:48:50.050Z,,0,,,NaN,,,,,,false,,,,291142,291142,,291142,,291176,6,300,,,
sequence,flow.Sequence,4_71,2023-05-01T16:48:50.050Z,,0,,,2633,completion,,,,,false,,,,291142,291142,288492,288490,288509,291176,6,300,,,
trial,html.Screen,4_72_0,2023-05-01T16:48:52.681Z,,0,2,,2613,response,ISIC_6654619.JPG,,ISIC_0000445.JPG,ISIC_6654619.JPG,false,1,keypress(m),500,293773,293772,291159,291142,291176,293809,6,300,23,,ISIC_0000445.JPG
break,html.Screen,4_72_1,2023-05-01T16:48:52.682Z,,0,,,NaN,,,,,,false,,,,293774,293774,,293773,,293809,6,300,,,
break_continue,html.Screen,4_72_2,2023-05-01T16:48:52.682Z,,0,,,NaN,,,,,,false,,,,293774,293774,,293774,,293809,6,300,,,
sequence,flow.Sequence,4_72,2023-05-01T16:48:52.683Z,,0,,,2598,completion,,,,,false,,,,293775.00000000006,293774,291159,291142,291176,293809,6,300,,,
trial,html.Screen,4_73_0,2023-05-01T16:48:55.263Z,,0,2,,2562,response,ISIC_9225640.JPG,,ISIC_9799596.JPG,ISIC_9225640.JPG,false,1,keypress(m),500,296355,296354,293792,293775.00000000006,293809,296376,6,300,24,,ISIC_9799596.JPG
break,html.Screen,4_73_1,2023-05-01T16:48:55.264Z,,0,,,NaN,,,,,,false,,,,296356,296356,,296355,,296376,6,300,,,
break_continue,html.Screen,4_73_2,2023-05-01T16:48:55.265Z,,0,,,NaN,,,,,,false,,,,296357,296357,,296356,,296376,6,300,,,
sequence,flow.Sequence,4_73,2023-05-01T16:48:55.265Z,,0,,,2548,completion,,,,,false,,,,296357,296357,293792,293775.00000000006,293809,296376,6,300,,,
trial,html.Screen,4_74_0,2023-05-01T16:48:57.963Z,,0,2,,2695.000000000058,response,ISIC_1208705.JPG,,ISIC_6440229.JPG,ISIC_1208705.JPG,false,1,keypress(m),500,299055,299054.00000000006,296359,296357,296376,299076,6,300,25,,ISIC_6440229.JPG
break,html.Screen,4_74_1,2023-05-01T16:48:57.964Z,,0,,,NaN,,,,,,false,,,,299056,299056,,299055,,299076,6,300,,,
break_continue,html.Screen,4_74_2,2023-05-01T16:48:57.964Z,,0,,,NaN,,,,,,false,,,,299056,299056,,299056,,299076,6,300,,,
sequence,flow.Sequence,4_74,2023-05-01T16:48:57.964Z,,0,,,2680,completion,,,,,false,,,,299056,299056,296359,296357,296376,299076,6,300,,,
trial,html.Screen,4_75_0,2023-05-01T16:49:00.741Z,,0,2,,2774,response,ISIC_1372928.JPG,,ISIC_0055701.JPG,ISIC_1372928.JPG,false,1,keypress(m),500,301833,301833,299059,299057,299076,301876,6,300,26,,ISIC_0055701.JPG
break,html.Screen,4_75_1,2023-05-01T16:49:00.742Z,,0,,,NaN,,,,,,false,,,,301834,301834,,301833,,301876,6,300,,,
break_continue,html.Screen,4_75_2,2023-05-01T16:49:00.743Z,,0,,,NaN,,,,,,false,,,,301835,301834,,301834,,301876,6,300,,,
sequence,flow.Sequence,4_75,2023-05-01T16:49:00.743Z,,0,,,2758,completion,,,,,false,,,,301835,301834,299059,299056,299076,301876,6,300,,,
trial,html.Screen,4_76_0,2023-05-01T16:49:03.609Z,,0,2,,2842,response,ISIC_0026966.JPG,,ISIC_0010807.JPG,ISIC_0010807.JPG,false,0,keypress(z),500,304701,304701,301859,301835,301876,304742,6,300,27,,ISIC_0026966.JPG
break,html.Screen,4_76_1,2023-05-01T16:49:03.611Z,,0,,,NaN,,,,,,false,,,,304702,304702,,304702,,304742,6,300,,,
break_continue,html.Screen,4_76_2,2023-05-01T16:49:03.611Z,,0,,,NaN,,,,,,false,,,,304703.00000000006,304703.00000000006,,304703.00000000006,,304742,6,300,,,
sequence,flow.Sequence,4_76,2023-05-01T16:49:03.611Z,,0,,,2827.000000000058,completion,,,,,false,,,,304703.00000000006,304703.00000000006,301859,301835,301876,304742,6,300,,,
trial,html.Screen,4_77_0,2023-05-01T16:49:06.283Z,,0,2,,2648,response,ISIC_2861793.JPG,,ISIC_0011960.JPG,ISIC_2861793.JPG,false,1,keypress(m),500,307375,307374,304726,304703.00000000006,304742,307409,6,300,28,,ISIC_0011960.JPG
break,html.Screen,4_77_1,2023-05-01T16:49:06.284Z,,0,,,NaN,,,,,,false,,,,307376.00000000006,307375,,307375,,307409,6,300,,,
break_continue,html.Screen,4_77_2,2023-05-01T16:49:06.284Z,,0,,,NaN,,,,,,false,,,,307376.00000000006,307376.00000000006,,307376.00000000006,,307409,6,300,,,
sequence,flow.Sequence,4_77,2023-05-01T16:49:06.284Z,,0,,,2634.000000000058,completion,,,,,false,,,,307376.00000000006,307376.00000000006,304726,304703.00000000006,304742,307409,6,300,,,
trial,html.Screen,4_78_0,2023-05-01T16:49:08.821Z,,0,2,,2520.000000000058,response,ISIC_0034232.JPG,,ISIC_0010321.JPG,ISIC_0034232.JPG,false,1,keypress(m),500,309913,309912.00000000006,307392,307376.00000000006,307409,309942,6,300,29,,ISIC_0010321.JPG
break,html.Screen,4_78_1,2023-05-01T16:49:08.822Z,,0,,,NaN,,,,,,false,,,,309914,309914,,309913,,309942,6,300,,,
break_continue,html.Screen,4_78_2,2023-05-01T16:49:08.822Z,,0,,,NaN,,,,,,false,,,,309914,309914,,309914,,309942,6,300,,,
sequence,flow.Sequence,4_78,2023-05-01T16:49:08.823Z,,0,,,2505,completion,,,,,false,,,,309914,309914,307392,307376.00000000006,307409,309942,6,300,,,
trial,html.Screen,4_79_0,2023-05-01T16:49:11.479Z,,0,2,,2645,response,ISIC_0033545.JPG,,ISIC_0061085.JPG,ISIC_0061085.JPG,false,0,keypress(z),500,312571,312571,309926,309915,309942,312592,6,300,30,,ISIC_0033545.JPG
break,html.Screen,4_79_1,2023-05-01T16:49:11.481Z,,0,,,NaN,,,,,,false,,,,312572,312572,,312571,,312592,6,300,,,
break_continue,html.Screen,4_79_2,2023-05-01T16:49:11.481Z,,0,,,NaN,,,,,,false,,,,312573,312573,,312573,,312592,6,300,,,
sequence,flow.Sequence,4_79,2023-05-01T16:49:11.481Z,,0,,,2631,completion,,,,,false,,,,312573,312573,309926,309915,309942,312592,6,300,,,
trial,html.Screen,4_80_0,2023-05-01T16:49:14.156Z,,0,2,,2671,response,ISIC_0030518.JPG,,ISIC_1605629.JPG,ISIC_1605629.JPG,false,0,keypress(z),500,315248,315247,312576,312573,312592,315275,6,300,31,,ISIC_0030518.JPG
break,html.Screen,4_80_1,2023-05-01T16:49:14.157Z,,0,,,NaN,,,,,,false,,,,315249,315248,,315248,,315275,6,300,,,
break_continue,html.Screen,4_80_2,2023-05-01T16:49:14.157Z,,0,,,NaN,,,,,,false,,,,315249,315249,,315249,,315275,6,300,,,
sequence,flow.Sequence,4_80,2023-05-01T16:49:14.157Z,,0,,,2657,completion,,,,,false,,,,315249,315249,312576,312573,312592,315275,6,300,,,
trial,html.Screen,4_81_0,2023-05-01T16:49:17.448Z,,0,2,,3280,response,ISIC_0029684.JPG,,ISIC_7620514.JPG,ISIC_0029684.JPG,false,1,keypress(m),500,318540,318539,315259,315250,315275,318576,6,300,32,,ISIC_7620514.JPG
break,html.Screen,4_81_1,2023-05-01T16:49:17.449Z,,0,,,NaN,,,,,,false,,,,318541,318541,,318540,,318576,6,300,,,
break_continue,html.Screen,4_81_2,2023-05-01T16:49:17.450Z,,0,,,NaN,,,,,,false,,,,318542.00000000006,318541,,318541,,318576,6,300,,,
sequence,flow.Sequence,4_81,2023-05-01T16:49:17.450Z,,0,,,3266,completion,,,,,false,,,,318542.00000000006,318541,315259,315249,315275,318576,6,300,,,
trial,html.Screen,4_82_0,2023-05-01T16:49:20.085Z,,0,2,,2617,response,ISIC_3922602.JPG,,ISIC_0214186.JPG,ISIC_0214186.JPG,false,0,keypress(z),500,321177,321176,318559,318542.00000000006,318576,321209,6,300,33,,ISIC_3922602.JPG
break,html.Screen,4_82_1,2023-05-01T16:49:20.086Z,,0,,,NaN,,,,,,false,,,,321178,321177,,321177,,321209,6,300,,,
break_continue,html.Screen,4_82_2,2023-05-01T16:49:20.086Z,,0,,,NaN,,,,,,false,,,,321178,321178,,321178,,321209,6,300,,,
sequence,flow.Sequence,4_82,2023-05-01T16:49:20.086Z,,0,,,2602,completion,,,,,false,,,,321178,321178,318559,318542.00000000006,318576,321209,6,300,,,
trial,html.Screen,4_83_0,2023-05-01T16:49:22.938Z,,0,2,,2836,response,ISIC_0032750.JPG,,ISIC_7365889.JPG,ISIC_7365889.JPG,false,0,keypress(z),500,324029,324029,321193,321179.00000000006,321209,324059,6,300,34,,ISIC_0032750.JPG
break,html.Screen,4_83_1,2023-05-01T16:49:22.939Z,,0,,,NaN,,,,,,false,,,,324031,324030.00000000006,,324030.00000000006,,324059,6,300,,,
break_continue,html.Screen,4_83_2,2023-05-01T16:49:22.940Z,,0,,,NaN,,,,,,false,,,,324031,324031,,324031,,324059,6,300,,,
sequence,flow.Sequence,4_83,2023-05-01T16:49:22.940Z,,0,,,2822,completion,,,,,false,,,,324032,324031,321193,321178,321209,324059,6,300,,,
trial,html.Screen,4_84_0,2023-05-01T16:49:25.763Z,,0,2,,2812,response,ISIC_0011692.JPG,,ISIC_0024688.JPG,ISIC_0024688.JPG,false,0,keypress(z),500,326855,326854,324042,324032,324059,326892,6,300,35,,ISIC_0011692.JPG
break,html.Screen,4_84_1,2023-05-01T16:49:25.764Z,,0,,,NaN,,,,,,false,,,,326856,326856,,326855,,326892,6,300,,,
break_continue,html.Screen,4_84_2,2023-05-01T16:49:25.765Z,,0,,,NaN,,,,,,false,,,,326856,326856,,326856,,326892,6,300,,,
sequence,flow.Sequence,4_84,2023-05-01T16:49:25.765Z,,0,,,2797,completion,,,,,false,,,,326857,326856,324042,324032,324059,326892,6,300,,,
trial,html.Screen,4_85_0,2023-05-01T16:49:28.385Z,,0,2,,2600,response,ISIC_0030828.JPG,,ISIC_0055601.JPG,ISIC_0030828.JPG,false,1,keypress(m),500,329477.00000000006,329476,326876,326857,326892,329509,6,300,36,,ISIC_0055601.JPG
break,html.Screen,4_85_1,2023-05-01T16:49:28.386Z,,0,,,NaN,,,,,,false,,,,329478,329478,,329477.00000000006,,329509,6,300,,,
break_continue,html.Screen,4_85_2,2023-05-01T16:49:28.387Z,,0,,,NaN,,,,,,false,,,,329479,329478,,329478,,329509,6,300,,,
sequence,flow.Sequence,4_85,2023-05-01T16:49:28.387Z,,0,,,2586,completion,,,,,false,,,,329479,329478,326876,326857,326892,329509,6,300,,,
trial,html.Screen,4_86_0,2023-05-01T16:49:30.982Z,,0,2,,2581,response,ISIC_0010775.JPG,,ISIC_0026244.JPG,ISIC_0026244.JPG,false,0,keypress(z),500,332074,332073,329492,329479,329509,332109,6,300,37,,ISIC_0010775.JPG
break,html.Screen,4_86_1,2023-05-01T16:49:30.983Z,,0,,,NaN,,,,,,false,,,,332075,332075,,332074,,332109,6,300,,,
break_continue,html.Screen,4_86_2,2023-05-01T16:49:30.984Z,,0,,,NaN,,,,,,false,,,,332075,332075,,332075,,332109,6,300,,,
sequence,flow.Sequence,4_86,2023-05-01T16:49:30.984Z,,0,,,2566,completion,,,,,false,,,,332076,332075,329492,329479,329509,332109,6,300,,,
trial,html.Screen,4_87_0,2023-05-01T16:49:33.594Z,,0,2,,2593,response,ISIC_6920867.JPG,,ISIC_8120622.JPG,ISIC_8120622.JPG,false,0,keypress(z),500,334685,334685,332092,332076,332109,334709,6,300,38,,ISIC_6920867.JPG
break,html.Screen,4_87_1,2023-05-01T16:49:33.595Z,,0,,,NaN,,,,,,false,,,,334687,334686,,334686,,334709,6,300,,,
break_continue,html.Screen,4_87_2,2023-05-01T16:49:33.595Z,,0,,,NaN,,,,,,false,,,,334687,334687,,334687,,334709,6,300,,,
sequence,flow.Sequence,4_87,2023-05-01T16:49:33.595Z,,0,,,2578,completion,,,,,false,,,,334687,334687,332092,332076,332109,334709,6,300,,,
trial,html.Screen,4_88_0,2023-05-01T16:49:36.124Z,,0,2,,2523.000000000058,response,ISIC_0014912.JPG,,ISIC_5586765.JPG,ISIC_5586765.JPG,false,0,keypress(z),500,337216,337215.00000000006,334692,334687,334709,337242,6,300,39,,ISIC_0014912.JPG
break,html.Screen,4_88_1,2023-05-01T16:49:36.125Z,,0,,,NaN,,,,,,false,,,,337217,337217,,337216,,337242,6,300,,,
break_continue,html.Screen,4_88_2,2023-05-01T16:49:36.126Z,,0,,,NaN,,,,,,false,,,,337217,337217,,337217,,337242,6,300,,,
sequence,flow.Sequence,4_88,2023-05-01T16:49:36.126Z,,0,,,2508,completion,,,,,false,,,,337218,337217,334692,334687,334709,337242,6,300,,,
trial,html.Screen,4_89_0,2023-05-01T16:49:38.590Z,,0,2,,2456,response,ISIC_8687105.JPG,,ISIC_8685259.JPG,ISIC_8685259.JPG,false,0,keypress(z),500,339682,339682,337226,337218,337242,339709,6,300,40,,ISIC_8687105.JPG
break,html.Screen,4_89_1,2023-05-01T16:49:38.591Z,,0,,,NaN,,,,,,false,,,,339683,339683,,339682,,339709,6,300,,,
break_continue,html.Screen,4_89_2,2023-05-01T16:49:38.592Z,,0,,,NaN,,,,,,false,,,,339684,339684,,339683,,339709,6,300,,,
sequence,flow.Sequence,4_89,2023-05-01T16:49:38.592Z,,0,,,2442,completion,,,,,false,,,,339684,339684,337226,337218,337242,339709,6,300,,,
trial,html.Screen,4_90_0,2023-05-01T16:49:41.289Z,,0,2,,2687,response,ISIC_0011789.JPG,,ISIC_6385627.JPG,ISIC_6385627.JPG,false,0,keypress(z),500,342380,342379,339692,339684,339709,342409,6,300,41,,ISIC_0011789.JPG
break,html.Screen,4_90_1,2023-05-01T16:49:41.290Z,,0,,,NaN,,,,,,false,,,,342382,342381,,342381,,342409,6,300,,,
break_continue,html.Screen,4_90_2,2023-05-01T16:49:41.290Z,,0,,,NaN,,,,,,false,,,,342382,342382,,342382,,342409,6,300,,,
sequence,flow.Sequence,4_90,2023-05-01T16:49:41.290Z,,0,,,2673,completion,,,,,false,,,,342382,342382,339692,339684,339709,342409,6,300,,,
trial,html.Screen,4_91_0,2023-05-01T16:49:43.848Z,,0,2,,2547,response,ISIC_0263478.JPG,,ISIC_0058040.JPG,ISIC_0263478.JPG,false,1,keypress(m),500,344940,344939,342392,342382,342409,344976,6,300,42,,ISIC_0058040.JPG
break,html.Screen,4_91_1,2023-05-01T16:49:43.849Z,,0,,,NaN,,,,,,false,,,,344941.00000000006,344941.00000000006,,344940,,344976,6,300,,,
break_continue,html.Screen,4_91_2,2023-05-01T16:49:43.850Z,,0,,,NaN,,,,,,false,,,,344941.00000000006,344941.00000000006,,344941.00000000006,,344976,6,300,,,
sequence,flow.Sequence,4_91,2023-05-01T16:49:43.850Z,,0,,,2532.000000000058,completion,,,,,false,,,,344942,344941.00000000006,342392,342382,342409,344976,6,300,,,
trial,html.Screen,4_92_0,2023-05-01T16:49:47.071Z,,0,2,,3203.000000000058,response,ISIC_0009622.JPG,,ISIC_5536710.JPG,ISIC_5536710.JPG,false,0,keypress(z),500,348163,348162.00000000006,344959,344942,344976,348192,6,300,43,,ISIC_0009622.JPG
break,html.Screen,4_92_1,2023-05-01T16:49:47.073Z,,0,,,NaN,,,,,,false,,,,348164,348164,,348163,,348192,6,300,,,
break_continue,html.Screen,4_92_2,2023-05-01T16:49:47.073Z,,0,,,NaN,,,,,,false,,,,348165,348165,,348165,,348192,6,300,,,
sequence,flow.Sequence,4_92,2023-05-01T16:49:47.073Z,,0,,,3189,completion,,,,,false,,,,348165,348165,344959,344942,344976,348192,6,300,,,
trial,html.Screen,4_93_0,2023-05-01T16:49:49.627Z,,0,2,,2543,response,ISIC_0061454.JPG,,ISIC_1169724.JPG,ISIC_0061454.JPG,false,1,keypress(m),500,350719,350719,348176,348165,348192,350759,6,300,44,,ISIC_1169724.JPG
break,html.Screen,4_93_1,2023-05-01T16:49:49.629Z,,0,,,NaN,,,,,,false,,,,350720,350720,,350720,,350759,6,300,,,
break_continue,html.Screen,4_93_2,2023-05-01T16:49:49.629Z,,0,,,NaN,,,,,,false,,,,350721,350721,,350721,,350759,6,300,,,
sequence,flow.Sequence,4_93,2023-05-01T16:49:49.629Z,,0,,,2529,completion,,,,,false,,,,350721,350721,348176,348165,348192,350759,6,300,,,
trial,html.Screen,4_94_0,2023-05-01T16:49:52.185Z,,0,2,,2533,response,ISIC_2670475.JPG,,ISIC_6124481.JPG,ISIC_2670475.JPG,false,1,keypress(m),500,353276,353276,350743,350721,350759,353309,6,300,45,,ISIC_6124481.JPG
break,html.Screen,4_94_1,2023-05-01T16:49:52.186Z,,0,,,NaN,,,,,,false,,,,353278,353277,,353277,,353309,6,300,,,
break_continue,html.Screen,4_94_2,2023-05-01T16:49:52.186Z,,0,,,NaN,,,,,,false,,,,353278,353278,,353278,,353309,6,300,,,
sequence,flow.Sequence,4_94,2023-05-01T16:49:52.186Z,,0,,,2519,completion,,,,,false,,,,353278,353278,350743,350721,350759,353309,6,300,,,
trial,html.Screen,4_95_0,2023-05-01T16:49:54.820Z,,0,2,,2619,response,ISIC_5843614.JPG,,ISIC_0010321.JPG,ISIC_0010321.JPG,false,0,keypress(z),500,355912.00000000006,355911,353292,353278,353309,355942,6,300,46,,ISIC_5843614.JPG
break,html.Screen,4_95_1,2023-05-01T16:49:54.821Z,,0,,,NaN,,,,,,false,,,,355913,355912.00000000006,,355912.00000000006,,355942,6,300,,,
break_continue,html.Screen,4_95_2,2023-05-01T16:49:54.821Z,,0,,,NaN,,,,,,false,,,,355913,355913,,355913,,355942,6,300,,,
sequence,flow.Sequence,4_95,2023-05-01T16:49:54.821Z,,0,,,2604,completion,,,,,false,,,,355913,355913,353292,353278,353309,355942,6,300,,,
trial,html.Screen,4_96_0,2023-05-01T16:49:57.472Z,,0,2,,2637,response,ISIC_8451869.JPG,,ISIC_0028029.JPG,ISIC_8451869.JPG,false,1,keypress(m),500,358564,358563,355926,355913,355942,358593,6,300,47,,ISIC_0028029.JPG
break,html.Screen,4_96_1,2023-05-01T16:49:57.473Z,,0,,,NaN,,,,,,false,,,,358565,358565,,358564,,358593,6,300,,,
break_continue,html.Screen,4_96_2,2023-05-01T16:49:57.473Z,,0,,,NaN,,,,,,false,,,,358565,358565,,358565,,358593,6,300,,,
sequence,flow.Sequence,4_96,2023-05-01T16:49:57.473Z,,0,,,2623,completion,,,,,false,,,,358565,358565,355926,355913,355942,358593,6,300,,,
trial,html.Screen,4_97_0,2023-05-01T16:50:00.133Z,,0,2,,2648,response,ISIC_2232883.JPG,,ISIC_6752060.JPG,ISIC_6752060.JPG,false,0,keypress(z),500,361225,361224,358576,358565,358593,361259,6,300,48,,ISIC_2232883.JPG
break,html.Screen,4_97_1,2023-05-01T16:50:00.134Z,,0,,,NaN,,,,,,false,,,,361226,361226,,361225,,361259,6,300,,,
break_continue,html.Screen,4_97_2,2023-05-01T16:50:00.134Z,,0,,,NaN,,,,,,false,,,,361226,361226,,361226,,361259,6,300,,,
sequence,flow.Sequence,4_97,2023-05-01T16:50:00.134Z,,0,,,2633,completion,,,,,false,,,,361226,361226,358576,358565,358593,361259,6,300,,,
trial,html.Screen,4_98_0,2023-05-01T16:50:02.759Z,,0,2,,2607,response,ISIC_0315631.JPG,,ISIC_0068299.JPG,ISIC_0315631.JPG,false,1,keypress(m),500,363851,363850,361243,361226,361259,363876,6,300,49,,ISIC_0068299.JPG
break,html.Screen,4_98_1,2023-05-01T16:50:02.760Z,,0,,,NaN,,,,,,false,,,,363852.00000000006,363852.00000000006,,363851,,363876,6,300,,,
break_continue,html.Screen,4_98_2,2023-05-01T16:50:02.761Z,,0,,,NaN,,,,,,false,,,,363852.00000000006,363852.00000000006,,363852.00000000006,,363876,6,300,,,
sequence,flow.Sequence,4_98,2023-05-01T16:50:02.761Z,,0,,,2593.000000000058,completion,,,,,false,,,,363853,363852.00000000006,361243,361226,361259,363876,6,300,,,
trial,html.Screen,4_99_0,2023-05-01T16:50:05.384Z,,0,2,,2616,response,ISIC_0055498.JPG,,ISIC_0000444.JPG,ISIC_0000444.JPG,false,0,keypress(z),500,366476,366475,363859,363853,363876,366509,6,300,50,,ISIC_0055498.JPG
break,html.Screen,4_99_1,2023-05-01T16:50:10.401Z,,0,,,5000,timeout,,,,,false,,,,371493,371492,366492,366476,366509,371509,6,300,,,
break_continue,html.Screen,4_99_2,2023-05-01T16:53:03.740Z,,0,,,173301,response,,,,,false,continue,keypress(Space),,544832,544793,371492,371493,371509,544860,6,300,,,
sequence,flow.Sequence,4_99,2023-05-01T16:53:03.740Z,,0,,,180917,completion,,,,,false,,,,544832,544793,363859,363853,363876,544860,6,300,,,
trial,html.Screen,4_100_0,2023-05-01T16:53:06.673Z,,0,3,,2921,response,ISIC_9270367.JPG,,ISIC_1911193.JPG,ISIC_1911193.JPG,false,0,keypress(z),500,547764,547764,544843,544832,544860,547793,6,300,1,,ISIC_9270367.JPG
break,html.Screen,4_100_1,2023-05-01T16:53:06.674Z,,0,,,NaN,,,,,,false,,,,547766,547765,,547765,,547793,6,300,,,
break_continue,html.Screen,4_100_2,2023-05-01T16:53:06.675Z,,0,,,NaN,,,,,,false,,,,547767,547766,,547766,,547793,6,300,,,
sequence,flow.Sequence,4_100,2023-05-01T16:53:06.676Z,,0,,,2906,completion,,,,,false,,,,547767,547766,544843,544832,544860,547793,6,300,,,
trial,html.Screen,4_101_0,2023-05-01T16:53:09.327Z,,0,3,,2642,response,ISIC_6688311.JPG,,ISIC_9125543.JPG,ISIC_6688311.JPG,false,1,keypress(m),500,550418,550418,547776,547767,547793,550460,6,300,2,,ISIC_9125543.JPG
break,html.Screen,4_101_1,2023-05-01T16:53:09.328Z,,0,,,NaN,,,,,,false,,,,550420,550419,,550419,,550460,6,300,,,
break_continue,html.Screen,4_101_2,2023-05-01T16:53:09.329Z,,0,,,NaN,,,,,,false,,,,550420,550420,,550420,,550460,6,300,,,
sequence,flow.Sequence,4_101,2023-05-01T16:53:09.329Z,,0,,,2627,completion,,,,,false,,,,550420,550420,547776,547767,547793,550460,6,300,,,
trial,html.Screen,4_102_0,2023-05-01T16:53:11.984Z,,0,3,,2631,response,ISIC_0034208.JPG,,ISIC_9690263.JPG,ISIC_9690263.JPG,false,0,keypress(z),500,553075,553074,550443,550421,550460,553110,6,300,3,,ISIC_0034208.JPG
break,html.Screen,4_102_1,2023-05-01T16:53:11.985Z,,0,,,NaN,,,,,,false,,,,553076,553076,,553075,,553110,6,300,,,
break_continue,html.Screen,4_102_2,2023-05-01T16:53:11.985Z,,0,,,NaN,,,,,,false,,,,553077,553077,,553076,,553110,6,300,,,
sequence,flow.Sequence,4_102,2023-05-01T16:53:11.985Z,,0,,,2617,completion,,,,,false,,,,553077,553077,550443,550421,550460,553110,6,300,,,
trial,html.Screen,4_103_0,2023-05-01T16:53:14.780Z,,0,3,,2777,response,ISIC_5888212.JPG,,ISIC_0046609.JPG,ISIC_5888212.JPG,false,1,keypress(m),500,555872,555871,553094,553077,553110,555910,6,300,4,,ISIC_0046609.JPG
break,html.Screen,4_103_1,2023-05-01T16:53:14.782Z,,0,,,NaN,,,,,,false,,,,555873,555873,,555872,,555910,6,300,,,
break_continue,html.Screen,4_103_2,2023-05-01T16:53:14.782Z,,0,,,NaN,,,,,,false,,,,555874,555873,,555873,,555910,6,300,,,
sequence,flow.Sequence,4_103,2023-05-01T16:53:14.782Z,,0,,,2763,completion,,,,,false,,,,555874,555873,553094,553077,553110,555910,6,300,,,
trial,html.Screen,4_104_0,2023-05-01T16:53:17.474Z,,0,3,,2668,response,ISIC_0029868.JPG,,ISIC_4032636.JPG,ISIC_4032636.JPG,false,0,keypress(z),500,558566,558562,555894,555874,555910,558610,6,300,5,,ISIC_0029868.JPG
break,html.Screen,4_104_1,2023-05-01T16:53:17.476Z,,0,,,NaN,,,,,,false,,,,558567,558567,,558566,,558610,6,300,,,
break_continue,html.Screen,4_104_2,2023-05-01T16:53:17.476Z,,0,,,NaN,,,,,,false,,,,558568,558568,,558567,,558610,6,300,,,
sequence,flow.Sequence,4_104,2023-05-01T16:53:17.476Z,,0,,,2658,completion,,,,,false,,,,558568,558568,555894,555874,555910,558610,6,300,,,
trial,html.Screen,4_105_0,2023-05-01T16:53:20.175Z,,0,3,,2673,response,ISIC_0067621.JPG,,ISIC_0014883.JPG,ISIC_0067621.JPG,false,1,keypress(m),500,561266,561266,558593,558568,558610,561310,6,300,6,,ISIC_0014883.JPG
break,html.Screen,4_105_1,2023-05-01T16:53:20.176Z,,0,,,NaN,,,,,,false,,,,561268,561267,,561267,,561310,6,300,,,
break_continue,html.Screen,4_105_2,2023-05-01T16:53:20.177Z,,0,,,NaN,,,,,,false,,,,561268,561268,,561268,,561310,6,300,,,
sequence,flow.Sequence,4_105,2023-05-01T16:53:20.177Z,,0,,,2658,completion,,,,,false,,,,561269,561268,558593,558568,558610,561310,6,300,,,
trial,html.Screen,4_106_0,2023-05-01T16:53:23.181Z,,0,3,,2978,response,ISIC_8436666.JPG,,ISIC_0028410.JPG,ISIC_8436666.JPG,false,1,keypress(m),500,564272,564272,561294,561269,561310,564310,6,300,7,,ISIC_0028410.JPG
break,html.Screen,4_106_1,2023-05-01T16:53:23.182Z,,0,,,NaN,,,,,,false,,,,564274,564273,,564273,,564310,6,300,,,
break_continue,html.Screen,4_106_2,2023-05-01T16:53:23.183Z,,0,,,NaN,,,,,,false,,,,564274,564274,,564274,,564310,6,300,,,
sequence,flow.Sequence,4_106,2023-05-01T16:53:23.183Z,,0,,,2964,completion,,,,,false,,,,564274,564274,561294,561269,561310,564310,6,300,,,
trial,html.Screen,4_107_0,2023-05-01T16:53:25.837Z,,0,3,,2634,response,ISIC_3384884.JPG,,ISIC_3397377.JPG,ISIC_3384884.JPG,false,1,keypress(m),500,566929,566928,564294,564275,564310,566960,6,300,8,,ISIC_3397377.JPG
break,html.Screen,4_107_1,2023-05-01T16:53:25.839Z,,0,,,NaN,,,,,,false,,,,566930.0000000001,566930.0000000001,,566929,,566960,6,300,,,
break_continue,html.Screen,4_107_2,2023-05-01T16:53:25.839Z,,0,,,NaN,,,,,,false,,,,566931,566930.0000000001,,566930.0000000001,,566960,6,300,,,
sequence,flow.Sequence,4_107,2023-05-01T16:53:25.839Z,,0,,,2620.0000000001164,completion,,,,,false,,,,566931,566930.0000000001,564294,564274,564310,566960,6,300,,,
trial,html.Screen,4_108_0,2023-05-01T16:53:28.335Z,,0,3,,2482,response,ISIC_0072553.JPG,,ISIC_5409902.JPG,ISIC_5409902.JPG,false,0,keypress(z),500,569427,569426,566944,566931,566960,569460,6,300,9,,ISIC_0072553.JPG
break,html.Screen,4_108_1,2023-05-01T16:53:28.336Z,,0,,,NaN,,,,,,false,,,,569428,569428,,569427,,569460,6,300,,,
break_continue,html.Screen,4_108_2,2023-05-01T16:53:28.337Z,,0,,,NaN,,,,,,false,,,,569428,569428,,569428,,569460,6,300,,,
sequence,flow.Sequence,4_108,2023-05-01T16:53:28.337Z,,0,,,2468,completion,,,,,false,,,,569429,569428,566944,566931,566960,569460,6,300,,,
trial,html.Screen,4_109_0,2023-05-01T16:53:31.168Z,,0,3,,2814,response,ISIC_5152859.JPG,,ISIC_0025428.JPG,ISIC_5152859.JPG,false,1,keypress(m),500,572259,572258,569444,569429,569460,572294,6,300,10,,ISIC_0025428.JPG
break,html.Screen,4_109_1,2023-05-01T16:53:31.169Z,,0,,,NaN,,,,,,false,,,,572260,572260,,572259,,572294,6,300,,,
break_continue,html.Screen,4_109_2,2023-05-01T16:53:31.170Z,,0,,,NaN,,,,,,false,,,,572261,572261,,572261,,572294,6,300,,,
sequence,flow.Sequence,4_109,2023-05-01T16:53:31.170Z,,0,,,2801,completion,,,,,false,,,,572261,572261,569444,569429,569460,572294,6,300,,,
trial,html.Screen,4_110_0,2023-05-01T16:53:33.890Z,,0,3,,2704,response,ISIC_6803432.JPG,,ISIC_0072496.JPG,ISIC_6803432.JPG,false,1,keypress(m),500,574982,574981,572277,572262,572294,575010,6,300,11,,ISIC_0072496.JPG
break,html.Screen,4_110_1,2023-05-01T16:53:33.892Z,,0,,,NaN,,,,,,false,,,,574983.0000000001,574983.0000000001,,574982,,575010,6,300,,,
break_continue,html.Screen,4_110_2,2023-05-01T16:53:33.892Z,,0,,,NaN,,,,,,false,,,,574983.0000000001,574983.0000000001,,574983.0000000001,,575010,6,300,,,
sequence,flow.Sequence,4_110,2023-05-01T16:53:33.892Z,,0,,,2689.0000000001164,completion,,,,,false,,,,574984,574983.0000000001,572277,572261,572294,575010,6,300,,,
trial,html.Screen,4_111_0,2023-05-01T16:53:36.558Z,,0,3,,2655,response,ISIC_0059314.JPG,,ISIC_8135400.JPG,ISIC_8135400.JPG,false,0,keypress(z),500,577650,577649,574994,574984,575010,577677,6,300,12,,ISIC_0059314.JPG
break,html.Screen,4_111_1,2023-05-01T16:53:36.559Z,,0,,,NaN,,,,,,false,,,,577651.0000000001,577650,,577650,,577677,6,300,,,
break_continue,html.Screen,4_111_2,2023-05-01T16:53:36.560Z,,0,,,NaN,,,,,,false,,,,577651.0000000001,577651.0000000001,,577651.0000000001,,577677,6,300,,,
sequence,flow.Sequence,4_111,2023-05-01T16:53:36.560Z,,0,,,2641.0000000001164,completion,,,,,false,,,,577651.0000000001,577651.0000000001,574994,574984,575010,577677,6,300,,,
trial,html.Screen,4_112_0,2023-05-01T16:53:39.139Z,,0,3,,2569,response,ISIC_9694020.JPG,,ISIC_5979783.JPG,ISIC_9694020.JPG,false,1,keypress(m),500,580230,580230,577661,577651.0000000001,577677,580260,6,300,13,,ISIC_5979783.JPG
break,html.Screen,4_112_1,2023-05-01T16:53:39.140Z,,0,,,NaN,,,,,,false,,,,580232,580231,,580231,,580260,6,300,,,
break_continue,html.Screen,4_112_2,2023-05-01T16:53:39.141Z,,0,,,NaN,,,,,,false,,,,580232,580232,,580232,,580260,6,300,,,
sequence,flow.Sequence,4_112,2023-05-01T16:53:39.141Z,,0,,,2555,completion,,,,,false,,,,580233.0000000001,580232,577661,577651.0000000001,577677,580260,6,300,,,
trial,html.Screen,4_113_0,2023-05-01T16:53:41.627Z,,0,3,,2475,response,ISIC_0014543.JPG,,ISIC_6635590.JPG,ISIC_6635590.JPG,false,0,keypress(z),500,582718,582718,580243,580233.0000000001,580260,582744,6,300,14,,ISIC_0014543.JPG
break,html.Screen,4_113_1,2023-05-01T16:53:41.628Z,,0,,,NaN,,,,,,false,,,,582720,582719,,582719,,582744,6,300,,,
break_continue,html.Screen,4_113_2,2023-05-01T16:53:41.629Z,,0,,,NaN,,,,,,false,,,,582720,582720,,582720,,582744,6,300,,,
sequence,flow.Sequence,4_113,2023-05-01T16:53:41.629Z,,0,,,2460,completion,,,,,false,,,,582720,582720,580243,580233.0000000001,580260,582744,6,300,,,
trial,html.Screen,4_114_0,2023-05-01T16:53:44.303Z,,0,3,,2666,response,ISIC_8659639.JPG,,ISIC_0047003.JPG,ISIC_8659639.JPG,false,1,keypress(m),500,585394,585393,582727,582720,582744,585427,6,300,15,,ISIC_0047003.JPG
break,html.Screen,4_114_1,2023-05-01T16:53:44.304Z,,0,,,NaN,,,,,,false,,,,585396,585395,,585395,,585427,6,300,,,
break_continue,html.Screen,4_114_2,2023-05-01T16:53:44.305Z,,0,,,NaN,,,,,,false,,,,585396,585396,,585396,,585427,6,300,,,
sequence,flow.Sequence,4_114,2023-05-01T16:53:44.305Z,,0,,,2652,completion,,,,,false,,,,585396,585396,582727,582720,582744,585427,6,300,,,
trial,html.Screen,4_115_0,2023-05-01T16:53:46.950Z,,0,3,,2631,response,ISIC_2276141.JPG,,ISIC_0070351.JPG,ISIC_2276141.JPG,false,1,keypress(m),500,588041,588041,585410,585397,585427,588077,6,300,16,,ISIC_0070351.JPG
break,html.Screen,4_115_1,2023-05-01T16:53:46.951Z,,0,,,NaN,,,,,,false,,,,588043,588042,,588042,,588077,6,300,,,
break_continue,html.Screen,4_115_2,2023-05-01T16:53:46.952Z,,0,,,NaN,,,,,,false,,,,588043,588043,,588043,,588077,6,300,,,
sequence,flow.Sequence,4_115,2023-05-01T16:53:46.952Z,,0,,,2616,completion,,,,,false,,,,588043,588043,585410,585396,585427,588077,6,300,,,
trial,html.Screen,4_116_0,2023-05-01T16:53:49.933Z,,0,3,,2964,response,ISIC_0065525.JPG,,ISIC_6392089.JPG,ISIC_0065525.JPG,false,1,keypress(m),500,591024,591024,588060,588044,588077,591061,6,300,17,,ISIC_6392089.JPG
break,html.Screen,4_116_1,2023-05-01T16:53:49.934Z,,0,,,NaN,,,,,,false,,,,591026.0000000001,591025,,591025,,591061,6,300,,,
break_continue,html.Screen,4_116_2,2023-05-01T16:53:49.935Z,,0,,,NaN,,,,,,false,,,,591026.0000000001,591026.0000000001,,591026.0000000001,,591061,6,300,,,
sequence,flow.Sequence,4_116,2023-05-01T16:53:49.935Z,,0,,,2949.0000000001164,completion,,,,,false,,,,591026.0000000001,591026.0000000001,588060,588044,588077,591061,6,300,,,
trial,html.Screen,4_117_0,2023-05-01T16:53:52.793Z,,0,3,,2840,response,ISIC_1440377.JPG,,ISIC_6274085.JPG,ISIC_6274085.JPG,false,0,keypress(z),500,593884,593884,591044,591027,591061,593926,6,300,18,,ISIC_1440377.JPG
break,html.Screen,4_117_1,2023-05-01T16:53:52.794Z,,0,,,NaN,,,,,,false,,,,593885,593885,,593884,,593926,6,300,,,
break_continue,html.Screen,4_117_2,2023-05-01T16:53:52.794Z,,0,,,NaN,,,,,,false,,,,593886,593886,,593886,,593926,6,300,,,
sequence,flow.Sequence,4_117,2023-05-01T16:53:52.795Z,,0,,,2825,completion,,,,,false,,,,593886,593886,591044,591027,591061,593926,6,300,,,
trial,html.Screen,4_118_0,2023-05-01T16:53:55.781Z,,0,3,,2961,response,ISIC_0030541.JPG,,ISIC_0069791.JPG,ISIC_0069791.JPG,false,0,keypress(z),500,596873,596872,593911,593886,593926,596911,6,300,19,,ISIC_0030541.JPG
break,html.Screen,4_118_1,2023-05-01T16:53:55.782Z,,0,,,NaN,,,,,,false,,,,596874,596873,,596873,,596911,6,300,,,
break_continue,html.Screen,4_118_2,2023-05-01T16:53:55.783Z,,0,,,NaN,,,,,,false,,,,596874,596874,,596874,,596911,6,300,,,
sequence,flow.Sequence,4_118,2023-05-01T16:53:55.783Z,,0,,,2948,completion,,,,,false,,,,596875,596874,593911,593886,593926,596911,6,300,,,
trial,html.Screen,4_119_0,2023-05-01T16:53:59.660Z,,0,3,,3857,response,ISIC_0032913.JPG,,ISIC_0034034.JPG,ISIC_0034034.JPG,false,0,keypress(z),500,600751,600751,596894,596875,596911,600794,6,300,20,,ISIC_0032913.JPG
break,html.Screen,4_119_1,2023-05-01T16:53:59.661Z,,0,,,NaN,,,,,,false,,,,600753,600753,,600752.0000000001,,600794,6,300,,,
break_continue,html.Screen,4_119_2,2023-05-01T16:53:59.662Z,,0,,,NaN,,,,,,false,,,,600753,600753,,600753,,600794,6,300,,,
sequence,flow.Sequence,4_119,2023-05-01T16:53:59.662Z,,0,,,3842,completion,,,,,false,,,,600753,600753,596894,596875,596911,600794,6,300,,,
trial,html.Screen,4_120_0,2023-05-01T16:54:02.260Z,,0,3,,2574,response,ISIC_0034159.JPG,,ISIC_0029150.JPG,ISIC_0029150.JPG,false,0,keypress(z),500,603352,603351,600777,600754,600794,603394,6,300,21,,ISIC_0034159.JPG
break,html.Screen,4_120_1,2023-05-01T16:54:02.261Z,,0,,,NaN,,,,,,false,,,,603353.0000000001,603352,,603352,,603394,6,300,,,
break_continue,html.Screen,4_120_2,2023-05-01T16:54:02.262Z,,0,,,NaN,,,,,,false,,,,603353.0000000001,603353.0000000001,,603353.0000000001,,603394,6,300,,,
sequence,flow.Sequence,4_120,2023-05-01T16:54:02.262Z,,0,,,2559.0000000001164,completion,,,,,false,,,,603353.0000000001,603353.0000000001,600777,600754,600794,603394,6,300,,,
trial,html.Screen,4_121_0,2023-05-01T16:54:05.107Z,,0,3,,2820,response,ISIC_5810696.JPG,,ISIC_5557806.JPG,ISIC_5557806.JPG,false,0,keypress(z),500,606198,606197,603377,603354,603394,606227,6,300,22,,ISIC_5810696.JPG
break,html.Screen,4_121_1,2023-05-01T16:54:05.108Z,,0,,,NaN,,,,,,false,,,,606199.0000000001,606199.0000000001,,606199.0000000001,,606227,6,300,,,
break_continue,html.Screen,4_121_2,2023-05-01T16:54:05.108Z,,0,,,NaN,,,,,,false,,,,606200,606200,,606200,,606227,6,300,,,
sequence,flow.Sequence,4_121,2023-05-01T16:54:05.109Z,,0,,,2806,completion,,,,,false,,,,606200,606200,603377,603353.0000000001,603394,606227,6,300,,,
trial,html.Screen,4_122_0,2023-05-01T16:54:07.706Z,,0,3,,2585,response,ISIC_4518384.JPG,,ISIC_0010664.JPG,ISIC_4518384.JPG,false,1,keypress(m),500,608797,608796,606211,606200,606227,608827,6,300,23,,ISIC_0010664.JPG
break,html.Screen,4_122_1,2023-05-01T16:54:07.707Z,,0,,,NaN,,,,,,false,,,,608798,608798,,608797,,608827,6,300,,,
break_continue,html.Screen,4_122_2,2023-05-01T16:54:07.707Z,,0,,,NaN,,,,,,false,,,,608798,608798,,608798,,608827,6,300,,,
sequence,flow.Sequence,4_122,2023-05-01T16:54:07.707Z,,0,,,2571,completion,,,,,false,,,,608799,608798,606211,606200,606227,608827,6,300,,,
trial,html.Screen,4_123_0,2023-05-01T16:54:10.285Z,,0,3,,2565,response,ISIC_6384927.JPG,,ISIC_3046905.JPG,ISIC_3046905.JPG,false,0,keypress(z),500,611377.0000000001,611376,608811,608799,608827,611410,6,300,24,,ISIC_6384927.JPG
break,html.Screen,4_123_1,2023-05-01T16:54:10.287Z,,0,,,NaN,,,,,,false,,,,611378,611378,,611377.0000000001,,611410,6,300,,,
break_continue,html.Screen,4_123_2,2023-05-01T16:54:10.287Z,,0,,,NaN,,,,,,false,,,,611379,611378,,611378,,611410,6,300,,,
sequence,flow.Sequence,4_123,2023-05-01T16:54:10.287Z,,0,,,2551,completion,,,,,false,,,,611379,611378,608811,608799,608827,611410,6,300,,,
trial,html.Screen,4_124_0,2023-05-01T16:54:12.921Z,,0,3,,2617,response,ISIC_8002729.JPG,,ISIC_0011210.JPG,ISIC_8002729.JPG,false,1,keypress(m),500,614012,614011,611394,611379,611410,614044,6,300,25,,ISIC_0011210.JPG
break,html.Screen,4_124_1,2023-05-01T16:54:12.922Z,,0,,,NaN,,,,,,false,,,,614013,614013,,614012,,614044,6,300,,,
break_continue,html.Screen,4_124_2,2023-05-01T16:54:12.922Z,,0,,,NaN,,,,,,false,,,,614013,614013,,614013,,614044,6,300,,,
sequence,flow.Sequence,4_124,2023-05-01T16:54:12.922Z,,0,,,2603,completion,,,,,false,,,,614014,614013,611394,611379,611410,614044,6,300,,,
trial,html.Screen,4_125_0,2023-05-01T16:54:15.608Z,,0,3,,2672.0000000001164,response,ISIC_9142818.JPG,,ISIC_6529073.JPG,ISIC_6529073.JPG,false,0,keypress(z),500,616700,616699.0000000001,614027,614014,614044,616728,6,300,26,,ISIC_9142818.JPG
break,html.Screen,4_125_1,2023-05-01T16:54:15.609Z,,0,,,NaN,,,,,,false,,,,616701,616701,,616700,,616728,6,300,,,
break_continue,html.Screen,4_125_2,2023-05-01T16:54:15.610Z,,0,,,NaN,,,,,,false,,,,616701,616701,,616701,,616728,6,300,,,
sequence,flow.Sequence,4_125,2023-05-01T16:54:15.610Z,,0,,,2657,completion,,,,,false,,,,616701,616701,614027,614014,614044,616728,6,300,,,
trial,html.Screen,4_126_0,2023-05-01T16:54:18.424Z,,0,3,,2804,response,ISIC_0063845.JPG,,ISIC_0002162.JPG,ISIC_0002162.JPG,false,0,keypress(z),500,619515,619514,616710,616701,616728,619544,6,300,27,,ISIC_0063845.JPG
break,html.Screen,4_126_1,2023-05-01T16:54:18.425Z,,0,,,NaN,,,,,,false,,,,619516,619516,,619515,,619544,6,300,,,
break_continue,html.Screen,4_126_2,2023-05-01T16:54:18.425Z,,0,,,NaN,,,,,,false,,,,619517,619516,,619516,,619544,6,300,,,
sequence,flow.Sequence,4_126,2023-05-01T16:54:18.426Z,,0,,,2788,completion,,,,,false,,,,619517,619516,616710,616701,616728,619544,6,300,,,
trial,html.Screen,4_127_0,2023-05-01T16:54:21.360Z,,0,3,,2923,response,ISIC_0030017.JPG,,ISIC_0027282.JPG,ISIC_0030017.JPG,false,1,keypress(m),500,622451,622451,619528,619517,619544,622493,6,300,28,,ISIC_0027282.JPG
break,html.Screen,4_127_1,2023-05-01T16:54:21.361Z,,0,,,NaN,,,,,,false,,,,622453,622452,,622452,,622493,6,300,,,
break_continue,html.Screen,4_127_2,2023-05-01T16:54:21.362Z,,0,,,NaN,,,,,,false,,,,622453,622453,,622453,,622493,6,300,,,
sequence,flow.Sequence,4_127,2023-05-01T16:54:21.362Z,,0,,,2909,completion,,,,,false,,,,622454.0000000001,622453,619528,619517,619544,622493,6,300,,,
trial,html.Screen,4_128_0,2023-05-01T16:54:23.960Z,,0,3,,2573,response,ISIC_9244047.JPG,,ISIC_0065882.JPG,ISIC_9244047.JPG,false,1,keypress(m),500,625052,625051,622478,622454.0000000001,622493,625094,6,300,29,,ISIC_0065882.JPG
break,html.Screen,4_128_1,2023-05-01T16:54:23.961Z,,0,,,NaN,,,,,,false,,,,625053,625053,,625052,,625094,6,300,,,
break_continue,html.Screen,4_128_2,2023-05-01T16:54:23.962Z,,0,,,NaN,,,,,,false,,,,625054,625053,,625053,,625094,6,300,,,
sequence,flow.Sequence,4_128,2023-05-01T16:54:23.962Z,,0,,,2560,completion,,,,,false,,,,625054,625053,622478,622454.0000000001,622493,625094,6,300,,,
trial,html.Screen,4_129_0,2023-05-01T16:54:26.652Z,,0,3,,2664,response,ISIC_0439726.JPG,,ISIC_4984668.JPG,ISIC_0439726.JPG,false,1,keypress(m),500,627743,627742,625078,625054,625094,627778,6,300,30,,ISIC_4984668.JPG
break,html.Screen,4_129_1,2023-05-01T16:54:26.653Z,,0,,,NaN,,,,,,false,,,,627744,627744,,627744,,627778,6,300,,,
break_continue,html.Screen,4_129_2,2023-05-01T16:54:26.653Z,,0,,,NaN,,,,,,false,,,,627745,627745,,627744,,627778,6,300,,,
sequence,flow.Sequence,4_129,2023-05-01T16:54:26.654Z,,0,,,2651,completion,,,,,false,,,,627745,627745,625078,625054,625094,627778,6,300,,,
trial,html.Screen,4_130_0,2023-05-01T16:54:29.226Z,,0,3,,2555,response,ISIC_1745182.JPG,,ISIC_0031015.JPG,ISIC_1745182.JPG,false,1,keypress(m),500,630317,630316,627761,627745,627778,630344,6,300,31,,ISIC_0031015.JPG
break,html.Screen,4_130_1,2023-05-01T16:54:29.227Z,,0,,,NaN,,,,,,false,,,,630319,630318,,630317,,630344,6,300,,,
break_continue,html.Screen,4_130_2,2023-05-01T16:54:29.228Z,,0,,,NaN,,,,,,false,,,,630319,630319,,630319,,630344,6,300,,,
sequence,flow.Sequence,4_130,2023-05-01T16:54:29.228Z,,0,,,2541,completion,,,,,false,,,,630319,630319,627761,627745,627778,630344,6,300,,,
trial,html.Screen,4_131_0,2023-05-01T16:54:31.857Z,,0,3,,2619,response,ISIC_0056047.JPG,,ISIC_4590810.JPG,ISIC_4590810.JPG,false,0,keypress(z),500,632948,632947,630328,630319,630344,632978,6,300,32,,ISIC_0056047.JPG
break,html.Screen,4_131_1,2023-05-01T16:54:31.858Z,,0,,,NaN,,,,,,false,,,,632949.0000000001,632949.0000000001,,632948,,632978,6,300,,,
break_continue,html.Screen,4_131_2,2023-05-01T16:54:31.858Z,,0,,,NaN,,,,,,false,,,,632950,632950,,632949.0000000001,,632978,6,300,,,
sequence,flow.Sequence,4_131,2023-05-01T16:54:31.859Z,,0,,,2606,completion,,,,,false,,,,632950,632950,630328,630319,630344,632978,6,300,,,
trial,html.Screen,4_132_0,2023-05-01T16:54:34.950Z,,0,3,,3080,response,ISIC_0032121.JPG,,ISIC_0010718.JPG,ISIC_0010718.JPG,false,0,keypress(z),500,636041,636040,632960,632950,632978,636078,6,300,33,,ISIC_0032121.JPG
break,html.Screen,4_132_1,2023-05-01T16:54:34.951Z,,0,,,NaN,,,,,,false,,,,636043,636042,,636041,,636078,6,300,,,
break_continue,html.Screen,4_132_2,2023-05-01T16:54:34.952Z,,0,,,NaN,,,,,,false,,,,636043,636043,,636043,,636078,6,300,,,
sequence,flow.Sequence,4_132,2023-05-01T16:54:34.952Z,,0,,,3065,completion,,,,,false,,,,636044,636043,632960,632950,632978,636078,6,300,,,
trial,html.Screen,4_133_0,2023-05-01T16:54:37.986Z,,0,3,,3016,response,ISIC_9228573.JPG,,ISIC_5425721.JPG,ISIC_5425721.JPG,false,0,keypress(z),500,639078,639077,636061,636044,636078,639111,6,300,34,,ISIC_9228573.JPG
break,html.Screen,4_133_1,2023-05-01T16:54:37.987Z,,0,,,NaN,,,,,,false,,,,639079.0000000001,639079.0000000001,,639078,,639111,6,300,,,
break_continue,html.Screen,4_133_2,2023-05-01T16:54:37.988Z,,0,,,NaN,,,,,,false,,,,639079.0000000001,639079.0000000001,,639079.0000000001,,639111,6,300,,,
sequence,flow.Sequence,4_133,2023-05-01T16:54:37.988Z,,0,,,3001.0000000001164,completion,,,,,false,,,,639080,639079.0000000001,636061,636044,636078,639111,6,300,,,
trial,html.Screen,4_134_0,2023-05-01T16:54:40.593Z,,0,3,,2590,response,ISIC_0027260.JPG,,ISIC_7306131.JPG,ISIC_7306131.JPG,false,0,keypress(z),500,641684,641684,639094,639080,639111,641728,6,300,35,,ISIC_0027260.JPG
break,html.Screen,4_134_1,2023-05-01T16:54:40.594Z,,0,,,NaN,,,,,,false,,,,641685.0000000001,641685.0000000001,,641685.0000000001,,641728,6,300,,,
break_continue,html.Screen,4_134_2,2023-05-01T16:54:40.594Z,,0,,,NaN,,,,,,false,,,,641686,641686,,641686,,641728,6,300,,,
sequence,flow.Sequence,4_134,2023-05-01T16:54:40.595Z,,0,,,2575,completion,,,,,false,,,,641686,641686,639094,639080,639111,641728,6,300,,,
trial,html.Screen,4_135_0,2023-05-01T16:54:43.105Z,,0,3,,2484,response,ISIC_0032861.JPG,,ISIC_9161341.JPG,ISIC_9161341.JPG,false,0,keypress(z),500,644196,644195,641711,641686,641728,644227,6,300,36,,ISIC_0032861.JPG
break,html.Screen,4_135_1,2023-05-01T16:54:43.106Z,,0,,,NaN,,,,,,false,,,,644197,644197,,644196,,644227,6,300,,,
break_continue,html.Screen,4_135_2,2023-05-01T16:54:43.106Z,,0,,,NaN,,,,,,false,,,,644197,644197,,644197,,644227,6,300,,,
sequence,flow.Sequence,4_135,2023-05-01T16:54:43.106Z,,0,,,2469,completion,,,,,false,,,,644198,644197,641711,641686,641728,644227,6,300,,,
trial,html.Screen,4_136_0,2023-05-01T16:54:45.830Z,,0,3,,2709,response,ISIC_0057815.JPG,,ISIC_1532403.JPG,ISIC_1532403.JPG,false,0,keypress(z),500,646921,646920,644211,644198,644227,646944,6,300,37,,ISIC_0057815.JPG
break,html.Screen,4_136_1,2023-05-01T16:54:45.831Z,,0,,,NaN,,,,,,false,,,,646922,646922,,646921,,646944,6,300,,,
break_continue,html.Screen,4_136_2,2023-05-01T16:54:45.831Z,,0,,,NaN,,,,,,false,,,,646923,646923,,646922,,646944,6,300,,,
sequence,flow.Sequence,4_136,2023-05-01T16:54:45.832Z,,0,,,2696,completion,,,,,false,,,,646923,646923,644211,644198,644227,646944,6,300,,,
trial,html.Screen,4_137_0,2023-05-01T16:54:48.640Z,,0,3,,2803,response,ISIC_0062367.JPG,,ISIC_1382271.JPG,ISIC_0062367.JPG,false,1,keypress(m),500,649731,649731,646928,646923,646944,649761,6,300,38,,ISIC_1382271.JPG
break,html.Screen,4_137_1,2023-05-01T16:54:48.641Z,,0,,,NaN,,,,,,false,,,,649732,649732,,649732,,649761,6,300,,,
break_continue,html.Screen,4_137_2,2023-05-01T16:54:48.641Z,,0,,,NaN,,,,,,false,,,,649732,649732,,649732,,649761,6,300,,,
sequence,flow.Sequence,4_137,2023-05-01T16:54:48.641Z,,0,,,2788,completion,,,,,false,,,,649733.0000000001,649732,646928,646923,646944,649761,6,300,,,
trial,html.Screen,4_138_0,2023-05-01T16:54:51.598Z,,0,3,,2944,response,ISIC_0004015.JPG,,ISIC_0350472.JPG,ISIC_0004015.JPG,false,1,keypress(m),500,652689,652688,649744,649733.0000000001,649761,652728,6,300,39,,ISIC_0350472.JPG
break,html.Screen,4_138_1,2023-05-01T16:54:51.599Z,,0,,,NaN,,,,,,false,,,,652690,652690,,652689,,652728,6,300,,,
break_continue,html.Screen,4_138_2,2023-05-01T16:54:51.599Z,,0,,,NaN,,,,,,false,,,,652690,652690,,652690,,652728,6,300,,,
sequence,flow.Sequence,4_138,2023-05-01T16:54:51.599Z,,0,,,2929,completion,,,,,false,,,,652691,652690,649744,649733.0000000001,649761,652728,6,300,,,
trial,html.Screen,4_139_0,2023-05-01T16:54:54.238Z,,0,3,,2619.0000000001164,response,ISIC_5525765.JPG,,ISIC_5900778.JPG,ISIC_5900778.JPG,false,0,keypress(z),500,655330,655329.0000000001,652710,652691,652728,655361,6,300,40,,ISIC_5525765.JPG
break,html.Screen,4_139_1,2023-05-01T16:54:54.239Z,,0,,,NaN,,,,,,false,,,,655331,655331,,655330,,655361,6,300,,,
break_continue,html.Screen,4_139_2,2023-05-01T16:54:54.240Z,,0,,,NaN,,,,,,false,,,,655331,655331,,655331,,655361,6,300,,,
sequence,flow.Sequence,4_139,2023-05-01T16:54:54.240Z,,0,,,2603,completion,,,,,false,,,,655331,655331,652710,652691,652728,655361,6,300,,,
trial,html.Screen,4_140_0,2023-05-01T16:55:00.779Z,,0,3,,6525,response,ISIC_0033394.JPG,,ISIC_0012701.JPG,ISIC_0012701.JPG,false,0,keypress(z),500,661870,661870,655345,655332,655361,661911,6,300,41,,ISIC_0033394.JPG
break,html.Screen,4_140_1,2023-05-01T16:55:00.780Z,,0,,,NaN,,,,,,false,,,,661871,661871,,661870,,661911,6,300,,,
break_continue,html.Screen,4_140_2,2023-05-01T16:55:00.781Z,,0,,,NaN,,,,,,false,,,,661872,661872,,661872,,661911,6,300,,,
sequence,flow.Sequence,4_140,2023-05-01T16:55:00.781Z,,0,,,6511,completion,,,,,false,,,,661872,661872,655345,655332,655361,661911,6,300,,,
trial,html.Screen,4_141_0,2023-05-01T16:55:04.250Z,,0,3,,3446,response,ISIC_1450548.JPG,,ISIC_0059066.JPG,ISIC_1450548.JPG,false,1,keypress(m),500,665342,665341,661895,661872,661911,665377,6,300,42,,ISIC_0059066.JPG
break,html.Screen,4_141_1,2023-05-01T16:55:04.251Z,,0,,,NaN,,,,,,false,,,,665343,665343,,665342,,665377,6,300,,,
break_continue,html.Screen,4_141_2,2023-05-01T16:55:04.252Z,,0,,,NaN,,,,,,false,,,,665343,665343,,665343,,665377,6,300,,,
sequence,flow.Sequence,4_141,2023-05-01T16:55:04.252Z,,0,,,3432,completion,,,,,false,,,,665344,665343,661895,661872,661911,665377,6,300,,,
trial,html.Screen,4_142_0,2023-05-01T16:55:06.950Z,,0,3,,2681,response,ISIC_7266462.JPG,,ISIC_0027260.JPG,ISIC_7266462.JPG,false,1,keypress(m),500,668041,668041,665360,665344,665377,668076,6,300,43,,ISIC_0027260.JPG
break,html.Screen,4_142_1,2023-05-01T16:55:06.951Z,,0,,,NaN,,,,,,false,,,,668043,668042,,668042,,668076,6,300,,,
break_continue,html.Screen,4_142_2,2023-05-01T16:55:06.952Z,,0,,,NaN,,,,,,false,,,,668043,668043,,668043,,668076,6,300,,,
sequence,flow.Sequence,4_142,2023-05-01T16:55:06.952Z,,0,,,2666,completion,,,,,false,,,,668043,668043,665360,665344,665377,668076,6,300,,,
trial,html.Screen,4_143_0,2023-05-01T16:55:09.612Z,,0,3,,2643,response,ISIC_0061475.JPG,,ISIC_0029013.JPG,ISIC_0029013.JPG,false,0,keypress(z),500,670703,670703,668060,668043,668076,670727,6,300,44,,ISIC_0061475.JPG
break,html.Screen,4_143_1,2023-05-01T16:55:09.613Z,,0,,,NaN,,,,,,false,,,,670704.0000000001,670704.0000000001,,670704.0000000001,,670727,6,300,,,
break_continue,html.Screen,4_143_2,2023-05-01T16:55:09.613Z,,0,,,NaN,,,,,,false,,,,670705,670705,,670705,,670727,6,300,,,
sequence,flow.Sequence,4_143,2023-05-01T16:55:09.614Z,,0,,,2629,completion,,,,,false,,,,670705,670705,668060,668043,668076,670727,6,300,,,
trial,html.Screen,4_144_0,2023-05-01T16:55:12.452Z,,0,3,,2832,response,ISIC_0025535.JPG,,ISIC_9786863.JPG,ISIC_0025535.JPG,false,1,keypress(m),500,673543,673542,670710,670705,670727,673577,6,300,45,,ISIC_9786863.JPG
break,html.Screen,4_144_1,2023-05-01T16:55:12.453Z,,0,,,NaN,,,,,,false,,,,673544,673544,,673543,,673577,6,300,,,
break_continue,html.Screen,4_144_2,2023-05-01T16:55:12.454Z,,0,,,NaN,,,,,,false,,,,673545,673545,,673545,,673577,6,300,,,
sequence,flow.Sequence,4_144,2023-05-01T16:55:12.454Z,,0,,,2818,completion,,,,,false,,,,673545,673545,670710,670705,670727,673577,6,300,,,
trial,html.Screen,4_145_0,2023-05-01T16:55:15.338Z,,0,3,,2868,response,ISIC_0030512.JPG,,ISIC_3825641.JPG,ISIC_3825641.JPG,false,0,keypress(z),500,676429,676428,673560,673545,673577,676460,6,300,46,,ISIC_0030512.JPG
break,html.Screen,4_145_1,2023-05-01T16:55:15.339Z,,0,,,NaN,,,,,,false,,,,676431,676430.0000000001,,676429,,676460,6,300,,,
break_continue,html.Screen,4_145_2,2023-05-01T16:55:15.340Z,,0,,,NaN,,,,,,false,,,,676431,676431,,676431,,676460,6,300,,,
sequence,flow.Sequence,4_145,2023-05-01T16:55:15.340Z,,0,,,2854,completion,,,,,false,,,,676431,676431,673560,673545,673577,676460,6,300,,,
trial,html.Screen,4_146_0,2023-05-01T16:55:17.809Z,,0,3,,2457,response,ISIC_0033472.JPG,,ISIC_9228573.JPG,ISIC_9228573.JPG,false,0,keypress(z),500,678900,678900,676443,676431,676460,678927,6,300,47,,ISIC_0033472.JPG
break,html.Screen,4_146_1,2023-05-01T16:55:17.810Z,,0,,,NaN,,,,,,false,,,,678902,678901.0000000001,,678900,,678927,6,300,,,
break_continue,html.Screen,4_146_2,2023-05-01T16:55:17.811Z,,0,,,NaN,,,,,,false,,,,678902,678902,,678902,,678927,6,300,,,
sequence,flow.Sequence,4_146,2023-05-01T16:55:17.811Z,,0,,,2442,completion,,,,,false,,,,678902,678902,676443,676431,676460,678927,6,300,,,
trial,html.Screen,4_147_0,2023-05-01T16:55:22.341Z,,0,3,,4522,response,ISIC_0030291.JPG,,ISIC_0694677.JPG,ISIC_0030291.JPG,false,1,keypress(m),500,683433,683432,678910,678903,678927,683477,6,300,48,,ISIC_0694677.JPG
break,html.Screen,4_147_1,2023-05-01T16:55:22.343Z,,0,,,NaN,,,,,,false,,,,683434,683434,,683433,,683477,6,300,,,
break_continue,html.Screen,4_147_2,2023-05-01T16:55:22.343Z,,0,,,NaN,,,,,,false,,,,683434,683434,,683434,,683477,6,300,,,
sequence,flow.Sequence,4_147,2023-05-01T16:55:22.343Z,,0,,,4507,completion,,,,,false,,,,683434,683434,678910,678903,678927,683477,6,300,,,
trial,html.Screen,4_148_0,2023-05-01T16:55:26.201Z,,0,3,,3828,response,ISIC_0428383.JPG,,ISIC_2635051.JPG,ISIC_2635051.JPG,false,0,keypress(z),500,687292,687288,683460,683435.0000000001,683477,687326,6,300,49,,ISIC_0428383.JPG
break,html.Screen,4_148_1,2023-05-01T16:55:26.202Z,,0,,,NaN,,,,,,false,,,,687294,687293,,687293,,687326,6,300,,,
break_continue,html.Screen,4_148_2,2023-05-01T16:55:26.203Z,,0,,,NaN,,,,,,false,,,,687294,687294,,687294,,687326,6,300,,,
sequence,flow.Sequence,4_148,2023-05-01T16:55:26.203Z,,0,,,3817,completion,,,,,false,,,,687294,687294,683460,683435.0000000001,683477,687326,6,300,,,
trial,html.Screen,4_149_0,2023-05-01T16:55:28.827Z,,0,3,,2608,response,ISIC_0013498.JPG,,ISIC_5503634.JPG,ISIC_0013498.JPG,false,1,keypress(m),500,689919,689918,687310,687295,687326,689960,6,300,50,,ISIC_5503634.JPG
break,html.Screen,4_149_1,2023-05-01T16:55:33.852Z,,0,,,5000,timeout,,,,,false,,,,694943,694942,689944,689919,689960,694960,6,300,,,
break_continue,html.Screen,4_149_2,2023-05-01T16:55:35.100Z,,0,,,1218,response,,,,,false,continue,keypress(Space),,696192,696160,694942,694943,694960,696227,6,300,,,
sequence,flow.Sequence,4_149,2023-05-01T16:55:35.101Z,,0,,,8834,completion,,,,,false,,,,696192,696160,687310,687295,687326,696227,6,300,,,
trial,html.Screen,4_150_0,2023-05-01T16:55:37.732Z,,0,4,,2612,response,ISIC_8773962.JPG,,ISIC_5900778.JPG,ISIC_8773962.JPG,false,1,keypress(m),500,698823,698822,696210,696192,696227,698860,6,300,1,,ISIC_5900778.JPG
break,html.Screen,4_150_1,2023-05-01T16:55:37.734Z,,0,,,NaN,,,,,,false,,,,698825,698824.0000000001,,698824.0000000001,,698860,6,300,,,
break_continue,html.Screen,4_150_2,2023-05-01T16:55:37.734Z,,0,,,NaN,,,,,,false,,,,698826,698825,,698825,,698860,6,300,,,
sequence,flow.Sequence,4_150,2023-05-01T16:55:37.734Z,,0,,,2598,completion,,,,,false,,,,698826,698825,696210,696192,696227,698860,6,300,,,
trial,html.Screen,4_151_0,2023-05-01T16:55:40.339Z,,0,4,,2586.0000000001164,response,ISIC_0055675.JPG,,ISIC_4748605.JPG,ISIC_4748605.JPG,false,0,keypress(z),500,701431,701430.0000000001,698844,698826,698860,701460,6,300,2,,ISIC_0055675.JPG
break,html.Screen,4_151_1,2023-05-01T16:55:40.341Z,,0,,,NaN,,,,,,false,,,,701432,701432,,701431,,701460,6,300,,,
break_continue,html.Screen,4_151_2,2023-05-01T16:55:40.342Z,,0,,,NaN,,,,,,false,,,,701433,701433,,701432,,701460,6,300,,,
sequence,flow.Sequence,4_151,2023-05-01T16:55:40.342Z,,0,,,2573,completion,,,,,false,,,,701433,701433,698844,698826,698860,701460,6,300,,,
trial,html.Screen,4_152_0,2023-05-01T16:55:42.993Z,,0,4,,2640.0000000001164,response,ISIC_0024697.JPG,,ISIC_0033289.JPG,ISIC_0033289.JPG,false,0,keypress(z),500,704085,704084.0000000001,701444,701434,701460,704110,6,300,3,,ISIC_0024697.JPG
break,html.Screen,4_152_1,2023-05-01T16:55:42.995Z,,0,,,NaN,,,,,,false,,,,704086,704086,,704085,,704110,6,300,,,
break_continue,html.Screen,4_152_2,2023-05-01T16:55:42.995Z,,0,,,NaN,,,,,,false,,,,704087,704087,,704087,,704110,6,300,,,
sequence,flow.Sequence,4_152,2023-05-01T16:55:42.996Z,,0,,,2627,completion,,,,,false,,,,704087,704087,701444,701433,701460,704110,6,300,,,
trial,html.Screen,4_153_0,2023-05-01T16:55:45.604Z,,0,4,,2602,response,ISIC_8659639.JPG,,ISIC_2513481.JPG,ISIC_2513481.JPG,false,0,keypress(z),500,706696,706695,704093,704087,704110,706727,6,300,4,,ISIC_8659639.JPG
break,html.Screen,4_153_1,2023-05-01T16:55:45.606Z,,0,,,NaN,,,,,,false,,,,706697,706696,,706696,,706727,6,300,,,
break_continue,html.Screen,4_153_2,2023-05-01T16:55:45.606Z,,0,,,NaN,,,,,,false,,,,706697,706697,,706697,,706727,6,300,,,
sequence,flow.Sequence,4_153,2023-05-01T16:55:45.606Z,,0,,,2587,completion,,,,,false,,,,706698,706697,704093,704087,704110,706727,6,300,,,
trial,html.Screen,4_154_0,2023-05-01T16:55:48.326Z,,0,4,,2706,response,ISIC_0014082.JPG,,ISIC_7680333.JPG,ISIC_7680333.JPG,false,0,keypress(z),500,709417,709416,706710,706698,706727,709443,6,300,5,,ISIC_0014082.JPG
break,html.Screen,4_154_1,2023-05-01T16:55:48.327Z,,0,,,NaN,,,,,,false,,,,709418,709418,,709417,,709443,6,300,,,
break_continue,html.Screen,4_154_2,2023-05-01T16:55:48.328Z,,0,,,NaN,,,,,,false,,,,709419,709419,,709419,,709443,6,300,,,
sequence,flow.Sequence,4_154,2023-05-01T16:55:48.328Z,,0,,,2692,completion,,,,,false,,,,709419,709419,706710,706698,706727,709443,6,300,,,
trial,html.Screen,4_155_0,2023-05-01T16:55:51.001Z,,0,4,,2665,response,ISIC_5422432.JPG,,ISIC_0475506.JPG,ISIC_0475506.JPG,false,0,keypress(z),500,712093,712092,709427,709420,709443,712127,6,300,6,,ISIC_5422432.JPG
break,html.Screen,4_155_1,2023-05-01T16:55:51.003Z,,0,,,NaN,,,,,,false,,,,712094,712094,,712093,,712127,6,300,,,
break_continue,html.Screen,4_155_2,2023-05-01T16:55:51.003Z,,0,,,NaN,,,,,,false,,,,712094,712094,,712094,,712127,6,300,,,
sequence,flow.Sequence,4_155,2023-05-01T16:55:51.003Z,,0,,,2651,completion,,,,,false,,,,712095,712094,709427,709420,709443,712127,6,300,,,
trial,html.Screen,4_156_0,2023-05-01T16:55:53.705Z,,0,4,,2686,response,ISIC_4981135.JPG,,ISIC_0011715.JPG,ISIC_4981135.JPG,false,1,keypress(m),500,714796,714795,712109,712095,712127,714827,6,300,7,,ISIC_0011715.JPG
break,html.Screen,4_156_1,2023-05-01T16:55:53.706Z,,0,,,NaN,,,,,,false,,,,714797,714797,,714796,,714827,6,300,,,
break_continue,html.Screen,4_156_2,2023-05-01T16:55:53.707Z,,0,,,NaN,,,,,,false,,,,714798,714798,,714797,,714827,6,300,,,
sequence,flow.Sequence,4_156,2023-05-01T16:55:53.707Z,,0,,,2671,completion,,,,,false,,,,714798,714798,712109,712095,712127,714827,6,300,,,
trial,html.Screen,4_157_0,2023-05-01T16:56:03.033Z,,0,4,,9314,response,ISIC_0071904.JPG,,ISIC_5504560.JPG,ISIC_5504560.JPG,false,0,keypress(z),500,724124,724124,714810,714799,714827,724160,6,300,8,,ISIC_0071904.JPG
break,html.Screen,4_157_1,2023-05-01T16:56:03.035Z,,0,,,NaN,,,,,,false,,,,724126,724125,,724125,,724160,6,300,,,
break_continue,html.Screen,4_157_2,2023-05-01T16:56:03.035Z,,0,,,NaN,,,,,,false,,,,724126,724126,,724126,,724160,6,300,,,
sequence,flow.Sequence,4_157,2023-05-01T16:56:03.035Z,,0,,,9299,completion,,,,,false,,,,724127.0000000001,724126,714810,714799,714827,724160,6,300,,,
trial,html.Screen,4_158_0,2023-05-01T16:56:05.597Z,,0,4,,2543,response,ISIC_9336830.JPG,,ISIC_0008768.JPG,ISIC_0008768.JPG,false,0,keypress(z),500,726688,726687,724144,724127.0000000001,724160,726727,6,300,9,,ISIC_9336830.JPG
break,html.Screen,4_158_1,2023-05-01T16:56:05.599Z,,0,,,NaN,,,,,,false,,,,726690,726690,,726689,,726727,6,300,,,
break_continue,html.Screen,4_158_2,2023-05-01T16:56:05.599Z,,0,,,NaN,,,,,,false,,,,726690,726690,,726690,,726727,6,300,,,
sequence,flow.Sequence,4_158,2023-05-01T16:56:05.599Z,,0,,,2530,completion,,,,,false,,,,726691,726690,724144,724127.0000000001,724160,726727,6,300,,,
trial,html.Screen,4_159_0,2023-05-01T16:56:08.439Z,,0,4,,2819,response,ISIC_8869249.JPG,,ISIC_2143002.JPG,ISIC_8869249.JPG,false,1,keypress(m),500,729530,729529,726710,726691,726727,729560,6,300,10,,ISIC_2143002.JPG
