sender,sender_type,sender_id,timestamp,meta,,blockNo,condition,duration,ended_on,img_left,img_reveal,img_right,loser,practice,response,response_action,selection_duration,time_commit,time_end,time_render,time_run,time_show,time_switch,total_blocks,total_trials,trialNo,url,winner
informed_consent,html.Screen,0,2023-05-03T20:32:24.046Z,"{""labjs_version"":""20.2.4"",""labjs_build"":{""flavor"":""production"",""commit"":""f5b4a49f956347addd546a832a3327688c2c0fef""},""location"":""https://run.pavlovia.org/MurrayBennett/melanoma-2afc/?participant=64868"",""userAgent"":""Mozilla/5.0 (Windows NT 10.0; Win64; x64) AppleWebKit/537.36 (KHTML, like Gecko) Chrome/112.0.0.0 Safari/537.36 Edg/112.0.1722.64"",""platform"":""Win32"",""language"":""en-US"",""locale"":""en-US"",""timeZone"":""America/Chicago"",""timezoneOffset"":300,""screen_width"":1920,""screen_height"":1080,""scroll_width"":1920,""scroll_height"":921,""window_innerWidth"":1920,""window_innerHeight"":969,""devicePixelRatio"":1}",,,,47958.23799847412,response,,,,,,consent,click button,,53406.79999923706,53405.59999847412,5002.107,5438.599998474121,5447.362,53414.965,,,,"{""participant"":""64868""}",
Welcome,html.Screen,1,2023-05-03T20:32:54.033Z,,,,irregular,29979.535000000003,response,,,,,,continue,click button,,83395,83394.5,53400.995,53407,53414.965,83396.395,,,,,
trial,html.Screen,2_0_0,2023-05-03T20:33:00.519Z,,0,0,,6483.9049992370565,response,ISIC_0061792.JPG,,ISIC_4679428.JPG,ISIC_4679428.JPG,true,0,keypress(z),500,89880.5,89880.29999923706,83389.363,83395.19999885559,83396.395,89888.104,1,6,1,,ISIC_0061792.JPG
sequence,flow.Sequence,2_0,2023-05-03T20:33:00.519Z,,0,,,6483.9049992370565,completion,,,,,true,,,,89880.89999961853,89880.29999923706,83389.363,83395.19999885559,83396.395,89888.104,1,6,,,
trial,html.Screen,2_1_0,2023-05-03T20:33:09.086Z,,0,0,,8559.495998474114,response,ISIC_0776486.JPG,,ISIC_5199497.JPG,ISIC_0776486.JPG,true,1,keypress(m),500,98447.89999961853,98447.59999847412,89880.234,89881,89888.104,98453.202,1,6,2,,ISIC_5199497.JPG
sequence,flow.Sequence,2_1,2023-05-03T20:33:09.087Z,,0,,,8559.495998474114,completion,,,,,true,,,,98448.19999885559,98447.59999847412,89880.234,89881,89888.104,98453.202,1,6,,,
trial,html.Screen,2_2_0,2023-05-03T20:33:14.471Z,,0,0,,5379.297999999995,response,ISIC_2556187.JPG,,ISIC_8575776.JPG,ISIC_8575776.JPG,true,0,keypress(z),500,103832.79999923706,103832.5,98445.439,98448.19999885559,98453.202,103838.633,1,6,3,,ISIC_2556187.JPG
sequence,flow.Sequence,2_2,2023-05-03T20:33:14.472Z,,0,,,5379.297999999995,completion,,,,,true,,,,103833.19999885559,103832.5,98445.439,98448.19999885559,98453.202,103838.633,1,6,,,
trial,html.Screen,2_3_0,2023-05-03T20:33:17.793Z,,0,0,,3315.4669984741195,response,ISIC_8141769.JPG,,ISIC_9238366.JPG,ISIC_9238366.JPG,true,0,keypress(z),500,107154.29999923706,107154.09999847412,103830.826,103833.29999923706,103838.633,107157.523,1,6,4,,ISIC_8141769.JPG
sequence,flow.Sequence,2_3,2023-05-03T20:33:17.793Z,,0,,,3315.4669984741195,completion,,,,,true,,,,107154.59999847412,107154.09999847412,103830.826,103833.29999923706,103838.633,107157.523,1,6,,,
trial,html.Screen,2_4_0,2023-05-03T20:33:21.543Z,,0,0,,3747.1769988555898,response,ISIC_8949026.JPG,,ISIC_9959593.JPG,ISIC_8949026.JPG,true,1,keypress(m),500,110904.89999961853,110904.69999885559,107149.699,107154.79999923706,107157.523,110907.883,1,6,5,,ISIC_9959593.JPG
sequence,flow.Sequence,2_4,2023-05-03T20:33:21.543Z,,0,,,3747.1769988555898,completion,,,,,true,,,,110905.09999847412,110904.69999885559,107149.699,107154.79999923706,107157.523,110907.883,1,6,,,
trial,html.Screen,2_5_0,2023-05-03T20:33:25.002Z,,0,0,,3455.416999237059,response,ISIC_0010479.JPG,,ISIC_0460240.JPG,ISIC_0460240.JPG,true,0,keypress(z),500,114363.39999961853,114363.29999923706,110899.994,110905.09999847412,110907.883,114365.912,1,6,6,,ISIC_0010479.JPG
sequence,flow.Sequence,2_5,2023-05-03T20:33:25.002Z,,0,,,3455.416999237059,completion,,,,,true,,,,114363.59999847412,114363.29999923706,110899.994,110905.09999847412,110907.883,114365.912,1,6,,,
loop,flow.Loop,2,2023-05-03T20:33:25.002Z,,,,,30966.904999237056,completion,,,,,true,,,,114363.59999847412,114363.29999923706,83389.363,83395.19999885559,83396.395,114365.912,1,6,,,
exp_instructions,html.Screen,3,2023-05-03T20:33:30.486Z,,,,,5481.1879984741245,response,,,,,,continue,keypress(Space),,119847.39999961853,119847.09999847412,114358.096,114363.69999885559,114365.912,119855.88,,,,,
trial,html.Screen,4_0_0,2023-05-03T20:33:34.898Z,,0,1,,4402.619999999995,response,ISIC_3792196.JPG,,ISIC_1175170.JPG,ISIC_3792196.JPG,false,1,keypress(m),500,124258.69999885559,124258.5,119845.566,119847.5,119855.88,124267.305,8,400,1,,ISIC_1175170.JPG
break,html.Screen,4_0_1,2023-05-03T20:33:34.898Z,,0,,,NaN,,,,,,false,,,,124259.09999847412,124259,,124258.69999885559,,124267.305,8,400,,,
break_continue,html.Screen,4_0_2,2023-05-03T20:33:34.898Z,,0,,,NaN,,,,,,false,,,,124259.29999923706,124259.29999923706,,124259.19999885559,,124267.305,8,400,,,
sequence,flow.Sequence,4_0,2023-05-03T20:33:34.899Z,,0,,,4403.419999237056,completion,,,,,false,,,,124259.39999961853,124259.29999923706,119845.566,119847.5,119855.88,124267.305,8,400,,,
trial,html.Screen,4_1_0,2023-05-03T20:33:39.076Z,,0,1,,4169.394998855598,response,ISIC_6960446.JPG,,ISIC_0054021.JPG,ISIC_6960446.JPG,false,1,keypress(m),500,128436.89999961853,128436.69999885559,124252.148,124259.5,124267.305,128441.673,8,400,2,,ISIC_0054021.JPG
break,html.Screen,4_1_1,2023-05-03T20:33:39.077Z,,0,,,NaN,,,,,,false,,,,128437.69999885559,128437.5,,128437.09999847412,,128441.673,8,400,,,
break_continue,html.Screen,4_1_2,2023-05-03T20:33:39.077Z,,0,,,NaN,,,,,,false,,,,128438,128437.89999961853,,128437.79999923706,,128441.673,8,400,,,
sequence,flow.Sequence,4_1,2023-05-03T20:33:39.077Z,,0,,,4170.594999618537,completion,,,,,false,,,,128438.19999885559,128437.89999961853,124252.148,124259.5,124267.305,128441.673,8,400,,,
trial,html.Screen,4_2_0,2023-05-03T20:33:42.284Z,,0,1,,3203.327000000005,response,ISIC_0013719.JPG,,ISIC_0202167.JPG,ISIC_0202167.JPG,false,0,keypress(z),500,131645.09999847412,131645,128433.766,128438.19999885559,128441.673,131649.237,8,400,3,,ISIC_0013719.JPG
break,html.Screen,4_2_1,2023-05-03T20:33:42.285Z,,0,,,NaN,,,,,,false,,,,131645.5,131645.39999961853,,131645.1999988556,,131649.237,8,400,,,
break_continue,html.Screen,4_2_2,2023-05-03T20:33:42.285Z,,0,,,NaN,,,,,,false,,,,131645.6999988556,131645.59999847412,,131645.59999847412,,131649.237,8,400,,,
sequence,flow.Sequence,4_2,2023-05-03T20:33:42.285Z,,0,,,3203.926998474126,completion,,,,,false,,,,131645.79999923706,131645.59999847412,128433.766,128438.19999885559,128441.673,131649.237,8,400,,,
trial,html.Screen,4_3_0,2023-05-03T20:33:46.004Z,,0,1,,3715.3629984741274,response,ISIC_1344537.JPG,,ISIC_0004000.JPG,ISIC_0004000.JPG,false,0,keypress(z),500,135364.89999961853,135364.59999847412,131641.405,131645.79999923706,131649.237,135371.658,8,400,4,,ISIC_1344537.JPG
break,html.Screen,4_3_1,2023-05-03T20:33:46.005Z,,0,,,NaN,,,,,,false,,,,135365.5,135365.29999923706,,135365.09999847412,,135371.658,8,400,,,
break_continue,html.Screen,4_3_2,2023-05-03T20:33:46.005Z,,0,,,NaN,,,,,,false,,,,135365.59999847412,135365.59999847412,,135365.59999847412,,135371.658,8,400,,,
sequence,flow.Sequence,4_3,2023-05-03T20:33:46.005Z,,0,,,3716.3629984741274,completion,,,,,false,,,,135365.6999988556,135365.59999847412,131641.405,131645.79999923706,131649.237,135371.658,8,400,,,
trial,html.Screen,4_4_0,2023-05-03T20:33:49.109Z,,0,1,,3098.2419996185345,response,ISIC_8263489.JPG,,ISIC_3211915.JPG,ISIC_3211915.JPG,false,0,keypress(z),500,138470.09999847412,138469.89999961853,135363.903,135365.79999923706,135371.658,138474.885,8,400,5,,ISIC_8263489.JPG
break,html.Screen,4_4_1,2023-05-03T20:33:49.110Z,,0,,,NaN,,,,,,false,,,,138470.5,138470.39999961853,,138470.1999988556,,138474.885,8,400,,,
break_continue,html.Screen,4_4_2,2023-05-03T20:33:49.110Z,,0,,,NaN,,,,,,false,,,,138470.6999988556,138470.6999988556,,138470.5,,138474.885,8,400,,,
sequence,flow.Sequence,4_4,2023-05-03T20:33:49.110Z,,0,,,3099.041998855595,completion,,,,,false,,,,138470.79999923706,138470.6999988556,135363.903,135365.79999923706,135371.658,138474.885,8,400,,,
trial,html.Screen,4_5_0,2023-05-03T20:33:56.814Z,,0,1,,7699.8149988555815,response,ISIC_0028696.JPG,,ISIC_0009971.JPG,ISIC_0028696.JPG,false,1,keypress(m),500,146174.89999961853,146174.6999988556,138467.211,138470.79999923706,138474.885,146177.299,8,400,6,,ISIC_0009971.JPG
break,html.Screen,4_5_1,2023-05-03T20:33:56.815Z,,0,,,NaN,,,,,,false,,,,146175.59999847412,146175.39999961853,,146175.09999847412,,146177.299,8,400,,,
break_continue,html.Screen,4_5_2,2023-05-03T20:33:56.815Z,,0,,,NaN,,,,,,false,,,,146176,146175.89999961853,,146175.79999923706,,146177.299,8,400,,,
sequence,flow.Sequence,4_5,2023-05-03T20:33:56.815Z,,0,,,7701.014999618521,completion,,,,,false,,,,146176.09999847412,146175.89999961853,138467.211,138470.79999923706,138474.885,146177.299,8,400,,,
trial,html.Screen,4_6_0,2023-05-03T20:34:00.046Z,,0,1,,3229.100999618531,response,ISIC_4170698.JPG,,ISIC_0053854.JPG,ISIC_4170698.JPG,false,1,keypress(m),500,149406.5,149406.39999961853,146169.458,146176.1999988556,146177.299,149412.69,8,400,7,,ISIC_0053854.JPG
break,html.Screen,4_6_1,2023-05-03T20:34:00.046Z,,0,,,NaN,,,,,,false,,,,149407,149406.89999961853,,149406.59999847412,,149412.69,8,400,,,
break_continue,html.Screen,4_6_2,2023-05-03T20:34:00.046Z,,0,,,NaN,,,,,,false,,,,149407.09999847412,149407.09999847412,,149407.09999847412,,149412.69,8,400,,,
sequence,flow.Sequence,4_6,2023-05-03T20:34:00.046Z,,0,,,3229.800998474122,completion,,,,,false,,,,149407.1999988556,149407.09999847412,146169.458,146176.1999988556,146177.299,149412.69,8,400,,,
trial,html.Screen,4_7_0,2023-05-03T20:34:04.647Z,,0,1,,4595.309999999998,response,ISIC_4474352.JPG,,ISIC_3397377.JPG,ISIC_3397377.JPG,false,0,keypress(z),500,154008.1999988556,154008,149404.835,149407.1999988556,149412.69,154011.801,8,400,8,,ISIC_4474352.JPG
break,html.Screen,4_7_1,2023-05-03T20:34:04.648Z,,0,,,NaN,,,,,,false,,,,154008.59999847412,154008.39999961853,,154008.1999988556,,154011.801,8,400,,,
break_continue,html.Screen,4_7_2,2023-05-03T20:34:04.648Z,,0,,,NaN,,,,,,false,,,,154008.6999988556,154008.59999847412,,154008.59999847412,,154011.801,8,400,,,
sequence,flow.Sequence,4_7,2023-05-03T20:34:04.648Z,,0,,,4595.909998474119,completion,,,,,false,,,,154008.79999923706,154008.59999847412,149404.835,149407.1999988556,149412.69,154011.801,8,400,,,
trial,html.Screen,4_8_0,2023-05-03T20:34:07.446Z,,0,1,,2794.5989996185235,response,ISIC_7875959.JPG,,ISIC_7225978.JPG,ISIC_7225978.JPG,false,0,keypress(z),500,156806.59999847412,156806.39999961853,154004.003,154008.89999961853,154011.801,156808.919,8,400,9,,ISIC_7875959.JPG
break,html.Screen,4_8_1,2023-05-03T20:34:07.446Z,,0,,,NaN,,,,,,false,,,,156807,156807,,156806.6999988556,,156808.919,8,400,,,
break_continue,html.Screen,4_8_2,2023-05-03T20:34:07.446Z,,0,,,NaN,,,,,,false,,,,156807.09999847412,156807.09999847412,,156807.09999847412,,156808.919,8,400,,,
sequence,flow.Sequence,4_8,2023-05-03T20:34:07.446Z,,0,,,2795.2989984741143,completion,,,,,false,,,,156807.1999988556,156807.09999847412,154004.003,154008.79999923706,154011.801,156808.919,8,400,,,
trial,html.Screen,4_9_0,2023-05-03T20:34:13.636Z,,0,1,,6187.880999237066,response,ISIC_2379908.JPG,,ISIC_0029672.JPG,ISIC_0029672.JPG,false,0,keypress(z),500,162996.89999961853,162996.79999923706,156801.067,156807.39999961853,156808.919,163001.36,8,400,10,,ISIC_2379908.JPG
break,html.Screen,4_9_1,2023-05-03T20:34:13.637Z,,0,,,NaN,,,,,,false,,,,162997.39999961853,162997.39999961853,,162997.09999847412,,163001.36,8,400,,,
break_continue,html.Screen,4_9_2,2023-05-03T20:34:13.637Z,,0,,,NaN,,,,,,false,,,,162997.6999988556,162997.59999847412,,162997.5,,163001.36,8,400,,,
sequence,flow.Sequence,4_9,2023-05-03T20:34:13.637Z,,0,,,6188.680998474127,completion,,,,,false,,,,162997.6999988556,162997.59999847412,156801.067,156807.29999923706,156808.919,163001.36,8,400,,,
trial,html.Screen,4_10_0,2023-05-03T20:34:19.427Z,,0,1,,5786.539999618544,response,ISIC_0030484.JPG,,ISIC_6052702.JPG,ISIC_6052702.JPG,false,0,keypress(z),500,168788,168787.89999961853,162993.545,162997.79999923706,163001.36,168790.366,8,400,11,,ISIC_0030484.JPG
break,html.Screen,4_10_1,2023-05-03T20:34:19.428Z,,0,,,NaN,,,,,,false,,,,168788.6999988556,168788.5,,168788.1999988556,,168790.366,8,400,,,
break_continue,html.Screen,4_10_2,2023-05-03T20:34:19.428Z,,0,,,NaN,,,,,,false,,,,168789,168788.89999961853,,168788.79999923706,,168790.366,8,400,,,
sequence,flow.Sequence,4_10,2023-05-03T20:34:19.428Z,,0,,,5787.539999618544,completion,,,,,false,,,,168789.1999988556,168788.89999961853,162993.545,162997.6999988556,163001.36,168790.366,8,400,,,
trial,html.Screen,4_11_0,2023-05-03T20:34:22.351Z,,0,1,,2920.9339992370515,response,ISIC_0029283.JPG,,ISIC_0010380.JPG,ISIC_0029283.JPG,false,1,keypress(m),500,171711.39999961853,171711.29999923706,168782.536,168789.1999988556,168790.366,171720.253,8,400,12,,ISIC_0010380.JPG
break,html.Screen,4_11_1,2023-05-03T20:34:22.351Z,,0,,,NaN,,,,,,false,,,,171712,171711.79999923706,,171711.59999847412,,171720.253,8,400,,,
break_continue,html.Screen,4_11_2,2023-05-03T20:34:22.351Z,,0,,,NaN,,,,,,false,,,,171712.09999847412,171712,,171712,,171720.253,8,400,,,
sequence,flow.Sequence,4_11,2023-05-03T20:34:22.351Z,,0,,,2921.633999999991,completion,,,,,false,,,,171712.1999988556,171712,168782.536,168789.1999988556,168790.366,171720.253,8,400,,,
trial,html.Screen,4_12_0,2023-05-03T20:34:26.097Z,,0,1,,3737.6469996185333,response,ISIC_7246852.JPG,,ISIC_0070074.JPG,ISIC_7246852.JPG,false,1,keypress(m),500,175458.09999847412,175457.89999961853,171711.771,171712.1999988556,171720.253,175462.959,8,400,13,,ISIC_0070074.JPG
break,html.Screen,4_12_1,2023-05-03T20:34:26.098Z,,0,,,NaN,,,,,,false,,,,175458.59999847412,175458.5,,175458.1999988556,,175462.959,8,400,,,
break_continue,html.Screen,4_12_2,2023-05-03T20:34:26.098Z,,0,,,NaN,,,,,,false,,,,175458.79999923706,175458.6999988556,,175458.6999988556,,175462.959,8,400,,,
sequence,flow.Sequence,4_12,2023-05-03T20:34:26.098Z,,0,,,3738.446998855594,completion,,,,,false,,,,175458.79999923706,175458.6999988556,171711.771,171712.1999988556,171720.253,175462.959,8,400,,,
trial,html.Screen,4_13_0,2023-05-03T20:34:29.417Z,,0,1,,3314.9409996185277,response,ISIC_7601403.JPG,,ISIC_7147713.JPG,ISIC_7147713.JPG,false,0,keypress(z),500,178778,178777.89999961853,175455.175,175458.89999961853,175462.959,178781.819,8,400,14,,ISIC_7601403.JPG
break,html.Screen,4_13_1,2023-05-03T20:34:29.417Z,,0,,,NaN,,,,,,false,,,,178778.39999961853,178778.1999988556,,178778,,178781.819,8,400,,,
break_continue,html.Screen,4_13_2,2023-05-03T20:34:29.418Z,,0,,,NaN,,,,,,false,,,,178778.5,178778.39999961853,,178778.39999961853,,178781.819,8,400,,,
sequence,flow.Sequence,4_13,2023-05-03T20:34:29.418Z,,0,,,3315.4409996185277,completion,,,,,false,,,,178778.59999847412,178778.39999961853,175455.175,175458.79999923706,175462.959,178781.819,8,400,,,
trial,html.Screen,4_14_0,2023-05-03T20:34:32.254Z,,0,1,,2832.6810000000114,response,ISIC_8578732.JPG,,ISIC_0028024.JPG,ISIC_8578732.JPG,false,1,keypress(m),500,181614.59999847412,181614.5,178773.962,178778.59999847412,178781.819,181620.636,8,400,15,,ISIC_0028024.JPG
break,html.Screen,4_14_1,2023-05-03T20:34:32.254Z,,0,,,NaN,,,,,,false,,,,181614.89999961853,181614.89999961853,,181614.59999847412,,181620.636,8,400,,,
break_continue,html.Screen,4_14_2,2023-05-03T20:34:32.254Z,,0,,,NaN,,,,,,false,,,,181615.09999847412,181615,,181615,,181620.636,8,400,,,
sequence,flow.Sequence,4_14,2023-05-03T20:34:32.254Z,,0,,,2833.1810000000114,completion,,,,,false,,,,181615.1999988556,181615,178773.962,178778.59999847412,178781.819,181620.636,8,400,,,
trial,html.Screen,4_15_0,2023-05-03T20:34:35.391Z,,0,1,,3131.3640000000014,response,ISIC_0150363.JPG,,ISIC_0032226.JPG,ISIC_0150363.JPG,false,1,keypress(m),500,184752.1999988556,184752,181612.872,181615.29999923706,181620.636,184758.729,8,400,16,,ISIC_0032226.JPG
break,html.Screen,4_15_1,2023-05-03T20:34:35.393Z,,0,,,NaN,,,,,,false,,,,184753.39999961853,184753.09999847412,,184752.39999961853,,184758.729,8,400,,,
break_continue,html.Screen,4_15_2,2023-05-03T20:34:35.393Z,,0,,,NaN,,,,,,false,,,,184753.79999923706,184753.6999988556,,184753.59999847412,,184758.729,8,400,,,
sequence,flow.Sequence,4_15,2023-05-03T20:34:35.393Z,,0,,,3133.063998855592,completion,,,,,false,,,,184754.09999847412,184753.6999988556,181612.872,181615.29999923706,181620.636,184758.729,8,400,,,
trial,html.Screen,4_16_0,2023-05-03T20:34:38.540Z,,0,1,,3141.771000000008,response,ISIC_0031233.JPG,,ISIC_0032413.JPG,ISIC_0032413.JPG,false,0,keypress(z),500,187900.59999847412,187900.5,184750.756,184754.29999923706,184758.729,187903.639,8,400,17,,ISIC_0031233.JPG
break,html.Screen,4_16_1,2023-05-03T20:34:38.540Z,,0,,,NaN,,,,,,false,,,,187901.29999923706,187901.09999847412,,187900.79999923706,,187903.639,8,400,,,
break_continue,html.Screen,4_16_2,2023-05-03T20:34:38.541Z,,0,,,NaN,,,,,,false,,,,187901.5,187901.5,,187901.29999923706,,187903.639,8,400,,,
sequence,flow.Sequence,4_16,2023-05-03T20:34:38.541Z,,0,,,3142.771000000008,completion,,,,,false,,,,187901.6999988556,187901.5,184750.756,184754.1999988556,184758.729,187903.639,8,400,,,
trial,html.Screen,4_17_0,2023-05-03T20:34:43.790Z,,0,1,,5246.760999618535,response,ISIC_0028328.JPG,,ISIC_2333274.JPG,ISIC_0028328.JPG,false,1,keypress(m),500,193150.59999847412,193150.39999961853,187895.804,187901.6999988556,187903.639,193156.849,8,400,18,,ISIC_2333274.JPG
break,html.Screen,4_17_1,2023-05-03T20:34:43.790Z,,0,,,NaN,,,,,,false,,,,193151,193150.89999961853,,193150.59999847412,,193156.849,8,400,,,
break_continue,html.Screen,4_17_2,2023-05-03T20:34:43.790Z,,0,,,NaN,,,,,,false,,,,193151.1999988556,193151.1999988556,,193151,,193156.849,8,400,,,
sequence,flow.Sequence,4_17,2023-05-03T20:34:43.790Z,,0,,,5247.560998855595,completion,,,,,false,,,,193151.29999923706,193151.1999988556,187895.804,187901.6999988556,187903.639,193156.849,8,400,,,
trial,html.Screen,4_18_0,2023-05-03T20:34:47.632Z,,0,1,,3835.8509988556034,response,ISIC_2162728.JPG,,ISIC_0024987.JPG,ISIC_2162728.JPG,false,1,keypress(m),500,196992.79999923706,196992.6999988556,193149.446,193151.39999961853,193156.849,196997.517,8,400,19,,ISIC_0024987.JPG
break,html.Screen,4_18_1,2023-05-03T20:34:47.632Z,,0,,,NaN,,,,,,false,,,,196993.09999847412,196993.09999847412,,196992.79999923706,,196997.517,8,400,,,
break_continue,html.Screen,4_18_2,2023-05-03T20:34:47.632Z,,0,,,NaN,,,,,,false,,,,196993.39999961853,196993.39999961853,,196993.29999923706,,196997.517,8,400,,,
sequence,flow.Sequence,4_18,2023-05-03T20:34:47.633Z,,0,,,3836.550999618543,completion,,,,,false,,,,196993.39999961853,196993.39999961853,193149.446,193151.39999961853,193156.849,196997.517,8,400,,,
trial,html.Screen,4_19_0,2023-05-03T20:34:52.194Z,,0,1,,4556.882999618538,response,ISIC_0014974.JPG,,ISIC_1681964.JPG,ISIC_1681964.JPG,false,0,keypress(z),500,201554.5,201554.39999961853,196989.744,196993.5,196997.517,201561.936,8,400,20,,ISIC_0014974.JPG
break,html.Screen,4_19_1,2023-05-03T20:34:52.194Z,,0,,,NaN,,,,,,false,,,,201554.89999961853,201554.89999961853,,201554.59999847412,,201561.936,8,400,,,
break_continue,html.Screen,4_19_2,2023-05-03T20:34:52.194Z,,0,,,NaN,,,,,,false,,,,201555.1999988556,201555.1999988556,,201555.09999847412,,201561.936,8,400,,,
sequence,flow.Sequence,4_19,2023-05-03T20:34:52.194Z,,0,,,4557.682998855598,completion,,,,,false,,,,201555.29999923706,201555.1999988556,196989.744,196993.5,196997.517,201561.936,8,400,,,
trial,html.Screen,4_20_0,2023-05-03T20:34:55.121Z,,0,1,,2919.8639992370736,response,ISIC_1292607.JPG,,ISIC_0033586.JPG,ISIC_1292607.JPG,false,1,keypress(m),500,204482,204481.79999923706,201554.107,201555.5,201561.936,204484.247,8,400,21,,ISIC_0033586.JPG
break,html.Screen,4_20_1,2023-05-03T20:34:55.122Z,,0,,,NaN,,,,,,false,,,,204482.5,204482.5,,204482.09999847412,,204484.247,8,400,,,
break_continue,html.Screen,4_20_2,2023-05-03T20:34:55.122Z,,0,,,NaN,,,,,,false,,,,204482.79999923706,204482.6999988556,,204482.59999847412,,204484.247,8,400,,,
sequence,flow.Sequence,4_20,2023-05-03T20:34:55.122Z,,0,,,2920.763998855604,completion,,,,,false,,,,204483,204482.6999988556,201554.107,201555.39999961853,201561.936,204484.247,8,400,,,
trial,html.Screen,4_21_0,2023-05-03T20:35:00.797Z,,0,1,,5673.852998474118,response,ISIC_0033512.JPG,,ISIC_0071492.JPG,ISIC_0071492.JPG,false,0,keypress(z),500,210158.29999923706,210158.09999847412,204476.377,204483.09999847412,204484.247,210161.819,8,400,22,,ISIC_0033512.JPG
break,html.Screen,4_21_1,2023-05-03T20:35:00.798Z,,0,,,NaN,,,,,,false,,,,210158.79999923706,210158.59999847412,,210158.39999961853,,210161.819,8,400,,,
break_continue,html.Screen,4_21_2,2023-05-03T20:35:00.798Z,,0,,,NaN,,,,,,false,,,,210158.89999961853,210158.89999961853,,210158.79999923706,,210161.819,8,400,,,
sequence,flow.Sequence,4_21,2023-05-03T20:35:00.798Z,,0,,,5674.652999618527,completion,,,,,false,,,,210159,210158.89999961853,204476.377,204483,204484.247,210161.819,8,400,,,
trial,html.Screen,4_22_0,2023-05-03T20:35:07.814Z,,0,1,,7013.181000000011,response,ISIC_2266715.JPG,,ISIC_9382494.JPG,ISIC_2266715.JPG,false,1,keypress(m),500,217175.29999923706,217175,210154.01,210159,210161.819,217182.389,8,400,23,,ISIC_9382494.JPG
break,html.Screen,4_22_1,2023-05-03T20:35:07.815Z,,0,,,NaN,,,,,,false,,,,217176.09999847412,217175.79999923706,,217175.39999961853,,217182.389,8,400,,,
break_continue,html.Screen,4_22_2,2023-05-03T20:35:07.816Z,,0,,,NaN,,,,,,false,,,,217176.5,217176.39999961853,,217176.1999988556,,217182.389,8,400,,,
sequence,flow.Sequence,4_22,2023-05-03T20:35:07.816Z,,0,,,7014.580999618542,completion,,,,,false,,,,217176.6999988556,217176.39999961853,210154.01,210159,210161.819,217182.389,8,400,,,
trial,html.Screen,4_23_0,2023-05-03T20:35:12.072Z,,0,1,,4250.2109984741255,response,ISIC_5309572.JPG,,ISIC_5568834.JPG,ISIC_5568834.JPG,false,0,keypress(z),500,221432.6999988556,221432.59999847412,217174.502,217176.79999923706,217182.389,221441.396,8,400,24,,ISIC_5309572.JPG
break,html.Screen,4_23_1,2023-05-03T20:35:12.072Z,,0,,,NaN,,,,,,false,,,,221433.1999988556,221433.09999847412,,221432.79999923706,,221441.396,8,400,,,
break_continue,html.Screen,4_23_2,2023-05-03T20:35:12.072Z,,0,,,NaN,,,,,,false,,,,221433.29999923706,221433.29999923706,,221433.29999923706,,221441.396,8,400,,,
sequence,flow.Sequence,4_23,2023-05-03T20:35:12.072Z,,0,,,4250.910999237065,completion,,,,,false,,,,221433.29999923706,221433.29999923706,217174.502,217176.79999923706,217182.389,221441.396,8,400,,,
trial,html.Screen,4_24_0,2023-05-03T20:35:14.988Z,,0,1,,2907.803998855583,response,ISIC_0030995.JPG,,ISIC_0024315.JPG,ISIC_0030995.JPG,false,1,keypress(m),500,224349.39999961853,224349.1999988556,221432.696,221433.39999961853,221441.396,224355.893,8,400,25,,ISIC_0024315.JPG
break,html.Screen,4_24_1,2023-05-03T20:35:14.989Z,,0,,,NaN,,,,,,false,,,,224349.79999923706,224349.59999847412,,224349.5,,224355.893,8,400,,,
break_continue,html.Screen,4_24_2,2023-05-03T20:35:14.989Z,,0,,,NaN,,,,,,false,,,,224349.89999961853,224349.79999923706,,224349.79999923706,,224355.893,8,400,,,
sequence,flow.Sequence,4_24,2023-05-03T20:35:14.989Z,,0,,,2908.4039992370526,completion,,,,,false,,,,224350,224349.79999923706,221432.696,221433.39999961853,221441.396,224355.893,8,400,,,
trial,html.Screen,4_25_0,2023-05-03T20:35:18.096Z,,0,1,,3101.30699885558,response,ISIC_0034313.JPG,,ISIC_8885809.JPG,ISIC_8885809.JPG,false,0,keypress(z),500,227457.1999988556,227457.1999988556,224348.048,224350,224355.893,227459.122,8,400,26,,ISIC_0034313.JPG
break,html.Screen,4_25_1,2023-05-03T20:35:18.097Z,,0,,,NaN,,,,,,false,,,,227457.6999988556,227457.59999847412,,227457.39999961853,,227459.122,8,400,,,
break_continue,html.Screen,4_25_2,2023-05-03T20:35:18.097Z,,0,,,NaN,,,,,,false,,,,227457.89999961853,227457.89999961853,,227457.79999923706,,227459.122,8,400,,,
sequence,flow.Sequence,4_25,2023-05-03T20:35:18.097Z,,0,,,3102.0069996185193,completion,,,,,false,,,,227457.89999961853,227457.89999961853,224348.048,224350,224355.893,227459.122,8,400,,,
trial,html.Screen,4_26_0,2023-05-03T20:35:21.403Z,,0,1,,3304.577998855588,response,ISIC_6460137.JPG,,ISIC_0046323.JPG,ISIC_0046323.JPG,false,0,keypress(z),500,230763.79999923706,230763.6999988556,227451.241,227458,227459.122,230771.082,8,400,27,,ISIC_6460137.JPG
break,html.Screen,4_26_1,2023-05-03T20:35:21.404Z,,0,,,NaN,,,,,,false,,,,230764.79999923706,230764.5,,230764,,230771.082,8,400,,,
break_continue,html.Screen,4_26_2,2023-05-03T20:35:21.404Z,,0,,,NaN,,,,,,false,,,,230765.29999923706,230765.09999847412,,230765,,230771.082,8,400,,,
sequence,flow.Sequence,4_26,2023-05-03T20:35:21.405Z,,0,,,3305.977998474118,completion,,,,,false,,,,230765.6999988556,230765.09999847412,227451.241,227458,227459.122,230771.082,8,400,,,
trial,html.Screen,4_27_0,2023-05-03T20:35:24.855Z,,0,1,,3444.3179996185354,response,ISIC_8257549.JPG,,ISIC_0331124.JPG,ISIC_8257549.JPG,false,1,keypress(m),500,234215.6999988556,234215.39999961853,230763.204,230765.79999923706,230771.082,234222.22,8,400,28,,ISIC_0331124.JPG
break,html.Screen,4_27_1,2023-05-03T20:35:24.855Z,,0,,,NaN,,,,,,false,,,,234216.1999988556,234216.09999847412,,234215.79999923706,,234222.22,8,400,,,
break_continue,html.Screen,4_27_2,2023-05-03T20:35:24.855Z,,0,,,NaN,,,,,,false,,,,234216.29999923706,234216.29999923706,,234216.29999923706,,234222.22,8,400,,,
sequence,flow.Sequence,4_27,2023-05-03T20:35:24.856Z,,0,,,3445.2179992370657,completion,,,,,false,,,,234216.39999961853,234216.29999923706,230763.204,230765.79999923706,230771.082,234222.22,8,400,,,
trial,html.Screen,4_28_0,2023-05-03T20:35:28.297Z,,0,1,,3435.5799992370594,response,ISIC_5576354.JPG,,ISIC_0004482.JPG,ISIC_0004482.JPG,false,0,keypress(z),500,237657.89999961853,237657.79999923706,234214.324,234216.5,234222.22,237659.325,8,400,29,,ISIC_5576354.JPG
break,html.Screen,4_28_1,2023-05-03T20:35:28.297Z,,0,,,NaN,,,,,,false,,,,237658.29999923706,237658.1999988556,,237657.89999961853,,237659.325,8,400,,,
break_continue,html.Screen,4_28_2,2023-05-03T20:35:28.298Z,,0,,,NaN,,,,,,false,,,,237658.39999961853,237658.39999961853,,237658.39999961853,,237659.325,8,400,,,
sequence,flow.Sequence,4_28,2023-05-03T20:35:28.298Z,,0,,,3436.179999618529,completion,,,,,false,,,,237658.59999847412,237658.39999961853,234214.324,234216.5,234222.22,237659.325,8,400,,,
trial,html.Screen,4_29_0,2023-05-03T20:35:31.318Z,,0,1,,3019.7749984741095,response,ISIC_5065245.JPG,,ISIC_0067485.JPG,ISIC_5065245.JPG,false,1,keypress(m),500,240679.29999923706,240679.09999847412,237651.517,237658.59999847412,237659.325,240686.058,8,400,30,,ISIC_0067485.JPG
break,html.Screen,4_29_1,2023-05-03T20:35:31.319Z,,0,,,NaN,,,,,,false,,,,240679.89999961853,240679.89999961853,,240679.39999961853,,240686.058,8,400,,,
break_continue,html.Screen,4_29_2,2023-05-03T20:35:31.319Z,,0,,,NaN,,,,,,false,,,,240680.1999988556,240680.09999847412,,240680,,240686.058,8,400,,,
sequence,flow.Sequence,4_29,2023-05-03T20:35:31.319Z,,0,,,3020.7749984741095,completion,,,,,false,,,,240680.29999923706,240680.09999847412,237651.517,237658.59999847412,237659.325,240686.058,8,400,,,
trial,html.Screen,4_30_0,2023-05-03T20:35:34.293Z,,0,1,,2967.8419996185403,response,ISIC_0027480.JPG,,ISIC_7621389.JPG,ISIC_7621389.JPG,false,0,keypress(z),500,243654,243653.89999961853,240678.195,240680.29999923706,240686.058,243657.059,8,400,31,,ISIC_0027480.JPG
break,html.Screen,4_30_1,2023-05-03T20:35:34.294Z,,0,,,NaN,,,,,,false,,,,243654.79999923706,243654.6999988556,,243654.1999988556,,243657.059,8,400,,,
break_continue,html.Screen,4_30_2,2023-05-03T20:35:34.294Z,,0,,,NaN,,,,,,false,,,,243655.09999847412,243655,,243654.89999961853,,243657.059,8,400,,,
sequence,flow.Sequence,4_30,2023-05-03T20:35:34.294Z,,0,,,2968.94200000001,completion,,,,,false,,,,243655.29999923706,243655,240678.195,240680.29999923706,240686.058,243657.059,8,400,,,
trial,html.Screen,4_31_0,2023-05-03T20:35:37.469Z,,0,1,,3172.5409984741127,response,ISIC_2133938.JPG,,ISIC_5938680.JPG,ISIC_5938680.JPG,false,0,keypress(z),500,246829.6999988556,246829.59999847412,243649.182,243655.29999923706,243657.059,246836.731,8,400,32,,ISIC_2133938.JPG
break,html.Screen,4_31_1,2023-05-03T20:35:37.469Z,,0,,,NaN,,,,,,false,,,,246830.29999923706,246830.09999847412,,246829.79999923706,,246836.731,8,400,,,
break_continue,html.Screen,4_31_2,2023-05-03T20:35:37.470Z,,0,,,NaN,,,,,,false,,,,246830.5,246830.39999961853,,246830.39999961853,,246836.731,8,400,,,
sequence,flow.Sequence,4_31,2023-05-03T20:35:37.470Z,,0,,,3173.340999618522,completion,,,,,false,,,,246830.59999847412,246830.39999961853,243649.182,243655.29999923706,243657.059,246836.731,8,400,,,
trial,html.Screen,4_32_0,2023-05-03T20:35:40.283Z,,0,1,,2806.7690000000002,response,ISIC_5659295.JPG,,ISIC_0064120.JPG,ISIC_5659295.JPG,false,1,keypress(m),500,249643.59999847412,249643.5,246829.011,246830.6999988556,246836.731,249647.762,8,400,33,,ISIC_0064120.JPG
break,html.Screen,4_32_1,2023-05-03T20:35:40.283Z,,0,,,NaN,,,,,,false,,,,249644,249643.89999961853,,249643.59999847412,,249647.762,8,400,,,
break_continue,html.Screen,4_32_2,2023-05-03T20:35:40.283Z,,0,,,NaN,,,,,,false,,,,249644.09999847412,249644.09999847412,,249644,,249647.762,8,400,,,
sequence,flow.Sequence,4_32,2023-05-03T20:35:40.283Z,,0,,,2807.3689984741213,completion,,,,,false,,,,249644.1999988556,249644.09999847412,246829.011,246830.6999988556,246836.731,249647.762,8,400,,,
trial,html.Screen,4_33_0,2023-05-03T20:35:46.006Z,,0,1,,5718.837998474133,response,ISIC_4597707.JPG,,ISIC_9196033.JPG,ISIC_9196033.JPG,false,0,keypress(z),500,255366.6999988556,255366.59999847412,249639.935,249644.1999988556,249647.762,255374.455,8,400,34,,ISIC_4597707.JPG
break,html.Screen,4_33_1,2023-05-03T20:35:46.006Z,,0,,,NaN,,,,,,false,,,,255367.09999847412,255367,,255366.6999988556,,255374.455,8,400,,,
break_continue,html.Screen,4_33_2,2023-05-03T20:35:46.006Z,,0,,,NaN,,,,,,false,,,,255367.39999961853,255367.29999923706,,255367.1999988556,,255374.455,8,400,,,
sequence,flow.Sequence,4_33,2023-05-03T20:35:46.007Z,,0,,,5719.537999237073,completion,,,,,false,,,,255367.59999847412,255367.29999923706,249639.935,249644.1999988556,249647.762,255374.455,8,400,,,
trial,html.Screen,4_34_0,2023-05-03T20:35:49.051Z,,0,1,,3037.3449992370734,response,ISIC_0029513.JPG,,ISIC_7278885.JPG,ISIC_7278885.JPG,false,0,keypress(z),500,258411.89999961853,258411.79999923706,255366.319,255367.6999988556,255374.455,258414.726,8,400,35,,ISIC_0029513.JPG
break,html.Screen,4_34_1,2023-05-03T20:35:49.052Z,,0,,,NaN,,,,,,false,,,,258412.5,258412.39999961853,,258412.09999847412,,258414.726,8,400,,,
break_continue,html.Screen,4_34_2,2023-05-03T20:35:49.052Z,,0,,,NaN,,,,,,false,,,,258412.79999923706,258412.6999988556,,258412.59999847412,,258414.726,8,400,,,
sequence,flow.Sequence,4_34,2023-05-03T20:35:49.052Z,,0,,,3038.2449988556036,completion,,,,,false,,,,258412.89999961853,258412.6999988556,255366.319,255367.6999988556,255374.455,258414.726,8,400,,,
trial,html.Screen,4_35_0,2023-05-03T20:35:52.890Z,,0,1,,3835.774000000005,response,ISIC_9324486.JPG,,ISIC_0034049.JPG,ISIC_9324486.JPG,false,1,keypress(m),500,262250.89999961853,262250.5,258406.823,258413,258414.726,262255.464,8,400,36,,ISIC_0034049.JPG
break,html.Screen,4_35_1,2023-05-03T20:35:52.891Z,,0,,,NaN,,,,,,false,,,,262251.79999923706,262251.5,,262251.0999984741,,262255.464,8,400,,,
break_continue,html.Screen,4_35_2,2023-05-03T20:35:52.891Z,,0,,,NaN,,,,,,false,,,,262252.0999984741,262252.0999984741,,262251.89999961853,,262255.464,8,400,,,
sequence,flow.Sequence,4_35,2023-05-03T20:35:52.891Z,,0,,,3837.373998474126,completion,,,,,false,,,,262252.29999923706,262252.0999984741,258406.823,258413,258414.726,262255.464,8,400,,,
trial,html.Screen,4_36_0,2023-05-03T20:35:55.873Z,,0,1,,2978.135998474143,response,ISIC_0014973.JPG,,ISIC_1067985.JPG,ISIC_1067985.JPG,false,0,keypress(z),500,265233.6999988556,265233.5999984741,262247.566,262252.5,262255.464,265240.346,8,400,37,,ISIC_0014973.JPG
break,html.Screen,4_36_1,2023-05-03T20:35:55.873Z,,0,,,NaN,,,,,,false,,,,265234.1999988556,265234.0999984741,,265233.79999923706,,265240.346,8,400,,,
break_continue,html.Screen,4_36_2,2023-05-03T20:35:55.873Z,,0,,,NaN,,,,,,false,,,,265234.29999923706,265234.29999923706,,265234.1999988556,,265240.346,8,400,,,
sequence,flow.Sequence,4_36,2023-05-03T20:35:55.874Z,,0,,,2978.8359992370824,completion,,,,,false,,,,265234.39999961853,265234.29999923706,262247.566,262252.39999961853,262255.464,265240.346,8,400,,,
trial,html.Screen,4_37_0,2023-05-03T20:35:59.500Z,,0,1,,3619.953999237041,response,ISIC_0056689.JPG,,ISIC_1350519.JPG,ISIC_0056689.JPG,false,1,keypress(m),500,268860.5,268860.29999923706,265232.519,265234.5,265240.346,268865.367,8,400,38,,ISIC_1350519.JPG
break,html.Screen,4_37_1,2023-05-03T20:35:59.500Z,,0,,,NaN,,,,,,false,,,,268861.0999984741,268860.89999961853,,268860.5999984741,,268865.367,8,400,,,
break_continue,html.Screen,4_37_2,2023-05-03T20:35:59.500Z,,0,,,NaN,,,,,,false,,,,268861.29999923706,268861.29999923706,,268861.1999988556,,268865.367,8,400,,,
sequence,flow.Sequence,4_37,2023-05-03T20:35:59.501Z,,0,,,3620.953999237041,completion,,,,,false,,,,268861.5,268861.29999923706,265232.519,265234.5,265240.346,268865.367,8,400,,,
trial,html.Screen,4_38_0,2023-05-03T20:36:02.239Z,,0,1,,2734.432999237033,response,ISIC_0535416.JPG,,ISIC_0000848.JPG,ISIC_0000848.JPG,false,0,keypress(z),500,271599.89999961853,271599.79999923706,268857.568,268861.5999984741,268865.367,271606.797,8,400,39,,ISIC_0535416.JPG
break,html.Screen,4_38_1,2023-05-03T20:36:02.239Z,,0,,,NaN,,,,,,false,,,,271600.39999961853,271600.1999988556,,271600,,271606.797,8,400,,,
break_continue,html.Screen,4_38_2,2023-05-03T20:36:02.240Z,,0,,,NaN,,,,,,false,,,,271600.6999988556,271600.5999984741,,271600.5,,271606.797,8,400,,,
sequence,flow.Sequence,4_38,2023-05-03T20:36:02.240Z,,0,,,2735.2329984740936,completion,,,,,false,,,,271600.79999923706,271600.5999984741,268857.568,268861.5,268865.367,271606.797,8,400,,,
trial,html.Screen,4_39_0,2023-05-03T20:36:06.382Z,,0,1,,4136.302998474101,response,ISIC_9906799.JPG,,ISIC_0025970.JPG,ISIC_0025970.JPG,false,0,keypress(z),500,275743.1999988556,275743.0999984741,271598.916,271600.89999961853,271606.797,275746.787,8,400,40,,ISIC_9906799.JPG
break,html.Screen,4_39_1,2023-05-03T20:36:06.383Z,,0,,,NaN,,,,,,false,,,,275743.5,275743.5,,275743.29999923706,,275746.787,8,400,,,
break_continue,html.Screen,4_39_2,2023-05-03T20:36:06.383Z,,0,,,NaN,,,,,,false,,,,275743.6999988556,275743.6999988556,,275743.5999984741,,275746.787,8,400,,,
sequence,flow.Sequence,4_39,2023-05-03T20:36:06.383Z,,0,,,4136.90299885557,completion,,,,,false,,,,275743.79999923706,275743.6999988556,271598.916,271600.89999961853,271606.797,275746.787,8,400,,,
trial,html.Screen,4_40_0,2023-05-03T20:36:09.361Z,,0,1,,2975.112999618519,response,ISIC_0055143.JPG,,ISIC_6634951.JPG,ISIC_6634951.JPG,false,0,keypress(z),500,278722,278721.89999961853,275738.862,275743.79999923706,275746.787,278724.721,8,400,41,,ISIC_0055143.JPG
break,html.Screen,4_40_1,2023-05-03T20:36:09.362Z,,0,,,NaN,,,,,,false,,,,278722.39999961853,278722.29999923706,,278722.0999984741,,278724.721,8,400,,,
break_continue,html.Screen,4_40_2,2023-05-03T20:36:09.362Z,,0,,,NaN,,,,,,false,,,,278722.6999988556,278722.5999984741,,278722.5,,278724.721,8,400,,,
sequence,flow.Sequence,4_40,2023-05-03T20:36:09.362Z,,0,,,2975.81299847411,completion,,,,,false,,,,278722.6999988556,278722.5999984741,275738.862,275743.79999923706,275746.787,278724.721,8,400,,,
trial,html.Screen,4_41_0,2023-05-03T20:36:12.315Z,,0,1,,2950.7789999999804,response,ISIC_2664946.JPG,,ISIC_2948811.JPG,ISIC_2664946.JPG,false,1,keypress(m),500,281675.5999984741,281675.5,278716.861,278722.6999988556,278724.721,281681.791,8,400,42,,ISIC_2948811.JPG
break,html.Screen,4_41_1,2023-05-03T20:36:12.315Z,,0,,,NaN,,,,,,false,,,,281676,281675.89999961853,,281675.5999984741,,281681.791,8,400,,,
break_continue,html.Screen,4_41_2,2023-05-03T20:36:12.315Z,,0,,,NaN,,,,,,false,,,,281676.0999984741,281676.0999984741,,281676,,281681.791,8,400,,,
sequence,flow.Sequence,4_41,2023-05-03T20:36:12.315Z,,0,,,2951.3789984741015,completion,,,,,false,,,,281676.1999988556,281676.0999984741,278716.861,278722.6999988556,278724.721,281681.791,8,400,,,
trial,html.Screen,4_42_0,2023-05-03T20:36:15.267Z,,0,1,,2946.4089988555643,response,ISIC_0028135.JPG,,ISIC_0012057.JPG,ISIC_0028135.JPG,false,1,keypress(m),500,284628.39999961853,284628.1999988556,281673.992,281676.29999923706,281681.791,284631.907,8,400,43,,ISIC_0012057.JPG
break,html.Screen,4_42_1,2023-05-03T20:36:15.268Z,,0,,,NaN,,,,,,false,,,,284628.79999923706,284628.6999988556,,284628.39999961853,,284631.907,8,400,,,
break_continue,html.Screen,4_42_2,2023-05-03T20:36:15.268Z,,0,,,NaN,,,,,,false,,,,284628.89999961853,284628.79999923706,,284628.79999923706,,284631.907,8,400,,,
sequence,flow.Sequence,4_42,2023-05-03T20:36:15.268Z,,0,,,2947.008999237034,completion,,,,,false,,,,284629,284628.79999923706,281673.992,281676.29999923706,281681.791,284631.907,8,400,,,
trial,html.Screen,4_43_0,2023-05-03T20:36:18.113Z,,0,1,,2842.2929988555843,response,ISIC_8253317.JPG,,ISIC_0000154.JPG,ISIC_0000154.JPG,false,0,keypress(z),500,287474.39999961853,287474.1999988556,284624.067,284629,284631.907,287477.674,8,400,44,,ISIC_8253317.JPG
break,html.Screen,4_43_1,2023-05-03T20:36:18.114Z,,0,,,NaN,,,,,,false,,,,287474.79999923706,287474.6999988556,,287474.5,,287477.674,8,400,,,
break_continue,html.Screen,4_43_2,2023-05-03T20:36:18.114Z,,0,,,NaN,,,,,,false,,,,287474.89999961853,287474.79999923706,,287474.79999923706,,287477.674,8,400,,,
sequence,flow.Sequence,4_43,2023-05-03T20:36:18.114Z,,0,,,2842.892999237054,completion,,,,,false,,,,287475,287474.79999923706,284624.067,284629,284631.907,287477.674,8,400,,,
trial,html.Screen,4_44_0,2023-05-03T20:36:21.051Z,,0,1,,2933.6259992370615,response,ISIC_0032726.JPG,,ISIC_0012160.JPG,ISIC_0012160.JPG,false,0,keypress(z),500,290411.5,290411.29999923706,287469.871,287475,287477.674,290413.947,8,400,45,,ISIC_0032726.JPG
break,html.Screen,4_44_1,2023-05-03T20:36:21.051Z,,0,,,NaN,,,,,,false,,,,290411.79999923706,290411.79999923706,,290411.5,,290413.947,8,400,,,
break_continue,html.Screen,4_44_2,2023-05-03T20:36:21.051Z,,0,,,NaN,,,,,,false,,,,290412,290412,,290411.89999961853,,290413.947,8,400,,,
sequence,flow.Sequence,4_44,2023-05-03T20:36:21.051Z,,0,,,2934.326000000001,completion,,,,,false,,,,290412.0999984741,290412,287469.871,287475,287477.674,290413.947,8,400,,,
trial,html.Screen,4_45_0,2023-05-03T20:36:23.704Z,,0,1,,2651.0530000000144,response,ISIC_0034086.JPG,,ISIC_8791744.JPG,ISIC_8791744.JPG,false,0,keypress(z),500,293065.29999923706,293065,290406.107,290412.1999988556,290413.947,293071.872,8,400,46,,ISIC_0034086.JPG
break,html.Screen,4_45_1,2023-05-03T20:36:23.705Z,,0,,,NaN,,,,,,false,,,,293066.1999988556,293065.89999961853,,293065.5,,293071.872,8,400,,,
break_continue,html.Screen,4_45_2,2023-05-03T20:36:23.706Z,,0,,,NaN,,,,,,false,,,,293066.5999984741,293066.5,,293066.39999961853,,293071.872,8,400,,,
sequence,flow.Sequence,4_45,2023-05-03T20:36:23.706Z,,0,,,2652.5530000000144,completion,,,,,false,,,,293066.79999923706,293066.5,290406.107,290412.0999984741,290413.947,293071.872,8,400,,,
trial,html.Screen,4_46_0,2023-05-03T20:36:26.521Z,,0,1,,2810.128000000026,response,ISIC_0055917.JPG,,ISIC_0002347.JPG,ISIC_0002347.JPG,false,0,keypress(z),500,295882.1999988556,295882,293063.982,293067,293071.872,295889.822,8,400,47,,ISIC_0055917.JPG
break,html.Screen,4_46_1,2023-05-03T20:36:26.522Z,,0,,,NaN,,,,,,false,,,,295883,295882.6999988556,,295882.5,,295889.822,8,400,,,
break_continue,html.Screen,4_46_2,2023-05-03T20:36:26.523Z,,0,,,NaN,,,,,,false,,,,295883.39999961853,295883.29999923706,,295883.1999988556,,295889.822,8,400,,,
sequence,flow.Sequence,4_46,2023-05-03T20:36:26.523Z,,0,,,2811.4279992370866,completion,,,,,false,,,,295883.5999984741,295883.29999923706,293063.982,293067,293071.872,295889.822,8,400,,,
trial,html.Screen,4_47_0,2023-05-03T20:36:29.852Z,,0,1,,3322.5779996185447,response,ISIC_0027498.JPG,,ISIC_0588322.JPG,ISIC_0588322.JPG,false,0,keypress(z),500,299212.6999988556,299212.39999961853,295881.978,295883.6999988556,295889.822,299229.61,8,400,48,,ISIC_0027498.JPG
break,html.Screen,4_47_1,2023-05-03T20:36:29.853Z,,0,,,NaN,,,,,,false,,,,299213.6999988556,299213.5,,299212.79999923706,,299229.61,8,400,,,
break_continue,html.Screen,4_47_2,2023-05-03T20:36:29.853Z,,0,,,NaN,,,,,,false,,,,299214.0999984741,299214,,299213.89999961853,,299229.61,8,400,,,
sequence,flow.Sequence,4_47,2023-05-03T20:36:29.853Z,,0,,,3324.1780000000144,completion,,,,,false,,,,299214.39999961853,299214,295881.978,295883.5999984741,295889.822,299229.61,8,400,,,
trial,html.Screen,4_48_0,2023-05-03T20:36:32.954Z,,0,1,,3084.7899996185442,response,ISIC_7424320.JPG,,ISIC_0029591.JPG,ISIC_7424320.JPG,false,1,keypress(m),500,302314.5,302314.39999961853,299223.217,299214.5999984741,299229.61,302318.799,8,400,49,,ISIC_0029591.JPG
break,html.Screen,4_48_1,2023-05-03T20:36:32.954Z,,0,,,NaN,,,,,,false,,,,302314.89999961853,302314.89999961853,,302314.5999984741,,302318.799,8,400,,,
break_continue,html.Screen,4_48_2,2023-05-03T20:36:32.954Z,,0,,,NaN,,,,,,false,,,,302315.0999984741,302315,,302314.89999961853,,302318.799,8,400,,,
sequence,flow.Sequence,4_48,2023-05-03T20:36:32.954Z,,0,,,3085.390000000014,completion,,,,,false,,,,302315.0999984741,302315,299223.217,299214.5,299229.61,302318.799,8,400,,,
trial,html.Screen,4_49_0,2023-05-03T20:36:35.765Z,,0,1,,2806.701000000001,response,ISIC_6577632.JPG,,ISIC_0000398.JPG,ISIC_6577632.JPG,false,1,keypress(m),500,305125.6999988556,305125.5,302311.043,302315.1999988556,302318.799,305129.817,8,400,50,,ISIC_0000398.JPG
break,html.Screen,4_49_1,2023-05-03T20:36:40.765Z,,0,,,5002.735000000044,timeout,,,,,false,,,,310126.0999984741,310125.564,305121.962,305125.89999961853,305129.817,310132.552,8,400,,,
break_continue,html.Screen,4_49_2,2023-05-03T20:36:41.967Z,,0,,,1183.3479996185051,response,,,,,false,continue,keypress(Space),,311327.5999984741,311315.89999961853,310125.564,310126.0999984741,310132.552,311336.443,8,400,,,
sequence,flow.Sequence,4_49,2023-05-03T20:36:41.967Z,,0,,,8997.100999618531,completion,,,,,false,,,,311327.89999961853,311315.89999961853,302311.043,302315.0999984741,302318.799,311336.443,8,400,,,
trial,html.Screen,4_50_0,2023-05-03T20:36:45.463Z,,0,2,,3487.6569984740927,response,ISIC_0067120.JPG,,ISIC_0033470.JPG,ISIC_0033470.JPG,false,0,keypress(z),500,314824.29999923706,314824.0999984741,311327.113,311328,311336.443,314829.076,8,400,1,,ISIC_0067120.JPG
break,html.Screen,4_50_1,2023-05-03T20:36:45.464Z,,0,,,NaN,,,,,,false,,,,314824.89999961853,314824.79999923706,,314824.39999961853,,314829.076,8,400,,,
break_continue,html.Screen,4_50_2,2023-05-03T20:36:45.464Z,,0,,,NaN,,,,,,false,,,,314825.1999988556,314825.0999984741,,314825,,314829.076,8,400,,,
sequence,flow.Sequence,4_50,2023-05-03T20:36:45.464Z,,0,,,3488.6569984740927,completion,,,,,false,,,,314825.29999923706,314825.0999984741,311327.113,311328,311336.443,314829.076,8,400,,,
trial,html.Screen,4_51_0,2023-05-03T20:36:48.307Z,,0,2,,2839.02399847412,response,ISIC_3763984.JPG,,ISIC_5787517.JPG,ISIC_5787517.JPG,false,0,keypress(z),500,317668.1999988556,317668.0999984741,314821.204,314825.39999961853,314829.076,317674.842,8,400,2,,ISIC_3763984.JPG
break,html.Screen,4_51_1,2023-05-03T20:36:48.308Z,,0,,,NaN,,,,,,false,,,,317668.6999988556,317668.5999984741,,317668.39999961853,,317674.842,8,400,,,
break_continue,html.Screen,4_51_2,2023-05-03T20:36:48.308Z,,0,,,NaN,,,,,,false,,,,317668.79999923706,317668.79999923706,,317668.79999923706,,317674.842,8,400,,,
sequence,flow.Sequence,4_51,2023-05-03T20:36:48.308Z,,0,,,2839.7239992370596,completion,,,,,false,,,,317668.89999961853,317668.79999923706,314821.204,314825.39999961853,314829.076,317674.842,8,400,,,
trial,html.Screen,4_52_0,2023-05-03T20:37:49.492Z,,0,2,,61187.5,timeout,ISIC_0025343.JPG,,ISIC_0268187.JPG,,false,,,500,378853.39999961853,378853.0999984741,317667.01,317669.0999984741,317674.842,378862.342,8,400,3,,
break,html.Screen,4_52_1,2023-05-03T20:37:49.493Z,,0,,,NaN,,,,,,false,,,,378853.6999988556,378853.5999984741,,378853.39999961853,,378862.342,8,400,,,
break_continue,html.Screen,4_52_2,2023-05-03T20:37:49.493Z,,0,,,NaN,,,,,,false,,,,378853.79999923706,378853.79999923706,,378853.79999923706,,378862.342,8,400,,,
sequence,flow.Sequence,4_52,2023-05-03T20:37:49.493Z,,0,,,61178.957999237056,completion,,,,,false,,,,378853.89999961853,378853.79999923706,317667.01,317668.89999961853,317674.842,378862.342,8,400,,,
trial,html.Screen,4_53_0,2023-05-03T20:37:53.037Z,,0,2,,3534.8579988555866,response,ISIC_1818238.JPG,,ISIC_0024285.JPG,ISIC_0024285.JPG,false,0,keypress(z),500,382397.5,382397.1999988556,378855.381,378854,378862.342,382404.031,8,400,4,,ISIC_1818238.JPG
break,html.Screen,4_53_1,2023-05-03T20:37:53.038Z,,0,,,NaN,,,,,,false,,,,382398.79999923706,382398.5,,382397.79999923706,,382404.031,8,400,,,
break_continue,html.Screen,4_53_2,2023-05-03T20:37:53.038Z,,0,,,NaN,,,,,,false,,,,382399.29999923706,382399.1999988556,,382399,,382404.031,8,400,,,
sequence,flow.Sequence,4_53,2023-05-03T20:37:53.039Z,,0,,,3536.8579988555866,completion,,,,,false,,,,382399.6999988556,382399.1999988556,378855.381,378853.89999961853,378862.342,382404.031,8,400,,,
trial,html.Screen,4_54_0,2023-05-03T20:37:55.941Z,,0,2,,2897.4689999999828,response,ISIC_4943797.JPG,,ISIC_0056247.JPG,ISIC_4943797.JPG,false,1,keypress(m),500,385301.5999984741,385301.5,382396.151,382399.79999923706,382404.031,385305.404,8,400,5,,ISIC_0056247.JPG
break,html.Screen,4_54_1,2023-05-03T20:37:55.941Z,,0,,,NaN,,,,,,false,,,,385302.1999988556,385302.0999984741,,385301.79999923706,,385305.404,8,400,,,
break_continue,html.Screen,4_54_2,2023-05-03T20:37:55.942Z,,0,,,NaN,,,,,,false,,,,385302.5,385302.39999961853,,385302.29999923706,,385305.404,8,400,,,
sequence,flow.Sequence,4_54,2023-05-03T20:37:55.942Z,,0,,,2898.368999618513,completion,,,,,false,,,,385302.5999984741,385302.39999961853,382396.151,382399.79999923706,382404.031,385305.404,8,400,,,
trial,html.Screen,4_55_0,2023-05-03T20:38:02.032Z,,0,2,,6087.195998474141,response,ISIC_0013617.JPG,,ISIC_3478437.JPG,ISIC_0013617.JPG,false,1,keypress(m),500,391392.79999923706,391392.5999984741,385297.633,385302.6999988556,385305.404,391400.489,8,400,6,,ISIC_3478437.JPG
break,html.Screen,4_55_1,2023-05-03T20:38:02.032Z,,0,,,NaN,,,,,,false,,,,391393.39999961853,391393.29999923706,,391393,,391400.489,8,400,,,
break_continue,html.Screen,4_55_2,2023-05-03T20:38:02.033Z,,0,,,NaN,,,,,,false,,,,391393.6999988556,391393.5,,391393.5,,391400.489,8,400,,,
sequence,flow.Sequence,4_55,2023-05-03T20:38:02.033Z,,0,,,6088.09600000002,completion,,,,,false,,,,391393.6999988556,391393.5,385297.633,385302.5999984741,385305.404,391400.489,8,400,,,
trial,html.Screen,4_56_0,2023-05-03T20:38:04.608Z,,0,2,,2567.910999618529,response,ISIC_0024449.JPG,,ISIC_0647224.JPG,ISIC_0647224.JPG,false,0,keypress(z),500,393968.5999984741,393968.39999961853,391392.731,391393.89999961853,391400.489,393974.942,8,400,7,,ISIC_0024449.JPG
break,html.Screen,4_56_1,2023-05-03T20:38:04.609Z,,0,,,NaN,,,,,,false,,,,393969.6999988556,393969.39999961853,,393968.89999961853,,393974.942,8,400,,,
break_continue,html.Screen,4_56_2,2023-05-03T20:38:04.609Z,,0,,,NaN,,,,,,false,,,,393970,393969.89999961853,,393969.79999923706,,393974.942,8,400,,,
sequence,flow.Sequence,4_56,2023-05-03T20:38:04.609Z,,0,,,2569.410999618529,completion,,,,,false,,,,393970.29999923706,393969.89999961853,391392.731,391393.89999961853,391400.489,393974.942,8,400,,,
trial,html.Screen,4_57_0,2023-05-03T20:38:07.205Z,,0,2,,2590.558000000019,response,ISIC_0025748.JPG,,ISIC_0744870.JPG,ISIC_0744870.JPG,false,0,keypress(z),500,396565.89999961853,396565.5,393967.099,393970.39999961853,393974.942,396570.262,8,400,8,,ISIC_0025748.JPG
break,html.Screen,4_57_1,2023-05-03T20:38:07.206Z,,0,,,NaN,,,,,,false,,,,396567,396566.79999923706,,396566.1999988556,,396570.262,8,400,,,
break_continue,html.Screen,4_57_2,2023-05-03T20:38:07.207Z,,0,,,NaN,,,,,,false,,,,396567.5999984741,396567.5,,396567.29999923706,,396570.262,8,400,,,
sequence,flow.Sequence,4_57,2023-05-03T20:38:07.207Z,,0,,,2592.558000000019,completion,,,,,false,,,,396567.89999961853,396567.5,393967.099,393970.29999923706,393974.942,396570.262,8,400,,,
trial,html.Screen,4_58_0,2023-05-03T20:38:09.845Z,,0,2,,2635.0379992370727,response,ISIC_0027674.JPG,,ISIC_6806545.JPG,ISIC_6806545.JPG,false,0,keypress(z),500,399205.6999988556,399205.29999923706,396562.998,396568.0999984741,396570.262,399221.301,8,400,9,,ISIC_0027674.JPG
break,html.Screen,4_58_1,2023-05-03T20:38:09.846Z,,0,,,NaN,,,,,,false,,,,399206.89999961853,399206.5999984741,,399205.89999961853,,399221.301,8,400,,,
break_continue,html.Screen,4_58_2,2023-05-03T20:38:09.847Z,,0,,,NaN,,,,,,false,,,,399207.5,399207.29999923706,,399207.0999984741,,399221.301,8,400,,,
sequence,flow.Sequence,4_58,2023-05-03T20:38:09.847Z,,0,,,2637.0379992370727,completion,,,,,false,,,,399207.79999923706,399207.29999923706,396562.998,396568,396570.262,399221.301,8,400,,,
trial,html.Screen,4_59_0,2023-05-03T20:38:13.766Z,,0,2,,3905.7989984741434,response,ISIC_7897925.JPG,,ISIC_7210296.JPG,ISIC_7897925.JPG,false,1,keypress(m),500,403127.39999961853,403127.0999984741,399215.172,399208,399221.301,403131.535,8,400,10,,ISIC_7210296.JPG
break,html.Screen,4_59_1,2023-05-03T20:38:13.768Z,,0,,,NaN,,,,,,false,,,,403128.5,403128.1999988556,,403127.6999988556,,403131.535,8,400,,,
break_continue,html.Screen,4_59_2,2023-05-03T20:38:13.768Z,,0,,,NaN,,,,,,false,,,,403129.0999984741,403128.89999961853,,403128.6999988556,,403131.535,8,400,,,
sequence,flow.Sequence,4_59,2023-05-03T20:38:13.768Z,,0,,,3907.5989996185526,completion,,,,,false,,,,403129.39999961853,403128.89999961853,399215.172,399208,399221.301,403131.535,8,400,,,
trial,html.Screen,4_60_0,2023-05-03T20:38:17.587Z,,0,2,,3815.5649984741467,response,ISIC_0061454.JPG,,ISIC_0010433.JPG,ISIC_0061454.JPG,false,1,keypress(m),500,406947.39999961853,406947.0999984741,403123.666,403129.5999984741,403131.535,406951.436,8,400,11,,ISIC_0010433.JPG
break,html.Screen,4_60_1,2023-05-03T20:38:17.588Z,,0,,,NaN,,,,,,false,,,,406948.89999961853,406948.5,,406947.79999923706,,406951.436,8,400,,,
break_continue,html.Screen,4_60_2,2023-05-03T20:38:17.589Z,,0,,,NaN,,,,,,false,,,,406949.5,406949.29999923706,,406949.0999984741,,406951.436,8,400,,,
sequence,flow.Sequence,4_60,2023-05-03T20:38:17.589Z,,0,,,3817.764999237086,completion,,,,,false,,,,406949.79999923706,406949.29999923706,403123.666,403129.5999984741,403131.535,406951.436,8,400,,,
trial,html.Screen,4_61_0,2023-05-03T20:38:20.440Z,,0,2,,2849.564000000013,response,ISIC_0065807.JPG,,ISIC_0231745.JPG,ISIC_0231745.JPG,false,0,keypress(z),500,409801.0999984741,409801,406943.567,406950,406951.436,409804.063,8,400,12,,ISIC_0065807.JPG
break,html.Screen,4_61_1,2023-05-03T20:38:20.441Z,,0,,,NaN,,,,,,false,,,,409801.5999984741,409801.39999961853,,409801.1999988556,,409804.063,8,400,,,
break_continue,html.Screen,4_61_2,2023-05-03T20:38:20.441Z,,0,,,NaN,,,,,,false,,,,409801.6999988556,409801.6999988556,,409801.5999984741,,409804.063,8,400,,,
sequence,flow.Sequence,4_61,2023-05-03T20:38:20.441Z,,0,,,2850.263998855604,completion,,,,,false,,,,409802,409801.6999988556,406943.567,406949.89999961853,406951.436,409804.063,8,400,,,
trial,html.Screen,4_62_0,2023-05-03T20:38:26.039Z,,0,2,,5595.8369996185065,response,ISIC_8887039.JPG,,ISIC_4132082.JPG,ISIC_4132082.JPG,false,0,keypress(z),500,415400,415399.89999961853,409796.227,409802,409804.063,415405.137,8,400,13,,ISIC_8887039.JPG
break,html.Screen,4_62_1,2023-05-03T20:38:26.040Z,,0,,,NaN,,,,,,false,,,,415400.5999984741,415400.5,,415400.1999988556,,415405.137,8,400,,,
break_continue,html.Screen,4_62_2,2023-05-03T20:38:26.040Z,,0,,,NaN,,,,,,false,,,,415400.79999923706,415400.79999923706,,415400.5999984741,,415405.137,8,400,,,
sequence,flow.Sequence,4_62,2023-05-03T20:38:26.040Z,,0,,,5596.736999237037,completion,,,,,false,,,,415400.89999961853,415400.79999923706,409796.227,409802,409804.063,415405.137,8,400,,,
trial,html.Screen,4_63_0,2023-05-03T20:38:29.720Z,,0,2,,3675.6629992370727,response,ISIC_0067830.JPG,,ISIC_1104374.JPG,ISIC_0067830.JPG,false,1,keypress(m),500,419080.89999961853,419080.79999923706,415397.275,415401.0999984741,415405.137,419085.827,8,400,14,,ISIC_1104374.JPG
break,html.Screen,4_63_1,2023-05-03T20:38:29.721Z,,0,,,NaN,,,,,,false,,,,419081.5,419081.29999923706,,419081,,419085.827,8,400,,,
break_continue,html.Screen,4_63_2,2023-05-03T20:38:29.721Z,,0,,,NaN,,,,,,false,,,,419081.5999984741,419081.5999984741,,419081.5,,419085.827,8,400,,,
sequence,flow.Sequence,4_63,2023-05-03T20:38:29.721Z,,0,,,3676.462998474133,completion,,,,,false,,,,419081.6999988556,419081.5999984741,415397.275,415401,415405.137,419085.827,8,400,,,
trial,html.Screen,4_64_0,2023-05-03T20:38:32.452Z,,0,2,,2726.3729988556006,response,ISIC_0030970.JPG,,ISIC_0012988.JPG,ISIC_0012988.JPG,false,0,keypress(z),500,421812.39999961853,421812.1999988556,419078.03,419081.79999923706,419085.827,421820.382,8,400,15,,ISIC_0030970.JPG
break,html.Screen,4_64_1,2023-05-03T20:38:32.453Z,,0,,,NaN,,,,,,false,,,,421813.79999923706,421813.39999961853,,421812.79999923706,,421820.382,8,400,,,
break_continue,html.Screen,4_64_2,2023-05-03T20:38:32.453Z,,0,,,NaN,,,,,,false,,,,421814.29999923706,421814.0999984741,,421813.89999961853,,421820.382,8,400,,,
sequence,flow.Sequence,4_64,2023-05-03T20:38:32.454Z,,0,,,2728.272998474131,completion,,,,,false,,,,421814.5999984741,421814.0999984741,419078.03,419081.79999923706,419085.827,421820.382,8,400,,,
trial,html.Screen,4_65_0,2023-05-03T20:38:35.918Z,,0,2,,3458.4179992370773,response,ISIC_0029630.JPG,,ISIC_0059769.JPG,ISIC_0059769.JPG,false,0,keypress(z),500,425279.1999988556,425278.79999923706,421812.505,421814.79999923706,421820.382,425285.377,8,400,16,,ISIC_0029630.JPG
break,html.Screen,4_65_1,2023-05-03T20:38:35.919Z,,0,,,NaN,,,,,,false,,,,425280.39999961853,425280.0999984741,,425279.39999961853,,425285.377,8,400,,,
break_continue,html.Screen,4_65_2,2023-05-03T20:38:35.920Z,,0,,,NaN,,,,,,false,,,,425280.89999961853,425280.6999988556,,425280.5999984741,,425285.377,8,400,,,
sequence,flow.Sequence,4_65,2023-05-03T20:38:35.920Z,,0,,,3460.3179988556076,completion,,,,,false,,,,425281.1999988556,425280.6999988556,421812.505,421814.6999988556,421820.382,425285.377,8,400,,,
trial,html.Screen,4_66_0,2023-05-03T20:38:38.850Z,,0,2,,2925.1230000000214,response,ISIC_9788545.JPG,,ISIC_5586765.JPG,ISIC_5586765.JPG,false,0,keypress(z),500,428210.79999923706,428210.5,425277.524,425281.39999961853,425285.377,428214.602,8,400,17,,ISIC_9788545.JPG
break,html.Screen,4_66_1,2023-05-03T20:38:38.851Z,,0,,,NaN,,,,,,false,,,,428212.0999984741,428211.79999923706,,428211.1999988556,,428214.602,8,400,,,
break_continue,html.Screen,4_66_2,2023-05-03T20:38:38.852Z,,0,,,NaN,,,,,,false,,,,428212.5999984741,428212.39999961853,,428212.1999988556,,428214.602,8,400,,,
sequence,flow.Sequence,4_66,2023-05-03T20:38:38.852Z,,0,,,2927.0229996185517,completion,,,,,false,,,,428212.89999961853,428212.39999961853,425277.524,425281.29999923706,425285.377,428214.602,8,400,,,
trial,html.Screen,4_67_0,2023-05-03T20:38:41.986Z,,0,2,,3131.9979984741076,response,ISIC_0189336.JPG,,ISIC_0998962.JPG,ISIC_0998962.JPG,false,0,keypress(z),500,431346.89999961853,431346.5999984741,428206.803,428213.1999988556,428214.602,431352.715,8,400,18,,ISIC_0189336.JPG
break,html.Screen,4_67_1,2023-05-03T20:38:41.987Z,,0,,,NaN,,,,,,false,,,,431348,431347.89999961853,,431347.29999923706,,431352.715,8,400,,,
break_continue,html.Screen,4_67_2,2023-05-03T20:38:41.988Z,,0,,,NaN,,,,,,false,,,,431348.5999984741,431348.39999961853,,431348.29999923706,,431352.715,8,400,,,
sequence,flow.Sequence,4_67,2023-05-03T20:38:41.988Z,,0,,,3133.7979996185168,completion,,,,,false,,,,431349,431348.39999961853,428206.803,428213.0999984741,428214.602,431352.715,8,400,,,
trial,html.Screen,4_68_0,2023-05-03T20:38:44.804Z,,0,2,,2812.484998855565,response,ISIC_0010981.JPG,,ISIC_8513112.JPG,ISIC_0010981.JPG,false,1,keypress(m),500,434165.29999923706,434165.1999988556,431344.837,431349.0999984741,431352.715,434170.513,8,400,19,,ISIC_8513112.JPG
break,html.Screen,4_68_1,2023-05-03T20:38:44.805Z,,0,,,NaN,,,,,,false,,,,434166.0999984741,434165.89999961853,,434165.5999984741,,434170.513,8,400,,,
break_continue,html.Screen,4_68_2,2023-05-03T20:38:44.806Z,,0,,,NaN,,,,,,false,,,,434166.5,434166.39999961853,,434166.1999988556,,434170.513,8,400,,,
sequence,flow.Sequence,4_68,2023-05-03T20:38:44.806Z,,0,,,2813.6849996185047,completion,,,,,false,,,,434166.5999984741,434166.39999961853,431344.837,431349,431352.715,434170.513,8,400,,,
trial,html.Screen,4_69_0,2023-05-03T20:38:47.839Z,,0,2,,3028.886999618553,response,ISIC_0033083.JPG,,ISIC_5772144.JPG,ISIC_5772144.JPG,false,0,keypress(z),500,437199.6999988556,437199.39999961853,434162.725,434166.79999923706,434170.513,437204.228,8,400,20,,ISIC_0033083.JPG
break,html.Screen,4_69_1,2023-05-03T20:38:47.840Z,,0,,,NaN,,,,,,false,,,,437200.79999923706,437200.5,,437200,,437204.228,8,400,,,
break_continue,html.Screen,4_69_2,2023-05-03T20:38:47.840Z,,0,,,NaN,,,,,,false,,,,437201.39999961853,437201.1999988556,,437201.0999984741,,437204.228,8,400,,,
sequence,flow.Sequence,4_69,2023-05-03T20:38:47.841Z,,0,,,3030.6869988556136,completion,,,,,false,,,,437201.5999984741,437201.1999988556,434162.725,434166.6999988556,434170.513,437204.228,8,400,,,
trial,html.Screen,4_70_0,2023-05-03T20:38:51.382Z,,0,2,,3538.771999999997,response,ISIC_0030129.JPG,,ISIC_4252285.JPG,ISIC_4252285.JPG,false,0,keypress(z),500,440743.0999984741,440743,437196.343,437201.89999961853,437204.228,440745.695,8,400,21,,ISIC_0030129.JPG
break,html.Screen,4_70_1,2023-05-03T20:38:51.383Z,,0,,,NaN,,,,,,false,,,,440744,440743.6999988556,,440743.29999923706,,440745.695,8,400,,,
break_continue,html.Screen,4_70_2,2023-05-03T20:38:51.383Z,,0,,,NaN,,,,,,false,,,,440744.39999961853,440744.1999988556,,440744.0999984741,,440745.695,8,400,,,
sequence,flow.Sequence,4_70,2023-05-03T20:38:51.384Z,,0,,,3539.971998855588,completion,,,,,false,,,,440744.5,440744.1999988556,437196.343,437201.79999923706,437204.228,440745.695,8,400,,,
trial,html.Screen,4_71_0,2023-05-03T20:38:54.634Z,,0,2,,3248.804999999993,response,ISIC_6383486.JPG,,ISIC_5793600.JPG,ISIC_5793600.JPG,false,0,keypress(z),500,443994.79999923706,443994.5,440737.948,440744.5999984741,440745.695,444002.05,8,400,22,,ISIC_6383486.JPG
break,html.Screen,4_71_1,2023-05-03T20:38:54.635Z,,0,,,NaN,,,,,,false,,,,443996,443995.6999988556,,443995.0999984741,,444002.05,8,400,,,
break_continue,html.Screen,4_71_2,2023-05-03T20:38:54.636Z,,0,,,NaN,,,,,,false,,,,443996.6999988556,443996.39999961853,,443996.29999923706,,444002.05,8,400,,,
sequence,flow.Sequence,4_71,2023-05-03T20:38:54.636Z,,0,,,3250.7049996185233,completion,,,,,false,,,,443996.89999961853,443996.39999961853,440737.948,440744.5,440745.695,444002.05,8,400,,,
trial,html.Screen,4_72_0,2023-05-03T20:38:57.791Z,,0,2,,3150.0499984741327,response,ISIC_3842916.JPG,,ISIC_0032925.JPG,ISIC_0032925.JPG,false,0,keypress(z),500,447152.29999923706,447152.0999984741,443994.205,443997.0999984741,444002.05,447167.858,8,400,23,,ISIC_3842916.JPG
break,html.Screen,4_72_1,2023-05-03T20:38:57.792Z,,0,,,NaN,,,,,,false,,,,447153.1999988556,447152.89999961853,,447152.5,,447167.858,8,400,,,
break_continue,html.Screen,4_72_2,2023-05-03T20:38:57.793Z,,0,,,NaN,,,,,,false,,,,447153.5999984741,447153.5,,447153.29999923706,,447167.858,8,400,,,
sequence,flow.Sequence,4_72,2023-05-03T20:38:57.793Z,,0,,,3151.4500000000116,completion,,,,,false,,,,447153.6999988556,447153.5,443994.205,443997.0999984741,444002.05,447167.858,8,400,,,
trial,html.Screen,4_73_0,2023-05-03T20:39:00.828Z,,0,2,,3020.541999618523,response,ISIC_0034076.JPG,,ISIC_0027576.JPG,ISIC_0027576.JPG,false,0,keypress(z),500,450188.5999984741,450188.39999961853,447161.603,447153.89999961853,447167.858,450194.547,8,400,24,,ISIC_0034076.JPG
break,html.Screen,4_73_1,2023-05-03T20:39:00.829Z,,0,,,NaN,,,,,,false,,,,450189.6999988556,450189.39999961853,,450188.79999923706,,450194.547,8,400,,,
break_continue,html.Screen,4_73_2,2023-05-03T20:39:00.829Z,,0,,,NaN,,,,,,false,,,,450190.0999984741,450189.89999961853,,450189.79999923706,,450194.547,8,400,,,
sequence,flow.Sequence,4_73,2023-05-03T20:39:00.829Z,,0,,,3022.041999618523,completion,,,,,false,,,,450190.29999923706,450189.89999961853,447161.603,447153.89999961853,447167.858,450194.547,8,400,,,
trial,html.Screen,4_74_0,2023-05-03T20:39:04.530Z,,0,2,,3696.1529988555703,response,ISIC_0059421.JPG,,ISIC_9972518.JPG,ISIC_0059421.JPG,false,1,keypress(m),500,453890.79999923706,453890.6999988556,450186.706,450190.5999984741,450194.547,453896.121,8,400,25,,ISIC_9972518.JPG
break,html.Screen,4_74_1,2023-05-03T20:39:04.530Z,,0,,,NaN,,,,,,false,,,,453891.1999988556,453891.1999988556,,453890.79999923706,,453896.121,8,400,,,
break_continue,html.Screen,4_74_2,2023-05-03T20:39:04.531Z,,0,,,NaN,,,,,,false,,,,453891.39999961853,453891.39999961853,,453891.29999923706,,453896.121,8,400,,,
sequence,flow.Sequence,4_74,2023-05-03T20:39:04.531Z,,0,,,3696.85299961851,completion,,,,,false,,,,453891.5,453891.39999961853,450186.706,450190.5,450194.547,453896.121,8,400,,,
trial,html.Screen,4_75_0,2023-05-03T20:39:07.561Z,,0,2,,3025.078998855606,response,ISIC_6617840.JPG,,ISIC_0061734.JPG,ISIC_0061734.JPG,false,0,keypress(z),500,456921.5999984741,456921.1999988556,453888.296,453891.5999984741,453896.121,456930.097,8,400,26,,ISIC_6617840.JPG
break,html.Screen,4_75_1,2023-05-03T20:39:07.562Z,,0,,,NaN,,,,,,false,,,,456922.79999923706,456922.5999984741,,456921.89999961853,,456930.097,8,400,,,
break_continue,html.Screen,4_75_2,2023-05-03T20:39:07.563Z,,0,,,NaN,,,,,,false,,,,456923.39999961853,456923.29999923706,,456923.0999984741,,456930.097,8,400,,,
sequence,flow.Sequence,4_75,2023-05-03T20:39:07.563Z,,0,,,3027.178999237076,completion,,,,,false,,,,456923.6999988556,456923.29999923706,453888.296,453891.5999984741,453896.121,456930.097,8,400,,,
trial,html.Screen,4_76_0,2023-05-03T20:39:11.339Z,,0,2,,3769.602998855582,response,ISIC_9171071.JPG,,ISIC_5980439.JPG,ISIC_9171071.JPG,false,1,keypress(m),500,460699.89999961853,460699.6999988556,456921.939,456923.89999961853,456930.097,460707.927,8,400,27,,ISIC_5980439.JPG
break,html.Screen,4_76_1,2023-05-03T20:39:11.340Z,,0,,,NaN,,,,,,false,,,,460701.29999923706,460700.89999961853,,460700.29999923706,,460707.927,8,400,,,
break_continue,html.Screen,4_76_2,2023-05-03T20:39:11.341Z,,0,,,NaN,,,,,,false,,,,460701.89999961853,460701.6999988556,,460701.5,,460707.927,8,400,,,
sequence,flow.Sequence,4_76,2023-05-03T20:39:11.341Z,,0,,,3771.602998855582,completion,,,,,false,,,,460702.1999988556,460701.6999988556,456921.939,456923.79999923706,456930.097,460707.927,8,400,,,
trial,html.Screen,4_77_0,2023-05-03T20:39:15.622Z,,0,2,,4274.572999999975,response,ISIC_0026141.JPG,,ISIC_4407580.JPG,ISIC_0026141.JPG,false,1,keypress(m),500,464982.89999961853,464982.5,460700.003,460702.6999988556,460707.927,464987.001,8,400,28,,ISIC_4407580.JPG
break,html.Screen,4_77_1,2023-05-03T20:39:15.623Z,,0,,,NaN,,,,,,false,,,,464984,464983.6999988556,,464983.0999984741,,464987.001,8,400,,,
break_continue,html.Screen,4_77_2,2023-05-03T20:39:15.624Z,,0,,,NaN,,,,,,false,,,,464984.6999988556,464984.5,,464984.29999923706,,464987.001,8,400,,,
sequence,flow.Sequence,4_77,2023-05-03T20:39:15.624Z,,0,,,4276.572999999975,completion,,,,,false,,,,464985,464984.5,460700.003,460702.5999984741,460707.927,464987.001,8,400,,,
trial,html.Screen,4_78_0,2023-05-03T20:39:18.470Z,,0,2,,2843.398999618541,response,ISIC_0510774.JPG,,ISIC_0799535.JPG,ISIC_0799535.JPG,false,0,keypress(z),500,467830.5999984741,467830.39999961853,464979.121,464985.0999984741,464987.001,467832.692,8,400,29,,ISIC_0510774.JPG
break,html.Screen,4_78_1,2023-05-03T20:39:18.470Z,,0,,,NaN,,,,,,false,,,,467831.0999984741,467831,,467830.5999984741,,467832.692,8,400,,,
break_continue,html.Screen,4_78_2,2023-05-03T20:39:18.470Z,,0,,,NaN,,,,,,false,,,,467831.29999923706,467831.29999923706,,467831.1999988556,,467832.692,8,400,,,
sequence,flow.Sequence,4_78,2023-05-03T20:39:18.471Z,,0,,,2844.2989992370713,completion,,,,,false,,,,467831.5,467831.29999923706,464979.121,464985,464987.001,467832.692,8,400,,,
trial,html.Screen,4_79_0,2023-05-03T20:39:23.003Z,,0,2,,4531.50799885561,response,ISIC_8812621.JPG,,ISIC_0010266.JPG,ISIC_8812621.JPG,false,1,keypress(m),500,472364.29999923706,472364.1999988556,467824.862,467831.5999984741,467832.692,472369.234,8,400,30,,ISIC_0010266.JPG
break,html.Screen,4_79_1,2023-05-03T20:39:23.004Z,,0,,,NaN,,,,,,false,,,,472364.79999923706,472364.5999984741,,472364.39999961853,,472369.234,8,400,,,
break_continue,html.Screen,4_79_2,2023-05-03T20:39:23.004Z,,0,,,NaN,,,,,,false,,,,472364.79999923706,472364.79999923706,,472364.79999923706,,472369.234,8,400,,,
sequence,flow.Sequence,4_79,2023-05-03T20:39:23.004Z,,0,,,4532.10799923708,completion,,,,,false,,,,472365,472364.79999923706,467824.862,467831.5,467832.692,472369.234,8,400,,,
trial,html.Screen,4_80_0,2023-05-03T20:39:26.556Z,,0,2,,3547.465998855594,response,ISIC_1560455.JPG,,ISIC_0025891.JPG,ISIC_0025891.JPG,false,0,keypress(z),500,475916.89999961853,475916.6999988556,472361.395,472365,472369.234,475924.78,8,400,31,,ISIC_1560455.JPG
break,html.Screen,4_80_1,2023-05-03T20:39:26.557Z,,0,,,NaN,,,,,,false,,,,475918.29999923706,475918,,475917.29999923706,,475924.78,8,400,,,
break_continue,html.Screen,4_80_2,2023-05-03T20:39:26.558Z,,0,,,NaN,,,,,,false,,,,475918.89999961853,475918.79999923706,,475918.5999984741,,475924.78,8,400,,,
sequence,flow.Sequence,4_80,2023-05-03T20:39:26.558Z,,0,,,3549.565999237064,completion,,,,,false,,,,475919.29999923706,475918.79999923706,472361.395,472365,472369.234,475924.78,8,400,,,
trial,html.Screen,4_81_0,2023-05-03T20:39:29.744Z,,0,2,,3179.819998474093,response,ISIC_6356522.JPG,,ISIC_0033756.JPG,ISIC_0033756.JPG,false,0,keypress(z),500,479104.79999923706,479104.5999984741,475916.913,475919.39999961853,475924.78,479111.419,8,400,32,,ISIC_6356522.JPG
break,html.Screen,4_81_1,2023-05-03T20:39:29.744Z,,0,,,NaN,,,,,,false,,,,479105.39999961853,479105.1999988556,,479104.89999961853,,479111.419,8,400,,,
break_continue,html.Screen,4_81_2,2023-05-03T20:39:29.745Z,,0,,,NaN,,,,,,false,,,,479105.5999984741,479105.5,,479105.39999961853,,479111.419,8,400,,,
sequence,flow.Sequence,4_81,2023-05-03T20:39:29.745Z,,0,,,3180.719999999972,completion,,,,,false,,,,479105.5999984741,479105.5,475916.913,475919.29999923706,475924.78,479111.419,8,400,,,
trial,html.Screen,4_82_0,2023-05-03T20:39:33.169Z,,0,2,,3417.7809988555964,response,ISIC_9005623.JPG,,ISIC_0016081.JPG,ISIC_9005623.JPG,false,1,keypress(m),500,482529.5,482529.1999988556,479103.638,479105.6999988556,479111.419,482534.755,8,400,33,,ISIC_0016081.JPG
break,html.Screen,4_82_1,2023-05-03T20:39:33.170Z,,0,,,NaN,,,,,,false,,,,482530.79999923706,482530.5,,482529.79999923706,,482534.755,8,400,,,
break_continue,html.Screen,4_82_2,2023-05-03T20:39:33.170Z,,0,,,NaN,,,,,,false,,,,482531.29999923706,482531.0999984741,,482530.89999961853,,482534.755,8,400,,,
sequence,flow.Sequence,4_82,2023-05-03T20:39:33.171Z,,0,,,3419.6809984741267,completion,,,,,false,,,,482531.5999984741,482531.0999984741,479103.638,479105.5999984741,479111.419,482534.755,8,400,,,
trial,html.Screen,4_83_0,2023-05-03T20:39:37.322Z,,0,2,,4148.644999618526,response,ISIC_3084322.JPG,,ISIC_9797578.JPG,ISIC_3084322.JPG,false,1,keypress(m),500,486683.6999988556,486683.39999961853,482526.895,482531.79999923706,482534.755,486688.628,8,400,34,,ISIC_9797578.JPG
break,html.Screen,4_83_1,2023-05-03T20:39:37.323Z,,0,,,NaN,,,,,,false,,,,486685,486684.5999984741,,486684,,486688.628,8,400,,,
break_continue,html.Screen,4_83_2,2023-05-03T20:39:37.324Z,,0,,,NaN,,,,,,false,,,,486685.5,486685.29999923706,,486685.0999984741,,486688.628,8,400,,,
sequence,flow.Sequence,4_83,2023-05-03T20:39:37.324Z,,0,,,4150.544999237056,completion,,,,,false,,,,486685.6999988556,486685.29999923706,482526.895,482531.6999988556,482534.755,486688.628,8,400,,,
trial,html.Screen,4_84_0,2023-05-03T20:39:41.520Z,,0,2,,4192.871999999974,response,ISIC_4834687.JPG,,ISIC_0069668.JPG,ISIC_0069668.JPG,false,0,keypress(z),500,490881.6999988556,490881.5,486680.812,486686,486688.628,490884.139,8,400,35,,ISIC_4834687.JPG
break,html.Screen,4_84_1,2023-05-03T20:39:41.521Z,,0,,,NaN,,,,,,false,,,,490882.5999984741,490882.29999923706,,490882,,490884.139,8,400,,,
break_continue,html.Screen,4_84_2,2023-05-03T20:39:41.521Z,,0,,,NaN,,,,,,false,,,,490883,490882.79999923706,,490882.79999923706,,490884.139,8,400,,,
sequence,flow.Sequence,4_84,2023-05-03T20:39:41.521Z,,0,,,4194.1719992370345,completion,,,,,false,,,,490883.1999988556,490882.79999923706,486680.812,486685.89999961853,486688.628,490884.139,8,400,,,
trial,html.Screen,4_85_0,2023-05-03T20:39:46.223Z,,0,2,,4699.860999999975,response,ISIC_6618652.JPG,,ISIC_0072292.JPG,ISIC_6618652.JPG,false,1,keypress(m),500,495584.29999923706,495584,490876.35,490883.1999988556,490884.139,495587.708,8,400,36,,ISIC_0072292.JPG
break,html.Screen,4_85_1,2023-05-03T20:39:46.224Z,,0,,,NaN,,,,,,false,,,,495585.5999984741,495585.29999923706,,495584.5999984741,,495587.708,8,400,,,
break_continue,html.Screen,4_85_2,2023-05-03T20:39:46.224Z,,0,,,NaN,,,,,,false,,,,495586.0999984741,495586,,495585.6999988556,,495587.708,8,400,,,
sequence,flow.Sequence,4_85,2023-05-03T20:39:46.225Z,,0,,,4701.860999999975,completion,,,,,false,,,,495586.39999961853,495586,490876.35,490883.1999988556,490884.139,495587.708,8,400,,,
trial,html.Screen,4_86_0,2023-05-03T20:39:49.215Z,,0,2,,2988.691999618546,response,ISIC_0033724.JPG,,ISIC_6997433.JPG,ISIC_0033724.JPG,false,1,keypress(m),500,498576.5,498576.39999961853,495579.884,495586.5999984741,495587.708,498579.53,8,400,37,,ISIC_6997433.JPG
break,html.Screen,4_86_1,2023-05-03T20:39:49.215Z,,0,,,NaN,,,,,,false,,,,498577.1999988556,498577.0999984741,,498576.6999988556,,498579.53,8,400,,,
break_continue,html.Screen,4_86_2,2023-05-03T20:39:49.216Z,,0,,,NaN,,,,,,false,,,,498577.5999984741,498577.5,,498577.39999961853,,498579.53,8,400,,,
sequence,flow.Sequence,4_86,2023-05-03T20:39:49.216Z,,0,,,2989.792000000016,completion,,,,,false,,,,498577.79999923706,498577.5,495579.884,495586.5,495587.708,498579.53,8,400,,,
trial,html.Screen,4_87_0,2023-05-03T20:39:53.193Z,,0,2,,3975.069998474093,response,ISIC_4328662.JPG,,ISIC_0068048.JPG,ISIC_4328662.JPG,false,1,keypress(m),500,502554.79999923706,502554.5999984741,498571.75,498577.89999961853,498579.53,502559.402,8,400,38,,ISIC_0068048.JPG
break,html.Screen,4_87_1,2023-05-03T20:39:53.194Z,,0,,,NaN,,,,,,false,,,,502555.29999923706,502555.1999988556,,502554.89999961853,,502559.402,8,400,,,
break_continue,html.Screen,4_87_2,2023-05-03T20:39:53.194Z,,0,,,NaN,,,,,,false,,,,502555.5,502555.5,,502555.39999961853,,502559.402,8,400,,,
sequence,flow.Sequence,4_87,2023-05-03T20:39:53.194Z,,0,,,3975.969999999972,completion,,,,,false,,,,502555.5999984741,502555.5,498571.75,498577.79999923706,498579.53,502559.402,8,400,,,
trial,html.Screen,4_88_0,2023-05-03T20:39:56.170Z,,0,2,,2972.3979992370587,response,ISIC_0758797.JPG,,ISIC_8077943.JPG,ISIC_8077943.JPG,false,0,keypress(z),500,505532,505531.79999923706,502551.544,502555.6999988556,502559.402,505537.397,8,400,39,,ISIC_0758797.JPG
break,html.Screen,4_88_1,2023-05-03T20:39:56.171Z,,0,,,NaN,,,,,,false,,,,505532.79999923706,505532.6999988556,,505532.1999988556,,505537.397,8,400,,,
break_continue,html.Screen,4_88_2,2023-05-03T20:39:56.171Z,,0,,,NaN,,,,,,false,,,,505533.1999988556,505533.0999984741,,505533,,505537.397,8,400,,,
sequence,flow.Sequence,4_88,2023-05-03T20:39:56.172Z,,0,,,2973.6979984741192,completion,,,,,false,,,,505533.39999961853,505533.0999984741,502551.544,502555.6999988556,502559.402,505537.397,8,400,,,
trial,html.Screen,4_89_0,2023-05-03T20:39:59.463Z,,0,2,,3287.202998474124,response,ISIC_8028631.JPG,,ISIC_0013740.JPG,ISIC_8028631.JPG,false,1,keypress(m),500,508824.6999988556,508824.5999984741,505529.626,505533.5999984741,505537.397,508828.458,8,400,40,,ISIC_0013740.JPG
break,html.Screen,4_89_1,2023-05-03T20:39:59.464Z,,0,,,NaN,,,,,,false,,,,508825.39999961853,508825.1999988556,,508824.79999923706,,508828.458,8,400,,,
break_continue,html.Screen,4_89_2,2023-05-03T20:39:59.464Z,,0,,,NaN,,,,,,false,,,,508825.5999984741,508825.5,,508825.39999961853,,508828.458,8,400,,,
sequence,flow.Sequence,4_89,2023-05-03T20:39:59.464Z,,0,,,3288.103000000003,completion,,,,,false,,,,508825.79999923706,508825.5,505529.626,505533.5,505537.397,508828.458,8,400,,,
trial,html.Screen,4_90_0,2023-05-03T20:40:02.383Z,,0,2,,2916.441999618546,response,ISIC_0030729.JPG,,ISIC_7511557.JPG,ISIC_7511557.JPG,false,0,keypress(z),500,511745.1999988556,511744.89999961853,508820.629,508825.89999961853,508828.458,511750.836,8,400,41,,ISIC_0030729.JPG
break,html.Screen,4_90_1,2023-05-03T20:40:02.385Z,,0,,,NaN,,,,,,false,,,,511746.39999961853,511746.0999984741,,511745.5999984741,,511750.836,8,400,,,
break_continue,html.Screen,4_90_2,2023-05-03T20:40:02.385Z,,0,,,NaN,,,,,,false,,,,511747,511746.79999923706,,511746.5999984741,,511750.836,8,400,,,
sequence,flow.Sequence,4_90,2023-05-03T20:40:02.385Z,,0,,,2918.3419992370764,completion,,,,,false,,,,511747.29999923706,511746.79999923706,508820.629,508825.79999923706,508828.458,511750.836,8,400,,,
trial,html.Screen,4_91_0,2023-05-03T20:40:05.128Z,,0,2,,2738.4639992370503,response,ISIC_0065774.JPG,,ISIC_0062323.JPG,ISIC_0062323.JPG,false,0,keypress(z),500,514489.6999988556,514489.29999923706,511742.941,511747.5,511750.836,514492.235,8,400,42,,ISIC_0065774.JPG
break,html.Screen,4_91_1,2023-05-03T20:40:05.129Z,,0,,,NaN,,,,,,false,,,,514490.79999923706,514490.5,,514489.89999961853,,514492.235,8,400,,,
break_continue,html.Screen,4_91_2,2023-05-03T20:40:05.130Z,,0,,,NaN,,,,,,false,,,,514491.29999923706,514491.1999988556,,514491,,514492.235,8,400,,,
sequence,flow.Sequence,4_91,2023-05-03T20:40:05.130Z,,0,,,2740.3639988555806,completion,,,,,false,,,,514491.5999984741,514491.1999988556,511742.941,511747.39999961853,511750.836,514492.235,8,400,,,
trial,html.Screen,4_92_0,2023-05-03T20:40:08.319Z,,0,2,,3188.1649996185442,response,ISIC_0001831.JPG,,ISIC_0032171.JPG,ISIC_0001831.JPG,false,1,keypress(m),500,517680.5999984741,517680.39999961853,514484.398,514491.79999923706,514492.235,517685.869,8,400,43,,ISIC_0032171.JPG
break,html.Screen,4_92_1,2023-05-03T20:40:08.320Z,,0,,,NaN,,,,,,false,,,,517681.39999961853,517681.0999984741,,517680.6999988556,,517685.869,8,400,,,
break_continue,html.Screen,4_92_2,2023-05-03T20:40:08.320Z,,0,,,NaN,,,,,,false,,,,517681.6999988556,517681.5999984741,,517681.5,,517685.869,8,400,,,
sequence,flow.Sequence,4_92,2023-05-03T20:40:08.320Z,,0,,,3189.364998474135,completion,,,,,false,,,,517681.89999961853,517681.5999984741,514484.398,514491.79999923706,514492.235,517685.869,8,400,,,
trial,html.Screen,4_93_0,2023-05-03T20:40:12.391Z,,0,2,,4066.230998474115,response,ISIC_0010658.JPG,,ISIC_0014985.JPG,ISIC_0010658.JPG,false,1,keypress(m),500,521752.39999961853,521752.0999984741,517678.055,517682.0999984741,517685.869,521756.22,8,400,44,,ISIC_0014985.JPG
break,html.Screen,4_93_1,2023-05-03T20:40:12.392Z,,0,,,NaN,,,,,,false,,,,521753.6999988556,521753.39999961853,,521752.79999923706,,521756.22,8,400,,,
break_continue,html.Screen,4_93_2,2023-05-03T20:40:12.392Z,,0,,,NaN,,,,,,false,,,,521754.1999988556,521754.0999984741,,521753.89999961853,,521756.22,8,400,,,
sequence,flow.Sequence,4_93,2023-05-03T20:40:12.393Z,,0,,,4068.230998474115,completion,,,,,false,,,,521754.5,521754.0999984741,517678.055,517682,517685.869,521756.22,8,400,,,
trial,html.Screen,4_94_0,2023-05-03T20:40:16.236Z,,0,2,,3841.0799992370885,response,ISIC_1287370.JPG,,ISIC_0063473.JPG,ISIC_0063473.JPG,false,0,keypress(z),500,525597.3999996185,525597.2999992371,521748.331,521754.79999923706,521756.22,525603.874,8,400,45,,ISIC_1287370.JPG
break,html.Screen,4_94_1,2023-05-03T20:40:16.236Z,,0,,,NaN,,,,,,false,,,,525597.8999996185,525597.7999992371,,525597.5,,525603.874,8,400,,,
break_continue,html.Screen,4_94_2,2023-05-03T20:40:16.236Z,,0,,,NaN,,,,,,false,,,,525598.0999984741,525598,,525598,,525603.874,8,400,,,
sequence,flow.Sequence,4_94,2023-05-03T20:40:16.236Z,,0,,,3841.780000000028,completion,,,,,false,,,,525598.0999984741,525598,521748.331,521754.6999988556,521756.22,525603.874,8,400,,,
trial,html.Screen,4_95_0,2023-05-03T20:40:19.633Z,,0,2,,3389.925999237108,response,ISIC_0013610.JPG,,ISIC_2948811.JPG,ISIC_0013610.JPG,false,1,keypress(m),500,528994.5999984741,528993.7999992371,525596.037,525598.1999988556,525603.874,528999.417,8,400,46,,ISIC_2948811.JPG
break,html.Screen,4_95_1,2023-05-03T20:40:19.635Z,,0,,,NaN,,,,,,false,,,,528996.2999992371,528996,,528995.1999988556,,528999.417,8,400,,,
break_continue,html.Screen,4_95_2,2023-05-03T20:40:19.635Z,,0,,,NaN,,,,,,false,,,,528997.0999984741,528996.6999988556,,528996.5999984741,,528999.417,8,400,,,
sequence,flow.Sequence,4_95,2023-05-03T20:40:19.636Z,,0,,,3392.8259988556383,completion,,,,,false,,,,528997.3999996185,528996.6999988556,525596.037,525598.1999988556,525603.874,528999.417,8,400,,,
trial,html.Screen,4_96_0,2023-05-03T20:40:22.648Z,,0,2,,3009.9829996185144,response,ISIC_0010440.JPG,,ISIC_0033193.JPG,ISIC_0010440.JPG,false,1,keypress(m),500,532009.6999988556,532009.3999996185,528991.614,528997.5999984741,528999.417,532012.138,8,400,47,,ISIC_0033193.JPG
break,html.Screen,4_96_1,2023-05-03T20:40:22.649Z,,0,,,NaN,,,,,,false,,,,532010.8999996185,532010.5999984741,,532010,,532012.138,8,400,,,
break_continue,html.Screen,4_96_2,2023-05-03T20:40:22.650Z,,0,,,NaN,,,,,,false,,,,532011.5999984741,532011.2999992371,,532011.0999984741,,532012.138,8,400,,,
sequence,flow.Sequence,4_96,2023-05-03T20:40:22.650Z,,0,,,3011.8829992370447,completion,,,,,false,,,,532011.8999996185,532011.2999992371,528991.614,528997.5999984741,528999.417,532012.138,8,400,,,
trial,html.Screen,4_97_0,2023-05-03T20:40:25.501Z,,0,2,,2850.8619999999646,response,ISIC_0065204.JPG,,ISIC_0047008.JPG,ISIC_0047008.JPG,false,0,keypress(z),500,534863.1999988556,534863,532004.349,532012,532012.138,534872.856,8,400,48,,ISIC_0065204.JPG
break,html.Screen,4_97_1,2023-05-03T20:40:25.502Z,,0,,,NaN,,,,,,false,,,,534864,534863.7999992371,,534863.3999996185,,534872.856,8,400,,,
break_continue,html.Screen,4_97_2,2023-05-03T20:40:25.503Z,,0,,,NaN,,,,,,false,,,,534864.3999996185,534864.2999992371,,534864.0999984741,,534872.856,8,400,,,
sequence,flow.Sequence,4_97,2023-05-03T20:40:25.503Z,,0,,,2852.161999237025,completion,,,,,false,,,,534864.5999984741,534864.2999992371,532004.349,532012,532012.138,534872.856,8,400,,,
trial,html.Screen,4_98_0,2023-05-03T20:40:29.018Z,,0,2,,3507.0439996185014,response,ISIC_3545622.JPG,,ISIC_0027238.JPG,ISIC_3545622.JPG,false,1,keypress(m),500,538380,538379.8999996185,534863.903,534864.6999988556,534872.856,538385.494,8,400,49,,ISIC_0027238.JPG
break,html.Screen,4_98_1,2023-05-03T20:40:29.019Z,,0,,,NaN,,,,,,false,,,,538380.5999984741,538380.3999996185,,538380.1999988556,,538385.494,8,400,,,
break_continue,html.Screen,4_98_2,2023-05-03T20:40:29.019Z,,0,,,NaN,,,,,,false,,,,538380.7999992371,538380.6999988556,,538380.5999984741,,538385.494,8,400,,,
sequence,flow.Sequence,4_98,2023-05-03T20:40:29.019Z,,0,,,3507.843998855562,completion,,,,,false,,,,538380.8999996185,538380.6999988556,534863.903,534864.6999988556,534872.856,538385.494,8,400,,,
trial,html.Screen,4_99_0,2023-05-03T20:40:32.401Z,,0,2,,3377.4059996185824,response,ISIC_3942075.JPG,,ISIC_0024990.JPG,ISIC_0024990.JPG,false,0,keypress(z),500,541763.1999988556,541762.8999996185,538377.737,538381,538385.494,541767.028,8,400,50,,ISIC_3942075.JPG
break,html.Screen,4_99_1,2023-05-03T20:40:37.402Z,,0,,,5002.720999999903,timeout,,,,,false,,,,546763.3999996185,546762.816,541759.208,541763.3999996185,541767.028,546769.749,8,400,,,
break_continue,html.Screen,4_99_2,2023-05-03T20:40:39.437Z,,0,,,2002.6509996185778,response,,,,,false,continue,keypress(Space),,548798,548772.3999996185,546762.816,546763.5,546769.749,548801.423,8,400,,,
sequence,flow.Sequence,4_99,2023-05-03T20:40:39.437Z,,0,,,10386.905999618582,completion,,,,,false,,,,548798.2999992371,548772.3999996185,538377.737,538381,538385.494,548801.423,8,400,,,
trial,html.Screen,4_100_0,2023-05-03T20:40:43.625Z,,0,3,,4184.476999618579,response,ISIC_0065748.JPG,,ISIC_0060326.JPG,ISIC_0060326.JPG,false,0,keypress(z),500,552986.0999984741,552985.8999996185,548797.706,548798.3999996185,548801.423,552990.11,8,400,1,,ISIC_0065748.JPG
break,html.Screen,4_100_1,2023-05-03T20:40:43.626Z,,0,,,NaN,,,,,,false,,,,552987.2999992371,552987.0999984741,,552986.5,,552990.11,8,400,,,
break_continue,html.Screen,4_100_2,2023-05-03T20:40:43.627Z,,0,,,NaN,,,,,,false,,,,552987.8999996185,552987.6999988556,,552987.5,,552990.11,8,400,,,
sequence,flow.Sequence,4_100,2023-05-03T20:40:43.627Z,,0,,,4186.276998855639,completion,,,,,false,,,,552988.0999984741,552987.6999988556,548797.706,548798.3999996185,548801.423,552990.11,8,400,,,
trial,html.Screen,4_101_0,2023-05-03T20:40:46.864Z,,0,3,,3234.7899996185442,response,ISIC_0025523.JPG,,ISIC_3856662.JPG,ISIC_0025523.JPG,false,1,keypress(m),500,556225.1999988556,556224.8999996185,552982.314,552988.3999996185,552990.11,556232.495,8,400,2,,ISIC_3856662.JPG
break,html.Screen,4_101_1,2023-05-03T20:40:46.865Z,,0,,,NaN,,,,,,false,,,,556226.5,556226.1999988556,,556225.5,,556232.495,8,400,,,
break_continue,html.Screen,4_101_2,2023-05-03T20:40:46.866Z,,0,,,NaN,,,,,,false,,,,556227.0999984741,556226.8999996185,,556226.7999992371,,556232.495,8,400,,,
sequence,flow.Sequence,4_101,2023-05-03T20:40:46.866Z,,0,,,3236.7899996185442,completion,,,,,false,,,,556227.3999996185,556226.8999996185,552982.314,552988.3999996185,552990.11,556232.495,8,400,,,
trial,html.Screen,4_102_0,2023-05-03T20:40:49.691Z,,0,3,,2819.804999237065,response,ISIC_4875370.JPG,,ISIC_0034159.JPG,ISIC_0034159.JPG,false,0,keypress(z),500,559052.3999996185,559052.2999992371,556224.666,556227.6999988556,556232.495,559057.337,8,400,3,,ISIC_4875370.JPG
break,html.Screen,4_102_1,2023-05-03T20:40:49.692Z,,0,,,NaN,,,,,,false,,,,559052.8999996185,559052.7999992371,,559052.5999984741,,559057.337,8,400,,,
break_continue,html.Screen,4_102_2,2023-05-03T20:40:49.692Z,,0,,,NaN,,,,,,false,,,,559053.0999984741,559053,,559052.8999996185,,559057.337,8,400,,,
sequence,flow.Sequence,4_102,2023-05-03T20:40:49.692Z,,0,,,2820.5050000000047,completion,,,,,false,,,,559053.1999988556,559053,556224.666,556227.5,556232.495,559057.337,8,400,,,
trial,html.Screen,4_103_0,2023-05-03T20:40:53.562Z,,0,3,,3865.462999237003,response,ISIC_0026483.JPG,,ISIC_0058376.JPG,ISIC_0026483.JPG,false,1,keypress(m),500,562923.1999988556,562922.7999992371,559049.488,559053.3999996185,559057.337,562925.921,8,400,4,,ISIC_0058376.JPG
break,html.Screen,4_103_1,2023-05-03T20:40:53.563Z,,0,,,NaN,,,,,,false,,,,562924.3999996185,562924.0999984741,,562923.5,,562925.921,8,400,,,
break_continue,html.Screen,4_103_2,2023-05-03T20:40:53.564Z,,0,,,NaN,,,,,,false,,,,562924.8999996185,562924.6999988556,,562924.5,,562925.921,8,400,,,
sequence,flow.Sequence,4_103,2023-05-03T20:40:53.564Z,,0,,,3867.362998855533,completion,,,,,false,,,,562925.1999988556,562924.6999988556,559049.488,559053.2999992371,559057.337,562925.921,8,400,,,
trial,html.Screen,4_104_0,2023-05-03T20:40:59.454Z,,0,3,,5888.378999237088,response,ISIC_0029660.JPG,,ISIC_7164403.JPG,ISIC_0029660.JPG,false,1,keypress(m),500,568814.5,568814.2999992371,562918.138,562925.3999996185,562925.921,568819.235,8,400,5,,ISIC_7164403.JPG
break,html.Screen,4_104_1,2023-05-03T20:40:59.454Z,,0,,,NaN,,,,,,false,,,,568815.3999996185,568815.1999988556,,568814.6999988556,,568819.235,8,400,,,
break_continue,html.Screen,4_104_2,2023-05-03T20:40:59.455Z,,0,,,NaN,,,,,,false,,,,568815.7999992371,568815.6999988556,,568815.5,,568819.235,8,400,,,
sequence,flow.Sequence,4_104,2023-05-03T20:40:59.455Z,,0,,,5889.778998855618,completion,,,,,false,,,,568815.8999996185,568815.6999988556,562918.138,562925.2999992371,562925.921,568819.235,8,400,,,
trial,html.Screen,4_105_0,2023-05-03T20:41:03.274Z,,0,3,,3815.765000000014,response,ISIC_0026756.JPG,,ISIC_0072773.JPG,ISIC_0072773.JPG,false,0,keypress(z),500,572635.2999992371,572635,568811.437,568816.0999984741,568819.235,572639.12,8,400,6,,ISIC_0026756.JPG
break,html.Screen,4_105_1,2023-05-03T20:41:03.276Z,,0,,,NaN,,,,,,false,,,,572636.5999984741,572636.2999992371,,572635.6999988556,,572639.12,8,400,,,
break_continue,html.Screen,4_105_2,2023-05-03T20:41:03.276Z,,0,,,NaN,,,,,,false,,,,572637.0999984741,572636.8999996185,,572636.6999988556,,572639.12,8,400,,,
sequence,flow.Sequence,4_105,2023-05-03T20:41:03.276Z,,0,,,3817.6649996185442,completion,,,,,false,,,,572637.3999996185,572636.8999996185,568811.437,568816,568819.235,572639.12,8,400,,,
trial,html.Screen,4_106_0,2023-05-03T20:41:06.056Z,,0,3,,2777.779999618535,response,ISIC_0034075.JPG,,ISIC_3967213.JPG,ISIC_3967213.JPG,false,0,keypress(z),500,575417.1999988556,575416.8999996185,572631.278,572637.5999984741,572639.12,575422.262,8,400,7,,ISIC_0034075.JPG
break,html.Screen,4_106_1,2023-05-03T20:41:06.057Z,,0,,,NaN,,,,,,false,,,,575418.2999992371,575418.0999984741,,575417.5,,575422.262,8,400,,,
break_continue,html.Screen,4_106_2,2023-05-03T20:41:06.058Z,,0,,,NaN,,,,,,false,,,,575418.7999992371,575418.6999988556,,575418.5,,575422.262,8,400,,,
sequence,flow.Sequence,4_106,2023-05-03T20:41:06.058Z,,0,,,2779.5799988555955,completion,,,,,false,,,,575419.0999984741,575418.6999988556,572631.278,572637.5,572639.12,575422.262,8,400,,,
trial,html.Screen,4_107_0,2023-05-03T20:41:08.912Z,,0,3,,2850.5379992370727,response,ISIC_0030995.JPG,,ISIC_1937955.JPG,ISIC_1937955.JPG,false,0,keypress(z),500,578273.1999988556,578272.7999992371,575414.472,575419.2999992371,575422.262,578282.595,8,400,8,,ISIC_0030995.JPG
break,html.Screen,4_107_1,2023-05-03T20:41:08.913Z,,0,,,NaN,,,,,,false,,,,578274.2999992371,578274,,578273.3999996185,,578282.595,8,400,,,
break_continue,html.Screen,4_107_2,2023-05-03T20:41:08.914Z,,0,,,NaN,,,,,,false,,,,578274.7999992371,578274.5999984741,,578274.3999996185,,578282.595,8,400,,,
sequence,flow.Sequence,4_107,2023-05-03T20:41:08.914Z,,0,,,2852.337998474133,completion,,,,,false,,,,578275.0999984741,578274.5999984741,575414.472,575419.1999988556,575422.262,578282.595,8,400,,,
trial,html.Screen,4_108_0,2023-05-03T20:41:11.734Z,,0,3,,2812.504998474149,response,ISIC_0294399.JPG,,ISIC_1597566.JPG,ISIC_1597566.JPG,false,0,keypress(z),500,581095.3999996185,581095.0999984741,578274.024,578275.2999992371,578282.595,581099.964,8,400,9,,ISIC_0294399.JPG
break,html.Screen,4_108_1,2023-05-03T20:41:11.736Z,,0,,,NaN,,,,,,false,,,,581096.3999996185,581096.1999988556,,581095.5999984741,,581099.964,8,400,,,
break_continue,html.Screen,4_108_2,2023-05-03T20:41:11.736Z,,0,,,NaN,,,,,,false,,,,581097,581096.8999996185,,581096.5999984741,,581099.964,8,400,,,
sequence,flow.Sequence,4_108,2023-05-03T20:41:11.736Z,,0,,,2814.304999618558,completion,,,,,false,,,,581097.2999992371,581096.8999996185,578274.024,578275.1999988556,578282.595,581099.964,8,400,,,
trial,html.Screen,4_109_0,2023-05-03T20:41:14.965Z,,0,3,,3226.0359999999637,response,ISIC_0013617.JPG,,ISIC_0000434.JPG,ISIC_0013617.JPG,false,1,keypress(m),500,584326.0999984741,584326,581092.022,581097.5,581099.964,584328.256,8,400,10,,ISIC_0000434.JPG
break,html.Screen,4_109_1,2023-05-03T20:41:14.966Z,,0,,,NaN,,,,,,false,,,,584326.5,584326.3999996185,,584326.0999984741,,584328.256,8,400,,,
break_continue,html.Screen,4_109_2,2023-05-03T20:41:14.966Z,,0,,,NaN,,,,,,false,,,,584326.5999984741,584326.5999984741,,584326.5,,584328.256,8,400,,,
sequence,flow.Sequence,4_109,2023-05-03T20:41:14.966Z,,0,,,3226.6359984740848,completion,,,,,false,,,,584326.5999984741,584326.5999984741,581092.022,581097.5,581099.964,584328.256,8,400,,,
trial,html.Screen,4_110_0,2023-05-03T20:41:18.043Z,,0,3,,3075.843998474069,response,ISIC_0026039.JPG,,ISIC_4434803.JPG,ISIC_4434803.JPG,false,0,keypress(z),500,587404.2999992371,587404.0999984741,584321.298,584326.6999988556,584328.256,587410.719,8,400,11,,ISIC_0026039.JPG
break,html.Screen,4_110_1,2023-05-03T20:41:18.045Z,,0,,,NaN,,,,,,false,,,,587406.1999988556,587405.7999992371,,587404.8999996185,,587410.719,8,400,,,
break_continue,html.Screen,4_110_2,2023-05-03T20:41:18.046Z,,0,,,NaN,,,,,,false,,,,587407.0999984741,587406.7999992371,,587406.5,,587410.719,8,400,,,
sequence,flow.Sequence,4_110,2023-05-03T20:41:18.047Z,,0,,,3078.5439992370084,completion,,,,,false,,,,587407.5,587406.7999992371,584321.298,584326.6999988556,584328.256,587410.719,8,400,,,
trial,html.Screen,4_111_0,2023-05-03T20:41:21.461Z,,0,3,,3411.1809996184893,response,ISIC_0009893.JPG,,ISIC_0057531.JPG,ISIC_0057531.JPG,false,0,keypress(z),500,590822.1999988556,590821.8999996185,587402.831,587407.8999996185,587410.719,590826.988,8,400,12,,ISIC_0009893.JPG
break,html.Screen,4_111_1,2023-05-03T20:41:21.462Z,,0,,,NaN,,,,,,false,,,,590823.3999996185,590823.0999984741,,590822.5,,590826.988,8,400,,,
break_continue,html.Screen,4_111_2,2023-05-03T20:41:21.463Z,,0,,,NaN,,,,,,false,,,,590824,590823.7999992371,,590823.5999984741,,590826.988,8,400,,,
sequence,flow.Sequence,4_111,2023-05-03T20:41:21.463Z,,0,,,3413.0809992370196,completion,,,,,false,,,,590824.2999992371,590823.7999992371,587402.831,587407.6999988556,587410.719,590826.988,8,400,,,
trial,html.Screen,4_112_0,2023-05-03T20:41:28.856Z,,0,3,,7390.011999999988,response,ISIC_2366727.JPG,,ISIC_1644520.JPG,ISIC_2366727.JPG,false,1,keypress(m),500,598217.2999992371,598217,590819.214,590824.5,590826.988,598223.24,8,400,13,,ISIC_1644520.JPG
break,html.Screen,4_112_1,2023-05-03T20:41:28.857Z,,0,,,NaN,,,,,,false,,,,598218.2999992371,598218.0999984741,,598217.5,,598223.24,8,400,,,
break_continue,html.Screen,4_112_2,2023-05-03T20:41:28.858Z,,0,,,NaN,,,,,,false,,,,598218.8999996185,598218.6999988556,,598218.5,,598223.24,8,400,,,
sequence,flow.Sequence,4_112,2023-05-03T20:41:28.858Z,,0,,,7391.711998855579,completion,,,,,false,,,,598219.0999984741,598218.6999988556,590819.214,590824.3999996185,590826.988,598223.24,8,400,,,
trial,html.Screen,4_113_0,2023-05-03T20:41:31.712Z,,0,3,,2849.6599996185396,response,ISIC_0010797.JPG,,ISIC_1080647.JPG,ISIC_1080647.JPG,false,0,keypress(z),500,601072.8999996185,601072.8999996185,598215.427,598219.2999992371,598223.24,601075.883,8,400,14,,ISIC_0010797.JPG
break,html.Screen,4_113_1,2023-05-03T20:41:31.712Z,,0,,,NaN,,,,,,false,,,,601073.5,601073.3999996185,,601073,,601075.883,8,400,,,
break_continue,html.Screen,4_113_2,2023-05-03T20:41:31.713Z,,0,,,NaN,,,,,,false,,,,601073.5999984741,601073.5999984741,,601073.5,,601075.883,8,400,,,
sequence,flow.Sequence,4_113,2023-05-03T20:41:31.713Z,,0,,,2850.3599984741304,completion,,,,,false,,,,601073.7999992371,601073.5999984741,598215.427,598219.1999988556,598223.24,601075.883,8,400,,,
trial,html.Screen,4_114_0,2023-05-03T20:41:34.503Z,,0,3,,2788.0169996184995,response,ISIC_3002956.JPG,,ISIC_0012721.JPG,ISIC_0012721.JPG,false,0,keypress(z),500,603863.8999996185,603863.8999996185,601068.082,601073.8999996185,601075.883,603866.037,8,400,15,,ISIC_3002956.JPG
break,html.Screen,4_114_1,2023-05-03T20:41:34.503Z,,0,,,NaN,,,,,,false,,,,603864.3999996185,603864.2999992371,,603864,,603866.037,8,400,,,
break_continue,html.Screen,4_114_2,2023-05-03T20:41:34.504Z,,0,,,NaN,,,,,,false,,,,603864.5999984741,603864.5,,603864.3999996185,,603866.037,8,400,,,
sequence,flow.Sequence,4_114,2023-05-03T20:41:34.504Z,,0,,,2788.6169999999693,completion,,,,,false,,,,603864.5999984741,603864.5,601068.082,601073.7999992371,601075.883,603866.037,8,400,,,
trial,html.Screen,4_115_0,2023-05-03T20:41:38.268Z,,0,3,,3762.462999999989,response,ISIC_0072612.JPG,,ISIC_0011633.JPG,ISIC_0011633.JPG,false,0,keypress(z),500,607628.5999984741,607628.5,603858.242,603864.5999984741,603866.037,607630.195,8,400,16,,ISIC_0072612.JPG
break,html.Screen,4_115_1,2023-05-03T20:41:38.268Z,,0,,,NaN,,,,,,false,,,,607628.8999996185,607628.8999996185,,607628.6999988556,,607630.195,8,400,,,
break_continue,html.Screen,4_115_2,2023-05-03T20:41:38.268Z,,0,,,NaN,,,,,,false,,,,607629.0999984741,607629.0999984741,,607629,,607630.195,8,400,,,
sequence,flow.Sequence,4_115,2023-05-03T20:41:38.268Z,,0,,,3763.06299847411,completion,,,,,false,,,,607629.1999988556,607629.0999984741,603858.242,603864.5999984741,603866.037,607630.195,8,400,,,
trial,html.Screen,4_116_0,2023-05-03T20:41:41.511Z,,0,3,,3241.805000000051,response,ISIC_0024232.JPG,,ISIC_0033091.JPG,ISIC_0033091.JPG,false,0,keypress(z),500,610872.2999992371,610872,607622.352,607629.1999988556,607630.195,610879.624,8,400,17,,ISIC_0024232.JPG
break,html.Screen,4_116_1,2023-05-03T20:41:41.513Z,,0,,,NaN,,,,,,false,,,,610873.5,610873.2999992371,,610872.5999984741,,610879.624,8,400,,,
break_continue,html.Screen,4_116_2,2023-05-03T20:41:41.513Z,,0,,,NaN,,,,,,false,,,,610874.1999988556,610874,,610873.6999988556,,610879.624,8,400,,,
sequence,flow.Sequence,4_116,2023-05-03T20:41:41.514Z,,0,,,3243.805000000051,completion,,,,,false,,,,610874.5,610874,607622.352,607629.1999988556,607630.195,610879.624,8,400,,,
trial,html.Screen,4_117_0,2023-05-03T20:41:44.633Z,,0,3,,3114.3760000000475,response,ISIC_8246858.JPG,,ISIC_4559115.JPG,ISIC_4559115.JPG,false,0,keypress(z),500,613994.1999988556,613994,610871.758,610874.6999988556,610879.624,613996.705,8,400,18,,ISIC_8246858.JPG
break,html.Screen,4_117_1,2023-05-03T20:41:44.634Z,,0,,,NaN,,,,,,false,,,,613994.5999984741,613994.3999996185,,613994.2999992371,,613996.705,8,400,,,
break_continue,html.Screen,4_117_2,2023-05-03T20:41:44.634Z,,0,,,NaN,,,,,,false,,,,613994.7999992371,613994.7999992371,,613994.6999988556,,613996.705,8,400,,,
sequence,flow.Sequence,4_117,2023-05-03T20:41:44.634Z,,0,,,3115.175999237108,completion,,,,,false,,,,613994.8999996185,613994.7999992371,610871.758,610874.5999984741,610879.624,613996.705,8,400,,,
trial,html.Screen,4_118_0,2023-05-03T20:41:47.406Z,,0,3,,2769.894998474163,response,ISIC_6486856.JPG,,ISIC_2521424.JPG,ISIC_2521424.JPG,false,0,keypress(z),500,616766.6999988556,616766.5999984741,613988.894,613995,613996.705,616772.88,8,400,19,,ISIC_6486856.JPG
break,html.Screen,4_118_1,2023-05-03T20:41:47.406Z,,0,,,NaN,,,,,,false,,,,616767.2999992371,616767.1999988556,,616766.7999992371,,616772.88,8,400,,,
break_continue,html.Screen,4_118_2,2023-05-03T20:41:47.407Z,,0,,,NaN,,,,,,false,,,,616767.5,616767.5,,616767.3999996185,,616772.88,8,400,,,
sequence,flow.Sequence,4_118,2023-05-03T20:41:47.407Z,,0,,,2770.795000000042,completion,,,,,false,,,,616767.6999988556,616767.5,613988.894,613995,613996.705,616772.88,8,400,,,
trial,html.Screen,4_119_0,2023-05-03T20:41:50.299Z,,0,3,,2886.819998855586,response,ISIC_0031829.JPG,,ISIC_9974299.JPG,ISIC_9974299.JPG,false,0,keypress(z),500,619660.0999984741,619659.6999988556,616765.011,616767.6999988556,616772.88,619667.418,8,400,20,,ISIC_0031829.JPG
break,html.Screen,4_119_1,2023-05-03T20:41:50.300Z,,0,,,NaN,,,,,,false,,,,619661.3999996185,619661.0999984741,,619660.2999992371,,619667.418,8,400,,,
break_continue,html.Screen,4_119_2,2023-05-03T20:41:50.301Z,,0,,,NaN,,,,,,false,,,,619662.0999984741,619661.7999992371,,619661.5999984741,,619667.418,8,400,,,
sequence,flow.Sequence,4_119,2023-05-03T20:41:50.301Z,,0,,,2888.919999237056,completion,,,,,false,,,,619662.2999992371,619661.7999992371,616765.011,616767.6999988556,616772.88,619667.418,8,400,,,
trial,html.Screen,4_120_0,2023-05-03T20:41:53.197Z,,0,3,,2890.281998855644,response,ISIC_0061848.JPG,,ISIC_2563948.JPG,ISIC_2563948.JPG,false,0,keypress(z),500,622558,622557.6999988556,619659.559,619662.5,619667.418,622561.84,8,400,21,,ISIC_0061848.JPG
break,html.Screen,4_120_1,2023-05-03T20:41:53.198Z,,0,,,NaN,,,,,,false,,,,622559.1999988556,622558.8999996185,,622558.1999988556,,622561.84,8,400,,,
break_continue,html.Screen,4_120_2,2023-05-03T20:41:53.199Z,,0,,,NaN,,,,,,false,,,,622559.6999988556,622559.5,,622559.3999996185,,622561.84,8,400,,,
sequence,flow.Sequence,4_120,2023-05-03T20:41:53.199Z,,0,,,2892.082000000053,completion,,,,,false,,,,622560.1999988556,622559.5,619659.559,619662.5,619667.418,622561.84,8,400,,,
trial,html.Screen,4_121_0,2023-05-03T20:41:56.038Z,,0,3,,2836.6600000000326,response,ISIC_0024208.JPG,,ISIC_0058418.JPG,ISIC_0024208.JPG,false,1,keypress(m),500,625398.6999988556,625398.5,622554.005,622560.3999996185,622561.84,625414.55,8,400,22,,ISIC_0058418.JPG
break,html.Screen,4_121_1,2023-05-03T20:41:56.039Z,,0,,,NaN,,,,,,false,,,,625399.8999996185,625399.5999984741,,625399.0999984741,,625414.55,8,400,,,
break_continue,html.Screen,4_121_2,2023-05-03T20:41:56.040Z,,0,,,NaN,,,,,,false,,,,625400.5,625400.2999992371,,625400.0999984741,,625414.55,8,400,,,
sequence,flow.Sequence,4_121,2023-05-03T20:41:56.040Z,,0,,,2838.459999237093,completion,,,,,false,,,,625400.6999988556,625400.2999992371,622554.005,622560.3999996185,622561.84,625414.55,8,400,,,
trial,html.Screen,4_122_0,2023-05-03T20:41:59.094Z,,0,3,,3040.4499999999534,response,ISIC_0054025.JPG,,ISIC_5301938.JPG,ISIC_0054025.JPG,false,1,keypress(m),500,628455.2999992371,628455,625408.023,625400.8999996185,625414.55,628462.151,8,400,23,,ISIC_5301938.JPG
break,html.Screen,4_122_1,2023-05-03T20:41:59.096Z,,0,,,NaN,,,,,,false,,,,628456.5999984741,628456.1999988556,,628455.5999984741,,628462.151,8,400,,,
break_continue,html.Screen,4_122_2,2023-05-03T20:41:59.096Z,,0,,,NaN,,,,,,false,,,,628457.1999988556,628457,,628456.7999992371,,628462.151,8,400,,,
sequence,flow.Sequence,4_122,2023-05-03T20:41:59.097Z,,0,,,3042.4499999999534,completion,,,,,false,,,,628457.5,628457,625408.023,625400.8999996185,625414.55,628462.151,8,400,,,
trial,html.Screen,4_123_0,2023-05-03T20:42:02.696Z,,0,3,,3594.8490000000456,response,ISIC_0072694.JPG,,ISIC_0059041.JPG,ISIC_0072694.JPG,false,1,keypress(m),500,632057.2999992371,632057,628454.333,628457.5999984741,628462.151,632073.256,8,400,24,,ISIC_0059041.JPG
break,html.Screen,4_123_1,2023-05-03T20:42:02.698Z,,0,,,NaN,,,,,,false,,,,632058.5999984741,632058.3999996185,,632057.5999984741,,632073.256,8,400,,,
break_continue,html.Screen,4_123_2,2023-05-03T20:42:02.698Z,,0,,,NaN,,,,,,false,,,,632059.1999988556,632059,,632058.8999996185,,632073.256,8,400,,,
sequence,flow.Sequence,4_123,2023-05-03T20:42:02.699Z,,0,,,3596.8490000000456,completion,,,,,false,,,,632059.5999984741,632059,628454.333,628457.5999984741,628462.151,632073.256,8,400,,,
trial,html.Screen,4_124_0,2023-05-03T20:42:05.679Z,,0,3,,2966.0439992370084,response,ISIC_3460125.JPG,,ISIC_0015200.JPG,ISIC_3460125.JPG,false,1,keypress(m),500,635039.5,635039.2999992371,632066.845,632059.6999988556,632073.256,635044.243,8,400,25,,ISIC_0015200.JPG
break,html.Screen,4_124_1,2023-05-03T20:42:05.679Z,,0,,,NaN,,,,,,false,,,,635040.2999992371,635040.0999984741,,635039.6999988556,,635044.243,8,400,,,
break_continue,html.Screen,4_124_2,2023-05-03T20:42:05.680Z,,0,,,NaN,,,,,,false,,,,635040.6999988556,635040.5999984741,,635040.5,,635044.243,8,400,,,
sequence,flow.Sequence,4_124,2023-05-03T20:42:05.680Z,,0,,,2967.343998474069,completion,,,,,false,,,,635040.8999996185,635040.5999984741,632066.845,632059.6999988556,632073.256,635044.243,8,400,,,
trial,html.Screen,4_125_0,2023-05-03T20:42:08.627Z,,0,3,,2943.056999237044,response,ISIC_6381981.JPG,,ISIC_4432898.JPG,ISIC_4432898.JPG,false,0,keypress(z),500,637987.5999984741,637987.2999992371,635036.392,635041,635044.243,637994.423,8,400,26,,ISIC_6381981.JPG
break,html.Screen,4_125_1,2023-05-03T20:42:08.628Z,,0,,,NaN,,,,,,false,,,,637988.7999992371,637988.5,,637987.8999996185,,637994.423,8,400,,,
break_continue,html.Screen,4_125_2,2023-05-03T20:42:08.628Z,,0,,,NaN,,,,,,false,,,,637989.3999996185,637989.1999988556,,637989,,637994.423,8,400,,,
sequence,flow.Sequence,4_125,2023-05-03T20:42:08.629Z,,0,,,2944.956998855574,completion,,,,,false,,,,637989.6999988556,637989.1999988556,635036.392,635041,635044.243,637994.423,8,400,,,
