sender,sender_type,sender_id,timestamp,meta,,blockNo,condition,duration,ended_on,img_left,img_reveal,img_right,loser,practice,response,response_action,selection_duration,time_commit,time_end,time_render,time_run,time_show,time_switch,total_blocks,total_trials,trialNo,url,winner
informed_consent,html.Screen,0,2023-05-03T18:05:35.308Z,"{""labjs_version"":""20.2.4"",""labjs_build"":{""flavor"":""production"",""commit"":""f5b4a49f956347addd546a832a3327688c2c0fef""},""location"":""https://run.pavlovia.org/MurrayBennett/melanoma-2afc/?participant=64617"",""userAgent"":""Mozilla/5.0 (Macintosh; Intel Mac OS X 10_15_7) AppleWebKit/537.36 (KHTML, like Gecko) Chrome/109.0.0.0 Safari/537.36"",""platform"":""MacIntel"",""language"":""en-US"",""locale"":""en-US"",""timeZone"":""America/Chicago"",""timezoneOffset"":300,""screen_width"":1440,""screen_height"":900,""scroll_width"":1440,""scroll_height"":644,""window_innerWidth"":1440,""window_innerHeight"":692,""devicePixelRatio"":2}",,,,11866.24300038147,response,,,,,,consent,click button,,13613.400000095367,13610.10000038147,1727.191,1742.8000001907349,1743.857,13627.286,,,,"{""participant"":""64617""}",
Welcome,html.Screen,1,2023-05-03T18:05:54.988Z,,,,regular,19664.31400038147,response,,,,,,continue,click button,,33294.2000002861,33291.60000038147,13610.62,13613.800000190735,13627.286,33310.272,,,,,
trial,html.Screen,2_0_0,2023-05-03T18:05:59.240Z,,0,0,,4234.62800009537,response,ISIC_0061792.JPG,,ISIC_4679428.JPG,ISIC_0061792.JPG,true,1,keypress(m),500,37545.60000038147,37544.90000009537,33293.606,33294.7000002861,33310.272,37560.897,1,6,1,,ISIC_4679428.JPG
sequence,flow.Sequence,2_0,2023-05-03T18:05:59.240Z,,0,,,4234.62800009537,completion,,,,,true,,,,37546.2000002861,37544.90000009537,33293.606,33294.60000038147,33310.272,37560.897,1,6,,,
trial,html.Screen,2_1_0,2023-05-03T18:06:02.662Z,,0,0,,3406.603000000003,response,ISIC_0776486.JPG,,ISIC_5199497.JPG,ISIC_0776486.JPG,true,1,keypress(m),500,40968,40967.5,37544.231,37546.5,37560.897,40977.427,1,6,2,,ISIC_5199497.JPG
sequence,flow.Sequence,2_1,2023-05-03T18:06:02.663Z,,0,,,3406.603000000003,completion,,,,,true,,,,40968.5,40967.5,37544.231,37546.40000009537,37560.897,40977.427,1,6,,,
trial,html.Screen,2_2_0,2023-05-03T18:06:06.758Z,,0,0,,4086.0729999999967,response,ISIC_2556187.JPG,,ISIC_8575776.JPG,ISIC_2556187.JPG,true,1,keypress(m),500,45064,45063.5,40960.761,40968.60000038147,40977.427,45077.629,1,6,3,,ISIC_8575776.JPG
sequence,flow.Sequence,2_2,2023-05-03T18:06:06.759Z,,0,,,4086.0729999999967,completion,,,,,true,,,,45064.300000190735,45063.5,40960.761,40968.60000038147,40977.427,45077.629,1,6,,,
trial,html.Screen,2_3_0,2023-05-03T18:06:09.918Z,,0,0,,3145.870999999999,response,ISIC_8141769.JPG,,ISIC_9238366.JPG,ISIC_8141769.JPG,true,1,keypress(m),500,48224.10000038147,48223.5,45060.963,45064.5,45077.629,48227.503,1,6,4,,ISIC_9238366.JPG
sequence,flow.Sequence,2_3,2023-05-03T18:06:09.919Z,,0,,,3145.870999999999,completion,,,,,true,,,,48224.7000002861,48223.5,45060.963,45064.5,45077.629,48227.503,1,6,,,
trial,html.Screen,2_4_0,2023-05-03T18:06:14.264Z,,0,0,,4341.997000000003,response,ISIC_8949026.JPG,,ISIC_9959593.JPG,ISIC_9959593.JPG,true,0,keypress(z),500,52570.10000038147,52569.5,48210.837,48225,48227.503,52577.329,1,6,5,,ISIC_8949026.JPG
sequence,flow.Sequence,2_4,2023-05-03T18:06:14.265Z,,0,,,4341.997000000003,completion,,,,,true,,,,52570.60000038147,52569.5,48210.837,48224.90000009537,48227.503,52577.329,1,6,,,
trial,html.Screen,2_5_0,2023-05-03T18:06:17.335Z,,0,0,,3062.971000190737,response,ISIC_0010479.JPG,,ISIC_0460240.JPG,ISIC_0010479.JPG,true,1,keypress(m),500,55640.90000009537,55640.300000190735,52560.663,52570.90000009537,52577.329,55644.336,1,6,6,,ISIC_0460240.JPG
sequence,flow.Sequence,2_5,2023-05-03T18:06:17.336Z,,0,,,3062.971000190737,completion,,,,,true,,,,55641.300000190735,55640.300000190735,52560.663,52570.800000190735,52577.329,55644.336,1,6,,,
loop,flow.Loop,2,2023-05-03T18:06:17.336Z,,,,,22330.028000190738,completion,,,,,true,,,,55641.60000038147,55640.300000190735,33293.606,33294.60000038147,33310.272,55644.336,1,6,,,
exp_instructions,html.Screen,3,2023-05-03T18:06:19.820Z,,,,,2475.663999999997,response,,,,,,continue,keypress(Space),,58126.10000038147,58120,55627.67,55641.800000190735,55644.336,58127.57,,,,,
trial,html.Screen,4_0_0,2023-05-03T18:06:23.129Z,,0,1,,3306.6300002861026,response,ISIC_8094432.JPG,,ISIC_0055675.JPG,ISIC_0055675.JPG,false,0,keypress(z),500,61434.7000002861,61434.2000002861,58110.904,58126.5,58127.57,61444.104,8,400,1,,ISIC_8094432.JPG
break,html.Screen,4_0_1,2023-05-03T18:06:23.131Z,,0,,,NaN,,,,,,false,,,,61436.300000190735,61435.90000009537,,61435,,61444.104,8,400,,,
break_continue,html.Screen,4_0_2,2023-05-03T18:06:23.131Z,,0,,,NaN,,,,,,false,,,,61436.7000002861,61436.5,,61436.40000009537,,61444.104,8,400,,,
sequence,flow.Sequence,4_0,2023-05-03T18:06:23.131Z,,0,,,3308.9300000000003,completion,,,,,false,,,,61436.800000190735,61436.5,58110.904,58126.5,58127.57,61444.104,8,400,,,
trial,html.Screen,4_1_0,2023-05-03T18:06:26.126Z,,0,1,,2986.8960000000006,response,ISIC_0053574.JPG,,ISIC_7623407.JPG,ISIC_7623407.JPG,false,0,keypress(z),500,64431.5,64431,61427.438,61436.90000009537,61444.104,64443.984,8,400,2,,ISIC_0053574.JPG
break,html.Screen,4_1_1,2023-05-03T18:06:26.127Z,,0,,,NaN,,,,,,false,,,,64432.90000009537,64432.60000038147,,64431.800000190735,,64443.984,8,400,,,
break_continue,html.Screen,4_1_2,2023-05-03T18:06:26.128Z,,0,,,NaN,,,,,,false,,,,64433.40000009537,64433.300000190735,,64433.10000038147,,64443.984,8,400,,,
sequence,flow.Sequence,4_1,2023-05-03T18:06:26.128Z,,0,,,2989.1960001907355,completion,,,,,false,,,,64433.60000038147,64433.300000190735,61427.438,61436.800000190735,61444.104,64443.984,8,400,,,
trial,html.Screen,4_2_0,2023-05-03T18:06:29.673Z,,0,1,,3533.9160000953707,response,ISIC_1046678.JPG,,ISIC_0053734.JPG,ISIC_0053734.JPG,false,0,keypress(z),500,67978.30000019073,67977.90000009537,64427.318,64433.7000002861,64443.984,67994.258,8,400,3,,ISIC_1046678.JPG
break,html.Screen,4_2_1,2023-05-03T18:06:29.674Z,,0,,,NaN,,,,,,false,,,,67979.7000002861,67979.30000019073,,67978.60000038147,,67994.258,8,400,,,
break_continue,html.Screen,4_2_2,2023-05-03T18:06:29.674Z,,0,,,NaN,,,,,,false,,,,67980.2000002861,67980.10000038147,,67979.90000009537,,67994.258,8,400,,,
sequence,flow.Sequence,4_2,2023-05-03T18:06:29.675Z,,0,,,3536.116000381473,completion,,,,,false,,,,67980.40000009537,67980.10000038147,64427.318,64433.7000002861,64443.984,67994.258,8,400,,,
trial,html.Screen,4_3_0,2023-05-03T18:06:32.272Z,,0,1,,2583.5420001907332,response,ISIC_3372750.JPG,,ISIC_4960406.JPG,ISIC_4960406.JPG,false,0,keypress(z),500,70578.30000019073,70577.80000019073,67977.592,67980.60000038147,67994.258,70594.154,8,400,4,,ISIC_3372750.JPG
break,html.Screen,4_3_1,2023-05-03T18:06:32.274Z,,0,,,NaN,,,,,,false,,,,70579.60000038147,70579.30000019073,,70578.5,,70594.154,8,400,,,
break_continue,html.Screen,4_3_2,2023-05-03T18:06:32.274Z,,0,,,NaN,,,,,,false,,,,70580.10000038147,70580,,70579.80000019073,,70594.154,8,400,,,
sequence,flow.Sequence,4_3,2023-05-03T18:06:32.275Z,,0,,,2585.7419999999984,completion,,,,,false,,,,70580.30000019073,70580,67977.592,67980.60000038147,67994.258,70594.154,8,400,,,
trial,html.Screen,4_4_0,2023-05-03T18:06:34.935Z,,0,1,,2646.0460002861073,response,ISIC_0238824.JPG,,ISIC_0064010.JPG,ISIC_0064010.JPG,false,0,keypress(z),500,73240.5,73240.2000002861,70577.488,70580.5,70594.154,73244.048,8,400,5,,ISIC_0238824.JPG
break,html.Screen,4_4_1,2023-05-03T18:06:34.936Z,,0,,,NaN,,,,,,false,,,,73241.90000009537,73241.60000038147,,73240.90000009537,,73244.048,8,400,,,
break_continue,html.Screen,4_4_2,2023-05-03T18:06:34.937Z,,0,,,NaN,,,,,,false,,,,73242.40000009537,73242.2000002861,,73242,,73244.048,8,400,,,
sequence,flow.Sequence,4_4,2023-05-03T18:06:34.937Z,,0,,,2648.0460002861073,completion,,,,,false,,,,73242.60000038147,73242.2000002861,70577.488,70580.40000009537,70594.154,73244.048,8,400,,,
trial,html.Screen,4_5_0,2023-05-03T18:06:37.895Z,,0,1,,2955.952000000005,response,ISIC_6685513.JPG,,ISIC_0059773.JPG,ISIC_0059773.JPG,false,0,keypress(z),500,76200.5,76200,73227.382,73242.80000019073,73244.048,76211.007,8,400,6,,ISIC_6685513.JPG
break,html.Screen,4_5_1,2023-05-03T18:06:37.896Z,,0,,,NaN,,,,,,false,,,,76201.90000009537,76201.5,,76200.80000019073,,76211.007,8,400,,,
break_continue,html.Screen,4_5_2,2023-05-03T18:06:37.897Z,,0,,,NaN,,,,,,false,,,,76202.2000002861,76202.10000038147,,76202,,76211.007,8,400,,,
sequence,flow.Sequence,4_5,2023-05-03T18:06:37.897Z,,0,,,2958.0520003814745,completion,,,,,false,,,,76202.40000009537,76202.10000038147,73227.382,73242.7000002861,73244.048,76211.007,8,400,,,
trial,html.Screen,4_6_0,2023-05-03T18:06:40.528Z,,0,1,,2622.093000381472,response,ISIC_0027479.JPG,,ISIC_0062031.JPG,ISIC_0062031.JPG,false,0,keypress(z),500,78833.5,78833.10000038147,76194.341,76202.60000038147,76211.007,78844.235,8,400,7,,ISIC_0027479.JPG
break,html.Screen,4_6_1,2023-05-03T18:06:40.529Z,,0,,,NaN,,,,,,false,,,,78834.90000009537,78834.60000038147,,78833.90000009537,,78844.235,8,400,,,
break_continue,html.Screen,4_6_2,2023-05-03T18:06:40.530Z,,0,,,NaN,,,,,,false,,,,78835.30000019073,78835.2000002861,,78835,,78844.235,8,400,,,
sequence,flow.Sequence,4_6,2023-05-03T18:06:40.530Z,,0,,,2624.1930002861045,completion,,,,,false,,,,78835.60000038147,78835.2000002861,76194.341,76202.60000038147,76211.007,78844.235,8,400,,,
trial,html.Screen,4_7_0,2023-05-03T18:06:43.128Z,,0,1,,2589.5650001907343,response,ISIC_5581936.JPG,,ISIC_5065360.JPG,ISIC_5065360.JPG,false,0,keypress(Z),500,81434.2000002861,81433.80000019073,78827.569,78835.7000002861,78844.235,81444.131,8,400,8,,ISIC_5581936.JPG
break,html.Screen,4_7_1,2023-05-03T18:06:43.130Z,,0,,,NaN,,,,,,false,,,,81435.7000002861,81435.40000009537,,81434.60000038147,,81444.131,8,400,,,
break_continue,html.Screen,4_7_2,2023-05-03T18:06:43.130Z,,0,,,NaN,,,,,,false,,,,81436.2000002861,81436.10000038147,,81435.90000009537,,81444.131,8,400,,,
sequence,flow.Sequence,4_7,2023-05-03T18:06:43.131Z,,0,,,2591.865000381469,completion,,,,,false,,,,81436.40000009537,81436.10000038147,78827.569,78835.60000038147,78844.235,81444.131,8,400,,,
trial,html.Screen,4_8_0,2023-05-03T18:06:45.728Z,,0,1,,2589.2690000953735,response,ISIC_0060626.JPG,,ISIC_0068993.JPG,ISIC_0068993.JPG,false,0,keypress(Z),500,84033.90000009537,84033.40000009537,81427.465,81436.60000038147,81444.131,84044.027,8,400,9,,ISIC_0060626.JPG
break,html.Screen,4_8_1,2023-05-03T18:06:45.729Z,,0,,,NaN,,,,,,false,,,,84035.10000038147,84034.90000009537,,84034.2000002861,,84044.027,8,400,,,
break_continue,html.Screen,4_8_2,2023-05-03T18:06:45.730Z,,0,,,NaN,,,,,,false,,,,84035.60000038147,84035.5,,84035.30000019073,,84044.027,8,400,,,
sequence,flow.Sequence,4_8,2023-05-03T18:06:45.730Z,,0,,,2591.369000000006,completion,,,,,false,,,,84035.80000019073,84035.5,81427.465,81436.5,81444.131,84044.027,8,400,,,
trial,html.Screen,4_9_0,2023-05-03T18:06:48.440Z,,0,1,,2701.3730000953656,response,ISIC_2027392.JPG,,ISIC_0031389.JPG,ISIC_0031389.JPG,false,0,keypress(Z),500,86745.80000019073,86745.40000009537,84027.361,84035.90000009537,84044.027,86761.017,8,400,10,,ISIC_2027392.JPG
break,html.Screen,4_9_1,2023-05-03T18:06:48.441Z,,0,,,NaN,,,,,,false,,,,86747.2000002861,86746.90000009537,,86746.10000038147,,86761.017,8,400,,,
break_continue,html.Screen,4_9_2,2023-05-03T18:06:48.442Z,,0,,,NaN,,,,,,false,,,,86747.7000002861,86747.5,,86747.30000019073,,86761.017,8,400,,,
sequence,flow.Sequence,4_9,2023-05-03T18:06:48.442Z,,0,,,2703.472999999998,completion,,,,,false,,,,86747.90000009537,86747.5,84027.361,84035.90000009537,84044.027,86761.017,8,400,,,
trial,html.Screen,4_10_0,2023-05-03T18:06:56.416Z,,0,1,,7960.38300009536,response,ISIC_0062234.JPG,,ISIC_9303849.JPG,ISIC_9303849.JPG,false,0,keypress(Z),500,94721.80000019073,94721.40000009537,86744.351,86748,86761.017,94727.365,8,400,11,,ISIC_0062234.JPG
break,html.Screen,4_10_1,2023-05-03T18:06:56.417Z,,0,,,NaN,,,,,,false,,,,94723.30000019073,94723,,94722.2000002861,,94727.365,8,400,,,
break_continue,html.Screen,4_10_2,2023-05-03T18:06:56.418Z,,0,,,NaN,,,,,,false,,,,94723.7000002861,94723.60000038147,,94723.40000009537,,94727.365,8,400,,,
sequence,flow.Sequence,4_10,2023-05-03T18:06:56.418Z,,0,,,7962.583000381463,completion,,,,,false,,,,94723.90000009537,94723.60000038147,86744.351,86748,86761.017,94727.365,8,400,,,
trial,html.Screen,4_11_0,2023-05-03T18:06:59.127Z,,0,1,,2704.9350001907296,response,ISIC_5423896.JPG,,ISIC_1200689.JPG,ISIC_1200689.JPG,false,0,keypress(Z),500,97432.7000002861,97432.30000019073,94710.699,94724.10000038147,94727.365,97444.351,8,400,12,,ISIC_5423896.JPG
break,html.Screen,4_11_1,2023-05-03T18:06:59.128Z,,0,,,NaN,,,,,,false,,,,97434.10000038147,97433.80000019073,,97433,,97444.351,8,400,,,
break_continue,html.Screen,4_11_2,2023-05-03T18:06:59.129Z,,0,,,NaN,,,,,,false,,,,97434.5,97434.40000009537,,97434.2000002861,,97444.351,8,400,,,
sequence,flow.Sequence,4_11,2023-05-03T18:06:59.129Z,,0,,,2707.035000095362,completion,,,,,false,,,,97434.60000038147,97434.40000009537,94710.699,94724,94727.365,97444.351,8,400,,,
trial,html.Screen,4_12_0,2023-05-03T18:07:01.861Z,,0,1,,2722.149000000005,response,ISIC_0056603.JPG,,ISIC_2998367.JPG,ISIC_2998367.JPG,false,0,keypress(Z),500,100166.90000009537,100166.5,97427.685,97434.7000002861,97444.351,100177.575,8,400,13,,ISIC_0056603.JPG
break,html.Screen,4_12_1,2023-05-03T18:07:01.862Z,,0,,,NaN,,,,,,false,,,,100168.10000038147,100167.90000009537,,100167.2000002861,,100177.575,8,400,,,
break_continue,html.Screen,4_12_2,2023-05-03T18:07:01.863Z,,0,,,NaN,,,,,,false,,,,100168.60000038147,100168.5,,100168.30000019073,,100177.575,8,400,,,
sequence,flow.Sequence,4_12,2023-05-03T18:07:01.863Z,,0,,,2724.149000000005,completion,,,,,false,,,,100168.80000019073,100168.5,97427.685,97434.7000002861,97444.351,100177.575,8,400,,,
trial,html.Screen,4_13_0,2023-05-03T18:07:04.543Z,,0,1,,2670.725000190738,response,ISIC_6672654.JPG,,ISIC_0059597.JPG,ISIC_0059597.JPG,false,0,keypress(Z),500,102848.80000019073,102848.30000019073,100160.909,100169,100177.575,102860.801,8,400,14,,ISIC_6672654.JPG
break,html.Screen,4_13_1,2023-05-03T18:07:04.544Z,,0,,,NaN,,,,,,false,,,,102850.10000038147,102849.90000009537,,102849.10000038147,,102860.801,8,400,,,
break_continue,html.Screen,4_13_2,2023-05-03T18:07:04.545Z,,0,,,NaN,,,,,,false,,,,102850.5,102850.40000009537,,102850.30000019073,,102860.801,8,400,,,
sequence,flow.Sequence,4_13,2023-05-03T18:07:04.545Z,,0,,,2672.8250000953703,completion,,,,,false,,,,102850.5,102850.40000009537,100160.909,100168.90000009537,100177.575,102860.801,8,400,,,
trial,html.Screen,4_14_0,2023-05-03T18:07:07.271Z,,0,1,,2715.8990002860955,response,ISIC_9485536.JPG,,ISIC_0063981.JPG,ISIC_0063981.JPG,false,0,keypress(Z),500,105577.2000002861,105576.7000002861,102844.135,102850.7000002861,102860.801,105594.025,8,400,15,,ISIC_9485536.JPG
break,html.Screen,4_14_1,2023-05-03T18:07:07.273Z,,0,,,NaN,,,,,,false,,,,105578.60000038147,105578.30000019073,,105577.40000009537,,105594.025,8,400,,,
break_continue,html.Screen,4_14_2,2023-05-03T18:07:07.273Z,,0,,,NaN,,,,,,false,,,,105579.10000038147,105578.90000009537,,105578.7000002861,,105594.025,8,400,,,
sequence,flow.Sequence,4_14,2023-05-03T18:07:07.274Z,,0,,,2718.0990000953607,completion,,,,,false,,,,105579.30000019073,105578.90000009537,102844.135,102850.7000002861,102860.801,105594.025,8,400,,,
trial,html.Screen,4_15_0,2023-05-03T18:07:18.773Z,,0,1,,11517.038,timeout,ISIC_3069695.JPG,,ISIC_8373462.JPG,,false,,,500,117078.30000019073,117077.90000009537,105577.359,105579.5,105594.025,117111.063,8,400,16,,
break,html.Screen,4_15_1,2023-05-03T18:07:18.773Z,,0,,,NaN,,,,,,false,,,,117079.10000038147,117079,,117078.5,,117111.063,8,400,,,
break_continue,html.Screen,4_15_2,2023-05-03T18:07:18.774Z,,0,,,NaN,,,,,,false,,,,117079.40000009537,117079.30000019073,,117079.30000019073,,117111.063,8,400,,,
sequence,flow.Sequence,4_15,2023-05-03T18:07:18.774Z,,0,,,11485.27500019074,completion,,,,,false,,,,117079.5,117079.30000019073,105577.359,105579.40000009537,105594.025,117111.063,8,400,,,
trial,html.Screen,4_16_0,2023-05-03T18:07:26.640Z,,0,1,,7834.337000095373,response,ISIC_2698722.JPG,,ISIC_4396553.JPG,ISIC_4396553.JPG,false,0,keypress(Z),500,124945.80000019073,124945.40000009537,117093.979,117079.60000038147,117111.063,124960.749,8,400,17,,ISIC_2698722.JPG
break,html.Screen,4_16_1,2023-05-03T18:07:26.642Z,,0,,,NaN,,,,,,false,,,,124947.2000002861,124947,,124946.2000002861,,124960.749,8,400,,,
break_continue,html.Screen,4_16_2,2023-05-03T18:07:26.642Z,,0,,,NaN,,,,,,false,,,,124947.80000019073,124947.7000002861,,124947.5,,124960.749,8,400,,,
sequence,flow.Sequence,4_16,2023-05-03T18:07:26.642Z,,0,,,7836.637000286108,completion,,,,,false,,,,124948,124947.7000002861,117093.979,117079.60000038147,117111.063,124960.749,8,400,,,
trial,html.Screen,4_17_0,2023-05-03T18:07:28.878Z,,0,1,,2222.0510001907387,response,ISIC_0032840.JPG,,ISIC_0070435.JPG,ISIC_0070435.JPG,false,0,keypress(Z),500,127183.30000019073,127182.80000019073,124944.083,124948.10000038147,124960.749,127193.993,8,400,18,,ISIC_0032840.JPG
break,html.Screen,4_17_1,2023-05-03T18:07:28.879Z,,0,,,NaN,,,,,,false,,,,127184.60000038147,127184.40000009537,,127183.60000038147,,127193.993,8,400,,,
break_continue,html.Screen,4_17_2,2023-05-03T18:07:28.879Z,,0,,,NaN,,,,,,false,,,,127185.10000038147,127184.90000009537,,127184.80000019073,,127193.993,8,400,,,
sequence,flow.Sequence,4_17,2023-05-03T18:07:28.880Z,,0,,,2224.1510000953713,completion,,,,,false,,,,127185.30000019073,127184.90000009537,124944.083,124948,124960.749,127193.993,8,400,,,
trial,html.Screen,4_18_0,2023-05-03T18:07:31.246Z,,0,1,,2357.3070001907327,response,ISIC_6427157.JPG,,ISIC_1681964.JPG,ISIC_1681964.JPG,false,0,keypress(Z),500,129551.7000002861,129551.30000019073,127177.327,127185.5,127193.993,129560.952,8,400,19,,ISIC_6427157.JPG
break,html.Screen,4_18_1,2023-05-03T18:07:31.247Z,,0,,,NaN,,,,,,false,,,,129553.10000038147,129552.80000019073,,129552,,129560.952,8,400,,,
break_continue,html.Screen,4_18_2,2023-05-03T18:07:31.248Z,,0,,,NaN,,,,,,false,,,,129553.60000038147,129553.5,,129553.2000002861,,129560.952,8,400,,,
sequence,flow.Sequence,4_18,2023-05-03T18:07:31.248Z,,0,,,2359.506999999998,completion,,,,,false,,,,129553.80000019073,129553.5,127177.327,127185.40000009537,127193.993,129560.952,8,400,,,
trial,html.Screen,4_19_0,2023-05-03T18:07:33.527Z,,0,1,,2271.7480002860975,response,ISIC_2863397.JPG,,ISIC_2948811.JPG,ISIC_2948811.JPG,false,0,keypress(Z),500,131833.10000038147,131832.7000002861,129544.286,129554,129560.952,131844.194,8,400,20,,ISIC_2863397.JPG
break,html.Screen,4_19_1,2023-05-03T18:07:33.529Z,,0,,,NaN,,,,,,false,,,,131834.5,131834.2000002861,,131833.5,,131844.194,8,400,,,
break_continue,html.Screen,4_19_2,2023-05-03T18:07:33.529Z,,0,,,NaN,,,,,,false,,,,131835,131834.80000019073,,131834.60000038147,,131844.194,8,400,,,
sequence,flow.Sequence,4_19,2023-05-03T18:07:33.529Z,,0,,,2273.84800019073,completion,,,,,false,,,,131835.2000002861,131834.80000019073,129544.286,129553.90000009537,129560.952,131844.194,8,400,,,
trial,html.Screen,4_20_0,2023-05-03T18:07:36.087Z,,0,1,,2548.0060002861137,response,ISIC_9792253.JPG,,ISIC_0490714.JPG,ISIC_0490714.JPG,false,0,keypress(Z),500,134392.7000002861,134392.2000002861,131827.528,131835.30000019073,131844.194,134394.092,8,400,21,,ISIC_9792253.JPG
break,html.Screen,4_20_1,2023-05-03T18:07:36.088Z,,0,,,NaN,,,,,,false,,,,134394.10000038147,134393.80000019073,,134393.10000038147,,134394.092,8,400,,,
break_continue,html.Screen,4_20_2,2023-05-03T18:07:36.089Z,,0,,,NaN,,,,,,false,,,,134394.5,134394.40000009537,,134394.2000002861,,134394.092,8,400,,,
sequence,flow.Sequence,4_20,2023-05-03T18:07:36.089Z,,0,,,2550.206000095379,completion,,,,,false,,,,134394.7000002861,134394.40000009537,131827.528,131835.2000002861,131844.194,134394.092,8,400,,,
trial,html.Screen,4_21_0,2023-05-03T18:07:38.407Z,,0,1,,2318.108000286098,response,ISIC_2844085.JPG,,ISIC_1952599.JPG,ISIC_1952599.JPG,false,0,keypress(Z),500,136712.7000002861,136712.2000002861,134377.426,134394.90000009537,134394.092,136727.332,8,400,22,,ISIC_2844085.JPG
break,html.Screen,4_21_1,2023-05-03T18:07:38.408Z,,0,,,NaN,,,,,,false,,,,136714.10000038147,136713.90000009537,,136713.10000038147,,136727.332,8,400,,,
break_continue,html.Screen,4_21_2,2023-05-03T18:07:38.409Z,,0,,,NaN,,,,,,false,,,,136714.5,136714.40000009537,,136714.2000002861,,136727.332,8,400,,,
sequence,flow.Sequence,4_21,2023-05-03T18:07:38.409Z,,0,,,2320.3080000953632,completion,,,,,false,,,,136714.7000002861,136714.40000009537,134377.426,134394.80000019073,134394.092,136727.332,8,400,,,
trial,html.Screen,4_22_0,2023-05-03T18:07:40.647Z,,0,1,,2224.768000381475,response,ISIC_4924690.JPG,,ISIC_2854610.JPG,ISIC_2854610.JPG,false,0,keypress(Z),500,138952.5,138952.10000038147,136710.666,136714.80000019073,136727.332,138960.977,8,400,23,,ISIC_4924690.JPG
break,html.Screen,4_22_1,2023-05-03T18:07:40.648Z,,0,,,NaN,,,,,,false,,,,138953.80000019073,138953.60000038147,,138952.80000019073,,138960.977,8,400,,,
break_continue,html.Screen,4_22_2,2023-05-03T18:07:40.649Z,,0,,,NaN,,,,,,false,,,,138954.30000019073,138954.2000002861,,138954,,138960.977,8,400,,,
sequence,flow.Sequence,4_22,2023-05-03T18:07:40.649Z,,0,,,2226.8680002861074,completion,,,,,false,,,,138954.5,138954.2000002861,136710.666,136714.7000002861,136727.332,138960.977,8,400,,,
trial,html.Screen,4_23_0,2023-05-03T18:07:42.911Z,,0,1,,2255.123000381456,response,ISIC_0010817.JPG,,ISIC_5518557.JPG,ISIC_5518557.JPG,false,0,keypress(Z),500,141216.60000038147,141216.10000038147,138944.311,138954.7000002861,138960.977,141227.553,8,400,24,,ISIC_0010817.JPG
break,html.Screen,4_23_1,2023-05-03T18:07:42.912Z,,0,,,NaN,,,,,,false,,,,141217.90000009537,141217.60000038147,,141216.80000019073,,141227.553,8,400,,,
break_continue,html.Screen,4_23_2,2023-05-03T18:07:42.913Z,,0,,,NaN,,,,,,false,,,,141218.40000009537,141218.2000002861,,141218,,141227.553,8,400,,,
sequence,flow.Sequence,4_23,2023-05-03T18:07:42.913Z,,0,,,2257.223000286089,completion,,,,,false,,,,141218.60000038147,141218.2000002861,138944.311,138954.60000038147,138960.977,141227.553,8,400,,,
trial,html.Screen,4_24_0,2023-05-03T18:07:45.190Z,,0,1,,2267.2470001907204,response,ISIC_9336830.JPG,,ISIC_0011892.JPG,ISIC_0011892.JPG,false,0,keypress(Z),500,143495.40000009537,143494.80000019073,141210.887,141218.7000002861,141227.553,143510.795,8,400,25,,ISIC_9336830.JPG
break,html.Screen,4_24_1,2023-05-03T18:07:45.191Z,,0,,,NaN,,,,,,false,,,,143496.90000009537,143496.60000038147,,143495.80000019073,,143510.795,8,400,,,
break_continue,html.Screen,4_24_2,2023-05-03T18:07:45.192Z,,0,,,NaN,,,,,,false,,,,143497.5,143497.30000019073,,143497.10000038147,,143510.795,8,400,,,
sequence,flow.Sequence,4_24,2023-05-03T18:07:45.192Z,,0,,,2269.7470001907204,completion,,,,,false,,,,143497.60000038147,143497.30000019073,141210.887,141218.7000002861,141227.553,143510.795,8,400,,,
trial,html.Screen,4_25_0,2023-05-03T18:07:47.191Z,,0,1,,1985.2049999999872,response,ISIC_4781169.JPG,,ISIC_0064986.JPG,ISIC_0064986.JPG,false,0,keypress(Z),500,145496.5,145496,143494.129,143497.7000002861,143510.795,145510.715,8,400,26,,ISIC_4781169.JPG
break,html.Screen,4_25_1,2023-05-03T18:07:47.192Z,,0,,,NaN,,,,,,false,,,,145497.80000019073,145497.5,,145496.7000002861,,145510.715,8,400,,,
break_continue,html.Screen,4_25_2,2023-05-03T18:07:47.192Z,,0,,,NaN,,,,,,false,,,,145498.30000019073,145498.2000002861,,145497.90000009537,,145510.715,8,400,,,
sequence,flow.Sequence,4_25,2023-05-03T18:07:47.193Z,,0,,,1987.4050002860895,completion,,,,,false,,,,145498.40000009537,145498.2000002861,143494.129,143497.7000002861,143510.795,145510.715,8,400,,,
trial,html.Screen,4_26_0,2023-05-03T18:07:49.447Z,,0,1,,2241.385000381473,response,ISIC_6759173.JPG,,ISIC_0011904.JPG,ISIC_0011904.JPG,false,0,keypress(Z),500,147752.5,147752.10000038147,145494.049,145498.60000038147,145510.715,147760.625,8,400,27,,ISIC_6759173.JPG
break,html.Screen,4_26_1,2023-05-03T18:07:49.448Z,,0,,,NaN,,,,,,false,,,,147753.80000019073,147753.5,,147752.80000019073,,147760.625,8,400,,,
break_continue,html.Screen,4_26_2,2023-05-03T18:07:49.448Z,,0,,,NaN,,,,,,false,,,,147754.2000002861,147754,,147753.90000009537,,147760.625,8,400,,,
sequence,flow.Sequence,4_26,2023-05-03T18:07:49.448Z,,0,,,2243.2850000000035,completion,,,,,false,,,,147754.2000002861,147754,145494.049,145498.5,145510.715,147760.625,8,400,,,
trial,html.Screen,4_27_0,2023-05-03T18:07:52.639Z,,0,1,,3183.875,response,ISIC_0011471.JPG,,ISIC_7959386.JPG,ISIC_7959386.JPG,false,0,keypress(Z),500,150945,150944.5,147743.959,147754.30000019073,147760.625,150960.933,8,400,28,,ISIC_0011471.JPG
break,html.Screen,4_27_1,2023-05-03T18:07:52.641Z,,0,,,NaN,,,,,,false,,,,150946.30000019073,150946.10000038147,,150945.30000019073,,150960.933,8,400,,,
break_continue,html.Screen,4_27_2,2023-05-03T18:07:52.641Z,,0,,,NaN,,,,,,false,,,,150946.7000002861,150946.7000002861,,150946.5,,150960.933,8,400,,,
sequence,flow.Sequence,4_27,2023-05-03T18:07:52.641Z,,0,,,3186.0750002861023,completion,,,,,false,,,,150947,150946.7000002861,147743.959,147754.2000002861,147760.625,150960.933,8,400,,,
trial,html.Screen,4_28_0,2023-05-03T18:07:55.944Z,,0,1,,3288.56700000001,response,ISIC_0061021.JPG,,ISIC_0057988.JPG,ISIC_0057988.JPG,false,0,keypress(Z),500,154249.90000009537,154249.5,150944.267,150947.2000002861,150960.933,154260.801,8,400,29,,ISIC_0061021.JPG
break,html.Screen,4_28_1,2023-05-03T18:07:55.945Z,,0,,,NaN,,,,,,false,,,,154251.10000038147,154250.90000009537,,154250.2000002861,,154260.801,8,400,,,
break_continue,html.Screen,4_28_2,2023-05-03T18:07:55.946Z,,0,,,NaN,,,,,,false,,,,154251.7000002861,154251.60000038147,,154251.30000019073,,154260.801,8,400,,,
sequence,flow.Sequence,4_28,2023-05-03T18:07:55.946Z,,0,,,3290.6670003814797,completion,,,,,false,,,,154251.80000019073,154251.60000038147,150944.267,150947.10000038147,150960.933,154260.801,8,400,,,
trial,html.Screen,4_29_0,2023-05-03T18:07:58.816Z,,0,1,,2859.999000190728,response,ISIC_0010773.JPG,,ISIC_0011403.JPG,ISIC_0011403.JPG,false,0,keypress(Z),500,157121.30000019073,157120.80000019073,154244.135,154251.90000009537,154260.801,157127.353,8,400,30,,ISIC_0010773.JPG
break,html.Screen,4_29_1,2023-05-03T18:07:58.817Z,,0,,,NaN,,,,,,false,,,,157122.80000019073,157122.5,,157121.60000038147,,157127.353,8,400,,,
break_continue,html.Screen,4_29_2,2023-05-03T18:07:58.818Z,,0,,,NaN,,,,,,false,,,,157123.30000019073,157123.10000038147,,157122.90000009537,,157127.353,8,400,,,
sequence,flow.Sequence,4_29,2023-05-03T18:07:58.818Z,,0,,,2862.299000381463,completion,,,,,false,,,,157123.5,157123.10000038147,154244.135,154251.80000019073,154260.801,157127.353,8,400,,,
trial,html.Screen,4_30_0,2023-05-03T18:08:01.142Z,,0,1,,2319.646999999997,response,ISIC_0946787.JPG,,ISIC_0033392.JPG,ISIC_0033392.JPG,false,0,keypress(Z),500,159447.40000009537,159447,157110.687,157123.60000038147,157127.353,159460.974,8,400,31,,ISIC_0946787.JPG
break,html.Screen,4_30_1,2023-05-03T18:08:01.143Z,,0,,,NaN,,,,,,false,,,,159448.7000002861,159448.5,,159447.7000002861,,159460.974,8,400,,,
break_continue,html.Screen,4_30_2,2023-05-03T18:08:01.143Z,,0,,,NaN,,,,,,false,,,,159449.2000002861,159449,,159448.90000009537,,159460.974,8,400,,,
sequence,flow.Sequence,4_30,2023-05-03T18:08:01.144Z,,0,,,2321.646999999997,completion,,,,,false,,,,159449.40000009537,159449,157110.687,157123.60000038147,157127.353,159460.974,8,400,,,
trial,html.Screen,4_31_0,2023-05-03T18:08:04.982Z,,0,1,,3826.5260000000126,response,ISIC_5591622.JPG,,ISIC_0046345.JPG,ISIC_0046345.JPG,false,0,keypress(Z),500,163287.90000009537,163287.5,159444.308,159449.5,159460.974,163294.154,8,400,32,,ISIC_5591622.JPG
break,html.Screen,4_31_1,2023-05-03T18:08:04.983Z,,0,,,NaN,,,,,,false,,,,163289.2000002861,163289,,163288.30000019073,,163294.154,8,400,,,
break_continue,html.Screen,4_31_2,2023-05-03T18:08:04.984Z,,0,,,NaN,,,,,,false,,,,163289.7000002861,163289.60000038147,,163289.40000009537,,163294.154,8,400,,,
sequence,flow.Sequence,4_31,2023-05-03T18:08:04.984Z,,0,,,3828.6260003814823,completion,,,,,false,,,,163289.80000019073,163289.60000038147,159444.308,159449.5,159460.974,163294.154,8,400,,,
trial,html.Screen,4_32_0,2023-05-03T18:08:07.959Z,,0,1,,2969.746000095358,response,ISIC_8160596.JPG,,ISIC_2468509.JPG,ISIC_2468509.JPG,false,0,keypress(Z),500,166264.30000019073,166263.90000009537,163277.488,163290,163294.154,166277.368,8,400,33,,ISIC_8160596.JPG
break,html.Screen,4_32_1,2023-05-03T18:08:07.960Z,,0,,,NaN,,,,,,false,,,,166265.7000002861,166265.40000009537,,166264.60000038147,,166277.368,8,400,,,
break_continue,html.Screen,4_32_2,2023-05-03T18:08:07.960Z,,0,,,NaN,,,,,,false,,,,166266.10000038147,166266,,166265.80000019073,,166277.368,8,400,,,
sequence,flow.Sequence,4_32,2023-05-03T18:08:07.961Z,,0,,,2971.8459999999905,completion,,,,,false,,,,166266.40000009537,166266,163277.488,163289.90000009537,163294.154,166277.368,8,400,,,
trial,html.Screen,4_33_0,2023-05-03T18:08:11.078Z,,0,1,,3106.232000381482,response,ISIC_0274382.JPG,,ISIC_6973257.JPG,ISIC_6973257.JPG,false,0,keypress(Z),500,169384,169383.60000038147,166260.702,166266.5,166277.368,169394.362,8,400,34,,ISIC_0274382.JPG
break,html.Screen,4_33_1,2023-05-03T18:08:11.080Z,,0,,,NaN,,,,,,false,,,,169385.40000009537,169385.10000038147,,169384.30000019073,,169394.362,8,400,,,
break_continue,html.Screen,4_33_2,2023-05-03T18:08:11.080Z,,0,,,NaN,,,,,,false,,,,169385.90000009537,169385.7000002861,,169385.60000038147,,169394.362,8,400,,,
sequence,flow.Sequence,4_33,2023-05-03T18:08:11.080Z,,0,,,3108.3320002861146,completion,,,,,false,,,,169386,169385.7000002861,166260.702,166266.5,166277.368,169394.362,8,400,,,
trial,html.Screen,4_34_0,2023-05-03T18:08:13.239Z,,0,1,,2149.6380000000063,response,ISIC_7889838.JPG,,ISIC_5662381.JPG,ISIC_5662381.JPG,false,0,keypress(z),500,171544.40000009537,171544,169377.696,169386.10000038147,169394.362,171560.942,8,400,35,,ISIC_7889838.JPG
break,html.Screen,4_34_1,2023-05-03T18:08:13.240Z,,0,,,NaN,,,,,,false,,,,171545.7000002861,171545.30000019073,,171544.60000038147,,171560.942,8,400,,,
break_continue,html.Screen,4_34_2,2023-05-03T18:08:13.240Z,,0,,,NaN,,,,,,false,,,,171546.2000002861,171546,,171545.90000009537,,171560.942,8,400,,,
sequence,flow.Sequence,4_34,2023-05-03T18:08:13.241Z,,0,,,2151.6380000000063,completion,,,,,false,,,,171546.2000002861,171546,169377.696,169386.10000038147,169394.362,171560.942,8,400,,,
trial,html.Screen,4_35_0,2023-05-03T18:08:16.095Z,,0,1,,2839.7580002860923,response,ISIC_9559922.JPG,,ISIC_9363106.JPG,ISIC_9363106.JPG,false,0,keypress(z),500,174401.10000038147,174400.7000002861,171544.276,171546.30000019073,171560.942,174410.828,8,400,36,,ISIC_9559922.JPG
break,html.Screen,4_35_1,2023-05-03T18:08:16.097Z,,0,,,NaN,,,,,,false,,,,174402.5,174402.2000002861,,174401.40000009537,,174410.828,8,400,,,
break_continue,html.Screen,4_35_2,2023-05-03T18:08:16.097Z,,0,,,NaN,,,,,,false,,,,174402.90000009537,174402.7000002861,,174402.60000038147,,174410.828,8,400,,,
sequence,flow.Sequence,4_35,2023-05-03T18:08:16.097Z,,0,,,2841.7580002860923,completion,,,,,false,,,,174403,174402.7000002861,171544.276,171546.30000019073,171560.942,174410.828,8,400,,,
trial,html.Screen,4_36_0,2023-05-03T18:08:19.071Z,,0,1,,2965.4720001907262,response,ISIC_0013861.JPG,,ISIC_6780901.JPG,ISIC_6780901.JPG,false,0,keypress(z),500,177376.7000002861,177376.30000019073,174394.162,174403.2000002861,174410.828,177394.042,8,400,37,,ISIC_0013861.JPG
break,html.Screen,4_36_1,2023-05-03T18:08:19.072Z,,0,,,NaN,,,,,,false,,,,177378.30000019073,177377.80000019073,,177377,,177394.042,8,400,,,
break_continue,html.Screen,4_36_2,2023-05-03T18:08:19.073Z,,0,,,NaN,,,,,,false,,,,177378.80000019073,177378.60000038147,,177378.40000009537,,177394.042,8,400,,,
sequence,flow.Sequence,4_36,2023-05-03T18:08:19.073Z,,0,,,2967.772000381461,completion,,,,,false,,,,177379,177378.60000038147,174394.162,174403.2000002861,174410.828,177394.042,8,400,,,
trial,html.Screen,4_37_0,2023-05-03T18:08:21.801Z,,0,1,,2711.9580000000133,response,ISIC_6734679.JPG,,ISIC_0003793.JPG,ISIC_0003793.JPG,false,0,keypress(z),500,180106.40000009537,180106,177377.376,177379.2000002861,177394.042,180111.03,8,400,38,,ISIC_6734679.JPG
break,html.Screen,4_37_1,2023-05-03T18:08:21.802Z,,0,,,NaN,,,,,,false,,,,180107.80000019073,180107.5,,180106.7000002861,,180111.03,8,400,,,
break_continue,html.Screen,4_37_2,2023-05-03T18:08:21.802Z,,0,,,NaN,,,,,,false,,,,180108.30000019073,180108.2000002861,,180108,,180111.03,8,400,,,
sequence,flow.Sequence,4_37,2023-05-03T18:08:21.803Z,,0,,,2714.1580002861156,completion,,,,,false,,,,180108.40000009537,180108.2000002861,177377.376,177379.10000038147,177394.042,180111.03,8,400,,,
trial,html.Screen,4_38_0,2023-05-03T18:08:24.272Z,,0,1,,2466.470000000001,response,ISIC_0002693.JPG,,ISIC_0000072.JPG,ISIC_0000072.JPG,false,0,keypress(z),500,182577.80000019073,182577.5,180094.364,180108.5,180111.03,182594.264,8,400,39,,ISIC_0002693.JPG
break,html.Screen,4_38_1,2023-05-03T18:08:24.273Z,,0,,,NaN,,,,,,false,,,,182578.80000019073,182578.60000038147,,182578.10000038147,,182594.264,8,400,,,
break_continue,html.Screen,4_38_2,2023-05-03T18:08:24.273Z,,0,,,NaN,,,,,,false,,,,182579.10000038147,182579.10000038147,,182578.90000009537,,182594.264,8,400,,,
sequence,flow.Sequence,4_38,2023-05-03T18:08:24.273Z,,0,,,2468.070000381471,completion,,,,,false,,,,182579.2000002861,182579.10000038147,180094.364,180108.5,180111.03,182594.264,8,400,,,
trial,html.Screen,4_39_0,2023-05-03T18:08:27.102Z,,0,1,,2812.636000095372,response,ISIC_0054444.JPG,,ISIC_0030852.JPG,ISIC_0030852.JPG,false,0,keypress(z),500,185407.40000009537,185406.90000009537,182577.598,182579.30000019073,182594.264,185410.818,8,400,40,,ISIC_0054444.JPG
break,html.Screen,4_39_1,2023-05-03T18:08:27.103Z,,0,,,NaN,,,,,,false,,,,185408.80000019073,185408.5,,185407.80000019073,,185410.818,8,400,,,
break_continue,html.Screen,4_39_2,2023-05-03T18:08:27.104Z,,0,,,NaN,,,,,,false,,,,185409.30000019073,185409.2000002861,,185409,,185410.818,8,400,,,
sequence,flow.Sequence,4_39,2023-05-03T18:08:27.104Z,,0,,,2814.9360002861067,completion,,,,,false,,,,185409.5,185409.2000002861,182577.598,182579.30000019073,182594.264,185410.818,8,400,,,
trial,html.Screen,4_40_0,2023-05-03T18:08:29.383Z,,0,1,,2277.2820003814704,response,ISIC_1686556.JPG,,ISIC_2222091.JPG,ISIC_2222091.JPG,false,0,keypress(z),500,187688.60000038147,187688.10000038147,185394.152,185409.60000038147,185410.818,187694.06,8,400,41,,ISIC_1686556.JPG
break,html.Screen,4_40_1,2023-05-03T18:08:29.384Z,,0,,,NaN,,,,,,false,,,,187689.90000009537,187689.7000002861,,187688.90000009537,,187694.06,8,400,,,
break_continue,html.Screen,4_40_2,2023-05-03T18:08:29.385Z,,0,,,NaN,,,,,,false,,,,187690.5,187690.40000009537,,187690.10000038147,,187694.06,8,400,,,
sequence,flow.Sequence,4_40,2023-05-03T18:08:29.385Z,,0,,,2279.582000095368,completion,,,,,false,,,,187690.7000002861,187690.40000009537,185394.152,185409.60000038147,185410.818,187694.06,8,400,,,
trial,html.Screen,4_41_0,2023-05-03T18:08:31.693Z,,0,1,,2304.540000381472,response,ISIC_6912233.JPG,,ISIC_9744305.JPG,ISIC_9744305.JPG,false,0,keypress(z),500,189999,189998.60000038147,187677.394,187690.90000009537,187694.06,190010.634,8,400,42,,ISIC_6912233.JPG
break,html.Screen,4_41_1,2023-05-03T18:08:31.695Z,,0,,,NaN,,,,,,false,,,,190000.40000009537,190000.2000002861,,189999.40000009537,,190010.634,8,400,,,
break_continue,html.Screen,4_41_2,2023-05-03T18:08:31.695Z,,0,,,NaN,,,,,,false,,,,190000.90000009537,190000.7000002861,,190000.60000038147,,190010.634,8,400,,,
sequence,flow.Sequence,4_41,2023-05-03T18:08:31.695Z,,0,,,2306.6400002861046,completion,,,,,false,,,,190001.10000038147,190000.7000002861,187677.394,187690.80000019073,187694.06,190010.634,8,400,,,
trial,html.Screen,4_42_0,2023-05-03T18:08:33.992Z,,0,1,,2286.7660000953765,response,ISIC_0025215.JPG,,ISIC_8712559.JPG,ISIC_8712559.JPG,false,0,keypress(z),500,192297.90000009537,192297.40000009537,189993.968,190001.30000019073,190010.634,192310.955,8,400,43,,ISIC_0025215.JPG
break,html.Screen,4_42_1,2023-05-03T18:08:33.993Z,,0,,,NaN,,,,,,false,,,,192299.2000002861,192298.90000009537,,192298.2000002861,,192310.955,8,400,,,
break_continue,html.Screen,4_42_2,2023-05-03T18:08:33.994Z,,0,,,NaN,,,,,,false,,,,192299.7000002861,192299.60000038147,,192299.40000009537,,192310.955,8,400,,,
sequence,flow.Sequence,4_42,2023-05-03T18:08:33.994Z,,0,,,2288.966000381479,completion,,,,,false,,,,192299.90000009537,192299.60000038147,189993.968,190001.2000002861,190010.634,192310.955,8,400,,,
trial,html.Screen,4_43_0,2023-05-03T18:08:36.672Z,,0,1,,2666.545000000013,response,ISIC_7053271.JPG,,ISIC_0063988.JPG,ISIC_0063988.JPG,false,0,keypress(z),500,194977.90000009537,194977.5,192294.289,192300.10000038147,192310.955,194994.181,8,400,44,,ISIC_7053271.JPG
break,html.Screen,4_43_1,2023-05-03T18:08:36.673Z,,0,,,NaN,,,,,,false,,,,194979.2000002861,194979,,194978.2000002861,,194994.181,8,400,,,
break_continue,html.Screen,4_43_2,2023-05-03T18:08:36.674Z,,0,,,NaN,,,,,,false,,,,194979.7000002861,194979.60000038147,,194979.40000009537,,194994.181,8,400,,,
sequence,flow.Sequence,4_43,2023-05-03T18:08:36.674Z,,0,,,2668.6450003814825,completion,,,,,false,,,,194979.80000019073,194979.60000038147,192294.289,192300,192310.955,194994.181,8,400,,,
trial,html.Screen,4_44_0,2023-05-03T18:08:41.006Z,,0,1,,4317.119000190723,response,ISIC_9270367.JPG,,ISIC_5343231.JPG,ISIC_5343231.JPG,false,0,keypress(z),500,199311.7000002861,199311.30000019073,194977.515,194980.10000038147,194994.181,199327.341,8,400,45,,ISIC_9270367.JPG
break,html.Screen,4_44_1,2023-05-03T18:08:41.007Z,,0,,,NaN,,,,,,false,,,,199312.90000009537,199312.7000002861,,199312,,199327.341,8,400,,,
break_continue,html.Screen,4_44_2,2023-05-03T18:08:41.008Z,,0,,,NaN,,,,,,false,,,,199313.40000009537,199313.30000019073,,199313.10000038147,,199327.341,8,400,,,
sequence,flow.Sequence,4_44,2023-05-03T18:08:41.008Z,,0,,,4319.119000190723,completion,,,,,false,,,,199313.60000038147,199313.30000019073,194977.515,194980,194994.181,199327.341,8,400,,,
trial,html.Screen,4_45_0,2023-05-03T18:08:44.143Z,,0,1,,3120.959000190749,response,ISIC_0231745.JPG,,ISIC_0010807.JPG,ISIC_0010807.JPG,false,0,keypress(z),500,202448.5,202448.30000019073,199310.675,199313.80000019073,199327.341,202460.941,8,400,46,,ISIC_0231745.JPG
break,html.Screen,4_45_1,2023-05-03T18:08:44.143Z,,0,,,NaN,,,,,,false,,,,202449,202448.80000019073,,202448.60000038147,,202460.941,8,400,,,
break_continue,html.Screen,4_45_2,2023-05-03T18:08:44.143Z,,0,,,NaN,,,,,,false,,,,202449.10000038147,202449.10000038147,,202449,,202460.941,8,400,,,
sequence,flow.Sequence,4_45,2023-05-03T18:08:44.143Z,,0,,,3121.759000381484,completion,,,,,false,,,,202449.2000002861,202449.10000038147,199310.675,199313.7000002861,199327.341,202460.941,8,400,,,
trial,html.Screen,4_46_0,2023-05-03T18:08:46.757Z,,0,1,,2601.659000381478,response,ISIC_9572761.JPG,,ISIC_6785249.JPG,ISIC_6785249.JPG,false,0,keypress(z),500,205063,205062.60000038147,202444.275,202449.2000002861,202460.941,205077.503,8,400,47,,ISIC_9572761.JPG
break,html.Screen,4_46_1,2023-05-03T18:08:46.759Z,,0,,,NaN,,,,,,false,,,,205064.30000019073,205064,,205063.30000019073,,205077.503,8,400,,,
break_continue,html.Screen,4_46_2,2023-05-03T18:08:46.759Z,,0,,,NaN,,,,,,false,,,,205064.80000019073,205064.60000038147,,205064.40000009537,,205077.503,8,400,,,
sequence,flow.Sequence,4_46,2023-05-03T18:08:46.759Z,,0,,,2603.659000381478,completion,,,,,false,,,,205064.90000009537,205064.60000038147,202444.275,202449.2000002861,202460.941,205077.503,8,400,,,
trial,html.Screen,4_47_0,2023-05-03T18:08:51.790Z,,0,1,,5017.8970000953705,response,ISIC_0027646.JPG,,ISIC_5550263.JPG,ISIC_5550263.JPG,false,0,keypress(z),500,210095.80000019073,210095.40000009537,205060.837,205065.10000038147,205077.503,210127.301,8,400,48,,ISIC_0027646.JPG
break,html.Screen,4_47_1,2023-05-03T18:08:51.791Z,,0,,,NaN,,,,,,false,,,,210096.7000002861,210096.5,,210096,,210127.301,8,400,,,
break_continue,html.Screen,4_47_2,2023-05-03T18:08:51.791Z,,0,,,NaN,,,,,,false,,,,210097,210096.80000019073,,210096.7000002861,,210127.301,8,400,,,
sequence,flow.Sequence,4_47,2023-05-03T18:08:51.791Z,,0,,,5019.297000190738,completion,,,,,false,,,,210097,210096.80000019073,205060.837,205065,205077.503,210127.301,8,400,,,
trial,html.Screen,4_48_0,2023-05-03T18:08:56.231Z,,0,1,,4408.999000190728,response,ISIC_0012037.JPG,,ISIC_8423326.JPG,ISIC_8423326.JPG,false,0,keypress(z),500,214536.60000038147,214536.30000019073,210110.635,210097.10000038147,210127.301,214544.238,8,400,49,,ISIC_0012037.JPG
break,html.Screen,4_48_1,2023-05-03T18:08:56.232Z,,0,,,NaN,,,,,,false,,,,214537.5,214537.30000019073,,214536.80000019073,,214544.238,8,400,,,
break_continue,html.Screen,4_48_2,2023-05-03T18:08:56.232Z,,0,,,NaN,,,,,,false,,,,214537.80000019073,214537.80000019073,,214537.7000002861,,214544.238,8,400,,,
sequence,flow.Sequence,4_48,2023-05-03T18:08:56.232Z,,0,,,4410.499000190728,completion,,,,,false,,,,214538,214537.80000019073,210110.635,210097,210127.301,214544.238,8,400,,,
trial,html.Screen,4_49_0,2023-05-03T18:08:59.327Z,,0,1,,3088.261999999988,response,ISIC_0030077.JPG,,ISIC_0029910.JPG,ISIC_0029910.JPG,false,0,keypress(z),500,217632.90000009537,217632.5,214527.572,214538,214544.238,217644.114,8,400,50,,ISIC_0030077.JPG
break,html.Screen,4_49_1,2023-05-03T18:09:04.323Z,,0,,,4999.799999999988,timeout,,,,,false,,,,222629.2000002861,222627.248,217627.448,217633.10000038147,217644.114,222643.914,8,400,,,
break_continue,html.Screen,4_49_2,2023-05-03T18:09:06.710Z,,0,,,2359.68600038148,response,,,,,false,continue,keypress(Space),,225016.2000002861,225003.60000038147,222627.248,222629.40000009537,222643.914,225027.152,8,400,,,
sequence,flow.Sequence,4_49,2023-05-03T18:09:06.711Z,,0,,,10459.362000381458,completion,,,,,false,,,,225016.40000009537,225003.60000038147,214527.572,214538,214544.238,225027.152,8,400,,,
trial,html.Screen,4_50_0,2023-05-03T18:09:09.927Z,,0,2,,3204.847999999998,response,ISIC_7004652.JPG,,ISIC_7096885.JPG,ISIC_7096885.JPG,false,0,keypress(z),500,228232.40000009537,228232,225010.486,225016.40000009537,225027.152,228243.69,8,400,1,,ISIC_7004652.JPG
break,html.Screen,4_50_1,2023-05-03T18:09:09.928Z,,0,,,NaN,,,,,,false,,,,228233.80000019073,228233.5,,228232.80000019073,,228243.69,8,400,,,
break_continue,html.Screen,4_50_2,2023-05-03T18:09:09.928Z,,0,,,NaN,,,,,,false,,,,228234.2000002861,228234.10000038147,,228233.90000009537,,228243.69,8,400,,,
sequence,flow.Sequence,4_50,2023-05-03T18:09:09.929Z,,0,,,3206.948000381468,completion,,,,,false,,,,228234.40000009537,228234.10000038147,225010.486,225016.40000009537,225027.152,228243.69,8,400,,,
trial,html.Screen,4_51_0,2023-05-03T18:09:12.279Z,,0,2,,2340.5100002861,response,ISIC_9860895.JPG,,ISIC_0025061.JPG,ISIC_0025061.JPG,false,0,keypress(z),500,230584.60000038147,230584.2000002861,228227.024,228234.60000038147,228243.69,230593.596,8,400,2,,ISIC_9860895.JPG
break,html.Screen,4_51_1,2023-05-03T18:09:12.280Z,,0,,,NaN,,,,,,false,,,,230586,230585.7000002861,,230584.90000009537,,230593.596,8,400,,,
break_continue,html.Screen,4_51_2,2023-05-03T18:09:12.281Z,,0,,,NaN,,,,,,false,,,,230586.60000038147,230586.40000009537,,230586.2000002861,,230593.596,8,400,,,
sequence,flow.Sequence,4_51,2023-05-03T18:09:12.281Z,,0,,,2342.710000095365,completion,,,,,false,,,,230586.7000002861,230586.40000009537,228227.024,228234.5,228243.69,230593.596,8,400,,,
trial,html.Screen,4_52_0,2023-05-03T18:09:17.262Z,,0,2,,4974.204000190744,response,ISIC_4918571.JPG,,ISIC_0012382.JPG,ISIC_0012382.JPG,false,0,keypress(z),500,235568.2000002861,235567.80000019073,230576.93,230586.80000019073,230593.596,235594.239,8,400,3,,ISIC_4918571.JPG
break,html.Screen,4_52_1,2023-05-03T18:09:17.264Z,,0,,,NaN,,,,,,false,,,,235569.60000038147,235569.40000009537,,235568.5,,235594.239,8,400,,,
break_continue,html.Screen,4_52_2,2023-05-03T18:09:17.264Z,,0,,,NaN,,,,,,false,,,,235570.10000038147,235569.90000009537,,235569.80000019073,,235594.239,8,400,,,
sequence,flow.Sequence,4_52,2023-05-03T18:09:17.265Z,,0,,,4976.304000095377,completion,,,,,false,,,,235570.2000002861,235569.90000009537,230576.93,230586.80000019073,230593.596,235594.239,8,400,,,
trial,html.Screen,4_53_0,2023-05-03T18:09:19.599Z,,0,2,,2309.961000286101,response,ISIC_9268141.JPG,,ISIC_0056444.JPG,ISIC_0056444.JPG,false,0,keypress(z),500,237904.5,237904.2000002861,235577.573,235570.40000009537,235594.239,237910.813,8,400,4,,ISIC_9268141.JPG
break,html.Screen,4_53_1,2023-05-03T18:09:19.600Z,,0,,,NaN,,,,,,false,,,,237905.90000009537,237905.60000038147,,237904.90000009537,,237910.813,8,400,,,
break_continue,html.Screen,4_53_2,2023-05-03T18:09:19.601Z,,0,,,NaN,,,,,,false,,,,237906.40000009537,237906.30000019073,,237906.10000038147,,237910.813,8,400,,,
sequence,flow.Sequence,4_53,2023-05-03T18:09:19.601Z,,0,,,2312.0610001907335,completion,,,,,false,,,,237906.60000038147,237906.30000019073,235577.573,235570.40000009537,235594.239,237910.813,8,400,,,
trial,html.Screen,4_54_0,2023-05-03T18:09:22.423Z,,0,2,,2817.6870000000054,response,ISIC_0595080.JPG,,ISIC_0066355.JPG,ISIC_0066355.JPG,false,0,keypress(z),500,240729,240728.5,237894.147,237906.80000019073,237910.813,240744.033,8,400,5,,ISIC_0595080.JPG
break,html.Screen,4_54_1,2023-05-03T18:09:22.425Z,,0,,,NaN,,,,,,false,,,,240730.30000019073,240730,,240729.30000019073,,240744.033,8,400,,,
break_continue,html.Screen,4_54_2,2023-05-03T18:09:22.425Z,,0,,,NaN,,,,,,false,,,,240730.90000009537,240730.7000002861,,240730.5,,240744.033,8,400,,,
sequence,flow.Sequence,4_54,2023-05-03T18:09:22.425Z,,0,,,2819.8870002861077,completion,,,,,false,,,,240731,240730.7000002861,237894.147,237906.7000002861,237910.813,240744.033,8,400,,,
trial,html.Screen,4_55_0,2023-05-03T18:09:25.454Z,,0,2,,3014.8670000953716,response,ISIC_0010350.JPG,,ISIC_0029024.JPG,ISIC_0029024.JPG,false,0,keypress(z),500,243759.40000009537,243758.90000009537,240727.367,240731.2000002861,240744.033,243760.946,8,400,6,,ISIC_0010350.JPG
break,html.Screen,4_55_1,2023-05-03T18:09:25.455Z,,0,,,NaN,,,,,,false,,,,243760.7000002861,243760.40000009537,,243759.60000038147,,243760.946,8,400,,,
break_continue,html.Screen,4_55_2,2023-05-03T18:09:25.455Z,,0,,,NaN,,,,,,false,,,,243761.2000002861,243761.10000038147,,243760.90000009537,,243760.946,8,400,,,
sequence,flow.Sequence,4_55,2023-05-03T18:09:25.456Z,,0,,,3017.067000381474,completion,,,,,false,,,,243761.40000009537,243761.10000038147,240727.367,240731.10000038147,240744.033,243760.946,8,400,,,
trial,html.Screen,4_56_0,2023-05-03T18:09:28.872Z,,0,2,,3416.8540001907386,response,ISIC_4166490.JPG,,ISIC_9709594.JPG,ISIC_9709594.JPG,false,0,keypress(z),500,247178.2000002861,247177.80000019073,243744.28,243761.60000038147,243760.946,247194.142,8,400,7,,ISIC_4166490.JPG
break,html.Screen,4_56_1,2023-05-03T18:09:28.874Z,,0,,,NaN,,,,,,false,,,,247179.30000019073,247179,,247178.5,,247194.142,8,400,,,
break_continue,html.Screen,4_56_2,2023-05-03T18:09:28.874Z,,0,,,NaN,,,,,,false,,,,247179.60000038147,247179.5,,247179.40000009537,,247194.142,8,400,,,
sequence,flow.Sequence,4_56,2023-05-03T18:09:28.874Z,,0,,,3418.5540000000037,completion,,,,,false,,,,247179.7000002861,247179.5,243744.28,243761.5,243760.946,247194.142,8,400,,,
trial,html.Screen,4_57_0,2023-05-03T18:09:31.488Z,,0,2,,2599.458000381477,response,ISIC_0013459.JPG,,ISIC_3549225.JPG,ISIC_3549225.JPG,false,0,keypress(z),500,249794.2000002861,249793.60000038147,247177.476,247179.80000019073,247194.142,249810.704,8,400,8,,ISIC_0013459.JPG
break,html.Screen,4_57_1,2023-05-03T18:09:31.490Z,,0,,,NaN,,,,,,false,,,,249795.60000038147,249795.30000019073,,249794.5,,249810.704,8,400,,,
break_continue,html.Screen,4_57_2,2023-05-03T18:09:31.490Z,,0,,,NaN,,,,,,false,,,,249796.10000038147,249795.90000009537,,249795.80000019073,,249810.704,8,400,,,
sequence,flow.Sequence,4_57,2023-05-03T18:09:31.490Z,,0,,,2601.758000095375,completion,,,,,false,,,,249796.10000038147,249795.90000009537,247177.476,247179.7000002861,247194.142,249810.704,8,400,,,
trial,html.Screen,4_58_0,2023-05-03T18:09:33.870Z,,0,2,,2364.896000381472,response,ISIC_0059722.JPG,,ISIC_0033278.JPG,ISIC_0033278.JPG,false,0,keypress(z),500,252176.10000038147,252175.60000038147,249794.038,249796.30000019073,249810.704,252193.942,8,400,9,,ISIC_0059722.JPG
break,html.Screen,4_58_1,2023-05-03T18:09:33.872Z,,0,,,NaN,,,,,,false,,,,252177.5,252177.30000019073,,252176.5,,252193.942,8,400,,,
break_continue,html.Screen,4_58_2,2023-05-03T18:09:33.872Z,,0,,,NaN,,,,,,false,,,,252177.90000009537,252177.80000019073,,252177.7000002861,,252193.942,8,400,,,
sequence,flow.Sequence,4_58,2023-05-03T18:09:33.872Z,,0,,,2367.096000190737,completion,,,,,false,,,,252178.2000002861,252177.80000019073,249794.038,249796.30000019073,249810.704,252193.942,8,400,,,
trial,html.Screen,4_59_0,2023-05-03T18:09:36.335Z,,0,2,,2446.1580003814597,response,ISIC_5796736.JPG,,ISIC_9354965.JPG,ISIC_9354965.JPG,false,0,keypress(z),500,254640.60000038147,254640.10000038147,252177.276,252178.40000009537,252193.942,254644.294,8,400,10,,ISIC_5796736.JPG
break,html.Screen,4_59_1,2023-05-03T18:09:36.336Z,,0,,,NaN,,,,,,false,,,,254642,254641.7000002861,,254641,,254644.294,8,400,,,
break_continue,html.Screen,4_59_2,2023-05-03T18:09:36.337Z,,0,,,NaN,,,,,,false,,,,254642.5,254642.30000019073,,254642.10000038147,,254644.294,8,400,,,
sequence,flow.Sequence,4_59,2023-05-03T18:09:36.337Z,,0,,,2448.358000190725,completion,,,,,false,,,,254642.60000038147,254642.30000019073,252177.276,252178.2000002861,252193.942,254644.294,8,400,,,
trial,html.Screen,4_60_0,2023-05-03T18:09:39.657Z,,0,2,,3318.3060003814753,response,ISIC_1114966.JPG,,ISIC_0010782.JPG,ISIC_0010782.JPG,false,0,keypress(z),500,257963.10000038147,257962.60000038147,254627.628,254642.90000009537,254644.294,257977.494,8,400,11,,ISIC_1114966.JPG
break,html.Screen,4_60_1,2023-05-03T18:09:39.659Z,,0,,,NaN,,,,,,false,,,,257964.60000038147,257964.2000002861,,257963.5,,257977.494,8,400,,,
break_continue,html.Screen,4_60_2,2023-05-03T18:09:39.660Z,,0,,,NaN,,,,,,false,,,,257965.30000019073,257965.10000038147,,257964.80000019073,,257977.494,8,400,,,
sequence,flow.Sequence,4_60,2023-05-03T18:09:39.660Z,,0,,,3320.8060003814753,completion,,,,,false,,,,257965.5,257965.10000038147,254627.628,254642.80000019073,254644.294,257977.494,8,400,,,
trial,html.Screen,4_61_0,2023-05-03T18:09:42.189Z,,0,2,,2517.005999999994,response,ISIC_5910975.JPG,,ISIC_0009998.JPG,ISIC_0009998.JPG,false,0,keypress(z),500,260494.80000019073,260494.5,257960.828,257965.7000002861,257977.494,260510.726,8,400,12,,ISIC_5910975.JPG
break,html.Screen,4_61_1,2023-05-03T18:09:42.190Z,,0,,,NaN,,,,,,false,,,,260496.2000002861,260495.80000019073,,260495.2000002861,,260510.726,8,400,,,
break_continue,html.Screen,4_61_2,2023-05-03T18:09:42.191Z,,0,,,NaN,,,,,,false,,,,260496.60000038147,260496.5,,260496.30000019073,,260510.726,8,400,,,
sequence,flow.Sequence,4_61,2023-05-03T18:09:42.191Z,,0,,,2519.005999999994,completion,,,,,false,,,,260496.7000002861,260496.5,257960.828,257965.7000002861,257977.494,260510.726,8,400,,,
trial,html.Screen,4_62_0,2023-05-03T18:09:45.159Z,,0,2,,2953.274000000005,response,ISIC_0031763.JPG,,ISIC_6511689.JPG,ISIC_6511689.JPG,false,0,keypress(z),500,263464.5,263464,260494.06,260496.80000019073,260510.726,263477.673,8,400,13,,ISIC_0031763.JPG
break,html.Screen,4_62_1,2023-05-03T18:09:45.160Z,,0,,,NaN,,,,,,false,,,,263466,263465.7000002861,,263465,,263477.673,8,400,,,
break_continue,html.Screen,4_62_2,2023-05-03T18:09:45.161Z,,0,,,NaN,,,,,,false,,,,263466.5,263466.40000009537,,263466.10000038147,,263477.673,8,400,,,
sequence,flow.Sequence,4_62,2023-05-03T18:09:45.161Z,,0,,,2955.6740000953723,completion,,,,,false,,,,263466.7000002861,263466.40000009537,260494.06,260496.80000019073,260510.726,263477.673,8,400,,,
trial,html.Screen,4_63_0,2023-05-03T18:09:47.719Z,,0,2,,2546.92700038146,response,ISIC_5309572.JPG,,ISIC_0011772.JPG,ISIC_0011772.JPG,false,0,keypress(z),500,266025.10000038147,266024.60000038147,263461.007,263466.7000002861,263477.673,266027.571,8,400,14,,ISIC_5309572.JPG
break,html.Screen,4_63_1,2023-05-03T18:09:47.721Z,,0,,,NaN,,,,,,false,,,,266026.5,266026.2000002861,,266025.40000009537,,266027.571,8,400,,,
break_continue,html.Screen,4_63_2,2023-05-03T18:09:47.721Z,,0,,,NaN,,,,,,false,,,,266027,266026.90000009537,,266026.60000038147,,266027.571,8,400,,,
sequence,flow.Sequence,4_63,2023-05-03T18:09:47.721Z,,0,,,2549.2270000953577,completion,,,,,false,,,,266027.2000002861,266026.90000009537,263461.007,263466.7000002861,263477.673,266027.571,8,400,,,
trial,html.Screen,4_64_0,2023-05-03T18:09:50.687Z,,0,2,,2964.4290000000037,response,ISIC_6201338.JPG,,ISIC_0070012.JPG,ISIC_0070012.JPG,false,0,keypress(z),500,268992.40000009537,268992,266010.905,266027.30000019073,266027.571,268994.119,8,400,15,,ISIC_6201338.JPG
break,html.Screen,4_64_1,2023-05-03T18:09:50.688Z,,0,,,NaN,,,,,,false,,,,268993.90000009537,268993.60000038147,,268992.7000002861,,268994.119,8,400,,,
break_continue,html.Screen,4_64_2,2023-05-03T18:09:50.689Z,,0,,,NaN,,,,,,false,,,,268994.40000009537,268994.30000019073,,268994.10000038147,,268994.119,8,400,,,
sequence,flow.Sequence,4_64,2023-05-03T18:09:50.689Z,,0,,,2966.7290001907386,completion,,,,,false,,,,268994.60000038147,268994.30000019073,266010.905,266027.30000019073,266027.571,268994.119,8,400,,,
trial,html.Screen,4_65_0,2023-05-03T18:09:53.358Z,,0,2,,2669.0810002860962,response,ISIC_7824688.JPG,,ISIC_4482610.JPG,ISIC_4482610.JPG,false,0,keypress(z),500,271663.7000002861,271663.2000002861,268977.453,268994.80000019073,268994.119,271677.345,8,400,16,,ISIC_7824688.JPG
break,html.Screen,4_65_1,2023-05-03T18:09:53.359Z,,0,,,NaN,,,,,,false,,,,271665,271664.7000002861,,271664,,271677.345,8,400,,,
break_continue,html.Screen,4_65_2,2023-05-03T18:09:53.360Z,,0,,,NaN,,,,,,false,,,,271665.5,271665.30000019073,,271665.2000002861,,271677.345,8,400,,,
sequence,flow.Sequence,4_65,2023-05-03T18:09:53.360Z,,0,,,2671.181000190729,completion,,,,,false,,,,271665.7000002861,271665.30000019073,268977.453,268994.80000019073,268994.119,271677.345,8,400,,,
trial,html.Screen,4_66_0,2023-05-03T18:09:55.870Z,,0,2,,2498.2550003814977,response,ISIC_0014707.JPG,,ISIC_0003664.JPG,ISIC_0003664.JPG,false,0,keypress(z),500,274176.10000038147,274175.60000038147,271660.679,271665.80000019073,271677.345,274177.687,8,400,17,,ISIC_0014707.JPG
break,html.Screen,4_66_1,2023-05-03T18:09:55.872Z,,0,,,NaN,,,,,,false,,,,274177.5,274177.2000002861,,274176.40000009537,,274177.687,8,400,,,
break_continue,html.Screen,4_66_2,2023-05-03T18:09:55.872Z,,0,,,NaN,,,,,,false,,,,274177.90000009537,274177.80000019073,,274177.60000038147,,274177.687,8,400,,,
sequence,flow.Sequence,4_66,2023-05-03T18:09:55.872Z,,0,,,2500.455000190763,completion,,,,,false,,,,274177.90000009537,274177.80000019073,271660.679,271665.80000019073,271677.345,274177.687,8,400,,,
trial,html.Screen,4_67_0,2023-05-03T18:09:58.686Z,,0,2,,2813.9130003814935,response,ISIC_0027683.JPG,,ISIC_0890398.JPG,ISIC_0890398.JPG,false,0,keypress(Z),500,276992.10000038147,276991.60000038147,274161.021,274178.10000038147,274177.687,276994.241,8,400,18,,ISIC_0027683.JPG
break,html.Screen,4_67_1,2023-05-03T18:09:58.688Z,,0,,,NaN,,,,,,false,,,,276993.60000038147,276993.30000019073,,276992.5,,276994.241,8,400,,,
break_continue,html.Screen,4_67_2,2023-05-03T18:09:58.688Z,,0,,,NaN,,,,,,false,,,,276994.10000038147,276993.90000009537,,276993.7000002861,,276994.241,8,400,,,
sequence,flow.Sequence,4_67,2023-05-03T18:09:58.688Z,,0,,,2816.213000095391,completion,,,,,false,,,,276994.2000002861,276993.90000009537,274161.021,274178,274177.687,276994.241,8,400,,,
trial,html.Screen,4_68_0,2023-05-03T18:10:01.254Z,,0,2,,2565.25900000002,response,ISIC_0028666.JPG,,ISIC_2391053.JPG,ISIC_2391053.JPG,false,0,keypress(Z),500,279560,279559.5,276977.575,276994.40000009537,276994.241,279577.471,8,400,19,,ISIC_0028666.JPG
break,html.Screen,4_68_1,2023-05-03T18:10:01.256Z,,0,,,NaN,,,,,,false,,,,279561.40000009537,279561.10000038147,,279560.40000009537,,279577.471,8,400,,,
break_continue,html.Screen,4_68_2,2023-05-03T18:10:01.256Z,,0,,,NaN,,,,,,false,,,,279561.7000002861,279561.60000038147,,279561.5,,279577.471,8,400,,,
sequence,flow.Sequence,4_68,2023-05-03T18:10:01.256Z,,0,,,2567.3590003814897,completion,,,,,false,,,,279561.80000019073,279561.60000038147,276977.575,276994.30000019073,276994.241,279577.471,8,400,,,
trial,html.Screen,4_69_0,2023-05-03T18:10:04.598Z,,0,2,,3325.429000095348,response,ISIC_0068530.JPG,,ISIC_6590303.JPG,ISIC_6590303.JPG,false,0,keypress(Z),500,282903.40000009537,282902.90000009537,279560.805,279561.90000009537,279577.471,282910.671,8,400,20,,ISIC_0068530.JPG
break,html.Screen,4_69_1,2023-05-03T18:10:04.599Z,,0,,,NaN,,,,,,false,,,,282904.80000019073,282904.5,,282903.7000002861,,282910.671,8,400,,,
break_continue,html.Screen,4_69_2,2023-05-03T18:10:04.600Z,,0,,,NaN,,,,,,false,,,,282905.30000019073,282905.2000002861,,282905,,282910.671,8,400,,,
sequence,flow.Sequence,4_69,2023-05-03T18:10:04.600Z,,0,,,3327.7290002860827,completion,,,,,false,,,,282905.5,282905.2000002861,279560.805,279561.90000009537,279577.471,282910.671,8,400,,,
trial,html.Screen,4_70_0,2023-05-03T18:10:08.352Z,,0,2,,3746.829000000027,response,ISIC_5611010.JPG,,ISIC_0065823.JPG,ISIC_0065823.JPG,false,0,keypress(Z),500,286657.90000009537,286657.5,282894.005,282905.60000038147,282910.671,286660.948,8,400,21,,ISIC_5611010.JPG
break,html.Screen,4_70_1,2023-05-03T18:10:08.354Z,,0,,,NaN,,,,,,false,,,,286659.30000019073,286659,,286658.2000002861,,286660.948,8,400,,,
break_continue,html.Screen,4_70_2,2023-05-03T18:10:08.354Z,,0,,,NaN,,,,,,false,,,,286659.80000019073,286659.7000002861,,286659.5,,286660.948,8,400,,,
sequence,flow.Sequence,4_70,2023-05-03T18:10:08.354Z,,0,,,3749.0290002861293,completion,,,,,false,,,,286659.90000009537,286659.7000002861,282894.005,282905.60000038147,282910.671,286660.948,8,400,,,
trial,html.Screen,4_71_0,2023-05-03T18:10:10.790Z,,0,2,,2434.652000381495,response,ISIC_0032526.JPG,,ISIC_9684318.JPG,ISIC_9684318.JPG,false,0,keypress(Z),500,289096.2000002861,289095.60000038147,286644.282,286660.10000038147,286660.948,289110.85,8,400,22,,ISIC_0032526.JPG
break,html.Screen,4_71_1,2023-05-03T18:10:10.792Z,,0,,,NaN,,,,,,false,,,,289097.5,289097.2000002861,,289096.40000009537,,289110.85,8,400,,,
break_continue,html.Screen,4_71_2,2023-05-03T18:10:10.792Z,,0,,,NaN,,,,,,false,,,,289098.10000038147,289097.90000009537,,289097.7000002861,,289110.85,8,400,,,
sequence,flow.Sequence,4_71,2023-05-03T18:10:10.792Z,,0,,,2436.9520000953926,completion,,,,,false,,,,289098.2000002861,289097.90000009537,286644.282,286660.10000038147,286660.948,289110.85,8,400,,,
trial,html.Screen,4_72_0,2023-05-03T18:10:14.447Z,,0,2,,3641.1500000000233,response,ISIC_0028317.JPG,,ISIC_1247683.JPG,ISIC_1247683.JPG,false,0,keypress(Z),500,292752.40000009537,292752,289094.184,289098.40000009537,289110.85,292760.704,8,400,23,,ISIC_0028317.JPG
break,html.Screen,4_72_1,2023-05-03T18:10:14.448Z,,0,,,NaN,,,,,,false,,,,292753.80000019073,292753.40000009537,,292752.7000002861,,292760.704,8,400,,,
break_continue,html.Screen,4_72_2,2023-05-03T18:10:14.448Z,,0,,,NaN,,,,,,false,,,,292754.2000002861,292754.10000038147,,292753.90000009537,,292760.704,8,400,,,
sequence,flow.Sequence,4_72,2023-05-03T18:10:14.449Z,,0,,,3643.250000381493,completion,,,,,false,,,,292754.40000009537,292754.10000038147,289094.184,289098.30000019073,289110.85,292760.704,8,400,,,
trial,html.Screen,4_73_0,2023-05-03T18:10:17.293Z,,0,2,,2837.8960003814427,response,ISIC_3520750.JPG,,ISIC_6734679.JPG,ISIC_6734679.JPG,false,0,keypress(Z),500,295599.10000038147,295598.60000038147,292744.038,292754.60000038147,292760.704,295610.992,8,400,24,,ISIC_3520750.JPG
break,html.Screen,4_73_1,2023-05-03T18:10:17.295Z,,0,,,NaN,,,,,,false,,,,295600.5,295600.2000002861,,295599.40000009537,,295610.992,8,400,,,
break_continue,html.Screen,4_73_2,2023-05-03T18:10:17.295Z,,0,,,NaN,,,,,,false,,,,295601.10000038147,295600.80000019073,,295600.60000038147,,295610.992,8,400,,,
sequence,flow.Sequence,4_73,2023-05-03T18:10:17.295Z,,0,,,2840.096000190708,completion,,,,,false,,,,295601.2000002861,295600.80000019073,292744.038,292754.5,292760.704,295610.992,8,400,,,
trial,html.Screen,4_74_0,2023-05-03T18:10:20.958Z,,0,2,,3652.40800009534,response,ISIC_0063046.JPG,,ISIC_0004794.JPG,ISIC_0004794.JPG,false,0,keypress(Z),500,299263.80000019073,299263.40000009537,295594.326,295601.40000009537,295610.992,299277.512,8,400,25,,ISIC_0063046.JPG
break,html.Screen,4_74_1,2023-05-03T18:10:20.959Z,,0,,,NaN,,,,,,false,,,,299265.2000002861,299264.90000009537,,299264.10000038147,,299277.512,8,400,,,
break_continue,html.Screen,4_74_2,2023-05-03T18:10:20.960Z,,0,,,NaN,,,,,,false,,,,299265.60000038147,299265.5,,299265.30000019073,,299277.512,8,400,,,
sequence,flow.Sequence,4_74,2023-05-03T18:10:20.960Z,,0,,,3654.5079999999725,completion,,,,,false,,,,299265.7000002861,299265.5,295594.326,295601.30000019073,295610.992,299277.512,8,400,,,
trial,html.Screen,4_75_0,2023-05-03T18:10:23.695Z,,0,2,,2722.3880000953795,response,ISIC_0058753.JPG,,ISIC_8287726.JPG,ISIC_8287726.JPG,false,0,keypress(Z),500,302000.30000019073,301999.90000009537,299260.846,299265.90000009537,299277.512,302010.736,8,400,26,,ISIC_0058753.JPG
break,html.Screen,4_75_1,2023-05-03T18:10:23.696Z,,0,,,NaN,,,,,,false,,,,302001.80000019073,302001.5,,302000.7000002861,,302010.736,8,400,,,
break_continue,html.Screen,4_75_2,2023-05-03T18:10:23.696Z,,0,,,NaN,,,,,,false,,,,302002.2000002861,302002.10000038147,,302002,,302010.736,8,400,,,
sequence,flow.Sequence,4_75,2023-05-03T18:10:23.697Z,,0,,,2724.588000381482,completion,,,,,false,,,,302002.40000009537,302002.10000038147,299260.846,299265.80000019073,299277.512,302010.736,8,400,,,
trial,html.Screen,4_76_0,2023-05-03T18:10:26.792Z,,0,2,,3086.7640000000247,response,ISIC_0032187.JPG,,ISIC_0009941.JPG,ISIC_0009941.JPG,false,0,keypress(Z),500,305098,305097.5,301994.07,302002.60000038147,302010.736,305111.001,8,400,27,,ISIC_0032187.JPG
break,html.Screen,4_76_1,2023-05-03T18:10:26.794Z,,0,,,NaN,,,,,,false,,,,305099.40000009537,305099,,305098.30000019073,,305111.001,8,400,,,
break_continue,html.Screen,4_76_2,2023-05-03T18:10:26.794Z,,0,,,NaN,,,,,,false,,,,305099.80000019073,305099.7000002861,,305099.5,,305111.001,8,400,,,
sequence,flow.Sequence,4_76,2023-05-03T18:10:26.794Z,,0,,,3088.964000286127,completion,,,,,false,,,,305100,305099.7000002861,301994.07,302002.60000038147,302010.736,305111.001,8,400,,,
trial,html.Screen,4_77_0,2023-05-03T18:10:29.221Z,,0,2,,2415.399000095378,response,ISIC_0030921.JPG,,ISIC_0345607.JPG,ISIC_0345607.JPG,false,0,keypress(Z),500,307526.90000009537,307526.40000009537,305094.335,305100.30000019073,305111.001,307544.237,8,400,28,,ISIC_0030921.JPG
break,html.Screen,4_77_1,2023-05-03T18:10:29.222Z,,0,,,NaN,,,,,,false,,,,307528.2000002861,307527.90000009537,,307527.2000002861,,307544.237,8,400,,,
break_continue,html.Screen,4_77_2,2023-05-03T18:10:29.223Z,,0,,,NaN,,,,,,false,,,,307528.7000002861,307528.60000038147,,307528.40000009537,,307544.237,8,400,,,
sequence,flow.Sequence,4_77,2023-05-03T18:10:29.223Z,,0,,,2417.5990003814804,completion,,,,,false,,,,307528.90000009537,307528.60000038147,305094.335,305100.2000002861,305111.001,307544.237,8,400,,,
trial,html.Screen,4_78_0,2023-05-03T18:10:31.886Z,,0,2,,2646.6630000953446,response,ISIC_7171090.JPG,,ISIC_0064633.JPG,ISIC_0064633.JPG,false,0,keypress(Z),500,310191.40000009537,310190.90000009537,307527.571,307529.10000038147,307544.237,310194.131,8,400,29,,ISIC_7171090.JPG
break,html.Screen,4_78_1,2023-05-03T18:10:31.887Z,,0,,,NaN,,,,,,false,,,,310192.7000002861,310192.40000009537,,310191.60000038147,,310194.131,8,400,,,
break_continue,html.Screen,4_78_2,2023-05-03T18:10:31.887Z,,0,,,NaN,,,,,,false,,,,310193.10000038147,310193,,310192.90000009537,,310194.131,8,400,,,
sequence,flow.Sequence,4_78,2023-05-03T18:10:31.887Z,,0,,,2648.762999999977,completion,,,,,false,,,,310193.30000019073,310193,307527.571,307529,307544.237,310194.131,8,400,,,
trial,html.Screen,4_79_0,2023-05-03T18:10:35.270Z,,0,2,,3381.169000190741,response,ISIC_0008162.JPG,,ISIC_0067443.JPG,ISIC_0067443.JPG,false,0,keypress(z),500,313575.5,313575.30000019073,310177.465,310193.40000009537,310194.131,313577.329,8,400,30,,ISIC_0008162.JPG
break,html.Screen,4_79_1,2023-05-03T18:10:35.271Z,,0,,,NaN,,,,,,false,,,,313576.40000009537,313576.30000019073,,313575.7000002861,,313577.329,8,400,,,
break_continue,html.Screen,4_79_2,2023-05-03T18:10:35.271Z,,0,,,NaN,,,,,,false,,,,313576.7000002861,313576.7000002861,,313576.5,,313577.329,8,400,,,
sequence,flow.Sequence,4_79,2023-05-03T18:10:35.271Z,,0,,,3382.5690002861083,completion,,,,,false,,,,313576.80000019073,313576.7000002861,310177.465,310193.30000019073,310194.131,313577.329,8,400,,,
trial,html.Screen,4_80_0,2023-05-03T18:10:38.368Z,,0,2,,3096.2710003814427,response,ISIC_0027252.JPG,,ISIC_0000467.JPG,ISIC_0000467.JPG,false,0,keypress(z),500,316674,316673.60000038147,313560.663,313576.90000009537,313577.329,316677.663,8,400,31,,ISIC_0027252.JPG
break,html.Screen,4_80_1,2023-05-03T18:10:38.370Z,,0,,,NaN,,,,,,false,,,,316675.40000009537,316675.10000038147,,316674.40000009537,,316677.663,8,400,,,
break_continue,html.Screen,4_80_2,2023-05-03T18:10:38.370Z,,0,,,NaN,,,,,,false,,,,316675.90000009537,316675.80000019073,,316675.5,,316677.663,8,400,,,
sequence,flow.Sequence,4_80,2023-05-03T18:10:38.370Z,,0,,,3098.471000190708,completion,,,,,false,,,,316676.10000038147,316675.80000019073,313560.663,313576.90000009537,313577.329,316677.663,8,400,,,
trial,html.Screen,4_81_0,2023-05-03T18:10:42.559Z,,0,2,,4186.537000286102,response,ISIC_5852396.JPG,,ISIC_8082988.JPG,ISIC_8082988.JPG,false,0,keypress(z),500,320864.80000019073,320864.2000002861,316660.997,316676.2000002861,316677.663,320877.495,8,400,32,,ISIC_5852396.JPG
break,html.Screen,4_81_1,2023-05-03T18:10:42.560Z,,0,,,NaN,,,,,,false,,,,320866.30000019073,320865.80000019073,,320865.10000038147,,320877.495,8,400,,,
break_continue,html.Screen,4_81_2,2023-05-03T18:10:42.561Z,,0,,,NaN,,,,,,false,,,,320866.7000002861,320866.60000038147,,320866.40000009537,,320877.495,8,400,,,
sequence,flow.Sequence,4_81,2023-05-03T18:10:42.561Z,,0,,,4188.937000381469,completion,,,,,false,,,,320866.90000009537,320866.60000038147,316660.997,316676.10000038147,316677.663,320877.495,8,400,,,
trial,html.Screen,4_82_0,2023-05-03T18:10:45.727Z,,0,2,,3154.5050000000047,response,ISIC_3559222.JPG,,ISIC_0030913.JPG,ISIC_0030913.JPG,false,0,keypress(z),500,324032.60000038147,324032,320860.829,320867,320877.495,324044.035,8,400,33,,ISIC_3559222.JPG
break,html.Screen,4_82_1,2023-05-03T18:10:45.728Z,,0,,,NaN,,,,,,false,,,,324033.80000019073,324033.60000038147,,324032.80000019073,,324044.035,8,400,,,
break_continue,html.Screen,4_82_2,2023-05-03T18:10:45.729Z,,0,,,NaN,,,,,,false,,,,324034.40000009537,324034.2000002861,,324034,,324044.035,8,400,,,
sequence,flow.Sequence,4_82,2023-05-03T18:10:45.729Z,,0,,,3156.705000286107,completion,,,,,false,,,,324034.5,324034.2000002861,320860.829,320866.90000009537,320877.495,324044.035,8,400,,,
trial,html.Screen,4_83_0,2023-05-03T18:10:49.544Z,,0,2,,3805.665000286128,response,ISIC_0031741.JPG,,ISIC_0033653.JPG,ISIC_0033653.JPG,false,0,keypress(z),500,327850.2000002861,327849.7000002861,324027.369,324034.7000002861,324044.035,327860.971,8,400,34,,ISIC_0031741.JPG
break,html.Screen,4_83_1,2023-05-03T18:10:49.546Z,,0,,,NaN,,,,,,false,,,,327851.60000038147,327851.30000019073,,327850.40000009537,,327860.971,8,400,,,
break_continue,html.Screen,4_83_2,2023-05-03T18:10:49.546Z,,0,,,NaN,,,,,,false,,,,327852,327851.80000019073,,327851.60000038147,,327860.971,8,400,,,
sequence,flow.Sequence,4_83,2023-05-03T18:10:49.546Z,,0,,,3807.7650001907605,completion,,,,,false,,,,327852.2000002861,327851.80000019073,324027.369,324034.60000038147,324044.035,327860.971,8,400,,,
trial,html.Screen,4_84_0,2023-05-03T18:10:52.880Z,,0,2,,3324.8290001907153,response,ISIC_0028755.JPG,,ISIC_8978290.JPG,ISIC_8978290.JPG,false,0,keypress(z),500,331186.2000002861,331185.80000019073,327844.305,327852.30000019073,327860.971,331194.171,8,400,35,,ISIC_0028755.JPG
break,html.Screen,4_84_1,2023-05-03T18:10:52.882Z,,0,,,NaN,,,,,,false,,,,331187.60000038147,331187.40000009537,,331186.5,,331194.171,8,400,,,
break_continue,html.Screen,4_84_2,2023-05-03T18:10:52.882Z,,0,,,NaN,,,,,,false,,,,331187.90000009537,331187.80000019073,,331187.7000002861,,331194.171,8,400,,,
sequence,flow.Sequence,4_84,2023-05-03T18:10:52.882Z,,0,,,3326.8290001907153,completion,,,,,false,,,,331188,331187.80000019073,327844.305,327852.30000019073,327860.971,331194.171,8,400,,,
trial,html.Screen,4_85_0,2023-05-03T18:10:55.758Z,,0,2,,2869.5290002861293,response,ISIC_0054963.JPG,,ISIC_0031843.JPG,ISIC_0031843.JPG,false,0,keypress(Z),500,334064.2000002861,334063.7000002861,331177.505,331188.10000038147,331194.171,334077.389,8,400,36,,ISIC_0054963.JPG
break,html.Screen,4_85_1,2023-05-03T18:10:55.760Z,,0,,,NaN,,,,,,false,,,,334065.60000038147,334065.30000019073,,334064.5,,334077.389,8,400,,,
break_continue,html.Screen,4_85_2,2023-05-03T18:10:55.760Z,,0,,,NaN,,,,,,false,,,,334066,334065.90000009537,,334065.80000019073,,334077.389,8,400,,,
sequence,flow.Sequence,4_85,2023-05-03T18:10:55.760Z,,0,,,2871.7290000953944,completion,,,,,false,,,,334066.2000002861,334065.90000009537,331177.505,331188.10000038147,331194.171,334077.389,8,400,,,
trial,html.Screen,4_86_0,2023-05-03T18:10:58.057Z,,0,2,,2284.5110000953428,response,ISIC_4084359.JPG,,ISIC_4354896.JPG,ISIC_4354896.JPG,false,0,keypress(Z),500,336362.40000009537,336361.90000009537,334060.723,334066.40000009537,334077.389,336377.699,8,400,37,,ISIC_4084359.JPG
break,html.Screen,4_86_1,2023-05-03T18:10:58.058Z,,0,,,NaN,,,,,,false,,,,336363.90000009537,336363.60000038147,,336362.7000002861,,336377.699,8,400,,,
break_continue,html.Screen,4_86_2,2023-05-03T18:10:58.059Z,,0,,,NaN,,,,,,false,,,,336364.30000019073,336364.2000002861,,336364,,336377.699,8,400,,,
sequence,flow.Sequence,4_86,2023-05-03T18:10:58.059Z,,0,,,2286.8110002860776,completion,,,,,false,,,,336364.5,336364.2000002861,334060.723,334066.40000009537,334077.389,336377.699,8,400,,,
trial,html.Screen,4_87_0,2023-05-03T18:11:01.201Z,,0,2,,3128.3009999999776,response,ISIC_3296136.JPG,,ISIC_1348843.JPG,ISIC_1348843.JPG,false,0,keypress(Z),500,339506.5,339506,336361.033,336364.7000002861,336377.699,339510.907,8,400,38,,ISIC_3296136.JPG
break,html.Screen,4_87_1,2023-05-03T18:11:01.202Z,,0,,,NaN,,,,,,false,,,,339508.10000038147,339507.80000019073,,339506.90000009537,,339510.907,8,400,,,
break_continue,html.Screen,4_87_2,2023-05-03T18:11:01.203Z,,0,,,NaN,,,,,,false,,,,339508.5,339508.30000019073,,339508.2000002861,,339510.907,8,400,,,
sequence,flow.Sequence,4_87,2023-05-03T18:11:01.203Z,,0,,,3130.6010001907125,completion,,,,,false,,,,339508.60000038147,339508.30000019073,336361.033,336364.7000002861,336377.699,339510.907,8,400,,,
trial,html.Screen,4_88_0,2023-05-03T18:11:05.945Z,,0,2,,4739.193000381463,response,ISIC_6576397.JPG,,ISIC_7489564.JPG,ISIC_7489564.JPG,false,0,keypress(Z),500,344250.5,344250.10000038147,339494.241,339508.60000038147,339510.907,344260.717,8,400,39,,ISIC_6576397.JPG
break,html.Screen,4_88_1,2023-05-03T18:11:05.946Z,,0,,,NaN,,,,,,false,,,,344251.90000009537,344251.60000038147,,344250.80000019073,,344260.717,8,400,,,
break_continue,html.Screen,4_88_2,2023-05-03T18:11:05.947Z,,0,,,NaN,,,,,,false,,,,344252.40000009537,344252.2000002861,,344252.10000038147,,344260.717,8,400,,,
sequence,flow.Sequence,4_88,2023-05-03T18:11:05.947Z,,0,,,4741.293000286096,completion,,,,,false,,,,344252.5,344252.2000002861,339494.241,339508.60000038147,339510.907,344260.717,8,400,,,
trial,html.Screen,4_89_0,2023-05-03T18:11:08.660Z,,0,2,,2704.983000286098,response,ISIC_0030597.JPG,,ISIC_1144024.JPG,ISIC_1144024.JPG,false,0,keypress(z),500,346966.10000038147,346965.7000002861,344244.051,344252.7000002861,344260.717,346994.33,8,400,40,,ISIC_0030597.JPG
break,html.Screen,4_89_1,2023-05-03T18:11:08.661Z,,0,,,NaN,,,,,,false,,,,346967.2000002861,346967,,346966.40000009537,,346994.33,8,400,,,
break_continue,html.Screen,4_89_2,2023-05-03T18:11:08.662Z,,0,,,NaN,,,,,,false,,,,346967.5,346967.40000009537,,346967.30000019073,,346994.33,8,400,,,
sequence,flow.Sequence,4_89,2023-05-03T18:11:08.662Z,,0,,,2706.6830000953632,completion,,,,,false,,,,346967.60000038147,346967.40000009537,344244.051,344252.60000038147,344260.717,346994.33,8,400,,,
trial,html.Screen,4_90_0,2023-05-03T18:11:17.553Z,,0,2,,8863.669999999984,response,ISIC_0026738.JPG,,ISIC_9141817.JPG,ISIC_9141817.JPG,false,0,keypress(z),500,355858.5,355858,346977.664,346967.60000038147,346994.33,355860.642,8,400,41,,ISIC_0026738.JPG
break,html.Screen,4_90_1,2023-05-03T18:11:17.554Z,,0,,,NaN,,,,,,false,,,,355859.90000009537,355859.7000002861,,355858.90000009537,,355860.642,8,400,,,
break_continue,html.Screen,4_90_2,2023-05-03T18:11:17.555Z,,0,,,NaN,,,,,,false,,,,355860.40000009537,355860.30000019073,,355860.10000038147,,355860.642,8,400,,,
sequence,flow.Sequence,4_90,2023-05-03T18:11:17.555Z,,0,,,8865.970000190719,completion,,,,,false,,,,355860.60000038147,355860.30000019073,346977.664,346967.60000038147,346994.33,355860.642,8,400,,,
trial,html.Screen,4_91_0,2023-05-03T18:11:19.822Z,,0,2,,2267.0580002861097,response,ISIC_8006094.JPG,,ISIC_0016114.JPG,ISIC_0016114.JPG,false,0,keypress(z),500,358128.10000038147,358127.7000002861,355843.976,355860.7000002861,355860.642,358144.289,8,400,42,,ISIC_8006094.JPG
break,html.Screen,4_91_1,2023-05-03T18:11:19.824Z,,0,,,NaN,,,,,,false,,,,358129.5,358129.2000002861,,358128.5,,358144.289,8,400,,,
break_continue,html.Screen,4_91_2,2023-05-03T18:11:19.824Z,,0,,,NaN,,,,,,false,,,,358130,358129.90000009537,,358129.7000002861,,358144.289,8,400,,,
sequence,flow.Sequence,4_91,2023-05-03T18:11:19.824Z,,0,,,2269.258000095375,completion,,,,,false,,,,358130.2000002861,358129.90000009537,355843.976,355860.7000002861,355860.642,358144.289,8,400,,,
trial,html.Screen,4_92_0,2023-05-03T18:11:22.023Z,,0,2,,2184.31100038148,response,ISIC_0015443.JPG,,ISIC_1293743.JPG,ISIC_1293743.JPG,false,0,keypress(z),500,360329.10000038147,360328.60000038147,358127.623,358130.40000009537,358144.289,360344.201,8,400,43,,ISIC_0015443.JPG
break,html.Screen,4_92_1,2023-05-03T18:11:22.025Z,,0,,,NaN,,,,,,false,,,,360330.40000009537,360330.10000038147,,360329.30000019073,,360344.201,8,400,,,
break_continue,html.Screen,4_92_2,2023-05-03T18:11:22.025Z,,0,,,NaN,,,,,,false,,,,360330.80000019073,360330.7000002861,,360330.5,,360344.201,8,400,,,
sequence,flow.Sequence,4_92,2023-05-03T18:11:22.025Z,,0,,,2186.4110002861125,completion,,,,,false,,,,360331,360330.7000002861,358127.623,358130.40000009537,358144.289,360344.201,8,400,,,
trial,html.Screen,4_93_0,2023-05-03T18:11:25.582Z,,0,2,,3542.899000381469,response,ISIC_8127394.JPG,,ISIC_0029736.JPG,ISIC_0029736.JPG,false,0,keypress(z),500,363887.5,363887.10000038147,360327.535,360331.10000038147,360344.201,363894.059,8,400,44,,ISIC_8127394.JPG
break,html.Screen,4_93_1,2023-05-03T18:11:25.583Z,,0,,,NaN,,,,,,false,,,,363888.90000009537,363888.60000038147,,363887.90000009537,,363894.059,8,400,,,
break_continue,html.Screen,4_93_2,2023-05-03T18:11:25.584Z,,0,,,NaN,,,,,,false,,,,363889.40000009537,363889.30000019073,,363889.10000038147,,363894.059,8,400,,,
sequence,flow.Sequence,4_93,2023-05-03T18:11:25.584Z,,0,,,3545.099000190734,completion,,,,,false,,,,363889.60000038147,363889.30000019073,360327.535,360331.10000038147,360344.201,363894.059,8,400,,,
trial,html.Screen,4_94_0,2023-05-03T18:11:28.527Z,,0,2,,2937.9409999999916,response,ISIC_0029651.JPG,,ISIC_7441957.JPG,ISIC_7441957.JPG,false,0,keypress(z),500,366832.40000009537,366832,363877.393,363889.80000019073,363894.059,366844.341,8,400,45,,ISIC_0029651.JPG
break,html.Screen,4_94_1,2023-05-03T18:11:28.528Z,,0,,,NaN,,,,,,false,,,,366833.80000019073,366833.5,,366832.80000019073,,366844.341,8,400,,,
break_continue,html.Screen,4_94_2,2023-05-03T18:11:28.529Z,,0,,,NaN,,,,,,false,,,,366834.2000002861,366834.10000038147,,366833.90000009537,,366844.341,8,400,,,
sequence,flow.Sequence,4_94,2023-05-03T18:11:28.529Z,,0,,,2940.0410003814613,completion,,,,,false,,,,366834.40000009537,366834.10000038147,363877.393,363889.7000002861,363894.059,366844.341,8,400,,,
trial,html.Screen,4_95_0,2023-05-03T18:11:33.167Z,,0,2,,4627.95900019072,response,ISIC_0012222.JPG,,ISIC_9278685.JPG,ISIC_9278685.JPG,false,0,keypress(z),500,371472.80000019073,371472.30000019073,366827.675,366834.60000038147,366844.341,371477.489,8,400,46,,ISIC_0012222.JPG
break,html.Screen,4_95_1,2023-05-03T18:11:33.169Z,,0,,,NaN,,,,,,false,,,,371474.2000002861,371474,,371473.10000038147,,371477.489,8,400,,,
break_continue,html.Screen,4_95_2,2023-05-03T18:11:33.169Z,,0,,,NaN,,,,,,false,,,,371474.80000019073,371474.60000038147,,371474.40000009537,,371477.489,8,400,,,
sequence,flow.Sequence,4_95,2023-05-03T18:11:33.169Z,,0,,,4630.259000381455,completion,,,,,false,,,,371474.90000009537,371474.60000038147,366827.675,366834.60000038147,366844.341,371477.489,8,400,,,
trial,html.Screen,4_96_0,2023-05-03T18:11:36.825Z,,0,2,,3652.6110003814683,response,ISIC_0010609.JPG,,ISIC_5174685.JPG,ISIC_5174685.JPG,false,0,keypress(z),500,375130.5,375130.10000038147,371460.823,371475,371477.489,375144.009,8,400,47,,ISIC_0010609.JPG
break,html.Screen,4_96_1,2023-05-03T18:11:36.826Z,,0,,,NaN,,,,,,false,,,,375132,375131.60000038147,,375130.80000019073,,375144.009,8,400,,,
break_continue,html.Screen,4_96_2,2023-05-03T18:11:36.827Z,,0,,,NaN,,,,,,false,,,,375132.5,375132.40000009537,,375132.2000002861,,375144.009,8,400,,,
sequence,flow.Sequence,4_96,2023-05-03T18:11:36.827Z,,0,,,3654.911000095366,completion,,,,,false,,,,375132.7000002861,375132.40000009537,371460.823,371475,371477.489,375144.009,8,400,,,
trial,html.Screen,4_97_0,2023-05-03T18:11:40.144Z,,0,2,,3305.49099999998,response,ISIC_8535134.JPG,,ISIC_2077116.JPG,ISIC_2077116.JPG,false,0,keypress(z),500,378449.90000009537,378449.5,375127.343,375132.80000019073,375144.009,378460.973,8,400,48,,ISIC_8535134.JPG
break,html.Screen,4_97_1,2023-05-03T18:11:40.146Z,,0,,,NaN,,,,,,false,,,,378451.40000009537,378451.10000038147,,378450.30000019073,,378460.973,8,400,,,
break_continue,html.Screen,4_97_2,2023-05-03T18:11:40.146Z,,0,,,NaN,,,,,,false,,,,378451.80000019073,378451.7000002861,,378451.60000038147,,378460.973,8,400,,,
sequence,flow.Sequence,4_97,2023-05-03T18:11:40.146Z,,0,,,3307.6910002860823,completion,,,,,false,,,,378452,378451.7000002861,375127.343,375132.80000019073,375144.009,378460.973,8,400,,,
trial,html.Screen,4_98_0,2023-05-03T18:11:42.431Z,,0,2,,2275.227000286104,response,ISIC_0010734.JPG,,ISIC_0028859.JPG,ISIC_0028859.JPG,false,0,keypress(z),500,380736.5,380736.2000002861,378444.307,378452.10000038147,378460.973,380744.215,8,400,49,,ISIC_0010734.JPG
break,html.Screen,4_98_1,2023-05-03T18:11:42.432Z,,0,,,NaN,,,,,,false,,,,380737.90000009537,380737.60000038147,,380736.80000019073,,380744.215,8,400,,,
break_continue,html.Screen,4_98_2,2023-05-03T18:11:42.433Z,,0,,,NaN,,,,,,false,,,,380738.40000009537,380738.2000002861,,380738,,380744.215,8,400,,,
sequence,flow.Sequence,4_98,2023-05-03T18:11:42.433Z,,0,,,2277.227000286104,completion,,,,,false,,,,380738.5,380738.2000002861,378444.307,378452,378460.973,380744.215,8,400,,,
trial,html.Screen,4_99_0,2023-05-03T18:11:45.206Z,,0,2,,2766.885000381444,response,ISIC_0032072.JPG,,ISIC_5832901.JPG,ISIC_5832901.JPG,false,0,keypress(z),500,383511.7000002861,383511.10000038147,380727.549,380738.7000002861,380744.215,383527.437,8,400,50,,ISIC_0032072.JPG
break,html.Screen,4_99_1,2023-05-03T18:11:50.208Z,,0,,,4999.800000000047,timeout,,,,,false,,,,388513.2000002861,388510.571,383510.771,383512,383527.437,388527.237,8,400,,,
break_continue,html.Screen,4_99_2,2023-05-03T18:12:00.222Z,,0,,,9983.762999999977,response,,,,,false,continue,keypress(Space),,398527.80000019073,398511,388510.571,388513.60000038147,388527.237,398543.503,8,400,,,
sequence,flow.Sequence,4_99,2023-05-03T18:12:00.222Z,,0,,,17766.784999999974,completion,,,,,false,,,,398527.90000009537,398511,380727.549,380738.7000002861,380744.215,398543.503,8,400,,,
trial,html.Screen,4_100_0,2023-05-03T18:12:03.480Z,,0,3,,3242.0970003814436,response,ISIC_0627979.JPG,,ISIC_0015208.JPG,ISIC_0015208.JPG,false,0,keypress(z),500,401786,401785.60000038147,398526.837,398528,398543.503,401794.261,8,400,1,,ISIC_0627979.JPG
break,html.Screen,4_100_1,2023-05-03T18:12:03.482Z,,0,,,NaN,,,,,,false,,,,401787.40000009537,401787,,401786.40000009537,,401794.261,8,400,,,
break_continue,html.Screen,4_100_2,2023-05-03T18:12:03.482Z,,0,,,NaN,,,,,,false,,,,401787.80000019073,401787.7000002861,,401787.5,,401794.261,8,400,,,
sequence,flow.Sequence,4_100,2023-05-03T18:12:03.482Z,,0,,,3244.197000286076,completion,,,,,false,,,,401787.90000009537,401787.7000002861,398526.837,398528,398543.503,401794.261,8,400,,,
trial,html.Screen,4_101_0,2023-05-03T18:12:06.535Z,,0,3,,3045.839000381471,response,ISIC_3922602.JPG,,ISIC_7973601.JPG,ISIC_7973601.JPG,false,0,keypress(z),500,404840.5,404840.10000038147,401777.595,401788,401794.261,404844.139,8,400,2,,ISIC_3922602.JPG
break,html.Screen,4_101_1,2023-05-03T18:12:06.536Z,,0,,,NaN,,,,,,false,,,,404842,404841.60000038147,,404840.80000019073,,404844.139,8,400,,,
break_continue,html.Screen,4_101_2,2023-05-03T18:12:06.537Z,,0,,,NaN,,,,,,false,,,,404842.40000009537,404842.30000019073,,404842.10000038147,,404844.139,8,400,,,
sequence,flow.Sequence,4_101,2023-05-03T18:12:06.537Z,,0,,,3048.0390001907363,completion,,,,,false,,,,404842.60000038147,404842.30000019073,401777.595,401788,401794.261,404844.139,8,400,,,
trial,html.Screen,4_102_0,2023-05-03T18:12:09.702Z,,0,3,,3163.3609999999753,response,ISIC_0064656.JPG,,ISIC_6963954.JPG,ISIC_6963954.JPG,false,0,keypress(z),500,408007.90000009537,408007.5,404827.473,404842.7000002861,404844.139,408010.679,8,400,3,,ISIC_0064656.JPG
break,html.Screen,4_102_1,2023-05-03T18:12:09.704Z,,0,,,NaN,,,,,,false,,,,408009.30000019073,408008.90000009537,,408008.2000002861,,408010.679,8,400,,,
break_continue,html.Screen,4_102_2,2023-05-03T18:12:09.704Z,,0,,,NaN,,,,,,false,,,,408009.80000019073,408009.60000038147,,408009.40000009537,,408010.679,8,400,,,
sequence,flow.Sequence,4_102,2023-05-03T18:12:09.704Z,,0,,,3165.461000381445,completion,,,,,false,,,,408009.90000009537,408009.60000038147,404827.473,404842.7000002861,404844.139,408010.679,8,400,,,
trial,html.Screen,4_103_0,2023-05-03T18:12:15.727Z,,0,3,,6021.121000190731,response,ISIC_0026627.JPG,,ISIC_2964397.JPG,ISIC_2964397.JPG,false,0,keypress(z),500,414032.30000019073,414031.80000019073,407994.013,408010,408010.679,414044.159,8,400,4,,ISIC_0026627.JPG
break,html.Screen,4_103_1,2023-05-03T18:12:15.728Z,,0,,,NaN,,,,,,false,,,,414033.7000002861,414033.30000019073,,414032.60000038147,,414044.159,8,400,,,
break_continue,html.Screen,4_103_2,2023-05-03T18:12:15.728Z,,0,,,NaN,,,,,,false,,,,414034.10000038147,414034,,414033.80000019073,,414044.159,8,400,,,
sequence,flow.Sequence,4_103,2023-05-03T18:12:15.729Z,,0,,,6023.320999999996,completion,,,,,false,,,,414034.30000019073,414034,407994.013,408010,408010.679,414044.159,8,400,,,
trial,html.Screen,4_104_0,2023-05-03T18:12:18.744Z,,0,3,,3004.9410003814846,response,ISIC_8848134.JPG,,ISIC_8211214.JPG,ISIC_8211214.JPG,false,0,keypress(z),500,417049.60000038147,417049.10000038147,414027.493,414034.40000009537,414044.159,417060.705,8,400,5,,ISIC_8848134.JPG
break,html.Screen,4_104_1,2023-05-03T18:12:18.745Z,,0,,,NaN,,,,,,false,,,,417050.90000009537,417050.60000038147,,417049.90000009537,,417060.705,8,400,,,
break_continue,html.Screen,4_104_2,2023-05-03T18:12:18.746Z,,0,,,NaN,,,,,,false,,,,417051.40000009537,417051.2000002861,,417051.10000038147,,417060.705,8,400,,,
sequence,flow.Sequence,4_104,2023-05-03T18:12:18.746Z,,0,,,3007.041000286117,completion,,,,,false,,,,417051.60000038147,417051.2000002861,414027.493,414034.30000019073,414044.159,417060.705,8,400,,,
trial,html.Screen,4_105_0,2023-05-03T18:12:21.255Z,,0,3,,2499.7949999999837,response,ISIC_0055311.JPG,,ISIC_0865706.JPG,ISIC_0865706.JPG,false,0,keypress(z),500,419560.90000009537,419560.5,417044.039,417051.7000002861,417060.705,419577.713,8,400,6,,ISIC_0055311.JPG
break,html.Screen,4_105_1,2023-05-03T18:12:21.257Z,,0,,,NaN,,,,,,false,,,,419562.30000019073,419562,,419561.30000019073,,419577.713,8,400,,,
break_continue,html.Screen,4_105_2,2023-05-03T18:12:21.257Z,,0,,,NaN,,,,,,false,,,,419562.7000002861,419562.60000038147,,419562.5,,419577.713,8,400,,,
sequence,flow.Sequence,4_105,2023-05-03T18:12:21.257Z,,0,,,2501.8950003814534,completion,,,,,false,,,,419562.80000019073,419562.60000038147,417044.039,417051.60000038147,417060.705,419577.713,8,400,,,
trial,html.Screen,4_106_0,2023-05-03T18:12:24.687Z,,0,3,,3414.287000000011,response,ISIC_0054334.JPG,,ISIC_5717433.JPG,ISIC_5717433.JPG,false,0,keypress(z),500,422992.40000009537,422992,419561.047,419562.90000009537,419577.713,422994.243,8,400,7,,ISIC_0054334.JPG
break,html.Screen,4_106_1,2023-05-03T18:12:24.688Z,,0,,,NaN,,,,,,false,,,,422993.90000009537,422993.5,,422992.80000019073,,422994.243,8,400,,,
break_continue,html.Screen,4_106_2,2023-05-03T18:12:24.689Z,,0,,,NaN,,,,,,false,,,,422994.30000019073,422994.2000002861,,422994,,422994.243,8,400,,,
sequence,flow.Sequence,4_106,2023-05-03T18:12:24.689Z,,0,,,3416.4870002861135,completion,,,,,false,,,,422994.5,422994.2000002861,419561.047,419562.90000009537,419577.713,422994.243,8,400,,,
trial,html.Screen,4_107_0,2023-05-03T18:12:27.903Z,,0,3,,3213.7569999999832,response,ISIC_6618851.JPG,,ISIC_0012245.JPG,ISIC_0012245.JPG,false,0,keypress(z),500,426208.5,426208,422977.577,422994.5,422994.243,426210.781,8,400,8,,ISIC_6618851.JPG
break,html.Screen,4_107_1,2023-05-03T18:12:27.904Z,,0,,,NaN,,,,,,false,,,,426209.90000009537,426209.60000038147,,426208.80000019073,,426210.781,8,400,,,
break_continue,html.Screen,4_107_2,2023-05-03T18:12:27.905Z,,0,,,NaN,,,,,,false,,,,426210.30000019073,426210.2000002861,,426210.10000038147,,426210.781,8,400,,,
sequence,flow.Sequence,4_107,2023-05-03T18:12:27.905Z,,0,,,3215.9570002860855,completion,,,,,false,,,,426210.5,426210.2000002861,422977.577,422994.5,422994.243,426210.781,8,400,,,
trial,html.Screen,4_108_0,2023-05-03T18:12:31.445Z,,0,3,,3539.7189999999828,response,ISIC_5306427.JPG,,ISIC_0071594.JPG,ISIC_0071594.JPG,false,0,keypress(z),500,429750.90000009537,429750.5,426194.115,426210.7000002861,426210.781,429761.039,8,400,9,,ISIC_5306427.JPG
break,html.Screen,4_108_1,2023-05-03T18:12:31.446Z,,0,,,NaN,,,,,,false,,,,429752.2000002861,429751.90000009537,,429751.30000019073,,429761.039,8,400,,,
break_continue,html.Screen,4_108_2,2023-05-03T18:12:31.447Z,,0,,,NaN,,,,,,false,,,,429752.7000002861,429752.60000038147,,429752.40000009537,,429761.039,8,400,,,
sequence,flow.Sequence,4_108,2023-05-03T18:12:31.447Z,,0,,,3541.8190003814525,completion,,,,,false,,,,429752.90000009537,429752.60000038147,426194.115,426210.60000038147,426210.781,429761.039,8,400,,,
trial,html.Screen,4_109_0,2023-05-03T18:12:34.647Z,,0,3,,3191.1610002861125,response,ISIC_0000036.JPG,,ISIC_1774797.JPG,ISIC_1774797.JPG,false,0,keypress(z),500,432952.7000002861,432952.2000002861,429744.373,429753,429761.039,432960.911,8,400,10,,ISIC_0000036.JPG
break,html.Screen,4_109_1,2023-05-03T18:12:34.648Z,,0,,,NaN,,,,,,false,,,,432954.30000019073,432954,,432953,,432960.911,8,400,,,
break_continue,html.Screen,4_109_2,2023-05-03T18:12:34.649Z,,0,,,NaN,,,,,,false,,,,432954.7000002861,432954.60000038147,,432954.40000009537,,432960.911,8,400,,,
sequence,flow.Sequence,4_109,2023-05-03T18:12:34.649Z,,0,,,3193.56100038148,completion,,,,,false,,,,432954.90000009537,432954.60000038147,429744.373,429752.90000009537,429761.039,432960.911,8,400,,,
trial,html.Screen,4_110_0,2023-05-03T18:12:40.118Z,,0,3,,5462.28900028608,response,ISIC_6101007.JPG,,ISIC_2074764.JPG,ISIC_2074764.JPG,false,0,keypress(z),500,438423.60000038147,438423.2000002861,432944.245,432955,432960.911,438427.359,8,400,11,,ISIC_6101007.JPG
break,html.Screen,4_110_1,2023-05-03T18:12:40.119Z,,0,,,NaN,,,,,,false,,,,438425.2000002861,438424.90000009537,,438424,,438427.359,8,400,,,
break_continue,html.Screen,4_110_2,2023-05-03T18:12:40.120Z,,0,,,NaN,,,,,,false,,,,438425.7000002861,438425.5,,438425.30000019073,,438427.359,8,400,,,
sequence,flow.Sequence,4_110,2023-05-03T18:12:40.120Z,,0,,,5464.588999999978,completion,,,,,false,,,,438425.90000009537,438425.5,432944.245,432955,432960.911,438427.359,8,400,,,
trial,html.Screen,4_111_0,2023-05-03T18:12:47.438Z,,0,3,,7315.941000190738,response,ISIC_0027221.JPG,,ISIC_2693412.JPG,ISIC_2693412.JPG,false,0,keypress(z),500,445743.80000019073,445743.30000019073,438410.693,438425.90000009537,438427.359,445760.811,8,400,12,,ISIC_0027221.JPG
break,html.Screen,4_111_1,2023-05-03T18:12:47.440Z,,0,,,NaN,,,,,,false,,,,445745.2000002861,445744.80000019073,,445744.2000002861,,445760.811,8,400,,,
break_continue,html.Screen,4_111_2,2023-05-03T18:12:47.440Z,,0,,,NaN,,,,,,false,,,,445745.60000038147,445745.5,,445745.30000019073,,445760.811,8,400,,,
sequence,flow.Sequence,4_111,2023-05-03T18:12:47.440Z,,0,,,7318.141000000003,completion,,,,,false,,,,445745.80000019073,445745.5,438410.693,438425.90000009537,438427.359,445760.811,8,400,,,
trial,html.Screen,4_112_0,2023-05-03T18:12:58.941Z,,0,3,,11516.668000000005,timeout,ISIC_7161002.JPG,,ISIC_0010655.JPG,,false,,,500,457246.2000002861,457245.7000002861,445744.145,445746,445760.811,457277.479,8,400,13,,
break,html.Screen,4_112_1,2023-05-03T18:12:58.942Z,,0,,,NaN,,,,,,false,,,,457247.60000038147,457247.30000019073,,457246.60000038147,,457277.479,8,400,,,
break_continue,html.Screen,4_112_2,2023-05-03T18:12:58.943Z,,0,,,NaN,,,,,,false,,,,457248.10000038147,457247.90000009537,,457247.7000002861,,457277.479,8,400,,,
sequence,flow.Sequence,4_112,2023-05-03T18:12:58.943Z,,0,,,11487.08900009538,completion,,,,,false,,,,457248.2000002861,457247.90000009537,445744.145,445745.90000009537,445760.811,457277.479,8,400,,,
trial,html.Screen,4_113_0,2023-05-03T18:13:08.232Z,,0,3,,9259.321000190743,response,ISIC_0015015.JPG,,ISIC_0031935.JPG,ISIC_0031935.JPG,false,0,keypress(z),500,466537.30000019073,466536.80000019073,457260.351,457248.40000009537,457277.479,466543.775,8,400,14,,ISIC_0015015.JPG
break,html.Screen,4_113_1,2023-05-03T18:13:08.233Z,,0,,,NaN,,,,,,false,,,,466538.60000038147,466538.30000019073,,466537.60000038147,,466543.775,8,400,,,
break_continue,html.Screen,4_113_2,2023-05-03T18:13:08.234Z,,0,,,NaN,,,,,,false,,,,466539.10000038147,466539,,466538.7000002861,,466543.775,8,400,,,
sequence,flow.Sequence,4_113,2023-05-03T18:13:08.234Z,,0,,,9261.521000000008,completion,,,,,false,,,,466539.30000019073,466539,457260.351,457248.40000009537,457277.479,466543.775,8,400,,,
trial,html.Screen,4_114_0,2023-05-03T18:13:12.839Z,,0,3,,4599.825000381446,response,ISIC_4915897.JPG,,ISIC_3975743.JPG,ISIC_3975743.JPG,false,0,keypress(z),500,471144.10000038147,471143.60000038147,466527.109,466539.40000009537,466543.775,471160.915,8,400,15,,ISIC_4915897.JPG
break,html.Screen,4_114_1,2023-05-03T18:13:12.840Z,,0,,,NaN,,,,,,false,,,,471145.40000009537,471145.2000002861,,471144.40000009537,,471160.915,8,400,,,
break_continue,html.Screen,4_114_2,2023-05-03T18:13:12.841Z,,0,,,NaN,,,,,,false,,,,471146,471145.80000019073,,471145.60000038147,,471160.915,8,400,,,
sequence,flow.Sequence,4_114,2023-05-03T18:13:12.841Z,,0,,,4602.025000190712,completion,,,,,false,,,,471146.10000038147,471145.80000019073,466527.109,466539.40000009537,466543.775,471160.915,8,400,,,
trial,html.Screen,4_115_0,2023-05-03T18:13:16.096Z,,0,3,,3240.385000190756,response,ISIC_9015182.JPG,,ISIC_0033876.JPG,ISIC_0033876.JPG,false,0,keypress(z),500,474401.90000009537,474401.30000019073,471144.249,471146.10000038147,471160.915,474410.785,8,400,16,,ISIC_9015182.JPG
break,html.Screen,4_115_1,2023-05-03T18:13:16.098Z,,0,,,NaN,,,,,,false,,,,474403.2000002861,474402.80000019073,,474402.10000038147,,474410.785,8,400,,,
break_continue,html.Screen,4_115_2,2023-05-03T18:13:16.098Z,,0,,,NaN,,,,,,false,,,,474403.60000038147,474403.5,,474403.30000019073,,474410.785,8,400,,,
sequence,flow.Sequence,4_115,2023-05-03T18:13:16.098Z,,0,,,3242.585000000021,completion,,,,,false,,,,474403.80000019073,474403.5,471144.249,471146.10000038147,471160.915,474410.785,8,400,,,
trial,html.Screen,4_116_0,2023-05-03T18:13:18.697Z,,0,3,,2590.8150003814953,response,ISIC_0032342.JPG,,ISIC_0061583.JPG,ISIC_0061583.JPG,false,0,keypress(z),500,477002,477001.60000038147,474394.119,474403.90000009537,474410.785,477010.681,8,400,17,,ISIC_0032342.JPG
break,html.Screen,4_116_1,2023-05-03T18:13:18.698Z,,0,,,NaN,,,,,,false,,,,477003.5,477003.2000002861,,477002.40000009537,,477010.681,8,400,,,
break_continue,html.Screen,4_116_2,2023-05-03T18:13:18.699Z,,0,,,NaN,,,,,,false,,,,477004,477003.90000009537,,477003.60000038147,,477010.681,8,400,,,
sequence,flow.Sequence,4_116,2023-05-03T18:13:18.699Z,,0,,,2593.115000095393,completion,,,,,false,,,,477004.2000002861,477003.90000009537,474394.119,474403.90000009537,474410.785,477010.681,8,400,,,
trial,html.Screen,4_117_0,2023-05-03T18:13:21.710Z,,0,3,,3004.6190001907526,response,ISIC_0060773.JPG,,ISIC_8504492.JPG,ISIC_8504492.JPG,false,0,keypress(z),500,480015.90000009537,480015.30000019073,476994.015,477004.40000009537,477010.681,480027.621,8,400,18,,ISIC_0060773.JPG
break,html.Screen,4_117_1,2023-05-03T18:13:21.712Z,,0,,,NaN,,,,,,false,,,,480017.2000002861,480016.90000009537,,480016.10000038147,,480027.621,8,400,,,
break_continue,html.Screen,4_117_2,2023-05-03T18:13:21.712Z,,0,,,NaN,,,,,,false,,,,480017.7000002861,480017.5,,480017.40000009537,,480027.621,8,400,,,
sequence,flow.Sequence,4_117,2023-05-03T18:13:21.712Z,,0,,,3006.8190000000177,completion,,,,,false,,,,480017.90000009537,480017.5,476994.015,477004.30000019073,477010.681,480027.621,8,400,,,
trial,html.Screen,4_118_0,2023-05-03T18:13:24.735Z,,0,3,,3011.8790000000154,response,ISIC_0004509.JPG,,ISIC_0046900.JPG,ISIC_0046900.JPG,false,0,keypress(z),500,483039.90000009537,483039.5,480010.955,480017.90000009537,480027.621,483044.167,8,400,19,,ISIC_0004509.JPG
break,html.Screen,4_118_1,2023-05-03T18:13:24.736Z,,0,,,NaN,,,,,,false,,,,483041.30000019073,483041,,483040.2000002861,,483044.167,8,400,,,
break_continue,html.Screen,4_118_2,2023-05-03T18:13:24.736Z,,0,,,NaN,,,,,,false,,,,483041.80000019073,483041.60000038147,,483041.40000009537,,483044.167,8,400,,,
sequence,flow.Sequence,4_118,2023-05-03T18:13:24.737Z,,0,,,3013.979000381485,completion,,,,,false,,,,483042,483041.60000038147,480010.955,480017.90000009537,480027.621,483044.167,8,400,,,
trial,html.Screen,4_119_0,2023-05-03T18:13:29.496Z,,0,3,,4756.233000095352,response,ISIC_0027576.JPG,,ISIC_0055289.JPG,ISIC_0055289.JPG,false,0,keypress(z),500,487800.90000009537,487800.40000009537,483027.501,483042.10000038147,483044.167,487810.643,8,400,20,,ISIC_0027576.JPG
break,html.Screen,4_119_1,2023-05-03T18:13:29.497Z,,0,,,NaN,,,,,,false,,,,487802.40000009537,487802,,487801.30000019073,,487810.643,8,400,,,
break_continue,html.Screen,4_119_2,2023-05-03T18:13:29.498Z,,0,,,NaN,,,,,,false,,,,487802.80000019073,487802.7000002861,,487802.5,,487810.643,8,400,,,
sequence,flow.Sequence,4_119,2023-05-03T18:13:29.498Z,,0,,,4758.5330002860865,completion,,,,,false,,,,487803,487802.7000002861,483027.501,483042.10000038147,483044.167,487810.643,8,400,,,
trial,html.Screen,4_120_0,2023-05-03T18:13:36.977Z,,0,3,,7471.457000381488,response,ISIC_1797795.JPG,,ISIC_4208361.JPG,ISIC_4208361.JPG,false,0,keypress(z),500,495282.60000038147,495282.10000038147,487793.977,487803.2000002861,487810.643,495294.129,8,400,21,,ISIC_1797795.JPG
break,html.Screen,4_120_1,2023-05-03T18:13:36.979Z,,0,,,NaN,,,,,,false,,,,495284,495283.7000002861,,495282.90000009537,,495294.129,8,400,,,
break_continue,html.Screen,4_120_2,2023-05-03T18:13:36.979Z,,0,,,NaN,,,,,,false,,,,495284.40000009537,495284.30000019073,,495284.10000038147,,495294.129,8,400,,,
sequence,flow.Sequence,4_120,2023-05-03T18:13:36.979Z,,0,,,7473.657000190753,completion,,,,,false,,,,495284.60000038147,495284.30000019073,487793.977,487803.10000038147,487810.643,495294.129,8,400,,,
trial,html.Screen,4_121_0,2023-05-03T18:13:39.422Z,,0,3,,2432.771000095352,response,ISIC_0000121.JPG,,ISIC_0032722.JPG,ISIC_0032722.JPG,false,0,keypress(z),500,497727.30000019073,497726.90000009537,495277.463,495284.80000019073,495294.129,497744.031,8,400,22,,ISIC_0000121.JPG
break,html.Screen,4_121_1,2023-05-03T18:13:39.424Z,,0,,,NaN,,,,,,false,,,,497728.90000009537,497728.5,,497727.7000002861,,497744.031,8,400,,,
break_continue,html.Screen,4_121_2,2023-05-03T18:13:39.424Z,,0,,,NaN,,,,,,false,,,,497729.2000002861,497729.10000038147,,497729,,497744.031,8,400,,,
sequence,flow.Sequence,4_121,2023-05-03T18:13:39.424Z,,0,,,2434.9710003814544,completion,,,,,false,,,,497729.30000019073,497729.10000038147,495277.463,495284.80000019073,495294.129,497744.031,8,400,,,
trial,html.Screen,4_122_0,2023-05-03T18:13:42.239Z,,0,3,,2799.7690001907176,response,ISIC_8065633.JPG,,ISIC_6460137.JPG,ISIC_6460137.JPG,false,0,keypress(z),500,500544.30000019073,500543.80000019073,497727.365,497729.30000019073,497744.031,500560.993,8,400,23,,ISIC_8065633.JPG
break,html.Screen,4_122_1,2023-05-03T18:13:42.240Z,,0,,,NaN,,,,,,false,,,,500545.60000038147,500545.40000009537,,500544.60000038147,,500560.993,8,400,,,
break_continue,html.Screen,4_122_2,2023-05-03T18:13:42.241Z,,0,,,NaN,,,,,,false,,,,500546.10000038147,500545.90000009537,,500545.80000019073,,500560.993,8,400,,,
sequence,flow.Sequence,4_122,2023-05-03T18:13:42.241Z,,0,,,2801.86900009535,completion,,,,,false,,,,500546.2000002861,500545.90000009537,497727.365,497729.30000019073,497744.031,500560.993,8,400,,,
trial,html.Screen,4_123_0,2023-05-03T18:13:46.096Z,,0,3,,3839.307000190718,response,ISIC_5699175.JPG,,ISIC_3814807.JPG,ISIC_3814807.JPG,false,0,keypress(z),500,504400.80000019073,504400.30000019073,500544.327,500546.40000009537,500560.993,504410.839,8,400,24,,ISIC_5699175.JPG
break,html.Screen,4_123_1,2023-05-03T18:13:46.097Z,,0,,,NaN,,,,,,false,,,,504402.30000019073,504401.90000009537,,504401.10000038147,,504410.839,8,400,,,
break_continue,html.Screen,4_123_2,2023-05-03T18:13:46.097Z,,0,,,NaN,,,,,,false,,,,504402.7000002861,504402.60000038147,,504402.40000009537,,504410.839,8,400,,,
sequence,flow.Sequence,4_123,2023-05-03T18:13:46.097Z,,0,,,3841.607000381453,completion,,,,,false,,,,504402.80000019073,504402.60000038147,500544.327,500546.40000009537,500560.993,504410.839,8,400,,,
trial,html.Screen,4_124_0,2023-05-03T18:13:49.743Z,,0,3,,3637.0610000953893,response,ISIC_0000141.JPG,,ISIC_4507700.JPG,ISIC_4507700.JPG,false,0,keypress(z),500,508048.40000009537,508047.90000009537,504394.173,504402.90000009537,504410.839,508060.693,8,400,25,,ISIC_0000141.JPG
break,html.Screen,4_124_1,2023-05-03T18:13:49.744Z,,0,,,NaN,,,,,,false,,,,508049.80000019073,508049.5,,508048.7000002861,,508060.693,8,400,,,
break_continue,html.Screen,4_124_2,2023-05-03T18:13:49.745Z,,0,,,NaN,,,,,,false,,,,508050.2000002861,508050.10000038147,,508049.90000009537,,508060.693,8,400,,,
sequence,flow.Sequence,4_124,2023-05-03T18:13:49.745Z,,0,,,3639.2610003814916,completion,,,,,false,,,,508050.5,508050.10000038147,504394.173,504402.90000009537,504410.839,508060.693,8,400,,,
trial,html.Screen,4_125_0,2023-05-03T18:13:58.807Z,,0,3,,9051.407000381441,response,ISIC_0061336.JPG,,ISIC_0000520.JPG,ISIC_0000520.JPG,false,0,keypress(z),500,517112.60000038147,517112.10000038147,508044.027,508050.60000038147,508060.693,517127.41,8,400,26,,ISIC_0061336.JPG
break,html.Screen,4_125_1,2023-05-03T18:13:58.809Z,,0,,,NaN,,,,,,false,,,,517114,517113.7000002861,,517112.90000009537,,517127.41,8,400,,,
break_continue,html.Screen,4_125_2,2023-05-03T18:13:58.809Z,,0,,,NaN,,,,,,false,,,,517114.40000009537,517114.40000009537,,517114.2000002861,,517127.41,8,400,,,
sequence,flow.Sequence,4_125,2023-05-03T18:13:58.809Z,,0,,,9053.707000095339,completion,,,,,false,,,,517114.7000002861,517114.40000009537,508044.027,508050.60000038147,508060.693,517127.41,8,400,,,
