sender,sender_type,sender_id,timestamp,meta,,blockNo,condition,duration,ended_on,img_left,img_reveal,img_right,loser,practice,response,response_action,selection_duration,time_commit,time_end,time_render,time_run,time_show,time_switch,total_blocks,total_trials,trialNo,url,winner
informed_consent,html.Screen,0,2023-05-02T19:05:44.828Z,"{""labjs_version"":""20.2.4"",""labjs_build"":{""flavor"":""production"",""commit"":""f5b4a49f956347addd546a832a3327688c2c0fef""},""location"":""https://run.pavlovia.org/MurrayBennett/melanoma-2afc/?participant=64745"",""userAgent"":""Mozilla/5.0 (Windows NT 10.0; Win64; x64) AppleWebKit/537.36 (KHTML, like Gecko) Chrome/112.0.0.0 Safari/537.36"",""platform"":""Win32"",""language"":""en-US"",""locale"":""en-US"",""timeZone"":""America/Chicago"",""timezoneOffset"":300,""screen_width"":1280,""screen_height"":800,""scroll_width"":1280,""scroll_height"":638,""window_innerWidth"":1280,""window_innerHeight"":686,""devicePixelRatio"":1.5}",,,,2940.634000005961,response,,,,,,consent,click button,,8596.59999999404,8591.40000000596,5300.709,5622.9000000059605,5650.766,8639.103,,,,"{""participant"":""64745""}",
Welcome,html.Screen,1,2023-05-02T19:05:45.815Z,,,,irregular,940.2970000059613,response,,,,,,continue,click button,,9583.199999988079,9579.40000000596,8592.157,8597.09999999404,8639.103,9612.866,,,,,
trial,html.Screen,2_0_0,2023-05-02T19:05:57.315Z,,0,0,,11552.224,timeout,ISIC_0061792.JPG,,ISIC_4679428.JPG,,true,,,500,21084,21083.5,9575.744,9583.5,9612.866,21165.09,1,6,1,,
sequence,flow.Sequence,2_0,2023-05-02T19:05:57.316Z,,0,,,11470.634,completion,,,,,true,,,,21085,21083.5,9575.744,9583.5,9612.866,21165.09,1,6,,,
trial,html.Screen,2_1_0,2023-05-02T19:06:08.853Z,,0,0,,11522.111,timeout,ISIC_0776486.JPG,,ISIC_5199497.JPG,,true,,,500,32621.40000000596,32621,21131.688,21085.30000001192,21165.09,32687.201,1,6,2,,
sequence,flow.Sequence,2_1,2023-05-02T19:06:08.853Z,,0,,,11455.91,completion,,,,,true,,,,32621.59999999404,32621,21131.688,21085.19999998808,21165.09,32687.201,1,6,,,
trial,html.Screen,2_2_0,2023-05-02T19:06:20.382Z,,0,0,,11538.568999999996,timeout,ISIC_2556187.JPG,,ISIC_8575776.JPG,,true,,,500,44144.09999999404,44143.5,32653.843,32621.69999998808,32687.201,44225.77,1,6,3,,
sequence,flow.Sequence,2_2,2023-05-02T19:06:20.382Z,,0,,,11456.298999999999,completion,,,,,true,,,,44144.5,44143.5,32653.843,32621.69999998808,32687.201,44225.77,1,6,,,
trial,html.Screen,2_3_0,2023-05-02T19:06:31.936Z,,0,0,,11555.193000000007,timeout,ISIC_8141769.JPG,,ISIC_9238366.JPG,,true,,,500,55698.5,55698.19999998808,44191.836,44144.69999998808,44225.77,55780.963,1,6,4,,
sequence,flow.Sequence,2_3,2023-05-02T19:06:31.936Z,,0,,,11472.429999988082,completion,,,,,true,,,,55698.80000001192,55698.19999998808,44191.836,44144.59999999404,44225.77,55780.963,1,6,,,
trial,html.Screen,2_4_0,2023-05-02T19:06:43.471Z,,0,0,,11518.251999999993,timeout,ISIC_8949026.JPG,,ISIC_9959593.JPG,,true,,,500,67233.40000000596,67232.90000000596,55747.642,55699,55780.963,67299.215,1,6,5,,
sequence,flow.Sequence,2_4,2023-05-02T19:06:43.471Z,,0,,,11451.937000005957,completion,,,,,true,,,,67233.80000001192,67232.90000000596,55747.642,55698.90000000596,55780.963,67299.215,1,6,,,
trial,html.Screen,2_5_0,2023-05-02T19:06:54.985Z,,0,0,,11530.275999999998,timeout,ISIC_0010479.JPG,,ISIC_0460240.JPG,,true,,,500,78747.30000001192,78746.90000000596,67265.56,67233.90000000596,67299.215,78829.491,1,6,6,,
sequence,flow.Sequence,2_5,2023-05-02T19:06:54.985Z,,0,,,11447.685000005964,completion,,,,,true,,,,78747.69999998808,78746.90000000596,67265.56,67233.80000001192,67299.215,78829.491,1,6,,,
loop,flow.Loop,2,2023-05-02T19:06:54.985Z,,,,,69134.03400000597,completion,,,,,true,,,,78747.90000000596,78746.90000000596,9575.744,9583.5,9612.866,78829.491,1,6,,,
exp_instructions,html.Screen,3,2023-05-02T19:07:12.974Z,,,,,17903.309000011926,response,,,,,,continue,keypress(Space),,96736.5,96732.80000001192,78779.488,78748,78829.491,96774.663,,,,,
trial,html.Screen,4_0_0,2023-05-02T19:07:24.475Z,,0,1,,11543.409,timeout,ISIC_0027585.JPG,,ISIC_0753112.JPG,,false,,,500,108237.40000000596,108237,96726.67,96736.69999998808,96774.663,108318.072,8,400,1,,
break,html.Screen,4_0_1,2023-05-02T19:07:24.476Z,,0,,,NaN,,,,,,false,,,,108238.80000001192,108238.5,,108237.40000000596,,108318.072,8,400,,,
break_continue,html.Screen,4_0_2,2023-05-02T19:07:24.476Z,,0,,,NaN,,,,,,false,,,,108239.19999998808,108239.09999999404,,108238.90000000596,,108318.072,8,400,,,
sequence,flow.Sequence,4_0,2023-05-02T19:07:24.477Z,,0,,,11464.436999994039,completion,,,,,false,,,,108239.40000000596,108239.09999999404,96726.67,96736.69999998808,96774.663,108318.072,8,400,,,
trial,html.Screen,4_1_0,2023-05-02T19:07:31.158Z,,0,1,,6602.228000011921,response,ISIC_0010225.JPG,,ISIC_0054652.JPG,ISIC_0010225.JPG,false,1,keypress(m),500,114920.69999998808,114920.30000001192,108284.17,108239.5,108318.072,114954.705,8,400,2,,ISIC_0054652.JPG
break,html.Screen,4_1_1,2023-05-02T19:07:31.160Z,,0,,,NaN,,,,,,false,,,,114922.5,114922.19999998808,,114920.90000000596,,114954.705,8,400,,,
break_continue,html.Screen,4_1_2,2023-05-02T19:07:31.160Z,,0,,,NaN,,,,,,false,,,,114922.69999998808,114922.69999998808,,114922.59999999404,,114954.705,8,400,,,
sequence,flow.Sequence,4_1,2023-05-02T19:07:31.160Z,,0,,,6604.627999988079,completion,,,,,false,,,,114922.80000001192,114922.69999998808,108284.17,108239.40000000596,108318.072,114954.705,8,400,,,
trial,html.Screen,4_2_0,2023-05-02T19:07:36.109Z,,0,1,,4916.695000005959,response,ISIC_0058781.JPG,,ISIC_8779142.JPG,ISIC_0058781.JPG,false,1,keypress(m),500,119871.69999998808,119871.40000000596,114913.008,114923,114954.705,119924.634,8,400,3,,ISIC_8779142.JPG
break,html.Screen,4_2_1,2023-05-02T19:07:36.110Z,,0,,,NaN,,,,,,false,,,,119872.59999999404,119872.30000001192,,119871.90000000596,,119924.634,8,400,,,
break_continue,html.Screen,4_2_2,2023-05-02T19:07:36.110Z,,0,,,NaN,,,,,,false,,,,119872.90000000596,119872.80000001192,,119872.69999998808,,119924.634,8,400,,,
sequence,flow.Sequence,4_2,2023-05-02T19:07:36.110Z,,0,,,4918.095000011919,completion,,,,,false,,,,119873,119872.80000001192,114913.008,114923,114954.705,119924.634,8,400,,,
trial,html.Screen,4_3_0,2023-05-02T19:07:39.294Z,,0,1,,3132.1660000119155,response,ISIC_0071778.JPG,,ISIC_0034232.JPG,ISIC_0034232.JPG,false,0,keypress(z),500,123057.19999998808,123056.80000001192,119891.258,119873,119924.634,123091.588,8,400,4,,ISIC_0071778.JPG
break,html.Screen,4_3_1,2023-05-02T19:07:39.297Z,,0,,,NaN,,,,,,false,,,,123059.40000000596,123059.19999998808,,123057.5,,123091.588,8,400,,,
break_continue,html.Screen,4_3_2,2023-05-02T19:07:39.297Z,,0,,,NaN,,,,,,false,,,,123059.69999998808,123059.69999998808,,123059.59999999404,,123091.588,8,400,,,
sequence,flow.Sequence,4_3,2023-05-02T19:07:39.297Z,,0,,,3135.0659999880736,completion,,,,,false,,,,123059.80000001192,123059.69999998808,119891.258,119873,119924.634,123091.588,8,400,,,
trial,html.Screen,4_4_0,2023-05-02T19:07:42.624Z,,0,1,,3294.511999994036,response,ISIC_1601532.JPG,,ISIC_0046635.JPG,ISIC_0046635.JPG,false,0,keypress(z),500,126386.40000000596,126386.09999999404,123056.586,123059.90000000596,123091.588,126420.718,8,400,5,,ISIC_1601532.JPG
break,html.Screen,4_4_1,2023-05-02T19:07:42.626Z,,0,,,NaN,,,,,,false,,,,126388.5,126388.40000000596,,126386.59999999404,,126420.718,8,400,,,
break_continue,html.Screen,4_4_2,2023-05-02T19:07:42.626Z,,0,,,NaN,,,,,,false,,,,126388.69999998808,126388.69999998808,,126388.59999999404,,126420.718,8,400,,,
sequence,flow.Sequence,4_4,2023-05-02T19:07:42.626Z,,0,,,3297.1119999880757,completion,,,,,false,,,,126388.90000000596,126388.69999998808,123056.586,123059.90000000596,123091.588,126420.718,8,400,,,
trial,html.Screen,4_5_0,2023-05-02T19:07:45.562Z,,0,1,,2903.881999994046,response,ISIC_0054767.JPG,,ISIC_2486088.JPG,ISIC_2486088.JPG,false,0,keypress(z),500,129325,129324.59999999404,126385.919,126389,126420.718,129359.275,8,400,6,,ISIC_0054767.JPG
break,html.Screen,4_5_1,2023-05-02T19:07:45.564Z,,0,,,NaN,,,,,,false,,,,129327.09999999404,129326.90000000596,,129325.19999998808,,129359.275,8,400,,,
break_continue,html.Screen,4_5_2,2023-05-02T19:07:45.565Z,,0,,,NaN,,,,,,false,,,,129327.30000001192,129327.30000001192,,129327.09999999404,,129359.275,8,400,,,
sequence,flow.Sequence,4_5,2023-05-02T19:07:45.565Z,,0,,,2906.5820000119274,completion,,,,,false,,,,129327.40000000596,129327.30000001192,126385.919,126388.90000000596,126420.718,129359.275,8,400,,,
trial,html.Screen,4_6_0,2023-05-02T19:07:48.608Z,,0,1,,3011.225000000006,response,ISIC_7663476.JPG,,ISIC_0071740.JPG,ISIC_7663476.JPG,false,1,keypress(m),500,132370.80000001192,132370.5,129317.974,129327.59999999404,129359.275,132404.608,8,400,7,,ISIC_0071740.JPG
break,html.Screen,4_6_1,2023-05-02T19:07:48.609Z,,0,,,NaN,,,,,,false,,,,132371.5,132371.30000001192,,132371,,132404.608,8,400,,,
break_continue,html.Screen,4_6_2,2023-05-02T19:07:48.609Z,,0,,,NaN,,,,,,false,,,,132372,132371.80000001192,,132371.69999998808,,132404.608,8,400,,,
sequence,flow.Sequence,4_6,2023-05-02T19:07:48.609Z,,0,,,3012.5250000119267,completion,,,,,false,,,,132372.09999999404,132371.80000001192,129317.974,129327.5,129359.275,132404.608,8,400,,,
trial,html.Screen,4_7_0,2023-05-02T19:07:52.514Z,,0,1,,3871.6920000119135,response,ISIC_4529092.JPG,,ISIC_3105136.JPG,ISIC_3105136.JPG,false,0,keypress(z),500,136276.59999999404,136276.30000001192,132369.964,132372.19999998808,132404.608,136310.925,8,400,8,,ISIC_4529092.JPG
break,html.Screen,4_7_1,2023-05-02T19:07:52.516Z,,0,,,NaN,,,,,,false,,,,136278.59999999404,136278.40000000596,,136276.80000001192,,136310.925,8,400,,,
break_continue,html.Screen,4_7_2,2023-05-02T19:07:52.516Z,,0,,,NaN,,,,,,false,,,,136278.90000000596,136278.80000001192,,136278.69999998808,,136310.925,8,400,,,
sequence,flow.Sequence,4_7,2023-05-02T19:07:52.516Z,,0,,,3874.1920000119135,completion,,,,,false,,,,136279,136278.80000001192,132369.964,132372.19999998808,132404.608,136310.925,8,400,,,
trial,html.Screen,4_8_0,2023-05-02T19:07:56.670Z,,0,1,,4121.274999988091,response,ISIC_0025001.JPG,,ISIC_3730327.JPG,ISIC_3730327.JPG,false,0,keypress(z),500,140432.5,140432.19999998808,136275.205,136279,136310.925,140466.766,8,400,9,,ISIC_0025001.JPG
break,html.Screen,4_8_1,2023-05-02T19:07:56.671Z,,0,,,NaN,,,,,,false,,,,140433.69999998808,140433.59999999404,,140432.80000001192,,140466.766,8,400,,,
break_continue,html.Screen,4_8_2,2023-05-02T19:07:56.671Z,,0,,,NaN,,,,,,false,,,,140434.09999999404,140434,,140433.90000000596,,140466.766,8,400,,,
sequence,flow.Sequence,4_8,2023-05-02T19:07:56.671Z,,0,,,4123.075000000012,completion,,,,,false,,,,140434.30000001192,140434,136275.205,136279,136310.925,140466.766,8,400,,,
trial,html.Screen,4_9_0,2023-05-02T19:07:59.319Z,,0,1,,2614.3339999940363,response,ISIC_1461507.JPG,,ISIC_9829805.JPG,ISIC_9829805.JPG,false,0,keypress(z),500,143081.40000000596,143081.09999999404,140425.784,140434.40000000596,140466.766,143115.605,8,400,10,,ISIC_1461507.JPG
break,html.Screen,4_9_1,2023-05-02T19:07:59.321Z,,0,,,NaN,,,,,,false,,,,143083.40000000596,143083.30000001192,,143081.59999999404,,143115.605,8,400,,,
break_continue,html.Screen,4_9_2,2023-05-02T19:07:59.321Z,,0,,,NaN,,,,,,false,,,,143083.69999998808,143083.69999998808,,143083.59999999404,,143115.605,8,400,,,
sequence,flow.Sequence,4_9,2023-05-02T19:07:59.321Z,,0,,,2616.933999988076,completion,,,,,false,,,,143083.80000001192,143083.69999998808,140425.784,140434.40000000596,140466.766,143115.605,8,400,,,
trial,html.Screen,4_10_0,2023-05-02T19:08:02.831Z,,0,1,,3478.29500000595,response,ISIC_0030360.JPG,,ISIC_0024962.JPG,ISIC_0030360.JPG,false,1,keypress(m),500,146594.19999998808,146593.90000000596,143078.228,143083.90000000596,143115.605,146628.663,8,400,11,,ISIC_0024962.JPG
break,html.Screen,4_10_1,2023-05-02T19:08:02.834Z,,0,,,NaN,,,,,,false,,,,146596.5,146596.40000000596,,146594.5,,146628.663,8,400,,,
break_continue,html.Screen,4_10_2,2023-05-02T19:08:02.834Z,,0,,,NaN,,,,,,false,,,,146596.80000001192,146596.80000001192,,146596.69999998808,,146628.663,8,400,,,
sequence,flow.Sequence,4_10,2023-05-02T19:08:02.834Z,,0,,,3481.1950000119105,completion,,,,,false,,,,146596.90000000596,146596.80000001192,143078.228,143083.80000001192,143115.605,146628.663,8,400,,,
trial,html.Screen,4_11_0,2023-05-02T19:08:05.484Z,,0,1,,2617.936999994039,response,ISIC_0063492.JPG,,ISIC_0027596.JPG,ISIC_0027596.JPG,false,0,keypress(z),500,149246.90000000596,149246.59999999404,146591.413,146597,146628.663,149281.325,8,400,12,,ISIC_0063492.JPG
break,html.Screen,4_11_1,2023-05-02T19:08:05.486Z,,0,,,NaN,,,,,,false,,,,149249.19999998808,149249,,149247.19999998808,,149281.325,8,400,,,
break_continue,html.Screen,4_11_2,2023-05-02T19:08:05.487Z,,0,,,NaN,,,,,,false,,,,149249.5,149249.40000000596,,149249.30000001192,,149281.325,8,400,,,
sequence,flow.Sequence,4_11,2023-05-02T19:08:05.487Z,,0,,,2620.73700000596,completion,,,,,false,,,,149249.59999999404,149249.40000000596,146591.413,146597,146628.663,149281.325,8,400,,,
trial,html.Screen,4_12_0,2023-05-02T19:08:08.880Z,,0,1,,3361.075000005949,response,ISIC_2226940.JPG,,ISIC_0061803.JPG,ISIC_2226940.JPG,false,1,keypress(m),500,152642.69999998808,152642.40000000596,149235.308,149249.69999998808,149281.325,152677.076,8,400,13,,ISIC_0061803.JPG
break,html.Screen,4_12_1,2023-05-02T19:08:08.882Z,,0,,,NaN,,,,,,false,,,,152644.90000000596,152644.80000001192,,152643,,152677.076,8,400,,,
break_continue,html.Screen,4_12_2,2023-05-02T19:08:08.882Z,,0,,,NaN,,,,,,false,,,,152645.30000001192,152645.09999999404,,152645,,152677.076,8,400,,,
sequence,flow.Sequence,4_12,2023-05-02T19:08:08.883Z,,0,,,3363.774999994028,completion,,,,,false,,,,152645.40000000596,152645.09999999404,149235.308,149249.59999999404,149281.325,152677.076,8,400,,,
trial,html.Screen,4_13_0,2023-05-02T19:08:11.543Z,,0,1,,2628.123999988078,response,ISIC_1373468.JPG,,ISIC_4602691.JPG,ISIC_4602691.JPG,false,0,keypress(z),500,155305.5,155305.19999998808,152629.833,152645.5,152677.076,155339.804,8,400,14,,ISIC_1373468.JPG
break,html.Screen,4_13_1,2023-05-02T19:08:11.544Z,,0,,,NaN,,,,,,false,,,,155307,155306.09999999404,,155305.69999998808,,155339.804,8,400,,,
break_continue,html.Screen,4_13_2,2023-05-02T19:08:11.545Z,,0,,,NaN,,,,,,false,,,,155307.40000000596,155307.30000001192,,155307.19999998808,,155339.804,8,400,,,
sequence,flow.Sequence,4_13,2023-05-02T19:08:11.545Z,,0,,,2630.22400001192,completion,,,,,false,,,,155307.5,155307.30000001192,152629.833,152645.5,152677.076,155339.804,8,400,,,
trial,html.Screen,4_14_0,2023-05-02T19:08:14.605Z,,0,1,,3027.996000011917,response,ISIC_8373462.JPG,,ISIC_0010478.JPG,ISIC_8373462.JPG,false,1,keypress(m),500,158368.09999999404,158367.80000001192,155297.459,155307.59999999404,155339.804,158402.425,8,400,15,,ISIC_0010478.JPG
break,html.Screen,4_14_1,2023-05-02T19:08:14.607Z,,0,,,NaN,,,,,,false,,,,158370.30000001192,158370.09999999404,,158368.40000000596,,158402.425,8,400,,,
break_continue,html.Screen,4_14_2,2023-05-02T19:08:14.608Z,,0,,,NaN,,,,,,false,,,,158370.5,158370.40000000596,,158370.30000001192,,158402.425,8,400,,,
sequence,flow.Sequence,4_14,2023-05-02T19:08:14.608Z,,0,,,3030.5960000059567,completion,,,,,false,,,,158370.59999999404,158370.40000000596,155297.459,155307.59999999404,155339.804,158402.425,8,400,,,
trial,html.Screen,4_15_0,2023-05-02T19:08:17.661Z,,0,1,,3020.975000005972,response,ISIC_1566215.JPG,,ISIC_8796769.JPG,ISIC_1566215.JPG,false,1,keypress(m),500,161423.69999998808,161423.40000000596,158357.373,158370.59999999404,158402.425,161458.103,8,400,16,,ISIC_8796769.JPG
break,html.Screen,4_15_1,2023-05-02T19:08:17.663Z,,0,,,NaN,,,,,,false,,,,161426,161425.80000001192,,161424,,161458.103,8,400,,,
break_continue,html.Screen,4_15_2,2023-05-02T19:08:17.663Z,,0,,,NaN,,,,,,false,,,,161426.19999998808,161426.19999998808,,161426.09999999404,,161458.103,8,400,,,
sequence,flow.Sequence,4_15,2023-05-02T19:08:17.664Z,,0,,,3023.7749999880907,completion,,,,,false,,,,161426.30000001192,161426.19999998808,158357.373,158370.59999999404,158402.425,161458.103,8,400,,,
trial,html.Screen,4_16_0,2023-05-02T19:08:20.636Z,,0,1,,2940.197000011918,response,ISIC_1850388.JPG,,ISIC_0056603.JPG,ISIC_1850388.JPG,false,1,keypress(m),500,164398.59999999404,164398.30000001192,161411.192,161426.40000000596,161458.103,164432.893,8,400,17,,ISIC_0056603.JPG
break,html.Screen,4_16_1,2023-05-02T19:08:20.638Z,,0,,,NaN,,,,,,false,,,,164400.5,164400.30000001192,,164398.80000001192,,164432.893,8,400,,,
break_continue,html.Screen,4_16_2,2023-05-02T19:08:20.638Z,,0,,,NaN,,,,,,false,,,,164400.69999998808,164400.69999998808,,164400.59999999404,,164432.893,8,400,,,
sequence,flow.Sequence,4_16,2023-05-02T19:08:20.638Z,,0,,,2942.5969999880763,completion,,,,,false,,,,164400.90000000596,164400.69999998808,161411.192,161426.40000000596,161458.103,164432.893,8,400,,,
trial,html.Screen,4_17_0,2023-05-02T19:08:25.077Z,,0,1,,4407.806999988068,response,ISIC_1869829.JPG,,ISIC_0000957.JPG,ISIC_1869829.JPG,false,1,keypress(m),500,168841,168840.69999998808,164394.636,164401,164432.893,168875.333,8,400,18,,ISIC_0000957.JPG
break,html.Screen,4_17_1,2023-05-02T19:08:25.079Z,,0,,,NaN,,,,,,false,,,,168843.09999999404,168843,,168841.19999998808,,168875.333,8,400,,,
break_continue,html.Screen,4_17_2,2023-05-02T19:08:25.080Z,,0,,,NaN,,,,,,false,,,,168843.40000000596,168843.40000000596,,168843.19999998808,,168875.333,8,400,,,
sequence,flow.Sequence,4_17,2023-05-02T19:08:25.080Z,,0,,,4410.5070000059495,completion,,,,,false,,,,168843.5,168843.40000000596,164394.636,164401,164432.893,168875.333,8,400,,,
trial,html.Screen,4_18_0,2023-05-02T19:08:28.679Z,,0,1,,3567.1669999999867,response,ISIC_0060659.JPG,,ISIC_0030970.JPG,ISIC_0060659.JPG,false,1,keypress(m),500,172442.80000001192,172442.5,168832.186,168843.69999998808,168875.333,172476.802,8,400,19,,ISIC_0030970.JPG
break,html.Screen,4_18_1,2023-05-02T19:08:28.681Z,,0,,,NaN,,,,,,false,,,,172444.90000000596,172444.69999998808,,172442.90000000596,,172476.802,8,400,,,
break_continue,html.Screen,4_18_2,2023-05-02T19:08:28.681Z,,0,,,NaN,,,,,,false,,,,172445.09999999404,172445,,172444.90000000596,,172476.802,8,400,,,
sequence,flow.Sequence,4_18,2023-05-02T19:08:28.681Z,,0,,,3569.6669999999867,completion,,,,,false,,,,172445.09999999404,172445,168832.186,168843.59999999404,168875.333,172476.802,8,400,,,
trial,html.Screen,4_19_0,2023-05-02T19:08:31.409Z,,0,1,,2695.498000011925,response,ISIC_0034100.JPG,,ISIC_4446385.JPG,ISIC_4446385.JPG,false,0,keypress(z),500,175172.59999999404,175172.30000001192,172437.129,172445.19999998808,172476.802,175206.894,8,400,20,,ISIC_0034100.JPG
break,html.Screen,4_19_1,2023-05-02T19:08:31.411Z,,0,,,NaN,,,,,,false,,,,175174.69999998808,175174.59999999404,,175172.80000001192,,175206.894,8,400,,,
break_continue,html.Screen,4_19_2,2023-05-02T19:08:31.411Z,,0,,,NaN,,,,,,false,,,,175175,175175,,175174.90000000596,,175206.894,8,400,,,
sequence,flow.Sequence,4_19,2023-05-02T19:08:31.411Z,,0,,,2698.198000000004,completion,,,,,false,,,,175175.19999998808,175175,172437.129,172445.19999998808,172476.802,175206.894,8,400,,,
trial,html.Screen,4_20_0,2023-05-02T19:08:34.269Z,,0,1,,2825.5060000059602,response,ISIC_5787312.JPG,,ISIC_0030898.JPG,ISIC_5787312.JPG,false,1,keypress(m),500,178032.80000001192,178032.40000000596,175159.792,175175.19999998808,175206.894,178067.066,8,400,21,,ISIC_0030898.JPG
break,html.Screen,4_20_1,2023-05-02T19:08:34.271Z,,0,,,NaN,,,,,,false,,,,178034.80000001192,178034.59999999404,,178033,,178067.066,8,400,,,
break_continue,html.Screen,4_20_2,2023-05-02T19:08:34.271Z,,0,,,NaN,,,,,,false,,,,178035,178035,,178034.90000000596,,178067.066,8,400,,,
sequence,flow.Sequence,4_20,2023-05-02T19:08:34.271Z,,0,,,2828.1059999999998,completion,,,,,false,,,,178035.09999999404,178035,175159.792,175175.19999998808,175206.894,178067.066,8,400,,,
trial,html.Screen,4_21_0,2023-05-02T19:08:37.348Z,,0,1,,3044.533999994048,response,ISIC_0071957.JPG,,ISIC_8348712.JPG,ISIC_0071957.JPG,false,1,keypress(m),500,181111.90000000596,181111.59999999404,178030.558,178035.19999998808,178067.066,181146.439,8,400,22,,ISIC_8348712.JPG
break,html.Screen,4_21_1,2023-05-02T19:08:37.349Z,,0,,,NaN,,,,,,false,,,,181113,181112.59999999404,,181112.19999998808,,181146.439,8,400,,,
break_continue,html.Screen,4_21_2,2023-05-02T19:08:37.350Z,,0,,,NaN,,,,,,false,,,,181113.59999999404,181113.5,,181113.30000001192,,181146.439,8,400,,,
sequence,flow.Sequence,4_21,2023-05-02T19:08:37.350Z,,0,,,3046.4340000000084,completion,,,,,false,,,,181113.69999998808,181113.5,178030.558,178035.19999998808,178067.066,181146.439,8,400,,,
trial,html.Screen,4_22_0,2023-05-02T19:08:40.247Z,,0,1,,2864.361000011908,response,ISIC_2843245.JPG,,ISIC_0000283.JPG,ISIC_0000283.JPG,false,0,keypress(z),500,184011.09999999404,184010.80000001192,181106.187,181113.90000000596,181146.439,184045.414,8,400,23,,ISIC_2843245.JPG
break,html.Screen,4_22_1,2023-05-02T19:08:40.250Z,,0,,,NaN,,,,,,false,,,,184013.30000001192,184013.09999999404,,184011.40000000596,,184045.414,8,400,,,
break_continue,html.Screen,4_22_2,2023-05-02T19:08:40.250Z,,0,,,NaN,,,,,,false,,,,184013.5,184013.40000000596,,184013.40000000596,,184045.414,8,400,,,
sequence,flow.Sequence,4_22,2023-05-02T19:08:40.250Z,,0,,,2866.9610000059474,completion,,,,,false,,,,184013.59999999404,184013.40000000596,181106.187,181113.90000000596,181146.439,184045.414,8,400,,,
trial,html.Screen,4_23_0,2023-05-02T19:08:42.958Z,,0,1,,2676.0860000000102,response,ISIC_0839675.JPG,,ISIC_0055393.JPG,ISIC_0839675.JPG,false,1,keypress(m),500,186721.90000000596,186721.5,184008.913,184013.80000001192,184045.414,186756.21,8,400,24,,ISIC_0055393.JPG
break,html.Screen,4_23_1,2023-05-02T19:08:42.960Z,,0,,,NaN,,,,,,false,,,,186724.09999999404,186723.90000000596,,186722.09999999404,,186756.21,8,400,,,
break_continue,html.Screen,4_23_2,2023-05-02T19:08:42.961Z,,0,,,NaN,,,,,,false,,,,186724.30000001192,186724.30000001192,,186724.19999998808,,186756.21,8,400,,,
sequence,flow.Sequence,4_23,2023-05-02T19:08:42.961Z,,0,,,2678.886000011931,completion,,,,,false,,,,186724.40000000596,186724.30000001192,184008.913,184013.69999998808,184045.414,186756.21,8,400,,,
trial,html.Screen,4_24_0,2023-05-02T19:08:46.929Z,,0,1,,3936.3899999940477,response,ISIC_1102391.JPG,,ISIC_0653706.JPG,ISIC_0653706.JPG,false,0,keypress(z),500,190692.90000000596,190692.59999999404,186717.686,186724.5,186756.21,190726.635,8,400,25,,ISIC_1102391.JPG
break,html.Screen,4_24_1,2023-05-02T19:08:46.931Z,,0,,,NaN,,,,,,false,,,,190695,190694.90000000596,,190693.09999999404,,190726.635,8,400,,,
break_continue,html.Screen,4_24_2,2023-05-02T19:08:46.932Z,,0,,,NaN,,,,,,false,,,,190695.30000001192,190695.30000001192,,190695.09999999404,,190726.635,8,400,,,
sequence,flow.Sequence,4_24,2023-05-02T19:08:46.932Z,,0,,,3939.090000011929,completion,,,,,false,,,,190695.40000000596,190695.30000001192,186717.686,186724.5,186756.21,190726.635,8,400,,,
trial,html.Screen,4_25_0,2023-05-02T19:08:49.757Z,,0,1,,2793.46499999403,response,ISIC_0032095.JPG,,ISIC_3985782.JPG,ISIC_3985782.JPG,false,0,keypress(z),500,193520.5,193520.09999999404,190692.923,190695.5,190726.635,193554.752,8,400,26,,ISIC_0032095.JPG
break,html.Screen,4_25_1,2023-05-02T19:08:49.758Z,,0,,,NaN,,,,,,false,,,,193521.59999999404,193521.19999998808,,193520.69999998808,,193554.752,8,400,,,
break_continue,html.Screen,4_25_2,2023-05-02T19:08:49.758Z,,0,,,NaN,,,,,,false,,,,193522,193521.80000001192,,193521.80000001192,,193554.752,8,400,,,
sequence,flow.Sequence,4_25,2023-05-02T19:08:49.758Z,,0,,,2795.1650000119116,completion,,,,,false,,,,193522.09999999404,193521.80000001192,190692.923,190695.5,190726.635,193554.752,8,400,,,
trial,html.Screen,4_26_0,2023-05-02T19:08:52.680Z,,0,1,,2888.4479999880714,response,ISIC_0057661.JPG,,ISIC_0024552.JPG,ISIC_0057661.JPG,false,1,keypress(m),500,196443.40000000596,196443.19999998808,193515.99,193522.30000001192,193554.752,196477.618,8,400,27,,ISIC_0024552.JPG
break,html.Screen,4_26_1,2023-05-02T19:08:52.682Z,,0,,,NaN,,,,,,false,,,,196445.69999998808,196445.5,,196443.69999998808,,196477.618,8,400,,,
break_continue,html.Screen,4_26_2,2023-05-02T19:08:52.682Z,,0,,,NaN,,,,,,false,,,,196446,196445.90000000596,,196445.80000001192,,196477.618,8,400,,,
sequence,flow.Sequence,4_26,2023-05-02T19:08:52.682Z,,0,,,2891.148000005953,completion,,,,,false,,,,196446,196445.90000000596,193515.99,193522.30000001192,193554.752,196477.618,8,400,,,
trial,html.Screen,4_27_0,2023-05-02T19:08:55.796Z,,0,1,,3081.481999994052,response,ISIC_1558504.JPG,,ISIC_0006624.JPG,ISIC_0006624.JPG,false,0,keypress(z),500,199559.40000000596,199559.09999999404,196436.338,196446.09999999404,196477.618,199643.821,8,400,28,,ISIC_1558504.JPG
break,html.Screen,4_27_1,2023-05-02T19:08:55.798Z,,0,,,NaN,,,,,,false,,,,199561.40000000596,199561.19999998808,,199559.69999998808,,199643.821,8,400,,,
break_continue,html.Screen,4_27_2,2023-05-02T19:08:55.798Z,,0,,,NaN,,,,,,false,,,,199561.59999999404,199561.59999999404,,199561.5,,199643.821,8,400,,,
sequence,flow.Sequence,4_27,2023-05-02T19:08:55.798Z,,0,,,3083.981999994052,completion,,,,,false,,,,199561.69999998808,199561.59999999404,196436.338,196446.09999999404,196477.618,199643.821,8,400,,,
trial,html.Screen,4_28_0,2023-05-02T19:08:58.974Z,,0,1,,3092.9790000119247,response,ISIC_0064761.JPG,,ISIC_0013580.JPG,ISIC_0064761.JPG,false,1,keypress(m),500,202737.19999998808,202736.80000001192,199593.814,199561.90000000596,199643.821,202771.567,8,400,29,,ISIC_0013580.JPG
break,html.Screen,4_28_1,2023-05-02T19:08:58.976Z,,0,,,NaN,,,,,,false,,,,202739.40000000596,202739.19999998808,,202737.5,,202771.567,8,400,,,
break_continue,html.Screen,4_28_2,2023-05-02T19:08:58.976Z,,0,,,NaN,,,,,,false,,,,202739.69999998808,202739.59999999404,,202739.59999999404,,202771.567,8,400,,,
sequence,flow.Sequence,4_28,2023-05-02T19:08:58.989Z,,0,,,3095.7789999940433,completion,,,,,false,,,,202752.59999999404,202739.59999999404,199593.814,199561.90000000596,199643.821,202771.567,8,400,,,
trial,html.Screen,4_29_0,2023-05-02T19:09:01.565Z,,0,1,,2556.93299999999,response,ISIC_1081430.JPG,,ISIC_4529363.JPG,ISIC_4529363.JPG,false,0,keypress(z),500,205328.69999998808,205328.5,202731.981,202752.69999998808,202771.567,205394.721,8,400,30,,ISIC_1081430.JPG
break,html.Screen,4_29_1,2023-05-02T19:09:01.567Z,,0,,,NaN,,,,,,false,,,,205330.59999999404,205330.5,,205328.90000000596,,205394.721,8,400,,,
break_continue,html.Screen,4_29_2,2023-05-02T19:09:01.567Z,,0,,,NaN,,,,,,false,,,,205330.90000000596,205330.80000001192,,205330.69999998808,,205394.721,8,400,,,
sequence,flow.Sequence,4_29,2023-05-02T19:09:01.567Z,,0,,,2559.233000011911,completion,,,,,false,,,,205331,205330.80000001192,202731.981,202752.69999998808,202771.567,205394.721,8,400,,,
trial,html.Screen,4_30_0,2023-05-02T19:09:04.348Z,,0,1,,2716.2790000000095,response,ISIC_0026155.JPG,,ISIC_0061092.JPG,ISIC_0061092.JPG,false,0,keypress(z),500,208111.40000000596,208111,205361.223,205331,205394.721,208141.65,8,400,31,,ISIC_0026155.JPG
break,html.Screen,4_30_1,2023-05-02T19:09:04.349Z,,0,,,NaN,,,,,,false,,,,208112.30000001192,208112.19999998808,,208111.5,,208141.65,8,400,,,
break_continue,html.Screen,4_30_2,2023-05-02T19:09:04.349Z,,0,,,NaN,,,,,,false,,,,208112.69999998808,208112.69999998808,,208112.5,,208141.65,8,400,,,
sequence,flow.Sequence,4_30,2023-05-02T19:09:04.349Z,,0,,,2717.9789999880886,completion,,,,,false,,,,208112.90000000596,208112.69999998808,205361.223,205331,205394.721,208141.65,8,400,,,
trial,html.Screen,4_31_0,2023-05-02T19:09:06.956Z,,0,1,,2578.049999988085,response,ISIC_3448630.JPG,,ISIC_0014059.JPG,ISIC_0014059.JPG,false,0,keypress(z),500,210720,210719.69999998808,208107.01,208113,208141.65,210754.247,8,400,32,,ISIC_3448630.JPG
break,html.Screen,4_31_1,2023-05-02T19:09:06.957Z,,0,,,NaN,,,,,,false,,,,210721.09999999404,210720.69999998808,,210720.19999998808,,210754.247,8,400,,,
break_continue,html.Screen,4_31_2,2023-05-02T19:09:06.958Z,,0,,,NaN,,,,,,false,,,,210721.59999999404,210721.40000000596,,210721.30000001192,,210754.247,8,400,,,
sequence,flow.Sequence,4_31,2023-05-02T19:09:06.958Z,,0,,,2579.7500000059663,completion,,,,,false,,,,210721.80000001192,210721.40000000596,208107.01,208113,208141.65,210754.247,8,400,,,
trial,html.Screen,4_32_0,2023-05-02T19:09:09.427Z,,0,1,,2435.8529999940365,response,ISIC_1924949.JPG,,ISIC_0028915.JPG,ISIC_0028915.JPG,false,0,keypress(z),500,213190.40000000596,213190.09999999404,210712.088,210721.80000001192,210754.247,213237.627,8,400,33,,ISIC_1924949.JPG
break,html.Screen,4_32_1,2023-05-02T19:09:09.428Z,,0,,,NaN,,,,,,false,,,,213191.40000000596,213191.19999998808,,213190.5,,213237.627,8,400,,,
break_continue,html.Screen,4_32_2,2023-05-02T19:09:09.428Z,,0,,,NaN,,,,,,false,,,,213191.59999999404,213191.5,,213191.5,,213237.627,8,400,,,
sequence,flow.Sequence,4_32,2023-05-02T19:09:09.428Z,,0,,,2437.252999999997,completion,,,,,false,,,,213191.69999998808,213191.5,210712.088,210721.80000001192,210754.247,213237.627,8,400,,,
trial,html.Screen,4_33_0,2023-05-02T19:09:12.090Z,,0,1,,2615.472999994032,response,ISIC_0025186.JPG,,ISIC_4052597.JPG,ISIC_4052597.JPG,false,0,keypress(z),500,215853.69999998808,215853.09999999404,213188.144,213191.90000000596,213237.627,215903.854,8,400,34,,ISIC_0025186.JPG
break,html.Screen,4_33_1,2023-05-02T19:09:12.092Z,,0,,,NaN,,,,,,false,,,,215855.40000000596,215854.90000000596,,215854,,215903.854,8,400,,,
break_continue,html.Screen,4_33_2,2023-05-02T19:09:12.092Z,,0,,,NaN,,,,,,false,,,,215855.90000000596,215855.80000001192,,215855.59999999404,,215903.854,8,400,,,
sequence,flow.Sequence,4_33,2023-05-02T19:09:12.092Z,,0,,,2618.1730000119132,completion,,,,,false,,,,215856.19999998808,215855.80000001192,213188.144,213191.80000001192,213237.627,215903.854,8,400,,,
trial,html.Screen,4_34_0,2023-05-02T19:09:14.643Z,,0,1,,2502.7459999940475,response,ISIC_0679494.JPG,,ISIC_0064284.JPG,ISIC_0679494.JPG,false,1,keypress(m),500,218406.90000000596,218406.59999999404,215853.928,215856.30000001192,215903.854,218441.016,8,400,35,,ISIC_0064284.JPG
break,html.Screen,4_34_1,2023-05-02T19:09:14.645Z,,0,,,NaN,,,,,,false,,,,218408.80000001192,218408.59999999404,,218407,,218441.016,8,400,,,
break_continue,html.Screen,4_34_2,2023-05-02T19:09:14.645Z,,0,,,NaN,,,,,,false,,,,218409,218408.90000000596,,218408.80000001192,,218441.016,8,400,,,
sequence,flow.Sequence,4_34,2023-05-02T19:09:14.645Z,,0,,,2505.0460000059684,completion,,,,,false,,,,218409.09999999404,218408.90000000596,215853.928,215856.30000001192,215903.854,218441.016,8,400,,,
trial,html.Screen,4_35_0,2023-05-02T19:09:17.337Z,,0,1,,2659.384000005957,response,ISIC_8727962.JPG,,ISIC_0010322.JPG,ISIC_8727962.JPG,false,1,keypress(m),500,221100.69999998808,221100.40000000596,218404.972,218409.19999998808,218441.016,221134.9,8,400,36,,ISIC_0010322.JPG
break,html.Screen,4_35_1,2023-05-02T19:09:17.339Z,,0,,,NaN,,,,,,false,,,,221102.90000000596,221102.80000001192,,221101,,221134.9,8,400,,,
break_continue,html.Screen,4_35_2,2023-05-02T19:09:17.339Z,,0,,,NaN,,,,,,false,,,,221103.09999999404,221103,,221103,,221134.9,8,400,,,
sequence,flow.Sequence,4_35,2023-05-02T19:09:17.340Z,,0,,,2661.9839999999967,completion,,,,,false,,,,221103.30000001192,221103,218404.972,218409.09999999404,218441.016,221134.9,8,400,,,
trial,html.Screen,4_36_0,2023-05-02T19:09:21.645Z,,0,1,,4273.699999994045,response,ISIC_3401631.JPG,,ISIC_1850674.JPG,ISIC_1850674.JPG,false,0,keypress(z),500,225408.90000000596,225408.59999999404,221094.696,221103.40000000596,221134.9,225443.33,8,400,37,,ISIC_3401631.JPG
break,html.Screen,4_36_1,2023-05-02T19:09:21.647Z,,0,,,NaN,,,,,,false,,,,225410.90000000596,225410.69999998808,,225409.19999998808,,225443.33,8,400,,,
break_continue,html.Screen,4_36_2,2023-05-02T19:09:21.648Z,,0,,,NaN,,,,,,false,,,,225411.19999998808,225411.19999998808,,225411.09999999404,,225443.33,8,400,,,
sequence,flow.Sequence,4_36,2023-05-02T19:09:21.648Z,,0,,,4276.299999988085,completion,,,,,false,,,,225411.30000001192,225411.19999998808,221094.696,221103.30000001192,221134.9,225443.33,8,400,,,
trial,html.Screen,4_37_0,2023-05-02T19:09:24.311Z,,0,1,,2635.170000000013,response,ISIC_4168757.JPG,,ISIC_0054640.JPG,ISIC_4168757.JPG,false,1,keypress(m),500,228078.69999998808,228078.5,225398.657,225411.40000000596,225443.33,228112.839,8,400,38,,ISIC_0054640.JPG
break,html.Screen,4_37_1,2023-05-02T19:09:24.312Z,,0,,,NaN,,,,,,false,,,,228080.30000001192,228079.30000001192,,228078.90000000596,,228112.839,8,400,,,
break_continue,html.Screen,4_37_2,2023-05-02T19:09:24.313Z,,0,,,NaN,,,,,,false,,,,228080.69999998808,228080.59999999404,,228080.5,,228112.839,8,400,,,
sequence,flow.Sequence,4_37,2023-05-02T19:09:24.313Z,,0,,,2637.2699999940523,completion,,,,,false,,,,228080.80000001192,228080.59999999404,225398.657,225411.30000001192,225443.33,228112.839,8,400,,,
trial,html.Screen,4_38_0,2023-05-02T19:09:26.929Z,,0,1,,2583.9610000119137,response,ISIC_0010347.JPG,,ISIC_7801289.JPG,ISIC_7801289.JPG,false,0,keypress(z),500,230697.09999999404,230696.80000001192,228078.106,228080.90000000596,228112.839,230733.753,8,400,39,,ISIC_0010347.JPG
break,html.Screen,4_38_1,2023-05-02T19:09:26.930Z,,0,,,NaN,,,,,,false,,,,230698.40000000596,230698.19999998808,,230697.30000001192,,230733.753,8,400,,,
break_continue,html.Screen,4_38_2,2023-05-02T19:09:26.931Z,,0,,,NaN,,,,,,false,,,,230698.69999998808,230698.59999999404,,230698.5,,230733.753,8,400,,,
sequence,flow.Sequence,4_38,2023-05-02T19:09:26.931Z,,0,,,2585.7609999940323,completion,,,,,false,,,,230698.80000001192,230698.59999999404,228078.106,228080.80000001192,228112.839,230733.753,8,400,,,
trial,html.Screen,4_39_0,2023-05-02T19:09:29.495Z,,0,1,,2528.946999988082,response,ISIC_7528996.JPG,,ISIC_8353090.JPG,ISIC_8353090.JPG,false,0,keypress(z),500,233262.90000000596,233262.69999998808,230695.157,230699,230733.753,233296.53,8,400,40,,ISIC_7528996.JPG
break,html.Screen,4_39_1,2023-05-02T19:09:29.497Z,,0,,,NaN,,,,,,false,,,,233264.5,233264.30000001192,,233263.09999999404,,233296.53,8,400,,,
break_continue,html.Screen,4_39_2,2023-05-02T19:09:29.497Z,,0,,,NaN,,,,,,false,,,,233264.80000001192,233264.80000001192,,233264.59999999404,,233296.53,8,400,,,
sequence,flow.Sequence,4_39,2023-05-02T19:09:29.497Z,,0,,,2531.047000011924,completion,,,,,false,,,,233265,233264.80000001192,230695.157,230698.90000000596,230733.753,233296.53,8,400,,,
trial,html.Screen,4_40_0,2023-05-02T19:09:32.091Z,,0,1,,2562.0699999940407,response,ISIC_0064997.JPG,,ISIC_0927854.JPG,ISIC_0927854.JPG,false,0,keypress(z),500,235859,235858.59999999404,233258.288,233265.09999999404,233296.53,235893.317,8,400,41,,ISIC_0064997.JPG
break,html.Screen,4_40_1,2023-05-02T19:09:32.093Z,,0,,,NaN,,,,,,false,,,,235861.19999998808,235861,,235859.30000001192,,235893.317,8,400,,,
break_continue,html.Screen,4_40_2,2023-05-02T19:09:32.093Z,,0,,,NaN,,,,,,false,,,,235861.5,235861.40000000596,,235861.30000001192,,235893.317,8,400,,,
sequence,flow.Sequence,4_40,2023-05-02T19:09:32.094Z,,0,,,2564.8700000059616,completion,,,,,false,,,,235861.5,235861.40000000596,233258.288,233265,233296.53,235893.317,8,400,,,
trial,html.Screen,4_41_0,2023-05-02T19:09:34.698Z,,0,1,,2572.18299999999,response,ISIC_2682861.JPG,,ISIC_0005006.JPG,ISIC_0005006.JPG,false,0,keypress(z),500,238465.90000000596,238465.5,235847.66,235861.59999999404,235893.317,238500.017,8,400,42,,ISIC_2682861.JPG
break,html.Screen,4_41_1,2023-05-02T19:09:34.700Z,,0,,,NaN,,,,,,false,,,,238467.59999999404,238466.69999998808,,238466.09999999404,,238500.017,8,400,,,
break_continue,html.Screen,4_41_2,2023-05-02T19:09:34.700Z,,0,,,NaN,,,,,,false,,,,238468.09999999404,238468,,238467.90000000596,,238500.017,8,400,,,
sequence,flow.Sequence,4_41,2023-05-02T19:09:34.700Z,,0,,,2574.68299999999,completion,,,,,false,,,,238468.19999998808,238468,235847.66,235861.59999999404,235893.317,238500.017,8,400,,,
trial,html.Screen,4_42_0,2023-05-02T19:09:37.794Z,,0,1,,3061.582999994047,response,ISIC_1441260.JPG,,ISIC_1915890.JPG,ISIC_1441260.JPG,false,1,keypress(m),500,241561.90000000596,241561.59999999404,238464.657,238468.30000001192,238500.017,241596.254,8,400,43,,ISIC_1915890.JPG
break,html.Screen,4_42_1,2023-05-02T19:09:37.796Z,,0,,,NaN,,,,,,false,,,,241564.09999999404,241563.90000000596,,241562.19999998808,,241596.254,8,400,,,
break_continue,html.Screen,4_42_2,2023-05-02T19:09:37.796Z,,0,,,NaN,,,,,,false,,,,241564.30000001192,241564.30000001192,,241564.19999998808,,241596.254,8,400,,,
sequence,flow.Sequence,4_42,2023-05-02T19:09:37.797Z,,0,,,3064.2830000119284,completion,,,,,false,,,,241564.5,241564.30000001192,238464.657,238468.30000001192,238500.017,241596.254,8,400,,,
trial,html.Screen,4_43_0,2023-05-02T19:09:40.461Z,,0,1,,2632.3459999940533,response,ISIC_0031015.JPG,,ISIC_0010198.JPG,ISIC_0010198.JPG,false,0,keypress(z),500,244228.90000000596,244228.59999999404,241558.155,241564.59999999404,241596.254,244263.189,8,400,44,,ISIC_0031015.JPG
break,html.Screen,4_43_1,2023-05-02T19:09:40.463Z,,0,,,NaN,,,,,,false,,,,244230.80000001192,244230.59999999404,,244229.09999999404,,244263.189,8,400,,,
break_continue,html.Screen,4_43_2,2023-05-02T19:09:40.463Z,,0,,,NaN,,,,,,false,,,,244231.09999999404,244231,,244230.90000000596,,244263.189,8,400,,,
sequence,flow.Sequence,4_43,2023-05-02T19:09:40.463Z,,0,,,2634.7460000000137,completion,,,,,false,,,,244231.19999998808,244231,241558.155,241564.5,241596.254,244263.189,8,400,,,
trial,html.Screen,4_44_0,2023-05-02T19:09:43.169Z,,0,1,,2673.611000011908,response,ISIC_6037869.JPG,,ISIC_0010143.JPG,ISIC_0010143.JPG,false,0,keypress(z),500,246937,246936.80000001192,244223.58,244231.19999998808,244263.189,246974.601,8,400,45,,ISIC_6037869.JPG
break,html.Screen,4_44_1,2023-05-02T19:09:43.171Z,,0,,,NaN,,,,,,false,,,,246938.59999999404,246938.40000000596,,246937.19999998808,,246974.601,8,400,,,
break_continue,html.Screen,4_44_2,2023-05-02T19:09:43.171Z,,0,,,NaN,,,,,,false,,,,246938.80000001192,246938.80000001192,,246938.69999998808,,246974.601,8,400,,,
sequence,flow.Sequence,4_44,2023-05-02T19:09:43.171Z,,0,,,2675.611000011908,completion,,,,,false,,,,246938.90000000596,246938.80000001192,244223.58,244231.19999998808,244263.189,246974.601,8,400,,,
trial,html.Screen,4_45_0,2023-05-02T19:09:45.846Z,,0,1,,2639.399000000005,response,ISIC_6381852.JPG,,ISIC_0031096.JPG,ISIC_0031096.JPG,false,0,keypress(z),500,249614.19999998808,249614,246935.834,246939.09999999404,246974.601,249648.464,8,400,46,,ISIC_6381852.JPG
break,html.Screen,4_45_1,2023-05-02T19:09:45.848Z,,0,,,NaN,,,,,,false,,,,249616.30000001192,249616,,249614.40000000596,,249648.464,8,400,,,
break_continue,html.Screen,4_45_2,2023-05-02T19:09:45.849Z,,0,,,NaN,,,,,,false,,,,249616.5,249616.5,,249616.30000001192,,249648.464,8,400,,,
sequence,flow.Sequence,4_45,2023-05-02T19:09:45.849Z,,0,,,2641.899000000005,completion,,,,,false,,,,249616.59999999404,249616.5,246935.834,246939,246974.601,249648.464,8,400,,,
trial,html.Screen,4_46_0,2023-05-02T19:09:48.219Z,,0,1,,2338.535999999993,response,ISIC_0065525.JPG,,ISIC_5261146.JPG,ISIC_5261146.JPG,false,0,keypress(z),500,251987.30000001192,251987,249608.649,249616.69999998808,249648.464,252019.541,8,400,47,,ISIC_0065525.JPG
break,html.Screen,4_46_1,2023-05-02T19:09:48.220Z,,0,,,NaN,,,,,,false,,,,251988,251987.80000001192,,251987.40000000596,,252019.541,8,400,,,
break_continue,html.Screen,4_46_2,2023-05-02T19:09:48.220Z,,0,,,NaN,,,,,,false,,,,251988.30000001192,251988.19999998808,,251988.09999999404,,252019.541,8,400,,,
sequence,flow.Sequence,4_46,2023-05-02T19:09:48.220Z,,0,,,2339.735999988072,completion,,,,,false,,,,251988.40000000596,251988.19999998808,249608.649,249616.69999998808,249648.464,252019.541,8,400,,,
trial,html.Screen,4_47_0,2023-05-02T19:09:51.246Z,,0,1,,2993.6589999880816,response,ISIC_0026329.JPG,,ISIC_1097830.JPG,ISIC_1097830.JPG,false,0,keypress(z),500,255013.5,255013.19999998808,251970.105,251988.5,252019.541,255081.253,8,400,48,,ISIC_0026329.JPG
break,html.Screen,4_47_1,2023-05-02T19:09:51.248Z,,0,,,NaN,,,,,,false,,,,255015.80000001192,255015.69999998808,,255013.80000001192,,255081.253,8,400,,,
break_continue,html.Screen,4_47_2,2023-05-02T19:09:51.248Z,,0,,,NaN,,,,,,false,,,,255016.09999999404,255016.09999999404,,255016,,255081.253,8,400,,,
sequence,flow.Sequence,4_47,2023-05-02T19:09:51.248Z,,0,,,2996.558999994042,completion,,,,,false,,,,255016.19999998808,255016.09999999404,251970.105,251988.40000000596,252019.541,255081.253,8,400,,,
trial,html.Screen,4_48_0,2023-05-02T19:09:54.700Z,,0,1,,3386.547000011924,response,ISIC_1308081.JPG,,ISIC_6004197.JPG,ISIC_6004197.JPG,false,0,keypress(z),500,258468.09999999404,258467.80000001192,255047.92,255016.19999998808,255081.253,258502.235,8,400,49,,ISIC_1308081.JPG
break,html.Screen,4_48_1,2023-05-02T19:09:54.702Z,,0,,,NaN,,,,,,false,,,,258470.19999998808,258469.90000000596,,258468.19999998808,,258502.235,8,400,,,
break_continue,html.Screen,4_48_2,2023-05-02T19:09:54.702Z,,0,,,NaN,,,,,,false,,,,258470.40000000596,258470.30000001192,,258470.30000001192,,258502.235,8,400,,,
sequence,flow.Sequence,4_48,2023-05-02T19:09:54.703Z,,0,,,3389.047000011924,completion,,,,,false,,,,258470.59999999404,258470.30000001192,255047.92,255016.19999998808,255081.253,258502.235,8,400,,,
trial,html.Screen,4_49_0,2023-05-02T19:09:58.114Z,,0,1,,3379.464999988093,response,ISIC_0027327.JPG,,ISIC_0013243.JPG,ISIC_0027327.JPG,false,1,keypress(m),500,261882,261881.69999998808,258453.302,258470.59999999404,258502.235,261916.25,8,400,50,,ISIC_0013243.JPG
break,html.Screen,4_49_1,2023-05-02T19:10:03.116Z,,0,,,4999.931999999972,timeout,,,,,false,,,,266883.6999999881,266882.856,261867.423,261882.19999998808,261916.25,266916.182,8,400,,,
break_continue,html.Screen,4_49_2,2023-05-02T19:10:04.281Z,,0,,,1118.2180000059889,response,,,,,false,continue,keypress(Space),,268048.6999999881,268034.40000000596,266882.856,266883.8000000119,266916.182,268115.878,8,400,,,
sequence,flow.Sequence,4_49,2023-05-02T19:10:04.281Z,,0,,,9532.165000005974,completion,,,,,false,,,,268048.6999999881,268034.40000000596,258453.302,258470.59999999404,258502.235,268115.878,8,400,,,
trial,html.Screen,4_50_0,2023-05-02T19:10:06.598Z,,0,2,,2249.922000011895,response,ISIC_4352700.JPG,,ISIC_0032940.JPG,ISIC_0032940.JPG,false,0,keypress(z),500,270366.40000000596,270365.8000000119,268082.447,268048.90000000596,268115.878,270399.587,8,400,1,,ISIC_4352700.JPG
break,html.Screen,4_50_1,2023-05-02T19:10:06.602Z,,0,,,NaN,,,,,,false,,,,270370.3000000119,270368.6999999881,,270366.90000000596,,270399.587,8,400,,,
break_continue,html.Screen,4_50_2,2023-05-02T19:10:06.604Z,,0,,,NaN,,,,,,false,,,,270371.5,270371.09999999404,,270370.59999999404,,270399.587,8,400,,,
sequence,flow.Sequence,4_50,2023-05-02T19:10:06.604Z,,0,,,2255.2219999940135,completion,,,,,false,,,,270371.90000000596,270371.09999999404,268082.447,268048.8000000119,268115.878,270399.587,8,400,,,
trial,html.Screen,4_51_0,2023-05-02T19:10:10.752Z,,0,2,,4120.4130000000005,response,ISIC_6004197.JPG,,ISIC_0026247.JPG,ISIC_0026247.JPG,false,0,keypress(z),500,274520.40000000596,274520,270363.527,270372,270399.587,274555.058,8,400,2,,ISIC_6004197.JPG
break,html.Screen,4_51_1,2023-05-02T19:10:10.755Z,,0,,,NaN,,,,,,false,,,,274522.5,274522.40000000596,,274520.59999999404,,274555.058,8,400,,,
break_continue,html.Screen,4_51_2,2023-05-02T19:10:10.755Z,,0,,,NaN,,,,,,false,,,,274522.8000000119,274522.6999999881,,274522.59999999404,,274555.058,8,400,,,
sequence,flow.Sequence,4_51,2023-05-02T19:10:10.755Z,,0,,,4123.1129999880795,completion,,,,,false,,,,274523,274522.6999999881,270363.527,270372,270399.587,274555.058,8,400,,,
trial,html.Screen,4_52_0,2023-05-02T19:10:13.356Z,,0,2,,2567.941999999981,response,ISIC_9048507.JPG,,ISIC_3690890.JPG,ISIC_3690890.JPG,false,0,keypress(z),500,277123.5,277123,274516.732,274523,274555.058,277157.848,8,400,3,,ISIC_9048507.JPG
break,html.Screen,4_52_1,2023-05-02T19:10:13.358Z,,0,,,NaN,,,,,,false,,,,277125.6999999881,277125.3000000119,,277123.8000000119,,277157.848,8,400,,,
break_continue,html.Screen,4_52_2,2023-05-02T19:10:13.358Z,,0,,,NaN,,,,,,false,,,,277126.1999999881,277126,,277125.90000000596,,277157.848,8,400,,,
sequence,flow.Sequence,4_52,2023-05-02T19:10:13.358Z,,0,,,2570.941999999981,completion,,,,,false,,,,277126.40000000596,277126,274516.732,274523,274555.058,277157.848,8,400,,,
trial,html.Screen,4_53_0,2023-05-02T19:10:15.892Z,,0,2,,2501.452000011923,response,ISIC_6668197.JPG,,ISIC_0026239.JPG,ISIC_6668197.JPG,false,1,keypress(m),500,279659.59999999404,279659.3000000119,277123.897,277126.5,277157.848,279687.021,8,400,4,,ISIC_0026239.JPG
break,html.Screen,4_53_1,2023-05-02T19:10:15.893Z,,0,,,NaN,,,,,,false,,,,279660.90000000596,279660.6999999881,,279659.6999999881,,279687.021,8,400,,,
break_continue,html.Screen,4_53_2,2023-05-02T19:10:15.893Z,,0,,,NaN,,,,,,false,,,,279661.09999999404,279661.09999999404,,279661,,279687.021,8,400,,,
sequence,flow.Sequence,4_53,2023-05-02T19:10:15.893Z,,0,,,2503.2519999940414,completion,,,,,false,,,,279661.3000000119,279661.09999999404,277123.897,277126.40000000596,277157.848,279687.021,8,400,,,
trial,html.Screen,4_54_0,2023-05-02T19:10:18.407Z,,0,2,,2487.779000011913,response,ISIC_1327515.JPG,,ISIC_0963536.JPG,ISIC_0963536.JPG,false,0,keypress(z),500,282175.09999999404,282174.8000000119,279653.191,279661.40000000596,279687.021,282224.092,8,400,5,,ISIC_1327515.JPG
break,html.Screen,4_54_1,2023-05-02T19:10:18.408Z,,0,,,NaN,,,,,,false,,,,282175.8000000119,282175.6999999881,,282175.1999999881,,282224.092,8,400,,,
break_continue,html.Screen,4_54_2,2023-05-02T19:10:18.408Z,,0,,,NaN,,,,,,false,,,,282176.09999999404,282176,,282175.90000000596,,282224.092,8,400,,,
sequence,flow.Sequence,4_54,2023-05-02T19:10:18.408Z,,0,,,2488.978999999992,completion,,,,,false,,,,282176.1999999881,282176,279653.191,279661.3000000119,279687.021,282224.092,8,400,,,
trial,html.Screen,4_55_0,2023-05-02T19:10:20.879Z,,0,2,,2422.3080000059563,response,ISIC_0027277.JPG,,ISIC_0024519.JPG,ISIC_0024519.JPG,false,0,keypress(z),500,284646.6999999881,284646.40000000596,282174.098,282176.3000000119,282224.092,284702.335,8,400,6,,ISIC_0027277.JPG
break,html.Screen,4_55_1,2023-05-02T19:10:20.879Z,,0,,,NaN,,,,,,false,,,,284647.3000000119,284647.1999999881,,284646.90000000596,,284702.335,8,400,,,
break_continue,html.Screen,4_55_2,2023-05-02T19:10:20.880Z,,0,,,NaN,,,,,,false,,,,284647.59999999404,284647.5,,284647.5,,284702.335,8,400,,,
sequence,flow.Sequence,4_55,2023-05-02T19:10:20.880Z,,0,,,2423.407999999996,completion,,,,,false,,,,284647.8000000119,284647.5,282174.098,282176.3000000119,282224.092,284702.335,8,400,,,
trial,html.Screen,4_56_0,2023-05-02T19:10:23.302Z,,0,2,,2366.9650000119,response,ISIC_8205879.JPG,,ISIC_0392105.JPG,ISIC_0392105.JPG,false,0,keypress(z),500,287069.6999999881,287069.3000000119,284668.85,284647.8000000119,284702.335,287120.202,8,400,7,,ISIC_8205879.JPG
break,html.Screen,4_56_1,2023-05-02T19:10:23.303Z,,0,,,NaN,,,,,,false,,,,287070.5,287070.3000000119,,287069.90000000596,,287120.202,8,400,,,
break_continue,html.Screen,4_56_2,2023-05-02T19:10:23.303Z,,0,,,NaN,,,,,,false,,,,287070.6999999881,287070.59999999404,,287070.59999999404,,287120.202,8,400,,,
sequence,flow.Sequence,4_56,2023-05-02T19:10:23.303Z,,0,,,2368.2649999940186,completion,,,,,false,,,,287070.90000000596,287070.59999999404,284668.85,284647.8000000119,284702.335,287120.202,8,400,,,
trial,html.Screen,4_57_0,2023-05-02T19:10:25.637Z,,0,2,,2284.0980000119307,response,ISIC_3596877.JPG,,ISIC_0026371.JPG,ISIC_0026371.JPG,false,0,keypress(z),500,289404.6999999881,289404.3000000119,287086.814,287070.90000000596,287120.202,289439.021,8,400,8,,ISIC_3596877.JPG
break,html.Screen,4_57_1,2023-05-02T19:10:25.639Z,,0,,,NaN,,,,,,false,,,,289406.90000000596,289406.5,,289405,,289439.021,8,400,,,
break_continue,html.Screen,4_57_2,2023-05-02T19:10:25.640Z,,0,,,NaN,,,,,,false,,,,289407.3000000119,289407.09999999404,,289407,,289439.021,8,400,,,
sequence,flow.Sequence,4_57,2023-05-02T19:10:25.640Z,,0,,,2286.8979999940493,completion,,,,,false,,,,289407.40000000596,289407.09999999404,287086.814,287070.90000000596,287120.202,289439.021,8,400,,,
trial,html.Screen,4_58_0,2023-05-02T19:10:28.088Z,,0,2,,2416.478999999992,response,ISIC_4973666.JPG,,ISIC_0057328.JPG,ISIC_0057328.JPG,false,0,keypress(z),500,291855.90000000596,291855.5,289398.104,289407.5,289439.021,291890.204,8,400,9,,ISIC_4973666.JPG
break,html.Screen,4_58_1,2023-05-02T19:10:28.091Z,,0,,,NaN,,,,,,false,,,,291858.09999999404,291857.90000000596,,291856.09999999404,,291890.204,8,400,,,
break_continue,html.Screen,4_58_2,2023-05-02T19:10:28.091Z,,0,,,NaN,,,,,,false,,,,291858.40000000596,291858.1999999881,,291858.1999999881,,291890.204,8,400,,,
sequence,flow.Sequence,4_58,2023-05-02T19:10:28.091Z,,0,,,2419.178999988071,completion,,,,,false,,,,291858.5,291858.1999999881,289398.104,289407.5,289439.021,291890.204,8,400,,,
trial,html.Screen,4_59_0,2023-05-02T19:10:30.718Z,,0,2,,2595.1960000059335,response,ISIC_0068560.JPG,,ISIC_0010770.JPG,ISIC_0010770.JPG,false,0,keypress(z),500,294485.59999999404,294485.40000000596,291852.798,291858.59999999404,291890.204,294536.475,8,400,10,,ISIC_0068560.JPG
break,html.Screen,4_59_1,2023-05-02T19:10:30.719Z,,0,,,NaN,,,,,,false,,,,294487,294486.8000000119,,294485.8000000119,,294536.475,8,400,,,
break_continue,html.Screen,4_59_2,2023-05-02T19:10:30.720Z,,0,,,NaN,,,,,,false,,,,294487.3000000119,294487.3000000119,,294487.1999999881,,294536.475,8,400,,,
sequence,flow.Sequence,4_59,2023-05-02T19:10:30.720Z,,0,,,2597.096000011894,completion,,,,,false,,,,294487.40000000596,294487.3000000119,291852.798,291858.5,291890.204,294536.475,8,400,,,
trial,html.Screen,4_60_0,2023-05-02T19:10:33.216Z,,0,2,,2446.825000011944,response,ISIC_0010510.JPG,,ISIC_0025243.JPG,ISIC_0025243.JPG,false,0,keypress(z),500,296983.59999999404,296983.3000000119,294502.89,294487.5,294536.475,297018.326,8,400,11,,ISIC_0010510.JPG
break,html.Screen,4_60_1,2023-05-02T19:10:33.217Z,,0,,,NaN,,,,,,false,,,,296984.90000000596,296984.8000000119,,296983.8000000119,,297018.326,8,400,,,
break_continue,html.Screen,4_60_2,2023-05-02T19:10:33.218Z,,0,,,NaN,,,,,,false,,,,296985.1999999881,296985.09999999404,,296985,,297018.326,8,400,,,
sequence,flow.Sequence,4_60,2023-05-02T19:10:33.218Z,,0,,,2448.624999994063,completion,,,,,false,,,,296985.3000000119,296985.09999999404,294502.89,294487.5,294536.475,297018.326,8,400,,,
trial,html.Screen,4_61_0,2023-05-02T19:10:35.598Z,,0,2,,2346.47400001192,response,ISIC_0004986.JPG,,ISIC_1332766.JPG,ISIC_1332766.JPG,false,0,keypress(z),500,299365.09999999404,299364.8000000119,296968.917,296985.3000000119,297018.326,299399.402,8,400,12,,ISIC_0004986.JPG
break,html.Screen,4_61_1,2023-05-02T19:10:35.600Z,,0,,,NaN,,,,,,false,,,,299367.1999999881,299367,,299365.3000000119,,299399.402,8,400,,,
break_continue,html.Screen,4_61_2,2023-05-02T19:10:35.600Z,,0,,,NaN,,,,,,false,,,,299367.5,299367.40000000596,,299367.3000000119,,299399.402,8,400,,,
sequence,flow.Sequence,4_61,2023-05-02T19:10:35.600Z,,0,,,2349.0740000059595,completion,,,,,false,,,,299367.59999999404,299367.40000000596,296968.917,296985.3000000119,297018.326,299399.402,8,400,,,
trial,html.Screen,4_62_0,2023-05-02T19:10:44.658Z,,0,2,,9025.597999999998,response,ISIC_0014431.JPG,,ISIC_0015193.JPG,ISIC_0014431.JPG,false,1,keypress(m),500,308425.3000000119,308425,299356.634,299367.6999999881,299399.402,308459.138,8,400,13,,ISIC_0015193.JPG
break,html.Screen,4_62_1,2023-05-02T19:10:44.660Z,,0,,,NaN,,,,,,false,,,,308427.59999999404,308427.3000000119,,308425.5,,308459.138,8,400,,,
break_continue,html.Screen,4_62_2,2023-05-02T19:10:44.660Z,,0,,,NaN,,,,,,false,,,,308427.8000000119,308427.6999999881,,308427.6999999881,,308459.138,8,400,,,
sequence,flow.Sequence,4_62,2023-05-02T19:10:44.660Z,,0,,,9028.297999988077,completion,,,,,false,,,,308427.90000000596,308427.6999999881,299356.634,299367.59999999404,299399.402,308459.138,8,400,,,
trial,html.Screen,4_63_0,2023-05-02T19:10:47.553Z,,0,2,,2861.061999988102,response,ISIC_1308649.JPG,,ISIC_0011695.JPG,ISIC_1308649.JPG,false,1,keypress(m),500,311320.40000000596,311320.1999999881,308423.132,308428,308459.138,311354.524,8,400,14,,ISIC_0011695.JPG
break,html.Screen,4_63_1,2023-05-02T19:10:47.555Z,,0,,,NaN,,,,,,false,,,,311322.3000000119,311322.09999999404,,311320.59999999404,,311354.524,8,400,,,
break_continue,html.Screen,4_63_2,2023-05-02T19:10:47.555Z,,0,,,NaN,,,,,,false,,,,311322.6999999881,311322.59999999404,,311322.40000000596,,311354.524,8,400,,,
sequence,flow.Sequence,4_63,2023-05-02T19:10:47.555Z,,0,,,2863.4619999940624,completion,,,,,false,,,,311322.8000000119,311322.59999999404,308423.132,308428,308459.138,311354.524,8,400,,,
trial,html.Screen,4_64_0,2023-05-02T19:10:49.953Z,,0,2,,2365.476000000024,response,ISIC_3060145.JPG,,ISIC_0830131.JPG,ISIC_3060145.JPG,false,1,keypress(m),500,313720.3000000119,313720,311317.415,311322.8000000119,311354.524,313758.031,8,400,15,,ISIC_0830131.JPG
break,html.Screen,4_64_1,2023-05-02T19:10:49.954Z,,0,,,NaN,,,,,,false,,,,313721.90000000596,313721.6999999881,,313720.59999999404,,313758.031,8,400,,,
break_continue,html.Screen,4_64_2,2023-05-02T19:10:49.955Z,,0,,,NaN,,,,,,false,,,,313722.1999999881,313722.09999999404,,313722.09999999404,,313758.031,8,400,,,
sequence,flow.Sequence,4_64,2023-05-02T19:10:49.955Z,,0,,,2367.5759999940637,completion,,,,,false,,,,313722.3000000119,313722.09999999404,311317.415,311322.8000000119,311354.524,313758.031,8,400,,,
trial,html.Screen,4_65_0,2023-05-02T19:10:52.326Z,,0,2,,2334.9689999999828,response,ISIC_1644520.JPG,,ISIC_0025796.JPG,ISIC_1644520.JPG,false,1,keypress(m),500,316093.3000000119,316093,313718.215,313722.5,313758.031,316127.6,8,400,16,,ISIC_0025796.JPG
break,html.Screen,4_65_1,2023-05-02T19:10:52.328Z,,0,,,NaN,,,,,,false,,,,316095.5,316095.1999999881,,316093.5,,316127.6,8,400,,,
break_continue,html.Screen,4_65_2,2023-05-02T19:10:52.328Z,,0,,,NaN,,,,,,false,,,,316095.6999999881,316095.59999999404,,316095.5,,316127.6,8,400,,,
sequence,flow.Sequence,4_65,2023-05-02T19:10:52.328Z,,0,,,2337.5689999940223,completion,,,,,false,,,,316095.6999999881,316095.59999999404,313718.215,313722.40000000596,313758.031,316127.6,8,400,,,
trial,html.Screen,4_66_0,2023-05-02T19:10:54.730Z,,0,2,,2369.499999994063,response,ISIC_8388593.JPG,,ISIC_9473492.JPG,ISIC_8388593.JPG,false,1,keypress(m),500,318497.40000000596,318497.09999999404,316084.937,316095.8000000119,316127.6,318548.437,8,400,17,,ISIC_9473492.JPG
break,html.Screen,4_66_1,2023-05-02T19:10:54.732Z,,0,,,NaN,,,,,,false,,,,318499.6999999881,318499.5,,318497.59999999404,,318548.437,8,400,,,
break_continue,html.Screen,4_66_2,2023-05-02T19:10:54.732Z,,0,,,NaN,,,,,,false,,,,318500,318499.90000000596,,318499.8000000119,,318548.437,8,400,,,
sequence,flow.Sequence,4_66,2023-05-02T19:10:54.733Z,,0,,,2372.3000000059837,completion,,,,,false,,,,318500,318499.90000000596,316084.937,316095.8000000119,316127.6,318548.437,8,400,,,
trial,html.Screen,4_67_0,2023-05-02T19:10:57.517Z,,0,2,,2735.463000005984,response,ISIC_0067206.JPG,,ISIC_0031101.JPG,ISIC_0031101.JPG,false,0,keypress(z),500,321284.1999999881,321283.90000000596,318515.091,318500.09999999404,318548.437,321318.629,8,400,18,,ISIC_0067206.JPG
break,html.Screen,4_67_1,2023-05-02T19:10:57.519Z,,0,,,NaN,,,,,,false,,,,321286.09999999404,321285.90000000596,,321284.40000000596,,321318.629,8,400,,,
break_continue,html.Screen,4_67_2,2023-05-02T19:10:57.519Z,,0,,,NaN,,,,,,false,,,,321286.40000000596,321286.1999999881,,321286.1999999881,,321318.629,8,400,,,
sequence,flow.Sequence,4_67,2023-05-02T19:10:57.519Z,,0,,,2737.762999988103,completion,,,,,false,,,,321286.40000000596,321286.1999999881,318515.091,318500.09999999404,318548.437,321318.629,8,400,,,
trial,html.Screen,4_68_0,2023-05-02T19:11:00.059Z,,0,2,,2506.8709999999846,response,ISIC_0026167.JPG,,ISIC_0070342.JPG,ISIC_0070342.JPG,false,0,keypress(z),500,323826.3000000119,323825.5,321277.949,321286.5,321318.629,323863.867,8,400,19,,ISIC_0026167.JPG
break,html.Screen,4_68_1,2023-05-02T19:11:00.060Z,,0,,,NaN,,,,,,false,,,,323828,323827.40000000596,,323826.6999999881,,323863.867,8,400,,,
break_continue,html.Screen,4_68_2,2023-05-02T19:11:00.061Z,,0,,,NaN,,,,,,false,,,,323828.59999999404,323828.5,,323828.3000000119,,323863.867,8,400,,,
sequence,flow.Sequence,4_68,2023-05-02T19:11:00.061Z,,0,,,2509.8709999999846,completion,,,,,false,,,,323828.90000000596,323828.5,321277.949,321286.40000000596,321318.629,323863.867,8,400,,,
trial,html.Screen,4_69_0,2023-05-02T19:11:02.571Z,,0,2,,2474.4330000118935,response,ISIC_0028069.JPG,,ISIC_3787504.JPG,ISIC_3787504.JPG,false,0,keypress(z),500,326338.6999999881,326338.3000000119,323827.532,323829.09999999404,323863.867,326396.934,8,400,20,,ISIC_0028069.JPG
break,html.Screen,4_69_1,2023-05-02T19:11:02.573Z,,0,,,NaN,,,,,,false,,,,326340.5,326340.1999999881,,326339.1999999881,,326396.934,8,400,,,
break_continue,html.Screen,4_69_2,2023-05-02T19:11:02.573Z,,0,,,NaN,,,,,,false,,,,326340.8000000119,326340.6999999881,,326340.59999999404,,326396.934,8,400,,,
sequence,flow.Sequence,4_69,2023-05-02T19:11:02.573Z,,0,,,2476.8329999880516,completion,,,,,false,,,,326341,326340.6999999881,323827.532,323829,323863.867,326396.934,8,400,,,
trial,html.Screen,4_70_0,2023-05-02T19:11:04.975Z,,0,2,,2345.2659999880707,response,ISIC_1142933.JPG,,ISIC_0061418.JPG,ISIC_0061418.JPG,false,0,keypress(z),500,328742.5,328742.1999999881,326363.604,326341.3000000119,326396.934,328794.403,8,400,21,,ISIC_1142933.JPG
break,html.Screen,4_70_1,2023-05-02T19:11:04.976Z,,0,,,NaN,,,,,,false,,,,328743.1999999881,328743,,328742.6999999881,,328794.403,8,400,,,
break_continue,html.Screen,4_70_2,2023-05-02T19:11:04.976Z,,0,,,NaN,,,,,,false,,,,328743.40000000596,328743.3000000119,,328743.1999999881,,328794.403,8,400,,,
sequence,flow.Sequence,4_70,2023-05-02T19:11:04.976Z,,0,,,2346.3660000119125,completion,,,,,false,,,,328743.5,328743.3000000119,326363.604,326341.09999999404,326396.934,328794.403,8,400,,,
trial,html.Screen,4_71_0,2023-05-02T19:11:07.528Z,,0,2,,2500.4970000059693,response,ISIC_0057594.JPG,,ISIC_0013136.JPG,ISIC_0013136.JPG,false,0,keypress(z),500,331295.59999999404,331294.90000000596,328761.071,328743.5,328794.403,331331.543,8,400,22,,ISIC_0057594.JPG
break,html.Screen,4_71_1,2023-05-02T19:11:07.529Z,,0,,,NaN,,,,,,false,,,,331296.8000000119,331296.40000000596,,331296,,331331.543,8,400,,,
break_continue,html.Screen,4_71_2,2023-05-02T19:11:07.530Z,,0,,,NaN,,,,,,false,,,,331297.5,331297.1999999881,,331297,,331331.543,8,400,,,
sequence,flow.Sequence,4_71,2023-05-02T19:11:07.530Z,,0,,,2502.796999988088,completion,,,,,false,,,,331297.90000000596,331297.1999999881,328761.071,328743.5,328794.403,331331.543,8,400,,,
trial,html.Screen,4_72_0,2023-05-02T19:11:10.124Z,,0,2,,2559.5569999940344,response,ISIC_0062686.JPG,,ISIC_3361955.JPG,ISIC_3361955.JPG,false,0,keypress(z),500,333891.5,333891.09999999404,331297.612,331298.1999999881,331331.543,333913.593,8,400,23,,ISIC_0062686.JPG
break,html.Screen,4_72_1,2023-05-02T19:11:10.126Z,,0,,,NaN,,,,,,false,,,,333893.59999999404,333893.40000000596,,333891.6999999881,,333913.593,8,400,,,
break_continue,html.Screen,4_72_2,2023-05-02T19:11:10.126Z,,0,,,NaN,,,,,,false,,,,333893.90000000596,333893.8000000119,,333893.6999999881,,333913.593,8,400,,,
sequence,flow.Sequence,4_72,2023-05-02T19:11:10.126Z,,0,,,2562.257000011916,completion,,,,,false,,,,333894,333893.8000000119,331297.612,331298.1999999881,331331.543,333913.593,8,400,,,
trial,html.Screen,4_73_0,2023-05-02T19:11:12.423Z,,0,2,,2276.307000005967,response,ISIC_8887039.JPG,,ISIC_0010690.JPG,ISIC_0010690.JPG,false,0,keypress(z),500,336190.1999999881,336189.90000000596,333876.939,333894.09999999404,333913.593,336225.227,8,400,24,,ISIC_8887039.JPG
break,html.Screen,4_73_1,2023-05-02T19:11:12.423Z,,0,,,NaN,,,,,,false,,,,336190.8000000119,336190.6999999881,,336190.40000000596,,336225.227,8,400,,,
break_continue,html.Screen,4_73_2,2023-05-02T19:11:12.424Z,,0,,,NaN,,,,,,false,,,,336191,336191,,336190.90000000596,,336225.227,8,400,,,
sequence,flow.Sequence,4_73,2023-05-02T19:11:12.424Z,,0,,,2277.4070000000065,completion,,,,,false,,,,336191.09999999404,336191,333876.939,333894,333913.593,336225.227,8,400,,,
trial,html.Screen,4_74_0,2023-05-02T19:11:14.691Z,,0,2,,2233.372999994026,response,ISIC_0448485.JPG,,ISIC_0005248.JPG,ISIC_0448485.JPG,false,1,keypress(m),500,338459,338458.59999999404,336191.337,336191.1999999881,336225.227,338493.334,8,400,25,,ISIC_0005248.JPG
break,html.Screen,4_74_1,2023-05-02T19:11:14.694Z,,0,,,NaN,,,,,,false,,,,338461.6999999881,338461.40000000596,,338459.3000000119,,338493.334,8,400,,,
break_continue,html.Screen,4_74_2,2023-05-02T19:11:14.694Z,,0,,,NaN,,,,,,false,,,,338462,338461.90000000596,,338461.8000000119,,338493.334,8,400,,,
sequence,flow.Sequence,4_74,2023-05-02T19:11:14.695Z,,0,,,2236.673000005947,completion,,,,,false,,,,338462.09999999404,338461.90000000596,336191.337,336191.1999999881,336225.227,338493.334,8,400,,,
trial,html.Screen,4_75_0,2023-05-02T19:11:17.081Z,,0,2,,2354.9660000119475,response,ISIC_0011336.JPG,,ISIC_0026619.JPG,ISIC_0026619.JPG,false,0,keypress(z),500,340848.6999999881,340848.3000000119,338459.588,338462.3000000119,338493.334,340883.161,8,400,26,,ISIC_0011336.JPG
break,html.Screen,4_75_1,2023-05-02T19:11:17.084Z,,0,,,NaN,,,,,,false,,,,340851.3000000119,340851,,340848.90000000596,,340883.161,8,400,,,
break_continue,html.Screen,4_75_2,2023-05-02T19:11:17.084Z,,0,,,NaN,,,,,,false,,,,340851.8000000119,340851.5,,340851.40000000596,,340883.161,8,400,,,
sequence,flow.Sequence,4_75,2023-05-02T19:11:17.084Z,,0,,,2358.1660000000265,completion,,,,,false,,,,340852.09999999404,340851.5,338459.588,338462.1999999881,338493.334,340883.161,8,400,,,
trial,html.Screen,4_76_0,2023-05-02T19:11:19.320Z,,0,2,,2204.139000011899,response,ISIC_0030751.JPG,,ISIC_3942075.JPG,ISIC_0030751.JPG,false,1,keypress(m),500,343087.59999999404,343087.3000000119,340843.091,340852.1999999881,340883.161,343121.973,8,400,27,,ISIC_3942075.JPG
break,html.Screen,4_76_1,2023-05-02T19:11:19.322Z,,0,,,NaN,,,,,,false,,,,343089.59999999404,343089.40000000596,,343087.90000000596,,343121.973,8,400,,,
break_continue,html.Screen,4_76_2,2023-05-02T19:11:19.322Z,,0,,,NaN,,,,,,false,,,,343089.8000000119,343089.8000000119,,343089.6999999881,,343121.973,8,400,,,
sequence,flow.Sequence,4_76,2023-05-02T19:11:19.322Z,,0,,,2206.639000011899,completion,,,,,false,,,,343089.90000000596,343089.8000000119,340843.091,340852.1999999881,340883.161,343121.973,8,400,,,
trial,html.Screen,4_77_0,2023-05-02T19:11:21.499Z,,0,2,,2143.726999988081,response,ISIC_4170698.JPG,,ISIC_0031999.JPG,ISIC_0031999.JPG,false,0,keypress(z),500,345266.09999999404,345265.6999999881,343083.855,343090.09999999404,343121.973,345300.661,8,400,28,,ISIC_4170698.JPG
break,html.Screen,4_77_1,2023-05-02T19:11:21.501Z,,0,,,NaN,,,,,,false,,,,345268.1999999881,345267,,345266.5,,345300.661,8,400,,,
break_continue,html.Screen,4_77_2,2023-05-02T19:11:21.501Z,,0,,,NaN,,,,,,false,,,,345268.59999999404,345268.59999999404,,345268.40000000596,,345300.661,8,400,,,
sequence,flow.Sequence,4_77,2023-05-02T19:11:21.501Z,,0,,,2146.6269999940414,completion,,,,,false,,,,345268.8000000119,345268.59999999404,343083.855,343090,343121.973,345300.661,8,400,,,
trial,html.Screen,4_78_0,2023-05-02T19:11:23.613Z,,0,2,,2077.038999988057,response,ISIC_5994286.JPG,,ISIC_1035480.JPG,ISIC_5994286.JPG,false,1,keypress(m),500,347378.09999999404,347377.6999999881,345265.508,345268.90000000596,345300.661,347412.317,8,400,29,,ISIC_1035480.JPG
break,html.Screen,4_78_1,2023-05-02T19:11:23.615Z,,0,,,NaN,,,,,,false,,,,347380.3000000119,347380.1999999881,,347378.3000000119,,347412.317,8,400,,,
break_continue,html.Screen,4_78_2,2023-05-02T19:11:23.615Z,,0,,,NaN,,,,,,false,,,,347380.5,347380.5,,347380.40000000596,,347412.317,8,400,,,
sequence,flow.Sequence,4_78,2023-05-02T19:11:23.615Z,,0,,,2079.838999999978,completion,,,,,false,,,,347380.6999999881,347380.5,345265.508,345268.90000000596,345300.661,347412.317,8,400,,,
trial,html.Screen,4_79_0,2023-05-02T19:11:25.820Z,,0,2,,2172.0830000059796,response,ISIC_6625102.JPG,,ISIC_1241817.JPG,ISIC_6625102.JPG,false,1,keypress(m),500,349584.90000000596,349584.40000000596,347367.114,347380.6999999881,347412.317,349636.184,8,400,30,,ISIC_1241817.JPG
break,html.Screen,4_79_1,2023-05-02T19:11:25.822Z,,0,,,NaN,,,,,,false,,,,349587.6999999881,349587.40000000596,,349585.1999999881,,349636.184,8,400,,,
break_continue,html.Screen,4_79_2,2023-05-02T19:11:25.823Z,,0,,,NaN,,,,,,false,,,,349588,349587.90000000596,,349587.8000000119,,349636.184,8,400,,,
sequence,flow.Sequence,4_79,2023-05-02T19:11:25.823Z,,0,,,2175.5830000059796,completion,,,,,false,,,,349588.1999999881,349587.90000000596,347367.114,347380.6999999881,347412.317,349636.184,8,400,,,
trial,html.Screen,4_80_0,2023-05-02T19:11:28.126Z,,0,2,,2255.0159999880707,response,ISIC_0029803.JPG,,ISIC_0055240.JPG,ISIC_0029803.JPG,false,1,keypress(m),500,351891.5,351891.1999999881,349602.859,349588.3000000119,349636.184,351925.803,8,400,31,,ISIC_0055240.JPG
break,html.Screen,4_80_1,2023-05-02T19:11:28.128Z,,0,,,NaN,,,,,,false,,,,351893.59999999404,351893.40000000596,,351891.8000000119,,351925.803,8,400,,,
break_continue,html.Screen,4_80_2,2023-05-02T19:11:28.129Z,,0,,,NaN,,,,,,false,,,,351893.8000000119,351893.6999999881,,351893.6999999881,,351925.803,8,400,,,
sequence,flow.Sequence,4_80,2023-05-02T19:11:28.129Z,,0,,,2257.5159999880707,completion,,,,,false,,,,351894,351893.6999999881,349602.859,349588.3000000119,349636.184,351925.803,8,400,,,
trial,html.Screen,4_81_0,2023-05-02T19:11:30.414Z,,0,2,,2252.6969999999856,response,ISIC_0033193.JPG,,ISIC_9073150.JPG,ISIC_0033193.JPG,false,1,keypress(m),500,354179,354178.5,351890.519,351894,351925.803,354213.27,8,400,32,,ISIC_9073150.JPG
break,html.Screen,4_81_1,2023-05-02T19:11:30.416Z,,0,,,NaN,,,,,,false,,,,354180.8000000119,354180.5,,354179.1999999881,,354213.27,8,400,,,
break_continue,html.Screen,4_81_2,2023-05-02T19:11:30.416Z,,0,,,NaN,,,,,,false,,,,354181.09999999404,354181.09999999404,,354180.90000000596,,354213.27,8,400,,,
sequence,flow.Sequence,4_81,2023-05-02T19:11:30.416Z,,0,,,2255.296999994025,completion,,,,,false,,,,354181.3000000119,354181.09999999404,351890.519,351894,351925.803,354213.27,8,400,,,
trial,html.Screen,4_82_0,2023-05-02T19:11:32.830Z,,0,2,,2381.829999994021,response,ISIC_0069370.JPG,,ISIC_0046640.JPG,ISIC_0046640.JPG,false,0,keypress(z),500,356595.5,356595.09999999404,354175.383,354181.40000000596,354213.27,356629.818,8,400,33,,ISIC_0069370.JPG
break,html.Screen,4_82_1,2023-05-02T19:11:32.832Z,,0,,,NaN,,,,,,false,,,,356597.3000000119,356597.09999999404,,356595.8000000119,,356629.818,8,400,,,
break_continue,html.Screen,4_82_2,2023-05-02T19:11:32.832Z,,0,,,NaN,,,,,,false,,,,356597.6999999881,356597.59999999404,,356597.5,,356629.818,8,400,,,
sequence,flow.Sequence,4_82,2023-05-02T19:11:32.833Z,,0,,,2384.329999994021,completion,,,,,false,,,,356597.8000000119,356597.59999999404,354175.383,354181.40000000596,354213.27,356629.818,8,400,,,
trial,html.Screen,4_83_0,2023-05-02T19:11:35.142Z,,0,2,,2276.8819999880507,response,ISIC_5433087.JPG,,ISIC_0031293.JPG,ISIC_5433087.JPG,false,1,keypress(m),500,358907.09999999404,358906.6999999881,356582.832,356597.8000000119,356629.818,358941.375,8,400,34,,ISIC_0031293.JPG
break,html.Screen,4_83_1,2023-05-02T19:11:35.144Z,,0,,,NaN,,,,,,false,,,,358909.1999999881,358909,,358907.40000000596,,358941.375,8,400,,,
break_continue,html.Screen,4_83_2,2023-05-02T19:11:35.144Z,,0,,,NaN,,,,,,false,,,,358909.5,358909.40000000596,,358909.3000000119,,358941.375,8,400,,,
sequence,flow.Sequence,4_83,2023-05-02T19:11:35.144Z,,0,,,2279.582000005932,completion,,,,,false,,,,358909.6999999881,358909.40000000596,356582.832,356597.8000000119,356629.818,358941.375,8,400,,,
trial,html.Screen,4_84_0,2023-05-02T19:11:37.528Z,,0,2,,2352.125,response,ISIC_0927854.JPG,,ISIC_0003539.JPG,ISIC_0003539.JPG,false,0,keypress(z),500,361293.6999999881,361293.5,358903.633,358909.8000000119,358941.375,361327.94,8,400,35,,ISIC_0927854.JPG
break,html.Screen,4_84_1,2023-05-02T19:11:37.530Z,,0,,,NaN,,,,,,false,,,,361295.5,361295.3000000119,,361293.90000000596,,361327.94,8,400,,,
break_continue,html.Screen,4_84_2,2023-05-02T19:11:37.531Z,,0,,,NaN,,,,,,false,,,,361295.6999999881,361295.6999999881,,361295.59999999404,,361327.94,8,400,,,
sequence,flow.Sequence,4_84,2023-05-02T19:11:37.531Z,,0,,,2354.324999988079,completion,,,,,false,,,,361295.90000000596,361295.6999999881,358903.633,358909.6999999881,358941.375,361327.94,8,400,,,
trial,html.Screen,4_85_0,2023-05-02T19:11:40.401Z,,0,2,,2838.460000005958,response,ISIC_0069486.JPG,,ISIC_0004509.JPG,ISIC_0069486.JPG,false,1,keypress(m),500,364166.6999999881,364166.40000000596,361289.617,361295.90000000596,361327.94,364194.94,8,400,36,,ISIC_0004509.JPG
break,html.Screen,4_85_1,2023-05-02T19:11:40.403Z,,0,,,NaN,,,,,,false,,,,364167.8000000119,364167.5,,364166.90000000596,,364194.94,8,400,,,
break_continue,html.Screen,4_85_2,2023-05-02T19:11:40.403Z,,0,,,NaN,,,,,,false,,,,364168.09999999404,364168,,364168,,364194.94,8,400,,,
sequence,flow.Sequence,4_85,2023-05-02T19:11:40.403Z,,0,,,2840.0599999999977,completion,,,,,false,,,,364168.1999999881,364168,361289.617,361295.90000000596,361327.94,364194.94,8,400,,,
trial,html.Screen,4_86_0,2023-05-02T19:11:43.060Z,,0,2,,2629.659999994037,response,ISIC_8821700.JPG,,ISIC_4401524.JPG,ISIC_4401524.JPG,false,0,keypress(z),500,366824.90000000596,366824.59999999404,364159.188,364168.40000000596,364194.94,366859.165,8,400,37,,ISIC_8821700.JPG
break,html.Screen,4_86_1,2023-05-02T19:11:43.062Z,,0,,,NaN,,,,,,false,,,,366826.90000000596,366826.8000000119,,366825.09999999404,,366859.165,8,400,,,
break_continue,html.Screen,4_86_2,2023-05-02T19:11:43.062Z,,0,,,NaN,,,,,,false,,,,366827.1999999881,366827.09999999404,,366827,,366859.165,8,400,,,
sequence,flow.Sequence,4_86,2023-05-02T19:11:43.062Z,,0,,,2632.159999994037,completion,,,,,false,,,,366827.3000000119,366827.09999999404,364159.188,364168.3000000119,364194.94,366859.165,8,400,,,
trial,html.Screen,4_87_0,2023-05-02T19:11:45.695Z,,0,2,,2600.9349999940605,response,ISIC_0058661.JPG,,ISIC_0032441.JPG,ISIC_0058661.JPG,false,1,keypress(m),500,369460.40000000596,369460.09999999404,366814.975,366827.3000000119,366859.165,369490.183,8,400,38,,ISIC_0032441.JPG
break,html.Screen,4_87_1,2023-05-02T19:11:45.697Z,,0,,,NaN,,,,,,false,,,,369461.8000000119,369461.59999999404,,369460.59999999404,,369490.183,8,400,,,
break_continue,html.Screen,4_87_2,2023-05-02T19:11:45.697Z,,0,,,NaN,,,,,,false,,,,369462,369461.90000000596,,369461.90000000596,,369490.183,8,400,,,
sequence,flow.Sequence,4_87,2023-05-02T19:11:45.697Z,,0,,,2602.7350000059814,completion,,,,,false,,,,369462.1999999881,369461.90000000596,366814.975,366827.3000000119,366859.165,369490.183,8,400,,,
trial,html.Screen,4_88_0,2023-05-02T19:11:48.226Z,,0,2,,2500.816999999981,response,ISIC_8105020.JPG,,ISIC_0033087.JPG,ISIC_0033087.JPG,false,0,keypress(z),500,371991.3000000119,371991,369454.257,369462.1999999881,369490.183,372025.52,8,400,39,,ISIC_8105020.JPG
break,html.Screen,4_88_1,2023-05-02T19:11:48.228Z,,0,,,NaN,,,,,,false,,,,371993.59999999404,371993.40000000596,,371991.59999999404,,372025.52,8,400,,,
break_continue,html.Screen,4_88_2,2023-05-02T19:11:48.229Z,,0,,,NaN,,,,,,false,,,,371993.8000000119,371993.8000000119,,371993.6999999881,,372025.52,8,400,,,
sequence,flow.Sequence,4_88,2023-05-02T19:11:48.229Z,,0,,,2503.617000011902,completion,,,,,false,,,,371994,371993.8000000119,369454.257,369462.1999999881,369490.183,372025.52,8,400,,,
trial,html.Screen,4_89_0,2023-05-02T19:11:50.591Z,,0,2,,2330.7800000119023,response,ISIC_0027993.JPG,,ISIC_0806138.JPG,ISIC_0806138.JPG,false,0,keypress(z),500,374356.5,374356.3000000119,371978.756,371994,372025.52,374391.298,8,400,40,,ISIC_0027993.JPG
break,html.Screen,4_89_1,2023-05-02T19:11:50.592Z,,0,,,NaN,,,,,,false,,,,374357.1999999881,374357.09999999404,,374356.8000000119,,374391.298,8,400,,,
break_continue,html.Screen,4_89_2,2023-05-02T19:11:50.593Z,,0,,,NaN,,,,,,false,,,,374358,374357.8000000119,,374357.3000000119,,374391.298,8,400,,,
sequence,flow.Sequence,4_89,2023-05-02T19:11:50.593Z,,0,,,2332.2800000119023,completion,,,,,false,,,,374358.09999999404,374357.8000000119,371978.756,371994,372025.52,374391.298,8,400,,,
trial,html.Screen,4_90_0,2023-05-02T19:11:53.015Z,,0,2,,2388.8019999940298,response,ISIC_0708552.JPG,,ISIC_3234899.JPG,ISIC_3234899.JPG,false,0,keypress(z),500,376780.40000000596,376780.09999999404,374357.4,374358.09999999404,374391.298,376814.585,8,400,41,,ISIC_0708552.JPG
break,html.Screen,4_90_1,2023-05-02T19:11:53.017Z,,0,,,NaN,,,,,,false,,,,376782.40000000596,376782.1999999881,,376780.5,,376814.585,8,400,,,
break_continue,html.Screen,4_90_2,2023-05-02T19:11:53.017Z,,0,,,NaN,,,,,,false,,,,376782.6999999881,376782.5,,376782.40000000596,,376814.585,8,400,,,
sequence,flow.Sequence,4_90,2023-05-02T19:11:53.018Z,,0,,,2391.20199999999,completion,,,,,false,,,,376782.6999999881,376782.5,374357.4,374358.09999999404,374391.298,376814.585,8,400,,,
trial,html.Screen,4_91_0,2023-05-02T19:11:55.185Z,,0,2,,2135.8150000059395,response,ISIC_3429835.JPG,,ISIC_0013501.JPG,ISIC_3429835.JPG,false,1,keypress(m),500,378950.6999999881,378950.40000000596,376780.507,376782.8000000119,376814.585,378984.85,8,400,42,,ISIC_0013501.JPG
break,html.Screen,4_91_1,2023-05-02T19:11:55.188Z,,0,,,NaN,,,,,,false,,,,378952.90000000596,378952.6999999881,,378951,,378984.85,8,400,,,
break_continue,html.Screen,4_91_2,2023-05-02T19:11:55.188Z,,0,,,NaN,,,,,,false,,,,378953.09999999404,378953.09999999404,,378953,,378984.85,8,400,,,
sequence,flow.Sequence,4_91,2023-05-02T19:11:55.188Z,,0,,,2138.5149999940186,completion,,,,,false,,,,378953.1999999881,378953.09999999404,376780.507,376782.8000000119,376814.585,378984.85,8,400,,,
trial,html.Screen,4_92_0,2023-05-02T19:11:57.401Z,,0,2,,2181.450000011944,response,ISIC_0061244.JPG,,ISIC_0046729.JPG,ISIC_0046729.JPG,false,0,keypress(z),500,381166.59999999404,381166.3000000119,378949.055,378953.3000000119,378984.85,381200.242,8,400,43,,ISIC_0061244.JPG
break,html.Screen,4_92_1,2023-05-02T19:11:57.403Z,,0,,,NaN,,,,,,false,,,,381167.8000000119,381167.59999999404,,381166.8000000119,,381200.242,8,400,,,
break_continue,html.Screen,4_92_2,2023-05-02T19:11:57.403Z,,0,,,NaN,,,,,,false,,,,381168.1999999881,381168.09999999404,,381167.90000000596,,381200.242,8,400,,,
sequence,flow.Sequence,4_92,2023-05-02T19:11:57.403Z,,0,,,2183.249999994063,completion,,,,,false,,,,381168.3000000119,381168.09999999404,378949.055,378953.3000000119,378984.85,381200.242,8,400,,,
trial,html.Screen,4_93_0,2023-05-02T19:11:59.682Z,,0,2,,2247.158000005933,response,ISIC_0002026.JPG,,ISIC_5343231.JPG,ISIC_0002026.JPG,false,1,keypress(m),500,383447.6999999881,383447.40000000596,381162.326,381168.40000000596,381200.242,383488.426,8,400,44,,ISIC_5343231.JPG
break,html.Screen,4_93_1,2023-05-02T19:11:59.683Z,,0,,,NaN,,,,,,false,,,,383448.5,383448.40000000596,,383447.90000000596,,383488.426,8,400,,,
break_continue,html.Screen,4_93_2,2023-05-02T19:11:59.684Z,,0,,,NaN,,,,,,false,,,,383448.8000000119,383448.6999999881,,383448.5,,383488.426,8,400,,,
sequence,flow.Sequence,4_93,2023-05-02T19:11:59.684Z,,0,,,2248.4579999880516,completion,,,,,false,,,,383448.8000000119,383448.6999999881,381162.326,381168.3000000119,381200.242,383488.426,8,400,,,
trial,html.Screen,4_94_0,2023-05-02T19:12:01.780Z,,0,2,,2056.2739999881014,response,ISIC_4573624.JPG,,ISIC_0064113.JPG,ISIC_4573624.JPG,false,1,keypress(m),500,385545,385544.6999999881,383438.65,383448.90000000596,383488.426,385572.97,8,400,45,,ISIC_0064113.JPG
break,html.Screen,4_94_1,2023-05-02T19:12:01.781Z,,0,,,NaN,,,,,,false,,,,385546.5,385546.3000000119,,385545.1999999881,,385572.97,8,400,,,
break_continue,html.Screen,4_94_2,2023-05-02T19:12:01.782Z,,0,,,NaN,,,,,,false,,,,385546.6999999881,385546.6999999881,,385546.59999999404,,385572.97,8,400,,,
sequence,flow.Sequence,4_94,2023-05-02T19:12:01.782Z,,0,,,2058.2739999881014,completion,,,,,false,,,,385546.8000000119,385546.6999999881,383438.65,383448.90000000596,383488.426,385572.97,8,400,,,
trial,html.Screen,4_95_0,2023-05-02T19:12:03.784Z,,0,2,,1976.229999988107,response,ISIC_3260571.JPG,,ISIC_2597678.JPG,ISIC_3260571.JPG,false,1,keypress(m),500,387549.6999999881,387549.1999999881,385539.404,385547,385572.97,387607.766,8,400,46,,ISIC_2597678.JPG
break,html.Screen,4_95_1,2023-05-02T19:12:03.785Z,,0,,,NaN,,,,,,false,,,,387550.6999999881,387550.40000000596,,387549.90000000596,,387607.766,8,400,,,
break_continue,html.Screen,4_95_2,2023-05-02T19:12:03.786Z,,0,,,NaN,,,,,,false,,,,387551,387550.8000000119,,387550.8000000119,,387607.766,8,400,,,
sequence,flow.Sequence,4_95,2023-05-02T19:12:03.786Z,,0,,,1977.8300000119489,completion,,,,,false,,,,387551.09999999404,387550.8000000119,385539.404,385546.90000000596,385572.97,387607.766,8,400,,,
trial,html.Screen,4_96_0,2023-05-02T19:12:05.833Z,,0,2,,1990.4339999880758,response,ISIC_7830756.JPG,,ISIC_8414421.JPG,ISIC_7830756.JPG,false,1,keypress(m),500,389598.5,389598.1999999881,387574.132,387551.1999999881,387607.766,389646.251,8,400,47,,ISIC_8414421.JPG
break,html.Screen,4_96_1,2023-05-02T19:12:05.835Z,,0,,,NaN,,,,,,false,,,,389599.8000000119,389599.5,,389598.6999999881,,389646.251,8,400,,,
break_continue,html.Screen,4_96_2,2023-05-02T19:12:05.835Z,,0,,,NaN,,,,,,false,,,,389600.09999999404,389600,,389599.90000000596,,389646.251,8,400,,,
sequence,flow.Sequence,4_96,2023-05-02T19:12:05.835Z,,0,,,1992.2339999999967,completion,,,,,false,,,,389600.1999999881,389600,387574.132,387551.1999999881,387607.766,389646.251,8,400,,,
trial,html.Screen,4_97_0,2023-05-02T19:12:07.820Z,,0,2,,1938.7490000000107,response,ISIC_0026401.JPG,,ISIC_0011150.JPG,ISIC_0026401.JPG,false,1,keypress(m),500,391585.3000000119,391585,389596.057,389600.3000000119,389646.251,391625.126,8,400,48,,ISIC_0011150.JPG
break,html.Screen,4_97_1,2023-05-02T19:12:07.821Z,,0,,,NaN,,,,,,false,,,,391586.59999999404,391586.40000000596,,391585.5,,391625.126,8,400,,,
break_continue,html.Screen,4_97_2,2023-05-02T19:12:07.822Z,,0,,,NaN,,,,,,false,,,,391586.90000000596,391586.8000000119,,391586.8000000119,,391625.126,8,400,,,
sequence,flow.Sequence,4_97,2023-05-02T19:12:07.822Z,,0,,,1940.5490000119316,completion,,,,,false,,,,391587,391586.8000000119,389596.057,389600.3000000119,389646.251,391625.126,8,400,,,
trial,html.Screen,4_98_0,2023-05-02T19:12:09.896Z,,0,2,,2035.8740000000107,response,ISIC_0883408.JPG,,ISIC_0056937.JPG,ISIC_0056937.JPG,false,0,keypress(z),500,393661.40000000596,393661,391575.67,391587.09999999404,391625.126,393710.387,8,400,49,,ISIC_0883408.JPG
break,html.Screen,4_98_1,2023-05-02T19:12:09.897Z,,0,,,NaN,,,,,,false,,,,393662.5,393662.3000000119,,393661.59999999404,,393710.387,8,400,,,
break_continue,html.Screen,4_98_2,2023-05-02T19:12:09.898Z,,0,,,NaN,,,,,,false,,,,393662.90000000596,393662.6999999881,,393662.6999999881,,393710.387,8,400,,,
sequence,flow.Sequence,4_98,2023-05-02T19:12:09.898Z,,0,,,2037.5739999880898,completion,,,,,false,,,,393662.90000000596,393662.6999999881,391575.67,391587.09999999404,391625.126,393710.387,8,400,,,
trial,html.Screen,4_99_0,2023-05-02T19:12:11.947Z,,0,2,,2001.913000011933,response,ISIC_4164882.JPG,,ISIC_2851852.JPG,ISIC_2851852.JPG,false,0,keypress(z),500,395712.6999999881,395712.3000000119,393660.755,393663,393710.387,395758.944,8,400,50,,ISIC_4164882.JPG
break,html.Screen,4_99_1,2023-05-02T19:12:16.961Z,,0,,,5000.059999999998,timeout,,,,,false,,,,400726.5,400725.667,395709.635,395712.90000000596,395758.944,400759.004,8,400,,,
break_continue,html.Screen,4_99_2,2023-05-02T19:12:17.892Z,,0,,,873.0959999940242,response,,,,,false,continue,keypress(Space),,401657.3000000119,401632.09999999404,400725.667,400726.6999999881,400759.004,401690.855,8,400,,,
sequence,flow.Sequence,4_99,2023-05-02T19:12:17.892Z,,0,,,7921.712999994052,completion,,,,,false,,,,401657.5,401632.09999999404,393660.755,393663,393710.387,401690.855,8,400,,,
trial,html.Screen,4_100_0,2023-05-02T19:12:20.031Z,,0,3,,2104.8449999880977,response,ISIC_8135400.JPG,,ISIC_0024398.JPG,ISIC_8135400.JPG,false,1,keypress(m),500,403796,403795.6999999881,401642.995,401657.5,401690.855,403830.274,8,400,1,,ISIC_0024398.JPG
break,html.Screen,4_100_1,2023-05-02T19:12:20.033Z,,0,,,NaN,,,,,,false,,,,403798.09999999404,403797.90000000596,,403796.1999999881,,403830.274,8,400,,,
break_continue,html.Screen,4_100_2,2023-05-02T19:12:20.033Z,,0,,,NaN,,,,,,false,,,,403798.3000000119,403798.1999999881,,403798.09999999404,,403830.274,8,400,,,
sequence,flow.Sequence,4_100,2023-05-02T19:12:20.033Z,,0,,,2107.3449999880977,completion,,,,,false,,,,403798.40000000596,403798.1999999881,401642.995,401657.5,401690.855,403830.274,8,400,,,
trial,html.Screen,4_101_0,2023-05-02T19:12:22.167Z,,0,3,,2102.026000011945,response,ISIC_0010317.JPG,,ISIC_2268341.JPG,ISIC_0010317.JPG,false,1,keypress(m),500,405932.59999999404,405932.3000000119,403789.637,403798.5,403830.274,405972.089,8,400,2,,ISIC_2268341.JPG
break,html.Screen,4_101_1,2023-05-02T19:12:22.168Z,,0,,,NaN,,,,,,false,,,,405933.59999999404,405933.40000000596,,405932.8000000119,,405972.089,8,400,,,
break_continue,html.Screen,4_101_2,2023-05-02T19:12:22.169Z,,0,,,NaN,,,,,,false,,,,405933.90000000596,405933.8000000119,,405933.6999999881,,405972.089,8,400,,,
sequence,flow.Sequence,4_101,2023-05-02T19:12:22.169Z,,0,,,2103.526000011945,completion,,,,,false,,,,405934,405933.8000000119,403789.637,403798.5,403830.274,405972.089,8,400,,,
trial,html.Screen,4_102_0,2023-05-02T19:12:24.156Z,,0,3,,1949.2110000119428,response,ISIC_5578239.JPG,,ISIC_0008881.JPG,ISIC_5578239.JPG,false,1,keypress(m),500,407921.5,407921.3000000119,405938.76,405934.09999999404,405972.089,407957.69,8,400,3,,ISIC_0008881.JPG
break,html.Screen,4_102_1,2023-05-02T19:12:24.157Z,,0,,,NaN,,,,,,false,,,,407922.1999999881,407922.09999999404,,407921.6999999881,,407957.69,8,400,,,
break_continue,html.Screen,4_102_2,2023-05-02T19:12:24.157Z,,0,,,NaN,,,,,,false,,,,407922.5,407922.40000000596,,407922.3000000119,,407957.69,8,400,,,
sequence,flow.Sequence,4_102,2023-05-02T19:12:24.157Z,,0,,,1950.3110000059824,completion,,,,,false,,,,407922.59999999404,407922.40000000596,405938.76,405934,405972.089,407957.69,8,400,,,
trial,html.Screen,4_103_0,2023-05-02T19:12:26.199Z,,0,3,,2005.8099999999977,response,ISIC_7168122.JPG,,ISIC_8592235.JPG,ISIC_7168122.JPG,false,1,keypress(m),500,409963.90000000596,409963.5,407924.308,407922.6999999881,407957.69,409995.465,8,400,4,,ISIC_8592235.JPG
break,html.Screen,4_103_1,2023-05-02T19:12:26.200Z,,0,,,NaN,,,,,,false,,,,409965,409964.8000000119,,409964.09999999404,,409995.465,8,400,,,
break_continue,html.Screen,4_103_2,2023-05-02T19:12:26.200Z,,0,,,NaN,,,,,,false,,,,409965.40000000596,409965.3000000119,,409965.1999999881,,409995.465,8,400,,,
sequence,flow.Sequence,4_103,2023-05-02T19:12:26.200Z,,0,,,2007.6100000119186,completion,,,,,false,,,,409965.5,409965.3000000119,407924.308,407922.6999999881,407957.69,409995.465,8,400,,,
trial,html.Screen,4_104_0,2023-05-02T19:12:28.314Z,,0,3,,2083.134999994014,response,ISIC_3786075.JPG,,ISIC_0058315.JPG,ISIC_3786075.JPG,false,1,keypress(m),500,412079.09999999404,412078.59999999404,409962.156,409965.59999999404,409995.465,412113.549,8,400,5,,ISIC_0058315.JPG
break,html.Screen,4_104_1,2023-05-02T19:12:28.315Z,,0,,,NaN,,,,,,false,,,,412080.1999999881,412079.8000000119,,412079.40000000596,,412113.549,8,400,,,
break_continue,html.Screen,4_104_2,2023-05-02T19:12:28.315Z,,0,,,NaN,,,,,,false,,,,412080.59999999404,412080.5,,412080.40000000596,,412113.549,8,400,,,
sequence,flow.Sequence,4_104,2023-05-02T19:12:28.316Z,,0,,,2085.0349999999744,completion,,,,,false,,,,412080.8000000119,412080.5,409962.156,409965.59999999404,409995.465,412113.549,8,400,,,
trial,html.Screen,4_105_0,2023-05-02T19:12:30.507Z,,0,3,,2158.251000011922,response,ISIC_0028379.JPG,,ISIC_0000072.JPG,ISIC_0028379.JPG,false,1,keypress(m),500,414272.09999999404,414271.8000000119,412071.979,412080.90000000596,412113.549,414352.146,8,400,6,,ISIC_0000072.JPG
break,html.Screen,4_105_1,2023-05-02T19:12:30.508Z,,0,,,NaN,,,,,,false,,,,414273,414272.8000000119,,414272.3000000119,,414352.146,8,400,,,
break_continue,html.Screen,4_105_2,2023-05-02T19:12:30.508Z,,0,,,NaN,,,,,,false,,,,414273.1999999881,414273.1999999881,,414273,,414352.146,8,400,,,
sequence,flow.Sequence,4_105,2023-05-02T19:12:30.508Z,,0,,,2159.65099998808,completion,,,,,false,,,,414273.3000000119,414273.1999999881,412071.979,412080.90000000596,412113.549,414352.146,8,400,,,
trial,html.Screen,4_106_0,2023-05-02T19:12:32.534Z,,0,3,,1946.654000011913,response,ISIC_0031401.JPG,,ISIC_2332127.JPG,ISIC_0031401.JPG,false,1,keypress(m),500,416299.09999999404,416298.8000000119,414302.634,414273.40000000596,414352.146,416370.108,8,400,7,,ISIC_2332127.JPG
break,html.Screen,4_106_1,2023-05-02T19:12:32.535Z,,0,,,NaN,,,,,,false,,,,416300.59999999404,416300.40000000596,,416299.40000000596,,416370.108,8,400,,,
break_continue,html.Screen,4_106_2,2023-05-02T19:12:32.536Z,,0,,,NaN,,,,,,false,,,,416301,416300.90000000596,,416300.8000000119,,416370.108,8,400,,,
sequence,flow.Sequence,4_106,2023-05-02T19:12:32.536Z,,0,,,1948.7540000059525,completion,,,,,false,,,,416301.09999999404,416300.90000000596,414302.634,414273.40000000596,414352.146,416370.108,8,400,,,
trial,html.Screen,4_107_0,2023-05-02T19:12:34.619Z,,0,3,,2014.1920000119135,response,ISIC_0056425.JPG,,ISIC_0063447.JPG,ISIC_0056425.JPG,false,1,keypress(m),500,418384.6999999881,418384.3000000119,416320.196,416301.1999999881,416370.108,418432.154,8,400,8,,ISIC_0063447.JPG
break,html.Screen,4_107_1,2023-05-02T19:12:34.620Z,,0,,,NaN,,,,,,false,,,,418385.40000000596,418385.1999999881,,418384.90000000596,,418432.154,8,400,,,
break_continue,html.Screen,4_107_2,2023-05-02T19:12:34.621Z,,0,,,NaN,,,,,,false,,,,418385.90000000596,418385.8000000119,,418385.8000000119,,418432.154,8,400,,,
sequence,flow.Sequence,4_107,2023-05-02T19:12:34.621Z,,0,,,2015.6920000119135,completion,,,,,false,,,,418386,418385.8000000119,416320.196,416301.1999999881,416370.108,418432.154,8,400,,,
trial,html.Screen,4_108_0,2023-05-02T19:12:36.700Z,,0,3,,2032.945999994059,response,ISIC_9228573.JPG,,ISIC_0033843.JPG,ISIC_9228573.JPG,false,1,keypress(m),500,420465.5,420465.09999999404,418381.752,418386.1999999881,418432.154,420502.765,8,400,9,,ISIC_0033843.JPG
break,html.Screen,4_108_1,2023-05-02T19:12:36.701Z,,0,,,NaN,,,,,,false,,,,420466.5,420466.3000000119,,420465.6999999881,,420502.765,8,400,,,
break_continue,html.Screen,4_108_2,2023-05-02T19:12:36.702Z,,0,,,NaN,,,,,,false,,,,420466.90000000596,420466.8000000119,,420466.59999999404,,420502.765,8,400,,,
sequence,flow.Sequence,4_108,2023-05-02T19:12:36.702Z,,0,,,2034.6460000119405,completion,,,,,false,,,,420466.90000000596,420466.8000000119,418381.752,418386.09999999404,418432.154,420502.765,8,400,,,
trial,html.Screen,4_109_0,2023-05-02T19:12:38.705Z,,0,3,,1967.3349999940256,response,ISIC_1452314.JPG,,ISIC_5501183.JPG,ISIC_1452314.JPG,false,1,keypress(m),500,422470.40000000596,422470.09999999404,420468.947,420467.09999999404,420502.765,422505.166,8,400,10,,ISIC_5501183.JPG
break,html.Screen,4_109_1,2023-05-02T19:12:38.706Z,,0,,,NaN,,,,,,false,,,,422471.40000000596,422471.1999999881,,422470.6999999881,,422505.166,8,400,,,
break_continue,html.Screen,4_109_2,2023-05-02T19:12:38.707Z,,0,,,NaN,,,,,,false,,,,422471.8000000119,422471.6999999881,,422471.5,,422505.166,8,400,,,
sequence,flow.Sequence,4_109,2023-05-02T19:12:38.707Z,,0,,,1968.934999988065,completion,,,,,false,,,,422471.90000000596,422471.6999999881,420468.947,420467.09999999404,420502.765,422505.166,8,400,,,
trial,html.Screen,4_110_0,2023-05-02T19:12:40.776Z,,0,3,,2035.6340000118944,response,ISIC_5067317.JPG,,ISIC_0014501.JPG,ISIC_0014501.JPG,false,1,keypress(m),500,424541.09999999404,424540.8000000119,422471.611,422472.09999999404,422505.166,424575.245,8,400,11,,ISIC_5067317.JPG
break,html.Screen,4_110_1,2023-05-02T19:12:40.778Z,,0,,,NaN,,,,,,false,,,,424542.8000000119,424542.6999999881,,424541.3000000119,,424575.245,8,400,,,
break_continue,html.Screen,4_110_2,2023-05-02T19:12:40.778Z,,0,,,NaN,,,,,,false,,,,424543.09999999404,424543.09999999404,,424542.90000000596,,424575.245,8,400,,,
sequence,flow.Sequence,4_110,2023-05-02T19:12:40.778Z,,0,,,2037.933999994013,completion,,,,,false,,,,424543.1999999881,424543.09999999404,422471.611,422472.09999999404,422505.166,424575.245,8,400,,,
trial,html.Screen,4_111_0,2023-05-02T19:12:42.913Z,,0,3,,2102.0550000119256,response,ISIC_7364041.JPG,,ISIC_8951909.JPG,ISIC_8951909.JPG,false,0,keypress(z),500,426677.8000000119,426677.3000000119,424527.155,424543.3000000119,424575.245,426701.477,8,400,12,,ISIC_7364041.JPG
break,html.Screen,4_111_1,2023-05-02T19:12:42.913Z,,0,,,NaN,,,,,,false,,,,426678.59999999404,426678.5,,426677.90000000596,,426701.477,8,400,,,
break_continue,html.Screen,4_111_2,2023-05-02T19:12:42.914Z,,0,,,NaN,,,,,,false,,,,426679,426678.8000000119,,426678.6999999881,,426701.477,8,400,,,
sequence,flow.Sequence,4_111,2023-05-02T19:12:42.914Z,,0,,,2103.5550000119256,completion,,,,,false,,,,426679.09999999404,426678.8000000119,424527.155,424543.3000000119,424575.245,426701.477,8,400,,,
trial,html.Screen,4_112_0,2023-05-02T19:12:44.904Z,,0,3,,1967.2229999880656,response,ISIC_9469284.JPG,,ISIC_0014946.JPG,ISIC_0014946.JPG,false,0,keypress(z),500,428669,428668.6999999881,426668.089,426679.09999999404,426701.477,428703.231,8,400,13,,ISIC_9469284.JPG
break,html.Screen,4_112_1,2023-05-02T19:12:44.906Z,,0,,,NaN,,,,,,false,,,,428670.8000000119,428670.59999999404,,428669.1999999881,,428703.231,8,400,,,
break_continue,html.Screen,4_112_2,2023-05-02T19:12:44.906Z,,0,,,NaN,,,,,,false,,,,428671,428671,,428670.8000000119,,428703.231,8,400,,,
sequence,flow.Sequence,4_112,2023-05-02T19:12:44.906Z,,0,,,1969.5229999999865,completion,,,,,false,,,,428671.09999999404,428671,426668.089,426679.09999999404,426701.477,428703.231,8,400,,,
trial,html.Screen,4_113_0,2023-05-02T19:12:49.505Z,,0,3,,4566.868999994011,response,ISIC_4208361.JPG,,ISIC_5552381.JPG,ISIC_5552381.JPG,false,0,keypress(z),500,433270.6999999881,433270.09999999404,428665.712,428671.3000000119,428703.231,433304.398,8,400,14,,ISIC_4208361.JPG
break,html.Screen,4_113_1,2023-05-02T19:12:49.507Z,,0,,,NaN,,,,,,false,,,,433272.5,433271.5,,433270.90000000596,,433304.398,8,400,,,
break_continue,html.Screen,4_113_2,2023-05-02T19:12:49.508Z,,0,,,NaN,,,,,,false,,,,433272.8000000119,433272.6999999881,,433272.59999999404,,433304.398,8,400,,,
sequence,flow.Sequence,4_113,2023-05-02T19:12:49.508Z,,0,,,4569.46899998805,completion,,,,,false,,,,433272.90000000596,433272.6999999881,428665.712,428671.1999999881,428703.231,433304.398,8,400,,,
trial,html.Screen,4_114_0,2023-05-02T19:12:51.678Z,,0,3,,2138.6020000000135,response,ISIC_0011150.JPG,,ISIC_7141361.JPG,ISIC_7141361.JPG,false,0,keypress(z),500,435443.5,435443,433266.635,433273,433304.398,435478.482,8,400,15,,ISIC_0011150.JPG
break,html.Screen,4_114_1,2023-05-02T19:12:51.680Z,,0,,,NaN,,,,,,false,,,,435445.1999999881,435444.59999999404,,435443.90000000596,,435478.482,8,400,,,
break_continue,html.Screen,4_114_2,2023-05-02T19:12:51.681Z,,0,,,NaN,,,,,,false,,,,435445.90000000596,435445.6999999881,,435445.40000000596,,435478.482,8,400,,,
sequence,flow.Sequence,4_114,2023-05-02T19:12:51.681Z,,0,,,2141.3019999880926,completion,,,,,false,,,,435446.1999999881,435445.6999999881,433266.635,433273,433304.398,435478.482,8,400,,,
trial,html.Screen,4_115_0,2023-05-02T19:12:53.990Z,,0,3,,2275.9180000059423,response,ISIC_9859873.JPG,,ISIC_0025832.JPG,ISIC_9859873.JPG,false,1,keypress(m),500,437754.90000000596,437754.40000000596,435432.384,435446.1999999881,435478.482,437789.301,8,400,16,,ISIC_0025832.JPG
break,html.Screen,4_115_1,2023-05-02T19:12:53.992Z,,0,,,NaN,,,,,,false,,,,437757.5,437757.3000000119,,437755.1999999881,,437789.301,8,400,,,
break_continue,html.Screen,4_115_2,2023-05-02T19:12:53.993Z,,0,,,NaN,,,,,,false,,,,437757.90000000596,437757.90000000596,,437757.6999999881,,437789.301,8,400,,,
sequence,flow.Sequence,4_115,2023-05-02T19:12:53.993Z,,0,,,2279.4180000059423,completion,,,,,false,,,,437758.09999999404,437757.90000000596,435432.384,435446.1999999881,435478.482,437789.301,8,400,,,
trial,html.Screen,4_116_0,2023-05-02T19:12:56.122Z,,0,3,,2097.9990000119433,response,ISIC_0013457.JPG,,ISIC_0029909.JPG,ISIC_0013457.JPG,false,1,keypress(m),500,439887.59999999404,439887.3000000119,437750.434,437758.1999999881,437789.301,439915.523,8,400,17,,ISIC_0029909.JPG
break,html.Screen,4_116_1,2023-05-02T19:12:56.123Z,,0,,,NaN,,,,,,false,,,,439888.5,439888.3000000119,,439887.8000000119,,439915.523,8,400,,,
break_continue,html.Screen,4_116_2,2023-05-02T19:12:56.124Z,,0,,,NaN,,,,,,false,,,,439888.8000000119,439888.6999999881,,439888.59999999404,,439915.523,8,400,,,
sequence,flow.Sequence,4_116,2023-05-02T19:12:56.124Z,,0,,,2099.3989999881014,completion,,,,,false,,,,439888.90000000596,439888.6999999881,437750.434,437758.09999999404,437789.301,439915.523,8,400,,,
trial,html.Screen,4_117_0,2023-05-02T19:12:58.243Z,,0,3,,2091.9770000000135,response,ISIC_7266462.JPG,,ISIC_6687927.JPG,ISIC_7266462.JPG,false,1,keypress(m),500,442008.09999999404,442007.5,439881.887,439888.90000000596,439915.523,442035.264,8,400,18,,ISIC_6687927.JPG
break,html.Screen,4_117_1,2023-05-02T19:12:58.244Z,,0,,,NaN,,,,,,false,,,,442009.59999999404,442009.09999999404,,442008.5,,442035.264,8,400,,,
break_continue,html.Screen,4_117_2,2023-05-02T19:12:58.245Z,,0,,,NaN,,,,,,false,,,,442010.09999999404,442010,,442009.8000000119,,442035.264,8,400,,,
sequence,flow.Sequence,4_117,2023-05-02T19:12:58.245Z,,0,,,2094.4770000000135,completion,,,,,false,,,,442010.40000000596,442010,439881.887,439888.90000000596,439915.523,442035.264,8,400,,,
trial,html.Screen,4_118_0,2023-05-02T19:13:00.496Z,,0,3,,2225.9359999880544,response,ISIC_0028176.JPG,,ISIC_3028754.JPG,ISIC_0028176.JPG,false,1,keypress(m),500,444261.6999999881,444261.1999999881,442001.864,442010.5,442035.264,444287.913,8,400,19,,ISIC_3028754.JPG
break,html.Screen,4_118_1,2023-05-02T19:13:00.498Z,,0,,,NaN,,,,,,false,,,,444263.40000000596,444263,,444261.90000000596,,444287.913,8,400,,,
break_continue,html.Screen,4_118_2,2023-05-02T19:13:00.499Z,,0,,,NaN,,,,,,false,,,,444263.8000000119,444263.6999999881,,444263.59999999404,,444287.913,8,400,,,
sequence,flow.Sequence,4_118,2023-05-02T19:13:00.499Z,,0,,,2228.4359999880544,completion,,,,,false,,,,444264,444263.6999999881,442001.864,442010.40000000596,442035.264,444287.913,8,400,,,
trial,html.Screen,4_119_0,2023-05-02T19:13:02.555Z,,0,3,,2031.7869999880786,response,ISIC_0034262.JPG,,ISIC_0063753.JPG,ISIC_0034262.JPG,false,1,keypress(m),500,446320.09999999404,446319.6999999881,444254.473,444264.5,444287.913,446344.291,8,400,20,,ISIC_0063753.JPG
break,html.Screen,4_119_1,2023-05-02T19:13:02.556Z,,0,,,NaN,,,,,,false,,,,446320.8000000119,446320.6999999881,,446320.3000000119,,446344.291,8,400,,,
break_continue,html.Screen,4_119_2,2023-05-02T19:13:02.556Z,,0,,,NaN,,,,,,false,,,,446321.09999999404,446321,,446320.90000000596,,446344.291,8,400,,,
sequence,flow.Sequence,4_119,2023-05-02T19:13:02.556Z,,0,,,2033.0869999999995,completion,,,,,false,,,,446321.1999999881,446321,444254.473,444264.5,444287.913,446344.291,8,400,,,
trial,html.Screen,4_120_0,2023-05-02T19:13:04.631Z,,0,3,,2051.2089999999735,response,ISIC_7852890.JPG,,ISIC_4103653.JPG,ISIC_7852890.JPG,false,1,keypress(m),500,448395.8000000119,448395.5,446310.97,446321.5,446344.291,448427.066,8,400,21,,ISIC_4103653.JPG
break,html.Screen,4_120_1,2023-05-02T19:13:04.632Z,,0,,,NaN,,,,,,false,,,,448397.09999999404,448396.90000000596,,448396,,448427.066,8,400,,,
break_continue,html.Screen,4_120_2,2023-05-02T19:13:04.632Z,,0,,,NaN,,,,,,false,,,,448397.40000000596,448397.40000000596,,448397.1999999881,,448427.066,8,400,,,
sequence,flow.Sequence,4_120,2023-05-02T19:13:04.632Z,,0,,,2053.109000005934,completion,,,,,false,,,,448397.5,448397.40000000596,446310.97,446321.3000000119,446344.291,448427.066,8,400,,,
trial,html.Screen,4_121_0,2023-05-02T19:13:06.721Z,,0,3,,2058.6339999880875,response,ISIC_0028065.JPG,,ISIC_5979807.JPG,ISIC_0028065.JPG,false,1,keypress(m),500,450486,450485.6999999881,448393.684,448397.59999999404,448427.066,450515.65,8,400,22,,ISIC_5979807.JPG
break,html.Screen,4_121_1,2023-05-02T19:13:06.722Z,,0,,,NaN,,,,,,false,,,,450486.6999999881,450486.59999999404,,450486.1999999881,,450515.65,8,400,,,
break_continue,html.Screen,4_121_2,2023-05-02T19:13:06.722Z,,0,,,NaN,,,,,,false,,,,450487.1999999881,450487.09999999404,,450487,,450515.65,8,400,,,
sequence,flow.Sequence,4_121,2023-05-02T19:13:06.722Z,,0,,,2060.033999994048,completion,,,,,false,,,,450487.40000000596,450487.09999999404,448393.684,448397.59999999404,448427.066,450515.65,8,400,,,
trial,html.Screen,4_122_0,2023-05-02T19:13:08.825Z,,0,3,,2074.3499999999767,response,ISIC_8401332.JPG,,ISIC_3945916.JPG,ISIC_8401332.JPG,false,1,keypress(m),500,452590.3000000119,452590,450481.972,450487.5,450515.65,452610.072,8,400,23,,ISIC_3945916.JPG
break,html.Screen,4_122_1,2023-05-02T19:13:08.826Z,,0,,,NaN,,,,,,false,,,,452591.6999999881,452591.5,,452590.5,,452610.072,8,400,,,
break_continue,html.Screen,4_122_2,2023-05-02T19:13:08.827Z,,0,,,NaN,,,,,,false,,,,452592,452591.90000000596,,452591.8000000119,,452610.072,8,400,,,
sequence,flow.Sequence,4_122,2023-05-02T19:13:08.827Z,,0,,,2076.250000005937,completion,,,,,false,,,,452592,452591.90000000596,450481.972,450487.40000000596,450515.65,452610.072,8,400,,,
trial,html.Screen,4_123_0,2023-05-02T19:13:10.816Z,,0,3,,1971.2280000119354,response,ISIC_0033878.JPG,,ISIC_0062575.JPG,ISIC_0033878.JPG,false,1,keypress(m),500,454581.59999999404,454581.3000000119,452576.51,452592.1999999881,452610.072,454623.187,8,400,24,,ISIC_0062575.JPG
break,html.Screen,4_123_1,2023-05-02T19:13:10.818Z,,0,,,NaN,,,,,,false,,,,454582.90000000596,454582.6999999881,,454581.8000000119,,454623.187,8,400,,,
break_continue,html.Screen,4_123_2,2023-05-02T19:13:10.818Z,,0,,,NaN,,,,,,false,,,,454583.1999999881,454583.09999999404,,454583,,454623.187,8,400,,,
sequence,flow.Sequence,4_123,2023-05-02T19:13:10.818Z,,0,,,1973.027999994054,completion,,,,,false,,,,454583.3000000119,454583.09999999404,452576.51,452592.09999999404,452610.072,454623.187,8,400,,,
trial,html.Screen,4_124_0,2023-05-02T19:13:12.841Z,,0,3,,1982.9129999940633,response,ISIC_0054874.JPG,,ISIC_2331656.JPG,ISIC_0054874.JPG,false,1,keypress(m),500,456606.40000000596,456606.09999999404,454573.849,454583.40000000596,454623.187,456625.489,8,400,25,,ISIC_2331656.JPG
break,html.Screen,4_124_1,2023-05-02T19:13:12.844Z,,0,,,NaN,,,,,,false,,,,456609.40000000596,456607.40000000596,,456606.5,,456625.489,8,400,,,
break_continue,html.Screen,4_124_2,2023-05-02T19:13:12.845Z,,0,,,NaN,,,,,,false,,,,456609.90000000596,456609.8000000119,,456609.59999999404,,456625.489,8,400,,,
sequence,flow.Sequence,4_124,2023-05-02T19:13:12.845Z,,0,,,1986.6130000119447,completion,,,,,false,,,,456610.09999999404,456609.8000000119,454573.849,454583.3000000119,454623.187,456625.489,8,400,,,
trial,html.Screen,4_125_0,2023-05-02T19:13:14.819Z,,0,3,,1958.2109999880777,response,ISIC_2139752.JPG,,ISIC_0055022.JPG,ISIC_2139752.JPG,false,1,keypress(m),500,458584,458583.6999999881,456591.652,456610.1999999881,456625.489,458632.715,8,400,26,,ISIC_0055022.JPG
break,html.Screen,4_125_1,2023-05-02T19:13:14.820Z,,0,,,NaN,,,,,,false,,,,458585.5,458585.3000000119,,458584.3000000119,,458632.715,8,400,,,
break_continue,html.Screen,4_125_2,2023-05-02T19:13:14.821Z,,0,,,NaN,,,,,,false,,,,458585.8000000119,458585.8000000119,,458585.59999999404,,458632.715,8,400,,,
sequence,flow.Sequence,4_125,2023-05-02T19:13:14.821Z,,0,,,1960.3110000119195,completion,,,,,false,,,,458585.90000000596,458585.8000000119,456591.652,456610.1999999881,456625.489,458632.715,8,400,,,
trial,html.Screen,4_126_0,2023-05-02T19:13:16.948Z,,0,3,,2080.185000005935,response,ISIC_4938994.JPG,,ISIC_0024891.JPG,ISIC_4938994.JPG,false,1,keypress(m),500,460713.1999999881,460712.90000000596,458583.07,458586,458632.715,460751.62,8,400,27,,ISIC_0024891.JPG
break,html.Screen,4_126_1,2023-05-02T19:13:16.949Z,,0,,,NaN,,,,,,false,,,,460714.59999999404,460714.5,,460713.40000000596,,460751.62,8,400,,,
