sender,sender_type,sender_id,timestamp,meta,,blockNo,condition,duration,ended_on,img_left,img_reveal,img_right,loser,practice,response,response_action,selection_duration,time_commit,time_end,time_render,time_run,time_show,time_switch,total_blocks,total_trials,trialNo,url,winner
informed_consent,html.Screen,0,2023-10-31T02:25:09.014Z,"{""labjs_version"":""20.2.4"",""labjs_build"":{""flavor"":""production"",""commit"":""f5b4a49f956347addd546a832a3327688c2c0fef""},""location"":""https://run.pavlovia.org/MurrayBennett/melanoma-2afc/?participant=67351&platform=sona"",""userAgent"":""Mozilla/5.0 (Macintosh; Intel Mac OS X 10_15_7) AppleWebKit/605.1.15 (KHTML, like Gecko) Version/14.0.3 Safari/605.1.15"",""platform"":""MacIntel"",""language"":""en"",""locale"":""en"",""timeZone"":""America/Chicago"",""timezoneOffset"":300,""screen_width"":1440,""screen_height"":900,""scroll_width"":1200,""scroll_height"":688,""window_innerWidth"":1200,""window_innerHeight"":736,""devicePixelRatio"":2}",,,,9931,response,,,,,,consent,click button,,22804.000000000004,22491,12560,12552,12595,22832,,,,"{""participant"":""67351"",""platform"":""sona""}",
Welcome,html.Screen,1,2023-10-31T02:26:00.659Z,,,,irregular,51643.000000000015,response,,,,,,continue,click button,,74452,74463.00000000001,22820,22804.000000000004,22832,74482,,,,,
trial,html.Screen,2_0_0,2023-10-31T02:26:11.290Z,,0,0,,10617,response,ISIC_0061792.JPG,,ISIC_4679428.JPG,ISIC_4679428.JPG,true,0,keypress(z),500,85083,85083,74466,74452,74482,85127,1,6,1,,ISIC_0061792.JPG
sequence,flow.Sequence,2_0,2023-10-31T02:26:11.291Z,,0,,,10601,completion,,,,,true,,,,85084,85083,74466,74452,74482,85127,1,6,,,
trial,html.Screen,2_1_0,2023-10-31T02:26:18.227Z,,0,0,,6910,response,ISIC_5199497.JPG,,ISIC_0776486.JPG,ISIC_5199497.JPG,true,1,keypress(m),500,92020,92020,85110,85084,85127,92053,1,6,2,,ISIC_0776486.JPG
sequence,flow.Sequence,2_1,2023-10-31T02:26:18.227Z,,0,,,6893,completion,,,,,true,,,,92021,92020,85110,85084,85127,92053,1,6,,,
trial,html.Screen,2_2_0,2023-10-31T02:26:22.118Z,,0,0,,3875,response,ISIC_2556187.JPG,,ISIC_8575776.JPG,ISIC_8575776.JPG,true,0,keypress(z),500,95912,95912,92037,92021,92053,95953,1,6,3,,ISIC_2556187.JPG
sequence,flow.Sequence,2_2,2023-10-31T02:26:22.119Z,,0,,,3859,completion,,,,,true,,,,95912,95912,92037,92021,92053,95953,1,6,,,
trial,html.Screen,2_3_0,2023-10-31T02:26:27.578Z,,0,0,,5436,response,ISIC_9238366.JPG,,ISIC_8141769.JPG,ISIC_9238366.JPG,true,1,keypress(m),500,101372,101372,95936,95913,95953,101409,1,6,4,,ISIC_8141769.JPG
sequence,flow.Sequence,2_3,2023-10-31T02:26:27.579Z,,0,,,5419,completion,,,,,true,,,,101373,101372,95936,95913,95953,101409,1,6,,,
trial,html.Screen,2_4_0,2023-10-31T02:26:30.889Z,,0,0,,3291,response,ISIC_8949026.JPG,,ISIC_9959593.JPG,ISIC_8949026.JPG,true,1,keypress(m),500,104683,104683,101392,101373,101409,104714,1,6,5,,ISIC_9959593.JPG
sequence,flow.Sequence,2_4,2023-10-31T02:26:30.889Z,,0,,,3274,completion,,,,,true,,,,104683,104683,101392,101373,101409,104714,1,6,,,
trial,html.Screen,2_5_0,2023-10-31T02:26:35.728Z,,0,0,,4823,response,ISIC_0010479.JPG,,ISIC_0460240.JPG,ISIC_0460240.JPG,true,0,keypress(z),500,109522,109522,104699,104683,104714,109552,1,6,6,,ISIC_0010479.JPG
sequence,flow.Sequence,2_5,2023-10-31T02:26:35.728Z,,0,,,4808,completion,,,,,true,,,,109523,109522,104699,104683,104714,109552,1,6,,,
loop,flow.Loop,2,2023-10-31T02:26:35.728Z,,,,,35040,completion,,,,,true,,,,109523,109522,74466,74452,74482,109552,1,6,,,
exp_instructions,html.Screen,3,2023-10-31T02:26:45.393Z,,,,,9665.000000000015,response,,,,,,continue,keypress(Space),,119188,119201.00000000001,109536,109523,109552,119226,,,,,
trial,html.Screen,4_0_0,2023-10-31T02:26:48.470Z,,0,1,,3056,response,ISIC_0010140.JPG,12,ISIC_6373500.JPG,ISIC_6373500.JPG,false,0,keypress(z),500,122266,122265,119209,119189,119226,122293,8,400,1,,ISIC_0010140.JPG
break,html.Screen,4_0_1,2023-10-31T02:26:48.472Z,,0,,,NaN,,,,,,false,,,,122267,122267,,122266,,122293,8,400,,,
break_continue,html.Screen,4_0_2,2023-10-31T02:26:48.472Z,,0,,,NaN,,,,,,false,,,,122267,122267,,122267,,122293,8,400,,,
sequence,flow.Sequence,4_0,2023-10-31T02:26:48.473Z,,0,,,3041,completion,,,,,false,,,,122268,122267,119209,119188,119226,122293,8,400,,,
trial,html.Screen,4_1_0,2023-10-31T02:26:51.327Z,,0,1,,2846,response,ISIC_7629589.JPG,5,ISIC_0370008.JPG,ISIC_7629589.JPG,false,1,keypress(m),500,125123,125122,122276,122268,122293,125165,8,400,2,,ISIC_0370008.JPG
break,html.Screen,4_1_1,2023-10-31T02:26:51.328Z,,0,,,NaN,,,,,,false,,,,125123,125123,,125123,,125165,8,400,,,
break_continue,html.Screen,4_1_2,2023-10-31T02:26:51.328Z,,0,,,NaN,,,,,,false,,,,125123,125123,,125123,,125165,8,400,,,
sequence,flow.Sequence,4_1,2023-10-31T02:26:51.328Z,,0,,,2830,completion,,,,,false,,,,125124.00000000001,125123,122276,122268,122293,125165,8,400,,,
trial,html.Screen,4_2_0,2023-10-31T02:26:54.822Z,,0,1,,3467.9999999999854,response,ISIC_0002566.JPG,8,ISIC_5867911.JPG,ISIC_0002566.JPG,false,1,keypress(m),500,128618,128616.99999999999,125149,125124.00000000001,125165,128649,8,400,3,,ISIC_5867911.JPG
break,html.Screen,4_2_1,2023-10-31T02:26:54.823Z,,0,,,NaN,,,,,,false,,,,128619,128618,,128618,,128649,8,400,,,
break_continue,html.Screen,4_2_2,2023-10-31T02:26:54.824Z,,0,,,NaN,,,,,,false,,,,128619,128619,,128619,,128649,8,400,,,
sequence,flow.Sequence,4_2,2023-10-31T02:26:54.824Z,,0,,,3454,completion,,,,,false,,,,128619,128619,125149,125124.00000000001,125165,128649,8,400,,,
trial,html.Screen,4_3_0,2023-10-31T02:26:57.754Z,,0,1,,2917,response,ISIC_0708542.JPG,8,ISIC_0000283.JPG,ISIC_0708542.JPG,false,1,keypress(m),500,131549,131549,128632,128619,128649,131589,8,400,4,,ISIC_0000283.JPG
break,html.Screen,4_3_1,2023-10-31T02:26:57.755Z,,0,,,NaN,,,,,,false,,,,131551.00000000003,131551.00000000003,,131550,,131589,8,400,,,
break_continue,html.Screen,4_3_2,2023-10-31T02:26:57.756Z,,0,,,NaN,,,,,,false,,,,131552,131551.00000000003,,131551.00000000003,,131589,8,400,,,
sequence,flow.Sequence,4_3,2023-10-31T02:26:57.756Z,,0,,,2902.000000000029,completion,,,,,false,,,,131552,131551.00000000003,128632,128619,128649,131589,8,400,,,
trial,html.Screen,4_4_0,2023-10-31T02:27:00.592Z,,0,1,,2815,response,ISIC_0663824.JPG,7,ISIC_0015115.JPG,ISIC_0663824.JPG,false,1,keypress(m),500,134388,134387,131572,131552,131589,134429,8,400,5,,ISIC_0015115.JPG
break,html.Screen,4_4_1,2023-10-31T02:27:00.593Z,,0,,,NaN,,,,,,false,,,,134389,134389,,134388,,134429,8,400,,,
break_continue,html.Screen,4_4_2,2023-10-31T02:27:00.594Z,,0,,,NaN,,,,,,false,,,,134389,134389,,134389,,134429,8,400,,,
sequence,flow.Sequence,4_4,2023-10-31T02:27:00.594Z,,0,,,2800,completion,,,,,false,,,,134390.00000000003,134389,131572,131552,131589,134429,8,400,,,
trial,html.Screen,4_5_0,2023-10-31T02:27:03.645Z,,0,1,,3028,response,ISIC_0065525.JPG,6,ISIC_9927486.JPG,ISIC_9927486.JPG,false,0,keypress(z),500,137440,137440,134412,134390.00000000003,134429,137479,8,400,6,,ISIC_0065525.JPG
break,html.Screen,4_5_1,2023-10-31T02:27:03.645Z,,0,,,NaN,,,,,,false,,,,137441,137441,,137441,,137479,8,400,,,
break_continue,html.Screen,4_5_2,2023-10-31T02:27:03.646Z,,0,,,NaN,,,,,,false,,,,137442,137442,,137441,,137479,8,400,,,
sequence,flow.Sequence,4_5,2023-10-31T02:27:03.646Z,,0,,,3013,completion,,,,,false,,,,137442,137442,134412,134390.00000000003,134429,137479,8,400,,,
trial,html.Screen,4_6_0,2023-10-31T02:27:10.549Z,,0,1,,6884,response,ISIC_0026770.JPG,8,ISIC_0064406.JPG,ISIC_0064406.JPG,false,0,keypress(z),500,144345,144345,137461,137442,137479,144367,8,400,7,,ISIC_0026770.JPG
break,html.Screen,4_6_1,2023-10-31T02:27:10.550Z,,0,,,NaN,,,,,,false,,,,144346,144346,,144345,,144367,8,400,,,
break_continue,html.Screen,4_6_2,2023-10-31T02:27:10.550Z,,0,,,NaN,,,,,,false,,,,144346,144346,,144346,,144367,8,400,,,
sequence,flow.Sequence,4_6,2023-10-31T02:27:10.550Z,,0,,,6867,completion,,,,,false,,,,144346,144346,137461,137442,137479,144367,8,400,,,
trial,html.Screen,4_7_0,2023-10-31T02:27:13.350Z,,0,1,,2795.000000000029,response,ISIC_0271408.JPG,9,ISIC_0655635.JPG,ISIC_0655635.JPG,false,0,keypress(z),500,147146.00000000003,147146.00000000003,144351,144347,144367,147174,8,400,8,,ISIC_0271408.JPG
break,html.Screen,4_7_1,2023-10-31T02:27:13.351Z,,0,,,NaN,,,,,,false,,,,147147,147147,,147147,,147174,8,400,,,
break_continue,html.Screen,4_7_2,2023-10-31T02:27:13.351Z,,0,,,NaN,,,,,,false,,,,147148,147148,,147148,,147174,8,400,,,
sequence,flow.Sequence,4_7,2023-10-31T02:27:13.352Z,,0,,,2781,completion,,,,,false,,,,147148,147148,144351,144346,144367,147174,8,400,,,
trial,html.Screen,4_8_0,2023-10-31T02:27:16.629Z,,0,1,,3267,response,ISIC_0029675.JPG,8,ISIC_0009441.JPG,ISIC_0009441.JPG,false,0,keypress(z),500,150425,150425,147158,147148,147174,150462,8,400,9,,ISIC_0029675.JPG
break,html.Screen,4_8_1,2023-10-31T02:27:16.630Z,,0,,,NaN,,,,,,false,,,,150426.00000000003,150426.00000000003,,150425,,150462,8,400,,,
break_continue,html.Screen,4_8_2,2023-10-31T02:27:16.630Z,,0,,,NaN,,,,,,false,,,,150426.00000000003,150426.00000000003,,150426.00000000003,,150462,8,400,,,
sequence,flow.Sequence,4_8,2023-10-31T02:27:16.630Z,,0,,,3252.000000000029,completion,,,,,false,,,,150427,150426.00000000003,147158,147148,147174,150462,8,400,,,
trial,html.Screen,4_9_0,2023-10-31T02:27:19.430Z,,0,1,,2781,response,ISIC_4974868.JPG,6,ISIC_0032181.JPG,ISIC_4974868.JPG,false,1,keypress(m),500,153226,153226,150445,150427,150462,153262,8,400,10,,ISIC_0032181.JPG
break,html.Screen,4_9_1,2023-10-31T02:27:19.431Z,,0,,,NaN,,,,,,false,,,,153227,153227,,153227,,153262,8,400,,,
break_continue,html.Screen,4_9_2,2023-10-31T02:27:19.431Z,,0,,,NaN,,,,,,false,,,,153228,153228,,153227,,153262,8,400,,,
sequence,flow.Sequence,4_9,2023-10-31T02:27:19.431Z,,0,,,2766,completion,,,,,false,,,,153228,153228,150445,150427,150462,153262,8,400,,,
trial,html.Screen,4_10_0,2023-10-31T02:27:23.688Z,,0,1,,4239,response,ISIC_0013429.JPG,7,ISIC_0033377.JPG,ISIC_0033377.JPG,false,0,keypress(z),500,157484,157484,153245,153228,153262,157517,8,400,11,,ISIC_0013429.JPG
break,html.Screen,4_10_1,2023-10-31T02:27:23.688Z,,0,,,NaN,,,,,,false,,,,157485,157485,,157485,,157517,8,400,,,
break_continue,html.Screen,4_10_2,2023-10-31T02:27:23.689Z,,0,,,NaN,,,,,,false,,,,157485,157485,,157485,,157517,8,400,,,
sequence,flow.Sequence,4_10,2023-10-31T02:27:23.689Z,,0,,,4223,completion,,,,,false,,,,157485,157485,153245,153228,153262,157517,8,400,,,
trial,html.Screen,4_11_0,2023-10-31T02:27:26.634Z,,0,1,,2931,response,ISIC_0056784.JPG,5,ISIC_7830756.JPG,ISIC_7830756.JPG,false,0,keypress(z),500,160431,160431,157500,157486,157517,160450,8,400,12,,ISIC_0056784.JPG
break,html.Screen,4_11_1,2023-10-31T02:27:26.635Z,,0,,,NaN,,,,,,false,,,,160432.00000000003,160432.00000000003,,160432.00000000003,,160450,8,400,,,
break_continue,html.Screen,4_11_2,2023-10-31T02:27:26.635Z,,0,,,NaN,,,,,,false,,,,160432.00000000003,160432.00000000003,,160432.00000000003,,160450,8,400,,,
sequence,flow.Sequence,4_11,2023-10-31T02:27:26.636Z,,0,,,2915.000000000029,completion,,,,,false,,,,160432.00000000003,160432.00000000003,157500,157486,157517,160450,8,400,,,
trial,html.Screen,4_12_0,2023-10-31T02:27:29.803Z,,0,1,,3165,response,ISIC_3072311.JPG,6,ISIC_8431648.JPG,ISIC_8431648.JPG,false,0,keypress(z),500,163601,163600,160435,160433,160450,163621,8,400,13,,ISIC_3072311.JPG
break,html.Screen,4_12_1,2023-10-31T02:27:29.804Z,,0,,,NaN,,,,,,false,,,,163601,163601,,163601,,163621,8,400,,,
break_continue,html.Screen,4_12_2,2023-10-31T02:27:29.805Z,,0,,,NaN,,,,,,false,,,,163602,163602,,163602,,163621,8,400,,,
sequence,flow.Sequence,4_12,2023-10-31T02:27:29.805Z,,0,,,3152,completion,,,,,false,,,,163602,163602,160435,160433,160450,163621,8,400,,,
trial,html.Screen,4_13_0,2023-10-31T02:27:33.263Z,,0,1,,3455,response,ISIC_0015291.JPG,6,ISIC_4846741.JPG,ISIC_4846741.JPG,false,0,keypress(z),500,167060,167059,163604,163602,163621,167103,8,400,14,,ISIC_0015291.JPG
break,html.Screen,4_13_1,2023-10-31T02:27:33.264Z,,0,,,NaN,,,,,,false,,,,167061,167061,,167060,,167103,8,400,,,
break_continue,html.Screen,4_13_2,2023-10-31T02:27:33.264Z,,0,,,NaN,,,,,,false,,,,167061,167061,,167061,,167103,8,400,,,
sequence,flow.Sequence,4_13,2023-10-31T02:27:33.264Z,,0,,,3440,completion,,,,,false,,,,167062,167061,163604,163602,163621,167103,8,400,,,
trial,html.Screen,4_14_0,2023-10-31T02:27:36.299Z,,0,1,,3009,response,ISIC_5789052.JPG,10,ISIC_0010380.JPG,ISIC_5789052.JPG,false,1,keypress(m),500,170096,170096,167087,167062,167103,170126,8,400,15,,ISIC_0010380.JPG
break,html.Screen,4_14_1,2023-10-31T02:27:36.299Z,,0,,,NaN,,,,,,false,,,,170097,170097,,170096,,170126,8,400,,,
break_continue,html.Screen,4_14_2,2023-10-31T02:27:36.300Z,,0,,,NaN,,,,,,false,,,,170097,170097,,170097,,170126,8,400,,,
sequence,flow.Sequence,4_14,2023-10-31T02:27:36.300Z,,0,,,2994,completion,,,,,false,,,,170097,170097,167087,167062,167103,170126,8,400,,,
trial,html.Screen,4_15_0,2023-10-31T02:27:39.173Z,,0,1,,2860,response,ISIC_0031104.JPG,8,ISIC_0028666.JPG,ISIC_0031104.JPG,false,1,keypress(m),500,172970,172970,170110,170098,170126,173010,8,400,16,,ISIC_0028666.JPG
break,html.Screen,4_15_1,2023-10-31T02:27:39.173Z,,0,,,NaN,,,,,,false,,,,172971,172971,,172970,,173010,8,400,,,
break_continue,html.Screen,4_15_2,2023-10-31T02:27:39.174Z,,0,,,NaN,,,,,,false,,,,172971,172971,,172971,,173010,8,400,,,
sequence,flow.Sequence,4_15,2023-10-31T02:27:39.174Z,,0,,,2845,completion,,,,,false,,,,172972,172971,170110,170098,170126,173010,8,400,,,
trial,html.Screen,4_16_0,2023-10-31T02:27:42.119Z,,0,1,,2922,response,ISIC_6609379.JPG,6,ISIC_0072730.JPG,ISIC_6609379.JPG,false,1,keypress(m),500,175917,175916,172994,172972,173010,175949,8,400,17,,ISIC_0072730.JPG
break,html.Screen,4_16_1,2023-10-31T02:27:42.120Z,,0,,,NaN,,,,,,false,,,,175917,175917,,175917,,175949,8,400,,,
break_continue,html.Screen,4_16_2,2023-10-31T02:27:42.120Z,,0,,,NaN,,,,,,false,,,,175918,175917,,175917,,175949,8,400,,,
sequence,flow.Sequence,4_16,2023-10-31T02:27:42.120Z,,0,,,2907,completion,,,,,false,,,,175918,175917,172994,172972,173010,175949,8,400,,,
trial,html.Screen,4_17_0,2023-10-31T02:27:46.134Z,,0,1,,4000.000000000029,response,ISIC_0059485.JPG,4,ISIC_0031561.JPG,ISIC_0059485.JPG,false,1,keypress(m),500,179932.00000000003,179932.00000000003,175932,175918,175949,179970,8,400,18,,ISIC_0031561.JPG
break,html.Screen,4_17_1,2023-10-31T02:27:46.135Z,,0,,,NaN,,,,,,false,,,,179933,179932.00000000003,,179932.00000000003,,179970,8,400,,,
break_continue,html.Screen,4_17_2,2023-10-31T02:27:46.135Z,,0,,,NaN,,,,,,false,,,,179933,179933,,179933,,179970,8,400,,,
sequence,flow.Sequence,4_17,2023-10-31T02:27:46.135Z,,0,,,3984,completion,,,,,false,,,,179933,179933,175932,175918,175949,179970,8,400,,,
trial,html.Screen,4_18_0,2023-10-31T02:27:48.731Z,,0,1,,2576,response,ISIC_0000459.JPG,5,ISIC_0490714.JPG,ISIC_0490714.JPG,false,0,keypress(z),500,182529,182528,179952,179933,179970,182570,8,400,19,,ISIC_0000459.JPG
break,html.Screen,4_18_1,2023-10-31T02:27:48.731Z,,0,,,NaN,,,,,,false,,,,182529,182529,,182529,,182570,8,400,,,
break_continue,html.Screen,4_18_2,2023-10-31T02:27:48.732Z,,0,,,NaN,,,,,,false,,,,182530,182530,,182529,,182570,8,400,,,
sequence,flow.Sequence,4_18,2023-10-31T02:27:48.732Z,,0,,,2560,completion,,,,,false,,,,182530,182530,179952,179933,179970,182570,8,400,,,
trial,html.Screen,4_19_0,2023-10-31T02:28:00.254Z,,0,1,,11516,timeout,ISIC_0034256.JPG,6,ISIC_7658133.JPG,,false,,,500,194053,194052,182553,182530,182570,194086,8,400,20,,
break,html.Screen,4_19_1,2023-10-31T02:28:00.255Z,,0,,,NaN,,,,,,false,,,,194054,194053,,194053,,194086,8,400,,,
break_continue,html.Screen,4_19_2,2023-10-31T02:28:00.255Z,,0,,,NaN,,,,,,false,,,,194054,194054,,194054,,194086,8,400,,,
sequence,flow.Sequence,4_19,2023-10-31T02:28:00.255Z,,0,,,11484,completion,,,,,false,,,,194054,194054,182553,182530,182570,194086,8,400,,,
trial,html.Screen,4_20_0,2023-10-31T02:28:09.992Z,,0,1,,9722,response,ISIC_5718805.JPG,12,ISIC_0003703.JPG,ISIC_0003703.JPG,false,0,keypress(z),500,203791,203790,194068,194054,194086,203827,8,400,21,,ISIC_5718805.JPG
break,html.Screen,4_20_1,2023-10-31T02:28:09.992Z,,0,,,NaN,,,,,,false,,,,203791,203791,,203791,,203827,8,400,,,
break_continue,html.Screen,4_20_2,2023-10-31T02:28:09.993Z,,0,,,NaN,,,,,,false,,,,203792,203792,,203791,,203827,8,400,,,
sequence,flow.Sequence,4_20,2023-10-31T02:28:09.993Z,,0,,,9706,completion,,,,,false,,,,203792,203792,194068,194054,194086,203827,8,400,,,
trial,html.Screen,4_21_0,2023-10-31T02:28:15.565Z,,0,1,,5554,response,ISIC_0007351.JPG,6,ISIC_0032005.JPG,ISIC_0007351.JPG,false,1,keypress(m),500,209364,209364,203810,203792,203827,209398,8,400,22,,ISIC_0032005.JPG
break,html.Screen,4_21_1,2023-10-31T02:28:15.566Z,,0,,,NaN,,,,,,false,,,,209366,209365,,209365,,209398,8,400,,,
break_continue,html.Screen,4_21_2,2023-10-31T02:28:15.567Z,,0,,,NaN,,,,,,false,,,,209366,209366,,209366,,209398,8,400,,,
sequence,flow.Sequence,4_21,2023-10-31T02:28:15.567Z,,0,,,5539,completion,,,,,false,,,,209366,209366,203810,203792,203827,209398,8,400,,,
trial,html.Screen,4_22_0,2023-10-31T02:28:22.228Z,,0,1,,6645.000000000029,response,ISIC_0027356.JPG,11,ISIC_8680266.JPG,ISIC_8680266.JPG,false,0,keypress(z),500,216027.00000000003,216027.00000000003,209382,209366,209398,216069,8,400,23,,ISIC_0027356.JPG
break,html.Screen,4_22_1,2023-10-31T02:28:22.228Z,,0,,,NaN,,,,,,false,,,,216028,216028,,216027.00000000003,,216069,8,400,,,
break_continue,html.Screen,4_22_2,2023-10-31T02:28:22.229Z,,0,,,NaN,,,,,,false,,,,216028,216028,,216028,,216069,8,400,,,
sequence,flow.Sequence,4_22,2023-10-31T02:28:22.229Z,,0,,,6630,completion,,,,,false,,,,216029,216028,209382,209366,209398,216069,8,400,,,
trial,html.Screen,4_23_0,2023-10-31T02:28:26.263Z,,0,1,,4010,response,ISIC_8765068.JPG,5,ISIC_0255997.JPG,ISIC_8765068.JPG,false,1,keypress(m),500,220063.00000000003,220062,216052,216029,216069,220102,8,400,24,,ISIC_0255997.JPG
break,html.Screen,4_23_1,2023-10-31T02:28:26.264Z,,0,,,NaN,,,,,,false,,,,220063.00000000003,220063.00000000003,,220063.00000000003,,220102,8,400,,,
break_continue,html.Screen,4_23_2,2023-10-31T02:28:26.264Z,,0,,,NaN,,,,,,false,,,,220064,220064,,220064,,220102,8,400,,,
sequence,flow.Sequence,4_23,2023-10-31T02:28:26.264Z,,0,,,3995,completion,,,,,false,,,,220064,220064,216052,216029,216069,220102,8,400,,,
trial,html.Screen,4_24_0,2023-10-31T02:28:29.801Z,,0,1,,3515,response,ISIC_0069638.JPG,12,ISIC_2969968.JPG,ISIC_2969968.JPG,false,0,keypress(z),500,223601,223601,220086,220064,220102,223642,8,400,25,,ISIC_0069638.JPG
break,html.Screen,4_24_1,2023-10-31T02:28:29.802Z,,0,,,NaN,,,,,,false,,,,223602,223602,,223601,,223642,8,400,,,
break_continue,html.Screen,4_24_2,2023-10-31T02:28:29.802Z,,0,,,NaN,,,,,,false,,,,223602,223602,,223602,,223642,8,400,,,
sequence,flow.Sequence,4_24,2023-10-31T02:28:29.802Z,,0,,,3500,completion,,,,,false,,,,223602,223602,220086,220064,220102,223642,8,400,,,
trial,html.Screen,4_25_0,2023-10-31T02:28:35.027Z,,0,1,,5202,response,ISIC_6274085.JPG,5,ISIC_3541663.JPG,ISIC_6274085.JPG,false,1,keypress(m),500,228827,228827,223625,223603,223642,228863,8,400,26,,ISIC_3541663.JPG
break,html.Screen,4_25_1,2023-10-31T02:28:35.028Z,,0,,,NaN,,,,,,false,,,,228828,228828,,228828,,228863,8,400,,,
break_continue,html.Screen,4_25_2,2023-10-31T02:28:35.029Z,,0,,,NaN,,,,,,false,,,,228829,228829,,228829,,228863,8,400,,,
sequence,flow.Sequence,4_25,2023-10-31T02:28:35.029Z,,0,,,5187,completion,,,,,false,,,,228829,228829,223625,223602,223642,228863,8,400,,,
trial,html.Screen,4_26_0,2023-10-31T02:28:38.321Z,,0,1,,3275,response,ISIC_7462746.JPG,8,ISIC_3148533.JPG,ISIC_3148533.JPG,false,0,keypress(z),500,232121,232121,228846,228829,228863,232163,8,400,27,,ISIC_7462746.JPG
break,html.Screen,4_26_1,2023-10-31T02:28:38.322Z,,0,,,NaN,,,,,,false,,,,232122,232122,,232121,,232163,8,400,,,
break_continue,html.Screen,4_26_2,2023-10-31T02:28:38.322Z,,0,,,NaN,,,,,,false,,,,232122,232122,,232122,,232163,8,400,,,
sequence,flow.Sequence,4_26,2023-10-31T02:28:38.322Z,,0,,,3259,completion,,,,,false,,,,232122,232122,228846,228829,228863,232163,8,400,,,
trial,html.Screen,4_27_0,2023-10-31T02:28:49.840Z,,0,1,,11510,timeout,ISIC_5568525.JPG,11,ISIC_0066429.JPG,,false,,,500,243641,243640.00000000003,232145,232122,232163,243673,8,400,28,,
break,html.Screen,4_27_1,2023-10-31T02:28:49.841Z,,0,,,NaN,,,,,,false,,,,243642,243641,,243641,,243673,8,400,,,
break_continue,html.Screen,4_27_2,2023-10-31T02:28:49.841Z,,0,,,NaN,,,,,,false,,,,243642,243642,,243642,,243673,8,400,,,
sequence,flow.Sequence,4_27,2023-10-31T02:28:49.841Z,,0,,,11479,completion,,,,,false,,,,243642,243642,232145,232122,232163,243673,8,400,,,
trial,html.Screen,4_28_0,2023-10-31T02:28:53.201Z,,0,1,,3345,response,ISIC_0024355.JPG,10,ISIC_6088194.JPG,ISIC_6088194.JPG,false,0,keypress(z),500,247002,247002,243657,243642,243673,247030,8,400,29,,ISIC_0024355.JPG
break,html.Screen,4_28_1,2023-10-31T02:28:53.202Z,,0,,,NaN,,,,,,false,,,,247003,247003,,247002,,247030,8,400,,,
break_continue,html.Screen,4_28_2,2023-10-31T02:28:53.202Z,,0,,,NaN,,,,,,false,,,,247003,247003,,247003,,247030,8,400,,,
sequence,flow.Sequence,4_28,2023-10-31T02:28:53.202Z,,0,,,3330,completion,,,,,false,,,,247004.00000000003,247003,243657,243642,243673,247030,8,400,,,
trial,html.Screen,4_29_0,2023-10-31T02:28:55.974Z,,0,1,,2762,response,ISIC_0027321.JPG,8,ISIC_6588853.JPG,ISIC_0027321.JPG,false,1,keypress(m),500,249775,249775,247013,247004.00000000003,247030,249813,8,400,30,,ISIC_6588853.JPG
break,html.Screen,4_29_1,2023-10-31T02:28:55.975Z,,0,,,NaN,,,,,,false,,,,249776,249776,,249775,,249813,8,400,,,
break_continue,html.Screen,4_29_2,2023-10-31T02:28:55.975Z,,0,,,NaN,,,,,,false,,,,249776,249776,,249776,,249813,8,400,,,
sequence,flow.Sequence,4_29,2023-10-31T02:28:55.976Z,,0,,,2746,completion,,,,,false,,,,249777.00000000003,249776,247013,247004.00000000003,247030,249813,8,400,,,
trial,html.Screen,4_30_0,2023-10-31T02:28:58.829Z,,0,1,,2834,response,ISIC_9125409.JPG,9,ISIC_3171104.JPG,ISIC_9125409.JPG,false,1,keypress(m),500,252630,252630,249796,249777.00000000003,249813,252670,8,400,31,,ISIC_3171104.JPG
break,html.Screen,4_30_1,2023-10-31T02:28:58.830Z,,0,,,NaN,,,,,,false,,,,252631,252631,,252630,,252670,8,400,,,
break_continue,html.Screen,4_30_2,2023-10-31T02:28:58.830Z,,0,,,NaN,,,,,,false,,,,252631,252631,,252631,,252670,8,400,,,
sequence,flow.Sequence,4_30,2023-10-31T02:28:58.830Z,,0,,,2818,completion,,,,,false,,,,252631,252631,249796,249777.00000000003,249813,252670,8,400,,,
trial,html.Screen,4_31_0,2023-10-31T02:29:01.575Z,,0,1,,2722,response,ISIC_0068152.JPG,10,ISIC_5979807.JPG,ISIC_5979807.JPG,false,0,keypress(z),500,255376,255376,252654,252632,252670,255408,8,400,32,,ISIC_0068152.JPG
break,html.Screen,4_31_1,2023-10-31T02:29:01.576Z,,0,,,NaN,,,,,,false,,,,255377,255377,,255376,,255408,8,400,,,
break_continue,html.Screen,4_31_2,2023-10-31T02:29:01.576Z,,0,,,NaN,,,,,,false,,,,255377,255377,,255377,,255408,8,400,,,
sequence,flow.Sequence,4_31,2023-10-31T02:29:01.576Z,,0,,,2707,completion,,,,,false,,,,255377,255377,252654,252632,252670,255408,8,400,,,
trial,html.Screen,4_32_0,2023-10-31T02:29:04.494Z,,0,1,,2901,response,ISIC_6099476.JPG,8,ISIC_0031303.JPG,ISIC_6099476.JPG,false,1,keypress(m),500,258295.00000000003,258293,255392,255378,255408,258324,8,400,33,,ISIC_0031303.JPG
break,html.Screen,4_32_1,2023-10-31T02:29:04.495Z,,0,,,NaN,,,,,,false,,,,258297.00000000003,258296,,258296,,258324,8,400,,,
break_continue,html.Screen,4_32_2,2023-10-31T02:29:04.496Z,,0,,,NaN,,,,,,false,,,,258297.00000000003,258297.00000000003,,258297.00000000003,,258324,8,400,,,
sequence,flow.Sequence,4_32,2023-10-31T02:29:04.496Z,,0,,,2889.000000000029,completion,,,,,false,,,,258297.00000000003,258297.00000000003,255392,255378,255408,258324,8,400,,,
trial,html.Screen,4_33_0,2023-10-31T02:29:07.237Z,,0,1,,2731,response,ISIC_6297317.JPG,16,ISIC_0029868.JPG,ISIC_0029868.JPG,false,0,keypress(z),500,261039,261039,258308,258297.00000000003,258324,261078,8,400,34,,ISIC_6297317.JPG
break,html.Screen,4_33_1,2023-10-31T02:29:07.238Z,,0,,,NaN,,,,,,false,,,,261040.00000000003,261040.00000000003,,261039,,261078,8,400,,,
break_continue,html.Screen,4_33_2,2023-10-31T02:29:07.238Z,,0,,,NaN,,,,,,false,,,,261040.00000000003,261040.00000000003,,261040.00000000003,,261078,8,400,,,
sequence,flow.Sequence,4_33,2023-10-31T02:29:07.239Z,,0,,,2716.000000000029,completion,,,,,false,,,,261040.00000000003,261040.00000000003,258308,258297.00000000003,258324,261078,8,400,,,
trial,html.Screen,4_34_0,2023-10-31T02:29:10.035Z,,0,1,,2775,response,ISIC_0030047.JPG,16,ISIC_2011408.JPG,ISIC_2011408.JPG,false,0,keypress(z),500,263837,263837,261062,261041,261078,263878,8,400,35,,ISIC_0030047.JPG
break,html.Screen,4_34_1,2023-10-31T02:29:10.036Z,,0,,,NaN,,,,,,false,,,,263838,263838,,263837,,263878,8,400,,,
break_continue,html.Screen,4_34_2,2023-10-31T02:29:10.037Z,,0,,,NaN,,,,,,false,,,,263838,263838,,263838,,263878,8,400,,,
sequence,flow.Sequence,4_34,2023-10-31T02:29:10.037Z,,0,,,2760,completion,,,,,false,,,,263839,263838,261062,261040.00000000003,261078,263878,8,400,,,
trial,html.Screen,4_35_0,2023-10-31T02:29:12.615Z,,0,1,,2554,response,ISIC_3761253.JPG,1,ISIC_7011122.JPG,ISIC_7011122.JPG,false,0,keypress(z),500,266417.00000000006,266416,263862,263839,263878,266450,8,400,36,,ISIC_3761253.JPG
break,html.Screen,4_35_1,2023-10-31T02:29:12.615Z,,0,,,NaN,,,,,,false,,,,266417.00000000006,266417.00000000006,,266417.00000000006,,266450,8,400,,,
break_continue,html.Screen,4_35_2,2023-10-31T02:29:12.616Z,,0,,,NaN,,,,,,false,,,,266418,266417.00000000006,,266417.00000000006,,266450,8,400,,,
sequence,flow.Sequence,4_35,2023-10-31T02:29:12.616Z,,0,,,2539.000000000058,completion,,,,,false,,,,266418,266417.00000000006,263862,263839,263878,266450,8,400,,,
trial,html.Screen,4_36_0,2023-10-31T02:29:16.137Z,,0,1,,3505,response,ISIC_0029283.JPG,8,ISIC_0058891.JPG,ISIC_0029283.JPG,false,1,keypress(m),500,269939,269938,266433,266418,266450,269966,8,400,37,,ISIC_0058891.JPG
break,html.Screen,4_36_1,2023-10-31T02:29:16.138Z,,0,,,NaN,,,,,,false,,,,269940,269940,,269939,,269966,8,400,,,
break_continue,html.Screen,4_36_2,2023-10-31T02:29:16.138Z,,0,,,NaN,,,,,,false,,,,269940,269940,,269940,,269966,8,400,,,
sequence,flow.Sequence,4_36,2023-10-31T02:29:16.138Z,,0,,,3490,completion,,,,,false,,,,269941.00000000006,269940,266433,266418,266450,269966,8,400,,,
trial,html.Screen,4_37_0,2023-10-31T02:29:19.026Z,,0,1,,2878.000000000058,response,ISIC_5769654.JPG,11,ISIC_9330527.JPG,ISIC_9330527.JPG,false,0,keypress(z),500,272829,272828.00000000006,269950,269941.00000000006,269966,272872,8,400,38,,ISIC_5769654.JPG
break,html.Screen,4_37_1,2023-10-31T02:29:19.027Z,,0,,,NaN,,,,,,false,,,,272829,272829,,272829,,272872,8,400,,,
break_continue,html.Screen,4_37_2,2023-10-31T02:29:19.028Z,,0,,,NaN,,,,,,false,,,,272830,272830,,272830,,272872,8,400,,,
sequence,flow.Sequence,4_37,2023-10-31T02:29:19.028Z,,0,,,2864,completion,,,,,false,,,,272830,272830,269950,269941.00000000006,269966,272872,8,400,,,
trial,html.Screen,4_38_0,2023-10-31T02:29:22.757Z,,0,1,,3704,response,ISIC_0975874.JPG,13,ISIC_2528656.JPG,ISIC_0975874.JPG,false,1,keypress(m),500,276560,276560,272856,272830,272872,276593,8,400,39,,ISIC_2528656.JPG
break,html.Screen,4_38_1,2023-10-31T02:29:22.758Z,,0,,,NaN,,,,,,false,,,,276561,276561,,276560,,276593,8,400,,,
break_continue,html.Screen,4_38_2,2023-10-31T02:29:22.759Z,,0,,,NaN,,,,,,false,,,,276561,276561,,276561,,276593,8,400,,,
sequence,flow.Sequence,4_38,2023-10-31T02:29:22.759Z,,0,,,3689,completion,,,,,false,,,,276561,276561,272856,272830,272872,276593,8,400,,,
trial,html.Screen,4_39_0,2023-10-31T02:29:25.520Z,,0,1,,2745,response,ISIC_0760740.JPG,0,ISIC_8843901.JPG,ISIC_0760740.JPG,false,1,keypress(m),500,279322,279322,276577,276561,276593,279359,8,400,40,,ISIC_8843901.JPG
break,html.Screen,4_39_1,2023-10-31T02:29:25.521Z,,0,,,NaN,,,,,,false,,,,279324,279323,,279323,,279359,8,400,,,
break_continue,html.Screen,4_39_2,2023-10-31T02:29:25.521Z,,0,,,NaN,,,,,,false,,,,279324,279324,,279324,,279359,8,400,,,
sequence,flow.Sequence,4_39,2023-10-31T02:29:25.521Z,,0,,,2731,completion,,,,,false,,,,279324,279324,276577,276561,276593,279359,8,400,,,
trial,html.Screen,4_40_0,2023-10-31T02:29:28.103Z,,0,1,,2562.000000000058,response,ISIC_0032955.JPG,4,ISIC_0016043.JPG,ISIC_0016043.JPG,false,0,keypress(z),500,281906,281905.00000000006,279343,279324,279359,281947,8,400,41,,ISIC_0032955.JPG
break,html.Screen,4_40_1,2023-10-31T02:29:28.104Z,,0,,,NaN,,,,,,false,,,,281907,281906,,281906,,281947,8,400,,,
break_continue,html.Screen,4_40_2,2023-10-31T02:29:28.104Z,,0,,,NaN,,,,,,false,,,,281907,281907,,281907,,281947,8,400,,,
sequence,flow.Sequence,4_40,2023-10-31T02:29:28.104Z,,0,,,2548,completion,,,,,false,,,,281907,281907,279343,279324,279359,281947,8,400,,,
trial,html.Screen,4_41_0,2023-10-31T02:29:30.776Z,,0,1,,2648,response,ISIC_0030254.JPG,9,ISIC_0013572.JPG,ISIC_0013572.JPG,false,0,keypress(z),500,284579,284579,281931,281907,281947,284614,8,400,42,,ISIC_0030254.JPG
break,html.Screen,4_41_1,2023-10-31T02:29:30.777Z,,0,,,NaN,,,,,,false,,,,284580,284580,,284579,,284614,8,400,,,
break_continue,html.Screen,4_41_2,2023-10-31T02:29:30.777Z,,0,,,NaN,,,,,,false,,,,284580,284580,,284580,,284614,8,400,,,
sequence,flow.Sequence,4_41,2023-10-31T02:29:30.778Z,,0,,,2633,completion,,,,,false,,,,284580,284580,281931,281907,281947,284614,8,400,,,
trial,html.Screen,4_42_0,2023-10-31T02:29:33.423Z,,0,1,,2628,response,ISIC_2554114.JPG,7,ISIC_0059066.JPG,ISIC_0059066.JPG,false,0,keypress(z),500,287226,287226,284598,284581,284614,287269,8,400,43,,ISIC_2554114.JPG
break,html.Screen,4_42_1,2023-10-31T02:29:33.424Z,,0,,,NaN,,,,,,false,,,,287227.00000000006,287227.00000000006,,287227.00000000006,,287269,8,400,,,
break_continue,html.Screen,4_42_2,2023-10-31T02:29:33.424Z,,0,,,NaN,,,,,,false,,,,287227.00000000006,287227.00000000006,,287227.00000000006,,287269,8,400,,,
sequence,flow.Sequence,4_42,2023-10-31T02:29:33.425Z,,0,,,2613.000000000058,completion,,,,,false,,,,287228,287227.00000000006,284598,284581,284614,287269,8,400,,,
trial,html.Screen,4_43_0,2023-10-31T02:29:37.547Z,,0,1,,4098,response,ISIC_4566439.JPG,8,ISIC_0012054.JPG,ISIC_4566439.JPG,false,1,keypress(m),500,291350,291350,287252,287228,287269,291385,8,400,44,,ISIC_0012054.JPG
break,html.Screen,4_43_1,2023-10-31T02:29:37.548Z,,0,,,NaN,,,,,,false,,,,291351,291351,,291350,,291385,8,400,,,
break_continue,html.Screen,4_43_2,2023-10-31T02:29:37.548Z,,0,,,NaN,,,,,,false,,,,291351,291351,,291351,,291385,8,400,,,
sequence,flow.Sequence,4_43,2023-10-31T02:29:37.548Z,,0,,,4082,completion,,,,,false,,,,291351,291351,287252,287228,287269,291385,8,400,,,
trial,html.Screen,4_44_0,2023-10-31T02:29:42.364Z,,0,1,,4798.000000000058,response,ISIC_2226940.JPG,5,ISIC_9106966.JPG,ISIC_2226940.JPG,false,1,keypress(m),500,296168,296167.00000000006,291369,291352.00000000006,291385,296210,8,400,45,,ISIC_9106966.JPG
break,html.Screen,4_44_1,2023-10-31T02:29:42.365Z,,0,,,NaN,,,,,,false,,,,296169,296169,,296168,,296210,8,400,,,
break_continue,html.Screen,4_44_2,2023-10-31T02:29:42.366Z,,0,,,NaN,,,,,,false,,,,296169,296169,,296169,,296210,8,400,,,
sequence,flow.Sequence,4_44,2023-10-31T02:29:42.366Z,,0,,,4784,completion,,,,,false,,,,296169,296169,291369,291351,291385,296210,8,400,,,
trial,html.Screen,4_45_0,2023-10-31T02:29:45.168Z,,0,1,,2779,response,ISIC_0064997.JPG,10,ISIC_4357596.JPG,ISIC_4357596.JPG,false,0,keypress(z),500,298971,298971,296192,296169,296210,298999,8,400,46,,ISIC_0064997.JPG
break,html.Screen,4_45_1,2023-10-31T02:29:45.169Z,,0,,,NaN,,,,,,false,,,,298972,298972,,298971,,298999,8,400,,,
break_continue,html.Screen,4_45_2,2023-10-31T02:29:45.169Z,,0,,,NaN,,,,,,false,,,,298973,298972,,298972,,298999,8,400,,,
sequence,flow.Sequence,4_45,2023-10-31T02:29:45.169Z,,0,,,2762,completion,,,,,false,,,,298973,298972,296192,296169,296210,298999,8,400,,,
trial,html.Screen,4_46_0,2023-10-31T02:29:47.835Z,,0,1,,2657,response,ISIC_0616491.JPG,9,ISIC_0026402.JPG,ISIC_0616491.JPG,false,1,keypress(m),500,301639,301639,298982,298973,298999,301666,8,400,47,,ISIC_0026402.JPG
break,html.Screen,4_46_1,2023-10-31T02:29:47.836Z,,0,,,NaN,,,,,,false,,,,301640,301640,,301639,,301666,8,400,,,
break_continue,html.Screen,4_46_2,2023-10-31T02:29:47.837Z,,0,,,NaN,,,,,,false,,,,301640,301640,,301640,,301666,8,400,,,
sequence,flow.Sequence,4_46,2023-10-31T02:29:47.837Z,,0,,,2641,completion,,,,,false,,,,301641,301640,298982,298973,298999,301666,8,400,,,
trial,html.Screen,4_47_0,2023-10-31T02:29:50.878Z,,0,1,,3034,response,ISIC_0610849.JPG,7,ISIC_6162308.JPG,ISIC_6162308.JPG,false,0,keypress(z),500,304682,304682,301648,301641,301666,304720,8,400,48,,ISIC_0610849.JPG
break,html.Screen,4_47_1,2023-10-31T02:29:50.879Z,,0,,,NaN,,,,,,false,,,,304683,304683,,304682,,304720,8,400,,,
break_continue,html.Screen,4_47_2,2023-10-31T02:29:50.880Z,,0,,,NaN,,,,,,false,,,,304683,304683,,304683,,304720,8,400,,,
sequence,flow.Sequence,4_47,2023-10-31T02:29:50.880Z,,0,,,3017,completion,,,,,false,,,,304684,304683,301648,301641,301666,304720,8,400,,,
trial,html.Screen,4_48_0,2023-10-31T02:29:53.637Z,,0,1,,2737.000000000058,response,ISIC_0032797.JPG,13,ISIC_1926656.JPG,ISIC_1926656.JPG,false,0,keypress(z),500,307441.00000000006,307441.00000000006,304704,304684,304720,307471,8,400,49,,ISIC_0032797.JPG
break,html.Screen,4_48_1,2023-10-31T02:29:53.638Z,,0,,,NaN,,,,,,false,,,,307442,307442,,307441.00000000006,,307471,8,400,,,
break_continue,html.Screen,4_48_2,2023-10-31T02:29:53.638Z,,0,,,NaN,,,,,,false,,,,307442,307442,,307442,,307471,8,400,,,
sequence,flow.Sequence,4_48,2023-10-31T02:29:53.638Z,,0,,,2722,completion,,,,,false,,,,307442,307442,304704,304684,304720,307471,8,400,,,
trial,html.Screen,4_49_0,2023-10-31T02:29:57.889Z,,0,1,,4239,response,ISIC_0034316.JPG,6,ISIC_0028025.JPG,ISIC_0028025.JPG,false,0,keypress(z),500,311694,311693,307454,307443,307471,311726,8,400,50,,ISIC_0034316.JPG
break,html.Screen,4_49_1,2023-10-31T02:30:07.904Z,,0,,,9999,timeout,,,,,false,,,,321709,321708,311709,311694,311726,321725,8,400,,,
break_continue,html.Screen,4_49_2,2023-10-31T02:30:09.299Z,,0,,,1415,response,,,,,false,continue,keypress(Space),,323103,323123,321708,321710,321725,323141,8,400,,,
sequence,flow.Sequence,4_49,2023-10-31T02:30:09.299Z,,0,,,15652,completion,,,,,false,,,,323103,323123,307454,307443,307471,323141,8,400,,,
trial,html.Screen,4_50_0,2023-10-31T02:30:12.246Z,,0,2,,2926,response,ISIC_8040024.JPG,11,ISIC_0031785.JPG,ISIC_0031785.JPG,false,0,keypress(z),500,326051,326051,323125,323104,323141,326091,8,400,1,,ISIC_8040024.JPG
break,html.Screen,4_50_1,2023-10-31T02:30:12.247Z,,0,,,NaN,,,,,,false,,,,326052,326051,,326051,,326091,8,400,,,
break_continue,html.Screen,4_50_2,2023-10-31T02:30:12.247Z,,0,,,NaN,,,,,,false,,,,326052,326052,,326052,,326091,8,400,,,
sequence,flow.Sequence,4_50,2023-10-31T02:30:12.247Z,,0,,,2911,completion,,,,,false,,,,326052,326052,323125,323104,323141,326091,8,400,,,
trial,html.Screen,4_51_0,2023-10-31T02:30:14.904Z,,0,2,,2635,response,ISIC_9433388.JPG,4,ISIC_0011211.JPG,ISIC_9433388.JPG,false,1,keypress(m),500,328709,328709,326074,326052,326091,328740,8,400,2,,ISIC_0011211.JPG
break,html.Screen,4_51_1,2023-10-31T02:30:14.905Z,,0,,,NaN,,,,,,false,,,,328710,328709,,328709,,328740,8,400,,,
break_continue,html.Screen,4_51_2,2023-10-31T02:30:14.905Z,,0,,,NaN,,,,,,false,,,,328710,328710,,328710,,328740,8,400,,,
sequence,flow.Sequence,4_51,2023-10-31T02:30:14.905Z,,0,,,2619,completion,,,,,false,,,,328710,328710,326074,326052,326091,328740,8,400,,,
trial,html.Screen,4_52_0,2023-10-31T02:30:17.366Z,,0,2,,2447,response,ISIC_4471367.JPG,9,ISIC_0054239.JPG,ISIC_4471367.JPG,false,1,keypress(m),500,331171,331171,328724,328710,328740,331213,8,400,3,,ISIC_0054239.JPG
break,html.Screen,4_52_1,2023-10-31T02:30:17.366Z,,0,,,NaN,,,,,,false,,,,331171,331171,,331171,,331213,8,400,,,
break_continue,html.Screen,4_52_2,2023-10-31T02:30:17.367Z,,0,,,NaN,,,,,,false,,,,331172,331172,,331171,,331213,8,400,,,
sequence,flow.Sequence,4_52,2023-10-31T02:30:17.367Z,,0,,,2432,completion,,,,,false,,,,331172,331172,328724,328710,328740,331213,8,400,,,
trial,html.Screen,4_53_0,2023-10-31T02:30:19.867Z,,0,2,,2475,response,ISIC_3254309.JPG,10,ISIC_0708542.JPG,ISIC_0708542.JPG,false,0,keypress(z),500,333672,333672,331197,331172,331213,333714,8,400,4,,ISIC_3254309.JPG
break,html.Screen,4_53_1,2023-10-31T02:30:19.868Z,,0,,,NaN,,,,,,false,,,,333673,333673,,333672,,333714,8,400,,,
break_continue,html.Screen,4_53_2,2023-10-31T02:30:19.868Z,,0,,,NaN,,,,,,false,,,,333673,333673,,333673,,333714,8,400,,,
sequence,flow.Sequence,4_53,2023-10-31T02:30:19.868Z,,0,,,2460,completion,,,,,false,,,,333674.00000000006,333673,331197,331172,331213,333714,8,400,,,
trial,html.Screen,4_54_0,2023-10-31T02:30:22.490Z,,0,2,,2597,response,ISIC_0056260.JPG,7,ISIC_0059892.JPG,ISIC_0056260.JPG,false,1,keypress(m),500,336296,336295,333698,333674.00000000006,333714,336319,8,400,5,,ISIC_0059892.JPG
break,html.Screen,4_54_1,2023-10-31T02:30:22.491Z,,0,,,NaN,,,,,,false,,,,336297,336296,,336296,,336319,8,400,,,
break_continue,html.Screen,4_54_2,2023-10-31T02:30:22.492Z,,0,,,NaN,,,,,,false,,,,336298,336297,,336297,,336319,8,400,,,
sequence,flow.Sequence,4_54,2023-10-31T02:30:22.492Z,,0,,,2583,completion,,,,,false,,,,336298,336297,333698,333674.00000000006,333714,336319,8,400,,,
trial,html.Screen,4_55_0,2023-10-31T02:30:24.986Z,,0,2,,2488,response,ISIC_0054239.JPG,5,ISIC_9350507.JPG,ISIC_9350507.JPG,false,0,keypress(z),500,338792.00000000006,338791,336303,336298,336319,338820,8,400,6,,ISIC_0054239.JPG
break,html.Screen,4_55_1,2023-10-31T02:30:24.987Z,,0,,,NaN,,,,,,false,,,,338793,338792.00000000006,,338792.00000000006,,338820,8,400,,,
break_continue,html.Screen,4_55_2,2023-10-31T02:30:24.988Z,,0,,,NaN,,,,,,false,,,,338793,338793,,338793,,338820,8,400,,,
sequence,flow.Sequence,4_55,2023-10-31T02:30:24.988Z,,0,,,2474,completion,,,,,false,,,,338793,338793,336303,336298,336319,338820,8,400,,,
trial,html.Screen,4_56_0,2023-10-31T02:30:27.571Z,,0,2,,2574,response,ISIC_2256461.JPG,13,ISIC_5305288.JPG,ISIC_2256461.JPG,false,1,keypress(m),500,341377,341377,338803,338793,338820,341410,8,400,7,,ISIC_5305288.JPG
break,html.Screen,4_56_1,2023-10-31T02:30:27.572Z,,0,,,NaN,,,,,,false,,,,341377,341377,,341377,,341410,8,400,,,
break_continue,html.Screen,4_56_2,2023-10-31T02:30:27.572Z,,0,,,NaN,,,,,,false,,,,341378,341378,,341378,,341410,8,400,,,
sequence,flow.Sequence,4_56,2023-10-31T02:30:27.572Z,,0,,,2558,completion,,,,,false,,,,341378,341378,338803,338793,338820,341410,8,400,,,
trial,html.Screen,4_57_0,2023-10-31T02:30:30.249Z,,0,2,,2661.000000000058,response,ISIC_1772828.JPG,9,ISIC_6558697.JPG,ISIC_1772828.JPG,false,1,keypress(m),500,344055,344054.00000000006,341393,341378,341410,344077,8,400,8,,ISIC_6558697.JPG
break,html.Screen,4_57_1,2023-10-31T02:30:30.250Z,,0,,,NaN,,,,,,false,,,,344056,344055,,344055,,344077,8,400,,,
break_continue,html.Screen,4_57_2,2023-10-31T02:30:30.250Z,,0,,,NaN,,,,,,false,,,,344056,344056,,344056,,344077,8,400,,,
sequence,flow.Sequence,4_57,2023-10-31T02:30:30.251Z,,0,,,2646,completion,,,,,false,,,,344056,344056,341393,341378,341410,344077,8,400,,,
trial,html.Screen,4_58_0,2023-10-31T02:30:32.924Z,,0,2,,2669,response,ISIC_3256116.JPG,4,ISIC_9905633.JPG,ISIC_9905633.JPG,false,0,keypress(z),500,346729,346729,344060,344056,344077,346765,8,400,9,,ISIC_3256116.JPG
break,html.Screen,4_58_1,2023-10-31T02:30:32.924Z,,0,,,NaN,,,,,,false,,,,346730,346730,,346730,,346765,8,400,,,
break_continue,html.Screen,4_58_2,2023-10-31T02:30:32.925Z,,0,,,NaN,,,,,,false,,,,346731,346731,,346730,,346765,8,400,,,
sequence,flow.Sequence,4_58,2023-10-31T02:30:32.925Z,,0,,,2654,completion,,,,,false,,,,346731,346731,344060,344056,344077,346765,8,400,,,
trial,html.Screen,4_59_0,2023-10-31T02:30:35.671Z,,0,2,,2727,response,ISIC_2396791.JPG,8,ISIC_0034075.JPG,ISIC_2396791.JPG,false,1,keypress(m),500,349477.00000000006,349476,346749,346731,346765,349516,8,400,10,,ISIC_0034075.JPG
break,html.Screen,4_59_1,2023-10-31T02:30:35.672Z,,0,,,NaN,,,,,,false,,,,349478,349477.00000000006,,349477.00000000006,,349516,8,400,,,
break_continue,html.Screen,4_59_2,2023-10-31T02:30:35.672Z,,0,,,NaN,,,,,,false,,,,349478,349478,,349478,,349516,8,400,,,
sequence,flow.Sequence,4_59,2023-10-31T02:30:35.672Z,,0,,,2713,completion,,,,,false,,,,349478,349478,346749,346731,346765,349516,8,400,,,
trial,html.Screen,4_60_0,2023-10-31T02:30:38.833Z,,0,2,,3141,response,ISIC_8436666.JPG,8,ISIC_8835545.JPG,ISIC_8436666.JPG,false,1,keypress(m),500,352639,352639,349498,349478,349516,352672,8,400,11,,ISIC_8835545.JPG
break,html.Screen,4_60_1,2023-10-31T02:30:38.834Z,,0,,,NaN,,,,,,false,,,,352640,352640,,352640,,352672,8,400,,,
break_continue,html.Screen,4_60_2,2023-10-31T02:30:38.834Z,,0,,,NaN,,,,,,false,,,,352640,352640,,352640,,352672,8,400,,,
sequence,flow.Sequence,4_60,2023-10-31T02:30:38.835Z,,0,,,3124,completion,,,,,false,,,,352641,352640,349498,349478,349516,352672,8,400,,,
trial,html.Screen,4_61_0,2023-10-31T02:30:42.143Z,,0,2,,3294,response,ISIC_2753279.JPG,12,ISIC_0028211.JPG,ISIC_2753279.JPG,false,1,keypress(m),500,355949,355949,352655,352641,352672,355989,8,400,12,,ISIC_0028211.JPG
break,html.Screen,4_61_1,2023-10-31T02:30:42.145Z,,0,,,NaN,,,,,,false,,,,355951,355951,,355950,,355989,8,400,,,
break_continue,html.Screen,4_61_2,2023-10-31T02:30:42.145Z,,0,,,NaN,,,,,,false,,,,355951,355951,,355951,,355989,8,400,,,
sequence,flow.Sequence,4_61,2023-10-31T02:30:42.145Z,,0,,,3279,completion,,,,,false,,,,355952,355951,352655,352641,352672,355989,8,400,,,
trial,html.Screen,4_62_0,2023-10-31T02:30:45.024Z,,0,2,,2860,response,ISIC_7138875.JPG,11,ISIC_0011531.JPG,ISIC_7138875.JPG,false,1,keypress(m),500,358831,358831,355971,355952,355989,358861,8,400,13,,ISIC_0011531.JPG
break,html.Screen,4_62_1,2023-10-31T02:30:45.025Z,,0,,,NaN,,,,,,false,,,,358832,358831,,358831,,358861,8,400,,,
break_continue,html.Screen,4_62_2,2023-10-31T02:30:45.026Z,,0,,,NaN,,,,,,false,,,,358832,358832,,358832,,358861,8,400,,,
sequence,flow.Sequence,4_62,2023-10-31T02:30:45.026Z,,0,,,2843,completion,,,,,false,,,,358832,358832,355971,355952,355989,358861,8,400,,,
trial,html.Screen,4_63_0,2023-10-31T02:30:47.801Z,,0,2,,2762,response,ISIC_6822870.JPG,8,ISIC_2386961.JPG,ISIC_6822870.JPG,false,1,keypress(m),500,361607,361607,358845,358832,358861,361650,8,400,14,,ISIC_2386961.JPG
break,html.Screen,4_63_1,2023-10-31T02:30:47.802Z,,0,,,NaN,,,,,,false,,,,361608,361608,,361607,,361650,8,400,,,
break_continue,html.Screen,4_63_2,2023-10-31T02:30:47.802Z,,0,,,NaN,,,,,,false,,,,361608,361608,,361608,,361650,8,400,,,
sequence,flow.Sequence,4_63,2023-10-31T02:30:47.802Z,,0,,,2747,completion,,,,,false,,,,361608,361608,358845,358832,358861,361650,8,400,,,
trial,html.Screen,4_64_0,2023-10-31T02:30:50.913Z,,0,2,,3086,response,ISIC_5157799.JPG,6,ISIC_0024265.JPG,ISIC_5157799.JPG,false,1,keypress(m),500,364720,364719,361633,361609,361650,364749,8,400,15,,ISIC_0024265.JPG
break,html.Screen,4_64_1,2023-10-31T02:30:50.914Z,,0,,,NaN,,,,,,false,,,,364720,364720,,364720,,364749,8,400,,,
break_continue,html.Screen,4_64_2,2023-10-31T02:30:50.914Z,,0,,,NaN,,,,,,false,,,,364721,364721,,364720,,364749,8,400,,,
sequence,flow.Sequence,4_64,2023-10-31T02:30:50.914Z,,0,,,3071,completion,,,,,false,,,,364721,364721,361633,361609,361650,364749,8,400,,,
trial,html.Screen,4_65_0,2023-10-31T02:30:53.990Z,,0,2,,3063,response,ISIC_2663597.JPG,13,ISIC_4794052.JPG,ISIC_4794052.JPG,false,0,keypress(z),500,367796,367796,364733,364721,364749,367838,8,400,16,,ISIC_2663597.JPG
break,html.Screen,4_65_1,2023-10-31T02:30:53.990Z,,0,,,NaN,,,,,,false,,,,367797,367797,,367797,,367838,8,400,,,
break_continue,html.Screen,4_65_2,2023-10-31T02:30:53.991Z,,0,,,NaN,,,,,,false,,,,367798,367798,,367797,,367838,8,400,,,
sequence,flow.Sequence,4_65,2023-10-31T02:30:53.991Z,,0,,,3049,completion,,,,,false,,,,367798,367798,364733,364721,364749,367838,8,400,,,
trial,html.Screen,4_66_0,2023-10-31T02:30:57.137Z,,0,2,,3122,response,ISIC_3310364.JPG,4,ISIC_5959795.JPG,ISIC_3310364.JPG,false,1,keypress(m),500,370944,370943,367821,367798,367838,370971,8,400,17,,ISIC_5959795.JPG
break,html.Screen,4_66_1,2023-10-31T02:30:57.137Z,,0,,,NaN,,,,,,false,,,,370944,370944,,370944,,370971,8,400,,,
break_continue,html.Screen,4_66_2,2023-10-31T02:30:57.138Z,,0,,,NaN,,,,,,false,,,,370945,370945,,370945,,370971,8,400,,,
sequence,flow.Sequence,4_66,2023-10-31T02:30:57.138Z,,0,,,3107,completion,,,,,false,,,,370945,370945,367821,367798,367838,370971,8,400,,,
trial,html.Screen,4_67_0,2023-10-31T02:30:59.998Z,,0,2,,2851,response,ISIC_0070419.JPG,8,ISIC_0033500.JPG,ISIC_0070419.JPG,false,1,keypress(m),500,373805,373805,370954,370945,370971,373844,8,400,18,,ISIC_0033500.JPG
break,html.Screen,4_67_1,2023-10-31T02:30:59.999Z,,0,,,NaN,,,,,,false,,,,373806,373806,,373805,,373844,8,400,,,
break_continue,html.Screen,4_67_2,2023-10-31T02:31:00.000Z,,0,,,NaN,,,,,,false,,,,373807,373807,,373806,,373844,8,400,,,
sequence,flow.Sequence,4_67,2023-10-31T02:31:00.000Z,,0,,,2836,completion,,,,,false,,,,373807,373807,370954,370945,370971,373844,8,400,,,
trial,html.Screen,4_68_0,2023-10-31T02:31:02.958Z,,0,2,,2938,response,ISIC_6991849.JPG,5,ISIC_0013813.JPG,ISIC_0013813.JPG,false,0,keypress(z),500,376765,376765,373827,373807,373844,376794,8,400,19,,ISIC_6991849.JPG
break,html.Screen,4_68_1,2023-10-31T02:31:02.958Z,,0,,,NaN,,,,,,false,,,,376766,376765,,376765,,376794,8,400,,,
break_continue,html.Screen,4_68_2,2023-10-31T02:31:02.959Z,,0,,,NaN,,,,,,false,,,,376766,376766,,376766,,376794,8,400,,,
sequence,flow.Sequence,4_68,2023-10-31T02:31:02.959Z,,0,,,2922,completion,,,,,false,,,,376766,376766,373827,373807,373844,376794,8,400,,,
trial,html.Screen,4_69_0,2023-10-31T02:31:05.851Z,,0,2,,2879,response,ISIC_8693637.JPG,9,ISIC_0000860.JPG,ISIC_8693637.JPG,false,1,keypress(m),500,379658,379657,376778,376766,376794,379700,8,400,20,,ISIC_0000860.JPG
break,html.Screen,4_69_1,2023-10-31T02:31:05.852Z,,0,,,NaN,,,,,,false,,,,379659,379659,,379658,,379700,8,400,,,
break_continue,html.Screen,4_69_2,2023-10-31T02:31:05.852Z,,0,,,NaN,,,,,,false,,,,379660,379660,,379659,,379700,8,400,,,
sequence,flow.Sequence,4_69,2023-10-31T02:31:05.853Z,,0,,,2866,completion,,,,,false,,,,379660,379660,376778,376766,376794,379700,8,400,,,
trial,html.Screen,4_70_0,2023-10-31T02:31:10.023Z,,0,2,,4147,response,ISIC_9509813.JPG,7,ISIC_0072569.JPG,ISIC_9509813.JPG,false,1,keypress(m),500,383831,383831,379684,379660,379700,383855,8,400,21,,ISIC_0072569.JPG
break,html.Screen,4_70_1,2023-10-31T02:31:10.024Z,,0,,,NaN,,,,,,false,,,,383832,383831,,383831,,383855,8,400,,,
break_continue,html.Screen,4_70_2,2023-10-31T02:31:10.024Z,,0,,,NaN,,,,,,false,,,,383832,383832,,383832,,383855,8,400,,,
sequence,flow.Sequence,4_70,2023-10-31T02:31:10.025Z,,0,,,4132,completion,,,,,false,,,,383832,383832,379684,379660,379700,383855,8,400,,,
trial,html.Screen,4_71_0,2023-10-31T02:31:13.529Z,,0,2,,3499,response,ISIC_8241457.JPG,2,ISIC_0065537.JPG,ISIC_0065537.JPG,false,0,keypress(z),500,387337,387337,383838,383832,383855,387370,8,400,22,,ISIC_8241457.JPG
break,html.Screen,4_71_1,2023-10-31T02:31:13.530Z,,0,,,NaN,,,,,,false,,,,387338,387337,,387337,,387370,8,400,,,
break_continue,html.Screen,4_71_2,2023-10-31T02:31:13.530Z,,0,,,NaN,,,,,,false,,,,387338,387338,,387338,,387370,8,400,,,
sequence,flow.Sequence,4_71,2023-10-31T02:31:13.530Z,,0,,,3483,completion,,,,,false,,,,387338,387338,383838,383832,383855,387370,8,400,,,
trial,html.Screen,4_72_0,2023-10-31T02:31:16.383Z,,0,2,,2837.000000000058,response,ISIC_5580000.JPG,5,ISIC_0027406.JPG,ISIC_0027406.JPG,false,0,keypress(z),500,390191.00000000006,390191.00000000006,387354,387338,387370,390226,8,400,23,,ISIC_5580000.JPG
break,html.Screen,4_72_1,2023-10-31T02:31:16.384Z,,0,,,NaN,,,,,,false,,,,390192,390192,,390191.00000000006,,390226,8,400,,,
break_continue,html.Screen,4_72_2,2023-10-31T02:31:16.384Z,,0,,,NaN,,,,,,false,,,,390192,390192,,390192,,390226,8,400,,,
sequence,flow.Sequence,4_72,2023-10-31T02:31:16.384Z,,0,,,2822,completion,,,,,false,,,,390192,390192,387354,387338,387370,390226,8,400,,,
trial,html.Screen,4_73_0,2023-10-31T02:31:19.412Z,,0,2,,3009,response,ISIC_5857303.JPG,7,ISIC_0058418.JPG,ISIC_5857303.JPG,false,1,keypress(m),500,393220,393219,390210,390192,390226,393260,8,400,24,,ISIC_0058418.JPG
break,html.Screen,4_73_1,2023-10-31T02:31:19.413Z,,0,,,NaN,,,,,,false,,,,393221,393220,,393220,,393260,8,400,,,
break_continue,html.Screen,4_73_2,2023-10-31T02:31:19.413Z,,0,,,NaN,,,,,,false,,,,393221,393221,,393221,,393260,8,400,,,
sequence,flow.Sequence,4_73,2023-10-31T02:31:19.413Z,,0,,,2995,completion,,,,,false,,,,393221,393221,390210,390192,390226,393260,8,400,,,
trial,html.Screen,4_74_0,2023-10-31T02:31:22.334Z,,0,2,,2898,response,ISIC_9214649.JPG,7,ISIC_5793600.JPG,ISIC_5793600.JPG,false,0,keypress(z),500,396142,396142,393244,393221,393260,396183,8,400,25,,ISIC_9214649.JPG
break,html.Screen,4_74_1,2023-10-31T02:31:22.335Z,,0,,,NaN,,,,,,false,,,,396143,396143,,396142,,396183,8,400,,,
break_continue,html.Screen,4_74_2,2023-10-31T02:31:22.335Z,,0,,,NaN,,,,,,false,,,,396143,396143,,396143,,396183,8,400,,,
sequence,flow.Sequence,4_74,2023-10-31T02:31:22.335Z,,0,,,2883,completion,,,,,false,,,,396144,396143,393244,393221,393260,396183,8,400,,,
trial,html.Screen,4_75_0,2023-10-31T02:31:25.150Z,,0,2,,2793,response,ISIC_7097931.JPG,4,ISIC_0033636.JPG,ISIC_7097931.JPG,false,1,keypress(m),500,398958,398958,396165,396144,396183,398999,8,400,26,,ISIC_0033636.JPG
break,html.Screen,4_75_1,2023-10-31T02:31:25.151Z,,0,,,NaN,,,,,,false,,,,398959,398959,,398959,,398999,8,400,,,
break_continue,html.Screen,4_75_2,2023-10-31T02:31:25.151Z,,0,,,NaN,,,,,,false,,,,398960.00000000006,398959,,398959,,398999,8,400,,,
sequence,flow.Sequence,4_75,2023-10-31T02:31:25.151Z,,0,,,2776,completion,,,,,false,,,,398960.00000000006,398959,396165,396144,396183,398999,8,400,,,
trial,html.Screen,4_76_0,2023-10-31T02:31:28.132Z,,0,2,,2957,response,ISIC_0031742.JPG,11,ISIC_2366172.JPG,ISIC_2366172.JPG,false,0,keypress(z),500,401941.00000000006,401940,398983,398960.00000000006,398999,401972,8,400,27,,ISIC_0031742.JPG
break,html.Screen,4_76_1,2023-10-31T02:31:28.133Z,,0,,,NaN,,,,,,false,,,,401941.00000000006,401941.00000000006,,401941.00000000006,,401972,8,400,,,
break_continue,html.Screen,4_76_2,2023-10-31T02:31:28.133Z,,0,,,NaN,,,,,,false,,,,401941.00000000006,401941.00000000006,,401941.00000000006,,401972,8,400,,,
sequence,flow.Sequence,4_76,2023-10-31T02:31:28.133Z,,0,,,2942.000000000058,completion,,,,,false,,,,401942,401941.00000000006,398983,398960.00000000006,398999,401972,8,400,,,
trial,html.Screen,4_77_0,2023-10-31T02:31:30.990Z,,0,2,,2843,response,ISIC_0011863.JPG,13,ISIC_7183212.JPG,ISIC_7183212.JPG,false,0,keypress(z),500,404799.00000000006,404798,401955,401942,401972,404838,8,400,28,,ISIC_0011863.JPG
break,html.Screen,4_77_1,2023-10-31T02:31:30.991Z,,0,,,NaN,,,,,,false,,,,404799.00000000006,404799.00000000006,,404799.00000000006,,404838,8,400,,,
break_continue,html.Screen,4_77_2,2023-10-31T02:31:30.991Z,,0,,,NaN,,,,,,false,,,,404800,404800,,404800,,404838,8,400,,,
sequence,flow.Sequence,4_77,2023-10-31T02:31:30.991Z,,0,,,2828,completion,,,,,false,,,,404800,404800,401955,401942,401972,404838,8,400,,,
trial,html.Screen,4_78_0,2023-10-31T02:31:33.678Z,,0,2,,2666,response,ISIC_0034092.JPG,9,ISIC_0032547.JPG,ISIC_0034092.JPG,false,1,keypress(m),500,407487,407487,404821,404800,404838,407527,8,400,29,,ISIC_0032547.JPG
break,html.Screen,4_78_1,2023-10-31T02:31:33.679Z,,0,,,NaN,,,,,,false,,,,407488,407487,,407487,,407527,8,400,,,
break_continue,html.Screen,4_78_2,2023-10-31T02:31:33.679Z,,0,,,NaN,,,,,,false,,,,407488,407488,,407488,,407527,8,400,,,
sequence,flow.Sequence,4_78,2023-10-31T02:31:33.679Z,,0,,,2650,completion,,,,,false,,,,407488,407488,404821,404800,404838,407527,8,400,,,
trial,html.Screen,4_79_0,2023-10-31T02:31:36.491Z,,0,2,,2788.000000000058,response,ISIC_9544832.JPG,5,ISIC_3303825.JPG,ISIC_3303825.JPG,false,0,keypress(z),500,410300,410299.00000000006,407511,407488,407527,410327,8,400,30,,ISIC_9544832.JPG
break,html.Screen,4_79_1,2023-10-31T02:31:36.492Z,,0,,,NaN,,,,,,false,,,,410300,410300,,410300,,410327,8,400,,,
break_continue,html.Screen,4_79_2,2023-10-31T02:31:36.492Z,,0,,,NaN,,,,,,false,,,,410301,410301,,410301,,410327,8,400,,,
sequence,flow.Sequence,4_79,2023-10-31T02:31:36.492Z,,0,,,2774,completion,,,,,false,,,,410301,410301,407511,407488,407527,410327,8,400,,,
trial,html.Screen,4_80_0,2023-10-31T02:31:39.149Z,,0,2,,2647,response,ISIC_0011988.JPG,10,ISIC_0057374.JPG,ISIC_0057374.JPG,false,0,keypress(z),500,412958,412958,410311,410301,410327,413000,8,400,31,,ISIC_0011988.JPG
break,html.Screen,4_80_1,2023-10-31T02:31:39.150Z,,0,,,NaN,,,,,,false,,,,412959,412958,,412958,,413000,8,400,,,
break_continue,html.Screen,4_80_2,2023-10-31T02:31:39.150Z,,0,,,NaN,,,,,,false,,,,412959,412959,,412959,,413000,8,400,,,
sequence,flow.Sequence,4_80,2023-10-31T02:31:39.150Z,,0,,,2632,completion,,,,,false,,,,412959,412959,410311,410301,410327,413000,8,400,,,
trial,html.Screen,4_81_0,2023-10-31T02:31:41.756Z,,0,2,,2582,response,ISIC_0010782.JPG,8,ISIC_3440004.JPG,ISIC_3440004.JPG,false,0,keypress(z),500,415565,415565,412983,412959,413000,415601,8,400,32,,ISIC_0010782.JPG
break,html.Screen,4_81_1,2023-10-31T02:31:41.757Z,,0,,,NaN,,,,,,false,,,,415566.00000000006,415566.00000000006,,415566.00000000006,,415601,8,400,,,
break_continue,html.Screen,4_81_2,2023-10-31T02:31:41.758Z,,0,,,NaN,,,,,,false,,,,415567,415567,,415567,,415601,8,400,,,
sequence,flow.Sequence,4_81,2023-10-31T02:31:41.758Z,,0,,,2567,completion,,,,,false,,,,415567,415567,412983,412959,413000,415601,8,400,,,
trial,html.Screen,4_82_0,2023-10-31T02:31:44.999Z,,0,2,,3225,response,ISIC_0011508.JPG,5,ISIC_0032419.JPG,ISIC_0032419.JPG,false,0,keypress(z),500,418809,418808,415583,415567,415601,418839,8,400,33,,ISIC_0011508.JPG
break,html.Screen,4_82_1,2023-10-31T02:31:45.000Z,,0,,,NaN,,,,,,false,,,,418810,418809,,418809,,418839,8,400,,,
break_continue,html.Screen,4_82_2,2023-10-31T02:31:45.001Z,,0,,,NaN,,,,,,false,,,,418810,418810,,418810,,418839,8,400,,,
sequence,flow.Sequence,4_82,2023-10-31T02:31:45.001Z,,0,,,3209,completion,,,,,false,,,,418810,418810,415583,415567,415601,418839,8,400,,,
trial,html.Screen,4_83_0,2023-10-31T02:31:47.795Z,,0,2,,2781,response,ISIC_6515546.JPG,11,ISIC_4232761.JPG,ISIC_6515546.JPG,false,1,keypress(m),500,421604,421604,418823,418810,418839,421639,8,400,34,,ISIC_4232761.JPG
break,html.Screen,4_83_1,2023-10-31T02:31:47.796Z,,0,,,NaN,,,,,,false,,,,421605,421605,,421605,,421639,8,400,,,
break_continue,html.Screen,4_83_2,2023-10-31T02:31:47.796Z,,0,,,NaN,,,,,,false,,,,421606,421606,,421606,,421639,8,400,,,
sequence,flow.Sequence,4_83,2023-10-31T02:31:47.796Z,,0,,,2767,completion,,,,,false,,,,421606,421606,418823,418810,418839,421639,8,400,,,
trial,html.Screen,4_84_0,2023-10-31T02:31:50.517Z,,0,2,,2703,response,ISIC_8543040.JPG,6,ISIC_8967786.JPG,ISIC_8967786.JPG,false,0,keypress(z),500,424327,424326,421623,421606,421639,424362,8,400,35,,ISIC_8543040.JPG
break,html.Screen,4_84_1,2023-10-31T02:31:50.518Z,,0,,,NaN,,,,,,false,,,,424328.00000000006,424327,,424327,,424362,8,400,,,
break_continue,html.Screen,4_84_2,2023-10-31T02:31:50.518Z,,0,,,NaN,,,,,,false,,,,424328.00000000006,424328.00000000006,,424328.00000000006,,424362,8,400,,,
sequence,flow.Sequence,4_84,2023-10-31T02:31:50.518Z,,0,,,2689.000000000058,completion,,,,,false,,,,424328.00000000006,424328.00000000006,421623,421606,421639,424362,8,400,,,
trial,html.Screen,4_85_0,2023-10-31T02:31:53.368Z,,0,2,,2831,response,ISIC_0000087.JPG,17,ISIC_0032783.JPG,ISIC_0000087.JPG,false,1,keypress(m),500,427178,427177,424346,424328.00000000006,424362,427217,8,400,36,,ISIC_0032783.JPG
break,html.Screen,4_85_1,2023-10-31T02:31:53.369Z,,0,,,NaN,,,,,,false,,,,427179.00000000006,427178,,427178,,427217,8,400,,,
break_continue,html.Screen,4_85_2,2023-10-31T02:31:53.369Z,,0,,,NaN,,,,,,false,,,,427179.00000000006,427179.00000000006,,427179.00000000006,,427217,8,400,,,
sequence,flow.Sequence,4_85,2023-10-31T02:31:53.369Z,,0,,,2817.000000000058,completion,,,,,false,,,,427179.00000000006,427179.00000000006,424346,424328.00000000006,424362,427217,8,400,,,
trial,html.Screen,4_86_0,2023-10-31T02:31:58.064Z,,0,2,,4673,response,ISIC_0070588.JPG,12,ISIC_0060659.JPG,ISIC_0070588.JPG,false,1,keypress(m),500,431874,431873,427200,427179.00000000006,427217,431900,8,400,37,,ISIC_0060659.JPG
break,html.Screen,4_86_1,2023-10-31T02:31:58.064Z,,0,,,NaN,,,,,,false,,,,431874,431874,,431874,,431900,8,400,,,
break_continue,html.Screen,4_86_2,2023-10-31T02:31:58.064Z,,0,,,NaN,,,,,,false,,,,431874,431874,,431874,,431900,8,400,,,
sequence,flow.Sequence,4_86,2023-10-31T02:31:58.065Z,,0,,,4657,completion,,,,,false,,,,431874,431874,427200,427179.00000000006,427217,431900,8,400,,,
trial,html.Screen,4_87_0,2023-10-31T02:32:01.175Z,,0,2,,3101,response,ISIC_1366765.JPG,13,ISIC_7693611.JPG,ISIC_7693611.JPG,false,0,keypress(z),500,434985,434985,431884,431875,431900,435024,8,400,38,,ISIC_1366765.JPG
break,html.Screen,4_87_1,2023-10-31T02:32:01.176Z,,0,,,NaN,,,,,,false,,,,434986,434985,,434985,,435024,8,400,,,
break_continue,html.Screen,4_87_2,2023-10-31T02:32:01.176Z,,0,,,NaN,,,,,,false,,,,434986,434986,,434986,,435024,8,400,,,
sequence,flow.Sequence,4_87,2023-10-31T02:32:01.176Z,,0,,,3086,completion,,,,,false,,,,434986,434986,431884,431875,431900,435024,8,400,,,
trial,html.Screen,4_88_0,2023-10-31T02:32:03.839Z,,0,2,,2642,response,ISIC_9050608.JPG,8,ISIC_1382271.JPG,ISIC_9050608.JPG,false,1,keypress(m),500,437649,437649,435007,434986,435024,437679,8,400,39,,ISIC_1382271.JPG
break,html.Screen,4_88_1,2023-10-31T02:32:03.840Z,,0,,,NaN,,,,,,false,,,,437650.00000000006,437649,,437649,,437679,8,400,,,
break_continue,html.Screen,4_88_2,2023-10-31T02:32:03.840Z,,0,,,NaN,,,,,,false,,,,437650.00000000006,437650.00000000006,,437650.00000000006,,437679,8,400,,,
sequence,flow.Sequence,4_88,2023-10-31T02:32:03.840Z,,0,,,2626.000000000058,completion,,,,,false,,,,437650.00000000006,437650.00000000006,435007,434986,435024,437679,8,400,,,
trial,html.Screen,4_89_0,2023-10-31T02:32:06.477Z,,0,2,,2625.000000000058,response,ISIC_1342117.JPG,5,ISIC_0185918.JPG,ISIC_0185918.JPG,false,0,keypress(z),500,440287.00000000006,440287.00000000006,437662,437650.00000000006,437679,440329,8,400,40,,ISIC_1342117.JPG
break,html.Screen,4_89_1,2023-10-31T02:32:06.477Z,,0,,,NaN,,,,,,false,,,,440288,440287.00000000006,,440287.00000000006,,440329,8,400,,,
break_continue,html.Screen,4_89_2,2023-10-31T02:32:06.478Z,,0,,,NaN,,,,,,false,,,,440288,440288,,440288,,440329,8,400,,,
sequence,flow.Sequence,4_89,2023-10-31T02:32:06.478Z,,0,,,2609,completion,,,,,false,,,,440288,440288,437662,437650.00000000006,437679,440329,8,400,,,
trial,html.Screen,4_90_0,2023-10-31T02:32:09.286Z,,0,2,,2784,response,ISIC_5157775.JPG,6,ISIC_0027585.JPG,ISIC_5157775.JPG,false,1,keypress(m),500,443097.00000000006,443096,440312,440288,440329,443132,8,400,41,,ISIC_0027585.JPG
break,html.Screen,4_90_1,2023-10-31T02:32:09.287Z,,0,,,NaN,,,,,,false,,,,443098,443097.00000000006,,443097.00000000006,,443132,8,400,,,
break_continue,html.Screen,4_90_2,2023-10-31T02:32:09.288Z,,0,,,NaN,,,,,,false,,,,443098,443098,,443098,,443132,8,400,,,
sequence,flow.Sequence,4_90,2023-10-31T02:32:09.288Z,,0,,,2769,completion,,,,,false,,,,443098,443098,440312,440288,440329,443132,8,400,,,
trial,html.Screen,4_91_0,2023-10-31T02:32:11.964Z,,0,2,,2658,response,ISIC_0016123.JPG,1,ISIC_1241817.JPG,ISIC_1241817.JPG,false,0,keypress(z),500,445774,445774,443116,443098,443132,445816,8,400,42,,ISIC_0016123.JPG
break,html.Screen,4_91_1,2023-10-31T02:32:11.965Z,,0,,,NaN,,,,,,false,,,,445775.00000000006,445775.00000000006,,445774,,445816,8,400,,,
break_continue,html.Screen,4_91_2,2023-10-31T02:32:11.965Z,,0,,,NaN,,,,,,false,,,,445775.00000000006,445775.00000000006,,445775.00000000006,,445816,8,400,,,
sequence,flow.Sequence,4_91,2023-10-31T02:32:11.965Z,,0,,,2643.000000000058,completion,,,,,false,,,,445776,445775.00000000006,443116,443098,443132,445816,8,400,,,
trial,html.Screen,4_92_0,2023-10-31T02:32:14.860Z,,0,2,,2872,response,ISIC_0030910.JPG,15,ISIC_0610849.JPG,ISIC_0610849.JPG,false,0,keypress(z),500,448671,448670,445798,445776,445816,448704,8,400,43,,ISIC_0030910.JPG
break,html.Screen,4_92_1,2023-10-31T02:32:14.861Z,,0,,,NaN,,,,,,false,,,,448671,448671,,448671,,448704,8,400,,,
break_continue,html.Screen,4_92_2,2023-10-31T02:32:14.861Z,,0,,,NaN,,,,,,false,,,,448672,448672,,448672,,448704,8,400,,,
sequence,flow.Sequence,4_92,2023-10-31T02:32:14.861Z,,0,,,2856,completion,,,,,false,,,,448672,448672,445798,445776,445816,448704,8,400,,,
trial,html.Screen,4_93_0,2023-10-31T02:32:17.620Z,,0,2,,2742.000000000058,response,ISIC_0010411.JPG,7,ISIC_0024585.JPG,ISIC_0024585.JPG,false,0,keypress(z),500,451430,451429.00000000006,448687,448672,448704,451470,8,400,44,,ISIC_0010411.JPG
break,html.Screen,4_93_1,2023-10-31T02:32:17.621Z,,0,,,NaN,,,,,,false,,,,451432,451431,,451431,,451470,8,400,,,
break_continue,html.Screen,4_93_2,2023-10-31T02:32:17.621Z,,0,,,NaN,,,,,,false,,,,451432,451432,,451432,,451470,8,400,,,
sequence,flow.Sequence,4_93,2023-10-31T02:32:17.622Z,,0,,,2728,completion,,,,,false,,,,451432,451432,448687,448672,448704,451470,8,400,,,
trial,html.Screen,4_94_0,2023-10-31T02:32:20.689Z,,0,2,,3046,response,ISIC_3323866.JPG,11,ISIC_0059411.JPG,ISIC_3323866.JPG,false,1,keypress(m),500,454500,454500,451454,451433,451470,454542,8,400,45,,ISIC_0059411.JPG
break,html.Screen,4_94_1,2023-10-31T02:32:20.690Z,,0,,,NaN,,,,,,false,,,,454501.00000000006,454501.00000000006,,454501.00000000006,,454542,8,400,,,
break_continue,html.Screen,4_94_2,2023-10-31T02:32:20.690Z,,0,,,NaN,,,,,,false,,,,454501.00000000006,454501.00000000006,,454501.00000000006,,454542,8,400,,,
sequence,flow.Sequence,4_94,2023-10-31T02:32:20.690Z,,0,,,3031.000000000058,completion,,,,,false,,,,454501.00000000006,454501.00000000006,451454,451433,451470,454542,8,400,,,
trial,html.Screen,4_95_0,2023-10-31T02:32:23.376Z,,0,2,,2661.000000000058,response,ISIC_0028986.JPG,7,ISIC_0031543.JPG,ISIC_0028986.JPG,false,1,keypress(m),500,457187,457186.00000000006,454525,454502,454542,457225,8,400,46,,ISIC_0031543.JPG
break,html.Screen,4_95_1,2023-10-31T02:32:23.376Z,,0,,,NaN,,,,,,false,,,,457188,457187,,457187,,457225,8,400,,,
break_continue,html.Screen,4_95_2,2023-10-31T02:32:23.377Z,,0,,,NaN,,,,,,false,,,,457188,457188,,457188,,457225,8,400,,,
sequence,flow.Sequence,4_95,2023-10-31T02:32:23.377Z,,0,,,2646,completion,,,,,false,,,,457188,457188,454525,454501.00000000006,454542,457225,8,400,,,
trial,html.Screen,4_96_0,2023-10-31T02:32:26.017Z,,0,2,,2619.000000000058,response,ISIC_0000087.JPG,8,ISIC_0027408.JPG,ISIC_0027408.JPG,false,0,keypress(z),500,459828.00000000006,459828.00000000006,457209,457188,457225,459862,8,400,47,,ISIC_0000087.JPG
break,html.Screen,4_96_1,2023-10-31T02:32:26.017Z,,0,,,NaN,,,,,,false,,,,459829,459828.00000000006,,459828.00000000006,,459862,8,400,,,
break_continue,html.Screen,4_96_2,2023-10-31T02:32:26.018Z,,0,,,NaN,,,,,,false,,,,459829,459829,,459829,,459862,8,400,,,
sequence,flow.Sequence,4_96,2023-10-31T02:32:26.018Z,,0,,,2604,completion,,,,,false,,,,459829,459829,457209,457188,457225,459862,8,400,,,
trial,html.Screen,4_97_0,2023-10-31T02:32:28.822Z,,0,2,,2785,response,ISIC_7353400.JPG,9,ISIC_0008768.JPG,ISIC_0008768.JPG,false,0,keypress(z),500,462633,462632,459847,459829,459862,462662,8,400,48,,ISIC_7353400.JPG
break,html.Screen,4_97_1,2023-10-31T02:32:28.822Z,,0,,,NaN,,,,,,false,,,,462634,462633,,462633,,462662,8,400,,,
break_continue,html.Screen,4_97_2,2023-10-31T02:32:28.823Z,,0,,,NaN,,,,,,false,,,,462634,462634,,462634,,462662,8,400,,,
sequence,flow.Sequence,4_97,2023-10-31T02:32:28.823Z,,0,,,2772,completion,,,,,false,,,,462634,462634,459847,459829,459862,462662,8,400,,,
trial,html.Screen,4_98_0,2023-10-31T02:32:31.479Z,,0,2,,2644,response,ISIC_0944273.JPG,9,ISIC_1720856.JPG,ISIC_1720856.JPG,false,0,keypress(z),500,465291,465290,462646,462634,462662,465318,8,400,49,,ISIC_0944273.JPG
break,html.Screen,4_98_1,2023-10-31T02:32:31.480Z,,0,,,NaN,,,,,,false,,,,465291,465291,,465291,,465318,8,400,,,
break_continue,html.Screen,4_98_2,2023-10-31T02:32:31.480Z,,0,,,NaN,,,,,,false,,,,465292.00000000006,465292.00000000006,,465291,,465318,8,400,,,
sequence,flow.Sequence,4_98,2023-10-31T02:32:31.480Z,,0,,,2630.000000000058,completion,,,,,false,,,,465292.00000000006,465292.00000000006,462646,462634,462662,465318,8,400,,,
trial,html.Screen,4_99_0,2023-10-31T02:32:34.606Z,,0,2,,3116.000000000058,response,ISIC_6370597.JPG,11,ISIC_0032939.JPG,ISIC_0032939.JPG,false,0,keypress(z),500,468417.00000000006,468417.00000000006,465301,465292.00000000006,465318,468450,8,400,50,,ISIC_6370597.JPG
break,html.Screen,4_99_1,2023-10-31T02:32:44.622Z,,0,,,9999,timeout,,,,,false,,,,478434,478433,468434,468417.00000000006,468450,478449,8,400,,,
break_continue,html.Screen,4_99_2,2023-10-31T02:32:45.335Z,,0,,,740,response,,,,,false,continue,keypress(Space),,479147,479173,478433,478435,478449,479182,8,400,,,
sequence,flow.Sequence,4_99,2023-10-31T02:32:45.335Z,,0,,,13855,completion,,,,,false,,,,479147,479173,465301,465292.00000000006,465318,479182,8,400,,,
trial,html.Screen,4_100_0,2023-10-31T02:32:48.245Z,,0,3,,2891,response,ISIC_0033569.JPG,11,ISIC_0014891.JPG,ISIC_0014891.JPG,false,0,keypress(z),500,482057,482057,479166,479148,479182,482097,8,400,1,,ISIC_0033569.JPG
break,html.Screen,4_100_1,2023-10-31T02:32:48.245Z,,0,,,NaN,,,,,,false,,,,482058,482058,,482057,,482097,8,400,,,
break_continue,html.Screen,4_100_2,2023-10-31T02:32:48.246Z,,0,,,NaN,,,,,,false,,,,482058,482058,,482058,,482097,8,400,,,
sequence,flow.Sequence,4_100,2023-10-31T02:32:48.246Z,,0,,,2876,completion,,,,,false,,,,482059,482058,479166,479148,479182,482097,8,400,,,
trial,html.Screen,4_101_0,2023-10-31T02:32:50.825Z,,0,3,,2557,response,ISIC_9815788.JPG,4,ISIC_0057180.JPG,ISIC_9815788.JPG,false,1,keypress(m),500,484637,484637,482080,482059,482097,484680,8,400,2,,ISIC_0057180.JPG
break,html.Screen,4_101_1,2023-10-31T02:32:50.826Z,,0,,,NaN,,,,,,false,,,,484638.00000000006,484638.00000000006,,484638.00000000006,,484680,8,400,,,
break_continue,html.Screen,4_101_2,2023-10-31T02:32:50.826Z,,0,,,NaN,,,,,,false,,,,484639,484638.00000000006,,484638.00000000006,,484680,8,400,,,
sequence,flow.Sequence,4_101,2023-10-31T02:32:50.826Z,,0,,,2541.000000000058,completion,,,,,false,,,,484639,484638.00000000006,482080,482059,482097,484680,8,400,,,
trial,html.Screen,4_102_0,2023-10-31T02:32:53.447Z,,0,3,,2595,response,ISIC_0032019.JPG,10,ISIC_8821700.JPG,ISIC_8821700.JPG,false,0,keypress(z),500,487260,487259,484664,484639,484680,487302,8,400,3,,ISIC_0032019.JPG
break,html.Screen,4_102_1,2023-10-31T02:32:53.448Z,,0,,,NaN,,,,,,false,,,,487261,487261,,487260,,487302,8,400,,,
break_continue,html.Screen,4_102_2,2023-10-31T02:32:53.449Z,,0,,,NaN,,,,,,false,,,,487261,487261,,487261,,487302,8,400,,,
sequence,flow.Sequence,4_102,2023-10-31T02:32:53.449Z,,0,,,2581,completion,,,,,false,,,,487262,487261,484664,484639,484680,487302,8,400,,,
trial,html.Screen,4_103_0,2023-10-31T02:32:56.148Z,,0,3,,2675,response,ISIC_0728350.JPG,8,ISIC_1440063.JPG,ISIC_1440063.JPG,false,0,keypress(z),500,489961,489961,487286,487262,487302,490003,8,400,4,,ISIC_0728350.JPG
break,html.Screen,4_103_1,2023-10-31T02:32:56.149Z,,0,,,NaN,,,,,,false,,,,489962,489961,,489961,,490003,8,400,,,
break_continue,html.Screen,4_103_2,2023-10-31T02:32:56.149Z,,0,,,NaN,,,,,,false,,,,489962,489962,,489962,,490003,8,400,,,
sequence,flow.Sequence,4_103,2023-10-31T02:32:56.149Z,,0,,,2660,completion,,,,,false,,,,489962,489962,487286,487262,487302,490003,8,400,,,
trial,html.Screen,4_104_0,2023-10-31T02:32:58.794Z,,0,3,,2620,response,ISIC_3505339.JPG,11,ISIC_8154363.JPG,ISIC_3505339.JPG,false,1,keypress(m),500,492606,492606,489986,489962,490003,492642,8,400,5,,ISIC_8154363.JPG
break,html.Screen,4_104_1,2023-10-31T02:32:58.794Z,,0,,,NaN,,,,,,false,,,,492607,492607,,492607,,492642,8,400,,,
break_continue,html.Screen,4_104_2,2023-10-31T02:32:58.795Z,,0,,,NaN,,,,,,false,,,,492607,492607,,492607,,492642,8,400,,,
sequence,flow.Sequence,4_104,2023-10-31T02:32:58.795Z,,0,,,2604,completion,,,,,false,,,,492608,492607,489986,489962,490003,492642,8,400,,,
trial,html.Screen,4_105_0,2023-10-31T02:33:01.246Z,,0,3,,2434,response,ISIC_0055311.JPG,3,ISIC_0067274.JPG,ISIC_0067274.JPG,false,0,keypress(z),500,495059,495059,492625,492608,492642,495091,8,400,6,,ISIC_0055311.JPG
break,html.Screen,4_105_1,2023-10-31T02:33:01.247Z,,0,,,NaN,,,,,,false,,,,495060,495060,,495059,,495091,8,400,,,
break_continue,html.Screen,4_105_2,2023-10-31T02:33:01.247Z,,0,,,NaN,,,,,,false,,,,495060,495060,,495060,,495091,8,400,,,
sequence,flow.Sequence,4_105,2023-10-31T02:33:01.247Z,,0,,,2418,completion,,,,,false,,,,495060,495060,492625,492608,492642,495091,8,400,,,
trial,html.Screen,4_106_0,2023-10-31T02:33:03.901Z,,0,3,,2639,response,ISIC_3440813.JPG,5,ISIC_5281762.JPG,ISIC_3440813.JPG,false,1,keypress(m),500,497714,497714,495075,495060,495091,497747,8,400,7,,ISIC_5281762.JPG
break,html.Screen,4_106_1,2023-10-31T02:33:03.903Z,,0,,,NaN,,,,,,false,,,,497716,497715.00000000006,,497715.00000000006,,497747,8,400,,,
break_continue,html.Screen,4_106_2,2023-10-31T02:33:03.903Z,,0,,,NaN,,,,,,false,,,,497716,497716,,497716,,497747,8,400,,,
sequence,flow.Sequence,4_106,2023-10-31T02:33:03.903Z,,0,,,2625,completion,,,,,false,,,,497716,497716,495075,495060,495091,497747,8,400,,,
trial,html.Screen,4_107_0,2023-10-31T02:33:06.454Z,,0,3,,2536,response,ISIC_0013232.JPG,6,ISIC_6157226.JPG,ISIC_0013232.JPG,false,1,keypress(m),500,500268,500267,497731,497716,497747,500298,8,400,8,,ISIC_6157226.JPG
break,html.Screen,4_107_1,2023-10-31T02:33:06.455Z,,0,,,NaN,,,,,,false,,,,500268,500268,,500268,,500298,8,400,,,
break_continue,html.Screen,4_107_2,2023-10-31T02:33:06.456Z,,0,,,NaN,,,,,,false,,,,500269,500269,,500269,,500298,8,400,,,
sequence,flow.Sequence,4_107,2023-10-31T02:33:06.456Z,,0,,,2522,completion,,,,,false,,,,500269,500269,497731,497716,497747,500298,8,400,,,
trial,html.Screen,4_108_0,2023-10-31T02:33:08.785Z,,0,3,,2316.000000000058,response,ISIC_5736979.JPG,11,ISIC_6577632.JPG,ISIC_6577632.JPG,false,0,keypress(z),500,502598,502597.00000000006,500281,500269,500298,502621,8,400,9,,ISIC_5736979.JPG
break,html.Screen,4_108_1,2023-10-31T02:33:08.786Z,,0,,,NaN,,,,,,false,,,,502599,502599,,502598,,502621,8,400,,,
break_continue,html.Screen,4_108_2,2023-10-31T02:33:08.786Z,,0,,,NaN,,,,,,false,,,,502600,502599,,502599,,502621,8,400,,,
sequence,flow.Sequence,4_108,2023-10-31T02:33:08.787Z,,0,,,2301,completion,,,,,false,,,,502600,502599,500281,500269,500298,502621,8,400,,,
trial,html.Screen,4_109_0,2023-10-31T02:33:11.425Z,,0,3,,2635,response,ISIC_9699238.JPG,12,ISIC_0014144.JPG,ISIC_0014144.JPG,false,0,keypress(z),500,505238,505238,502603,502600,502621,505270,8,400,10,,ISIC_9699238.JPG
break,html.Screen,4_109_1,2023-10-31T02:33:11.425Z,,0,,,NaN,,,,,,false,,,,505239.00000000006,505238,,505238,,505270,8,400,,,
break_continue,html.Screen,4_109_2,2023-10-31T02:33:11.425Z,,0,,,NaN,,,,,,false,,,,505239.00000000006,505239.00000000006,,505239.00000000006,,505270,8,400,,,
sequence,flow.Sequence,4_109,2023-10-31T02:33:11.426Z,,0,,,2618.000000000058,completion,,,,,false,,,,505239.00000000006,505239.00000000006,502603,502600,502621,505270,8,400,,,
trial,html.Screen,4_110_0,2023-10-31T02:33:14.110Z,,0,3,,2669,response,ISIC_9852341.JPG,5,ISIC_1308081.JPG,ISIC_9852341.JPG,false,1,keypress(m),500,507923,507923,505254,505239.00000000006,505270,507942,8,400,11,,ISIC_1308081.JPG
break,html.Screen,4_110_1,2023-10-31T02:33:14.110Z,,0,,,NaN,,,,,,false,,,,507924.00000000006,507924.00000000006,,507924.00000000006,,507942,8,400,,,
break_continue,html.Screen,4_110_2,2023-10-31T02:33:14.111Z,,0,,,NaN,,,,,,false,,,,507924.00000000006,507924.00000000006,,507924.00000000006,,507942,8,400,,,
sequence,flow.Sequence,4_110,2023-10-31T02:33:14.111Z,,0,,,2654.000000000058,completion,,,,,false,,,,507924.00000000006,507924.00000000006,505254,505239.00000000006,505270,507942,8,400,,,
trial,html.Screen,4_111_0,2023-10-31T02:33:16.491Z,,0,3,,2378.000000000058,response,ISIC_0014629.JPG,8,ISIC_5126638.JPG,ISIC_5126638.JPG,false,0,keypress(z),500,510305,510304.00000000006,507926,507924.00000000006,507942,510325,8,400,12,,ISIC_0014629.JPG
break,html.Screen,4_111_1,2023-10-31T02:33:16.492Z,,0,,,NaN,,,,,,false,,,,510305,510305,,510305,,510325,8,400,,,
break_continue,html.Screen,4_111_2,2023-10-31T02:33:16.492Z,,0,,,NaN,,,,,,false,,,,510305,510305,,510305,,510325,8,400,,,
sequence,flow.Sequence,4_111,2023-10-31T02:33:16.492Z,,0,,,2363,completion,,,,,false,,,,510306,510305,507926,507924.00000000006,507942,510325,8,400,,,
trial,html.Screen,4_112_0,2023-10-31T02:33:19.086Z,,0,3,,2591,response,ISIC_0032841.JPG,8,ISIC_2750230.JPG,ISIC_2750230.JPG,false,0,keypress(z),500,512900,512900,510309,510306,510325,512931,8,400,13,,ISIC_0032841.JPG
break,html.Screen,4_112_1,2023-10-31T02:33:19.087Z,,0,,,NaN,,,,,,false,,,,512901.00000000006,512901.00000000006,,512900,,512931,8,400,,,
break_continue,html.Screen,4_112_2,2023-10-31T02:33:19.087Z,,0,,,NaN,,,,,,false,,,,512901.00000000006,512901.00000000006,,512901.00000000006,,512931,8,400,,,
sequence,flow.Sequence,4_112,2023-10-31T02:33:19.088Z,,0,,,2576.000000000058,completion,,,,,false,,,,512901.00000000006,512901.00000000006,510309,510306,510325,512931,8,400,,,
trial,html.Screen,4_113_0,2023-10-31T02:33:21.733Z,,0,3,,2632,response,ISIC_2333274.JPG,7,ISIC_6111078.JPG,ISIC_6111078.JPG,false,0,keypress(z),500,515547,515547,512915,512902.00000000006,512931,515581,8,400,14,,ISIC_2333274.JPG
break,html.Screen,4_113_1,2023-10-31T02:33:21.734Z,,0,,,NaN,,,,,,false,,,,515548,515548,,515547,,515581,8,400,,,
break_continue,html.Screen,4_113_2,2023-10-31T02:33:21.734Z,,0,,,NaN,,,,,,false,,,,515548,515548,,515548,,515581,8,400,,,
sequence,flow.Sequence,4_113,2023-10-31T02:33:21.734Z,,0,,,2617,completion,,,,,false,,,,515548,515548,512915,512902.00000000006,512931,515581,8,400,,,
trial,html.Screen,4_114_0,2023-10-31T02:33:24.367Z,,0,3,,2617.000000000058,response,ISIC_1885174.JPG,5,ISIC_7181296.JPG,ISIC_7181296.JPG,false,0,keypress(z),500,518181.00000000006,518181.00000000006,515564,515548,515581,518203,8,400,15,,ISIC_1885174.JPG
break,html.Screen,4_114_1,2023-10-31T02:33:24.368Z,,0,,,NaN,,,,,,false,,,,518182,518182,,518181.00000000006,,518203,8,400,,,
break_continue,html.Screen,4_114_2,2023-10-31T02:33:24.368Z,,0,,,NaN,,,,,,false,,,,518182,518182,,518182,,518203,8,400,,,
sequence,flow.Sequence,4_114,2023-10-31T02:33:24.368Z,,0,,,2601,completion,,,,,false,,,,518182,518182,515564,515548,515581,518203,8,400,,,
trial,html.Screen,4_115_0,2023-10-31T02:33:27.303Z,,0,3,,2929,response,ISIC_2833213.JPG,4,ISIC_0057015.JPG,ISIC_2833213.JPG,false,1,keypress(m),500,521116.99999999994,521116,518187,518182,518203,521152,8,400,16,,ISIC_0057015.JPG
break,html.Screen,4_115_1,2023-10-31T02:33:27.304Z,,0,,,NaN,,,,,,false,,,,521118.00000000006,521116.99999999994,,521116.99999999994,,521152,8,400,,,
break_continue,html.Screen,4_115_2,2023-10-31T02:33:27.304Z,,0,,,NaN,,,,,,false,,,,521118.00000000006,521118.00000000006,,521118.00000000006,,521152,8,400,,,
sequence,flow.Sequence,4_115,2023-10-31T02:33:27.304Z,,0,,,2915.000000000058,completion,,,,,false,,,,521118.00000000006,521118.00000000006,518187,518182,518203,521152,8,400,,,
trial,html.Screen,4_116_0,2023-10-31T02:33:29.978Z,,0,3,,2655.000000000058,response,ISIC_4079108.JPG,6,ISIC_5396394.JPG,ISIC_4079108.JPG,false,1,keypress(m),500,523792.00000000006,523791.00000000006,521136,521118.00000000006,521152,523826,8,400,17,,ISIC_5396394.JPG
break,html.Screen,4_116_1,2023-10-31T02:33:29.979Z,,0,,,NaN,,,,,,false,,,,523793,523793,,523792.00000000006,,523826,8,400,,,
break_continue,html.Screen,4_116_2,2023-10-31T02:33:29.979Z,,0,,,NaN,,,,,,false,,,,523794,523793,,523793,,523826,8,400,,,
sequence,flow.Sequence,4_116,2023-10-31T02:33:29.980Z,,0,,,2641,completion,,,,,false,,,,523794,523793,521136,521118.00000000006,521152,523826,8,400,,,
trial,html.Screen,4_117_0,2023-10-31T02:33:32.607Z,,0,3,,2613,response,ISIC_0054021.JPG,7,ISIC_3737487.JPG,ISIC_3737487.JPG,false,0,keypress(z),500,526422,526421,523808,523794,523826,526459,8,400,18,,ISIC_0054021.JPG
break,html.Screen,4_117_1,2023-10-31T02:33:32.608Z,,0,,,NaN,,,,,,false,,,,526423,526422,,526422,,526459,8,400,,,
break_continue,html.Screen,4_117_2,2023-10-31T02:33:32.608Z,,0,,,NaN,,,,,,false,,,,526423,526423,,526423,,526459,8,400,,,
sequence,flow.Sequence,4_117,2023-10-31T02:33:32.609Z,,0,,,2597,completion,,,,,false,,,,526423,526423,523808,523794,523826,526459,8,400,,,
trial,html.Screen,4_118_0,2023-10-31T02:33:35.288Z,,0,3,,2661,response,ISIC_6416533.JPG,9,ISIC_0033272.JPG,ISIC_6416533.JPG,false,1,keypress(m),500,529103.0000000001,529102,526441,526423,526459,529131,8,400,19,,ISIC_0033272.JPG
break,html.Screen,4_118_1,2023-10-31T02:33:35.289Z,,0,,,NaN,,,,,,false,,,,529103.0000000001,529103.0000000001,,529103.0000000001,,529131,8,400,,,
break_continue,html.Screen,4_118_2,2023-10-31T02:33:35.289Z,,0,,,NaN,,,,,,false,,,,529104,529103.0000000001,,529103.0000000001,,529131,8,400,,,
sequence,flow.Sequence,4_118,2023-10-31T02:33:35.289Z,,0,,,2644.0000000001164,completion,,,,,false,,,,529104,529103.0000000001,526441,526423,526459,529131,8,400,,,
trial,html.Screen,4_119_0,2023-10-31T02:33:37.668Z,,0,3,,2367,response,ISIC_0067205.JPG,4,ISIC_0062864.JPG,ISIC_0062864.JPG,false,0,keypress(z),500,531483.0000000001,531482,529115,529104,529131,531515,8,400,20,,ISIC_0067205.JPG
break,html.Screen,4_119_1,2023-10-31T02:33:37.669Z,,0,,,NaN,,,,,,false,,,,531484,531483.0000000001,,531483.0000000001,,531515,8,400,,,
break_continue,html.Screen,4_119_2,2023-10-31T02:33:37.669Z,,0,,,NaN,,,,,,false,,,,531484,531484,,531484,,531515,8,400,,,
sequence,flow.Sequence,4_119,2023-10-31T02:33:37.669Z,,0,,,2353,completion,,,,,false,,,,531484,531484,529115,529104,529131,531515,8,400,,,
trial,html.Screen,4_120_0,2023-10-31T02:33:40.468Z,,0,3,,2785,response,ISIC_0029909.JPG,9,ISIC_8248922.JPG,ISIC_8248922.JPG,false,0,keypress(z),500,534283,534283,531498,531484,531515,534320,8,400,21,,ISIC_0029909.JPG
break,html.Screen,4_120_1,2023-10-31T02:33:40.469Z,,0,,,NaN,,,,,,false,,,,534284,534283,,534283,,534320,8,400,,,
break_continue,html.Screen,4_120_2,2023-10-31T02:33:40.469Z,,0,,,NaN,,,,,,false,,,,534284,534284,,534284,,534320,8,400,,,
sequence,flow.Sequence,4_120,2023-10-31T02:33:40.469Z,,0,,,2769,completion,,,,,false,,,,534284,534284,531498,531484,531515,534320,8,400,,,
trial,html.Screen,4_121_0,2023-10-31T02:33:42.908Z,,0,3,,2420,response,ISIC_0057858.JPG,5,ISIC_3016754.JPG,ISIC_3016754.JPG,false,0,keypress(z),500,536723,536723,534303,534284,534320,536754,8,400,22,,ISIC_0057858.JPG
break,html.Screen,4_121_1,2023-10-31T02:33:42.909Z,,0,,,NaN,,,,,,false,,,,536724,536723,,536723,,536754,8,400,,,
break_continue,html.Screen,4_121_2,2023-10-31T02:33:42.909Z,,0,,,NaN,,,,,,false,,,,536724,536724,,536724,,536754,8,400,,,
sequence,flow.Sequence,4_121,2023-10-31T02:33:42.909Z,,0,,,2404,completion,,,,,false,,,,536724,536724,534303,534284,534320,536754,8,400,,,
trial,html.Screen,4_122_0,2023-10-31T02:33:45.353Z,,0,3,,2431,response,ISIC_0025531.JPG,2,ISIC_0946787.JPG,ISIC_0946787.JPG,false,0,keypress(z),500,539168,539168,536737,536724,536754,539192,8,400,23,,ISIC_0025531.JPG
break,html.Screen,4_122_1,2023-10-31T02:33:45.354Z,,0,,,NaN,,,,,,false,,,,539169,539169,,539168,,539192,8,400,,,
break_continue,html.Screen,4_122_2,2023-10-31T02:33:45.354Z,,0,,,NaN,,,,,,false,,,,539169,539169,,539169,,539192,8,400,,,
sequence,flow.Sequence,4_122,2023-10-31T02:33:45.354Z,,0,,,2415,completion,,,,,false,,,,539169,539169,536737,536724,536754,539192,8,400,,,
trial,html.Screen,4_123_0,2023-10-31T02:33:47.910Z,,0,3,,2549,response,ISIC_7254389.JPG,4,ISIC_6993129.JPG,ISIC_6993129.JPG,false,0,keypress(z),500,541725,541725,539176,539169,539192,541760,8,400,24,,ISIC_7254389.JPG
break,html.Screen,4_123_1,2023-10-31T02:33:47.911Z,,0,,,NaN,,,,,,false,,,,541726,541726,,541725,,541760,8,400,,,
break_continue,html.Screen,4_123_2,2023-10-31T02:33:47.911Z,,0,,,NaN,,,,,,false,,,,541726,541726,,541726,,541760,8,400,,,
sequence,flow.Sequence,4_123,2023-10-31T02:33:47.911Z,,0,,,2534,completion,,,,,false,,,,541726,541726,539176,539169,539192,541760,8,400,,,
trial,html.Screen,4_124_0,2023-10-31T02:33:50.797Z,,0,3,,2870,response,ISIC_0011365.JPG,6,ISIC_7670149.JPG,ISIC_7670149.JPG,false,0,keypress(z),500,544613,544612,541742,541726,541760,544632,8,400,25,,ISIC_0011365.JPG
break,html.Screen,4_124_1,2023-10-31T02:33:50.798Z,,0,,,NaN,,,,,,false,,,,544614,544614,,544613,,544632,8,400,,,
break_continue,html.Screen,4_124_2,2023-10-31T02:33:50.799Z,,0,,,NaN,,,,,,false,,,,544614,544614,,544614,,544632,8,400,,,
sequence,flow.Sequence,4_124,2023-10-31T02:33:50.799Z,,0,,,2854,completion,,,,,false,,,,544614,544614,541742,541726,541760,544632,8,400,,,
trial,html.Screen,4_125_0,2023-10-31T02:33:53.270Z,,0,3,,2470,response,ISIC_0030462.JPG,11,ISIC_7860137.JPG,ISIC_7860137.JPG,false,0,keypress(z),500,547085,547085,544615,544614,544632,547115,8,400,26,,ISIC_0030462.JPG
break,html.Screen,4_125_1,2023-10-31T02:33:53.271Z,,0,,,NaN,,,,,,false,,,,547087,547086,,547086,,547115,8,400,,,
break_continue,html.Screen,4_125_2,2023-10-31T02:33:53.272Z,,0,,,NaN,,,,,,false,,,,547087,547087,,547087,,547115,8,400,,,
sequence,flow.Sequence,4_125,2023-10-31T02:33:53.272Z,,0,,,2455,completion,,,,,false,,,,547087,547087,544615,544614,544632,547115,8,400,,,
trial,html.Screen,4_126_0,2023-10-31T02:33:56.179Z,,0,3,,2896,response,ISIC_0026558.JPG,9,ISIC_0024552.JPG,ISIC_0026558.JPG,false,1,keypress(m),500,549995,549995,547099,547088,547115,550037,8,400,27,,ISIC_0024552.JPG
break,html.Screen,4_126_1,2023-10-31T02:33:56.180Z,,0,,,NaN,,,,,,false,,,,549995,549995,,549995,,550037,8,400,,,
break_continue,html.Screen,4_126_2,2023-10-31T02:33:56.180Z,,0,,,NaN,,,,,,false,,,,549996,549996,,549996,,550037,8,400,,,
sequence,flow.Sequence,4_126,2023-10-31T02:33:56.181Z,,0,,,2881,completion,,,,,false,,,,549996,549996,547099,547088,547115,550037,8,400,,,
trial,html.Screen,4_127_0,2023-10-31T02:33:58.664Z,,0,3,,2459,response,ISIC_7714981.JPG,9,ISIC_8127394.JPG,ISIC_8127394.JPG,false,0,keypress(z),500,552480,552480,550021,549996,550037,552522,8,400,28,,ISIC_7714981.JPG
break,html.Screen,4_127_1,2023-10-31T02:33:58.665Z,,0,,,NaN,,,,,,false,,,,552481,552481,,552480,,552522,8,400,,,
break_continue,html.Screen,4_127_2,2023-10-31T02:33:58.666Z,,0,,,NaN,,,,,,false,,,,552481,552481,,552481,,552522,8,400,,,
sequence,flow.Sequence,4_127,2023-10-31T02:33:58.666Z,,0,,,2444,completion,,,,,false,,,,552481,552481,550021,549996,550037,552522,8,400,,,
trial,html.Screen,4_128_0,2023-10-31T02:34:01.615Z,,0,3,,2926.0000000001164,response,ISIC_6171084.JPG,7,ISIC_0053686.JPG,ISIC_0053686.JPG,false,0,keypress(z),500,555430.0000000001,555430.0000000001,552504,552481,552522,555461,8,400,29,,ISIC_6171084.JPG
break,html.Screen,4_128_1,2023-10-31T02:34:01.615Z,,0,,,NaN,,,,,,false,,,,555431,555431,,555430.0000000001,,555461,8,400,,,
break_continue,html.Screen,4_128_2,2023-10-31T02:34:01.616Z,,0,,,NaN,,,,,,false,,,,555431,555431,,555431,,555461,8,400,,,
sequence,flow.Sequence,4_128,2023-10-31T02:34:01.616Z,,0,,,2909,completion,,,,,false,,,,555431,555431,552504,552481,552522,555461,8,400,,,
trial,html.Screen,4_129_0,2023-10-31T02:34:04.189Z,,0,3,,2560,response,ISIC_0063191.JPG,4,ISIC_0053686.JPG,ISIC_0063191.JPG,false,1,keypress(m),500,558005,558004,555444,555432,555461,558044,8,400,30,,ISIC_0053686.JPG
break,html.Screen,4_129_1,2023-10-31T02:34:04.190Z,,0,,,NaN,,,,,,false,,,,558006,558006,,558005,,558044,8,400,,,
break_continue,html.Screen,4_129_2,2023-10-31T02:34:04.190Z,,0,,,NaN,,,,,,false,,,,558006,558006,,558006,,558044,8,400,,,
sequence,flow.Sequence,4_129,2023-10-31T02:34:04.191Z,,0,,,2545,completion,,,,,false,,,,558007.0000000001,558006,555444,555432,555461,558044,8,400,,,
trial,html.Screen,4_130_0,2023-10-31T02:34:06.784Z,,0,3,,2572,response,ISIC_0032726.JPG,10,ISIC_0010011.JPG,ISIC_0010011.JPG,false,0,keypress(z),500,560600,560599,558027,558007.0000000001,558044,560633,8,400,31,,ISIC_0032726.JPG
break,html.Screen,4_130_1,2023-10-31T02:34:06.785Z,,0,,,NaN,,,,,,false,,,,560601,560600,,560600,,560633,8,400,,,
break_continue,html.Screen,4_130_2,2023-10-31T02:34:06.785Z,,0,,,NaN,,,,,,false,,,,560601,560601,,560601,,560633,8,400,,,
sequence,flow.Sequence,4_130,2023-10-31T02:34:06.785Z,,0,,,2557,completion,,,,,false,,,,560601,560601,558027,558007.0000000001,558044,560633,8,400,,,
trial,html.Screen,4_131_0,2023-10-31T02:34:09.504Z,,0,3,,2704,response,ISIC_9059311.JPG,5,ISIC_1977265.JPG,ISIC_9059311.JPG,false,1,keypress(m),500,563320,563320,560616,560601,560633,563349,8,400,32,,ISIC_1977265.JPG
break,html.Screen,4_131_1,2023-10-31T02:34:09.504Z,,0,,,NaN,,,,,,false,,,,563321,563320,,563320,,563349,8,400,,,
break_continue,html.Screen,4_131_2,2023-10-31T02:34:09.505Z,,0,,,NaN,,,,,,false,,,,563321,563321,,563321,,563349,8,400,,,
sequence,flow.Sequence,4_131,2023-10-31T02:34:09.505Z,,0,,,2688,completion,,,,,false,,,,563321,563321,560616,560601,560633,563349,8,400,,,
trial,html.Screen,4_132_0,2023-10-31T02:34:12.461Z,,0,3,,2944,response,ISIC_9122215.JPG,6,ISIC_0011944.JPG,ISIC_9122215.JPG,false,1,keypress(m),500,566277,566277,563333,563321,563349,566306,8,400,33,,ISIC_0011944.JPG
break,html.Screen,4_132_1,2023-10-31T02:34:12.462Z,,0,,,NaN,,,,,,false,,,,566278,566278,,566277,,566306,8,400,,,
break_continue,html.Screen,4_132_2,2023-10-31T02:34:12.462Z,,0,,,NaN,,,,,,false,,,,566278,566278,,566278,,566306,8,400,,,
sequence,flow.Sequence,4_132,2023-10-31T02:34:12.462Z,,0,,,2929,completion,,,,,false,,,,566278,566278,563333,563321,563349,566306,8,400,,,
trial,html.Screen,4_133_0,2023-10-31T02:34:15.076Z,,0,3,,2603,response,ISIC_0058255.JPG,11,ISIC_0032549.JPG,ISIC_0058255.JPG,false,1,keypress(m),500,568893,568892,566289,566278,566306,568922,8,400,34,,ISIC_0032549.JPG
break,html.Screen,4_133_1,2023-10-31T02:34:15.077Z,,0,,,NaN,,,,,,false,,,,568894,568893,,568893,,568922,8,400,,,
break_continue,html.Screen,4_133_2,2023-10-31T02:34:15.078Z,,0,,,NaN,,,,,,false,,,,568894,568894,,568894,,568922,8,400,,,
sequence,flow.Sequence,4_133,2023-10-31T02:34:15.078Z,,0,,,2588,completion,,,,,false,,,,568894,568894,566289,566278,566306,568922,8,400,,,
trial,html.Screen,4_134_0,2023-10-31T02:34:17.557Z,,0,3,,2467,response,ISIC_0025472.JPG,12,ISIC_4071825.JPG,ISIC_4071825.JPG,false,0,keypress(z),500,571373,571373,568906,568895,568922,571412,8,400,35,,ISIC_0025472.JPG
break,html.Screen,4_134_1,2023-10-31T02:34:17.558Z,,0,,,NaN,,,,,,false,,,,571374,571374,,571374,,571412,8,400,,,
break_continue,html.Screen,4_134_2,2023-10-31T02:34:17.558Z,,0,,,NaN,,,,,,false,,,,571374,571374,,571374,,571412,8,400,,,
sequence,flow.Sequence,4_134,2023-10-31T02:34:17.558Z,,0,,,2452,completion,,,,,false,,,,571375,571374,568906,568895,568922,571412,8,400,,,
trial,html.Screen,4_135_0,2023-10-31T02:34:20.079Z,,0,3,,2501,response,ISIC_1910158.JPG,9,ISIC_0482585.JPG,ISIC_1910158.JPG,false,1,keypress(m),500,573896,573895,571394,571375,571412,573928,8,400,36,,ISIC_0482585.JPG
break,html.Screen,4_135_1,2023-10-31T02:34:20.080Z,,0,,,NaN,,,,,,false,,,,573896,573896,,573896,,573928,8,400,,,
break_continue,html.Screen,4_135_2,2023-10-31T02:34:20.080Z,,0,,,NaN,,,,,,false,,,,573896,573896,,573896,,573928,8,400,,,
sequence,flow.Sequence,4_135,2023-10-31T02:34:20.080Z,,0,,,2484,completion,,,,,false,,,,573897,573896,571394,571375,571412,573928,8,400,,,
trial,html.Screen,4_136_0,2023-10-31T02:34:22.667Z,,0,3,,2572,response,ISIC_0597218.JPG,8,ISIC_1870309.JPG,ISIC_1870309.JPG,false,0,keypress(z),500,576484,576484,573912,573897,573928,576517,8,400,37,,ISIC_0597218.JPG
break,html.Screen,4_136_1,2023-10-31T02:34:22.668Z,,0,,,NaN,,,,,,false,,,,576485,576485,,576484,,576517,8,400,,,
break_continue,html.Screen,4_136_2,2023-10-31T02:34:22.669Z,,0,,,NaN,,,,,,false,,,,576485,576485,,576485,,576517,8,400,,,
sequence,flow.Sequence,4_136,2023-10-31T02:34:22.669Z,,0,,,2557,completion,,,,,false,,,,576486,576485,573912,573897,573928,576517,8,400,,,
trial,html.Screen,4_137_0,2023-10-31T02:34:25.178Z,,0,3,,2493,response,ISIC_0062463.JPG,8,ISIC_0000554.JPG,ISIC_0000554.JPG,false,0,keypress(z),500,578994,578994,576501,576486,576517,579017,8,400,38,,ISIC_0062463.JPG
break,html.Screen,4_137_1,2023-10-31T02:34:25.178Z,,0,,,NaN,,,,,,false,,,,578995,578995,,578995,,579017,8,400,,,
break_continue,html.Screen,4_137_2,2023-10-31T02:34:25.178Z,,0,,,NaN,,,,,,false,,,,578995,578995,,578995,,579017,8,400,,,
sequence,flow.Sequence,4_137,2023-10-31T02:34:25.179Z,,0,,,2478,completion,,,,,false,,,,578995,578995,576501,576486,576517,579017,8,400,,,
trial,html.Screen,4_138_0,2023-10-31T02:34:27.718Z,,0,3,,2535,response,ISIC_0026356.JPG,11,ISIC_2161864.JPG,ISIC_0026356.JPG,false,1,keypress(m),500,581535,581535,579000,578996,579017,581557,8,400,39,,ISIC_2161864.JPG
break,html.Screen,4_138_1,2023-10-31T02:34:27.719Z,,0,,,NaN,,,,,,false,,,,581536,581536,,581536,,581557,8,400,,,
break_continue,html.Screen,4_138_2,2023-10-31T02:34:27.720Z,,0,,,NaN,,,,,,false,,,,581537,581537,,581537,,581557,8,400,,,
sequence,flow.Sequence,4_138,2023-10-31T02:34:27.720Z,,0,,,2520,completion,,,,,false,,,,581537,581537,579000,578995,579017,581557,8,400,,,
trial,html.Screen,4_139_0,2023-10-31T02:34:30.384Z,,0,3,,2661,response,ISIC_2489146.JPG,8,ISIC_0002901.JPG,ISIC_0002901.JPG,false,0,keypress(z),500,584202,584201,581540,581537,581557,584224,8,400,40,,ISIC_2489146.JPG
break,html.Screen,4_139_1,2023-10-31T02:34:30.385Z,,0,,,NaN,,,,,,false,,,,584202,584202,,584202,,584224,8,400,,,
break_continue,html.Screen,4_139_2,2023-10-31T02:34:30.386Z,,0,,,NaN,,,,,,false,,,,584203,584203,,584203,,584224,8,400,,,
sequence,flow.Sequence,4_139,2023-10-31T02:34:30.386Z,,0,,,2646,completion,,,,,false,,,,584203,584203,581540,581537,581557,584224,8,400,,,
trial,html.Screen,4_140_0,2023-10-31T02:34:33.404Z,,0,3,,3014,response,ISIC_5501795.JPG,11,ISIC_0024288.JPG,ISIC_0024288.JPG,false,0,keypress(z),500,587221,587221,584207,584203,584224,587263,8,400,41,,ISIC_5501795.JPG
break,html.Screen,4_140_1,2023-10-31T02:34:33.404Z,,0,,,NaN,,,,,,false,,,,587222,587221,,587221,,587263,8,400,,,
break_continue,html.Screen,4_140_2,2023-10-31T02:34:33.405Z,,0,,,NaN,,,,,,false,,,,587222,587222,,587222,,587263,8,400,,,
sequence,flow.Sequence,4_140,2023-10-31T02:34:33.405Z,,0,,,2998,completion,,,,,false,,,,587222,587222,584207,584203,584224,587263,8,400,,,
trial,html.Screen,4_141_0,2023-10-31T02:34:36.059Z,,0,3,,2630,response,ISIC_2776906.JPG,9,ISIC_8375123.JPG,ISIC_8375123.JPG,false,0,keypress(z),500,589876,589876,587246,587222,587263,589913,8,400,42,,ISIC_2776906.JPG
break,html.Screen,4_141_1,2023-10-31T02:34:36.060Z,,0,,,NaN,,,,,,false,,,,589877.0000000001,589877.0000000001,,589877.0000000001,,589913,8,400,,,
break_continue,html.Screen,4_141_2,2023-10-31T02:34:36.060Z,,0,,,NaN,,,,,,false,,,,589877.0000000001,589877.0000000001,,589877.0000000001,,589913,8,400,,,
sequence,flow.Sequence,4_141,2023-10-31T02:34:36.060Z,,0,,,2614.0000000001164,completion,,,,,false,,,,589878,589877.0000000001,587246,587222,587263,589913,8,400,,,
trial,html.Screen,4_142_0,2023-10-31T02:34:38.666Z,,0,3,,2587.0000000001164,response,ISIC_0033241.JPG,11,ISIC_0032583.JPG,ISIC_0032583.JPG,false,0,keypress(z),500,592484,592483.0000000001,589896,589878,589913,592519,8,400,43,,ISIC_0033241.JPG
break,html.Screen,4_142_1,2023-10-31T02:34:38.668Z,,0,,,NaN,,,,,,false,,,,592485,592485,,592484,,592519,8,400,,,
break_continue,html.Screen,4_142_2,2023-10-31T02:34:38.668Z,,0,,,NaN,,,,,,false,,,,592485,592485,,592485,,592519,8,400,,,
sequence,flow.Sequence,4_142,2023-10-31T02:34:38.668Z,,0,,,2572,completion,,,,,false,,,,592486,592485,589896,589878,589913,592519,8,400,,,
trial,html.Screen,4_143_0,2023-10-31T02:34:41.592Z,,0,3,,2906,response,ISIC_2693412.JPG,7,ISIC_0026756.JPG,ISIC_2693412.JPG,false,1,keypress(m),500,595410,595409,592503,592486,592519,595452,8,400,44,,ISIC_0026756.JPG
break,html.Screen,4_143_1,2023-10-31T02:34:41.593Z,,0,,,NaN,,,,,,false,,,,595410,595410,,595410,,595452,8,400,,,
break_continue,html.Screen,4_143_2,2023-10-31T02:34:41.593Z,,0,,,NaN,,,,,,false,,,,595411,595411,,595411,,595452,8,400,,,
sequence,flow.Sequence,4_143,2023-10-31T02:34:41.593Z,,0,,,2892,completion,,,,,false,,,,595411,595411,592503,592486,592519,595452,8,400,,,
trial,html.Screen,4_144_0,2023-10-31T02:34:44.221Z,,0,3,,2602,response,ISIC_4038618.JPG,9,ISIC_0056047.JPG,ISIC_4038618.JPG,false,1,keypress(m),500,598039,598038,595436,595411,595452,598074,8,400,45,,ISIC_0056047.JPG
break,html.Screen,4_144_1,2023-10-31T02:34:44.222Z,,0,,,NaN,,,,,,false,,,,598040,598040,,598039,,598074,8,400,,,
break_continue,html.Screen,4_144_2,2023-10-31T02:34:44.223Z,,0,,,NaN,,,,,,false,,,,598041,598040,,598040,,598074,8,400,,,
sequence,flow.Sequence,4_144,2023-10-31T02:34:44.223Z,,0,,,2588,completion,,,,,false,,,,598041,598040,595436,595411,595452,598074,8,400,,,
trial,html.Screen,4_145_0,2023-10-31T02:34:46.875Z,,0,3,,2635,response,ISIC_0069124.JPG,5,ISIC_0536321.JPG,ISIC_0536321.JPG,false,0,keypress(z),500,600693,600693,598058,598041,598074,600725,8,400,46,,ISIC_0069124.JPG
break,html.Screen,4_145_1,2023-10-31T02:34:46.876Z,,0,,,NaN,,,,,,false,,,,600693,600693,,600693,,600725,8,400,,,
break_continue,html.Screen,4_145_2,2023-10-31T02:34:46.876Z,,0,,,NaN,,,,,,false,,,,600694,600694,,600694,,600725,8,400,,,
sequence,flow.Sequence,4_145,2023-10-31T02:34:46.876Z,,0,,,2620,completion,,,,,false,,,,600694,600694,598058,598041,598074,600725,8,400,,,
trial,html.Screen,4_146_0,2023-10-31T02:34:49.503Z,,0,3,,2612,response,ISIC_0010061.JPG,11,ISIC_0026586.JPG,ISIC_0010061.JPG,false,1,keypress(m),500,603321,603320,600708,600694,600725,603364,8,400,47,,ISIC_0026586.JPG
break,html.Screen,4_146_1,2023-10-31T02:34:49.504Z,,0,,,NaN,,,,,,false,,,,603322,603321,,603321,,603364,8,400,,,
break_continue,html.Screen,4_146_2,2023-10-31T02:34:49.504Z,,0,,,NaN,,,,,,false,,,,603322,603322,,603322,,603364,8,400,,,
sequence,flow.Sequence,4_146,2023-10-31T02:34:49.504Z,,0,,,2597,completion,,,,,false,,,,603322,603322,600708,600694,600725,603364,8,400,,,
trial,html.Screen,4_147_0,2023-10-31T02:34:52.107Z,,0,3,,2577.0000000001164,response,ISIC_1473511.JPG,8,ISIC_1269461.JPG,ISIC_1269461.JPG,false,0,keypress(z),500,605925.0000000001,605925.0000000001,603348,603323,603364,605964,8,400,48,,ISIC_1473511.JPG
break,html.Screen,4_147_1,2023-10-31T02:34:52.107Z,,0,,,NaN,,,,,,false,,,,605925.0000000001,605925.0000000001,,605925.0000000001,,605964,8,400,,,
break_continue,html.Screen,4_147_2,2023-10-31T02:34:52.108Z,,0,,,NaN,,,,,,false,,,,605926,605926,,605926,,605964,8,400,,,
sequence,flow.Sequence,4_147,2023-10-31T02:34:52.108Z,,0,,,2562,completion,,,,,false,,,,605926,605926,603348,603322,603364,605964,8,400,,,
trial,html.Screen,4_148_0,2023-10-31T02:34:54.677Z,,0,3,,2547,response,ISIC_8029613.JPG,10,ISIC_1711185.JPG,ISIC_1711185.JPG,false,0,keypress(z),500,608495,608495,605948,605926,605964,608538,8,400,49,,ISIC_8029613.JPG
break,html.Screen,4_148_1,2023-10-31T02:34:54.678Z,,0,,,NaN,,,,,,false,,,,608496,608496,,608496,,608538,8,400,,,
break_continue,html.Screen,4_148_2,2023-10-31T02:34:54.678Z,,0,,,NaN,,,,,,false,,,,608496,608496,,608496,,608538,8,400,,,
sequence,flow.Sequence,4_148,2023-10-31T02:34:54.678Z,,0,,,2532,completion,,,,,false,,,,608497,608496,605948,605926,605964,608538,8,400,,,
trial,html.Screen,4_149_0,2023-10-31T02:34:57.416Z,,0,3,,2713,response,ISIC_1585370.JPG,7,ISIC_5315486.JPG,ISIC_5315486.JPG,false,0,keypress(z),500,611234,611234,608521,608497,608538,611270,8,400,50,,ISIC_1585370.JPG
break,html.Screen,4_149_1,2023-10-31T02:35:07.436Z,,0,,,9999,timeout,,,,,false,,,,621254,621252,611255,611234,611270,621269,8,400,,,
break_continue,html.Screen,4_149_2,2023-10-31T02:35:08.746Z,,0,,,1345,response,,,,,false,continue,keypress(Space),,622565,622597,621252,621255,621269,622602,8,400,,,
sequence,flow.Sequence,4_149,2023-10-31T02:35:08.747Z,,0,,,14059,completion,,,,,false,,,,622566,622597,608521,608497,608538,622602,8,400,,,
trial,html.Screen,4_150_0,2023-10-31T02:35:13.888Z,,0,4,,5122,response,ISIC_1216139.JPG,12,ISIC_0028612.JPG,ISIC_0028612.JPG,false,0,keypress(z),500,627707,627707,622585,622566,622602,627743,8,400,1,,ISIC_1216139.JPG
break,html.Screen,4_150_1,2023-10-31T02:35:13.889Z,,0,,,NaN,,,,,,false,,,,627708,627708,,627708,,627743,8,400,,,
break_continue,html.Screen,4_150_2,2023-10-31T02:35:13.889Z,,0,,,NaN,,,,,,false,,,,627709.0000000001,627708,,627708,,627743,8,400,,,
sequence,flow.Sequence,4_150,2023-10-31T02:35:13.890Z,,0,,,5106,completion,,,,,false,,,,627709.0000000001,627708,622585,622566,622602,627743,8,400,,,
trial,html.Screen,4_151_0,2023-10-31T02:35:16.629Z,,0,4,,2721,response,ISIC_5481211.JPG,8,ISIC_0033479.JPG,ISIC_5481211.JPG,false,1,keypress(m),500,630449.0000000001,630448,627727,627709.0000000001,627743,630484,8,400,2,,ISIC_0033479.JPG
break,html.Screen,4_151_1,2023-10-31T02:35:16.630Z,,0,,,NaN,,,,,,false,,,,630450,630449.0000000001,,630449.0000000001,,630484,8,400,,,
break_continue,html.Screen,4_151_2,2023-10-31T02:35:16.631Z,,0,,,NaN,,,,,,false,,,,630450,630450,,630450,,630484,8,400,,,
sequence,flow.Sequence,4_151,2023-10-31T02:35:16.631Z,,0,,,2707,completion,,,,,false,,,,630450,630450,627727,627709.0000000001,627743,630484,8,400,,,
trial,html.Screen,4_152_0,2023-10-31T02:35:19.120Z,,0,4,,2472,response,ISIC_1700051.JPG,9,ISIC_0014133.JPG,ISIC_1700051.JPG,false,1,keypress(m),500,632940,632938,630466,630450,630484,632983,8,400,3,,ISIC_0014133.JPG
break,html.Screen,4_152_1,2023-10-31T02:35:19.122Z,,0,,,NaN,,,,,,false,,,,632941,632941,,632940,,632983,8,400,,,
break_continue,html.Screen,4_152_2,2023-10-31T02:35:19.122Z,,0,,,NaN,,,,,,false,,,,632941,632941,,632941,,632983,8,400,,,
sequence,flow.Sequence,4_152,2023-10-31T02:35:19.122Z,,0,,,2457,completion,,,,,false,,,,632942,632941,630466,630450,630484,632983,8,400,,,
trial,html.Screen,4_153_0,2023-10-31T02:35:22.156Z,,0,4,,3008,response,ISIC_0064738.JPG,10,ISIC_2463014.JPG,ISIC_2463014.JPG,false,0,keypress(z),500,635975,635975,632967,632942,632983,636007,8,400,4,,ISIC_0064738.JPG
break,html.Screen,4_153_1,2023-10-31T02:35:22.156Z,,0,,,NaN,,,,,,false,,,,635976,635976,,635975,,636007,8,400,,,
break_continue,html.Screen,4_153_2,2023-10-31T02:35:22.157Z,,0,,,NaN,,,,,,false,,,,635976,635976,,635976,,636007,8,400,,,
sequence,flow.Sequence,4_153,2023-10-31T02:35:22.157Z,,0,,,2993,completion,,,,,false,,,,635976,635976,632967,632942,632983,636007,8,400,,,
trial,html.Screen,4_154_0,2023-10-31T02:35:24.718Z,,0,4,,2546,response,ISIC_0054025.JPG,8,ISIC_0032494.JPG,ISIC_0032494.JPG,false,0,keypress(z),500,638538,638537,635991,635976,636007,638578,8,400,5,,ISIC_0054025.JPG
break,html.Screen,4_154_1,2023-10-31T02:35:24.719Z,,0,,,NaN,,,,,,false,,,,638538,638538,,638538,,638578,8,400,,,
break_continue,html.Screen,4_154_2,2023-10-31T02:35:24.719Z,,0,,,NaN,,,,,,false,,,,638539,638538,,638538,,638578,8,400,,,
sequence,flow.Sequence,4_154,2023-10-31T02:35:24.719Z,,0,,,2531,completion,,,,,false,,,,638539,638538,635991,635976,636007,638578,8,400,,,
trial,html.Screen,4_155_0,2023-10-31T02:35:27.321Z,,0,4,,2578,response,ISIC_0054167.JPG,6,ISIC_8036175.JPG,ISIC_8036175.JPG,false,0,keypress(z),500,641141,641140,638562,638539,638578,641178,8,400,6,,ISIC_0054167.JPG
break,html.Screen,4_155_1,2023-10-31T02:35:27.322Z,,0,,,NaN,,,,,,false,,,,641141,641141,,641141,,641178,8,400,,,
break_continue,html.Screen,4_155_2,2023-10-31T02:35:27.322Z,,0,,,NaN,,,,,,false,,,,641142,641142,,641141,,641178,8,400,,,
sequence,flow.Sequence,4_155,2023-10-31T02:35:27.322Z,,0,,,2564,completion,,,,,false,,,,641142,641142,638562,638539,638578,641178,8,400,,,
trial,html.Screen,4_156_0,2023-10-31T02:35:29.899Z,,0,4,,2559,response,ISIC_0031784.JPG,5,ISIC_0033042.JPG,ISIC_0033042.JPG,false,0,keypress(z),500,643719,643719,641160,641142,641178,643748,8,400,7,,ISIC_0031784.JPG
break,html.Screen,4_156_1,2023-10-31T02:35:29.900Z,,0,,,NaN,,,,,,false,,,,643720,643719,,643719,,643748,8,400,,,
break_continue,html.Screen,4_156_2,2023-10-31T02:35:29.900Z,,0,,,NaN,,,,,,false,,,,643720,643720,,643720,,643748,8,400,,,
sequence,flow.Sequence,4_156,2023-10-31T02:35:29.900Z,,0,,,2542,completion,,,,,false,,,,643720,643720,641160,641142,641178,643748,8,400,,,
