sender,sender_type,sender_id,timestamp,meta,,blockNo,condition,duration,ended_on,img_left,img_reveal,img_right,loser,practice,response,response_action,selection_duration,time_commit,time_end,time_render,time_run,time_show,time_switch,total_blocks,total_trials,trialNo,url,winner
informed_consent,html.Screen,0,2023-10-31T21:09:03.292Z,"{""labjs_version"":""20.2.4"",""labjs_build"":{""flavor"":""production"",""commit"":""f5b4a49f956347addd546a832a3327688c2c0fef""},""location"":""https://run.pavlovia.org/MurrayBennett/melanoma-2afc/?participant=66040&platform=sona"",""userAgent"":""Mozilla/5.0 (Windows NT 10.0; Win64; x64) AppleWebKit/537.36 (KHTML, like Gecko) Chrome/118.0.0.0 Safari/537.36"",""platform"":""Win32"",""language"":""en-US"",""locale"":""en-US"",""timeZone"":""America/Chicago"",""timezoneOffset"":300,""screen_width"":1440,""screen_height"":960,""scroll_width"":1440,""scroll_height"":758,""window_innerWidth"":1440,""window_innerHeight"":806,""devicePixelRatio"":2}",,,,3275.9280000119206,response,,,,,,consent,click button,,10739.90000000596,10737.300000011921,7444.694,7455.5999999940395,7461.372,10760.757,,,,"{""participant"":""66040"",""platform"":""sona""}",
Welcome,html.Screen,1,2023-10-31T21:09:04.716Z,,,,uniform,1401.5430000119213,response,,,,,,continue,click button,,12163.700000017881,12162.300000011921,10744.32,10740.300000011921,10760.757,12167.743,,,,,
trial,html.Screen,2_0_0,2023-10-31T21:09:11.079Z,,0,0,,6358.356999994039,response,ISIC_0025593.JPG,,ISIC_0063388.JPG,ISIC_0025593.JPG,true,1,keypress(m),500,18526.59999999404,18526.09999999404,12151.133,12163.90000000596,12167.743,18544.134,1,6,1,,ISIC_0063388.JPG
sequence,flow.Sequence,2_0,2023-10-31T21:09:11.079Z,,0,,,6358.356999994039,completion,,,,,true,,,,18526.90000000596,18526.09999999404,12151.133,12163.90000000596,12167.743,18544.134,1,6,,,
trial,html.Screen,2_1_0,2023-10-31T21:09:17.329Z,,0,0,,6231.965999994041,response,ISIC_1309015.JPG,,ISIC_0028178.JPG,ISIC_1309015.JPG,true,1,keypress(m),500,24776.30000001192,24776.09999999404,18524.642,18527,18544.134,24793.869,1,6,2,,ISIC_0028178.JPG
sequence,flow.Sequence,2_1,2023-10-31T21:09:17.329Z,,0,,,6231.965999994041,completion,,,,,true,,,,24776.5,24776.09999999404,18524.642,18527,18544.134,24793.869,1,6,,,
trial,html.Screen,2_2_0,2023-10-31T21:09:21.830Z,,0,0,,4483.631000000001,response,ISIC_3314853.JPG,,ISIC_0031128.JPG,ISIC_0031128.JPG,true,0,keypress(z),500,29278,29277.5,24771.035,24776.80000001192,24793.869,29295.643,1,6,3,,ISIC_3314853.JPG
sequence,flow.Sequence,2_2,2023-10-31T21:09:21.830Z,,0,,,4483.631000000001,completion,,,,,true,,,,29278.30000001192,29277.5,24771.035,24776.70000001788,24793.869,29295.643,1,6,,,
trial,html.Screen,2_3_0,2023-10-31T21:09:25.308Z,,0,0,,3459.9569999940395,response,ISIC_8980141.JPG,,ISIC_0031612.JPG,ISIC_0031612.JPG,true,0,keypress(z),500,32756.09999999404,32755.59999999404,29274.833,29278.40000000596,29295.643,32773.779,1,6,4,,ISIC_8980141.JPG
sequence,flow.Sequence,2_3,2023-10-31T21:09:25.309Z,,0,,,3459.9569999940395,completion,,,,,true,,,,32756.40000000596,32755.59999999404,29274.833,29278.30000001192,29295.643,32773.779,1,6,,,
trial,html.Screen,2_4_0,2023-10-31T21:09:30.184Z,,0,0,,4857.121000005958,response,ISIC_1197737.JPG,,ISIC_9721604.JPG,ISIC_1197737.JPG,true,1,keypress(m),500,37631.40000000596,37630.90000000596,32754.796,32756.59999999404,32773.779,37648.866,1,6,5,,ISIC_9721604.JPG
sequence,flow.Sequence,2_4,2023-10-31T21:09:30.184Z,,0,,,4857.121000005958,completion,,,,,true,,,,37631.80000001192,37630.90000000596,32754.796,32756.59999999404,32773.779,37648.866,1,6,,,
trial,html.Screen,2_5_0,2023-10-31T21:09:34.892Z,,0,0,,4690.034000005959,response,ISIC_0025346.JPG,,ISIC_0010681.JPG,ISIC_0025346.JPG,true,1,keypress(m),500,42339.30000001192,42338.90000000596,37631.238,37632,37648.866,42347.193,1,6,6,,ISIC_0010681.JPG
sequence,flow.Sequence,2_5,2023-10-31T21:09:34.892Z,,0,,,4690.034000005959,completion,,,,,true,,,,42339.59999999404,42338.90000000596,37631.238,37631.80000001192,37648.866,42347.193,1,6,,,
loop,flow.Loop,2,2023-10-31T21:09:34.892Z,,,,,30171.15700000596,completion,,,,,true,,,,42339.80000001192,42338.90000000596,12151.133,12163.90000000596,12167.743,42347.193,1,6,,,
exp_instructions,html.Screen,3,2023-10-31T21:09:37.595Z,,,,,2693.9069999940402,response,,,,,,continue,keypress(Space),,45042.70000001788,45041.09999999404,42330.698,42339.90000000596,42347.193,45055.372,,,,,
trial,html.Screen,4_0_0,2023-10-31T21:09:42.880Z,,0,1,,5272.428000011918,response,ISIC_4732241.JPG,8,ISIC_0489267.JPG,ISIC_4732241.JPG,false,1,keypress(m),500,50328.20000001788,50327.80000001192,45042.855,45042.80000001192,45055.372,50345.702,8,400,1,,ISIC_0489267.JPG
break,html.Screen,4_0_1,2023-10-31T21:09:42.883Z,,0,,,NaN,,,,,,false,,,,50330.70000001788,50330.40000000596,,50328.5,,50345.702,8,400,,,
break_continue,html.Screen,4_0_2,2023-10-31T21:09:42.883Z,,0,,,NaN,,,,,,false,,,,50331.20000001788,50331.09999999404,,50330.80000001192,,50345.702,8,400,,,
sequence,flow.Sequence,4_0,2023-10-31T21:09:42.884Z,,0,,,5275.7279999940365,completion,,,,,false,,,,50331.40000000596,50331.09999999404,45042.855,45042.80000001192,45055.372,50345.702,8,400,,,
trial,html.Screen,4_1_0,2023-10-31T21:09:45.773Z,,0,1,,2874.5980000119234,response,ISIC_0065525.JPG,8,ISIC_8911683.JPG,ISIC_0065525.JPG,false,1,keypress(m),500,53220.70000001788,53220.30000001192,50320.347,50331.5,50345.702,53238.435,8,400,2,,ISIC_8911683.JPG
break,html.Screen,4_1_1,2023-10-31T21:09:45.775Z,,0,,,NaN,,,,,,false,,,,53222.70000001788,53222.5,,53220.90000000596,,53238.435,8,400,,,
break_continue,html.Screen,4_1_2,2023-10-31T21:09:45.775Z,,0,,,NaN,,,,,,false,,,,53223.09999999404,53223,,53222.80000001192,,53238.435,8,400,,,
sequence,flow.Sequence,4_1,2023-10-31T21:09:45.775Z,,0,,,2877.2980000000025,completion,,,,,false,,,,53223.09999999404,53223,50320.347,50331.40000000596,50345.702,53238.435,8,400,,,
trial,html.Screen,4_2_0,2023-10-31T21:09:48.788Z,,0,1,,2996.664999994042,response,ISIC_7626256.JPG,6,ISIC_0009958.JPG,ISIC_0009958.JPG,false,0,keypress(z),500,56235.59999999404,56235.09999999404,53219.484,53223.20000001788,53238.435,56253.353,8,400,3,,ISIC_7626256.JPG
break,html.Screen,4_2_1,2023-10-31T21:09:48.790Z,,0,,,NaN,,,,,,false,,,,56238,56237.59999999404,,56235.90000000596,,56253.353,8,400,,,
break_continue,html.Screen,4_2_2,2023-10-31T21:09:48.791Z,,0,,,NaN,,,,,,false,,,,56238.40000000596,56238.40000000596,,56238.20000001788,,56253.353,8,400,,,
sequence,flow.Sequence,4_2,2023-10-31T21:09:48.791Z,,0,,,2999.965000005963,completion,,,,,false,,,,56238.70000001788,56238.40000000596,53219.484,53223.20000001788,53238.435,56253.353,8,400,,,
trial,html.Screen,4_3_0,2023-10-31T21:09:53.440Z,,0,1,,4633.847000017879,response,ISIC_0029744.JPG,12,ISIC_0032695.JPG,ISIC_0029744.JPG,false,1,keypress(m),500,60887.70000001788,60887.20000001788,56227.858,56238.90000000596,56253.353,60905.769,8,400,4,,ISIC_0032695.JPG
break,html.Screen,4_3_1,2023-10-31T21:09:53.442Z,,0,,,NaN,,,,,,false,,,,60890.20000001788,60889.80000001192,,60888.09999999404,,60905.769,8,400,,,
break_continue,html.Screen,4_3_2,2023-10-31T21:09:53.443Z,,0,,,NaN,,,,,,false,,,,60890.70000001788,60890.59999999404,,60890.40000000596,,60905.769,8,400,,,
sequence,flow.Sequence,4_3,2023-10-31T21:09:53.443Z,,0,,,4637.246999994037,completion,,,,,false,,,,60890.90000000596,60890.59999999404,56227.858,56238.80000001192,56253.353,60905.769,8,400,,,
trial,html.Screen,4_4_0,2023-10-31T21:09:56.283Z,,0,1,,2824.2309999999998,response,ISIC_0053611.JPG,5,ISIC_0059571.JPG,ISIC_0059571.JPG,false,0,keypress(z),500,63730.30000001192,63730,60874.508,60891.09999999404,60905.769,63748.176,8,400,5,,ISIC_0053611.JPG
break,html.Screen,4_4_1,2023-10-31T21:09:56.285Z,,0,,,NaN,,,,,,false,,,,63732.30000001192,63732,,63730.59999999404,,63748.176,8,400,,,
break_continue,html.Screen,4_4_2,2023-10-31T21:09:56.285Z,,0,,,NaN,,,,,,false,,,,63732.59999999404,63732.5,,63732.40000000596,,63748.176,8,400,,,
sequence,flow.Sequence,4_4,2023-10-31T21:09:56.285Z,,0,,,2826.7309999999998,completion,,,,,false,,,,63732.80000001192,63732.5,60874.508,60891,60905.769,63748.176,8,400,,,
trial,html.Screen,4_5_0,2023-10-31T21:09:59.543Z,,0,1,,3241.92399999404,response,ISIC_0034311.JPG,11,ISIC_0063871.JPG,ISIC_0063871.JPG,false,0,keypress(z),500,66990.5,66990.09999999404,63721.382,63732.80000001192,63748.176,67007.954,8,400,6,,ISIC_0034311.JPG
break,html.Screen,4_5_1,2023-10-31T21:09:59.544Z,,0,,,NaN,,,,,,false,,,,66992.20000001788,66992,,66990.70000001788,,67007.954,8,400,,,
break_continue,html.Screen,4_5_2,2023-10-31T21:09:59.545Z,,0,,,NaN,,,,,,false,,,,66992.59999999404,66992.5,,66992.40000000596,,67007.954,8,400,,,
sequence,flow.Sequence,4_5,2023-10-31T21:09:59.545Z,,0,,,3244.3240000000005,completion,,,,,false,,,,66992.70000001788,66992.5,63721.382,63732.80000001192,63748.176,67007.954,8,400,,,
trial,html.Screen,4_6_0,2023-10-31T21:10:02.402Z,,0,1,,2837.1459999940416,response,ISIC_9121369.JPG,13,ISIC_0000239.JPG,ISIC_9121369.JPG,false,1,keypress(m),500,69845.40000000596,69845.09999999404,66990.929,66992.80000001192,67007.954,69863.23,8,400,7,,ISIC_0000239.JPG
break,html.Screen,4_6_1,2023-10-31T21:10:02.404Z,,0,,,NaN,,,,,,false,,,,69847.59999999404,69847.20000001788,,69845.70000001788,,69863.23,8,400,,,
break_continue,html.Screen,4_6_2,2023-10-31T21:10:02.405Z,,0,,,NaN,,,,,,false,,,,69847.90000000596,69847.80000001192,,69847.59999999404,,69863.23,8,400,,,
sequence,flow.Sequence,4_6,2023-10-31T21:10:02.405Z,,0,,,2839.846000011923,completion,,,,,false,,,,69848.09999999404,69847.80000001192,66990.929,66992.80000001192,67007.954,69863.23,8,400,,,
trial,html.Screen,4_7_0,2023-10-31T21:10:05.354Z,,0,1,,2933.6700000059645,response,ISIC_0010808.JPG,11,ISIC_0013988.JPG,ISIC_0013988.JPG,false,0,keypress(z),500,72797.30000001192,72796.90000000596,69832.616,69848.20000001788,69863.23,72815.263,8,400,8,,ISIC_0010808.JPG
break,html.Screen,4_7_1,2023-10-31T21:10:05.356Z,,0,,,NaN,,,,,,false,,,,72799.5,72799.20000001788,,72797.59999999404,,72815.263,8,400,,,
break_continue,html.Screen,4_7_2,2023-10-31T21:10:05.357Z,,0,,,NaN,,,,,,false,,,,72799.80000001192,72799.80000001192,,72799.59999999404,,72815.263,8,400,,,
sequence,flow.Sequence,4_7,2023-10-31T21:10:05.357Z,,0,,,2936.570000011925,completion,,,,,false,,,,72800,72799.80000001192,69832.616,69848.20000001788,69863.23,72815.263,8,400,,,
trial,html.Screen,4_8_0,2023-10-31T21:10:08.431Z,,0,1,,3058.637000005954,response,ISIC_7104307.JPG,9,ISIC_0029281.JPG,ISIC_7104307.JPG,false,1,keypress(m),500,75874.30000001192,75873.90000000596,72791.607,72800.09999999404,72815.263,75892.192,8,400,9,,ISIC_0029281.JPG
break,html.Screen,4_8_1,2023-10-31T21:10:08.434Z,,0,,,NaN,,,,,,false,,,,75876.70000001788,75876.40000000596,,75874.70000001788,,75892.192,8,400,,,
break_continue,html.Screen,4_8_2,2023-10-31T21:10:08.434Z,,0,,,NaN,,,,,,false,,,,75877.20000001788,75877,,75876.90000000596,,75892.192,8,400,,,
sequence,flow.Sequence,4_8,2023-10-31T21:10:08.435Z,,0,,,3061.7369999999937,completion,,,,,false,,,,75878.40000000596,75877,72791.607,72800.09999999404,72815.263,75892.192,8,400,,,
trial,html.Screen,4_9_0,2023-10-31T21:10:11.963Z,,0,1,,3513.407999994044,response,ISIC_0623284.JPG,5,ISIC_2935987.JPG,ISIC_0623284.JPG,false,1,keypress(m),500,79406,79405.59999999404,75865.222,75878.59999999404,75892.192,79423.853,8,400,10,,ISIC_2935987.JPG
break,html.Screen,4_9_1,2023-10-31T21:10:11.965Z,,0,,,NaN,,,,,,false,,,,79408.20000001788,79407.80000001192,,79406.30000001192,,79423.853,8,400,,,
break_continue,html.Screen,4_9_2,2023-10-31T21:10:11.965Z,,0,,,NaN,,,,,,false,,,,79408.5,79408.40000000596,,79408.20000001788,,79423.853,8,400,,,
sequence,flow.Sequence,4_9,2023-10-31T21:10:11.965Z,,0,,,3516.208000005965,completion,,,,,false,,,,79408.70000001788,79408.40000000596,75865.222,75878.40000000596,75892.192,79423.853,8,400,,,
trial,html.Screen,4_10_0,2023-10-31T21:10:16.098Z,,0,1,,4116.547000005958,response,ISIC_0170101.JPG,10,ISIC_1369967.JPG,ISIC_0170101.JPG,false,1,keypress(m),500,83540.70000001788,83540.40000000596,79396.105,79408.90000000596,79423.853,83558.435,8,400,11,,ISIC_1369967.JPG
break,html.Screen,4_10_1,2023-10-31T21:10:16.099Z,,0,,,NaN,,,,,,false,,,,83542.59999999404,83542.40000000596,,83540.90000000596,,83558.435,8,400,,,
break_continue,html.Screen,4_10_2,2023-10-31T21:10:16.100Z,,0,,,NaN,,,,,,false,,,,83543,83542.90000000596,,83542.70000001788,,83558.435,8,400,,,
sequence,flow.Sequence,4_10,2023-10-31T21:10:16.100Z,,0,,,4119.047000005958,completion,,,,,false,,,,83543.09999999404,83542.90000000596,79396.105,79408.80000001192,79423.853,83558.435,8,400,,,
trial,html.Screen,4_11_0,2023-10-31T21:10:19.549Z,,0,1,,3433.0650000000023,response,ISIC_3105924.JPG,13,ISIC_0014428.JPG,ISIC_0014428.JPG,false,0,keypress(z),500,86991.90000000596,86991.5,83527.708,83543.20000001788,83558.435,87009.631,8,400,12,,ISIC_3105924.JPG
break,html.Screen,4_11_1,2023-10-31T21:10:19.551Z,,0,,,NaN,,,,,,false,,,,86993.90000000596,86993.70000001788,,86992.09999999404,,87009.631,8,400,,,
break_continue,html.Screen,4_11_2,2023-10-31T21:10:19.551Z,,0,,,NaN,,,,,,false,,,,86994.40000000596,86994.20000001788,,86994.09999999404,,87009.631,8,400,,,
sequence,flow.Sequence,4_11,2023-10-31T21:10:19.551Z,,0,,,3435.7650000178837,completion,,,,,false,,,,86994.40000000596,86994.20000001788,83527.708,83543.09999999404,83558.435,87009.631,8,400,,,
trial,html.Screen,4_12_0,2023-10-31T21:10:22.585Z,,0,1,,3017.869000000006,response,ISIC_8297563.JPG,11,ISIC_8353090.JPG,ISIC_8297563.JPG,false,1,keypress(m),500,90027.90000000596,90027.5,86978.874,86994.5,87009.631,90045.653,8,400,13,,ISIC_8353090.JPG
break,html.Screen,4_12_1,2023-10-31T21:10:22.587Z,,0,,,NaN,,,,,,false,,,,90030.09999999404,90029.70000001788,,90028.09999999404,,90045.653,8,400,,,
break_continue,html.Screen,4_12_2,2023-10-31T21:10:22.587Z,,0,,,NaN,,,,,,false,,,,90030.40000000596,90030.40000000596,,90030.09999999404,,90045.653,8,400,,,
sequence,flow.Sequence,4_12,2023-10-31T21:10:22.587Z,,0,,,3020.7690000059665,completion,,,,,false,,,,90030.5,90030.40000000596,86978.874,86994.5,87009.631,90045.653,8,400,,,
trial,html.Screen,4_13_0,2023-10-31T21:10:25.870Z,,0,1,,3266.8469999999943,response,ISIC_0021271.JPG,6,ISIC_9694867.JPG,ISIC_0021271.JPG,false,1,keypress(m),500,93312.90000000596,93312.5,90019.446,90030.70000001788,90045.653,93330.672,8,400,14,,ISIC_9694867.JPG
break,html.Screen,4_13_1,2023-10-31T21:10:25.872Z,,0,,,NaN,,,,,,false,,,,93314.80000001192,93314.59999999404,,93313.20000001788,,93330.672,8,400,,,
break_continue,html.Screen,4_13_2,2023-10-31T21:10:25.872Z,,0,,,NaN,,,,,,false,,,,93315.09999999404,93315,,93314.90000000596,,93330.672,8,400,,,
sequence,flow.Sequence,4_13,2023-10-31T21:10:25.872Z,,0,,,3269.3469999999943,completion,,,,,false,,,,93315.20000001788,93315,90019.446,90030.59999999404,90045.653,93330.672,8,400,,,
trial,html.Screen,4_14_0,2023-10-31T21:10:28.596Z,,0,1,,2708.5280000178755,response,ISIC_9278685.JPG,10,ISIC_0028967.JPG,ISIC_0028967.JPG,false,0,keypress(z),500,96039.5,96039.20000001788,93306.167,93315.30000001192,93330.672,96057.381,8,400,15,,ISIC_9278685.JPG
break,html.Screen,4_14_1,2023-10-31T21:10:28.598Z,,0,,,NaN,,,,,,false,,,,96041.70000001788,96041.30000001192,,96039.80000001192,,96057.381,8,400,,,
break_continue,html.Screen,4_14_2,2023-10-31T21:10:28.599Z,,0,,,NaN,,,,,,false,,,,96042.09999999404,96041.90000000596,,96041.80000001192,,96057.381,8,400,,,
sequence,flow.Sequence,4_14,2023-10-31T21:10:28.599Z,,0,,,2711.2280000059545,completion,,,,,false,,,,96042.20000001788,96041.90000000596,93306.167,93315.20000001788,93330.672,96057.381,8,400,,,
trial,html.Screen,4_15_0,2023-10-31T21:10:31.999Z,,0,1,,3384.919000011927,response,ISIC_0563533.JPG,8,ISIC_0047031.JPG,ISIC_0047031.JPG,false,0,keypress(z),500,99442.59999999404,99442.30000001192,96032.299,96042.30000001192,96057.381,99460.51,8,400,16,,ISIC_0563533.JPG
break,html.Screen,4_15_1,2023-10-31T21:10:32.001Z,,0,,,NaN,,,,,,false,,,,99444.59999999404,99444.40000000596,,99442.90000000596,,99460.51,8,400,,,
break_continue,html.Screen,4_15_2,2023-10-31T21:10:32.002Z,,0,,,NaN,,,,,,false,,,,99445.09999999404,99444.90000000596,,99444.80000001192,,99460.51,8,400,,,
sequence,flow.Sequence,4_15,2023-10-31T21:10:32.002Z,,0,,,3387.5190000059665,completion,,,,,false,,,,99445.20000001788,99444.90000000596,96032.299,96042.30000001192,96057.381,99460.51,8,400,,,
trial,html.Screen,4_16_0,2023-10-31T21:10:37.261Z,,0,1,,5243.089999994045,response,ISIC_0026497.JPG,4,ISIC_0026746.JPG,ISIC_0026746.JPG,false,0,keypress(z),500,104704.09999999404,104703.59999999404,99442.864,99445.30000001192,99460.51,104721.859,8,400,17,,ISIC_0026497.JPG
break,html.Screen,4_16_1,2023-10-31T21:10:37.263Z,,0,,,NaN,,,,,,false,,,,104706.30000001192,104706.09999999404,,104704.5,,104721.859,8,400,,,
break_continue,html.Screen,4_16_2,2023-10-31T21:10:37.264Z,,0,,,NaN,,,,,,false,,,,104706.70000001788,104706.59999999404,,104706.40000000596,,104721.859,8,400,,,
sequence,flow.Sequence,4_16,2023-10-31T21:10:37.264Z,,0,,,5246.089999994045,completion,,,,,false,,,,104706.80000001192,104706.59999999404,99442.864,99445.30000001192,99460.51,104721.859,8,400,,,
trial,html.Screen,4_17_0,2023-10-31T21:10:41.059Z,,0,1,,3779.5410000059637,response,ISIC_0031401.JPG,9,ISIC_8624049.JPG,ISIC_0031401.JPG,false,1,keypress(m),500,108501.80000001192,108501.40000000596,104698.809,104706.90000000596,104721.859,108519.418,8,400,18,,ISIC_8624049.JPG
break,html.Screen,4_17_1,2023-10-31T21:10:41.061Z,,0,,,NaN,,,,,,false,,,,108503.80000001192,108503.5,,108502,,108519.418,8,400,,,
break_continue,html.Screen,4_17_2,2023-10-31T21:10:41.061Z,,0,,,NaN,,,,,,false,,,,108504.30000001192,108504.09999999404,,108504,,108519.418,8,400,,,
sequence,flow.Sequence,4_17,2023-10-31T21:10:41.061Z,,0,,,3782.240999994043,completion,,,,,false,,,,108504.40000000596,108504.09999999404,104698.809,104706.90000000596,104721.859,108519.418,8,400,,,
trial,html.Screen,4_18_0,2023-10-31T21:10:44.590Z,,0,1,,3513.4820000059553,response,ISIC_1868816.JPG,11,ISIC_4614129.JPG,ISIC_1868816.JPG,false,1,keypress(m),500,112033.5,112032.90000000596,108495.263,108504.5,108519.418,112068.399,8,400,19,,ISIC_4614129.JPG
break,html.Screen,4_18_1,2023-10-31T21:10:44.593Z,,0,,,NaN,,,,,,false,,,,112036.20000001788,112035.80000001192,,112034.09999999404,,112068.399,8,400,,,
break_continue,html.Screen,4_18_2,2023-10-31T21:10:44.594Z,,0,,,NaN,,,,,,false,,,,112036.70000001788,112036.5,,112036.30000001192,,112068.399,8,400,,,
sequence,flow.Sequence,4_18,2023-10-31T21:10:44.594Z,,0,,,3517.081999999995,completion,,,,,false,,,,112036.90000000596,112036.5,108495.263,108504.5,108519.418,112068.399,8,400,,,
trial,html.Screen,4_19_0,2023-10-31T21:10:49.207Z,,0,1,,4581.001000005956,response,ISIC_0011684.JPG,7,ISIC_0027406.JPG,ISIC_0011684.JPG,false,1,keypress(m),500,116649.80000001192,116649.40000000596,112051.805,112037.09999999404,112068.399,116667.441,8,400,20,,ISIC_0027406.JPG
break,html.Screen,4_19_1,2023-10-31T21:10:49.209Z,,0,,,NaN,,,,,,false,,,,116651.80000001192,116651.59999999404,,116650,,116667.441,8,400,,,
break_continue,html.Screen,4_19_2,2023-10-31T21:10:49.209Z,,0,,,NaN,,,,,,false,,,,116652.20000001788,116652,,116652,,116667.441,8,400,,,
sequence,flow.Sequence,4_19,2023-10-31T21:10:49.209Z,,0,,,4583.600999999995,completion,,,,,false,,,,116652.30000001192,116652,112051.805,112037,112068.399,116667.441,8,400,,,
trial,html.Screen,4_20_0,2023-10-31T21:10:52.572Z,,0,1,,3346.9590000059543,response,ISIC_8252406.JPG,9,ISIC_5884700.JPG,ISIC_8252406.JPG,false,1,keypress(m),500,120014.70000001788,120014.40000000596,116636.61,116652.40000000596,116667.441,120032.43,8,400,21,,ISIC_5884700.JPG
break,html.Screen,4_20_1,2023-10-31T21:10:52.574Z,,0,,,NaN,,,,,,false,,,,120016.70000001788,120016.5,,120015,,120032.43,8,400,,,
break_continue,html.Screen,4_20_2,2023-10-31T21:10:52.574Z,,0,,,NaN,,,,,,false,,,,120017.09999999404,120017,,120016.80000001192,,120032.43,8,400,,,
sequence,flow.Sequence,4_20,2023-10-31T21:10:52.574Z,,0,,,3349.558999999994,completion,,,,,false,,,,120017.20000001788,120017,116636.61,116652.30000001192,116667.441,120032.43,8,400,,,
trial,html.Screen,4_21_0,2023-10-31T21:10:56.263Z,,0,1,,3673.570000000007,response,ISIC_4475657.JPG,8,ISIC_0064874.JPG,ISIC_4475657.JPG,false,1,keypress(m),500,123706.20000001788,123706,120009.028,120017.30000001192,120032.43,123723.347,8,400,22,,ISIC_0064874.JPG
break,html.Screen,4_21_1,2023-10-31T21:10:56.265Z,,0,,,NaN,,,,,,false,,,,123707.90000000596,123707.70000001788,,123706.40000000596,,123723.347,8,400,,,
break_continue,html.Screen,4_21_2,2023-10-31T21:10:56.265Z,,0,,,NaN,,,,,,false,,,,123708.20000001788,123708.09999999404,,123708,,123723.347,8,400,,,
sequence,flow.Sequence,4_21,2023-10-31T21:10:56.265Z,,0,,,3675.6699999940465,completion,,,,,false,,,,123708.40000000596,123708.09999999404,120009.028,120017.30000001192,120032.43,123723.347,8,400,,,
trial,html.Screen,4_22_0,2023-10-31T21:10:59.920Z,,0,1,,3638.4530000119266,response,ISIC_1200689.JPG,10,ISIC_0064279.JPG,ISIC_1200689.JPG,false,1,keypress(m),500,127362.70000001788,127361.80000001192,123702.725,123708.5,123723.347,127380.623,8,400,23,,ISIC_0064279.JPG
break,html.Screen,4_22_1,2023-10-31T21:10:59.922Z,,0,,,NaN,,,,,,false,,,,127364.90000000596,127364.59999999404,,127363.09999999404,,127380.623,8,400,,,
break_continue,html.Screen,4_22_2,2023-10-31T21:10:59.922Z,,0,,,NaN,,,,,,false,,,,127365.30000001192,127365.30000001192,,127365.09999999404,,127380.623,8,400,,,
sequence,flow.Sequence,4_22,2023-10-31T21:10:59.922Z,,0,,,3641.9530000119266,completion,,,,,false,,,,127365.5,127365.30000001192,123702.725,123708.40000000596,123723.347,127380.623,8,400,,,
trial,html.Screen,4_23_0,2023-10-31T21:11:02.664Z,,0,1,,2725.9769999940327,response,ISIC_8194467.JPG,8,ISIC_0060659.JPG,ISIC_0060659.JPG,false,0,keypress(z),500,130107,130106.59999999404,127361.667,127365.5,127380.623,130119.969,8,400,24,,ISIC_8194467.JPG
break,html.Screen,4_23_1,2023-10-31T21:11:02.665Z,,0,,,NaN,,,,,,false,,,,130108.40000000596,130108,,130107.20000001788,,130119.969,8,400,,,
break_continue,html.Screen,4_23_2,2023-10-31T21:11:02.666Z,,0,,,NaN,,,,,,false,,,,130108.70000001788,130108.70000001788,,130108.5,,130119.969,8,400,,,
sequence,flow.Sequence,4_23,2023-10-31T21:11:02.666Z,,0,,,2728.0770000178745,completion,,,,,false,,,,130108.90000000596,130108.70000001788,127361.667,127365.5,127380.623,130119.969,8,400,,,
trial,html.Screen,4_24_0,2023-10-31T21:11:05.393Z,,0,1,,2715.731000017884,response,ISIC_4591316.JPG,5,ISIC_0063680.JPG,ISIC_0063680.JPG,false,0,keypress(z),500,132836.09999999404,132835.70000001788,130103.633,130109,130119.969,132853.897,8,400,25,,ISIC_4591316.JPG
break,html.Screen,4_24_1,2023-10-31T21:11:05.395Z,,0,,,NaN,,,,,,false,,,,132838.30000001192,132838.09999999404,,132836.30000001192,,132853.897,8,400,,,
break_continue,html.Screen,4_24_2,2023-10-31T21:11:05.396Z,,0,,,NaN,,,,,,false,,,,132838.80000001192,132838.70000001788,,132838.5,,132853.897,8,400,,,
sequence,flow.Sequence,4_24,2023-10-31T21:11:05.396Z,,0,,,2718.731000017884,completion,,,,,false,,,,132838.90000000596,132838.70000001788,130103.633,130109,130119.969,132853.897,8,400,,,
trial,html.Screen,4_25_0,2023-10-31T21:11:08.187Z,,0,1,,2775.803000017884,response,ISIC_0031863.JPG,7,ISIC_5831880.JPG,ISIC_0031863.JPG,false,1,keypress(m),500,135630.09999999404,135629.70000001788,132824.369,132839,132853.897,135647.958,8,400,26,,ISIC_5831880.JPG
break,html.Screen,4_25_1,2023-10-31T21:11:08.189Z,,0,,,NaN,,,,,,false,,,,135632.09999999404,135631.90000000596,,135630.30000001192,,135647.958,8,400,,,
break_continue,html.Screen,4_25_2,2023-10-31T21:11:08.190Z,,0,,,NaN,,,,,,false,,,,135632.59999999404,135632.40000000596,,135632.20000001788,,135647.958,8,400,,,
sequence,flow.Sequence,4_25,2023-10-31T21:11:08.190Z,,0,,,2778.5030000059633,completion,,,,,false,,,,135632.59999999404,135632.40000000596,132824.369,132839,132853.897,135647.958,8,400,,,
trial,html.Screen,4_26_0,2023-10-31T21:11:11.348Z,,0,1,,3142.942000005947,response,ISIC_2376016.JPG,5,ISIC_0011064.JPG,ISIC_0011064.JPG,false,0,keypress(z),500,138791.30000001192,138790.90000000596,135625.988,135632.70000001788,135647.958,138813.7,8,400,27,,ISIC_2376016.JPG
break,html.Screen,4_26_1,2023-10-31T21:11:11.349Z,,0,,,NaN,,,,,,false,,,,138792.5,138792.30000001192,,138791.59999999404,,138813.7,8,400,,,
break_continue,html.Screen,4_26_2,2023-10-31T21:11:11.350Z,,0,,,NaN,,,,,,false,,,,138792.90000000596,138792.80000001192,,138792.70000001788,,138813.7,8,400,,,
sequence,flow.Sequence,4_26,2023-10-31T21:11:11.350Z,,0,,,3144.8420000119077,completion,,,,,false,,,,138793.09999999404,138792.80000001192,135625.988,135632.70000001788,135647.958,138813.7,8,400,,,
trial,html.Screen,4_27_0,2023-10-31T21:11:15.230Z,,0,1,,3858.7999999999884,response,ISIC_0711360.JPG,11,ISIC_5910975.JPG,ISIC_5910975.JPG,false,0,keypress(z),500,142672.90000000596,142672.5,138782.379,138793.30000001192,138813.7,142690.695,8,400,28,,ISIC_0711360.JPG
break,html.Screen,4_27_1,2023-10-31T21:11:15.232Z,,0,,,NaN,,,,,,false,,,,142675.09999999404,142674.90000000596,,142673.09999999404,,142690.695,8,400,,,
break_continue,html.Screen,4_27_2,2023-10-31T21:11:15.232Z,,0,,,NaN,,,,,,false,,,,142675.5,142675.40000000596,,142675.20000001788,,142690.695,8,400,,,
sequence,flow.Sequence,4_27,2023-10-31T21:11:15.233Z,,0,,,3861.700000005949,completion,,,,,false,,,,142675.59999999404,142675.40000000596,138782.379,138793.30000001192,138813.7,142690.695,8,400,,,
trial,html.Screen,4_28_0,2023-10-31T21:11:17.995Z,,0,1,,2746.4049999940326,response,ISIC_0024892.JPG,6,ISIC_0010809.JPG,ISIC_0010809.JPG,false,0,keypress(z),500,145437.59999999404,145437.09999999404,142662.452,142675.80000001192,142690.695,145455.397,8,400,29,,ISIC_0024892.JPG
break,html.Screen,4_28_1,2023-10-31T21:11:17.997Z,,0,,,NaN,,,,,,false,,,,145439.59999999404,145439.30000001192,,145437.80000001192,,145455.397,8,400,,,
break_continue,html.Screen,4_28_2,2023-10-31T21:11:17.997Z,,0,,,NaN,,,,,,false,,,,145439.90000000596,145439.80000001192,,145439.70000001788,,145455.397,8,400,,,
sequence,flow.Sequence,4_28,2023-10-31T21:11:17.997Z,,0,,,2749.105000011914,completion,,,,,false,,,,145440,145439.80000001192,142662.452,142675.70000001788,142690.695,145455.397,8,400,,,
trial,html.Screen,4_29_0,2023-10-31T21:11:21.684Z,,0,1,,3671.103000000003,response,ISIC_0058676.JPG,12,ISIC_5910975.JPG,ISIC_5910975.JPG,false,0,keypress(z),500,149126.80000001192,149126.5,145432.299,145440,145455.397,149144.924,8,400,30,,ISIC_0058676.JPG
break,html.Screen,4_29_1,2023-10-31T21:11:21.685Z,,0,,,NaN,,,,,,false,,,,149128.30000001192,149128.09999999404,,149127.09999999404,,149144.924,8,400,,,
break_continue,html.Screen,4_29_2,2023-10-31T21:11:21.686Z,,0,,,NaN,,,,,,false,,,,149128.59999999404,149128.59999999404,,149128.40000000596,,149144.924,8,400,,,
sequence,flow.Sequence,4_29,2023-10-31T21:11:21.686Z,,0,,,3673.2029999940423,completion,,,,,false,,,,149128.80000001192,149128.59999999404,145432.299,145440,145455.397,149144.924,8,400,,,
trial,html.Screen,4_30_0,2023-10-31T21:11:24.969Z,,0,1,,3266.376000011922,response,ISIC_0001112.JPG,5,ISIC_8040024.JPG,ISIC_0001112.JPG,false,1,keypress(m),500,152411.70000001788,152411.30000001192,149112.276,149128.90000000596,149144.924,152429.16,8,400,31,,ISIC_8040024.JPG
break,html.Screen,4_30_1,2023-10-31T21:11:24.970Z,,0,,,NaN,,,,,,false,,,,152413.5,152413.30000001192,,152411.80000001192,,152429.16,8,400,,,
break_continue,html.Screen,4_30_2,2023-10-31T21:11:24.971Z,,0,,,NaN,,,,,,false,,,,152413.70000001788,152413.70000001788,,152413.59999999404,,152429.16,8,400,,,
sequence,flow.Sequence,4_30,2023-10-31T21:11:24.971Z,,0,,,3268.7760000178823,completion,,,,,false,,,,152413.90000000596,152413.70000001788,149112.276,149128.80000001192,149144.924,152429.16,8,400,,,
trial,html.Screen,4_31_0,2023-10-31T21:11:28.193Z,,0,1,,3205.939999994036,response,ISIC_8154363.JPG,11,ISIC_8671453.JPG,ISIC_8154363.JPG,false,1,keypress(m),500,155636.09999999404,155635.09999999404,152405.515,152414,152429.16,155642.834,8,400,32,,ISIC_8671453.JPG
break,html.Screen,4_31_1,2023-10-31T21:11:28.195Z,,0,,,NaN,,,,,,false,,,,155638.40000000596,155638,,155636.5,,155642.834,8,400,,,
break_continue,html.Screen,4_31_2,2023-10-31T21:11:28.196Z,,0,,,NaN,,,,,,false,,,,155638.80000001192,155638.70000001788,,155638.5,,155642.834,8,400,,,
sequence,flow.Sequence,4_31,2023-10-31T21:11:28.196Z,,0,,,3209.540000017878,completion,,,,,false,,,,155638.90000000596,155638.70000001788,152405.515,152414,152429.16,155642.834,8,400,,,
trial,html.Screen,4_32_0,2023-10-31T21:11:31.483Z,,0,1,,3282.265999994037,response,ISIC_0024298.JPG,6,ISIC_0007678.JPG,ISIC_0024298.JPG,false,1,keypress(m),500,158925.5,158925.09999999404,155624.501,155639.09999999404,155642.834,158943.257,8,400,33,,ISIC_0007678.JPG
break,html.Screen,4_32_1,2023-10-31T21:11:31.485Z,,0,,,NaN,,,,,,false,,,,158927.70000001788,158927.5,,158925.80000001192,,158943.257,8,400,,,
break_continue,html.Screen,4_32_2,2023-10-31T21:11:31.485Z,,0,,,NaN,,,,,,false,,,,158928.20000001788,158928,,158927.80000001192,,158943.257,8,400,,,
sequence,flow.Sequence,4_32,2023-10-31T21:11:31.485Z,,0,,,3285.1659999999974,completion,,,,,false,,,,158928.20000001788,158928,155624.501,155639,155642.834,158943.257,8,400,,,
trial,html.Screen,4_33_0,2023-10-31T21:11:35.039Z,,0,1,,3538.5430000119086,response,ISIC_3124612.JPG,10,ISIC_0026120.JPG,ISIC_0026120.JPG,false,0,keypress(z),500,162482.09999999404,162481.80000001192,158923.489,158928.40000000596,158943.257,162492.404,8,400,34,,ISIC_3124612.JPG
break,html.Screen,4_33_1,2023-10-31T21:11:35.041Z,,0,,,NaN,,,,,,false,,,,162483.59999999404,162483.20000001788,,162482.30000001192,,162492.404,8,400,,,
break_continue,html.Screen,4_33_2,2023-10-31T21:11:35.041Z,,0,,,NaN,,,,,,false,,,,162484,162483.90000000596,,162483.70000001788,,162492.404,8,400,,,
sequence,flow.Sequence,4_33,2023-10-31T21:11:35.041Z,,0,,,3540.643000005948,completion,,,,,false,,,,162484.20000001788,162483.90000000596,158923.489,158928.40000000596,158943.257,162492.404,8,400,,,
trial,html.Screen,4_34_0,2023-10-31T21:11:38.708Z,,0,1,,3658.496000005951,response,ISIC_1159891.JPG,8,ISIC_2563568.JPG,ISIC_1159891.JPG,false,1,keypress(m),500,166151.40000000596,166150.90000000596,162475.983,162484.30000001192,162492.404,166169.934,8,400,35,,ISIC_2563568.JPG
break,html.Screen,4_34_1,2023-10-31T21:11:38.711Z,,0,,,NaN,,,,,,false,,,,166154.40000000596,166154.09999999404,,166152.20000001788,,166169.934,8,400,,,
break_continue,html.Screen,4_34_2,2023-10-31T21:11:38.712Z,,0,,,NaN,,,,,,false,,,,166155.20000001788,166155,,166154.70000001788,,166169.934,8,400,,,
sequence,flow.Sequence,4_34,2023-10-31T21:11:38.712Z,,0,,,3662.5959999999905,completion,,,,,false,,,,166155.5,166155,162475.983,162484.20000001788,162492.404,166169.934,8,400,,,
trial,html.Screen,4_35_0,2023-10-31T21:11:41.663Z,,0,1,,2935.665999994031,response,ISIC_0068438.JPG,11,ISIC_5840341.JPG,ISIC_0068438.JPG,false,1,keypress(m),500,169106.09999999404,169105.59999999404,166140.056,166155.80000001192,166169.934,169112.154,8,400,36,,ISIC_5840341.JPG
break,html.Screen,4_35_1,2023-10-31T21:11:41.666Z,,0,,,NaN,,,,,,false,,,,169108.59999999404,169108.40000000596,,169106.40000000596,,169112.154,8,400,,,
break_continue,html.Screen,4_35_2,2023-10-31T21:11:41.666Z,,0,,,NaN,,,,,,false,,,,169109.09999999404,169109,,169108.90000000596,,169112.154,8,400,,,
sequence,flow.Sequence,4_35,2023-10-31T21:11:41.666Z,,0,,,2939.0659999999916,completion,,,,,false,,,,169109.30000001192,169109,166140.056,166155.59999999404,166169.934,169112.154,8,400,,,
trial,html.Screen,4_36_0,2023-10-31T21:11:44.603Z,,0,1,,2933.746000005951,response,ISIC_4640181.JPG,5,ISIC_0010765.JPG,ISIC_0010765.JPG,false,0,keypress(z),500,172046.20000001788,172045.90000000596,169103.677,169109.40000000596,169112.154,172063.902,8,400,37,,ISIC_4640181.JPG
break,html.Screen,4_36_1,2023-10-31T21:11:44.605Z,,0,,,NaN,,,,,,false,,,,172048,172047.80000001192,,172046.40000000596,,172063.902,8,400,,,
break_continue,html.Screen,4_36_2,2023-10-31T21:11:44.605Z,,0,,,NaN,,,,,,false,,,,172048.30000001192,172048.20000001788,,172048.09999999404,,172063.902,8,400,,,
sequence,flow.Sequence,4_36,2023-10-31T21:11:44.605Z,,0,,,2936.046000017872,completion,,,,,false,,,,172048.5,172048.20000001788,169103.677,169109.40000000596,169112.154,172063.902,8,400,,,
trial,html.Screen,4_37_0,2023-10-31T21:11:47.681Z,,0,1,,3059.398000011919,response,ISIC_1231419.JPG,11,ISIC_0033029.JPG,ISIC_0033029.JPG,false,0,keypress(z),500,175123.59999999404,175123.30000001192,172034.713,172048.5,172063.902,175141.266,8,400,38,,ISIC_1231419.JPG
break,html.Screen,4_37_1,2023-10-31T21:11:47.682Z,,0,,,NaN,,,,,,false,,,,175125.40000000596,175125.20000001788,,175123.80000001192,,175141.266,8,400,,,
break_continue,html.Screen,4_37_2,2023-10-31T21:11:47.683Z,,0,,,NaN,,,,,,false,,,,175125.70000001788,175125.59999999404,,175125.59999999404,,175141.266,8,400,,,
sequence,flow.Sequence,4_37,2023-10-31T21:11:47.683Z,,0,,,3061.6979999940377,completion,,,,,false,,,,175125.90000000596,175125.59999999404,172034.713,172048.5,172063.902,175141.266,8,400,,,
trial,html.Screen,4_38_0,2023-10-31T21:11:51.080Z,,0,1,,3381.5340000119177,response,ISIC_0482585.JPG,7,ISIC_0011348.JPG,ISIC_0011348.JPG,false,0,keypress(z),500,178523.20000001788,178522.80000001192,175118.242,175126,175141.266,178540.889,8,400,39,,ISIC_0482585.JPG
break,html.Screen,4_38_1,2023-10-31T21:11:51.082Z,,0,,,NaN,,,,,,false,,,,178525.20000001788,178524.90000000596,,178523.40000000596,,178540.889,8,400,,,
break_continue,html.Screen,4_38_2,2023-10-31T21:11:51.083Z,,0,,,NaN,,,,,,false,,,,178525.70000001788,178525.5,,178525.40000000596,,178540.889,8,400,,,
sequence,flow.Sequence,4_38,2023-10-31T21:11:51.083Z,,0,,,3384.2339999999967,completion,,,,,false,,,,178525.80000001192,178525.5,175118.242,175125.90000000596,175141.266,178540.889,8,400,,,
trial,html.Screen,4_39_0,2023-10-31T21:11:53.999Z,,0,1,,2901.011000005965,response,ISIC_0058768.JPG,13,ISIC_2433965.JPG,ISIC_0058768.JPG,false,1,keypress(m),500,181442.20000001788,181441.90000000596,178513.241,178525.90000000596,178540.889,181459.908,8,400,40,,ISIC_2433965.JPG
break,html.Screen,4_39_1,2023-10-31T21:11:54.001Z,,0,,,NaN,,,,,,false,,,,181444.20000001788,181444,,181442.5,,181459.908,8,400,,,
break_continue,html.Screen,4_39_2,2023-10-31T21:11:54.002Z,,0,,,NaN,,,,,,false,,,,181444.59999999404,181444.5,,181444.30000001192,,181459.908,8,400,,,
sequence,flow.Sequence,4_39,2023-10-31T21:11:54.002Z,,0,,,2903.6110000000044,completion,,,,,false,,,,181444.70000001788,181444.5,178513.241,178525.90000000596,178540.889,181459.908,8,400,,,
trial,html.Screen,4_40_0,2023-10-31T21:11:57.657Z,,0,1,,3639.9920000059647,response,ISIC_0032484.JPG,7,ISIC_0034074.JPG,ISIC_0034074.JPG,false,0,keypress(z),500,185100.20000001788,185099.90000000596,181429.667,181444.80000001192,181459.908,185119.921,8,400,41,,ISIC_0032484.JPG
break,html.Screen,4_40_1,2023-10-31T21:11:57.658Z,,0,,,NaN,,,,,,false,,,,185101.30000001192,185101.09999999404,,185100.40000000596,,185119.921,8,400,,,
break_continue,html.Screen,4_40_2,2023-10-31T21:11:57.659Z,,0,,,NaN,,,,,,false,,,,185101.59999999404,185101.5,,185101.40000000596,,185119.921,8,400,,,
sequence,flow.Sequence,4_40,2023-10-31T21:11:57.659Z,,0,,,3641.592000000004,completion,,,,,false,,,,185101.80000001192,185101.5,181429.667,181444.80000001192,181459.908,185119.921,8,400,,,
trial,html.Screen,4_41_0,2023-10-31T21:12:00.307Z,,0,1,,2629.4790000059584,response,ISIC_0062031.JPG,6,ISIC_0029017.JPG,ISIC_0062031.JPG,false,1,keypress(m),500,187749.70000001788,187749.40000000596,185102.93,185102.09999999404,185119.921,187767.71,8,400,42,,ISIC_0029017.JPG
break,html.Screen,4_41_1,2023-10-31T21:12:00.309Z,,0,,,NaN,,,,,,false,,,,187751.80000001192,187751.5,,187750,,187767.71,8,400,,,
break_continue,html.Screen,4_41_2,2023-10-31T21:12:00.309Z,,0,,,NaN,,,,,,false,,,,187752.20000001788,187752.09999999404,,187752,,187767.71,8,400,,,
sequence,flow.Sequence,4_41,2023-10-31T21:12:00.309Z,,0,,,2632.1789999940374,completion,,,,,false,,,,187752.30000001192,187752.09999999404,185102.93,185102.09999999404,185119.921,187767.71,8,400,,,
trial,html.Screen,4_42_0,2023-10-31T21:12:04.283Z,,0,1,,3958.090000011929,response,ISIC_8790198.JPG,9,ISIC_0331389.JPG,ISIC_0331389.JPG,false,0,keypress(z),500,191726.20000001788,191725.80000001192,187741.568,187752.40000000596,187767.71,191732.341,8,400,43,,ISIC_8790198.JPG
break,html.Screen,4_42_1,2023-10-31T21:12:04.286Z,,0,,,NaN,,,,,,false,,,,191728.70000001788,191728.30000001192,,191726.5,,191732.341,8,400,,,
break_continue,html.Screen,4_42_2,2023-10-31T21:12:04.286Z,,0,,,NaN,,,,,,false,,,,191729.30000001192,191729.20000001788,,191729,,191732.341,8,400,,,
sequence,flow.Sequence,4_42,2023-10-31T21:12:04.286Z,,0,,,3961.4900000178895,completion,,,,,false,,,,191729.5,191729.20000001788,187741.568,187752.30000001192,187767.71,191732.341,8,400,,,
trial,html.Screen,4_43_0,2023-10-31T21:12:07.186Z,,0,1,,2896.159000000014,response,ISIC_0027921.JPG,8,ISIC_0070253.JPG,ISIC_0070253.JPG,false,0,keypress(z),500,194629.09999999404,194628.5,191718.32,191729.70000001788,191732.341,194647.182,8,400,44,,ISIC_0027921.JPG
break,html.Screen,4_43_1,2023-10-31T21:12:07.189Z,,0,,,NaN,,,,,,false,,,,194631.70000001788,194631.40000000596,,194629.59999999404,,194647.182,8,400,,,
break_continue,html.Screen,4_43_2,2023-10-31T21:12:07.189Z,,0,,,NaN,,,,,,false,,,,194632,194631.90000000596,,194631.80000001192,,194647.182,8,400,,,
sequence,flow.Sequence,4_43,2023-10-31T21:12:07.189Z,,0,,,2899.5590000059747,completion,,,,,false,,,,194632.20000001788,194631.90000000596,191718.32,191729.59999999404,191732.341,194647.182,8,400,,,
trial,html.Screen,4_44_0,2023-10-31T21:12:10.519Z,,0,1,,3314.417999994039,response,ISIC_0025941.JPG,10,ISIC_2536779.JPG,ISIC_2536779.JPG,false,0,keypress(z),500,197961.90000000596,197961.59999999404,194614.992,194632.30000001192,194647.182,197978.692,8,400,45,,ISIC_0025941.JPG
break,html.Screen,4_44_1,2023-10-31T21:12:10.521Z,,0,,,NaN,,,,,,false,,,,197964.20000001788,197963.90000000596,,197962.20000001788,,197978.692,8,400,,,
break_continue,html.Screen,4_44_2,2023-10-31T21:12:10.521Z,,0,,,NaN,,,,,,false,,,,197964.59999999404,197964.5,,197964.30000001192,,197978.692,8,400,,,
sequence,flow.Sequence,4_44,2023-10-31T21:12:10.522Z,,0,,,3317.3179999999993,completion,,,,,false,,,,197964.59999999404,197964.5,194614.992,194632.30000001192,194647.182,197978.692,8,400,,,
trial,html.Screen,4_45_0,2023-10-31T21:12:13.394Z,,0,1,,2857.608000011911,response,ISIC_0028127.JPG,6,ISIC_0031543.JPG,ISIC_0031543.JPG,false,0,keypress(z),500,200836.59999999404,200836.30000001192,197951.77,197964.70000001788,197978.692,200854.502,8,400,46,,ISIC_0028127.JPG
break,html.Screen,4_45_1,2023-10-31T21:12:13.396Z,,0,,,NaN,,,,,,false,,,,200838.70000001788,200838.59999999404,,200836.90000000596,,200854.502,8,400,,,
break_continue,html.Screen,4_45_2,2023-10-31T21:12:13.396Z,,0,,,NaN,,,,,,false,,,,200839.20000001788,200839.09999999404,,200838.80000001192,,200854.502,8,400,,,
sequence,flow.Sequence,4_45,2023-10-31T21:12:13.396Z,,0,,,2860.4079999940295,completion,,,,,false,,,,200839.30000001192,200839.09999999404,197951.77,197964.70000001788,197978.692,200854.502,8,400,,,
trial,html.Screen,4_46_0,2023-10-31T21:12:17.112Z,,0,1,,3700.097999994032,response,ISIC_0175530.JPG,7,ISIC_0026853.JPG,ISIC_0026853.JPG,false,0,keypress(z),500,204555.09999999404,204554.59999999404,200836.834,200839.30000001192,200854.502,204579.139,8,400,47,,ISIC_0175530.JPG
break,html.Screen,4_46_1,2023-10-31T21:12:17.113Z,,0,,,NaN,,,,,,false,,,,204556.20000001788,204555.90000000596,,204555.40000000596,,204579.139,8,400,,,
break_continue,html.Screen,4_46_2,2023-10-31T21:12:17.113Z,,0,,,NaN,,,,,,false,,,,204556.59999999404,204556.5,,204556.30000001192,,204579.139,8,400,,,
sequence,flow.Sequence,4_46,2023-10-31T21:12:17.114Z,,0,,,3701.9979999999923,completion,,,,,false,,,,204556.70000001788,204556.5,200836.834,200839.30000001192,200854.502,204579.139,8,400,,,
trial,html.Screen,4_47_0,2023-10-31T21:12:19.901Z,,0,1,,2764.460999994044,response,ISIC_2000319.JPG,12,ISIC_4579262.JPG,ISIC_2000319.JPG,false,1,keypress(m),500,207344.09999999404,207343.59999999404,204562.534,204556.80000001192,204579.139,207362.082,8,400,48,,ISIC_4579262.JPG
break,html.Screen,4_47_1,2023-10-31T21:12:19.903Z,,0,,,NaN,,,,,,false,,,,207346.30000001192,207345.90000000596,,207344.40000000596,,207362.082,8,400,,,
break_continue,html.Screen,4_47_2,2023-10-31T21:12:19.904Z,,0,,,NaN,,,,,,false,,,,207346.59999999404,207346.5,,207346.40000000596,,207362.082,8,400,,,
sequence,flow.Sequence,4_47,2023-10-31T21:12:19.904Z,,0,,,2767.3610000000044,completion,,,,,false,,,,207346.80000001192,207346.5,204562.534,204556.80000001192,204579.139,207362.082,8,400,,,
trial,html.Screen,4_48_0,2023-10-31T21:12:22.570Z,,0,1,,2650.218000011926,response,ISIC_0010967.JPG,6,ISIC_7755875.JPG,ISIC_0010967.JPG,false,1,keypress(m),500,210012.59999999404,210012.30000001192,207341.612,207346.90000000596,207362.082,210030.249,8,400,49,,ISIC_7755875.JPG
break,html.Screen,4_48_1,2023-10-31T21:12:22.571Z,,0,,,NaN,,,,,,false,,,,210014.30000001192,210014.20000001788,,210012.90000000596,,210030.249,8,400,,,
break_continue,html.Screen,4_48_2,2023-10-31T21:12:22.572Z,,0,,,NaN,,,,,,false,,,,210014.80000001192,210014.59999999404,,210014.5,,210030.249,8,400,,,
sequence,flow.Sequence,4_48,2023-10-31T21:12:22.572Z,,0,,,2652.5179999940447,completion,,,,,false,,,,210014.90000000596,210014.59999999404,207341.612,207346.90000000596,207362.082,210030.249,8,400,,,
trial,html.Screen,4_49_0,2023-10-31T21:12:25.342Z,,0,1,,2754.05100001191,response,ISIC_6383486.JPG,6,ISIC_0072173.JPG,ISIC_0072173.JPG,false,0,keypress(z),500,212785.40000000596,212784.30000001192,210010.449,210015,210030.249,212803.364,8,400,50,,ISIC_6383486.JPG
break,html.Screen,4_49_1,2023-10-31T21:12:35.345Z,,0,,,9999.51999999999,timeout,,,,,false,,,,222787.59999999404,222786.677,212776.863,212785.70000001788,212803.364,222802.884,8,400,,,
break_continue,html.Screen,4_49_2,2023-10-31T21:12:38.248Z,,0,,,2874.8160000178905,response,,,,,false,continue,keypress(Space),,225690.59999999404,225677.70000001788,222786.677,222787.80000001192,222802.884,225708.161,8,400,,,
sequence,flow.Sequence,4_49,2023-10-31T21:12:38.248Z,,0,,,15647.45100001787,completion,,,,,false,,,,225690.80000001192,225677.70000001788,210010.449,210014.90000000596,210030.249,225708.161,8,400,,,
trial,html.Screen,4_50_0,2023-10-31T21:12:41.810Z,,0,2,,3544.4389999940468,response,ISIC_0026428.JPG,9,ISIC_0000549.JPG,ISIC_0000549.JPG,false,0,keypress(z),500,229253,229252.59999999404,225686.559,225691,225708.161,229270.605,8,400,1,,ISIC_0026428.JPG
break,html.Screen,4_50_1,2023-10-31T21:12:41.812Z,,0,,,NaN,,,,,,false,,,,229254.80000001192,229254.59999999404,,229253.20000001788,,229270.605,8,400,,,
break_continue,html.Screen,4_50_2,2023-10-31T21:12:41.812Z,,0,,,NaN,,,,,,false,,,,229255.09999999404,229255,,229254.90000000596,,229270.605,8,400,,,
sequence,flow.Sequence,4_50,2023-10-31T21:12:41.812Z,,0,,,3546.839000000007,completion,,,,,false,,,,229255.20000001788,229255,225686.559,225691,225708.161,229270.605,8,400,,,
trial,html.Screen,4_51_0,2023-10-31T21:12:44.637Z,,0,2,,2808.494999994029,response,ISIC_0014288.JPG,5,ISIC_0032190.JPG,ISIC_0014288.JPG,false,1,keypress(m),500,232079.59999999404,232079.09999999404,229242.536,229255.30000001192,229270.605,232097.049,8,400,2,,ISIC_0032190.JPG
break,html.Screen,4_51_1,2023-10-31T21:12:44.639Z,,0,,,NaN,,,,,,false,,,,232081.59999999404,232081.40000000596,,232079.90000000596,,232097.049,8,400,,,
break_continue,html.Screen,4_51_2,2023-10-31T21:12:44.639Z,,0,,,NaN,,,,,,false,,,,232081.90000000596,232081.90000000596,,232081.70000001788,,232097.049,8,400,,,
sequence,flow.Sequence,4_51,2023-10-31T21:12:44.639Z,,0,,,2811.29500000595,completion,,,,,false,,,,232082.09999999404,232081.90000000596,229242.536,229255.30000001192,229270.605,232097.049,8,400,,,
trial,html.Screen,4_52_0,2023-10-31T21:12:47.753Z,,0,2,,3098.751000011922,response,ISIC_0031408.JPG,11,ISIC_9406275.JPG,ISIC_0031408.JPG,false,1,keypress(m),500,235196.30000001192,235195.80000001192,232073.415,232082.20000001788,232097.049,235214.342,8,400,3,,ISIC_9406275.JPG
break,html.Screen,4_52_1,2023-10-31T21:12:47.756Z,,0,,,NaN,,,,,,false,,,,235198.80000001192,235198.40000000596,,235196.59999999404,,235214.342,8,400,,,
break_continue,html.Screen,4_52_2,2023-10-31T21:12:47.756Z,,0,,,NaN,,,,,,false,,,,235199.30000001192,235199.20000001788,,235198.90000000596,,235214.342,8,400,,,
sequence,flow.Sequence,4_52,2023-10-31T21:12:47.756Z,,0,,,3102.1510000178823,completion,,,,,false,,,,235199.5,235199.20000001788,232073.415,232082.20000001788,232097.049,235214.342,8,400,,,
trial,html.Screen,4_53_0,2023-10-31T21:12:50.836Z,,0,2,,3064.5580000059563,response,ISIC_6661904.JPG,12,ISIC_0031914.JPG,ISIC_0031914.JPG,false,0,keypress(z),500,238279.30000001192,238278.90000000596,235197.37,235199.59999999404,235214.342,238297.102,8,400,4,,ISIC_6661904.JPG
break,html.Screen,4_53_1,2023-10-31T21:12:50.838Z,,0,,,NaN,,,,,,false,,,,238281.40000000596,238281.09999999404,,238279.70000001788,,238297.102,8,400,,,
break_continue,html.Screen,4_53_2,2023-10-31T21:12:50.839Z,,0,,,NaN,,,,,,false,,,,238281.90000000596,238281.80000001192,,238281.59999999404,,238297.102,8,400,,,
sequence,flow.Sequence,4_53,2023-10-31T21:12:50.839Z,,0,,,3067.4580000119167,completion,,,,,false,,,,238282,238281.80000001192,235197.37,235199.59999999404,235214.342,238297.102,8,400,,,
trial,html.Screen,4_54_0,2023-10-31T21:12:57.210Z,,0,2,,6355.798000005947,response,ISIC_4397068.JPG,9,ISIC_0014883.JPG,ISIC_4397068.JPG,false,1,keypress(m),500,244653.30000001192,244652.90000000596,238267.614,238282.09999999404,238297.102,244671.149,8,400,5,,ISIC_0014883.JPG
break,html.Screen,4_54_1,2023-10-31T21:12:57.212Z,,0,,,NaN,,,,,,false,,,,244655.5,244655.20000001788,,244653.59999999404,,244671.149,8,400,,,
break_continue,html.Screen,4_54_2,2023-10-31T21:12:57.213Z,,0,,,NaN,,,,,,false,,,,244655.90000000596,244655.70000001788,,244655.70000001788,,244671.149,8,400,,,
sequence,flow.Sequence,4_54,2023-10-31T21:12:57.213Z,,0,,,6358.598000017868,completion,,,,,false,,,,244656,244655.70000001788,238267.614,238282.09999999404,238297.102,244671.149,8,400,,,
trial,html.Screen,4_55_0,2023-10-31T21:13:03.472Z,,0,2,,6243.751000005956,response,ISIC_9509757.JPG,7,ISIC_0034068.JPG,ISIC_9509757.JPG,false,1,keypress(m),500,250915.40000000596,250914.90000000596,244639.837,244656.20000001788,244671.149,250932.768,8,400,6,,ISIC_0034068.JPG
break,html.Screen,4_55_1,2023-10-31T21:13:03.474Z,,0,,,NaN,,,,,,false,,,,250917.40000000596,250917.09999999404,,250915.80000001192,,250932.768,8,400,,,
break_continue,html.Screen,4_55_2,2023-10-31T21:13:03.475Z,,0,,,NaN,,,,,,false,,,,250917.80000001192,250917.59999999404,,250917.5,,250932.768,8,400,,,
sequence,flow.Sequence,4_55,2023-10-31T21:13:03.475Z,,0,,,6246.450999994035,completion,,,,,false,,,,250917.90000000596,250917.59999999404,244639.837,244656.20000001788,244671.149,250932.768,8,400,,,
trial,html.Screen,4_56_0,2023-10-31T21:13:14.969Z,,0,2,,11511.213000000018,timeout,ISIC_2482061.JPG,12,ISIC_8340256.JPG,,false,,,500,262411.59999999404,262411.2000000179,250911.038,250917.90000000596,250932.768,262443.981,8,400,7,,
break,html.Screen,4_56_1,2023-10-31T21:13:14.969Z,,0,,,NaN,,,,,,false,,,,262412.3000000119,262412.2000000179,,262411.7000000179,,262443.981,8,400,,,
break_continue,html.Screen,4_56_2,2023-10-31T21:13:14.970Z,,0,,,NaN,,,,,,false,,,,262412.59999999404,262412.59999999404,,262412.40000000596,,262443.981,8,400,,,
sequence,flow.Sequence,4_56,2023-10-31T21:13:14.970Z,,0,,,11479.831999994029,completion,,,,,false,,,,262412.8000000119,262412.59999999404,250911.038,250917.90000000596,250932.768,262443.981,8,400,,,
trial,html.Screen,4_57_0,2023-10-31T21:13:18.403Z,,0,2,,3401.6189999940107,response,ISIC_6644834.JPG,10,ISIC_9720518.JPG,ISIC_9720518.JPG,false,0,keypress(z),500,265846.5,265845.59999999404,262427.655,262412.8000000119,262443.981,265863.819,8,400,8,,ISIC_6644834.JPG
break,html.Screen,4_57_1,2023-10-31T21:13:18.406Z,,0,,,NaN,,,,,,false,,,,265848.5,265848.3000000119,,265846.8000000119,,265863.819,8,400,,,
break_continue,html.Screen,4_57_2,2023-10-31T21:13:18.406Z,,0,,,NaN,,,,,,false,,,,265848.90000000596,265848.7000000179,,265848.59999999404,,265863.819,8,400,,,
sequence,flow.Sequence,4_57,2023-10-31T21:13:18.406Z,,0,,,3404.7190000178525,completion,,,,,false,,,,265849,265848.7000000179,262427.655,262412.8000000119,262443.981,265863.819,8,400,,,
trial,html.Screen,4_58_0,2023-10-31T21:13:21.803Z,,0,2,,3382.280999994022,response,ISIC_9053910.JPG,10,ISIC_0026394.JPG,ISIC_9053910.JPG,false,1,keypress(m),500,269246.40000000596,269246.09999999404,265844.466,265849.09999999404,265863.819,269264.263,8,400,9,,ISIC_0026394.JPG
break,html.Screen,4_58_1,2023-10-31T21:13:21.805Z,,0,,,NaN,,,,,,false,,,,269248.40000000596,269248.2000000179,,269246.7000000179,,269264.263,8,400,,,
break_continue,html.Screen,4_58_2,2023-10-31T21:13:21.806Z,,0,,,NaN,,,,,,false,,,,269248.90000000596,269248.8000000119,,269248.59999999404,,269264.263,8,400,,,
sequence,flow.Sequence,4_58,2023-10-31T21:13:21.806Z,,0,,,3384.9810000119032,completion,,,,,false,,,,269249.09999999404,269248.8000000119,265844.466,265849.09999999404,265863.819,269264.263,8,400,,,
trial,html.Screen,4_59_0,2023-10-31T21:13:27.168Z,,0,2,,5346.237000000023,response,ISIC_5545874.JPG,12,ISIC_8298434.JPG,ISIC_8298434.JPG,false,0,keypress(z),500,274610.90000000596,274610.5,269242.964,269249.2000000179,269264.263,274628.022,8,400,10,,ISIC_5545874.JPG
break,html.Screen,4_59_1,2023-10-31T21:13:27.170Z,,0,,,NaN,,,,,,false,,,,274612.59999999404,274612.40000000596,,274611.09999999404,,274628.022,8,400,,,
break_continue,html.Screen,4_59_2,2023-10-31T21:13:27.170Z,,0,,,NaN,,,,,,false,,,,274613.09999999404,274613,,274612.8000000119,,274628.022,8,400,,,
sequence,flow.Sequence,4_59,2023-10-31T21:13:27.170Z,,0,,,5348.737000000023,completion,,,,,false,,,,274613.3000000119,274613,269242.964,269249.09999999404,269264.263,274628.022,8,400,,,
trial,html.Screen,4_60_0,2023-10-31T21:13:30.218Z,,0,2,,3032.2780000119237,response,ISIC_0062401.JPG,12,ISIC_7976724.JPG,ISIC_0062401.JPG,false,1,keypress(m),500,277660.8000000119,277660.3000000119,274604.138,274613.40000000596,274628.022,277678.354,8,400,11,,ISIC_7976724.JPG
break,html.Screen,4_60_1,2023-10-31T21:13:30.220Z,,0,,,NaN,,,,,,false,,,,277663,277662.7000000179,,277661.09999999404,,277678.354,8,400,,,
break_continue,html.Screen,4_60_2,2023-10-31T21:13:30.220Z,,0,,,NaN,,,,,,false,,,,277663.40000000596,277663.3000000119,,277663.2000000179,,277678.354,8,400,,,
sequence,flow.Sequence,4_60,2023-10-31T21:13:30.221Z,,0,,,3035.2780000119237,completion,,,,,false,,,,277663.5,277663.3000000119,274604.138,274613.40000000596,274628.022,277678.354,8,400,,,
trial,html.Screen,4_61_0,2023-10-31T21:13:33.377Z,,0,2,,3141.0460000059684,response,ISIC_6707990.JPG,11,ISIC_2192973.JPG,ISIC_2192973.JPG,false,0,keypress(z),500,280819.8000000119,280819.40000000596,277659.684,277663.59999999404,277678.354,280837.499,8,400,12,,ISIC_6707990.JPG
break,html.Screen,4_61_1,2023-10-31T21:13:33.379Z,,0,,,NaN,,,,,,false,,,,280821.7000000179,280821.5,,280820,,280837.499,8,400,,,
break_continue,html.Screen,4_61_2,2023-10-31T21:13:33.379Z,,0,,,NaN,,,,,,false,,,,280822,280822,,280821.8000000119,,280837.499,8,400,,,
sequence,flow.Sequence,4_61,2023-10-31T21:13:33.379Z,,0,,,3143.646000000008,completion,,,,,false,,,,280822.09999999404,280822,277659.684,277663.59999999404,277678.354,280837.499,8,400,,,
trial,html.Screen,4_62_0,2023-10-31T21:13:36.503Z,,0,2,,3107.80100001191,response,ISIC_8591425.JPG,7,ISIC_0063081.JPG,ISIC_0063081.JPG,false,0,keypress(z),500,283945.59999999404,283945.3000000119,280816.278,280822.2000000179,280837.499,283963.26,8,400,13,,ISIC_8591425.JPG
break,html.Screen,4_62_1,2023-10-31T21:13:36.504Z,,0,,,NaN,,,,,,false,,,,283947.40000000596,283947.2000000179,,283945.8000000119,,283963.26,8,400,,,
break_continue,html.Screen,4_62_2,2023-10-31T21:13:36.505Z,,0,,,NaN,,,,,,false,,,,283947.8000000119,283947.7000000179,,283947.59999999404,,283963.26,8,400,,,
sequence,flow.Sequence,4_62,2023-10-31T21:13:36.505Z,,0,,,3110.2010000178707,completion,,,,,false,,,,283947.90000000596,283947.7000000179,280816.278,280822.2000000179,280837.499,283963.26,8,400,,,
trial,html.Screen,4_63_0,2023-10-31T21:13:39.246Z,,0,2,,2725.5400000119116,response,ISIC_7466175.JPG,12,ISIC_0027804.JPG,ISIC_7466175.JPG,false,1,keypress(m),500,286689.09999999404,286688.8000000119,283935.641,283948,283963.26,286723.719,8,400,14,,ISIC_0027804.JPG
break,html.Screen,4_63_1,2023-10-31T21:13:39.248Z,,0,,,NaN,,,,,,false,,,,286691.40000000596,286691,,286689.5,,286723.719,8,400,,,
break_continue,html.Screen,4_63_2,2023-10-31T21:13:39.249Z,,0,,,NaN,,,,,,false,,,,286691.8000000119,286691.59999999404,,286691.5,,286723.719,8,400,,,
sequence,flow.Sequence,4_63,2023-10-31T21:13:39.249Z,,0,,,2728.33999999403,completion,,,,,false,,,,286691.90000000596,286691.59999999404,283935.641,283948,283963.26,286723.719,8,400,,,
trial,html.Screen,4_64_0,2023-10-31T21:13:42.937Z,,0,2,,3655.7810000000172,response,ISIC_0062160.JPG,12,ISIC_0032736.JPG,ISIC_0032736.JPG,false,0,keypress(z),500,290379.90000000596,290379.5,286706.961,286692,286723.719,290397.683,8,400,15,,ISIC_0062160.JPG
break,html.Screen,4_64_1,2023-10-31T21:13:42.939Z,,0,,,NaN,,,,,,false,,,,290381.8000000119,290381.59999999404,,290380.2000000179,,290397.683,8,400,,,
break_continue,html.Screen,4_64_2,2023-10-31T21:13:42.939Z,,0,,,NaN,,,,,,false,,,,290382.2000000179,290382.09999999404,,290381.90000000596,,290397.683,8,400,,,
sequence,flow.Sequence,4_64,2023-10-31T21:13:42.939Z,,0,,,3658.3809999940568,completion,,,,,false,,,,290382.3000000119,290382.09999999404,286706.961,286692,286723.719,290397.683,8,400,,,
trial,html.Screen,4_65_0,2023-10-31T21:13:45.951Z,,0,2,,2996.0170000178623,response,ISIC_0058723.JPG,12,ISIC_4296456.JPG,ISIC_0058723.JPG,false,1,keypress(m),500,293394.09999999404,293393.7000000179,290372.048,290382.5,290397.683,293411.955,8,400,16,,ISIC_4296456.JPG
break,html.Screen,4_65_1,2023-10-31T21:13:45.953Z,,0,,,NaN,,,,,,false,,,,293396.2000000179,293395.90000000596,,293394.3000000119,,293411.955,8,400,,,
break_continue,html.Screen,4_65_2,2023-10-31T21:13:45.954Z,,0,,,NaN,,,,,,false,,,,293396.5,293396.40000000596,,293396.3000000119,,293411.955,8,400,,,
sequence,flow.Sequence,4_65,2023-10-31T21:13:45.954Z,,0,,,2998.7170000059414,completion,,,,,false,,,,293396.59999999404,293396.40000000596,290372.048,290382.5,290397.683,293411.955,8,400,,,
trial,html.Screen,4_66_0,2023-10-31T21:13:48.808Z,,0,2,,2838.245000017865,response,ISIC_0011137.JPG,8,ISIC_1738738.JPG,ISIC_1738738.JPG,false,0,keypress(z),500,296250.59999999404,296250.2000000179,293389.468,293396.7000000179,293411.955,296268.495,8,400,17,,ISIC_0011137.JPG
break,html.Screen,4_66_1,2023-10-31T21:13:48.810Z,,0,,,NaN,,,,,,false,,,,296252.8000000119,296252.5,,296251,,296268.495,8,400,,,
break_continue,html.Screen,4_66_2,2023-10-31T21:13:48.810Z,,0,,,NaN,,,,,,false,,,,296253.2000000179,296253.09999999404,,296253,,296268.495,8,400,,,
sequence,flow.Sequence,4_66,2023-10-31T21:13:48.810Z,,0,,,2841.1449999940232,completion,,,,,false,,,,296253.40000000596,296253.09999999404,293389.468,293396.7000000179,293411.955,296268.495,8,400,,,
trial,html.Screen,4_67_0,2023-10-31T21:13:51.629Z,,0,2,,2803.405000005965,response,ISIC_0055841.JPG,9,ISIC_9286292.JPG,ISIC_0055841.JPG,false,1,keypress(m),500,299072.3000000119,299071.90000000596,296245.891,296253.5,296268.495,299090.199,8,400,18,,ISIC_9286292.JPG
break,html.Screen,4_67_1,2023-10-31T21:13:51.632Z,,0,,,NaN,,,,,,false,,,,299074.59999999404,299074.2000000179,,299072.5,,299090.199,8,400,,,
break_continue,html.Screen,4_67_2,2023-10-31T21:13:51.632Z,,0,,,NaN,,,,,,false,,,,299075.3000000119,299075.09999999404,,299074.90000000596,,299090.199,8,400,,,
sequence,flow.Sequence,4_67,2023-10-31T21:13:51.632Z,,0,,,2806.604999994044,completion,,,,,false,,,,299075.5,299075.09999999404,296245.891,296253.40000000596,296268.495,299090.199,8,400,,,
trial,html.Screen,4_68_0,2023-10-31T21:13:54.292Z,,0,2,,2644.1010000118986,response,ISIC_0064073.JPG,5,ISIC_0679494.JPG,ISIC_0064073.JPG,false,1,keypress(m),500,301734.7000000179,301734.3000000119,299068.029,299075.59999999404,299090.199,301752.518,8,400,19,,ISIC_0679494.JPG
break,html.Screen,4_68_1,2023-10-31T21:13:54.294Z,,0,,,NaN,,,,,,false,,,,301736.8000000119,301736.40000000596,,301734.90000000596,,301752.518,8,400,,,
break_continue,html.Screen,4_68_2,2023-10-31T21:13:54.294Z,,0,,,NaN,,,,,,false,,,,301737.2000000179,301737,,301736.90000000596,,301752.518,8,400,,,
sequence,flow.Sequence,4_68,2023-10-31T21:13:54.295Z,,0,,,2646.8009999999776,completion,,,,,false,,,,301738.40000000596,301737,299068.029,299075.5,299090.199,301752.518,8,400,,,
trial,html.Screen,4_69_0,2023-10-31T21:13:57.101Z,,0,2,,2791.1820000178996,response,ISIC_0031477.JPG,6,ISIC_0028225.JPG,ISIC_0028225.JPG,false,0,keypress(z),500,304544,304543.7000000179,301727.457,301738.5,301752.518,304561.361,8,400,20,,ISIC_0031477.JPG
break,html.Screen,4_69_1,2023-10-31T21:13:57.103Z,,0,,,NaN,,,,,,false,,,,304546.09999999404,304545.8000000119,,304544.3000000119,,304561.361,8,400,,,
break_continue,html.Screen,4_69_2,2023-10-31T21:13:57.103Z,,0,,,NaN,,,,,,false,,,,304546.3000000119,304546.3000000119,,304546.2000000179,,304561.361,8,400,,,
sequence,flow.Sequence,4_69,2023-10-31T21:13:57.104Z,,0,,,2793.782000011939,completion,,,,,false,,,,304546.5,304546.3000000119,301727.457,301738.5,301752.518,304561.361,8,400,,,
trial,html.Screen,4_70_0,2023-10-31T21:14:00.023Z,,0,2,,2904.1390000000247,response,ISIC_9353514.JPG,13,ISIC_0476606.JPG,ISIC_9353514.JPG,false,1,keypress(m),500,307465.8000000119,307465.5,304536.31,304546.7000000179,304561.361,307482.973,8,400,21,,ISIC_0476606.JPG
break,html.Screen,4_70_1,2023-10-31T21:14:00.025Z,,0,,,NaN,,,,,,false,,,,307467.59999999404,307467.40000000596,,307466,,307482.973,8,400,,,
break_continue,html.Screen,4_70_2,2023-10-31T21:14:00.025Z,,0,,,NaN,,,,,,false,,,,307468,307467.90000000596,,307467.7000000179,,307482.973,8,400,,,
sequence,flow.Sequence,4_70,2023-10-31T21:14:00.025Z,,0,,,2906.539000005985,completion,,,,,false,,,,307468.09999999404,307467.90000000596,304536.31,304546.59999999404,304561.361,307482.973,8,400,,,
trial,html.Screen,4_71_0,2023-10-31T21:14:03.003Z,,0,2,,2964.1269999940414,response,ISIC_0000552.JPG,10,ISIC_0058501.JPG,ISIC_0058501.JPG,false,0,keypress(z),500,310447.59999999404,310447.09999999404,307456.408,307468.09999999404,307482.973,310465.368,8,400,22,,ISIC_0000552.JPG
break,html.Screen,4_71_1,2023-10-31T21:14:03.006Z,,0,,,NaN,,,,,,false,,,,310449.8000000119,310449.5,,310447.90000000596,,310465.368,8,400,,,
break_continue,html.Screen,4_71_2,2023-10-31T21:14:03.006Z,,0,,,NaN,,,,,,false,,,,310450.3000000119,310450.09999999404,,310449.90000000596,,310465.368,8,400,,,
sequence,flow.Sequence,4_71,2023-10-31T21:14:03.006Z,,0,,,2967.1269999940414,completion,,,,,false,,,,310450.5,310450.09999999404,307456.408,307468.09999999404,307482.973,310465.368,8,400,,,
trial,html.Screen,4_72_0,2023-10-31T21:14:06.566Z,,0,2,,3544.432000011904,response,ISIC_0003068.JPG,10,ISIC_2178032.JPG,ISIC_2178032.JPG,false,0,keypress(z),500,314010.40000000596,314009.8000000119,310435.195,310450.59999999404,310465.368,314028.139,8,400,23,,ISIC_0003068.JPG
break,html.Screen,4_72_1,2023-10-31T21:14:06.568Z,,0,,,NaN,,,,,,false,,,,314012.40000000596,314012.09999999404,,314010.59999999404,,314028.139,8,400,,,
break_continue,html.Screen,4_72_2,2023-10-31T21:14:06.569Z,,0,,,NaN,,,,,,false,,,,314012.8000000119,314012.7000000179,,314012.5,,314028.139,8,400,,,
sequence,flow.Sequence,4_72,2023-10-31T21:14:06.569Z,,0,,,3547.3320000178646,completion,,,,,false,,,,314012.90000000596,314012.7000000179,310435.195,310450.5,310465.368,314028.139,8,400,,,
trial,html.Screen,4_73_0,2023-10-31T21:14:09.677Z,,0,2,,3092.1610000118962,response,ISIC_7423852.JPG,12,ISIC_1605945.JPG,ISIC_1605945.JPG,false,0,keypress(z),500,317120.7000000179,317120.3000000119,314001.301,314013.09999999404,314028.139,317138.786,8,400,24,,ISIC_7423852.JPG
break,html.Screen,4_73_1,2023-10-31T21:14:09.679Z,,0,,,NaN,,,,,,false,,,,317123.2000000179,317122.8000000119,,317121,,317138.786,8,400,,,
break_continue,html.Screen,4_73_2,2023-10-31T21:14:09.679Z,,0,,,NaN,,,,,,false,,,,317123.7000000179,317123.5,,317123.40000000596,,317138.786,8,400,,,
sequence,flow.Sequence,4_73,2023-10-31T21:14:09.680Z,,0,,,3095.3609999999753,completion,,,,,false,,,,317123.90000000596,317123.5,314001.301,314013.09999999404,314028.139,317138.786,8,400,,,
trial,html.Screen,4_74_0,2023-10-31T21:14:12.467Z,,0,2,,2772.213999999978,response,ISIC_5679004.JPG,11,ISIC_0010869.JPG,ISIC_5679004.JPG,false,1,keypress(m),500,319911.40000000596,319911,317117.603,317124,317138.786,319929.369,8,400,25,,ISIC_0010869.JPG
break,html.Screen,4_74_1,2023-10-31T21:14:12.469Z,,0,,,NaN,,,,,,false,,,,319913.59999999404,319913.3000000119,,319911.7000000179,,319929.369,8,400,,,
break_continue,html.Screen,4_74_2,2023-10-31T21:14:12.470Z,,0,,,NaN,,,,,,false,,,,319914.09999999404,319913.90000000596,,319913.7000000179,,319929.369,8,400,,,
sequence,flow.Sequence,4_74,2023-10-31T21:14:12.470Z,,0,,,2775.1140000059386,completion,,,,,false,,,,319914.2000000179,319913.90000000596,317117.603,317124,317138.786,319929.369,8,400,,,
trial,html.Screen,4_75_0,2023-10-31T21:14:15.052Z,,0,2,,2566.7309999940335,response,ISIC_6916924.JPG,11,ISIC_3327201.JPG,ISIC_3327201.JPG,false,0,keypress(z),500,322496.5,322496.09999999404,319910.052,319914.40000000596,319929.369,322513.902,8,400,26,,ISIC_6916924.JPG
break,html.Screen,4_75_1,2023-10-31T21:14:15.054Z,,0,,,NaN,,,,,,false,,,,322498.59999999404,322498.3000000119,,322496.90000000596,,322513.902,8,400,,,
break_continue,html.Screen,4_75_2,2023-10-31T21:14:15.055Z,,0,,,NaN,,,,,,false,,,,322499,322498.8000000119,,322498.59999999404,,322513.902,8,400,,,
sequence,flow.Sequence,4_75,2023-10-31T21:14:15.055Z,,0,,,2569.431000011915,completion,,,,,false,,,,322499.09999999404,322498.8000000119,319910.052,319914.3000000119,319929.369,322513.902,8,400,,,
trial,html.Screen,4_76_0,2023-10-31T21:14:17.688Z,,0,2,,2618.398000011919,response,ISIC_0066150.JPG,10,ISIC_8561963.JPG,ISIC_0066150.JPG,false,1,keypress(m),500,325132.59999999404,325132.3000000119,322497.165,322499.09999999404,322513.902,325167.037,8,400,27,,ISIC_8561963.JPG
break,html.Screen,4_76_1,2023-10-31T21:14:17.690Z,,0,,,NaN,,,,,,false,,,,325134.59999999404,325134.3000000119,,325132.8000000119,,325167.037,8,400,,,
break_continue,html.Screen,4_76_2,2023-10-31T21:14:17.691Z,,0,,,NaN,,,,,,false,,,,325134.90000000596,325134.90000000596,,325134.7000000179,,325167.037,8,400,,,
sequence,flow.Sequence,4_76,2023-10-31T21:14:17.691Z,,0,,,2620.9980000059586,completion,,,,,false,,,,325135.09999999404,325134.90000000596,322497.165,322499.09999999404,322513.902,325167.037,8,400,,,
trial,html.Screen,4_77_0,2023-10-31T21:14:20.355Z,,0,2,,2631.2630000119098,response,ISIC_0029736.JPG,8,ISIC_0011702.JPG,ISIC_0011702.JPG,false,0,keypress(z),500,327798.8000000119,327798.3000000119,325150.178,325135.09999999404,325167.037,327833.31,8,400,28,,ISIC_0029736.JPG
break,html.Screen,4_77_1,2023-10-31T21:14:20.357Z,,0,,,NaN,,,,,,false,,,,327800.90000000596,327800.5,,327799,,327833.31,8,400,,,
break_continue,html.Screen,4_77_2,2023-10-31T21:14:20.357Z,,0,,,NaN,,,,,,false,,,,327801.40000000596,327801.3000000119,,327801.09999999404,,327833.31,8,400,,,
sequence,flow.Sequence,4_77,2023-10-31T21:14:20.357Z,,0,,,2634.2630000119098,completion,,,,,false,,,,327801.5,327801.3000000119,325150.178,325135.09999999404,325167.037,327833.31,8,400,,,
trial,html.Screen,4_78_0,2023-10-31T21:14:23.641Z,,0,2,,3251.1900000000023,response,ISIC_3058800.JPG,5,ISIC_0912291.JPG,ISIC_0912291.JPG,false,0,keypress(z),500,331085.2000000179,331084.5,327816.55,327801.7000000179,327833.31,331103.401,8,400,29,,ISIC_3058800.JPG
break,html.Screen,4_78_1,2023-10-31T21:14:23.644Z,,0,,,NaN,,,,,,false,,,,331087.8000000119,331087.5,,331085.7000000179,,331103.401,8,400,,,
break_continue,html.Screen,4_78_2,2023-10-31T21:14:23.644Z,,0,,,NaN,,,,,,false,,,,331088.3000000119,331088.2000000179,,331088,,331103.401,8,400,,,
sequence,flow.Sequence,4_78,2023-10-31T21:14:23.644Z,,0,,,3254.8900000178837,completion,,,,,false,,,,331088.5,331088.2000000179,327816.55,327801.7000000179,327833.31,331103.401,8,400,,,
trial,html.Screen,4_79_0,2023-10-31T21:14:28.245Z,,0,2,,4585.698999994027,response,ISIC_8866651.JPG,9,ISIC_4229473.JPG,ISIC_8866651.JPG,false,1,keypress(m),500,335689.40000000596,335689.09999999404,331083.679,331088.59999999404,331103.401,335706.919,8,400,30,,ISIC_4229473.JPG
break,html.Screen,4_79_1,2023-10-31T21:14:28.247Z,,0,,,NaN,,,,,,false,,,,335691.2000000179,335690.8000000119,,335689.59999999404,,335706.919,8,400,,,
break_continue,html.Screen,4_79_2,2023-10-31T21:14:28.247Z,,0,,,NaN,,,,,,false,,,,335691.5,335691.40000000596,,335691.3000000119,,335706.919,8,400,,,
sequence,flow.Sequence,4_79,2023-10-31T21:14:28.247Z,,0,,,4587.999000005948,completion,,,,,false,,,,335691.59999999404,335691.40000000596,331083.679,331088.59999999404,331103.401,335706.919,8,400,,,
trial,html.Screen,4_80_0,2023-10-31T21:14:32.272Z,,0,2,,4009.180999994045,response,ISIC_1155782.JPG,11,ISIC_2075372.JPG,ISIC_1155782.JPG,false,1,keypress(m),500,339716.40000000596,339716.09999999404,335677.172,335691.7000000179,335706.919,339733.799,8,400,31,,ISIC_2075372.JPG
break,html.Screen,4_80_1,2023-10-31T21:14:32.274Z,,0,,,NaN,,,,,,false,,,,339718.3000000119,339718,,339716.59999999404,,339733.799,8,400,,,
break_continue,html.Screen,4_80_2,2023-10-31T21:14:32.274Z,,0,,,NaN,,,,,,false,,,,339718.5,339718.40000000596,,339718.3000000119,,339733.799,8,400,,,
sequence,flow.Sequence,4_80,2023-10-31T21:14:32.274Z,,0,,,4011.481000005966,completion,,,,,false,,,,339718.59999999404,339718.40000000596,335677.172,335691.7000000179,335706.919,339733.799,8,400,,,
trial,html.Screen,4_81_0,2023-10-31T21:14:35.624Z,,0,2,,3334.001000011922,response,ISIC_0011855.JPG,5,ISIC_3487151.JPG,ISIC_0011855.JPG,false,1,keypress(m),500,343068.3000000119,343067.8000000119,339701.759,339718.7000000179,339733.799,343086.234,8,400,32,,ISIC_3487151.JPG
break,html.Screen,4_81_1,2023-10-31T21:14:35.626Z,,0,,,NaN,,,,,,false,,,,343070.7000000179,343070.3000000119,,343068.59999999404,,343086.234,8,400,,,
break_continue,html.Screen,4_81_2,2023-10-31T21:14:35.627Z,,0,,,NaN,,,,,,false,,,,343071.2000000179,343071,,343070.90000000596,,343086.234,8,400,,,
sequence,flow.Sequence,4_81,2023-10-31T21:14:35.627Z,,0,,,3337.201000000001,completion,,,,,false,,,,343071.3000000119,343071,339701.759,339718.7000000179,339733.799,343086.234,8,400,,,
trial,html.Screen,4_82_0,2023-10-31T21:14:39.909Z,,0,2,,4266.166000005964,response,ISIC_9385996.JPG,7,ISIC_4344870.JPG,ISIC_4344870.JPG,false,0,keypress(z),500,347352.8000000119,347352.40000000596,343055.439,343071.40000000596,343086.234,347370.587,8,400,33,,ISIC_9385996.JPG
break,html.Screen,4_82_1,2023-10-31T21:14:39.910Z,,0,,,NaN,,,,,,false,,,,347354.7000000179,347354.5,,347353,,347370.587,8,400,,,
break_continue,html.Screen,4_82_2,2023-10-31T21:14:39.911Z,,0,,,NaN,,,,,,false,,,,347355,347354.90000000596,,347354.8000000119,,347370.587,8,400,,,
sequence,flow.Sequence,4_82,2023-10-31T21:14:39.911Z,,0,,,4268.666000005964,completion,,,,,false,,,,347355.09999999404,347354.90000000596,343055.439,343071.40000000596,343086.234,347370.587,8,400,,,
trial,html.Screen,4_83_0,2023-10-31T21:14:43.359Z,,0,2,,3431.813000005961,response,ISIC_0009738.JPG,6,ISIC_0033800.JPG,ISIC_0033800.JPG,false,0,keypress(z),500,350802.8000000119,350802.40000000596,347349.038,347355.3000000119,347370.587,350820.323,8,400,34,,ISIC_0009738.JPG
break,html.Screen,4_83_1,2023-10-31T21:14:43.361Z,,0,,,NaN,,,,,,false,,,,350804.90000000596,350804.59999999404,,350803,,350820.323,8,400,,,
break_continue,html.Screen,4_83_2,2023-10-31T21:14:43.361Z,,0,,,NaN,,,,,,false,,,,350805.3000000119,350805.3000000119,,350805.09999999404,,350820.323,8,400,,,
sequence,flow.Sequence,4_83,2023-10-31T21:14:43.361Z,,0,,,3434.7130000119214,completion,,,,,false,,,,350805.5,350805.3000000119,347349.038,347355.2000000179,347370.587,350820.323,8,400,,,
trial,html.Screen,4_84_0,2023-10-31T21:14:46.409Z,,0,2,,3032.2769999940647,response,ISIC_9300579.JPG,6,ISIC_0032600.JPG,ISIC_9300579.JPG,false,1,keypress(m),500,353852.7000000179,353852.59999999404,350798.88,350805.59999999404,350820.323,353870.18,8,400,35,,ISIC_0032600.JPG
break,html.Screen,4_84_1,2023-10-31T21:14:46.410Z,,0,,,NaN,,,,,,false,,,,353854.3000000119,353854.2000000179,,353852.90000000596,,353870.18,8,400,,,
break_continue,html.Screen,4_84_2,2023-10-31T21:14:46.410Z,,0,,,NaN,,,,,,false,,,,353854.59999999404,353854.40000000596,,353854.40000000596,,353870.18,8,400,,,
sequence,flow.Sequence,4_84,2023-10-31T21:14:46.410Z,,0,,,3034.0770000059856,completion,,,,,false,,,,353854.59999999404,353854.40000000596,350798.88,350805.59999999404,350820.323,353870.18,8,400,,,
trial,html.Screen,4_85_0,2023-10-31T21:14:50.318Z,,0,2,,3891.2200000059674,response,ISIC_3448546.JPG,10,ISIC_6352730.JPG,ISIC_3448546.JPG,false,1,keypress(m),500,357761.7000000179,357761.40000000596,353840.83,353854.7000000179,353870.18,357779.636,8,400,36,,ISIC_6352730.JPG
break,html.Screen,4_85_1,2023-10-31T21:14:50.320Z,,0,,,NaN,,,,,,false,,,,357764.09999999404,357763.90000000596,,357762,,357779.636,8,400,,,
break_continue,html.Screen,4_85_2,2023-10-31T21:14:50.320Z,,0,,,NaN,,,,,,false,,,,357764.59999999404,357764.5,,357764.3000000119,,357779.636,8,400,,,
sequence,flow.Sequence,4_85,2023-10-31T21:14:50.320Z,,0,,,3894.320000000007,completion,,,,,false,,,,357764.7000000179,357764.5,353840.83,353854.59999999404,353870.18,357779.636,8,400,,,
trial,html.Screen,4_86_0,2023-10-31T21:14:53.044Z,,0,2,,2707.8640000000014,response,ISIC_0061315.JPG,8,ISIC_7648726.JPG,ISIC_0061315.JPG,false,1,keypress(m),500,360488,360487.5,357761.432,357764.8000000119,357779.636,360506.178,8,400,37,,ISIC_7648726.JPG
break,html.Screen,4_86_1,2023-10-31T21:14:53.046Z,,0,,,NaN,,,,,,false,,,,360490.2000000179,360489.09999999404,,360488.40000000596,,360506.178,8,400,,,
break_continue,html.Screen,4_86_2,2023-10-31T21:14:53.047Z,,0,,,NaN,,,,,,false,,,,360490.7000000179,360490.59999999404,,360490.3000000119,,360506.178,8,400,,,
sequence,flow.Sequence,4_86,2023-10-31T21:14:53.047Z,,0,,,2710.963999994041,completion,,,,,false,,,,360491,360490.59999999404,357761.432,357764.8000000119,357779.636,360506.178,8,400,,,
trial,html.Screen,4_87_0,2023-10-31T21:14:55.662Z,,0,2,,2599.522000017867,response,ISIC_4756167.JPG,7,ISIC_2740756.JPG,ISIC_2740756.JPG,false,0,keypress(z),500,363106.09999999404,363105.7000000179,360479.008,360491.09999999404,360506.178,363140.486,8,400,38,,ISIC_4756167.JPG
break,html.Screen,4_87_1,2023-10-31T21:14:55.664Z,,0,,,NaN,,,,,,false,,,,363108.3000000119,363107.90000000596,,363106.40000000596,,363140.486,8,400,,,
break_continue,html.Screen,4_87_2,2023-10-31T21:14:55.664Z,,0,,,NaN,,,,,,false,,,,363108.59999999404,363108.5,,363108.40000000596,,363140.486,8,400,,,
sequence,flow.Sequence,4_87,2023-10-31T21:14:55.665Z,,0,,,2602.3219999999856,completion,,,,,false,,,,363108.8000000119,363108.5,360479.008,360491.09999999404,360506.178,363140.486,8,400,,,
trial,html.Screen,4_88_0,2023-10-31T21:14:58.502Z,,0,2,,2805.0140000000247,response,ISIC_0030916.JPG,7,ISIC_0061509.JPG,ISIC_0030916.JPG,false,1,keypress(m),500,365945.90000000596,365945.5,363123.921,363108.90000000596,363140.486,365963.715,8,400,39,,ISIC_0061509.JPG
break,html.Screen,4_88_1,2023-10-31T21:14:58.504Z,,0,,,NaN,,,,,,false,,,,365947.90000000596,365947.59999999404,,365946.09999999404,,365963.715,8,400,,,
break_continue,html.Screen,4_88_2,2023-10-31T21:14:58.504Z,,0,,,NaN,,,,,,false,,,,365948.2000000179,365948.09999999404,,365948,,365963.715,8,400,,,
sequence,flow.Sequence,4_88,2023-10-31T21:14:58.504Z,,0,,,2807.613999994064,completion,,,,,false,,,,365948.40000000596,365948.09999999404,363123.921,363108.90000000596,363140.486,365963.715,8,400,,,
trial,html.Screen,4_89_0,2023-10-31T21:15:01.162Z,,0,2,,2642.185000005935,response,ISIC_3777798.JPG,10,ISIC_0000141.JPG,ISIC_3777798.JPG,false,1,keypress(m),500,368606.3000000119,368605.90000000596,365939.453,365948.40000000596,365963.715,368627.852,8,400,40,,ISIC_0000141.JPG
break,html.Screen,4_89_1,2023-10-31T21:15:01.163Z,,0,,,NaN,,,,,,false,,,,368607.7000000179,368607.40000000596,,368606.7000000179,,368627.852,8,400,,,
break_continue,html.Screen,4_89_2,2023-10-31T21:15:01.164Z,,0,,,NaN,,,,,,false,,,,368608.09999999404,368608,,368607.90000000596,,368627.852,8,400,,,
sequence,flow.Sequence,4_89,2023-10-31T21:15:01.164Z,,0,,,2644.2849999999744,completion,,,,,false,,,,368608.3000000119,368608,365939.453,365948.40000000596,365963.715,368627.852,8,400,,,
trial,html.Screen,4_90_0,2023-10-31T21:15:03.939Z,,0,2,,2754.247999994026,response,ISIC_0006772.JPG,11,ISIC_8222254.JPG,ISIC_0006772.JPG,false,1,keypress(m),500,371382.5,371382.09999999404,368610.737,368608.5,368627.852,371400.489,8,400,41,,ISIC_8222254.JPG
break,html.Screen,4_90_1,2023-10-31T21:15:03.942Z,,0,,,NaN,,,,,,false,,,,371384.7000000179,371384.40000000596,,371382.90000000596,,371400.489,8,400,,,
break_continue,html.Screen,4_90_2,2023-10-31T21:15:03.942Z,,0,,,NaN,,,,,,false,,,,371385,371384.90000000596,,371384.8000000119,,371400.489,8,400,,,
sequence,flow.Sequence,4_90,2023-10-31T21:15:03.942Z,,0,,,2757.048000005947,completion,,,,,false,,,,371385.09999999404,371384.90000000596,368610.737,368608.5,368627.852,371400.489,8,400,,,
trial,html.Screen,4_91_0,2023-10-31T21:15:06.397Z,,0,2,,2438.911000005959,response,ISIC_0025155.JPG,12,ISIC_1247683.JPG,ISIC_1247683.JPG,false,0,keypress(z),500,373839.7000000179,373839.40000000596,371375.633,371385.2000000179,371400.489,373857.618,8,400,42,,ISIC_0025155.JPG
break,html.Screen,4_91_1,2023-10-31T21:15:06.399Z,,0,,,NaN,,,,,,false,,,,373841.90000000596,373841.7000000179,,373839.90000000596,,373857.618,8,400,,,
break_continue,html.Screen,4_91_2,2023-10-31T21:15:06.399Z,,0,,,NaN,,,,,,false,,,,373842.3000000119,373842.2000000179,,373842,,373857.618,8,400,,,
sequence,flow.Sequence,4_91,2023-10-31T21:15:06.399Z,,0,,,2441.71100001788,completion,,,,,false,,,,373842.5,373842.2000000179,371375.633,371385.2000000179,371400.489,373857.618,8,400,,,
trial,html.Screen,4_92_0,2023-10-31T21:15:09.027Z,,0,2,,2612.3819999999832,response,ISIC_3151260.JPG,12,ISIC_0064376.JPG,ISIC_0064376.JPG,false,0,keypress(z),500,376470.2000000179,376470,373832.21,373842.59999999404,373857.618,376487.94,8,400,43,,ISIC_3151260.JPG
break,html.Screen,4_92_1,2023-10-31T21:15:09.029Z,,0,,,NaN,,,,,,false,,,,376472.09999999404,376471.8000000119,,376470.40000000596,,376487.94,8,400,,,
break_continue,html.Screen,4_92_2,2023-10-31T21:15:09.029Z,,0,,,NaN,,,,,,false,,,,376472.40000000596,376472.3000000119,,376472.2000000179,,376487.94,8,400,,,
sequence,flow.Sequence,4_92,2023-10-31T21:15:09.029Z,,0,,,2614.682000011904,completion,,,,,false,,,,376472.5,376472.3000000119,373832.21,373842.5,373857.618,376487.94,8,400,,,
trial,html.Screen,4_93_0,2023-10-31T21:15:11.675Z,,0,2,,2629.260000017879,response,ISIC_0011337.JPG,7,ISIC_2470795.JPG,ISIC_0011337.JPG,false,1,keypress(m),500,379117.59999999404,379117.2000000179,376464.611,376472.5,376487.94,379135.249,8,400,44,,ISIC_2470795.JPG
break,html.Screen,4_93_1,2023-10-31T21:15:11.677Z,,0,,,NaN,,,,,,false,,,,379119.59999999404,379118.59999999404,,379117.90000000596,,379135.249,8,400,,,
break_continue,html.Screen,4_93_2,2023-10-31T21:15:11.677Z,,0,,,NaN,,,,,,false,,,,379120,379120,,379119.8000000119,,379135.249,8,400,,,
sequence,flow.Sequence,4_93,2023-10-31T21:15:11.677Z,,0,,,2632.0599999999977,completion,,,,,false,,,,379120.3000000119,379120,376464.611,376472.5,376487.94,379135.249,8,400,,,
trial,html.Screen,4_94_0,2023-10-31T21:15:15.160Z,,0,2,,3467.1510000059498,response,ISIC_0046416.JPG,12,ISIC_0064120.JPG,ISIC_0046416.JPG,false,1,keypress(m),500,382602.90000000596,382602.40000000596,379110.851,379120.40000000596,379135.249,382620.876,8,400,45,,ISIC_0064120.JPG
break,html.Screen,4_94_1,2023-10-31T21:15:15.162Z,,0,,,NaN,,,,,,false,,,,382605.3000000119,382605,,382603.3000000119,,382620.876,8,400,,,
break_continue,html.Screen,4_94_2,2023-10-31T21:15:15.163Z,,0,,,NaN,,,,,,false,,,,382605.8000000119,382605.7000000179,,382605.5,,382620.876,8,400,,,
sequence,flow.Sequence,4_94,2023-10-31T21:15:15.163Z,,0,,,3470.4510000178707,completion,,,,,false,,,,382606,382605.7000000179,379110.851,379120.40000000596,379135.249,382620.876,8,400,,,
trial,html.Screen,4_95_0,2023-10-31T21:15:18.607Z,,0,2,,3429.2239999940502,response,ISIC_0027145.JPG,7,ISIC_9625295.JPG,ISIC_9625295.JPG,false,0,keypress(z),500,386050.40000000596,386050.09999999404,382592.773,382606,382620.876,386067.986,8,400,46,,ISIC_0027145.JPG
break,html.Screen,4_95_1,2023-10-31T21:15:18.609Z,,0,,,NaN,,,,,,false,,,,386052.09999999404,386051.90000000596,,386050.59999999404,,386067.986,8,400,,,
break_continue,html.Screen,4_95_2,2023-10-31T21:15:18.610Z,,0,,,NaN,,,,,,false,,,,386052.59999999404,386052.40000000596,,386052.3000000119,,386067.986,8,400,,,
sequence,flow.Sequence,4_95,2023-10-31T21:15:18.610Z,,0,,,3431.524000005971,completion,,,,,false,,,,386052.7000000179,386052.40000000596,382592.773,382606,382620.876,386067.986,8,400,,,
trial,html.Screen,4_96_0,2023-10-31T21:15:22.520Z,,0,2,,3894.714000017906,response,ISIC_1265755.JPG,5,ISIC_4408559.JPG,ISIC_4408559.JPG,false,0,keypress(z),500,389963.2000000179,389962.7000000179,386047.297,386052.8000000119,386067.986,389981.014,8,400,47,,ISIC_1265755.JPG
break,html.Screen,4_96_1,2023-10-31T21:15:22.522Z,,0,,,NaN,,,,,,false,,,,389965.40000000596,389965.09999999404,,389963.5,,389981.014,8,400,,,
break_continue,html.Screen,4_96_2,2023-10-31T21:15:22.523Z,,0,,,NaN,,,,,,false,,,,389965.90000000596,389965.7000000179,,389965.5,,389981.014,8,400,,,
sequence,flow.Sequence,4_96,2023-10-31T21:15:22.523Z,,0,,,3897.714000017906,completion,,,,,false,,,,389966,389965.7000000179,386047.297,386052.8000000119,386067.986,389981.014,8,400,,,
trial,html.Screen,4_97_0,2023-10-31T21:15:25.460Z,,0,2,,2921.886000005936,response,ISIC_7935007.JPG,5,ISIC_4472903.JPG,ISIC_4472903.JPG,false,0,keypress(z),500,392903.2000000179,392902.90000000596,389953.072,389966.09999999404,389981.014,392914.669,8,400,48,,ISIC_7935007.JPG
break,html.Screen,4_97_1,2023-10-31T21:15:25.461Z,,0,,,NaN,,,,,,false,,,,392904.5,392904.2000000179,,392903.5,,392914.669,8,400,,,
break_continue,html.Screen,4_97_2,2023-10-31T21:15:25.462Z,,0,,,NaN,,,,,,false,,,,392904.8000000119,392904.7000000179,,392904.59999999404,,392914.669,8,400,,,
sequence,flow.Sequence,4_97,2023-10-31T21:15:25.462Z,,0,,,2923.6860000178567,completion,,,,,false,,,,392905,392904.7000000179,389953.072,389966,389981.014,392914.669,8,400,,,
trial,html.Screen,4_98_0,2023-10-31T21:15:28.826Z,,0,2,,3353.8310000000056,response,ISIC_8621568.JPG,6,ISIC_9159730.JPG,ISIC_8621568.JPG,false,1,keypress(m),500,396268.8000000119,396268.5,392898.295,392905.09999999404,392914.669,396284.391,8,400,49,,ISIC_9159730.JPG
break,html.Screen,4_98_1,2023-10-31T21:15:28.827Z,,0,,,NaN,,,,,,false,,,,396270.5,396270.2000000179,,396269,,396284.391,8,400,,,
break_continue,html.Screen,4_98_2,2023-10-31T21:15:28.828Z,,0,,,NaN,,,,,,false,,,,396270.90000000596,396270.7000000179,,396270.59999999404,,396284.391,8,400,,,
sequence,flow.Sequence,4_98,2023-10-31T21:15:28.828Z,,0,,,3356.031000017887,completion,,,,,false,,,,396270.90000000596,396270.7000000179,392898.295,392905,392914.669,396284.391,8,400,,,
trial,html.Screen,4_99_0,2023-10-31T21:15:31.861Z,,0,2,,3019.4090000119177,response,ISIC_4107717.JPG,7,ISIC_0033119.JPG,ISIC_0033119.JPG,false,0,keypress(z),500,399304,399303.8000000119,396254.291,396271.09999999404,396284.391,399309.881,8,400,50,,ISIC_4107717.JPG
break,html.Screen,4_99_1,2023-10-31T21:15:41.852Z,,0,,,10000.477000000014,timeout,,,,,false,,,,409294.7000000179,409293.636,399298.023,399304.2000000179,399309.881,409310.358,8,400,,,
break_continue,html.Screen,4_99_2,2023-10-31T21:15:51.876Z,,0,,,9984.442000011913,response,,,,,false,continue,keypress(Space),,419319.3000000119,419294.8000000119,409293.636,409294.90000000596,409310.358,419337.119,8,400,,,
sequence,flow.Sequence,4_99,2023-10-31T21:15:51.876Z,,0,,,23010.409000011918,completion,,,,,false,,,,419319.40000000596,419294.8000000119,396254.291,396271,396284.391,419337.119,8,400,,,
trial,html.Screen,4_100_0,2023-10-31T21:15:55.369Z,,0,3,,3474.4809999940335,response,ISIC_0010848.JPG,12,ISIC_3289574.JPG,ISIC_3289574.JPG,false,0,keypress(z),500,422811.90000000596,422811.59999999404,419309.53,419319.5,419337.119,422829.591,8,400,1,,ISIC_0010848.JPG
break,html.Screen,4_100_1,2023-10-31T21:15:55.371Z,,0,,,NaN,,,,,,false,,,,422813.90000000596,422813.59999999404,,422812.09999999404,,422829.591,8,400,,,
break_continue,html.Screen,4_100_2,2023-10-31T21:15:55.371Z,,0,,,NaN,,,,,,false,,,,422814.3000000119,422814.2000000179,,422814,,422829.591,8,400,,,
sequence,flow.Sequence,4_100,2023-10-31T21:15:55.371Z,,0,,,3477.0810000178753,completion,,,,,false,,,,422814.3000000119,422814.2000000179,419309.53,419319.5,419337.119,422829.591,8,400,,,
trial,html.Screen,4_101_0,2023-10-31T21:15:58.977Z,,0,3,,3590.1090000178665,response,ISIC_1615485.JPG,7,ISIC_0033325.JPG,ISIC_0033325.JPG,false,0,keypress(z),500,426420.09999999404,426419.7000000179,422802.739,422814.5,422829.591,426454.563,8,400,2,,ISIC_1615485.JPG
break,html.Screen,4_101_1,2023-10-31T21:15:58.979Z,,0,,,NaN,,,,,,false,,,,426422.2000000179,426421.90000000596,,426420.3000000119,,426454.563,8,400,,,
break_continue,html.Screen,4_101_2,2023-10-31T21:15:58.980Z,,0,,,NaN,,,,,,false,,,,426422.7000000179,426422.59999999404,,426422.40000000596,,426454.563,8,400,,,
sequence,flow.Sequence,4_101,2023-10-31T21:15:58.980Z,,0,,,3593.0089999940246,completion,,,,,false,,,,426422.8000000119,426422.59999999404,422802.739,422814.5,422829.591,426454.563,8,400,,,
trial,html.Screen,4_102_0,2023-10-31T21:16:02.328Z,,0,3,,3315.6370000178576,response,ISIC_7047780.JPG,12,ISIC_3684488.JPG,ISIC_3684488.JPG,false,0,keypress(z),500,429770.59999999404,429770.2000000179,426437.786,426422.90000000596,426454.563,429805.014,8,400,3,,ISIC_7047780.JPG
break,html.Screen,4_102_1,2023-10-31T21:16:02.330Z,,0,,,NaN,,,,,,false,,,,429772.59999999404,429772.3000000119,,429770.90000000596,,429805.014,8,400,,,
break_continue,html.Screen,4_102_2,2023-10-31T21:16:02.330Z,,0,,,NaN,,,,,,false,,,,429773,429772.90000000596,,429772.7000000179,,429805.014,8,400,,,
sequence,flow.Sequence,4_102,2023-10-31T21:16:02.330Z,,0,,,3318.3370000059367,completion,,,,,false,,,,429773.09999999404,429772.90000000596,426437.786,426422.8000000119,426454.563,429805.014,8,400,,,
trial,html.Screen,4_103_0,2023-10-31T21:16:05.507Z,,0,3,,3144.1860000178567,response,ISIC_9011718.JPG,8,ISIC_0025165.JPG,ISIC_0025165.JPG,false,0,keypress(z),500,432949.59999999404,432949.2000000179,429788.21,429773.2000000179,429805.014,432957.357,8,400,4,,ISIC_9011718.JPG
break,html.Screen,4_103_1,2023-10-31T21:16:05.509Z,,0,,,NaN,,,,,,false,,,,432952,432951.7000000179,,432949.90000000596,,432957.357,8,400,,,
break_continue,html.Screen,4_103_2,2023-10-31T21:16:05.509Z,,0,,,NaN,,,,,,false,,,,432952.40000000596,432952.3000000119,,432952.09999999404,,432957.357,8,400,,,
sequence,flow.Sequence,4_103,2023-10-31T21:16:05.510Z,,0,,,3147.2860000118962,completion,,,,,false,,,,432952.59999999404,432952.3000000119,429788.21,429773.09999999404,429805.014,432957.357,8,400,,,
trial,html.Screen,4_104_0,2023-10-31T21:16:09.643Z,,0,3,,4127.843000017863,response,ISIC_0033905.JPG,13,ISIC_1569775.JPG,ISIC_0033905.JPG,false,1,keypress(m),500,437085.5,437085.2000000179,432947.697,432952.7000000179,432957.357,437103.401,8,400,5,,ISIC_1569775.JPG
break,html.Screen,4_104_1,2023-10-31T21:16:09.644Z,,0,,,NaN,,,,,,false,,,,437087.40000000596,437087.3000000119,,437085.8000000119,,437103.401,8,400,,,
break_continue,html.Screen,4_104_2,2023-10-31T21:16:09.645Z,,0,,,NaN,,,,,,false,,,,437087.8000000119,437087.7000000179,,437087.59999999404,,437103.401,8,400,,,
sequence,flow.Sequence,4_104,2023-10-31T21:16:09.645Z,,0,,,4130.343000017863,completion,,,,,false,,,,437088,437087.7000000179,432947.697,432952.59999999404,432957.357,437103.401,8,400,,,
trial,html.Screen,4_105_0,2023-10-31T21:16:13.463Z,,0,3,,3802.3990000119084,response,ISIC_7152347.JPG,10,ISIC_0061581.JPG,ISIC_0061581.JPG,false,0,keypress(z),500,440906.2000000179,440905.8000000119,437077.995,437088,437103.401,440924.071,8,400,6,,ISIC_7152347.JPG
break,html.Screen,4_105_1,2023-10-31T21:16:13.465Z,,0,,,NaN,,,,,,false,,,,440908.2000000179,440907.90000000596,,440906.5,,440924.071,8,400,,,
break_continue,html.Screen,4_105_2,2023-10-31T21:16:13.466Z,,0,,,NaN,,,,,,false,,,,440908.7000000179,440908.59999999404,,440908.40000000596,,440924.071,8,400,,,
sequence,flow.Sequence,4_105,2023-10-31T21:16:13.466Z,,0,,,3805.198999994027,completion,,,,,false,,,,440908.8000000119,440908.59999999404,437077.995,437088,437103.401,440924.071,8,400,,,
trial,html.Screen,4_106_0,2023-10-31T21:16:17.967Z,,0,3,,4486.028999994043,response,ISIC_7594601.JPG,5,ISIC_3787339.JPG,ISIC_3787339.JPG,false,0,keypress(z),500,445410.40000000596,445410.09999999404,440906.983,440908.90000000596,440924.071,445428.389,8,400,7,,ISIC_7594601.JPG
break,html.Screen,4_106_1,2023-10-31T21:16:17.970Z,,0,,,NaN,,,,,,false,,,,445412.59999999404,445412.2000000179,,445410.7000000179,,445428.389,8,400,,,
break_continue,html.Screen,4_106_2,2023-10-31T21:16:17.970Z,,0,,,NaN,,,,,,false,,,,445413,445412.90000000596,,445412.7000000179,,445428.389,8,400,,,
sequence,flow.Sequence,4_106,2023-10-31T21:16:17.970Z,,0,,,4488.829000005964,completion,,,,,false,,,,445413.09999999404,445412.90000000596,440906.983,440908.8000000119,440924.071,445428.389,8,400,,,
trial,html.Screen,4_107_0,2023-10-31T21:16:21.594Z,,0,3,,3607.9110000118962,response,ISIC_0070009.JPG,9,ISIC_0028781.JPG,ISIC_0070009.JPG,false,1,keypress(m),500,449036.7000000179,449036.3000000119,445400.109,445413.2000000179,445428.389,449053.999,8,400,8,,ISIC_0028781.JPG
break,html.Screen,4_107_1,2023-10-31T21:16:21.596Z,,0,,,NaN,,,,,,false,,,,449038.7000000179,449038.40000000596,,449037,,449053.999,8,400,,,
break_continue,html.Screen,4_107_2,2023-10-31T21:16:21.596Z,,0,,,NaN,,,,,,false,,,,449039,449038.90000000596,,449038.8000000119,,449053.999,8,400,,,
sequence,flow.Sequence,4_107,2023-10-31T21:16:21.596Z,,0,,,3610.511000005936,completion,,,,,false,,,,449039.2000000179,449038.90000000596,445400.109,445413.2000000179,445428.389,449053.999,8,400,,,
trial,html.Screen,4_108_0,2023-10-31T21:16:27.907Z,,0,3,,6296.201000017871,response,ISIC_0029283.JPG,4,ISIC_0010723.JPG,ISIC_0010723.JPG,false,0,keypress(z),500,455350.5,455350.2000000179,449024.01,449039.3000000119,449053.999,455369.803,8,400,9,,ISIC_0029283.JPG
break,html.Screen,4_108_1,2023-10-31T21:16:27.908Z,,0,,,NaN,,,,,,false,,,,455351.40000000596,455351.2000000179,,455350.7000000179,,455369.803,8,400,,,
break_continue,html.Screen,4_108_2,2023-10-31T21:16:27.909Z,,0,,,NaN,,,,,,false,,,,455351.7000000179,455351.59999999404,,455351.5,,455369.803,8,400,,,
sequence,flow.Sequence,4_108,2023-10-31T21:16:27.909Z,,0,,,6297.600999994029,completion,,,,,false,,,,455351.8000000119,455351.59999999404,449024.01,449039.2000000179,449053.999,455369.803,8,400,,,
trial,html.Screen,4_109_0,2023-10-31T21:16:33.547Z,,0,3,,5619.4970000119065,response,ISIC_3897960.JPG,6,ISIC_5714285.JPG,ISIC_5714285.JPG,false,0,keypress(z),500,460989.7000000179,460989.3000000119,455353.149,455352,455369.803,461007.348,8,400,10,,ISIC_3897960.JPG
break,html.Screen,4_109_1,2023-10-31T21:16:33.549Z,,0,,,NaN,,,,,,false,,,,460991.7000000179,460991.40000000596,,460989.90000000596,,461007.348,8,400,,,
break_continue,html.Screen,4_109_2,2023-10-31T21:16:33.549Z,,0,,,NaN,,,,,,false,,,,460992.09999999404,460991.90000000596,,460991.8000000119,,461007.348,8,400,,,
sequence,flow.Sequence,4_109,2023-10-31T21:16:33.549Z,,0,,,5622.097000005946,completion,,,,,false,,,,460992.2000000179,460991.90000000596,455353.149,455351.90000000596,455369.803,461007.348,8,400,,,
trial,html.Screen,4_110_0,2023-10-31T21:16:36.487Z,,0,3,,2922.0520000059623,response,ISIC_0026890.JPG,9,ISIC_0058315.JPG,ISIC_0058315.JPG,false,0,keypress(z),500,463929.8000000119,463929.40000000596,460975.636,460992.3000000119,461007.348,463947.506,8,400,11,,ISIC_0026890.JPG
break,html.Screen,4_110_1,2023-10-31T21:16:36.489Z,,0,,,NaN,,,,,,false,,,,463932.09999999404,463931.8000000119,,463930.09999999404,,463947.506,8,400,,,
break_continue,html.Screen,4_110_2,2023-10-31T21:16:36.490Z,,0,,,NaN,,,,,,false,,,,463932.59999999404,463932.40000000596,,463932.3000000119,,463947.506,8,400,,,
sequence,flow.Sequence,4_110,2023-10-31T21:16:36.490Z,,0,,,2925.0520000059623,completion,,,,,false,,,,463932.7000000179,463932.40000000596,460975.636,460992.3000000119,461007.348,463947.506,8,400,,,
trial,html.Screen,4_111_0,2023-10-31T21:16:40.386Z,,0,3,,3881.6940000178874,response,ISIC_2482653.JPG,8,ISIC_0331389.JPG,ISIC_0331389.JPG,false,0,keypress(z),500,467829.40000000596,467829.2000000179,463916.091,463932.8000000119,463947.506,467847.217,8,400,12,,ISIC_2482653.JPG
break,html.Screen,4_111_1,2023-10-31T21:16:40.388Z,,0,,,NaN,,,,,,false,,,,467831.3000000119,467831,,467829.7000000179,,467847.217,8,400,,,
break_continue,html.Screen,4_111_2,2023-10-31T21:16:40.389Z,,0,,,NaN,,,,,,false,,,,467831.59999999404,467831.5,,467831.40000000596,,467847.217,8,400,,,
sequence,flow.Sequence,4_111,2023-10-31T21:16:40.389Z,,0,,,3883.994000000006,completion,,,,,false,,,,467831.8000000119,467831.5,463916.091,463932.8000000119,463947.506,467847.217,8,400,,,
trial,html.Screen,4_112_0,2023-10-31T21:16:43.147Z,,0,3,,2742.5830000119167,response,ISIC_0032342.JPG,5,ISIC_0010209.JPG,ISIC_0010209.JPG,false,0,keypress(z),500,470590.3000000119,470589.8000000119,467829.745,467831.90000000596,467847.217,470608.451,8,400,13,,ISIC_0032342.JPG
break,html.Screen,4_112_1,2023-10-31T21:16:43.150Z,,0,,,NaN,,,,,,false,,,,470592.8000000119,470592.59999999404,,470590.7000000179,,470608.451,8,400,,,
break_continue,html.Screen,4_112_2,2023-10-31T21:16:43.150Z,,0,,,NaN,,,,,,false,,,,470593.2000000179,470593.09999999404,,470593,,470608.451,8,400,,,
sequence,flow.Sequence,4_112,2023-10-31T21:16:43.150Z,,0,,,2745.8829999940353,completion,,,,,false,,,,470593.40000000596,470593.09999999404,467829.745,467831.8000000119,467847.217,470608.451,8,400,,,
trial,html.Screen,4_113_0,2023-10-31T21:16:45.922Z,,0,3,,2756.2490000178805,response,ISIC_5360921.JPG,11,ISIC_4728968.JPG,ISIC_4728968.JPG,false,0,keypress(z),500,473365.09999999404,473364.7000000179,470581.138,470593.5,470608.451,473383.062,8,400,14,,ISIC_5360921.JPG
break,html.Screen,4_113_1,2023-10-31T21:16:45.924Z,,0,,,NaN,,,,,,false,,,,473367.3000000119,473366.90000000596,,473365.40000000596,,473383.062,8,400,,,
break_continue,html.Screen,4_113_2,2023-10-31T21:16:45.925Z,,0,,,NaN,,,,,,false,,,,473367.7000000179,473367.59999999404,,473367.40000000596,,473383.062,8,400,,,
sequence,flow.Sequence,4_113,2023-10-31T21:16:45.925Z,,0,,,2759.1489999940386,completion,,,,,false,,,,473367.90000000596,473367.59999999404,470581.138,470593.40000000596,470608.451,473383.062,8,400,,,
trial,html.Screen,4_114_0,2023-10-31T21:16:48.571Z,,0,3,,2630.9380000000237,response,ISIC_0029937.JPG,12,ISIC_3291765.JPG,ISIC_0029937.JPG,false,1,keypress(m),500,476014.3000000119,476014,473364.517,473367.90000000596,473383.062,476032.147,8,400,15,,ISIC_3291765.JPG
break,html.Screen,4_114_1,2023-10-31T21:16:48.573Z,,0,,,NaN,,,,,,false,,,,476016.3000000119,476016,,476014.59999999404,,476032.147,8,400,,,
break_continue,html.Screen,4_114_2,2023-10-31T21:16:48.574Z,,0,,,NaN,,,,,,false,,,,476016.59999999404,476016.5,,476016.3000000119,,476032.147,8,400,,,
sequence,flow.Sequence,4_114,2023-10-31T21:16:48.574Z,,0,,,2633.4380000000237,completion,,,,,false,,,,476016.8000000119,476016.5,473364.517,473367.90000000596,473383.062,476032.147,8,400,,,
trial,html.Screen,4_115_0,2023-10-31T21:16:51.298Z,,0,3,,2708.7530000059633,response,ISIC_0061011.JPG,12,ISIC_4384341.JPG,ISIC_0061011.JPG,false,1,keypress(m),500,478741.3000000119,478740.90000000596,476010.708,476016.90000000596,476032.147,478759.06,8,400,16,,ISIC_4384341.JPG
break,html.Screen,4_115_1,2023-10-31T21:16:51.300Z,,0,,,NaN,,,,,,false,,,,478743.40000000596,478743.09999999404,,478741.59999999404,,478759.06,8,400,,,
break_continue,html.Screen,4_115_2,2023-10-31T21:16:51.301Z,,0,,,NaN,,,,,,false,,,,478743.7000000179,478743.7000000179,,478743.5,,478759.06,8,400,,,
sequence,flow.Sequence,4_115,2023-10-31T21:16:51.301Z,,0,,,2711.553000017884,completion,,,,,false,,,,478743.90000000596,478743.7000000179,476010.708,476016.8000000119,476032.147,478759.06,8,400,,,
trial,html.Screen,4_116_0,2023-10-31T21:16:54.537Z,,0,3,,3220.6400000178837,response,ISIC_0002953.JPG,9,ISIC_0026558.JPG,ISIC_0026558.JPG,false,0,keypress(z),500,481980.3000000119,481979.7000000179,478742.034,478744.09999999404,478759.06,481998.304,8,400,17,,ISIC_0002953.JPG
break,html.Screen,4_116_1,2023-10-31T21:16:54.540Z,,0,,,NaN,,,,,,false,,,,481983.40000000596,481983.09999999404,,481980.7000000179,,481998.304,8,400,,,
break_continue,html.Screen,4_116_2,2023-10-31T21:16:54.541Z,,0,,,NaN,,,,,,false,,,,481983.90000000596,481983.7000000179,,481983.59999999404,,481998.304,8,400,,,
sequence,flow.Sequence,4_116,2023-10-31T21:16:54.541Z,,0,,,3224.6400000178837,completion,,,,,false,,,,481984.2000000179,481983.7000000179,478742.034,478744,478759.06,481998.304,8,400,,,
trial,html.Screen,4_117_0,2023-10-31T21:16:57.894Z,,0,3,,3338.1959999999963,response,ISIC_0013767.JPG,6,ISIC_0062524.JPG,ISIC_0013767.JPG,false,1,keypress(m),500,485336.8000000119,485336.5,481979.264,481984.3000000119,481998.304,485354.44,8,400,18,,ISIC_0062524.JPG
break,html.Screen,4_117_1,2023-10-31T21:16:57.896Z,,0,,,NaN,,,,,,false,,,,485338.7000000179,485338.40000000596,,485337,,485354.44,8,400,,,
break_continue,html.Screen,4_117_2,2023-10-31T21:16:57.896Z,,0,,,NaN,,,,,,false,,,,485339,485339,,485338.90000000596,,485354.44,8,400,,,
sequence,flow.Sequence,4_117,2023-10-31T21:16:57.896Z,,0,,,3340.6959999999963,completion,,,,,false,,,,485339.2000000179,485339,481979.264,481984.3000000119,481998.304,485354.44,8,400,,,
trial,html.Screen,4_118_0,2023-10-31T21:17:00.753Z,,0,3,,2841.460000005958,response,ISIC_0027600.JPG,12,ISIC_0066798.JPG,ISIC_0066798.JPG,false,0,keypress(z),500,488196.3000000119,488195.90000000596,485334.808,485339.2000000179,485354.44,488213.961,8,400,19,,ISIC_0027600.JPG
break,html.Screen,4_118_1,2023-10-31T21:17:00.755Z,,0,,,NaN,,,,,,false,,,,488198.3000000119,488198,,488196.59999999404,,488213.961,8,400,,,
break_continue,html.Screen,4_118_2,2023-10-31T21:17:00.756Z,,0,,,NaN,,,,,,false,,,,488198.7000000179,488198.59999999404,,488198.5,,488213.961,8,400,,,
sequence,flow.Sequence,4_118,2023-10-31T21:17:00.756Z,,0,,,2844.159999994037,completion,,,,,false,,,,488198.90000000596,488198.59999999404,485334.808,485339.2000000179,485354.44,488213.961,8,400,,,
trial,html.Screen,4_119_0,2023-10-31T21:17:03.789Z,,0,3,,3018.239000017871,response,ISIC_0027436.JPG,9,ISIC_0033202.JPG,ISIC_0027436.JPG,false,1,keypress(m),500,491232.59999999404,491232.2000000179,488189.748,488198.90000000596,488213.961,491250.405,8,400,20,,ISIC_0033202.JPG
break,html.Screen,4_119_1,2023-10-31T21:17:03.792Z,,0,,,NaN,,,,,,false,,,,491234.7000000179,491234.5,,491232.8000000119,,491250.405,8,400,,,
break_continue,html.Screen,4_119_2,2023-10-31T21:17:03.792Z,,0,,,NaN,,,,,,false,,,,491235,491234.90000000596,,491234.8000000119,,491250.405,8,400,,,
sequence,flow.Sequence,4_119,2023-10-31T21:17:03.792Z,,0,,,3020.93900000595,completion,,,,,false,,,,491235.2000000179,491234.90000000596,488189.748,488198.90000000596,488213.961,491250.405,8,400,,,
trial,html.Screen,4_120_0,2023-10-31T21:17:06.921Z,,0,3,,3112.7950000178535,response,ISIC_0062031.JPG,5,ISIC_3973431.JPG,ISIC_0062031.JPG,false,1,keypress(m),500,494363.59999999404,494363.2000000179,491225.437,491235.3000000119,491250.405,494381.442,8,400,21,,ISIC_3973431.JPG
break,html.Screen,4_120_1,2023-10-31T21:17:06.923Z,,0,,,NaN,,,,,,false,,,,494365.90000000596,494365.59999999404,,494364,,494381.442,8,400,,,
break_continue,html.Screen,4_120_2,2023-10-31T21:17:06.923Z,,0,,,NaN,,,,,,false,,,,494366.40000000596,494366.3000000119,,494366.09999999404,,494381.442,8,400,,,
sequence,flow.Sequence,4_120,2023-10-31T21:17:06.923Z,,0,,,3115.895000011893,completion,,,,,false,,,,494366.59999999404,494366.3000000119,491225.437,491235.3000000119,491250.405,494381.442,8,400,,,
trial,html.Screen,4_121_0,2023-10-31T21:17:11.970Z,,0,3,,5030.95800000598,response,ISIC_0060585.JPG,12,ISIC_4829706.JPG,ISIC_0060585.JPG,false,1,keypress(m),500,499412.7000000179,499412.40000000596,494349.228,494366.90000000596,494381.442,499446.816,8,400,22,,ISIC_4829706.JPG
break,html.Screen,4_121_1,2023-10-31T21:17:11.972Z,,0,,,NaN,,,,,,false,,,,499414.8000000119,499414.40000000596,,499413,,499446.816,8,400,,,
break_continue,html.Screen,4_121_2,2023-10-31T21:17:11.972Z,,0,,,NaN,,,,,,false,,,,499415.09999999404,499415,,499414.90000000596,,499446.816,8,400,,,
sequence,flow.Sequence,4_121,2023-10-31T21:17:11.972Z,,0,,,5033.558000000019,completion,,,,,false,,,,499415.2000000179,499415,494349.228,494366.8000000119,494381.442,499446.816,8,400,,,
trial,html.Screen,4_122_0,2023-10-31T21:17:15.070Z,,0,3,,3066.1840000000084,response,ISIC_4534608.JPG,4,ISIC_3067885.JPG,ISIC_3067885.JPG,false,0,keypress(z),500,502513.40000000596,502513,499430.244,499415.40000000596,499446.816,502531.602,8,400,23,,ISIC_4534608.JPG
break,html.Screen,4_122_1,2023-10-31T21:17:15.073Z,,0,,,NaN,,,,,,false,,,,502516.3000000119,502515.8000000119,,502514,,502531.602,8,400,,,
break_continue,html.Screen,4_122_2,2023-10-31T21:17:15.074Z,,0,,,NaN,,,,,,false,,,,502517.09999999404,502516.90000000596,,502516.5,,502531.602,8,400,,,
sequence,flow.Sequence,4_122,2023-10-31T21:17:15.074Z,,0,,,3070.084000005969,completion,,,,,false,,,,502517.40000000596,502516.90000000596,499430.244,499415.3000000119,499446.816,502531.602,8,400,,,
trial,html.Screen,4_123_0,2023-10-31T21:17:18.027Z,,0,3,,2937.798000005947,response,ISIC_8108870.JPG,12,ISIC_7594601.JPG,ISIC_7594601.JPG,false,0,keypress(z),500,505469.59999999404,505469.40000000596,502511.08,502517.59999999404,502531.602,505487.356,8,400,24,,ISIC_8108870.JPG
break,html.Screen,4_123_1,2023-10-31T21:17:18.028Z,,0,,,NaN,,,,,,false,,,,505471.5,505471.2000000179,,505469.8000000119,,505487.356,8,400,,,
break_continue,html.Screen,4_123_2,2023-10-31T21:17:18.029Z,,0,,,NaN,,,,,,false,,,,505472,505471.8000000119,,505471.7000000179,,505487.356,8,400,,,
sequence,flow.Sequence,4_123,2023-10-31T21:17:18.029Z,,0,,,2940.1980000119074,completion,,,,,false,,,,505472.3000000119,505471.8000000119,502511.08,502517.5,502531.602,505487.356,8,400,,,
trial,html.Screen,4_124_0,2023-10-31T21:17:21.344Z,,0,3,,3299.2439999940107,response,ISIC_0070992.JPG,10,ISIC_0033555.JPG,ISIC_0070992.JPG,false,1,keypress(m),500,508786.90000000596,508786.59999999404,505465.965,505472.40000000596,505487.356,508804.719,8,400,25,,ISIC_0033555.JPG
break,html.Screen,4_124_1,2023-10-31T21:17:21.346Z,,0,,,NaN,,,,,,false,,,,508789.2000000179,508789,,508787.2000000179,,508804.719,8,400,,,
break_continue,html.Screen,4_124_2,2023-10-31T21:17:21.347Z,,0,,,NaN,,,,,,false,,,,508789.8000000119,508789.5,,508789.3000000119,,508804.719,8,400,,,
sequence,flow.Sequence,4_124,2023-10-31T21:17:21.347Z,,0,,,3302.143999999971,completion,,,,,false,,,,508790.09999999404,508789.5,505465.965,505472.40000000596,505487.356,508804.719,8,400,,,
trial,html.Screen,4_125_0,2023-10-31T21:17:28.378Z,,0,3,,7015.481000017899,response,ISIC_0000151.JPG,10,ISIC_0034180.JPG,ISIC_0034180.JPG,false,0,keypress(z),500,515821,515820.2000000179,508776.525,508790.3000000119,508804.719,515838.472,8,400,26,,ISIC_0000151.JPG
break,html.Screen,4_125_1,2023-10-31T21:17:28.380Z,,0,,,NaN,,,,,,false,,,,515823.3000000119,515823,,515821.3000000119,,515838.472,8,400,,,
