sender,sender_type,sender_id,timestamp,meta,,blockNo,condition,duration,ended_on,img_left,img_reveal,img_right,loser,practice,response,response_action,selection_duration,time_commit,time_end,time_render,time_run,time_show,time_switch,total_blocks,total_trials,trialNo,url,winner
informed_consent,html.Screen,0,2023-09-11T17:17:04.765Z,"{""labjs_version"":""20.2.4"",""labjs_build"":{""flavor"":""production"",""commit"":""f5b4a49f956347addd546a832a3327688c2c0fef""},""location"":""https://run.pavlovia.org/MurrayBennett/melanoma-2afc/?participant=65467&platform=sona"",""userAgent"":""Mozilla/5.0 (Windows NT 10.0; Win64; x64) AppleWebKit/537.36 (KHTML, like Gecko) Chrome/116.0.0.0 Safari/537.36 Edg/116.0.1938.76"",""platform"":""Win32"",""language"":""en-US"",""locale"":""en-US"",""timeZone"":""America/Chicago"",""timezoneOffset"":300,""screen_width"":1920,""screen_height"":1080,""scroll_width"":1865,""scroll_height"":921,""window_innerWidth"":1865,""window_innerHeight"":969,""devicePixelRatio"":1}",,,,18073.86099985695,response,,,,,,consent,click button,,24038.89999985695,24037.89999985695,5564.041,5966.799999952316,5964.039,24047.422,,,,"{""participant"":""65467"",""platform"":""sona""}",
Welcome,html.Screen,1,2023-09-11T17:17:29.357Z,,,,uniform,24582.677999904634,response,,,,,,continue,click button,,48630.89999985695,48630.09999990463,24030.761,24039,24047.422,48647.44,,,,,
trial,html.Screen,2_0_0,2023-09-11T17:17:33.424Z,,0,0,,4050.6599999046302,response,ISIC_0025593.JPG,,ISIC_0063388.JPG,ISIC_0025593.JPG,true,1,keypress(m),500,52698.299999952316,52698.09999990463,48614.357,48631.09999990463,48647.44,52730.768,1,6,1,,ISIC_0063388.JPG
sequence,flow.Sequence,2_0,2023-09-11T17:17:33.425Z,,0,,,4050.6599999046302,completion,,,,,true,,,,52698.5,52698.09999990463,48614.357,48631.09999990463,48647.44,52730.768,1,6,,,
trial,html.Screen,2_1_0,2023-09-11T17:17:44.942Z,,0,0,,11516.748000000007,timeout,ISIC_0028178.JPG,,ISIC_1309015.JPG,,true,,,500,64216,64215.5,52714.104,52698.59999990463,52730.768,64247.516,1,6,2,,
sequence,flow.Sequence,2_1,2023-09-11T17:17:44.942Z,,0,,,11484.732000000004,completion,,,,,true,,,,64216.299999952316,64215.5,52714.104,52698.59999990463,52730.768,64247.516,1,6,,,
trial,html.Screen,2_2_0,2023-09-11T17:17:49.697Z,,0,0,,4722.1840000476805,response,ISIC_3314853.JPG,,ISIC_0031128.JPG,ISIC_0031128.JPG,true,0,keypress(z),500,68970.09999990463,68969.70000004768,64230.842,64216.59999990463,64247.516,68997.516,1,6,3,,ISIC_3314853.JPG
sequence,flow.Sequence,2_2,2023-09-11T17:17:49.697Z,,0,,,4722.1840000476805,completion,,,,,true,,,,68970.5,68969.70000004768,64230.842,64216.5,64247.516,68997.516,1,6,,,
trial,html.Screen,2_3_0,2023-09-11T17:17:53.268Z,,0,0,,3542.9839999999967,response,ISIC_0031612.JPG,,ISIC_8980141.JPG,ISIC_0031612.JPG,true,1,keypress(m),500,72540.70000004768,72540.5,68980.899,68970.89999985695,68997.516,72547.54,1,6,4,,ISIC_8980141.JPG
sequence,flow.Sequence,2_3,2023-09-11T17:17:53.268Z,,0,,,3542.9839999999967,completion,,,,,true,,,,72540.79999995232,72540.5,68980.899,68970.79999995232,68997.516,72547.54,1,6,,,
trial,html.Screen,2_4_0,2023-09-11T17:17:57.227Z,,0,0,,3952.16000004769,response,ISIC_9721604.JPG,,ISIC_1197737.JPG,ISIC_1197737.JPG,true,0,keypress(z),500,76500.20000004768,76499.70000004768,72530.769,72541,72547.54,76514.352,1,6,5,,ISIC_9721604.JPG
sequence,flow.Sequence,2_4,2023-09-11T17:17:57.228Z,,0,,,3952.16000004769,completion,,,,,true,,,,76500.79999995232,76499.70000004768,72530.769,72540.89999985695,72547.54,76514.352,1,6,,,
trial,html.Screen,2_5_0,2023-09-11T17:18:00.560Z,,0,0,,3318.54799985695,response,ISIC_0025346.JPG,,ISIC_0010681.JPG,ISIC_0025346.JPG,true,1,keypress(m),500,79833.09999990463,79832.89999985695,76497.505,76501.09999990463,76514.352,79847.488,1,6,6,,ISIC_0010681.JPG
sequence,flow.Sequence,2_5,2023-09-11T17:18:00.560Z,,0,,,3318.54799985695,completion,,,,,true,,,,79833.20000004768,79832.89999985695,76497.505,76501,76514.352,79847.488,1,6,,,
loop,flow.Loop,2,2023-09-11T17:18:00.560Z,,,,,31185.459999856947,completion,,,,,true,,,,79833.29999995232,79832.89999985695,48614.357,48631,48647.44,79847.488,1,6,,,
exp_instructions,html.Screen,3,2023-09-11T17:18:08.678Z,,,,,8103.111999904635,response,,,,,,continue,keypress(Space),,87951.5,87950.59999990463,79831.009,79833.29999995232,79847.488,87964.185,,,,,
trial,html.Screen,4_0_0,2023-09-11T17:18:13.500Z,,0,1,,4808.914999904635,response,ISIC_5026709.JPG,5,ISIC_0000146.JPG,ISIC_0000146.JPG,false,0,keypress(z),500,92773.39999985695,92773.09999990463,87947.686,87951.89999985695,87964.185,92780.865,8,400,1,,ISIC_5026709.JPG
break,html.Screen,4_0_1,2023-09-11T17:18:13.502Z,,0,,,NaN,,,,,,false,,,,92774.89999985695,92774.5,,92773.79999995232,,92780.865,8,400,,,
break_continue,html.Screen,4_0_2,2023-09-11T17:18:13.502Z,,0,,,NaN,,,,,,false,,,,92775.59999990463,92775.39999985695,,92775.09999990463,,92780.865,8,400,,,
sequence,flow.Sequence,4_0,2023-09-11T17:18:13.503Z,,0,,,4811.214999856951,completion,,,,,false,,,,92775.89999985695,92775.39999985695,87947.686,87951.89999985695,87964.185,92780.865,8,400,,,
trial,html.Screen,4_1_0,2023-09-11T17:18:18.530Z,,0,1,,5021.734999904627,response,ISIC_0066952.JPG,6,ISIC_0046773.JPG,ISIC_0066952.JPG,false,1,keypress(m),500,97802.70000004768,97802.59999990463,92764.212,92776.09999990463,92780.865,97814.104,8,400,2,,ISIC_0046773.JPG
break,html.Screen,4_1_1,2023-09-11T17:18:18.530Z,,0,,,NaN,,,,,,false,,,,97803.09999990463,97803,,97802.89999985695,,97814.104,8,400,,,
break_continue,html.Screen,4_1_2,2023-09-11T17:18:18.530Z,,0,,,NaN,,,,,,false,,,,97803.20000004768,97803.20000004768,,97803.09999990463,,97814.104,8,400,,,
sequence,flow.Sequence,4_1,2023-09-11T17:18:18.530Z,,0,,,5022.3350000476785,completion,,,,,false,,,,97803.29999995232,97803.20000004768,92764.212,92776,92780.865,97814.104,8,400,,,
trial,html.Screen,4_2_0,2023-09-11T17:18:22.139Z,,0,1,,3597.6959999523096,response,ISIC_0010714.JPG,5,ISIC_0059349.JPG,ISIC_0010714.JPG,false,1,keypress(m),500,101412.09999990463,101411.79999995232,97797.39,97803.39999985695,97814.104,101414.187,8,400,3,,ISIC_0059349.JPG
break,html.Screen,4_2_1,2023-09-11T17:18:22.140Z,,0,,,NaN,,,,,,false,,,,101413.09999990463,101412.70000004768,,101412.39999985695,,101414.187,8,400,,,
break_continue,html.Screen,4_2_2,2023-09-11T17:18:22.140Z,,0,,,NaN,,,,,,false,,,,101413.5,101413.39999985695,,101413.20000004768,,101414.187,8,400,,,
sequence,flow.Sequence,4_2,2023-09-11T17:18:22.141Z,,0,,,3599.295999856942,completion,,,,,false,,,,101413.79999995232,101413.39999985695,97797.39,97803.29999995232,97814.104,101414.187,8,400,,,
trial,html.Screen,4_3_0,2023-09-11T17:18:26.079Z,,0,1,,3937.912999904627,response,ISIC_6446779.JPG,4,ISIC_5486460.JPG,ISIC_6446779.JPG,false,1,keypress(m),500,105352.39999985695,105352.09999990463,101397.558,101414,101414.187,105364.234,8,400,4,,ISIC_5486460.JPG
break,html.Screen,4_3_1,2023-09-11T17:18:26.080Z,,0,,,NaN,,,,,,false,,,,105353.39999985695,105353.09999990463,,105352.70000004768,,105364.234,8,400,,,
break_continue,html.Screen,4_3_2,2023-09-11T17:18:26.081Z,,0,,,NaN,,,,,,false,,,,105353.89999985695,105353.70000004768,,105353.5,,105364.234,8,400,,,
sequence,flow.Sequence,4_3,2023-09-11T17:18:26.081Z,,0,,,3939.5130000476784,completion,,,,,false,,,,105354.09999990463,105353.70000004768,101397.558,101413.89999985695,101414.187,105364.234,8,400,,,
trial,html.Screen,4_4_0,2023-09-11T17:18:29.306Z,,0,1,,3214.466000047687,response,ISIC_0054185.JPG,5,ISIC_3737739.JPG,ISIC_3737739.JPG,false,0,keypress(z),500,108578.70000004768,108578.70000004768,105347.624,105354.39999985695,105364.234,108580.762,8,400,5,,ISIC_0054185.JPG
break,html.Screen,4_4_1,2023-09-11T17:18:29.306Z,,0,,,NaN,,,,,,false,,,,108579.20000004768,108579.09999990463,,108578.89999985695,,108580.762,8,400,,,
break_continue,html.Screen,4_4_2,2023-09-11T17:18:29.306Z,,0,,,NaN,,,,,,false,,,,108579.39999985695,108579.29999995232,,108579.20000004768,,108580.762,8,400,,,
sequence,flow.Sequence,4_4,2023-09-11T17:18:29.306Z,,0,,,3215.0659999523195,completion,,,,,false,,,,108579.5,108579.29999995232,105347.624,105354.29999995232,105364.234,108580.762,8,400,,,
trial,html.Screen,4_5_0,2023-09-11T17:18:34.387Z,,0,1,,5078.938000047681,response,ISIC_4153542.JPG,4,ISIC_0000026.JPG,ISIC_4153542.JPG,false,1,keypress(m),500,113660,113659.70000004768,108564.368,108579.59999990463,108580.762,113664.181,8,400,6,,ISIC_0000026.JPG
break,html.Screen,4_5_1,2023-09-11T17:18:34.388Z,,0,,,NaN,,,,,,false,,,,113661.39999985695,113661,,113660.70000004768,,113664.181,8,400,,,
break_continue,html.Screen,4_5_2,2023-09-11T17:18:34.389Z,,0,,,NaN,,,,,,false,,,,113661.89999985695,113661.70000004768,,113661.59999990463,,113664.181,8,400,,,
sequence,flow.Sequence,4_5,2023-09-11T17:18:34.389Z,,0,,,5080.938000047681,completion,,,,,false,,,,113662.29999995232,113661.70000004768,108564.368,108579.5,108580.762,113664.181,8,400,,,
trial,html.Screen,4_6_0,2023-09-11T17:18:38.136Z,,0,1,,3744.519000047687,response,ISIC_0025523.JPG,6,ISIC_8995044.JPG,ISIC_0025523.JPG,false,1,keypress(m),500,117409,117408.70000004768,113647.571,113662.5,113664.181,117414.134,8,400,7,,ISIC_8995044.JPG
break,html.Screen,4_6_1,2023-09-11T17:18:38.137Z,,0,,,NaN,,,,,,false,,,,117410.09999990463,117409.79999995232,,117409.29999995232,,117414.134,8,400,,,
break_continue,html.Screen,4_6_2,2023-09-11T17:18:38.138Z,,0,,,NaN,,,,,,false,,,,117410.59999990463,117410.5,,117410.29999995232,,117414.134,8,400,,,
sequence,flow.Sequence,4_6,2023-09-11T17:18:38.138Z,,0,,,3746.319000000003,completion,,,,,false,,,,117411,117410.5,113647.571,113662.39999985695,113664.181,117414.134,8,400,,,
trial,html.Screen,4_7_0,2023-09-11T17:18:41.250Z,,0,1,,3108.5660000476782,response,ISIC_4640181.JPG,6,ISIC_0013898.JPG,ISIC_4640181.JPG,false,1,keypress(m),500,120523,120522.70000004768,117397.654,117411.20000004768,117414.134,120530.818,8,400,8,,ISIC_0013898.JPG
break,html.Screen,4_7_1,2023-09-11T17:18:41.251Z,,0,,,NaN,,,,,,false,,,,120524,120523.70000004768,,120523.29999995232,,120530.818,8,400,,,
break_continue,html.Screen,4_7_2,2023-09-11T17:18:41.251Z,,0,,,NaN,,,,,,false,,,,120524.5,120524.29999995232,,120524.20000004768,,120530.818,8,400,,,
sequence,flow.Sequence,4_7,2023-09-11T17:18:41.252Z,,0,,,3110.165999952311,completion,,,,,false,,,,120524.70000004768,120524.29999995232,117397.654,117411.09999990463,117414.134,120530.818,8,400,,,
trial,html.Screen,4_8_0,2023-09-11T17:18:44.762Z,,0,1,,3503.981999952317,response,ISIC_0011196.JPG,5,ISIC_0006118.JPG,ISIC_0006118.JPG,false,0,keypress(z),500,124035,124034.79999995232,120514.2,120525,120530.818,124047.593,8,400,9,,ISIC_0011196.JPG
break,html.Screen,4_8_1,2023-09-11T17:18:44.763Z,,0,,,NaN,,,,,,false,,,,124036.20000004768,124035.89999985695,,124035.39999985695,,124047.593,8,400,,,
break_continue,html.Screen,4_8_2,2023-09-11T17:18:44.764Z,,0,,,NaN,,,,,,false,,,,124036.79999995232,124036.70000004768,,124036.39999985695,,124047.593,8,400,,,
sequence,flow.Sequence,4_8,2023-09-11T17:18:44.764Z,,0,,,3505.8820000476844,completion,,,,,false,,,,124037,124036.70000004768,120514.2,120524.89999985695,120530.818,124047.593,8,400,,,
trial,html.Screen,4_9_0,2023-09-11T17:18:48.974Z,,0,1,,4199.306999856955,response,ISIC_5772938.JPG,5,ISIC_0008881.JPG,ISIC_5772938.JPG,false,1,keypress(m),500,128247.29999995232,128246.89999985695,124030.799,124037.20000004768,124047.593,128264.233,8,400,10,,ISIC_0008881.JPG
break,html.Screen,4_9_1,2023-09-11T17:18:48.976Z,,0,,,NaN,,,,,,false,,,,128248.39999985695,128248.09999990463,,128247.59999990463,,128264.233,8,400,,,
break_continue,html.Screen,4_9_2,2023-09-11T17:18:48.976Z,,0,,,NaN,,,,,,false,,,,128249,128248.89999985695,,128248.59999990463,,128264.233,8,400,,,
sequence,flow.Sequence,4_9,2023-09-11T17:18:48.976Z,,0,,,4201.306999856955,completion,,,,,false,,,,128249.29999995232,128248.89999985695,124030.799,124037.20000004768,124047.593,128264.233,8,400,,,
trial,html.Screen,4_10_0,2023-09-11T17:18:53.241Z,,0,1,,4249.666999856956,response,ISIC_0014860.JPG,4,ISIC_1343302.JPG,ISIC_1343302.JPG,false,0,keypress(z),500,132514.09999990463,132513.89999985695,128247.688,128249.5,128264.233,132531.033,8,400,11,,ISIC_0014860.JPG
break,html.Screen,4_10_1,2023-09-11T17:18:53.242Z,,0,,,NaN,,,,,,false,,,,132515.20000004768,132514.89999985695,,132514.5,,132531.033,8,400,,,
break_continue,html.Screen,4_10_2,2023-09-11T17:18:53.243Z,,0,,,NaN,,,,,,false,,,,132515.89999985695,132515.59999990463,,132515.39999985695,,132531.033,8,400,,,
sequence,flow.Sequence,4_10,2023-09-11T17:18:53.243Z,,0,,,4251.36699990464,completion,,,,,false,,,,132516.09999990463,132515.59999990463,128247.688,128249.5,128264.233,132531.033,8,400,,,
trial,html.Screen,4_11_0,2023-09-11T17:18:56.516Z,,0,1,,3257.5669999046368,response,ISIC_0060972.JPG,6,ISIC_1042960.JPG,ISIC_0060972.JPG,false,1,keypress(m),500,135788.89999985695,135788.59999990463,132514.23,132516.29999995232,132531.033,135797.597,8,400,12,,ISIC_1042960.JPG
break,html.Screen,4_11_1,2023-09-11T17:18:56.517Z,,0,,,NaN,,,,,,false,,,,135790,135789.79999995232,,135789.20000004768,,135797.597,8,400,,,
break_continue,html.Screen,4_11_2,2023-09-11T17:18:56.518Z,,0,,,NaN,,,,,,false,,,,135790.70000004768,135790.5,,135790.20000004768,,135797.597,8,400,,,
sequence,flow.Sequence,4_11,2023-09-11T17:18:56.518Z,,0,,,3259.467000000004,completion,,,,,false,,,,135791,135790.5,132514.23,132516.29999995232,132531.033,135797.597,8,400,,,
trial,html.Screen,4_12_0,2023-09-11T17:19:00.922Z,,0,1,,4397.30299985694,response,ISIC_2311665.JPG,6,ISIC_5682259.JPG,ISIC_5682259.JPG,false,0,keypress(z),500,140195.29999995232,140194.89999985695,135780.942,135791.20000004768,135797.597,140197.548,8,400,13,,ISIC_2311665.JPG
break,html.Screen,4_12_1,2023-09-11T17:19:00.923Z,,0,,,NaN,,,,,,false,,,,140196.29999995232,140196,,140195.5,,140197.548,8,400,,,
break_continue,html.Screen,4_12_2,2023-09-11T17:19:00.924Z,,0,,,NaN,,,,,,false,,,,140196.89999985695,140196.70000004768,,140196.5,,140197.548,8,400,,,
sequence,flow.Sequence,4_12,2023-09-11T17:19:00.924Z,,0,,,4399.103000047675,completion,,,,,false,,,,140197.09999990463,140196.70000004768,135780.942,135791.20000004768,135797.597,140197.548,8,400,,,
trial,html.Screen,4_13_0,2023-09-11T17:19:04.751Z,,0,1,,3825.95199999999,response,ISIC_0010262.JPG,6,ISIC_4505178.JPG,ISIC_0010262.JPG,false,1,keypress(m),500,144023.59999990463,144023.5,140181.027,140197.29999995232,140197.548,144030.781,8,400,14,,ISIC_4505178.JPG
break,html.Screen,4_13_1,2023-09-11T17:19:04.751Z,,0,,,NaN,,,,,,false,,,,144023.89999985695,144023.79999995232,,144023.59999990463,,144030.781,8,400,,,
break_continue,html.Screen,4_13_2,2023-09-11T17:19:04.751Z,,0,,,NaN,,,,,,false,,,,144024.09999990463,144024,,144024,,144030.781,8,400,,,
sequence,flow.Sequence,4_13,2023-09-11T17:19:04.751Z,,0,,,3826.45199999999,completion,,,,,false,,,,144024.20000004768,144024,140181.027,140197.29999995232,140197.548,144030.781,8,400,,,
trial,html.Screen,4_14_0,2023-09-11T17:19:11.537Z,,0,1,,6779.018999952328,response,ISIC_8222254.JPG,5,ISIC_0032160.JPG,ISIC_0032160.JPG,false,0,keypress(z),500,150810.09999990463,150809.79999995232,144014.201,144024.20000004768,144030.781,150814.224,8,400,15,,ISIC_8222254.JPG
break,html.Screen,4_14_1,2023-09-11T17:19:11.538Z,,0,,,NaN,,,,,,false,,,,150811.09999990463,150810.79999995232,,150810.39999985695,,150814.224,8,400,,,
break_continue,html.Screen,4_14_2,2023-09-11T17:19:11.539Z,,0,,,NaN,,,,,,false,,,,150811.59999990463,150811.39999985695,,150811.29999995232,,150814.224,8,400,,,
sequence,flow.Sequence,4_14,2023-09-11T17:19:11.541Z,,0,,,6780.618999856961,completion,,,,,false,,,,150813.79999995232,150811.39999985695,144014.201,144024.20000004768,144030.781,150814.224,8,400,,,
trial,html.Screen,4_15_0,2023-09-11T17:19:16.583Z,,0,1,,5041.776000000013,response,ISIC_5356775.JPG,5,ISIC_5557025.JPG,ISIC_5356775.JPG,false,1,keypress(m),500,155856.29999995232,155856,150797.586,150814.09999990463,150814.224,155864.132,8,400,16,,ISIC_5557025.JPG
break,html.Screen,4_15_1,2023-09-11T17:19:16.585Z,,0,,,NaN,,,,,,false,,,,155857.39999985695,155857.20000004768,,155856.59999990463,,155864.132,8,400,,,
break_continue,html.Screen,4_15_2,2023-09-11T17:19:16.585Z,,0,,,NaN,,,,,,false,,,,155857.79999995232,155857.70000004768,,155857.70000004768,,155864.132,8,400,,,
sequence,flow.Sequence,4_15,2023-09-11T17:19:16.585Z,,0,,,5043.476000047696,completion,,,,,false,,,,155857.89999985695,155857.70000004768,150797.586,150814,150814.224,155864.132,8,400,,,
trial,html.Screen,4_16_0,2023-09-11T17:19:20.434Z,,0,1,,3842.2679998569365,response,ISIC_5150938.JPG,5,ISIC_0027253.JPG,ISIC_0027253.JPG,false,0,keypress(z),500,159706.70000004768,159706.39999985695,155847.568,155858,155864.132,159714.209,8,400,17,,ISIC_5150938.JPG
break,html.Screen,4_16_1,2023-09-11T17:19:20.435Z,,0,,,NaN,,,,,,false,,,,159707.59999990463,159707.39999985695,,159706.89999985695,,159714.209,8,400,,,
break_continue,html.Screen,4_16_2,2023-09-11T17:19:20.435Z,,0,,,NaN,,,,,,false,,,,159708.20000004768,159708,,159707.79999995232,,159714.209,8,400,,,
sequence,flow.Sequence,4_16,2023-09-11T17:19:20.436Z,,0,,,3843.8679999999877,completion,,,,,false,,,,159708.39999985695,159708,155847.568,155857.89999985695,155864.132,159714.209,8,400,,,
trial,html.Screen,4_17_0,2023-09-11T17:19:26.316Z,,0,1,,5874.590999952314,response,ISIC_2364150.JPG,4,ISIC_0059506.JPG,ISIC_0059506.JPG,false,0,keypress(z),500,165589,165588.79999995232,159697.569,159708.70000004768,159714.209,165597.476,8,400,18,,ISIC_2364150.JPG
break,html.Screen,4_17_1,2023-09-11T17:19:26.317Z,,0,,,NaN,,,,,,false,,,,165590.09999990463,165589.79999995232,,165589.29999995232,,165597.476,8,400,,,
break_continue,html.Screen,4_17_2,2023-09-11T17:19:26.318Z,,0,,,NaN,,,,,,false,,,,165590.59999990463,165590.39999985695,,165590.20000004768,,165597.476,8,400,,,
sequence,flow.Sequence,4_17,2023-09-11T17:19:26.318Z,,0,,,5876.190999856946,completion,,,,,false,,,,165590.89999985695,165590.39999985695,159697.569,159708.59999990463,159714.209,165597.476,8,400,,,
trial,html.Screen,4_18_0,2023-09-11T17:19:33.234Z,,0,1,,6908.823999952321,response,ISIC_2166957.JPG,5,ISIC_0056167.JPG,ISIC_0056167.JPG,false,0,keypress(z),500,172506.5,172506.29999995232,165580.918,165591,165597.476,172514.198,8,400,19,,ISIC_2166957.JPG
break,html.Screen,4_18_1,2023-09-11T17:19:33.235Z,,0,,,NaN,,,,,,false,,,,172507.5,172507.39999985695,,172506.79999995232,,172514.198,8,400,,,
break_continue,html.Screen,4_18_2,2023-09-11T17:19:33.235Z,,0,,,NaN,,,,,,false,,,,172508.20000004768,172507.89999985695,,172507.70000004768,,172514.198,8,400,,,
sequence,flow.Sequence,4_18,2023-09-11T17:19:33.235Z,,0,,,6910.423999856954,completion,,,,,false,,,,172508.39999985695,172507.89999985695,165580.918,165591,165597.476,172514.198,8,400,,,
trial,html.Screen,4_19_0,2023-09-11T17:19:36.298Z,,0,1,,3056.4019999046286,response,ISIC_0002041.JPG,4,ISIC_0054974.JPG,ISIC_0054974.JPG,false,0,keypress(z),500,175570.89999985695,175570.59999990463,172497.604,172508.59999990463,172514.198,175597.461,8,400,20,,ISIC_0002041.JPG
break,html.Screen,4_19_1,2023-09-11T17:19:36.299Z,,0,,,NaN,,,,,,false,,,,175572,175571.79999995232,,175571.20000004768,,175597.461,8,400,,,
break_continue,html.Screen,4_19_2,2023-09-11T17:19:36.300Z,,0,,,NaN,,,,,,false,,,,175572.59999990463,175572.29999995232,,175572.20000004768,,175597.461,8,400,,,
sequence,flow.Sequence,4_19,2023-09-11T17:19:36.300Z,,0,,,3058.1019999523123,completion,,,,,false,,,,175572.79999995232,175572.29999995232,172497.604,172508.59999990463,172514.198,175597.461,8,400,,,
trial,html.Screen,4_20_0,2023-09-11T17:19:40.079Z,,0,1,,3753.7390000476735,response,ISIC_8530010.JPG,5,ISIC_0066012.JPG,ISIC_0066012.JPG,false,0,keypress(z),500,179351.5,179351.20000004768,175581.057,175573.09999990463,175597.461,179364.109,8,400,21,,ISIC_8530010.JPG
break,html.Screen,4_20_1,2023-09-11T17:19:40.080Z,,0,,,NaN,,,,,,false,,,,179352.5,179352.20000004768,,179351.79999995232,,179364.109,8,400,,,
break_continue,html.Screen,4_20_2,2023-09-11T17:19:40.080Z,,0,,,NaN,,,,,,false,,,,179353,179352.89999985695,,179352.70000004768,,179364.109,8,400,,,
sequence,flow.Sequence,4_20,2023-09-11T17:19:40.080Z,,0,,,3755.4389998569386,completion,,,,,false,,,,179353.29999995232,179352.89999985695,175581.057,175573,175597.461,179364.109,8,400,,,
trial,html.Screen,4_21_0,2023-09-11T17:19:45.322Z,,0,1,,5230.490999904636,response,ISIC_2597678.JPG,5,ISIC_5005869.JPG,ISIC_5005869.JPG,false,0,keypress(z),500,184594.59999990463,184594.59999990463,179347.593,179353.5,179364.109,184597.504,8,400,22,,ISIC_2597678.JPG
break,html.Screen,4_21_1,2023-09-11T17:19:45.322Z,,0,,,NaN,,,,,,false,,,,184595,184594.89999985695,,184594.70000004768,,184597.504,8,400,,,
break_continue,html.Screen,4_21_2,2023-09-11T17:19:45.322Z,,0,,,NaN,,,,,,false,,,,184595.29999995232,184595.20000004768,,184595.09999990463,,184597.504,8,400,,,
sequence,flow.Sequence,4_21,2023-09-11T17:19:45.322Z,,0,,,5231.091000047687,completion,,,,,false,,,,184595.29999995232,184595.20000004768,179347.593,179353.39999985695,179364.109,184597.504,8,400,,,
trial,html.Screen,4_22_0,2023-09-11T17:19:49.539Z,,0,1,,4213.595999904646,response,ISIC_4418545.JPG,5,ISIC_0026770.JPG,ISIC_0026770.JPG,false,0,keypress(z),500,188811.39999985695,188811.09999990463,184580.961,184595.39999985695,184597.504,188814.224,8,400,23,,ISIC_4418545.JPG
break,html.Screen,4_22_1,2023-09-11T17:19:49.540Z,,0,,,NaN,,,,,,false,,,,188812.5,188812.09999990463,,188811.70000004768,,188814.224,8,400,,,
break_continue,html.Screen,4_22_2,2023-09-11T17:19:49.541Z,,0,,,NaN,,,,,,false,,,,188813.09999990463,188812.79999995232,,188812.70000004768,,188814.224,8,400,,,
sequence,flow.Sequence,4_22,2023-09-11T17:19:49.541Z,,0,,,4215.29599995233,completion,,,,,false,,,,188813.29999995232,188812.79999995232,184580.961,184595.39999985695,184597.504,188814.224,8,400,,,
trial,html.Screen,4_23_0,2023-09-11T17:19:52.730Z,,0,1,,3188.375999904645,response,ISIC_7070020.JPG,4,ISIC_1077375.JPG,ISIC_7070020.JPG,false,1,keypress(m),500,192002.70000004768,192002.59999990463,188797.644,188813.59999990463,188814.224,192014.166,8,400,24,,ISIC_1077375.JPG
break,html.Screen,4_23_1,2023-09-11T17:19:52.731Z,,0,,,NaN,,,,,,false,,,,192003.09999990463,192003,,192002.79999995232,,192014.166,8,400,,,
break_continue,html.Screen,4_23_2,2023-09-11T17:19:52.731Z,,0,,,NaN,,,,,,false,,,,192003.20000004768,192003.20000004768,,192003.20000004768,,192014.166,8,400,,,
sequence,flow.Sequence,4_23,2023-09-11T17:19:52.731Z,,0,,,3188.9760000476963,completion,,,,,false,,,,192003.39999985695,192003.20000004768,188797.644,188813.5,188814.224,192014.166,8,400,,,
trial,html.Screen,4_24_0,2023-09-11T17:19:56.013Z,,0,1,,3270.433999904635,response,ISIC_0070009.JPG,6,ISIC_0011532.JPG,ISIC_0070009.JPG,false,1,keypress(m),500,195284.89999985695,195284.59999990463,191997.466,192003.39999985695,192014.166,195297.636,8,400,25,,ISIC_0011532.JPG
break,html.Screen,4_24_1,2023-09-11T17:19:56.014Z,,0,,,NaN,,,,,,false,,,,195286,195285.70000004768,,195285.20000004768,,195297.636,8,400,,,
break_continue,html.Screen,4_24_2,2023-09-11T17:19:56.014Z,,0,,,NaN,,,,,,false,,,,195286.59999990463,195286.29999995232,,195286.09999990463,,195297.636,8,400,,,
sequence,flow.Sequence,4_24,2023-09-11T17:19:56.014Z,,0,,,3272.133999952319,completion,,,,,false,,,,195286.79999995232,195286.29999995232,191997.466,192003.39999985695,192014.166,195297.636,8,400,,,
trial,html.Screen,4_25_0,2023-09-11T17:20:00.626Z,,0,1,,4600.26399985695,response,ISIC_1531204.JPG,5,ISIC_4847584.JPG,ISIC_4847584.JPG,false,0,keypress(z),500,199898.09999990463,199897.89999985695,195280.903,195287.09999990463,195297.636,199914.199,8,400,26,,ISIC_1531204.JPG
break,html.Screen,4_25_1,2023-09-11T17:20:00.627Z,,0,,,NaN,,,,,,false,,,,199899.20000004768,199898.89999985695,,199898.39999985695,,199914.199,8,400,,,
break_continue,html.Screen,4_25_2,2023-09-11T17:20:00.627Z,,0,,,NaN,,,,,,false,,,,199899.79999995232,199899.59999990463,,199899.39999985695,,199914.199,8,400,,,
sequence,flow.Sequence,4_25,2023-09-11T17:20:00.628Z,,0,,,4601.963999904634,completion,,,,,false,,,,199900.09999990463,199899.59999990463,195280.903,195286.89999985695,195297.636,199914.199,8,400,,,
trial,html.Screen,4_26_0,2023-09-11T17:20:05.670Z,,0,1,,5028.5010000476905,response,ISIC_6330529.JPG,4,ISIC_9655520.JPG,ISIC_6330529.JPG,false,1,keypress(m),500,204942.89999985695,204942.70000004768,199897.525,199900.29999995232,199914.199,204947.482,8,400,27,,ISIC_9655520.JPG
break,html.Screen,4_26_1,2023-09-11T17:20:05.671Z,,0,,,NaN,,,,,,false,,,,204943.39999985695,204943.29999995232,,204943,,204947.482,8,400,,,
break_continue,html.Screen,4_26_2,2023-09-11T17:20:05.671Z,,0,,,NaN,,,,,,false,,,,204943.5,204943.5,,204943.39999985695,,204947.482,8,400,,,
sequence,flow.Sequence,4_26,2023-09-11T17:20:05.671Z,,0,,,5029.301000000007,completion,,,,,false,,,,204943.59999990463,204943.5,199897.525,199900.29999995232,199914.199,204947.482,8,400,,,
trial,html.Screen,4_27_0,2023-09-11T17:20:10.073Z,,0,1,,4397.1179999046435,response,ISIC_8892663.JPG,4,ISIC_0066740.JPG,ISIC_8892663.JPG,false,1,keypress(m),500,209344.89999985695,209344.59999990463,204931.054,204943.70000004768,204947.482,209347.582,8,400,28,,ISIC_0066740.JPG
break,html.Screen,4_27_1,2023-09-11T17:20:10.074Z,,0,,,NaN,,,,,,false,,,,209346,209345.79999995232,,209345.29999995232,,209347.582,8,400,,,
break_continue,html.Screen,4_27_2,2023-09-11T17:20:10.074Z,,0,,,NaN,,,,,,false,,,,209346.59999990463,209346.39999985695,,209346.20000004768,,209347.582,8,400,,,
sequence,flow.Sequence,4_27,2023-09-11T17:20:10.074Z,,0,,,4398.91799985696,completion,,,,,false,,,,209346.89999985695,209346.39999985695,204931.054,204943.70000004768,204947.482,209347.582,8,400,,,
trial,html.Screen,4_28_0,2023-09-11T17:20:14.289Z,,0,1,,4213.817999856954,response,ISIC_4603706.JPG,5,ISIC_0070927.JPG,ISIC_0070927.JPG,false,0,keypress(z),500,213561.5,213561.39999985695,209330.812,209347.09999990463,209347.582,213564.167,8,400,29,,ISIC_4603706.JPG
break,html.Screen,4_28_1,2023-09-11T17:20:14.289Z,,0,,,NaN,,,,,,false,,,,213561.79999995232,213561.70000004768,,213561.5,,213564.167,8,400,,,
break_continue,html.Screen,4_28_2,2023-09-11T17:20:14.290Z,,0,,,NaN,,,,,,false,,,,213562.09999990463,213562,,213561.89999985695,,213564.167,8,400,,,
sequence,flow.Sequence,4_28,2023-09-11T17:20:14.290Z,,0,,,4214.418000000005,completion,,,,,false,,,,213562.20000004768,213562,209330.812,209347,209347.582,213564.167,8,400,,,
trial,html.Screen,4_29_0,2023-09-11T17:20:18.068Z,,0,1,,3775.6329999523296,response,ISIC_0908367.JPG,5,ISIC_5538169.JPG,ISIC_0908367.JPG,false,1,keypress(m),500,217340.09999990463,217339.79999995232,213547.604,213562.20000004768,213564.167,217347.546,8,400,30,,ISIC_5538169.JPG
break,html.Screen,4_29_1,2023-09-11T17:20:18.069Z,,0,,,NaN,,,,,,false,,,,217341.09999990463,217340.89999985695,,217340.39999985695,,217347.546,8,400,,,
break_continue,html.Screen,4_29_2,2023-09-11T17:20:18.069Z,,0,,,NaN,,,,,,false,,,,217341.59999990463,217341.5,,217341.29999995232,,217347.546,8,400,,,
sequence,flow.Sequence,4_29,2023-09-11T17:20:18.069Z,,0,,,3777.3330000000133,completion,,,,,false,,,,217341.89999985695,217341.5,213547.604,213562.20000004768,213564.167,217347.546,8,400,,,
trial,html.Screen,4_30_0,2023-09-11T17:20:21.513Z,,0,1,,3437.753999952314,response,ISIC_0030873.JPG,6,ISIC_7759376.JPG,ISIC_0030873.JPG,false,1,keypress(m),500,220785.59999990463,220785.29999995232,217330.959,217342.09999990463,217347.546,220797.529,8,400,31,,ISIC_7759376.JPG
break,html.Screen,4_30_1,2023-09-11T17:20:21.514Z,,0,,,NaN,,,,,,false,,,,220786.70000004768,220786.29999995232,,220785.89999985695,,220797.529,8,400,,,
break_continue,html.Screen,4_30_2,2023-09-11T17:20:21.515Z,,0,,,NaN,,,,,,false,,,,220787.20000004768,220787.09999990463,,220786.89999985695,,220797.529,8,400,,,
sequence,flow.Sequence,4_30,2023-09-11T17:20:21.515Z,,0,,,3439.5539999046305,completion,,,,,false,,,,220787.5,220787.09999990463,217330.959,217342.09999990463,217347.546,220797.529,8,400,,,
trial,html.Screen,4_31_0,2023-09-11T17:20:24.883Z,,0,1,,3357.570999904623,response,ISIC_0000801.JPG,5,ISIC_0025061.JPG,ISIC_0025061.JPG,false,0,keypress(z),500,224155.29999995232,224155.09999990463,220781.035,220787.70000004768,220797.529,224164.346,8,400,32,,ISIC_0000801.JPG
break,html.Screen,4_31_1,2023-09-11T17:20:24.883Z,,0,,,NaN,,,,,,false,,,,224155.59999990463,224155.5,,224155.29999995232,,224164.346,8,400,,,
break_continue,html.Screen,4_31_2,2023-09-11T17:20:24.883Z,,0,,,NaN,,,,,,false,,,,224155.89999985695,224155.89999985695,,224155.70000004768,,224164.346,8,400,,,
sequence,flow.Sequence,4_31,2023-09-11T17:20:24.884Z,,0,,,3358.3709998569393,completion,,,,,false,,,,224156,224155.89999985695,220781.035,220787.59999990463,220797.529,224164.346,8,400,,,
trial,html.Screen,4_32_0,2023-09-11T17:20:29.573Z,,0,1,,4681.15400000001,response,ISIC_7526548.JPG,4,ISIC_2323082.JPG,ISIC_2323082.JPG,false,0,keypress(z),500,228845.59999990463,228845.5,224147.606,224156.09999990463,224164.346,228847.458,8,400,33,,ISIC_7526548.JPG
break,html.Screen,4_32_1,2023-09-11T17:20:29.574Z,,0,,,NaN,,,,,,false,,,,228846,228845.79999995232,,228845.70000004768,,228847.458,8,400,,,
break_continue,html.Screen,4_32_2,2023-09-11T17:20:29.574Z,,0,,,NaN,,,,,,false,,,,228846.20000004768,228846.20000004768,,228846,,228847.458,8,400,,,
sequence,flow.Sequence,4_32,2023-09-11T17:20:29.574Z,,0,,,4681.854000047693,completion,,,,,false,,,,228846.20000004768,228846.20000004768,224147.606,224156,224164.346,228847.458,8,400,,,
trial,html.Screen,4_33_0,2023-09-11T17:20:33.384Z,,0,1,,3808.341999952303,response,ISIC_0010775.JPG,5,ISIC_0026916.JPG,ISIC_0010775.JPG,false,1,keypress(m),500,232655.89999985695,232655.79999995232,228831.041,228846.29999995232,228847.458,232664.101,8,400,34,,ISIC_0026916.JPG
break,html.Screen,4_33_1,2023-09-11T17:20:33.384Z,,0,,,NaN,,,,,,false,,,,232656.29999995232,232656.29999995232,,232656,,232664.101,8,400,,,
break_continue,html.Screen,4_33_2,2023-09-11T17:20:33.384Z,,0,,,NaN,,,,,,false,,,,232656.5,232656.39999985695,,232656.39999985695,,232664.101,8,400,,,
sequence,flow.Sequence,4_33,2023-09-11T17:20:33.384Z,,0,,,3808.9419998569356,completion,,,,,false,,,,232656.59999990463,232656.39999985695,228831.041,228846.29999995232,228847.458,232664.101,8,400,,,
trial,html.Screen,4_34_0,2023-09-11T17:20:38.235Z,,0,1,,4843.198999952321,response,ISIC_6790780.JPG,4,ISIC_4838916.JPG,ISIC_6790780.JPG,false,1,keypress(m),500,237507.5,237507.29999995232,232647.621,232656.59999990463,232664.101,237514.347,8,400,35,,ISIC_4838916.JPG
break,html.Screen,4_34_1,2023-09-11T17:20:38.235Z,,0,,,NaN,,,,,,false,,,,237507.89999985695,237507.70000004768,,237507.59999990463,,237514.347,8,400,,,
break_continue,html.Screen,4_34_2,2023-09-11T17:20:38.236Z,,0,,,NaN,,,,,,false,,,,237508.20000004768,237508.20000004768,,237508,,237514.347,8,400,,,
sequence,flow.Sequence,4_34,2023-09-11T17:20:38.236Z,,0,,,4844.099000047689,completion,,,,,false,,,,237508.20000004768,237508.20000004768,232647.621,232656.59999990463,232664.101,237514.347,8,400,,,
trial,html.Screen,4_35_0,2023-09-11T17:20:43.172Z,,0,1,,4930.152999999991,response,ISIC_9141065.JPG,5,ISIC_6310591.JPG,ISIC_6310591.JPG,false,0,keypress(z),500,242444.89999985695,242444.5,237497.674,237508.29999995232,237514.347,242447.515,8,400,36,,ISIC_9141065.JPG
break,html.Screen,4_35_1,2023-09-11T17:20:43.173Z,,0,,,NaN,,,,,,false,,,,242445.79999995232,242445.70000004768,,242445.20000004768,,242447.515,8,400,,,
break_continue,html.Screen,4_35_2,2023-09-11T17:20:43.174Z,,0,,,NaN,,,,,,false,,,,242446,242445.89999985695,,242445.79999995232,,242447.515,8,400,,,
sequence,flow.Sequence,4_35,2023-09-11T17:20:43.174Z,,0,,,4931.55299985694,completion,,,,,false,,,,242446.09999990463,242445.89999985695,237497.674,237508.29999995232,237514.347,242447.515,8,400,,,
trial,html.Screen,4_36_0,2023-09-11T17:20:46.744Z,,0,1,,3567.984999999986,response,ISIC_0081584.JPG,5,ISIC_3800541.JPG,ISIC_0081584.JPG,false,1,keypress(m),500,246015.79999995232,246015.5,242430.957,242446.09999990463,242447.515,246031.064,8,400,37,,ISIC_3800541.JPG
break,html.Screen,4_36_1,2023-09-11T17:20:46.745Z,,0,,,NaN,,,,,,false,,,,246016.79999995232,246016.70000004768,,246016,,246031.064,8,400,,,
break_continue,html.Screen,4_36_2,2023-09-11T17:20:46.745Z,,0,,,NaN,,,,,,false,,,,246017.39999985695,246017.29999995232,,246017.09999990463,,246031.064,8,400,,,
sequence,flow.Sequence,4_36,2023-09-11T17:20:46.746Z,,0,,,3569.7849999523023,completion,,,,,false,,,,246017.70000004768,246017.29999995232,242430.957,242446.09999990463,242447.515,246031.064,8,400,,,
trial,html.Screen,4_37_0,2023-09-11T17:20:50.892Z,,0,1,,4132.335999856936,response,ISIC_0026010.JPG,5,ISIC_0032369.JPG,ISIC_0032369.JPG,false,0,keypress(z),500,250163.70000004768,250163.39999985695,246014.268,246017.89999985695,246031.064,250181.092,8,400,38,,ISIC_0026010.JPG
break,html.Screen,4_37_1,2023-09-11T17:20:50.893Z,,0,,,NaN,,,,,,false,,,,250164.70000004768,250164.5,,250164,,250181.092,8,400,,,
break_continue,html.Screen,4_37_2,2023-09-11T17:20:50.893Z,,0,,,NaN,,,,,,false,,,,250165.39999985695,250165.20000004768,,250165,,250181.092,8,400,,,
sequence,flow.Sequence,4_37,2023-09-11T17:20:50.894Z,,0,,,4134.136000047671,completion,,,,,false,,,,250165.70000004768,250165.20000004768,246014.268,246017.89999985695,246031.064,250181.092,8,400,,,
trial,html.Screen,4_38_0,2023-09-11T17:20:54.608Z,,0,1,,3698.407999999996,response,ISIC_0076742.JPG,4,ISIC_7747712.JPG,ISIC_7747712.JPG,false,0,keypress(z),500,253879.79999995232,253879.5,250164.243,250165.89999985695,250181.092,253897.607,8,400,39,,ISIC_0076742.JPG
break,html.Screen,4_38_1,2023-09-11T17:20:54.609Z,,0,,,NaN,,,,,,false,,,,253881,253880.70000004768,,253880.20000004768,,253897.607,8,400,,,
break_continue,html.Screen,4_38_2,2023-09-11T17:20:54.610Z,,0,,,NaN,,,,,,false,,,,253881.59999990463,253881.39999985695,,253881.20000004768,,253897.607,8,400,,,
sequence,flow.Sequence,4_38,2023-09-11T17:20:54.610Z,,0,,,3700.3079998569447,completion,,,,,false,,,,253881.89999985695,253881.39999985695,250164.243,250165.79999995232,250181.092,253897.607,8,400,,,
trial,html.Screen,4_39_0,2023-09-11T17:20:57.996Z,,0,1,,3369.692999952327,response,ISIC_8719134.JPG,5,ISIC_0067893.JPG,ISIC_0067893.JPG,false,0,keypress(z),500,257267.59999990463,257267.29999995232,253880.972,253882.20000004768,253897.607,257280.873,8,400,40,,ISIC_8719134.JPG
break,html.Screen,4_39_1,2023-09-11T17:20:57.998Z,,0,,,NaN,,,,,,false,,,,257269.79999995232,257269.5,,257269,,257280.873,8,400,,,
break_continue,html.Screen,4_39_2,2023-09-11T17:20:57.998Z,,0,,,NaN,,,,,,false,,,,257270.39999985695,257270.20000004768,,257269.89999985695,,257280.873,8,400,,,
sequence,flow.Sequence,4_39,2023-09-11T17:20:57.999Z,,0,,,3372.5930000476947,completion,,,,,false,,,,257270.70000004768,257270.20000004768,253880.972,253882.09999990463,253897.607,257280.873,8,400,,,
trial,html.Screen,4_40_0,2023-09-11T17:21:01.233Z,,0,1,,3223.926999952324,response,ISIC_2311665.JPG,4,ISIC_0061580.JPG,ISIC_0061580.JPG,false,0,keypress(z),500,260505,260504.79999995232,257264.284,257270.89999985695,257280.873,260514.405,8,400,41,,ISIC_2311665.JPG
break,html.Screen,4_40_1,2023-09-11T17:21:01.234Z,,0,,,NaN,,,,,,false,,,,260505.70000004768,260505.5,,260505.20000004768,,260514.405,8,400,,,
break_continue,html.Screen,4_40_2,2023-09-11T17:21:01.234Z,,0,,,NaN,,,,,,false,,,,260506.09999990463,260506,,260505.89999985695,,260514.405,8,400,,,
sequence,flow.Sequence,4_40,2023-09-11T17:21:01.234Z,,0,,,3225.1270000000077,completion,,,,,false,,,,260506.29999995232,260506,257264.284,257270.79999995232,257280.873,260514.405,8,400,,,
trial,html.Screen,4_41_0,2023-09-11T17:21:04.379Z,,0,1,,3136.095000000001,response,ISIC_2095347.JPG,5,ISIC_0011349.JPG,ISIC_0011349.JPG,false,0,keypress(z),500,263650.7000000477,263650.5,260497.621,260506.39999985695,260514.405,263664.42,8,400,42,,ISIC_2095347.JPG
break,html.Screen,4_41_1,2023-09-11T17:21:04.379Z,,0,,,NaN,,,,,,false,,,,263651.09999990463,263651,,263650.7999999523,,263664.42,8,400,,,
break_continue,html.Screen,4_41_2,2023-09-11T17:21:04.379Z,,0,,,NaN,,,,,,false,,,,263651.2999999523,263651.2000000477,,263651.09999990463,,263664.42,8,400,,,
sequence,flow.Sequence,4_41,2023-09-11T17:21:04.379Z,,0,,,3136.795000047685,completion,,,,,false,,,,263651.39999985695,263651.2000000477,260497.621,260506.29999995232,260514.405,263664.42,8,400,,,
trial,html.Screen,4_42_0,2023-09-11T17:21:07.133Z,,0,1,,2740.679999904649,response,ISIC_0030921.JPG,4,ISIC_0000129.JPG,ISIC_0030921.JPG,false,1,keypress(m),500,266405.39999985695,266405.09999990463,263647.603,263651.5,263664.42,266414.424,8,400,43,,ISIC_0000129.JPG
break,html.Screen,4_42_1,2023-09-11T17:21:07.134Z,,0,,,NaN,,,,,,false,,,,266406.5,266406.2999999523,,266405.7000000477,,266414.424,8,400,,,
break_continue,html.Screen,4_42_2,2023-09-11T17:21:07.135Z,,0,,,NaN,,,,,,false,,,,266407,266406.89999985695,,266406.7000000477,,266414.424,8,400,,,
sequence,flow.Sequence,4_42,2023-09-11T17:21:07.135Z,,0,,,2742.479999856965,completion,,,,,false,,,,266407.2999999523,266406.89999985695,263647.603,263651.39999985695,263664.42,266414.424,8,400,,,
trial,html.Screen,4_43_0,2023-09-11T17:21:09.938Z,,0,1,,2794.97599985695,response,ISIC_4177450.JPG,5,ISIC_3084322.JPG,ISIC_4177450.JPG,false,1,keypress(m),500,269209.7000000477,269209.39999985695,266397.484,266407.5,266414.424,269214.187,8,400,44,,ISIC_3084322.JPG
break,html.Screen,4_43_1,2023-09-11T17:21:09.939Z,,0,,,NaN,,,,,,false,,,,269210.7999999523,269210.5,,269210,,269214.187,8,400,,,
break_continue,html.Screen,4_43_2,2023-09-11T17:21:09.939Z,,0,,,NaN,,,,,,false,,,,269211.2999999523,269211.09999990463,,269210.89999985695,,269214.187,8,400,,,
sequence,flow.Sequence,4_43,2023-09-11T17:21:09.939Z,,0,,,2796.6759999046335,completion,,,,,false,,,,269211.59999990463,269211.09999990463,266397.484,266407.39999985695,266414.424,269214.187,8,400,,,
trial,html.Screen,4_44_0,2023-09-11T17:21:12.614Z,,0,1,,2671.5130000477075,response,ISIC_3232329.JPG,5,ISIC_8627293.JPG,ISIC_3232329.JPG,false,1,keypress(m),500,271885.7999999523,271885.7000000477,269197.518,269211.7999999523,269214.187,271897.662,8,400,45,,ISIC_8627293.JPG
break,html.Screen,4_44_1,2023-09-11T17:21:12.614Z,,0,,,NaN,,,,,,false,,,,271886.2000000477,271886.09999990463,,271885.89999985695,,271897.662,8,400,,,
break_continue,html.Screen,4_44_2,2023-09-11T17:21:12.614Z,,0,,,NaN,,,,,,false,,,,271886.5,271886.39999985695,,271886.2999999523,,271897.662,8,400,,,
sequence,flow.Sequence,4_44,2023-09-11T17:21:12.615Z,,0,,,2672.2129998569726,completion,,,,,false,,,,271886.59999990463,271886.39999985695,269197.518,269211.7000000477,269214.187,271897.662,8,400,,,
trial,html.Screen,4_45_0,2023-09-11T17:21:15.560Z,,0,1,,2934.137999952305,response,ISIC_5628615.JPG,5,ISIC_0062301.JPG,ISIC_5628615.JPG,false,1,keypress(m),500,274832.2000000477,274831.7999999523,271881.007,271886.7000000477,271897.662,274847.64,8,400,46,,ISIC_0062301.JPG
break,html.Screen,4_45_1,2023-09-11T17:21:15.561Z,,0,,,NaN,,,,,,false,,,,274833.09999990463,274832.7999999523,,274832.39999985695,,274847.64,8,400,,,
break_continue,html.Screen,4_45_2,2023-09-11T17:21:15.562Z,,0,,,NaN,,,,,,false,,,,274833.59999990463,274833.5,,274833.2999999523,,274847.64,8,400,,,
sequence,flow.Sequence,4_45,2023-09-11T17:21:15.562Z,,0,,,2935.837999999989,completion,,,,,false,,,,274833.89999985695,274833.5,271881.007,271886.7000000477,271897.662,274847.64,8,400,,,
trial,html.Screen,4_46_0,2023-09-11T17:21:18.732Z,,0,1,,3156.1599999523023,response,ISIC_5383064.JPG,5,ISIC_2372468.JPG,ISIC_2372468.JPG,false,0,keypress(z),500,278004.09999990463,278003.7999999523,274830.976,274834.09999990463,274847.64,278014.402,8,400,47,,ISIC_5383064.JPG
break,html.Screen,4_46_1,2023-09-11T17:21:18.733Z,,0,,,NaN,,,,,,false,,,,278004.59999990463,278004.5,,278004.2000000477,,278014.402,8,400,,,
break_continue,html.Screen,4_46_2,2023-09-11T17:21:18.733Z,,0,,,NaN,,,,,,false,,,,278005,278004.89999985695,,278004.7999999523,,278014.402,8,400,,,
sequence,flow.Sequence,4_46,2023-09-11T17:21:18.733Z,,0,,,3157.259999856935,completion,,,,,false,,,,278005.2000000477,278004.89999985695,274830.976,274834.09999990463,274847.64,278014.402,8,400,,,
trial,html.Screen,4_47_0,2023-09-11T17:21:21.923Z,,0,1,,3179.8979999523144,response,ISIC_0472513.JPG,5,ISIC_1628539.JPG,ISIC_1628539.JPG,false,0,keypress(z),500,281194.59999990463,281194.2999999523,277997.564,278005.2999999523,278014.402,281197.595,8,400,48,,ISIC_0472513.JPG
break,html.Screen,4_47_1,2023-09-11T17:21:21.924Z,,0,,,NaN,,,,,,false,,,,281195.7000000477,281195.5,,281194.89999985695,,281197.595,8,400,,,
break_continue,html.Screen,4_47_2,2023-09-11T17:21:21.924Z,,0,,,NaN,,,,,,false,,,,281196.2999999523,281196.09999990463,,281195.89999985695,,281197.595,8,400,,,
sequence,flow.Sequence,4_47,2023-09-11T17:21:21.924Z,,0,,,3181.6979999046307,completion,,,,,false,,,,281196.5,281196.09999990463,277997.564,278005.2999999523,278014.402,281197.595,8,400,,,
trial,html.Screen,4_48_0,2023-09-11T17:21:25.963Z,,0,1,,4037.1050000477117,response,ISIC_0062537.JPG,5,ISIC_2095347.JPG,ISIC_2095347.JPG,false,0,keypress(z),500,285235.09999990463,285234.7000000477,281181.084,281196.7999999523,281197.595,285247.653,8,400,49,,ISIC_0062537.JPG
break,html.Screen,4_48_1,2023-09-11T17:21:25.964Z,,0,,,NaN,,,,,,false,,,,285236.2000000477,285235.89999985695,,285235.39999985695,,285247.653,8,400,,,
break_continue,html.Screen,4_48_2,2023-09-11T17:21:25.965Z,,0,,,NaN,,,,,,false,,,,285236.7999999523,285236.5,,285236.39999985695,,285247.653,8,400,,,
sequence,flow.Sequence,4_48,2023-09-11T17:21:25.965Z,,0,,,4038.905000000028,completion,,,,,false,,,,285237.09999990463,285236.5,281181.084,281196.7000000477,281197.595,285247.653,8,400,,,
trial,html.Screen,4_49_0,2023-09-11T17:21:30.335Z,,0,1,,4359.847000000009,response,ISIC_0182730.JPG,5,ISIC_7134821.JPG,ISIC_7134821.JPG,false,0,keypress(z),500,289607.5,289607.5,285230.994,285237.2000000477,285247.653,289614.274,8,400,50,,ISIC_0182730.JPG
break,html.Screen,4_49_1,2023-09-11T17:21:40.327Z,,0,,,10000.13400000002,timeout,,,,,false,,,,299598.89999985695,299597.714,289597.769,289607.59999990463,289614.274,299614.408,8,400,,,
break_continue,html.Screen,4_49_2,2023-09-11T17:21:41.328Z,,0,,,976.3919999523205,response,,,,,false,continue,keypress(Space),,300599.7999999523,300590.7999999523,299597.714,299599,299614.408,300614.446,8,400,,,
sequence,flow.Sequence,4_49,2023-09-11T17:21:41.328Z,,0,,,15343.146999952325,completion,,,,,false,,,,300599.89999985695,300590.7999999523,285230.994,285237.09999990463,285247.653,300614.446,8,400,,,
trial,html.Screen,4_50_0,2023-09-11T17:21:45.331Z,,0,2,,3988.0540000000037,response,ISIC_9760968.JPG,5,ISIC_0024958.JPG,ISIC_9760968.JPG,false,1,keypress(m),500,304602.89999985695,304602.5,300597.622,300600,300614.446,304614.175,8,400,1,,ISIC_0024958.JPG
break,html.Screen,4_50_1,2023-09-11T17:21:45.332Z,,0,,,NaN,,,,,,false,,,,304603.89999985695,304603.59999990463,,304603.09999990463,,304614.175,8,400,,,
break_continue,html.Screen,4_50_2,2023-09-11T17:21:45.332Z,,0,,,NaN,,,,,,false,,,,304604.39999985695,304604.2000000477,,304604,,304614.175,8,400,,,
sequence,flow.Sequence,4_50,2023-09-11T17:21:45.333Z,,0,,,3989.7540000476874,completion,,,,,false,,,,304604.7000000477,304604.2000000477,300597.622,300600,300614.446,304614.175,8,400,,,
trial,html.Screen,4_51_0,2023-09-11T17:21:48.199Z,,0,2,,2857.0250000476954,response,ISIC_6254731.JPG,5,ISIC_0011693.JPG,ISIC_0011693.JPG,false,0,keypress(z),500,307471.2000000477,307471.2000000477,304597.63,304604.7999999523,304614.175,307481.027,8,400,2,,ISIC_6254731.JPG
break,html.Screen,4_51_1,2023-09-11T17:21:48.200Z,,0,,,NaN,,,,,,false,,,,307471.7000000477,307471.59999990463,,307471.39999985695,,307481.027,8,400,,,
break_continue,html.Screen,4_51_2,2023-09-11T17:21:48.200Z,,0,,,NaN,,,,,,false,,,,307472,307471.89999985695,,307471.7999999523,,307481.027,8,400,,,
sequence,flow.Sequence,4_51,2023-09-11T17:21:48.200Z,,0,,,2857.7249998569605,completion,,,,,false,,,,307472.09999990463,307471.89999985695,304597.63,304604.7999999523,304614.175,307481.027,8,400,,,
trial,html.Screen,4_52_0,2023-09-11T17:21:52.698Z,,0,2,,4489.072999904631,response,ISIC_4293419.JPG,5,ISIC_0009791.JPG,ISIC_4293419.JPG,false,1,keypress(m),500,311970.2000000477,311970.09999990463,307464.352,307472.09999990463,307481.027,311980.853,8,400,3,,ISIC_0009791.JPG
break,html.Screen,4_52_1,2023-09-11T17:21:52.699Z,,0,,,NaN,,,,,,false,,,,311970.5,311970.39999985695,,311970.2999999523,,311980.853,8,400,,,
break_continue,html.Screen,4_52_2,2023-09-11T17:21:52.699Z,,0,,,NaN,,,,,,false,,,,311970.7000000477,311970.7000000477,,311970.59999990463,,311980.853,8,400,,,
sequence,flow.Sequence,4_52,2023-09-11T17:21:52.699Z,,0,,,4489.673000047682,completion,,,,,false,,,,311970.7999999523,311970.7000000477,307464.352,307472.09999990463,307481.027,311980.853,8,400,,,
trial,html.Screen,4_53_0,2023-09-11T17:21:55.589Z,,0,2,,2879.4469999523135,response,ISIC_4838916.JPG,5,ISIC_0057702.JPG,ISIC_4838916.JPG,false,1,keypress(m),500,314860.5,314860.2999999523,311964.174,311970.89999985695,311980.853,314864.276,8,400,4,,ISIC_0057702.JPG
break,html.Screen,4_53_1,2023-09-11T17:21:55.590Z,,0,,,NaN,,,,,,false,,,,314861.7000000477,314861.2999999523,,314860.89999985695,,314864.276,8,400,,,
break_continue,html.Screen,4_53_2,2023-09-11T17:21:55.590Z,,0,,,NaN,,,,,,false,,,,314862.2000000477,314862.09999990463,,314861.7999999523,,314864.276,8,400,,,
sequence,flow.Sequence,4_53,2023-09-11T17:21:55.591Z,,0,,,2881.24699990463,completion,,,,,false,,,,314862.5,314862.09999990463,311964.174,311970.89999985695,311980.853,314864.276,8,400,,,
trial,html.Screen,4_54_0,2023-09-11T17:21:58.825Z,,0,2,,3232.6239998569363,response,ISIC_0069851.JPG,5,ISIC_2394181.JPG,ISIC_2394181.JPG,false,0,keypress(z),500,318097.2999999523,318096.89999985695,314847.762,314862.7000000477,314864.276,318114.243,8,400,5,,ISIC_0069851.JPG
break,html.Screen,4_54_1,2023-09-11T17:21:58.826Z,,0,,,NaN,,,,,,false,,,,318098.2000000477,318098,,318097.39999985695,,318114.243,8,400,,,
break_continue,html.Screen,4_54_2,2023-09-11T17:21:58.827Z,,0,,,NaN,,,,,,false,,,,318098.7999999523,318098.5,,318098.39999985695,,318114.243,8,400,,,
sequence,flow.Sequence,4_54,2023-09-11T17:21:58.827Z,,0,,,3234.2239999999874,completion,,,,,false,,,,318099.2000000477,318098.5,314847.762,314862.59999990463,314864.276,318114.243,8,400,,,
trial,html.Screen,4_55_0,2023-09-11T17:22:01.938Z,,0,2,,3095.0569999522995,response,ISIC_0024586.JPG,5,ISIC_4352700.JPG,ISIC_0024586.JPG,false,1,keypress(m),500,321209.59999990463,321209.2999999523,318097.74,318099.5,318114.243,321214.191,8,400,6,,ISIC_4352700.JPG
break,html.Screen,4_55_1,2023-09-11T17:22:01.939Z,,0,,,NaN,,,,,,false,,,,321210.5,321210.2999999523,,321209.89999985695,,321214.191,8,400,,,
break_continue,html.Screen,4_55_2,2023-09-11T17:22:01.939Z,,0,,,NaN,,,,,,false,,,,321211.2999999523,321211,,321210.7000000477,,321214.191,8,400,,,
sequence,flow.Sequence,4_55,2023-09-11T17:22:01.940Z,,0,,,3096.7569999999832,completion,,,,,false,,,,321211.5,321211,318097.74,318099.39999985695,318114.243,321214.191,8,400,,,
trial,html.Screen,4_56_0,2023-09-11T17:22:05.133Z,,0,2,,3190.3090000000084,response,ISIC_5298216.JPG,4,ISIC_9667297.JPG,ISIC_5298216.JPG,false,1,keypress(m),500,324404.7999999523,324404.5,321197.725,321211.7000000477,321214.191,324414.413,8,400,7,,ISIC_9667297.JPG
break,html.Screen,4_56_1,2023-09-11T17:22:05.134Z,,0,,,NaN,,,,,,false,,,,324405.89999985695,324405.59999990463,,324405.2000000477,,324414.413,8,400,,,
break_continue,html.Screen,4_56_2,2023-09-11T17:22:05.135Z,,0,,,NaN,,,,,,false,,,,324406.5,324406.2999999523,,324406.09999990463,,324414.413,8,400,,,
sequence,flow.Sequence,4_56,2023-09-11T17:22:05.135Z,,0,,,3192.1089999523247,completion,,,,,false,,,,324406.7999999523,324406.2999999523,321197.725,321211.59999990463,321214.191,324414.413,8,400,,,
trial,html.Screen,4_57_0,2023-09-11T17:22:08.388Z,,0,2,,3244.7870000476833,response,ISIC_0011490.JPG,5,ISIC_9076021.JPG,ISIC_0011490.JPG,false,1,keypress(m),500,327659.59999990463,327659.2000000477,324397.629,324406.89999985695,324414.413,327664.239,8,400,8,,ISIC_9076021.JPG
break,html.Screen,4_57_1,2023-09-11T17:22:08.389Z,,0,,,NaN,,,,,,false,,,,327660.59999990463,327660.2999999523,,327659.7999999523,,327664.239,8,400,,,
break_continue,html.Screen,4_57_2,2023-09-11T17:22:08.389Z,,0,,,NaN,,,,,,false,,,,327661.09999990463,327660.89999985695,,327660.7999999523,,327664.239,8,400,,,
sequence,flow.Sequence,4_57,2023-09-11T17:22:08.390Z,,0,,,3246.4869998569484,completion,,,,,false,,,,327661.39999985695,327660.89999985695,324397.629,324406.89999985695,324414.413,327664.239,8,400,,,
trial,html.Screen,4_58_0,2023-09-11T17:22:13.467Z,,0,2,,5074.360999904631,response,ISIC_0005762.JPG,5,ISIC_8257549.JPG,ISIC_8257549.JPG,false,0,keypress(z),500,332738.7000000477,332738.59999990463,327647.64,327661.5,327664.239,332747.689,8,400,9,,ISIC_0005762.JPG
break,html.Screen,4_58_1,2023-09-11T17:22:13.467Z,,0,,,NaN,,,,,,false,,,,332739.09999990463,332738.89999985695,,332738.7000000477,,332747.689,8,400,,,
break_continue,html.Screen,4_58_2,2023-09-11T17:22:13.467Z,,0,,,NaN,,,,,,false,,,,332739.2999999523,332739.2000000477,,332739.2000000477,,332747.689,8,400,,,
sequence,flow.Sequence,4_58,2023-09-11T17:22:13.468Z,,0,,,5074.961000047682,completion,,,,,false,,,,332739.2999999523,332739.2000000477,327647.64,327661.39999985695,327664.239,332747.689,8,400,,,
trial,html.Screen,4_59_0,2023-09-11T17:22:16.957Z,,0,2,,3481.0110000476707,response,ISIC_0010636.JPG,5,ISIC_4253346.JPG,ISIC_0010636.JPG,false,1,keypress(m),500,336229,336228.7000000477,332731.007,332739.39999985695,332747.689,336248.832,8,400,10,,ISIC_4253346.JPG
break,html.Screen,4_59_1,2023-09-11T17:22:16.958Z,,0,,,NaN,,,,,,false,,,,336230.09999990463,336229.89999985695,,336229.2000000477,,336248.832,8,400,,,
break_continue,html.Screen,4_59_2,2023-09-11T17:22:16.959Z,,0,,,NaN,,,,,,false,,,,336230.89999985695,336230.59999990463,,336230.39999985695,,336248.832,8,400,,,
sequence,flow.Sequence,4_59,2023-09-11T17:22:16.960Z,,0,,,3482.9109999046195,completion,,,,,false,,,,336231.2999999523,336230.59999990463,332731.007,332739.39999985695,332747.689,336248.832,8,400,,,
trial,html.Screen,4_60_0,2023-09-11T17:22:19.763Z,,0,2,,2785.868000047689,response,ISIC_1939413.JPG,4,ISIC_1685962.JPG,ISIC_1939413.JPG,false,1,keypress(m),500,339034.7999999523,339034.7000000477,336214.279,336231.59999990463,336248.832,339047.664,8,400,11,,ISIC_1685962.JPG
break,html.Screen,4_60_1,2023-09-11T17:22:19.764Z,,0,,,NaN,,,,,,false,,,,339035.39999985695,339035.2000000477,,339034.89999985695,,339047.664,8,400,,,
break_continue,html.Screen,4_60_2,2023-09-11T17:22:19.764Z,,0,,,NaN,,,,,,false,,,,339035.7000000477,339035.59999990463,,339035.39999985695,,339047.664,8,400,,,
sequence,flow.Sequence,4_60,2023-09-11T17:22:19.764Z,,0,,,2786.7679999046377,completion,,,,,false,,,,339035.7999999523,339035.59999990463,336214.279,336231.59999990463,336248.832,339047.664,8,400,,,
trial,html.Screen,4_61_0,2023-09-11T17:22:22.572Z,,0,2,,2795.935999904643,response,ISIC_0292775.JPG,4,ISIC_5391190.JPG,ISIC_5391190.JPG,false,0,keypress(z),500,341843.89999985695,341843.59999990463,339031.036,339036,339047.664,341847.586,8,400,12,,ISIC_0292775.JPG
break,html.Screen,4_61_1,2023-09-11T17:22:22.573Z,,0,,,NaN,,,,,,false,,,,341845,341844.7000000477,,341844.09999990463,,341847.586,8,400,,,
break_continue,html.Screen,4_61_2,2023-09-11T17:22:22.574Z,,0,,,NaN,,,,,,false,,,,341845.7000000477,341845.39999985695,,341845.2000000477,,341847.586,8,400,,,
sequence,flow.Sequence,4_61,2023-09-11T17:22:22.574Z,,0,,,2797.735999856959,completion,,,,,false,,,,341845.89999985695,341845.39999985695,339031.036,339035.89999985695,339047.664,341847.586,8,400,,,
trial,html.Screen,4_62_0,2023-09-11T17:22:25.572Z,,0,2,,2995.5139999046223,response,ISIC_1008609.JPG,5,ISIC_6410859.JPG,ISIC_6410859.JPG,false,0,keypress(z),500,344843.39999985695,344843.09999990463,341831.003,341846.09999990463,341847.586,344847.583,8,400,13,,ISIC_1008609.JPG
break,html.Screen,4_62_1,2023-09-11T17:22:25.573Z,,0,,,NaN,,,,,,false,,,,344844.59999990463,344844.2999999523,,344843.7999999523,,344847.583,8,400,,,
break_continue,html.Screen,4_62_2,2023-09-11T17:22:25.573Z,,0,,,NaN,,,,,,false,,,,344845.09999990463,344845,,344844.7999999523,,344847.583,8,400,,,
sequence,flow.Sequence,4_62,2023-09-11T17:22:25.574Z,,0,,,2997.4139999999898,completion,,,,,false,,,,344845.39999985695,344845,341831.003,341846,341847.586,344847.583,8,400,,,
trial,html.Screen,4_63_0,2023-09-11T17:22:29.310Z,,0,2,,3733.716999952332,response,ISIC_3464344.JPG,5,ISIC_0830217.JPG,ISIC_0830217.JPG,false,0,keypress(z),500,348581.39999985695,348581.2999999523,344831.082,344845.7000000477,344847.583,348597.634,8,400,14,,ISIC_3464344.JPG
break,html.Screen,4_63_1,2023-09-11T17:22:29.310Z,,0,,,NaN,,,,,,false,,,,348581.7999999523,348581.7999999523,,348581.59999990463,,348597.634,8,400,,,
break_continue,html.Screen,4_63_2,2023-09-11T17:22:29.310Z,,0,,,NaN,,,,,,false,,,,348582.09999990463,348582,,348582,,348597.634,8,400,,,
sequence,flow.Sequence,4_63,2023-09-11T17:22:29.310Z,,0,,,3734.417000000016,completion,,,,,false,,,,348582.2000000477,348582,344831.082,344845.5,344847.583,348597.634,8,400,,,
trial,html.Screen,4_64_0,2023-09-11T17:22:32.208Z,,0,2,,2881.4659999046125,response,ISIC_0065807.JPG,6,ISIC_5485661.JPG,ISIC_0065807.JPG,false,1,keypress(m),500,351479.39999985695,351479.09999990463,348580.881,348582.39999985695,348597.634,351498.157,8,400,15,,ISIC_5485661.JPG
break,html.Screen,4_64_1,2023-09-11T17:22:32.209Z,,0,,,NaN,,,,,,false,,,,351480.39999985695,351480.2000000477,,351479.7000000477,,351498.157,8,400,,,
break_continue,html.Screen,4_64_2,2023-09-11T17:22:32.209Z,,0,,,NaN,,,,,,false,,,,351481,351480.7000000477,,351480.59999990463,,351498.157,8,400,,,
sequence,flow.Sequence,4_64,2023-09-11T17:22:32.209Z,,0,,,2883.0660000476637,completion,,,,,false,,,,351481.2000000477,351480.7000000477,348580.881,348582.2999999523,348597.634,351498.157,8,400,,,
trial,html.Screen,4_65_0,2023-09-11T17:22:35.044Z,,0,2,,2816.8429999999935,response,ISIC_0046642.JPG,5,ISIC_0068886.JPG,ISIC_0068886.JPG,false,0,keypress(z),500,354315.2999999523,354315,351464.335,351481.39999985695,351498.157,354331.123,8,400,16,,ISIC_0046642.JPG
break,html.Screen,4_65_1,2023-09-11T17:22:35.044Z,,0,,,NaN,,,,,,false,,,,354316.2000000477,354316,,354315.59999990463,,354331.123,8,400,,,
break_continue,html.Screen,4_65_2,2023-09-11T17:22:35.045Z,,0,,,NaN,,,,,,false,,,,354316.7000000477,354316.5,,354316.2999999523,,354331.123,8,400,,,
sequence,flow.Sequence,4_65,2023-09-11T17:22:35.045Z,,0,,,2818.3429999999935,completion,,,,,false,,,,354316.89999985695,354316.5,351464.335,351481.2999999523,351498.157,354331.123,8,400,,,
trial,html.Screen,4_66_0,2023-09-11T17:22:39.164Z,,0,2,,4103.876999999979,response,ISIC_0011489.JPG,5,ISIC_0032272.JPG,ISIC_0011489.JPG,false,1,keypress(m),500,358435.2999999523,358435,354314.361,354317,354331.123,358464.22,8,400,17,,ISIC_0032272.JPG
break,html.Screen,4_66_1,2023-09-11T17:22:39.164Z,,0,,,NaN,,,,,,false,,,,358436.2999999523,358436,,358435.59999990463,,358464.22,8,400,,,
break_continue,html.Screen,4_66_2,2023-09-11T17:22:39.165Z,,0,,,NaN,,,,,,false,,,,358436.89999985695,358436.59999990463,,358436.39999985695,,358464.22,8,400,,,
sequence,flow.Sequence,4_66,2023-09-11T17:22:39.165Z,,0,,,4105.476999904611,completion,,,,,false,,,,358437.09999990463,358436.59999990463,354314.361,354317,354331.123,358464.22,8,400,,,
trial,html.Screen,4_67_0,2023-09-11T17:22:43.136Z,,0,2,,3943.780000000028,response,ISIC_0485996.JPG,5,ISIC_0003593.JPG,ISIC_0485996.JPG,false,1,keypress(m),500,362408.2000000477,362408,358447.672,358437.2999999523,358464.22,362414.193,8,400,18,,ISIC_0003593.JPG
break,html.Screen,4_67_1,2023-09-11T17:22:43.137Z,,0,,,NaN,,,,,,false,,,,362408.89999985695,362408.7000000477,,362408.39999985695,,362414.193,8,400,,,
break_continue,html.Screen,4_67_2,2023-09-11T17:22:43.138Z,,0,,,NaN,,,,,,false,,,,362409.2999999523,362409.2999999523,,362409.09999990463,,362414.193,8,400,,,
sequence,flow.Sequence,4_67,2023-09-11T17:22:43.138Z,,0,,,3945.079999952344,completion,,,,,false,,,,362409.59999990463,362409.2999999523,358447.672,358437.2999999523,358464.22,362414.193,8,400,,,
trial,html.Screen,4_68_0,2023-09-11T17:22:47.860Z,,0,2,,4716.70699985692,response,ISIC_0065283.JPG,4,ISIC_2822622.JPG,ISIC_2822622.JPG,false,0,keypress(z),500,367131,367130.89999985695,362397.698,362409.7000000477,362414.193,367147.693,8,400,19,,ISIC_0065283.JPG
break,html.Screen,4_68_1,2023-09-11T17:22:47.860Z,,0,,,NaN,,,,,,false,,,,367131.39999985695,367131.2999999523,,367131,,367147.693,8,400,,,
break_continue,html.Screen,4_68_2,2023-09-11T17:22:47.860Z,,0,,,NaN,,,,,,false,,,,367131.7000000477,367131.5,,367131.5,,367147.693,8,400,,,
sequence,flow.Sequence,4_68,2023-09-11T17:22:47.860Z,,0,,,4717.306999999972,completion,,,,,false,,,,367131.7999999523,367131.5,362397.698,362409.59999990463,362414.193,367147.693,8,400,,,
trial,html.Screen,4_69_0,2023-09-11T17:22:51.117Z,,0,2,,3240.606999952288,response,ISIC_0030951.JPG,4,ISIC_0046449.JPG,ISIC_0046449.JPG,false,0,keypress(z),500,370388.59999990463,370388.2999999523,367130.985,367131.7999999523,367147.693,370397.677,8,400,20,,ISIC_0030951.JPG
break,html.Screen,4_69_1,2023-09-11T17:22:51.118Z,,0,,,NaN,,,,,,false,,,,370389.7000000477,370389.39999985695,,370388.89999985695,,370397.677,8,400,,,
break_continue,html.Screen,4_69_2,2023-09-11T17:22:51.119Z,,0,,,NaN,,,,,,false,,,,370390.2999999523,370390.2000000477,,370389.89999985695,,370397.677,8,400,,,
sequence,flow.Sequence,4_69,2023-09-11T17:22:51.119Z,,0,,,3242.5070000476553,completion,,,,,false,,,,370390.59999990463,370390.2000000477,367130.985,367131.7999999523,367147.693,370397.677,8,400,,,
trial,html.Screen,4_70_0,2023-09-11T17:22:54.022Z,,0,2,,2895.322999999975,response,ISIC_0029906.JPG,5,ISIC_0610477.JPG,ISIC_0029906.JPG,false,1,keypress(m),500,373293.09999990463,373293,370380.982,370390.7999999523,370397.677,373297.546,8,400,21,,ISIC_0610477.JPG
break,html.Screen,4_70_1,2023-09-11T17:22:54.022Z,,0,,,NaN,,,,,,false,,,,373293.5,373293.5,,373293.2000000477,,373297.546,8,400,,,
break_continue,html.Screen,4_70_2,2023-09-11T17:22:54.022Z,,0,,,NaN,,,,,,false,,,,373293.7999999523,373293.7000000477,,373293.59999990463,,373297.546,8,400,,,
sequence,flow.Sequence,4_70,2023-09-11T17:22:54.023Z,,0,,,2896.0230000476586,completion,,,,,false,,,,373293.89999985695,373293.7000000477,370380.982,370390.7000000477,370397.677,373297.546,8,400,,,
trial,html.Screen,4_71_0,2023-09-11T17:22:56.972Z,,0,2,,2945.7539999523433,response,ISIC_4691943.JPG,5,ISIC_0068886.JPG,ISIC_0068886.JPG,false,0,keypress(z),500,376243.7000000477,376243.2999999523,373280.984,373294,373297.546,376247.62,8,400,22,,ISIC_4691943.JPG
break,html.Screen,4_71_1,2023-09-11T17:22:56.974Z,,0,,,NaN,,,,,,false,,,,376245.09999990463,376244.7999999523,,376244.39999985695,,376247.62,8,400,,,
break_continue,html.Screen,4_71_2,2023-09-11T17:22:56.974Z,,0,,,NaN,,,,,,false,,,,376245.7000000477,376245.5,,376245.2999999523,,376247.62,8,400,,,
sequence,flow.Sequence,4_71,2023-09-11T17:22:56.975Z,,0,,,2947.954000000027,completion,,,,,false,,,,376246,376245.5,373280.984,373293.89999985695,373297.546,376247.62,8,400,,,
trial,html.Screen,4_72_0,2023-09-11T17:23:00.661Z,,0,2,,3684.179999952321,response,ISIC_9090822.JPG,5,ISIC_0027822.JPG,ISIC_0027822.JPG,false,0,keypress(z),500,379932.09999990463,379931.7999999523,376230.979,376246.2000000477,376247.62,379947.707,8,400,23,,ISIC_9090822.JPG
break,html.Screen,4_72_1,2023-09-11T17:23:00.662Z,,0,,,NaN,,,,,,false,,,,379933.2000000477,379932.89999985695,,379932.39999985695,,379947.707,8,400,,,
break_continue,html.Screen,4_72_2,2023-09-11T17:23:00.662Z,,0,,,NaN,,,,,,false,,,,379933.7000000477,379933.5,,379933.39999985695,,379947.707,8,400,,,
sequence,flow.Sequence,4_72,2023-09-11T17:23:00.663Z,,0,,,3685.8800000000047,completion,,,,,false,,,,379934,379933.5,376230.979,376246.2000000477,376247.62,379947.707,8,400,,,
trial,html.Screen,4_73_0,2023-09-11T17:23:04.601Z,,0,2,,3923.993000047689,response,ISIC_6778515.JPG,5,ISIC_0033365.JPG,ISIC_0033365.JPG,false,0,keypress(z),500,383872,383871.7000000477,379931.042,379934.2000000477,379947.707,383881.078,8,400,24,,ISIC_6778515.JPG
break,html.Screen,4_73_1,2023-09-11T17:23:04.602Z,,0,,,NaN,,,,,,false,,,,383872.89999985695,383872.7000000477,,383872.2999999523,,383881.078,8,400,,,
break_continue,html.Screen,4_73_2,2023-09-11T17:23:04.602Z,,0,,,NaN,,,,,,false,,,,383873.59999990463,383873.39999985695,,383873.2999999523,,383881.078,8,400,,,
sequence,flow.Sequence,4_73,2023-09-11T17:23:04.602Z,,0,,,3925.692999856954,completion,,,,,false,,,,383873.89999985695,383873.39999985695,379931.042,379934.09999990463,379947.707,383881.078,8,400,,,
trial,html.Screen,4_74_0,2023-09-11T17:23:08.333Z,,0,2,,3722.8219998569693,response,ISIC_6785249.JPG,5,ISIC_5381712.JPG,ISIC_5381712.JPG,false,0,keypress(z),500,387604.2000000477,387603.89999985695,383864.39,383874.09999990463,383881.078,387614.461,8,400,25,,ISIC_6785249.JPG
break,html.Screen,4_74_1,2023-09-11T17:23:08.334Z,,0,,,NaN,,,,,,false,,,,387605.2000000477,387605,,387604.59999990463,,387614.461,8,400,,,
break_continue,html.Screen,4_74_2,2023-09-11T17:23:08.334Z,,0,,,NaN,,,,,,false,,,,387605.7000000477,387605.59999990463,,387605.39999985695,,387614.461,8,400,,,
sequence,flow.Sequence,4_74,2023-09-11T17:23:08.335Z,,0,,,3724.521999904653,completion,,,,,false,,,,387606,387605.59999990463,383864.39,383874,383881.078,387614.461,8,400,,,
trial,html.Screen,4_75_0,2023-09-11T17:23:11.381Z,,0,2,,3037.4389998569386,response,ISIC_3148886.JPG,5,ISIC_8909545.JPG,ISIC_3148886.JPG,false,1,keypress(m),500,390652,390651.89999985695,387597.766,387606.2000000477,387614.461,390664.457,8,400,26,,ISIC_8909545.JPG
break,html.Screen,4_75_1,2023-09-11T17:23:11.381Z,,0,,,NaN,,,,,,false,,,,390652.2999999523,390652.2000000477,,390652.09999990463,,390664.457,8,400,,,
break_continue,html.Screen,4_75_2,2023-09-11T17:23:11.381Z,,0,,,NaN,,,,,,false,,,,390652.59999990463,390652.5,,390652.39999985695,,390664.457,8,400,,,
sequence,flow.Sequence,4_75,2023-09-11T17:23:11.381Z,,0,,,3038.0389999999898,completion,,,,,false,,,,390652.7000000477,390652.5,387597.766,387606.09999990463,387614.461,390664.457,8,400,,,
trial,html.Screen,4_76_0,2023-09-11T17:23:14.343Z,,0,2,,2949.3429999523214,response,ISIC_2670475.JPG,4,ISIC_4808298.JPG,ISIC_2670475.JPG,false,1,keypress(m),500,393614.2000000477,393613.7999999523,390647.637,390652.7000000477,390664.457,393631.128,8,400,27,,ISIC_4808298.JPG
break,html.Screen,4_76_1,2023-09-11T17:23:14.344Z,,0,,,NaN,,,,,,false,,,,393615.09999990463,393614.89999985695,,393614.39999985695,,393631.128,8,400,,,
break_continue,html.Screen,4_76_2,2023-09-11T17:23:14.344Z,,0,,,NaN,,,,,,false,,,,393615.7000000477,393615.5,,393615.2999999523,,393631.128,8,400,,,
sequence,flow.Sequence,4_76,2023-09-11T17:23:14.345Z,,0,,,2951.043000000005,completion,,,,,false,,,,393615.89999985695,393615.5,390647.637,390652.7000000477,390664.457,393631.128,8,400,,,
trial,html.Screen,4_77_0,2023-09-11T17:23:18.939Z,,0,2,,4578.771999856923,response,ISIC_4097868.JPG,5,ISIC_4298761.JPG,ISIC_4097868.JPG,false,1,keypress(m),500,398210.2000000477,398209.89999985695,393614.364,393616.09999990463,393631.128,398214.304,8,400,28,,ISIC_4298761.JPG
break,html.Screen,4_77_1,2023-09-11T17:23:18.940Z,,0,,,NaN,,,,,,false,,,,398211.2000000477,398211,,398210.5,,398214.304,8,400,,,
break_continue,html.Screen,4_77_2,2023-09-11T17:23:18.940Z,,0,,,NaN,,,,,,false,,,,398211.89999985695,398211.59999990463,,398211.5,,398214.304,8,400,,,
sequence,flow.Sequence,4_77,2023-09-11T17:23:18.941Z,,0,,,4580.4719999046065,completion,,,,,false,,,,398212.09999990463,398211.59999990463,393614.364,393616.09999990463,393631.128,398214.304,8,400,,,
trial,html.Screen,4_78_0,2023-09-11T17:23:21.695Z,,0,2,,2751.595999856945,response,ISIC_1794249.JPG,5,ISIC_0024219.JPG,ISIC_0024219.JPG,false,0,keypress(z),500,400966,400965.89999985695,398197.561,398212.2000000477,398214.304,400980.854,8,400,29,,ISIC_1794249.JPG
break,html.Screen,4_78_1,2023-09-11T17:23:21.695Z,,0,,,NaN,,,,,,false,,,,400966.39999985695,400966.2999999523,,400966.09999990463,,400980.854,8,400,,,
break_continue,html.Screen,4_78_2,2023-09-11T17:23:21.695Z,,0,,,NaN,,,,,,false,,,,400966.59999990463,400966.5,,400966.39999985695,,400980.854,8,400,,,
sequence,flow.Sequence,4_78,2023-09-11T17:23:21.695Z,,0,,,2752.1959999999963,completion,,,,,false,,,,400966.7000000477,400966.5,398197.561,398212.2000000477,398214.304,400980.854,8,400,,,
trial,html.Screen,4_79_0,2023-09-11T17:23:25.266Z,,0,2,,3556.445999952324,response,ISIC_0000541.JPG,5,ISIC_0025897.JPG,ISIC_0000541.JPG,false,1,keypress(m),500,404537.59999990463,404537.2999999523,400964.468,400966.7000000477,400980.854,404547.729,8,400,30,,ISIC_0025897.JPG
break,html.Screen,4_79_1,2023-09-11T17:23:25.267Z,,0,,,NaN,,,,,,false,,,,404538.59999990463,404538.2999999523,,404537.89999985695,,404547.729,8,400,,,
break_continue,html.Screen,4_79_2,2023-09-11T17:23:25.268Z,,0,,,NaN,,,,,,false,,,,404539.2000000477,404539,,404538.7999999523,,404547.729,8,400,,,
sequence,flow.Sequence,4_79,2023-09-11T17:23:25.268Z,,0,,,3558.146000000008,completion,,,,,false,,,,404539.5,404539,400964.468,400966.7000000477,400980.854,404547.729,8,400,,,
trial,html.Screen,4_80_0,2023-09-11T17:23:28.455Z,,0,2,,3178.070999952324,response,ISIC_5306427.JPG,5,ISIC_3792196.JPG,ISIC_3792196.JPG,false,0,keypress(z),500,407726.2000000477,407725.7999999523,404531.099,404539.7000000477,404547.729,407730.975,8,400,31,,ISIC_5306427.JPG
break,html.Screen,4_80_1,2023-09-11T17:23:28.456Z,,0,,,NaN,,,,,,false,,,,407727.2000000477,407727,,407726.39999985695,,407730.975,8,400,,,
break_continue,html.Screen,4_80_2,2023-09-11T17:23:28.456Z,,0,,,NaN,,,,,,false,,,,407727.7000000477,407727.59999990463,,407727.39999985695,,407730.975,8,400,,,
sequence,flow.Sequence,4_80,2023-09-11T17:23:28.457Z,,0,,,3179.8709999046405,completion,,,,,false,,,,407728,407727.59999990463,404531.099,404539.59999990463,404547.729,407730.975,8,400,,,
trial,html.Screen,4_81_0,2023-09-11T17:23:31.182Z,,0,2,,2722.124999904656,response,ISIC_0056991.JPG,4,ISIC_3771332.JPG,ISIC_3771332.JPG,false,0,keypress(z),500,410453.39999985695,410453.09999990463,407714.305,407728.09999990463,407730.975,410464.483,8,400,32,,ISIC_0056991.JPG
break,html.Screen,4_81_1,2023-09-11T17:23:31.183Z,,0,,,NaN,,,,,,false,,,,410454.7000000477,410454.5,,410453.7000000477,,410464.483,8,400,,,
break_continue,html.Screen,4_81_2,2023-09-11T17:23:31.184Z,,0,,,NaN,,,,,,false,,,,410455.2999999523,410455.09999990463,,410455,,410464.483,8,400,,,
sequence,flow.Sequence,4_81,2023-09-11T17:23:31.184Z,,0,,,2724.124999904656,completion,,,,,false,,,,410455.5,410455.09999990463,407714.305,407728.09999990463,407730.975,410464.483,8,400,,,
trial,html.Screen,4_82_0,2023-09-11T17:23:34.533Z,,0,2,,3339.816999952309,response,ISIC_1638436.JPG,5,ISIC_0032925.JPG,ISIC_0032925.JPG,false,0,keypress(z),500,413804.59999990463,413804.2999999523,410447.67,410455.7000000477,410464.483,413814.368,8,400,33,,ISIC_1638436.JPG
break,html.Screen,4_82_1,2023-09-11T17:23:34.534Z,,0,,,NaN,,,,,,false,,,,413805.59999990463,413805.2999999523,,413805,,413814.368,8,400,,,
break_continue,html.Screen,4_82_2,2023-09-11T17:23:34.535Z,,0,,,NaN,,,,,,false,,,,413806.09999990463,413806,,413805.89999985695,,413814.368,8,400,,,
sequence,flow.Sequence,4_82,2023-09-11T17:23:34.535Z,,0,,,3341.5169999999925,completion,,,,,false,,,,413806.5,413806,410447.67,410455.7000000477,410464.483,413814.368,8,400,,,
trial,html.Screen,4_83_0,2023-09-11T17:23:38.057Z,,0,2,,3513.9319999522995,response,ISIC_2916677.JPG,5,ISIC_0066889.JPG,ISIC_0066889.JPG,false,0,keypress(z),500,417328.59999990463,417328.2999999523,413797.709,413806.7000000477,413814.368,417330.977,8,400,34,,ISIC_2916677.JPG
break,html.Screen,4_83_1,2023-09-11T17:23:38.058Z,,0,,,NaN,,,,,,false,,,,417329.59999990463,417329.2999999523,,417328.89999985695,,417330.977,8,400,,,
break_continue,html.Screen,4_83_2,2023-09-11T17:23:38.059Z,,0,,,NaN,,,,,,false,,,,417330.09999990463,417329.89999985695,,417329.7999999523,,417330.977,8,400,,,
sequence,flow.Sequence,4_83,2023-09-11T17:23:38.059Z,,0,,,3515.531999856932,completion,,,,,false,,,,417330.39999985695,417329.89999985695,413797.709,413806.59999990463,413814.368,417330.977,8,400,,,
trial,html.Screen,4_84_0,2023-09-11T17:23:42.495Z,,0,2,,4434.822999952303,response,ISIC_5527447.JPG,5,ISIC_0031629.JPG,ISIC_0031629.JPG,false,0,keypress(z),500,421766.09999990463,421765.7999999523,417314.323,417330.59999990463,417330.977,421781.135,8,400,35,,ISIC_5527447.JPG
break,html.Screen,4_84_1,2023-09-11T17:23:42.496Z,,0,,,NaN,,,,,,false,,,,421767.09999990463,421766.89999985695,,421766.39999985695,,421781.135,8,400,,,
break_continue,html.Screen,4_84_2,2023-09-11T17:23:42.496Z,,0,,,NaN,,,,,,false,,,,421767.7000000477,421767.5,,421767.2999999523,,421781.135,8,400,,,
sequence,flow.Sequence,4_84,2023-09-11T17:23:42.497Z,,0,,,4436.5229999999865,completion,,,,,false,,,,421767.89999985695,421767.5,417314.323,417330.5,417330.977,421781.135,8,400,,,
trial,html.Screen,4_85_0,2023-09-11T17:23:45.764Z,,0,2,,3253.7649998569395,response,ISIC_0033217.JPG,4,ISIC_1937197.JPG,ISIC_0033217.JPG,false,1,keypress(m),500,425035.09999990463,425034.89999985695,421764.416,421768.2000000477,421781.135,425047.715,8,400,36,,ISIC_1937197.JPG
break,html.Screen,4_85_1,2023-09-11T17:23:45.765Z,,0,,,NaN,,,,,,false,,,,425036.2000000477,425036,,425035.39999985695,,425047.715,8,400,,,
break_continue,html.Screen,4_85_2,2023-09-11T17:23:45.766Z,,0,,,NaN,,,,,,false,,,,425036.7999999523,425036.59999990463,,425036.5,,425047.715,8,400,,,
sequence,flow.Sequence,4_85,2023-09-11T17:23:45.766Z,,0,,,3255.4649999046233,completion,,,,,false,,,,425037,425036.59999990463,421764.416,421768.09999990463,421781.135,425047.715,8,400,,,
trial,html.Screen,4_86_0,2023-09-11T17:23:49.707Z,,0,2,,3930.384999904607,response,ISIC_8783066.JPG,5,ISIC_0006118.JPG,ISIC_0006118.JPG,false,0,keypress(z),500,428978.2999999523,428978.09999990463,425031.011,425037.2999999523,425047.715,428980.904,8,400,37,,ISIC_8783066.JPG
break,html.Screen,4_86_1,2023-09-11T17:23:49.708Z,,0,,,NaN,,,,,,false,,,,428978.7999999523,428978.5,,428978.39999985695,,428980.904,8,400,,,
break_continue,html.Screen,4_86_2,2023-09-11T17:23:49.708Z,,0,,,NaN,,,,,,false,,,,428979,428978.89999985695,,428978.7999999523,,428980.904,8,400,,,
sequence,flow.Sequence,4_86,2023-09-11T17:23:49.708Z,,0,,,3931.1849998569232,completion,,,,,false,,,,428979.09999990463,428978.89999985695,425031.011,425037.2000000477,425047.715,428980.904,8,400,,,
trial,html.Screen,4_87_0,2023-09-11T17:23:52.862Z,,0,2,,3151.895999952336,response,ISIC_2977718.JPG,5,ISIC_8794567.JPG,ISIC_8794567.JPG,false,0,keypress(z),500,432132.89999985695,432132.7999999523,428964.346,428979.2000000477,428980.904,432147.552,8,400,38,,ISIC_2977718.JPG
break,html.Screen,4_87_1,2023-09-11T17:23:52.862Z,,0,,,NaN,,,,,,false,,,,432133.2999999523,432133.2999999523,,432133,,432147.552,8,400,,,
break_continue,html.Screen,4_87_2,2023-09-11T17:23:52.863Z,,0,,,NaN,,,,,,false,,,,432133.59999990463,432133.5,,432133.5,,432147.552,8,400,,,
sequence,flow.Sequence,4_87,2023-09-11T17:23:52.863Z,,0,,,3152.5960000000196,completion,,,,,false,,,,432133.7000000477,432133.5,428964.346,428979.2000000477,428980.904,432147.552,8,400,,,
trial,html.Screen,4_88_0,2023-09-11T17:23:55.904Z,,0,2,,3027.247999952291,response,ISIC_0066109.JPG,5,ISIC_0065292.JPG,ISIC_0065292.JPG,false,0,keypress(z),500,435175.09999990463,435174.7999999523,432130.872,432133.7999999523,432147.552,435181.001,8,400,39,,ISIC_0066109.JPG
break,html.Screen,4_88_1,2023-09-11T17:23:55.905Z,,0,,,NaN,,,,,,false,,,,435176.09999990463,435175.7999999523,,435175.2999999523,,435181.001,8,400,,,
break_continue,html.Screen,4_88_2,2023-09-11T17:23:55.906Z,,0,,,NaN,,,,,,false,,,,435176.59999990463,435176.39999985695,,435176.2999999523,,435181.001,8,400,,,
sequence,flow.Sequence,4_88,2023-09-11T17:23:55.906Z,,0,,,3028.8479998569237,completion,,,,,false,,,,435176.89999985695,435176.39999985695,432130.872,432133.7999999523,432147.552,435181.001,8,400,,,
trial,html.Screen,4_89_0,2023-09-11T17:23:58.923Z,,0,2,,3012.5989999046433,response,ISIC_3979826.JPG,5,ISIC_6806124.JPG,ISIC_3979826.JPG,false,1,keypress(m),500,438193.89999985695,438193.59999990463,435164.429,435177.09999990463,435181.001,438197.571,8,400,40,,ISIC_6806124.JPG
break,html.Screen,4_89_1,2023-09-11T17:23:58.924Z,,0,,,NaN,,,,,,false,,,,438195,438194.7999999523,,438194.2000000477,,438197.571,8,400,,,
break_continue,html.Screen,4_89_2,2023-09-11T17:23:58.925Z,,0,,,NaN,,,,,,false,,,,438195.59999990463,438195.39999985695,,438195.2000000477,,438197.571,8,400,,,
sequence,flow.Sequence,4_89,2023-09-11T17:23:58.925Z,,0,,,3014.3989998569596,completion,,,,,false,,,,438195.7999999523,438195.39999985695,435164.429,435177,435181.001,438197.571,8,400,,,
trial,html.Screen,4_90_0,2023-09-11T17:24:01.935Z,,0,2,,3008.22899995232,response,ISIC_0062208.JPG,4,ISIC_0029071.JPG,ISIC_0062208.JPG,false,1,keypress(m),500,441206.09999990463,441205.7999999523,438180.994,438196,438197.571,441214.428,8,400,41,,ISIC_0029071.JPG
break,html.Screen,4_90_1,2023-09-11T17:24:01.936Z,,0,,,NaN,,,,,,false,,,,441207.09999990463,441206.7999999523,,441206.39999985695,,441214.428,8,400,,,
break_continue,html.Screen,4_90_2,2023-09-11T17:24:01.937Z,,0,,,NaN,,,,,,false,,,,441207.59999990463,441207.39999985695,,441207.2999999523,,441214.428,8,400,,,
sequence,flow.Sequence,4_90,2023-09-11T17:24:01.937Z,,0,,,3009.8289998569526,completion,,,,,false,,,,441207.89999985695,441207.39999985695,438180.994,438196,438197.571,441214.428,8,400,,,
trial,html.Screen,4_91_0,2023-09-11T17:24:04.708Z,,0,2,,2764.0719999999856,response,ISIC_4768512.JPG,5,ISIC_0066289.JPG,ISIC_0066289.JPG,false,0,keypress(z),500,443978.7999999523,443978.5,441197.84,441208.09999990463,441214.428,443980.982,8,400,42,,ISIC_4768512.JPG
break,html.Screen,4_91_1,2023-09-11T17:24:04.709Z,,0,,,NaN,,,,,,false,,,,443979.7999999523,443979.59999990463,,443979.09999990463,,443980.982,8,400,,,
break_continue,html.Screen,4_91_2,2023-09-11T17:24:04.710Z,,0,,,NaN,,,,,,false,,,,443980.7000000477,443980.5,,443980.39999985695,,443980.982,8,400,,,
sequence,flow.Sequence,4_91,2023-09-11T17:24:04.710Z,,0,,,2766.0719999999856,completion,,,,,false,,,,443981,443980.5,441197.84,441208.09999990463,441214.428,443980.982,8,400,,,
trial,html.Screen,4_92_0,2023-09-11T17:24:07.977Z,,0,2,,3266.6179999046144,response,ISIC_0071457.JPG,5,ISIC_0004140.JPG,ISIC_0071457.JPG,false,1,keypress(m),500,447247.59999990463,447247.59999990463,443964.345,443981.2000000477,443980.982,447264.242,8,400,43,,ISIC_0004140.JPG
break,html.Screen,4_92_1,2023-09-11T17:24:07.977Z,,0,,,NaN,,,,,,false,,,,447248,447247.7999999523,,447247.7999999523,,447264.242,8,400,,,
break_continue,html.Screen,4_92_2,2023-09-11T17:24:07.977Z,,0,,,NaN,,,,,,false,,,,447248.09999990463,447248.09999990463,,447248,,447264.242,8,400,,,
sequence,flow.Sequence,4_92,2023-09-11T17:24:07.977Z,,0,,,3267.1179999046144,completion,,,,,false,,,,447248.2000000477,447248.09999990463,443964.345,443981.2000000477,443980.982,447264.242,8,400,,,
trial,html.Screen,4_93_0,2023-09-11T17:24:11.482Z,,0,2,,3488.857999904605,response,ISIC_1008321.JPG,5,ISIC_0011958.JPG,ISIC_0011958.JPG,false,0,keypress(z),500,450753.5,450753.09999990463,447247.695,447248.2999999523,447264.242,450764.386,8,400,44,,ISIC_1008321.JPG
break,html.Screen,4_93_1,2023-09-11T17:24:11.483Z,,0,,,NaN,,,,,,false,,,,450754.5,450754.2999999523,,450753.7000000477,,450764.386,8,400,,,
break_continue,html.Screen,4_93_2,2023-09-11T17:24:11.484Z,,0,,,NaN,,,,,,false,,,,450755.2000000477,450754.89999985695,,450754.7000000477,,450764.386,8,400,,,
sequence,flow.Sequence,4_93,2023-09-11T17:24:11.484Z,,0,,,3490.6579998569214,completion,,,,,false,,,,450755.39999985695,450754.89999985695,447247.695,447248.2999999523,447264.242,450764.386,8,400,,,
trial,html.Screen,4_94_0,2023-09-11T17:24:17.670Z,,0,2,,6176.114000000001,response,ISIC_0003159.JPG,5,ISIC_0015226.JPG,ISIC_0003159.JPG,false,1,keypress(m),500,456940.7999999523,456940.5,450747.734,450755.59999990463,450764.386,456947.561,8,400,45,,ISIC_0015226.JPG
break,html.Screen,4_94_1,2023-09-11T17:24:17.671Z,,0,,,NaN,,,,,,false,,,,456941.7000000477,456941.5,,456941,,456947.561,8,400,,,
break_continue,html.Screen,4_94_2,2023-09-11T17:24:17.671Z,,0,,,NaN,,,,,,false,,,,456942.2999999523,456942.09999990463,,456942,,456947.561,8,400,,,
sequence,flow.Sequence,4_94,2023-09-11T17:24:17.671Z,,0,,,6177.713999904634,completion,,,,,false,,,,456942.5,456942.09999990463,450747.734,450755.5,450764.386,456947.561,8,400,,,
trial,html.Screen,4_95_0,2023-09-11T17:24:21.341Z,,0,2,,3664.0389999046456,response,ISIC_4136351.JPG,5,ISIC_0599047.JPG,ISIC_4136351.JPG,false,1,keypress(m),500,460611.89999985695,460611.59999990463,456930.995,456942.7000000477,456947.561,460631.032,8,400,46,,ISIC_0599047.JPG
break,html.Screen,4_95_1,2023-09-11T17:24:21.342Z,,0,,,NaN,,,,,,false,,,,460612.89999985695,460612.59999990463,,460612,,460631.032,8,400,,,
break_continue,html.Screen,4_95_2,2023-09-11T17:24:21.342Z,,0,,,NaN,,,,,,false,,,,460613.39999985695,460613.2000000477,,460613,,460631.032,8,400,,,
sequence,flow.Sequence,4_95,2023-09-11T17:24:21.343Z,,0,,,3665.6390000476968,completion,,,,,false,,,,460613.5,460613.2000000477,456930.995,456942.59999990463,456947.561,460631.032,8,400,,,
trial,html.Screen,4_96_0,2023-09-11T17:24:24.340Z,,0,2,,2979.668000047677,response,ISIC_4527661.JPG,5,ISIC_1920685.JPG,ISIC_4527661.JPG,false,1,keypress(m),500,463611,463610.7000000477,460614.348,460613.7999999523,460631.032,463614.326,8,400,47,,ISIC_1920685.JPG
break,html.Screen,4_96_1,2023-09-11T17:24:24.341Z,,0,,,NaN,,,,,,false,,,,463612,463611.7999999523,,463611.2999999523,,463614.326,8,400,,,
break_continue,html.Screen,4_96_2,2023-09-11T17:24:24.341Z,,0,,,NaN,,,,,,false,,,,463612.5,463612.2999999523,,463612.09999990463,,463614.326,8,400,,,
sequence,flow.Sequence,4_96,2023-09-11T17:24:24.342Z,,0,,,2981.2679999523098,completion,,,,,false,,,,463612.7000000477,463612.2999999523,460614.348,460613.7000000477,460631.032,463614.326,8,400,,,
trial,html.Screen,4_97_0,2023-09-11T17:24:28.024Z,,0,2,,3680.2739999046316,response,ISIC_0056141.JPG,5,ISIC_9228573.JPG,ISIC_0056141.JPG,false,1,keypress(m),500,467294.89999985695,467294.59999990463,463597.805,463612.89999985695,463614.326,467297.675,8,400,48,,ISIC_9228573.JPG
break,html.Screen,4_97_1,2023-09-11T17:24:28.025Z,,0,,,NaN,,,,,,false,,,,467296.09999990463,467295.89999985695,,467295.2000000477,,467297.675,8,400,,,
break_continue,html.Screen,4_97_2,2023-09-11T17:24:28.026Z,,0,,,NaN,,,,,,false,,,,467296.59999990463,467296.39999985695,,467296.2999999523,,467297.675,8,400,,,
sequence,flow.Sequence,4_97,2023-09-11T17:24:28.026Z,,0,,,3682.073999856948,completion,,,,,false,,,,467296.89999985695,467296.39999985695,463597.805,463612.89999985695,463614.326,467297.675,8,400,,,
trial,html.Screen,4_98_0,2023-09-11T17:24:31.134Z,,0,2,,3107.124999952328,response,ISIC_0029902.JPG,8,ISIC_9785077.JPG,ISIC_9785077.JPG,false,0,keypress(z),500,470405.09999990463,470404.7999999523,467281.04,467297.09999990463,467297.675,470414.379,8,400,49,,ISIC_0029902.JPG
break,html.Screen,4_98_1,2023-09-11T17:24:31.135Z,,0,,,NaN,,,,,,false,,,,470406.09999990463,470405.7999999523,,470405.5,,470414.379,8,400,,,
break_continue,html.Screen,4_98_2,2023-09-11T17:24:31.136Z,,0,,,NaN,,,,,,false,,,,470406.59999990463,470406.5,,470406.2999999523,,470414.379,8,400,,,
sequence,flow.Sequence,4_98,2023-09-11T17:24:31.136Z,,0,,,3108.8250000000116,completion,,,,,false,,,,470406.89999985695,470406.5,467281.04,467297,467297.675,470414.379,8,400,,,
trial,html.Screen,4_99_0,2023-09-11T17:24:35.107Z,,0,2,,3963.720999904617,response,ISIC_0009622.JPG,5,ISIC_0010521.JPG,ISIC_0010521.JPG,false,0,keypress(z),500,474378.5,474378.09999990463,470397.564,470407.09999990463,470414.379,474380.995,8,400,50,,ISIC_0009622.JPG
break,html.Screen,4_99_1,2023-09-11T17:24:45.094Z,,0,,,10000.206000000006,timeout,,,,,false,,,,484365.39999985695,484364.545,474364.4,474378.7000000477,474380.995,484381.201,8,400,,,
break_continue,html.Screen,4_99_2,2023-09-11T17:24:47.450Z,,0,,,2329.698999856948,response,,,,,false,continue,keypress(Space),,486720.59999990463,486710.89999985695,484364.545,484365.7000000477,484381.201,486731.001,8,400,,,
sequence,flow.Sequence,4_99,2023-09-11T17:24:47.450Z,,0,,,16296.520999856933,completion,,,,,false,,,,486720.7000000477,486710.89999985695,470397.564,470407.09999990463,470414.379,486731.001,8,400,,,
trial,html.Screen,4_100_0,2023-09-11T17:24:51.356Z,,0,3,,3894.8989998569596,response,ISIC_0013184.JPG,6,ISIC_0001832.JPG,ISIC_0001832.JPG,false,0,keypress(z),500,490626.2000000477,490625.89999985695,486714.233,486720.7999999523,486731.001,490630.959,8,400,1,,ISIC_0013184.JPG
break,html.Screen,4_100_1,2023-09-11T17:24:51.357Z,,0,,,NaN,,,,,,false,,,,490627.2000000477,490627,,490626.5,,490630.959,8,400,,,
break_continue,html.Screen,4_100_2,2023-09-11T17:24:51.357Z,,0,,,NaN,,,,,,false,,,,490627.7999999523,490627.5,,490627.39999985695,,490630.959,8,400,,,
sequence,flow.Sequence,4_100,2023-09-11T17:24:51.357Z,,0,,,3896.4990000000107,completion,,,,,false,,,,490628,490627.5,486714.233,486720.7999999523,486731.001,490630.959,8,400,,,
trial,html.Screen,4_101_0,2023-09-11T17:24:54.672Z,,0,3,,3311.4409998569754,response,ISIC_0031705.JPG,5,ISIC_4308751.JPG,ISIC_4308751.JPG,false,0,keypress(z),500,493942.7999999523,493942.39999985695,490614.399,490628.2000000477,490630.959,493947.665,8,400,2,,ISIC_0031705.JPG
break,html.Screen,4_101_1,2023-09-11T17:24:54.673Z,,0,,,NaN,,,,,,false,,,,493943.7999999523,493943.5,,493943,,493947.665,8,400,,,
break_continue,html.Screen,4_101_2,2023-09-11T17:24:54.674Z,,0,,,NaN,,,,,,false,,,,493944.39999985695,493944.2000000477,,493944,,493947.665,8,400,,,
sequence,flow.Sequence,4_101,2023-09-11T17:24:54.674Z,,0,,,3313.2410000477103,completion,,,,,false,,,,493944.59999990463,493944.2000000477,490614.399,490628.09999990463,490630.959,493947.665,8,400,,,
trial,html.Screen,4_102_0,2023-09-11T17:24:57.476Z,,0,3,,2798.835000000021,response,ISIC_0012990.JPG,5,ISIC_5959795.JPG,ISIC_0012990.JPG,false,1,keypress(m),500,496746.7000000477,496746.5,493931.03,493944.89999985695,493947.665,496765.01,8,400,3,,ISIC_5959795.JPG
break,html.Screen,4_102_1,2023-09-11T17:24:57.477Z,,0,,,NaN,,,,,,false,,,,496747.2999999523,496747.09999990463,,496746.89999985695,,496765.01,8,400,,,
break_continue,html.Screen,4_102_2,2023-09-11T17:24:57.477Z,,0,,,NaN,,,,,,false,,,,496747.7000000477,496747.59999990463,,496747.39999985695,,496765.01,8,400,,,
sequence,flow.Sequence,4_102,2023-09-11T17:24:57.477Z,,0,,,2799.9349999046535,completion,,,,,false,,,,496747.7999999523,496747.59999990463,493931.03,493944.7999999523,493947.665,496765.01,8,400,,,
trial,html.Screen,4_103_0,2023-09-11T17:25:00.455Z,,0,3,,2960.1900000476744,response,ISIC_3292151.JPG,5,ISIC_0012450.JPG,ISIC_3292151.JPG,false,1,keypress(m),500,499725.5,499725.2000000477,496731.03,496747.89999985695,496765.01,499730.898,8,400,4,,ISIC_0012450.JPG
break,html.Screen,4_103_1,2023-09-11T17:25:00.456Z,,0,,,NaN,,,,,,false,,,,499726.5,499726.09999990463,,499725.7000000477,,499730.898,8,400,,,
break_continue,html.Screen,4_103_2,2023-09-11T17:25:00.456Z,,0,,,NaN,,,,,,false,,,,499727,499726.7999999523,,499726.7000000477,,499730.898,8,400,,,
sequence,flow.Sequence,4_103,2023-09-11T17:25:00.457Z,,0,,,2961.789999952307,completion,,,,,false,,,,499727.2000000477,499726.7999999523,496731.03,496747.89999985695,496765.01,499730.898,8,400,,,
trial,html.Screen,4_104_0,2023-09-11T17:25:03.630Z,,0,3,,3169.201999904646,response,ISIC_0726170.JPG,4,ISIC_7960321.JPG,ISIC_7960321.JPG,false,0,keypress(z),500,502900.5,502900.09999990463,499714.422,499727.5,499730.898,502914.514,8,400,5,,ISIC_0726170.JPG
break,html.Screen,4_104_1,2023-09-11T17:25:03.631Z,,0,,,NaN,,,,,,false,,,,502902,502901.59999990463,,502901,,502914.514,8,400,,,
break_continue,html.Screen,4_104_2,2023-09-11T17:25:03.632Z,,0,,,NaN,,,,,,false,,,,502902.59999990463,502902.2999999523,,502902.2000000477,,502914.514,8,400,,,
sequence,flow.Sequence,4_104,2023-09-11T17:25:03.632Z,,0,,,3171.40199995233,completion,,,,,false,,,,502902.7999999523,502902.2999999523,499714.422,499727.39999985695,499730.898,502914.514,8,400,,,
trial,html.Screen,4_105_0,2023-09-11T17:25:07.794Z,,0,3,,4150.186000047659,response,ISIC_0056055.JPG,5,ISIC_0579047.JPG,ISIC_0056055.JPG,false,1,keypress(m),500,507065,507064.7000000477,502897.707,502902.89999985695,502914.514,507081.167,8,400,6,,ISIC_0579047.JPG
break,html.Screen,4_105_1,2023-09-11T17:25:07.795Z,,0,,,NaN,,,,,,false,,,,507065.89999985695,507065.7000000477,,507065.2999999523,,507081.167,8,400,,,
break_continue,html.Screen,4_105_2,2023-09-11T17:25:07.796Z,,0,,,NaN,,,,,,false,,,,507066.5,507066.2000000477,,507066.09999990463,,507081.167,8,400,,,
sequence,flow.Sequence,4_105,2023-09-11T17:25:07.796Z,,0,,,4151.686000047659,completion,,,,,false,,,,507066.7000000477,507066.2000000477,502897.707,502902.89999985695,502914.514,507081.167,8,400,,,
trial,html.Screen,4_106_0,2023-09-11T17:25:14.903Z,,0,3,,7092.232999856933,response,ISIC_0034208.JPG,5,ISIC_0033710.JPG,ISIC_0033710.JPG,false,0,keypress(z),500,514173.7000000477,514173.39999985695,507064.501,507066.89999985695,507081.167,514180.944,8,400,7,,ISIC_0034208.JPG
break,html.Screen,4_106_1,2023-09-11T17:25:14.904Z,,0,,,NaN,,,,,,false,,,,514174.89999985695,514174.59999990463,,514173.89999985695,,514180.944,8,400,,,
break_continue,html.Screen,4_106_2,2023-09-11T17:25:14.905Z,,0,,,NaN,,,,,,false,,,,514175.59999990463,514175.2999999523,,514175.2000000477,,514180.944,8,400,,,
sequence,flow.Sequence,4_106,2023-09-11T17:25:14.905Z,,0,,,7094.1329999523,completion,,,,,false,,,,514175.7999999523,514175.2999999523,507064.501,507066.7999999523,507081.167,514180.944,8,400,,,
trial,html.Screen,4_107_0,2023-09-11T17:25:18.204Z,,0,3,,3293.3559999522986,response,ISIC_0033365.JPG,6,ISIC_4699989.JPG,ISIC_4699989.JPG,false,0,keypress(z),500,517474.7000000477,517474.2999999523,514164.319,514175.89999985695,514180.944,517480.989,8,400,8,,ISIC_0033365.JPG
break,html.Screen,4_107_1,2023-09-11T17:25:18.205Z,,0,,,NaN,,,,,,false,,,,517475.59999990463,517475.39999985695,,517475,,517480.989,8,400,,,
break_continue,html.Screen,4_107_2,2023-09-11T17:25:18.205Z,,0,,,NaN,,,,,,false,,,,517476.2000000477,517476,,517475.7999999523,,517480.989,8,400,,,
sequence,flow.Sequence,4_107,2023-09-11T17:25:18.206Z,,0,,,3295.0559999999823,completion,,,,,false,,,,517476.39999985695,517476,514164.319,514175.89999985695,514180.944,517480.989,8,400,,,
trial,html.Screen,4_108_0,2023-09-11T17:25:21.520Z,,0,3,,3309.0109999999986,response,ISIC_3300710.JPG,5,ISIC_1650523.JPG,ISIC_1650523.JPG,false,0,keypress(z),500,520790.2999999523,520790,517464.389,517476.59999990463,517480.989,520797.645,8,400,9,,ISIC_3300710.JPG
break,html.Screen,4_108_1,2023-09-11T17:25:21.521Z,,0,,,NaN,,,,,,false,,,,520791.2999999523,520791,,520790.5,,520797.645,8,400,,,
break_continue,html.Screen,4_108_2,2023-09-11T17:25:21.521Z,,0,,,NaN,,,,,,false,,,,520791.89999985695,520791.7000000477,,520791.59999990463,,520797.645,8,400,,,
sequence,flow.Sequence,4_108,2023-09-11T17:25:21.521Z,,0,,,3310.7110000476823,completion,,,,,false,,,,520792.2000000477,520791.7000000477,517464.389,517476.59999990463,517480.989,520797.645,8,400,,,
trial,html.Screen,4_109_0,2023-09-11T17:25:24.323Z,,0,3,,2795.954999904614,response,ISIC_0066106.JPG,6,ISIC_0010775.JPG,ISIC_0066106.JPG,false,1,keypress(m),500,523593.89999985695,523593.59999990463,520781.04,520792.2999999523,520797.645,523597.597,8,400,10,,ISIC_0010775.JPG
break,html.Screen,4_109_1,2023-09-11T17:25:24.324Z,,0,,,NaN,,,,,,false,,,,523595,523594.7999999523,,523594.2999999523,,523597.597,8,400,,,
break_continue,html.Screen,4_109_2,2023-09-11T17:25:24.325Z,,0,,,NaN,,,,,,false,,,,523595.59999990463,523595.39999985695,,523595.2000000477,,523597.597,8,400,,,
sequence,flow.Sequence,4_109,2023-09-11T17:25:24.325Z,,0,,,2797.75499985693,completion,,,,,false,,,,523595.89999985695,523595.39999985695,520781.04,520792.2999999523,520797.645,523597.597,8,400,,,
trial,html.Screen,4_110_0,2023-09-11T17:25:27.359Z,,0,3,,3031.902999999991,response,ISIC_0054317.JPG,4,ISIC_4691689.JPG,ISIC_0054317.JPG,false,1,keypress(m),500,526629.7999999523,526629.5,523581.134,523596.09999990463,523597.597,526647.752,8,400,11,,ISIC_4691689.JPG
break,html.Screen,4_110_1,2023-09-11T17:25:27.360Z,,0,,,NaN,,,,,,false,,,,526630.7999999523,526630.5999999046,,526630,,526647.752,8,400,,,
break_continue,html.Screen,4_110_2,2023-09-11T17:25:27.361Z,,0,,,NaN,,,,,,false,,,,526631.399999857,526631.2000000477,,526631,,526647.752,8,400,,,
sequence,flow.Sequence,4_110,2023-09-11T17:25:27.361Z,,0,,,3033.603000047675,completion,,,,,false,,,,526631.5999999046,526631.2000000477,523581.134,523596,523597.597,526647.752,8,400,,,
trial,html.Screen,4_111_0,2023-09-11T17:25:31.283Z,,0,3,,3905.847999904654,response,ISIC_0011315.JPG,5,ISIC_0064742.JPG,ISIC_0011315.JPG,false,1,keypress(m),500,530553.7999999523,530553.5999999046,526614.394,526631.7999999523,526647.752,530564.5,8,400,12,,ISIC_0064742.JPG
break,html.Screen,4_111_1,2023-09-11T17:25:31.284Z,,0,,,NaN,,,,,,false,,,,530554.899999857,530554.5999999046,,530554.2000000477,,530564.5,8,400,,,
break_continue,html.Screen,4_111_2,2023-09-11T17:25:31.285Z,,0,,,NaN,,,,,,false,,,,530555.399999857,530555.2000000477,,530555,,530564.5,8,400,,,
sequence,flow.Sequence,4_111,2023-09-11T17:25:31.285Z,,0,,,3907.448000047705,completion,,,,,false,,,,530555.5999999046,530555.2000000477,526614.394,526631.7000000477,526647.752,530564.5,8,400,,,
trial,html.Screen,4_112_0,2023-09-11T17:25:34.280Z,,0,3,,2985.5999999046326,response,ISIC_0010742.JPG,5,ISIC_7175697.JPG,ISIC_0010742.JPG,false,1,keypress(m),500,533550.2000000477,533550.0999999046,530547.716,530555.899999857,530564.5,533581.021,8,400,13,,ISIC_7175697.JPG
break,html.Screen,4_112_1,2023-09-11T17:25:34.280Z,,0,,,NaN,,,,,,false,,,,533550.5999999046,533550.5,,533550.2999999523,,533581.021,8,400,,,
break_continue,html.Screen,4_112_2,2023-09-11T17:25:34.280Z,,0,,,NaN,,,,,,false,,,,533550.7000000477,533550.7000000477,,533550.5999999046,,533581.021,8,400,,,
sequence,flow.Sequence,4_112,2023-09-11T17:25:34.280Z,,0,,,2986.2000000476837,completion,,,,,false,,,,533550.7999999523,533550.7000000477,530547.716,530555.7999999523,530564.5,533581.021,8,400,,,
trial,html.Screen,4_113_0,2023-09-11T17:25:36.953Z,,0,3,,2642.679000047734,response,ISIC_2518672.JPG,5,ISIC_9896801.JPG,ISIC_2518672.JPG,false,1,keypress(m),500,536224.0999999046,536223.7000000477,533564.294,533550.899999857,533581.021,536230.975,8,400,14,,ISIC_9896801.JPG
break,html.Screen,4_113_1,2023-09-11T17:25:36.954Z,,0,,,NaN,,,,,,false,,,,536225.2000000477,536224.899999857,,536224.2999999523,,536230.975,8,400,,,
break_continue,html.Screen,4_113_2,2023-09-11T17:25:36.955Z,,0,,,NaN,,,,,,false,,,,536225.7000000477,536225.5,,536225.2999999523,,536230.975,8,400,,,
sequence,flow.Sequence,4_113,2023-09-11T17:25:36.955Z,,0,,,2644.4790000000503,completion,,,,,false,,,,536225.899999857,536225.5,533564.294,533550.899999857,533581.021,536230.975,8,400,,,
trial,html.Screen,4_114_0,2023-09-11T17:25:39.693Z,,0,3,,2732.5250000000233,response,ISIC_5999002.JPG,5,ISIC_4132082.JPG,ISIC_5999002.JPG,false,1,keypress(m),500,538963.899999857,538963.5,536214.43,536226.0999999046,536230.975,538981.165,8,400,15,,ISIC_4132082.JPG
break,html.Screen,4_114_1,2023-09-11T17:25:39.694Z,,0,,,NaN,,,,,,false,,,,538964.899999857,538964.7000000477,,538964.0999999046,,538981.165,8,400,,,
break_continue,html.Screen,4_114_2,2023-09-11T17:25:39.695Z,,0,,,NaN,,,,,,false,,,,538965.5,538965.2000000477,,538965.0999999046,,538981.165,8,400,,,
sequence,flow.Sequence,4_114,2023-09-11T17:25:39.695Z,,0,,,2734.225000047707,completion,,,,,false,,,,538965.7000000477,538965.2000000477,536214.43,536226,536230.975,538981.165,8,400,,,
trial,html.Screen,4_115_0,2023-09-11T17:25:43.045Z,,0,3,,3334.4349999045953,response,ISIC_6531118.JPG,5,ISIC_2166957.JPG,ISIC_6531118.JPG,false,1,keypress(m),500,542315.899999857,542315.5999999046,538964.312,538965.899999857,538981.165,542331.177,8,400,16,,ISIC_2166957.JPG
break,html.Screen,4_115_1,2023-09-11T17:25:43.046Z,,0,,,NaN,,,,,,false,,,,542316.899999857,542316.7000000477,,542316.2000000477,,542331.177,8,400,,,
break_continue,html.Screen,4_115_2,2023-09-11T17:25:43.047Z,,0,,,NaN,,,,,,false,,,,542317.5999999046,542317.399999857,,542317.2000000477,,542331.177,8,400,,,
sequence,flow.Sequence,4_115,2023-09-11T17:25:43.047Z,,0,,,3336.2349998569116,completion,,,,,false,,,,542317.7999999523,542317.399999857,538964.312,538965.7999999523,538981.165,542331.177,8,400,,,
trial,html.Screen,4_116_0,2023-09-11T17:25:46.234Z,,0,3,,3172.5230000476586,response,ISIC_0065360.JPG,5,ISIC_0033981.JPG,ISIC_0065360.JPG,false,1,keypress(m),500,545504,545503.7000000477,542314.426,542318,542331.177,545514.475,8,400,17,,ISIC_0033981.JPG
break,html.Screen,4_116_1,2023-09-11T17:25:46.235Z,,0,,,NaN,,,,,,false,,,,545505,545504.7000000477,,545504.2999999523,,545514.475,8,400,,,
break_continue,html.Screen,4_116_2,2023-09-11T17:25:46.235Z,,0,,,NaN,,,,,,false,,,,545505.5,545505.399999857,,545505.2000000477,,545514.475,8,400,,,
sequence,flow.Sequence,4_116,2023-09-11T17:25:46.235Z,,0,,,3174.2229998569237,completion,,,,,false,,,,545505.7999999523,545505.399999857,542314.426,542318,542331.177,545514.475,8,400,,,
trial,html.Screen,4_117_0,2023-09-11T17:25:50.719Z,,0,3,,4474.624999904656,response,ISIC_6180870.JPG,4,ISIC_5703909.JPG,ISIC_5703909.JPG,false,0,keypress(z),500,549989.5,549989.0999999046,545497.764,545506,545514.475,549997.703,8,400,18,,ISIC_6180870.JPG
break,html.Screen,4_117_1,2023-09-11T17:25:50.720Z,,0,,,NaN,,,,,,false,,,,549990.899999857,549990.399999857,,549989.7000000477,,549997.703,8,400,,,
break_continue,html.Screen,4_117_2,2023-09-11T17:25:50.721Z,,0,,,NaN,,,,,,false,,,,549991.399999857,549991.2000000477,,549991,,549997.703,8,400,,,
sequence,flow.Sequence,4_117,2023-09-11T17:25:50.721Z,,0,,,4476.725000047707,completion,,,,,false,,,,549991.7000000477,549991.2000000477,545497.764,545505.899999857,545514.475,549997.703,8,400,,,
trial,html.Screen,4_118_0,2023-09-11T17:25:54.102Z,,0,3,,3374.6969998569693,response,ISIC_7131973.JPG,6,ISIC_0060308.JPG,ISIC_0060308.JPG,false,0,keypress(z),500,553372.7999999523,553372.399999857,549981.049,549991.899999857,549997.703,553381.095,8,400,19,,ISIC_7131973.JPG
break,html.Screen,4_118_1,2023-09-11T17:25:54.104Z,,0,,,NaN,,,,,,false,,,,553373.899999857,553373.5999999046,,553373,,553381.095,8,400,,,
break_continue,html.Screen,4_118_2,2023-09-11T17:25:54.104Z,,0,,,NaN,,,,,,false,,,,553374.399999857,553374.2000000477,,553374.0999999046,,553381.095,8,400,,,
sequence,flow.Sequence,4_118,2023-09-11T17:25:54.104Z,,0,,,3376.497000047704,completion,,,,,false,,,,553374.5999999046,553374.2000000477,549981.049,549991.7999999523,549997.703,553381.095,8,400,,,
trial,html.Screen,4_119_0,2023-09-11T17:25:58.366Z,,0,3,,4255.105000047712,response,ISIC_2948896.JPG,5,ISIC_0072917.JPG,ISIC_2948896.JPG,false,1,keypress(m),500,557636.399999857,557636.2000000477,553364.385,553374.899999857,553381.095,557647.75,8,400,20,,ISIC_0072917.JPG
break,html.Screen,4_119_1,2023-09-11T17:25:58.367Z,,0,,,NaN,,,,,,false,,,,557637.5,557637.2999999523,,557636.7999999523,,557647.75,8,400,,,
break_continue,html.Screen,4_119_2,2023-09-11T17:25:58.368Z,,0,,,NaN,,,,,,false,,,,557638,557637.899999857,,557637.7999999523,,557647.75,8,400,,,
sequence,flow.Sequence,4_119,2023-09-11T17:25:58.368Z,,0,,,4256.804999856977,completion,,,,,false,,,,557638.2999999523,557637.899999857,553364.385,553374.7999999523,553381.095,557647.75,8,400,,,
trial,html.Screen,4_120_0,2023-09-11T17:26:01.890Z,,0,3,,3512.25,response,ISIC_0030921.JPG,5,ISIC_4470206.JPG,ISIC_0030921.JPG,false,1,keypress(m),500,561160.2999999523,561160,557631.09,557638.5,557647.75,561164.36,8,400,21,,ISIC_4470206.JPG
break,html.Screen,4_120_1,2023-09-11T17:26:01.891Z,,0,,,NaN,,,,,,false,,,,561161.399999857,561161.2000000477,,561160.5999999046,,561164.36,8,400,,,
break_continue,html.Screen,4_120_2,2023-09-11T17:26:01.892Z,,0,,,NaN,,,,,,false,,,,561162.0999999046,561161.899999857,,561161.7000000477,,561164.36,8,400,,,
sequence,flow.Sequence,4_120,2023-09-11T17:26:01.892Z,,0,,,3514.149999856949,completion,,,,,false,,,,561162.2999999523,561161.899999857,557631.09,557638.399999857,557647.75,561164.36,8,400,,,
trial,html.Screen,4_121_0,2023-09-11T17:26:05.006Z,,0,3,,3111.640000000014,response,ISIC_3096949.JPG,5,ISIC_0884550.JPG,ISIC_3096949.JPG,false,1,keypress(m),500,564276.2999999523,564276,561147.753,561162.5999999046,561164.36,564280.924,8,400,22,,ISIC_0884550.JPG
break,html.Screen,4_121_1,2023-09-11T17:26:05.007Z,,0,,,NaN,,,,,,false,,,,564277.2999999523,564277.0999999046,,564276.5,,564280.924,8,400,,,
break_continue,html.Screen,4_121_2,2023-09-11T17:26:05.007Z,,0,,,NaN,,,,,,false,,,,564277.899999857,564277.5999999046,,564277.5,,564280.924,8,400,,,
sequence,flow.Sequence,4_121,2023-09-11T17:26:05.008Z,,0,,,3113.2399999046465,completion,,,,,false,,,,564278.0999999046,564277.5999999046,561147.753,561162.5,561164.36,564280.924,8,400,,,
trial,html.Screen,4_122_0,2023-09-11T17:26:07.814Z,,0,3,,2803.375999952317,response,ISIC_5682259.JPG,5,ISIC_0056771.JPG,ISIC_5682259.JPG,false,1,keypress(m),500,567084.5,567084.2999999523,564264.453,564278.2999999523,564280.924,567097.791,8,400,23,,ISIC_0056771.JPG
break,html.Screen,4_122_1,2023-09-11T17:26:07.815Z,,0,,,NaN,,,,,,false,,,,567085.7000000477,567085.399999857,,567084.7999999523,,567097.791,8,400,,,
break_continue,html.Screen,4_122_2,2023-09-11T17:26:07.816Z,,0,,,NaN,,,,,,false,,,,567086.2000000477,567086,,567085.7999999523,,567097.791,8,400,,,
sequence,flow.Sequence,4_122,2023-09-11T17:26:07.816Z,,0,,,2805.076000000001,completion,,,,,false,,,,567086.5,567086,564264.453,564278.2000000477,564280.924,567097.791,8,400,,,
trial,html.Screen,4_123_0,2023-09-11T17:26:11.421Z,,0,3,,3593.6089998569805,response,ISIC_7906421.JPG,5,ISIC_1630301.JPG,ISIC_1630301.JPG,false,0,keypress(z),500,570691.5,570691.399999857,567081.118,567086.7000000477,567097.791,570697.612,8,400,24,,ISIC_7906421.JPG
break,html.Screen,4_123_1,2023-09-11T17:26:11.422Z,,0,,,NaN,,,,,,false,,,,570692,570691.7999999523,,570691.5999999046,,570697.612,8,400,,,
break_continue,html.Screen,4_123_2,2023-09-11T17:26:11.422Z,,0,,,NaN,,,,,,false,,,,570692.2000000477,570692.0999999046,,570692,,570697.612,8,400,,,
sequence,flow.Sequence,4_123,2023-09-11T17:26:11.422Z,,0,,,3594.3089999046642,completion,,,,,false,,,,570692.2999999523,570692.0999999046,567081.118,567086.5999999046,567097.791,570697.612,8,400,,,
trial,html.Screen,4_124_0,2023-09-11T17:26:14.816Z,,0,3,,3388.088000047719,response,ISIC_0025546.JPG,5,ISIC_0061751.JPG,ISIC_0061751.JPG,false,0,keypress(z),500,574086.0999999046,574085.7000000477,570681.052,570692.2999999523,570697.612,574097.756,8,400,25,,ISIC_0025546.JPG
break,html.Screen,4_124_1,2023-09-11T17:26:14.817Z,,0,,,NaN,,,,,,false,,,,574087,574086.7999999523,,574086.2999999523,,574097.756,8,400,,,
break_continue,html.Screen,4_124_2,2023-09-11T17:26:14.817Z,,0,,,NaN,,,,,,false,,,,574087.5999999046,574087.2999999523,,574087.2000000477,,574097.756,8,400,,,
sequence,flow.Sequence,4_124,2023-09-11T17:26:14.817Z,,0,,,3389.6879999523517,completion,,,,,false,,,,574087.7000000477,574087.2999999523,570681.052,570692.2999999523,570697.612,574097.756,8,400,,,
trial,html.Screen,4_125_0,2023-09-11T17:26:17.588Z,,0,3,,2760.1439998568967,response,ISIC_9100933.JPG,5,ISIC_0071647.JPG,ISIC_0071647.JPG,false,0,keypress(z),500,576858.2000000477,576857.899999857,574081.158,574087.899999857,574097.756,576864.335,8,400,26,,ISIC_9100933.JPG
break,html.Screen,4_125_1,2023-09-11T17:26:17.589Z,,0,,,NaN,,,,,,false,,,,576859.2000000477,576858.899999857,,576858.399999857,,576864.335,8,400,,,
break_continue,html.Screen,4_125_2,2023-09-11T17:26:17.589Z,,0,,,NaN,,,,,,false,,,,576859.7999999523,576859.5999999046,,576859.399999857,,576864.335,8,400,,,
