sender,sender_type,sender_id,timestamp,meta,,blockNo,condition,duration,ended_on,img_left,img_reveal,img_right,loser,practice,response,response_action,selection_duration,time_commit,time_end,time_render,time_run,time_show,time_switch,total_blocks,total_trials,trialNo,url,winner
informed_consent,html.Screen,0,2023-10-30T23:58:21.007Z,"{""labjs_version"":""20.2.4"",""labjs_build"":{""flavor"":""production"",""commit"":""f5b4a49f956347addd546a832a3327688c2c0fef""},""location"":""https://run.pavlovia.org/MurrayBennett/melanoma-2afc/?participant=67282&platform=sona"",""userAgent"":""Mozilla/5.0 (Macintosh; Intel Mac OS X 10_15_7) AppleWebKit/537.36 (KHTML, like Gecko) Chrome/118.0.0.0 Safari/537.36"",""platform"":""MacIntel"",""language"":""en-US"",""locale"":""en-US"",""timeZone"":""America/Chicago"",""timezoneOffset"":300,""screen_width"":1728,""screen_height"":1117,""scroll_width"":1728,""scroll_height"":947,""window_innerWidth"":1728,""window_innerHeight"":995,""devicePixelRatio"":2}",,,,120510.24800001192,response,,,,,,consent,click button,,122606,122604.80000001192,1961.224,2092.800000011921,2094.552,122618.738,,,,"{""participant"":""67282"",""platform"":""sona""}",
Welcome,html.Screen,1,2023-10-30T23:58:38.666Z,,,,symmetry,17644.262000000002,response,,,,,,continue,click button,,140265.5,140263,122602.072,122606.09999996424,122618.738,140268.602,,,,,
trial,html.Screen,2_0_0,2023-10-30T23:58:47.646Z,,0,0,,8976.698000011907,response,ISIC_0069348.JPG,,ISIC_6997061.JPG,ISIC_0069348.JPG,true,1,keypress(m),500,149246.09999996424,149245.30000001192,140260.269,140265.89999997616,140268.602,149251.889,1,6,1,,ISIC_6997061.JPG
sequence,flow.Sequence,2_0,2023-10-30T23:58:47.647Z,,0,,,8976.698000011907,completion,,,,,true,,,,149246.69999998808,149245.30000001192,140260.269,140265.89999997616,140268.602,149251.889,1,6,,,
trial,html.Screen,2_1_0,2023-10-30T23:58:54.036Z,,0,0,,6383.8109999880835,response,ISIC_0009529.JPG,,ISIC_0057368.JPG,ISIC_0057368.JPG,true,0,keypress(z),500,155636.19999998808,155635.69999998808,149243.556,149246.80000001192,149251.889,155643.3,1,6,2,,ISIC_0009529.JPG
sequence,flow.Sequence,2_1,2023-10-30T23:58:54.037Z,,0,,,6383.8109999880835,completion,,,,,true,,,,155636.69999998808,155635.69999998808,149243.556,149246.80000001192,149251.889,155643.3,1,6,,,
trial,html.Screen,2_2_0,2023-10-30T23:59:02.796Z,,0,0,,8751.59999997617,response,ISIC_9758671.JPG,,ISIC_0064954.JPG,ISIC_9758671.JPG,true,1,keypress(m),500,164395.59999996424,164394.89999997616,155634.967,155637,155643.3,164401.691,1,6,3,,ISIC_0064954.JPG
sequence,flow.Sequence,2_2,2023-10-30T23:59:02.796Z,,0,,,8751.59999997617,completion,,,,,true,,,,164396,164394.89999997616,155634.967,155636.89999997616,155643.3,164401.691,1,6,,,
trial,html.Screen,2_3_0,2023-10-30T23:59:11.057Z,,0,0,,8254.60900001193,response,ISIC_0000080.JPG,,ISIC_0005785.JPG,ISIC_0005785.JPG,true,0,keypress(z),500,172657,172656.30000001192,164393.358,164396.30000001192,164401.691,172659.694,1,6,4,,ISIC_0000080.JPG
sequence,flow.Sequence,2_3,2023-10-30T23:59:11.058Z,,0,,,8254.60900001193,completion,,,,,true,,,,172657.59999996424,172656.30000001192,164393.358,164396.19999998808,164401.691,172659.694,1,6,,,
trial,html.Screen,2_4_0,2023-10-30T23:59:14.007Z,,0,0,,2946.5059999880905,response,ISIC_5390060.JPG,,ISIC_7944028.JPG,ISIC_5390060.JPG,true,1,keypress(m),500,175606.89999997616,175606.19999998808,172651.361,172657.80000001192,172659.694,175609.908,1,6,5,,ISIC_7944028.JPG
sequence,flow.Sequence,2_4,2023-10-30T23:59:14.007Z,,0,,,2946.5059999880905,completion,,,,,true,,,,175607.39999997616,175606.19999998808,172651.361,172657.69999998808,172659.694,175609.908,1,6,,,
trial,html.Screen,2_5_0,2023-10-30T23:59:17.535Z,,0,0,,3525.092000000004,response,ISIC_0794216.JPG,,ISIC_0010188.JPG,ISIC_0010188.JPG,true,0,keypress(z),500,179135.39999997616,179135,175601.575,175607.59999996424,175609.908,179143.1,1,6,6,,ISIC_0794216.JPG
sequence,flow.Sequence,2_5,2023-10-30T23:59:17.536Z,,0,,,3525.092000000004,completion,,,,,true,,,,179135.89999997616,179135,175601.575,175607.59999996424,175609.908,179143.1,1,6,,,
loop,flow.Loop,2,2023-10-30T23:59:17.536Z,,,,,38866.39799999999,completion,,,,,true,,,,179136.39999997616,179135,140260.269,140265.80000001192,140268.602,179143.1,1,6,,,
exp_instructions,html.Screen,3,2023-10-30T23:59:28.089Z,,,,,10536.899999999994,response,,,,,,continue,keypress(Space),,189688.69999998808,189680,179134.767,179136.5,179143.1,189693.069,,,,,
trial,html.Screen,4_0_0,2023-10-30T23:59:33.877Z,,0,1,,5783.231000011932,response,ISIC_0061418.JPG,6,ISIC_3295750.JPG,ISIC_0061418.JPG,false,1,keypress(m),500,195476.80000001192,195476.30000001192,189684.736,189689.30000001192,189693.069,195484.504,8,400,1,,ISIC_3295750.JPG
break,html.Screen,4_0_1,2023-10-30T23:59:33.878Z,,0,,,NaN,,,,,,false,,,,195478.30000001192,195478,,195477.19999998808,,195484.504,8,400,,,
break_continue,html.Screen,4_0_2,2023-10-30T23:59:33.879Z,,0,,,NaN,,,,,,false,,,,195478.69999998808,195478.59999996424,,195478.5,,195484.504,8,400,,,
sequence,flow.Sequence,4_0,2023-10-30T23:59:33.879Z,,0,,,5785.530999964249,completion,,,,,false,,,,195478.80000001192,195478.59999996424,189684.736,189689.19999998808,189693.069,195484.504,8,400,,,
trial,html.Screen,4_1_0,2023-10-30T23:59:39.069Z,,0,1,,5183.996000000014,response,ISIC_7266462.JPG,7,ISIC_0061884.JPG,ISIC_7266462.JPG,false,1,keypress(m),500,200669,200668.5,195476.171,195480.19999998808,195484.504,200676.212,8,400,2,,ISIC_0061884.JPG
break,html.Screen,4_1_1,2023-10-30T23:59:39.070Z,,0,,,NaN,,,,,,false,,,,200670.30000001192,200670,,200669.30000001192,,200676.212,8,400,,,
break_continue,html.Screen,4_1_2,2023-10-30T23:59:39.071Z,,0,,,NaN,,,,,,false,,,,200670.59999996424,200670.5,,200670.39999997616,,200676.212,8,400,,,
sequence,flow.Sequence,4_1,2023-10-30T23:59:39.071Z,,0,,,5185.996000000014,completion,,,,,false,,,,200670.80000001192,200670.5,195476.171,195480.19999998808,195484.504,200676.212,8,400,,,
trial,html.Screen,4_2_0,2023-10-30T23:59:42.451Z,,0,1,,3374.7880000000005,response,ISIC_0059005.JPG,7,ISIC_4958006.JPG,ISIC_4958006.JPG,false,0,keypress(z),500,204051.5,204051,200667.879,200670.89999997616,200676.212,204059.41,8,400,3,,ISIC_0059005.JPG
break,html.Screen,4_2_1,2023-10-30T23:59:42.453Z,,0,,,NaN,,,,,,false,,,,204052.69999998808,204052.5,,204051.80000001192,,204059.41,8,400,,,
break_continue,html.Screen,4_2_2,2023-10-30T23:59:42.453Z,,0,,,NaN,,,,,,false,,,,204053.09999996424,204053,,204052.89999997616,,204059.41,8,400,,,
sequence,flow.Sequence,4_2,2023-10-30T23:59:42.453Z,,0,,,3376.7880000000005,completion,,,,,false,,,,204053.30000001192,204053,200667.879,200670.89999997616,200676.212,204059.41,8,400,,,
trial,html.Screen,4_3_0,2023-10-30T23:59:47.450Z,,0,1,,4989.890000011917,response,ISIC_5607702.JPG,6,ISIC_0033916.JPG,ISIC_5607702.JPG,false,1,keypress(m),500,209049.89999997616,209049.30000001192,204051.077,204053.39999997616,204059.41,209051.213,8,400,4,,ISIC_0033916.JPG
break,html.Screen,4_3_1,2023-10-30T23:59:47.451Z,,0,,,NaN,,,,,,false,,,,209051.19999998808,209050.89999997616,,209050.30000001192,,209051.213,8,400,,,
break_continue,html.Screen,4_3_2,2023-10-30T23:59:47.451Z,,0,,,NaN,,,,,,false,,,,209051.5,209051.39999997616,,209051.30000001192,,209051.213,8,400,,,
sequence,flow.Sequence,4_3,2023-10-30T23:59:47.452Z,,0,,,4991.989999976155,completion,,,,,false,,,,209051.69999998808,209051.39999997616,204051.077,204053.30000001192,204059.41,209051.213,8,400,,,
trial,html.Screen,4_4_0,2023-10-30T23:59:51.136Z,,0,1,,3684.587000011932,response,ISIC_6688417.JPG,6,ISIC_1394786.JPG,ISIC_1394786.JPG,false,0,keypress(z),500,212736.30000001192,212735.80000001192,209042.88,209052,209051.213,212742.732,8,400,5,,ISIC_6688417.JPG
break,html.Screen,4_4_1,2023-10-30T23:59:51.137Z,,0,,,NaN,,,,,,false,,,,212737.5,212737.30000001192,,212736.59999996424,,212742.732,8,400,,,
break_continue,html.Screen,4_4_2,2023-10-30T23:59:51.138Z,,0,,,NaN,,,,,,false,,,,212737.89999997616,212737.69999998808,,212737.69999998808,,212742.732,8,400,,,
sequence,flow.Sequence,4_4,2023-10-30T23:59:51.138Z,,0,,,3686.4869999880902,completion,,,,,false,,,,212738,212737.69999998808,209042.88,209051.80000001192,209051.213,212742.732,8,400,,,
trial,html.Screen,4_5_0,2023-10-30T23:59:54.247Z,,0,1,,3103.367999964248,response,ISIC_4359258.JPG,8,ISIC_6558697.JPG,ISIC_4359258.JPG,false,1,keypress(m),500,215846.69999998808,215846.09999996424,212734.399,212738.19999998808,212742.732,215850.941,8,400,6,,ISIC_6558697.JPG
break,html.Screen,4_5_1,2023-10-30T23:59:54.248Z,,0,,,NaN,,,,,,false,,,,215847.89999997616,215847.59999996424,,215847,,215850.941,8,400,,,
break_continue,html.Screen,4_5_2,2023-10-30T23:59:54.248Z,,0,,,NaN,,,,,,false,,,,215848.19999998808,215848.19999998808,,215848,,215850.941,8,400,,,
sequence,flow.Sequence,4_5,2023-10-30T23:59:54.248Z,,0,,,3105.46799998809,completion,,,,,false,,,,215848.30000001192,215848.19999998808,212734.399,212738.09999996424,212742.732,215850.941,8,400,,,
trial,html.Screen,4_6_0,2023-10-31T00:00:00.701Z,,0,1,,6450.258999988087,response,ISIC_2732573.JPG,6,ISIC_0071651.JPG,ISIC_0071651.JPG,false,0,keypress(z),500,222301.59999996424,222301.19999998808,215842.608,215848.39999997616,215850.941,222309.325,8,400,7,,ISIC_2732573.JPG
break,html.Screen,4_6_1,2023-10-31T00:00:00.703Z,,0,,,NaN,,,,,,false,,,,222302.89999997616,222302.59999996424,,222302,,222309.325,8,400,,,
break_continue,html.Screen,4_6_2,2023-10-31T00:00:00.703Z,,0,,,NaN,,,,,,false,,,,222303.19999998808,222303.09999996424,,222303,,222309.325,8,400,,,
sequence,flow.Sequence,4_6,2023-10-31T00:00:00.703Z,,0,,,6452.158999964246,completion,,,,,false,,,,222303.5,222303.09999996424,215842.608,215848.30000001192,215850.941,222309.325,8,400,,,
trial,html.Screen,4_7_0,2023-10-31T00:00:04.037Z,,0,1,,3327.6749999999884,response,ISIC_6392478.JPG,8,ISIC_5087951.JPG,ISIC_6392478.JPG,false,1,keypress(m),500,225637.5,225637,222300.992,222303.5,222309.325,225642.525,8,400,8,,ISIC_5087951.JPG
break,html.Screen,4_7_1,2023-10-31T00:00:04.039Z,,0,,,NaN,,,,,,false,,,,225638.89999997616,225638.59999996424,,225637.80000001192,,225642.525,8,400,,,
break_continue,html.Screen,4_7_2,2023-10-31T00:00:04.039Z,,0,,,NaN,,,,,,false,,,,225639.19999998808,225639.09999996424,,225639,,225642.525,8,400,,,
sequence,flow.Sequence,4_7,2023-10-31T00:00:04.039Z,,0,,,3329.7749999642256,completion,,,,,false,,,,225639.39999997616,225639.09999996424,222300.992,222303.5,222309.325,225642.525,8,400,,,
trial,html.Screen,4_8_0,2023-10-31T00:00:08.653Z,,0,1,,4609.874999976164,response,ISIC_8814672.JPG,6,ISIC_0026915.JPG,ISIC_8814672.JPG,false,1,keypress(m),500,230252.89999997616,230252.39999997616,225634.192,225639.5,225642.525,230259.336,8,400,9,,ISIC_0026915.JPG
break,html.Screen,4_8_1,2023-10-31T00:00:08.654Z,,0,,,NaN,,,,,,false,,,,230254.19999998808,230253.89999997616,,230253.19999998808,,230259.336,8,400,,,
break_continue,html.Screen,4_8_2,2023-10-31T00:00:08.654Z,,0,,,NaN,,,,,,false,,,,230254.59999996424,230254.39999997616,,230254.30000001192,,230259.336,8,400,,,
sequence,flow.Sequence,4_8,2023-10-31T00:00:08.655Z,,0,,,4611.874999976164,completion,,,,,false,,,,230254.69999998808,230254.39999997616,225634.192,225639.5,225642.525,230259.336,8,400,,,
trial,html.Screen,4_9_0,2023-10-31T00:00:12.147Z,,0,1,,3487.263999964227,response,ISIC_5147292.JPG,7,ISIC_1432058.JPG,ISIC_1432058.JPG,false,0,keypress(z),500,233747.09999996424,233746.59999996424,230251.003,230254.80000001192,230259.336,233750.863,8,400,10,,ISIC_5147292.JPG
break,html.Screen,4_9_1,2023-10-31T00:00:12.148Z,,0,,,NaN,,,,,,false,,,,233748.30000001192,233748.09999996424,,233747.39999997616,,233750.863,8,400,,,
break_continue,html.Screen,4_9_2,2023-10-31T00:00:12.149Z,,0,,,NaN,,,,,,false,,,,233748.89999997616,233748.69999998808,,233748.39999997616,,233750.863,8,400,,,
sequence,flow.Sequence,4_9,2023-10-31T00:00:12.149Z,,0,,,3489.363999988069,completion,,,,,false,,,,233748.89999997616,233748.69999998808,230251.003,230254.80000001192,230259.336,233750.863,8,400,,,
trial,html.Screen,4_10_0,2023-10-31T00:00:17.256Z,,0,1,,5105.036999976146,response,ISIC_0033729.JPG,7,ISIC_3676643.JPG,ISIC_0033729.JPG,false,1,keypress(m),500,238856.39999997616,238855.89999997616,233742.53,233748.89999997616,233750.863,238859.397,8,400,11,,ISIC_3676643.JPG
break,html.Screen,4_10_1,2023-10-31T00:00:17.257Z,,0,,,NaN,,,,,,false,,,,238857.59999996424,238857.39999997616,,238856.80000001192,,238859.397,8,400,,,
break_continue,html.Screen,4_10_2,2023-10-31T00:00:17.258Z,,0,,,NaN,,,,,,false,,,,238857.89999997616,238857.80000001192,,238857.69999998808,,238859.397,8,400,,,
sequence,flow.Sequence,4_10,2023-10-31T00:00:17.258Z,,0,,,5106.937000011909,completion,,,,,false,,,,238858.09999996424,238857.80000001192,233742.53,233748.89999997616,233750.863,238859.397,8,400,,,
trial,html.Screen,4_11_0,2023-10-31T00:00:24.220Z,,0,1,,6960.603000000003,response,ISIC_5581936.JPG,6,ISIC_0000848.JPG,ISIC_0000848.JPG,false,0,keypress(z),500,245820.59999996424,245820,238851.064,238858.19999998808,238859.397,245825.785,8,400,12,,ISIC_5581936.JPG
break,html.Screen,4_11_1,2023-10-31T00:00:24.222Z,,0,,,NaN,,,,,,false,,,,245821.69999998808,245821.59999996424,,245820.89999997616,,245825.785,8,400,,,
break_continue,html.Screen,4_11_2,2023-10-31T00:00:24.222Z,,0,,,NaN,,,,,,false,,,,245821.89999997616,245821.89999997616,,245821.80000001192,,245825.785,8,400,,,
sequence,flow.Sequence,4_11,2023-10-31T00:00:24.222Z,,0,,,6962.502999976161,completion,,,,,false,,,,245822.09999996424,245821.89999997616,238851.064,238858.19999998808,238859.397,245825.785,8,400,,,
trial,html.Screen,4_12_0,2023-10-31T00:00:29.553Z,,0,1,,5327.2149999999965,response,ISIC_5182148.JPG,8,ISIC_4240225.JPG,ISIC_5182148.JPG,false,1,keypress(m),500,251153.5,251153,245817.452,245822.19999998808,245825.785,251159.197,8,400,13,,ISIC_4240225.JPG
break,html.Screen,4_12_1,2023-10-31T00:00:29.554Z,,0,,,NaN,,,,,,false,,,,251154.59999996424,251154.5,,251153.89999997616,,251159.197,8,400,,,
break_continue,html.Screen,4_12_2,2023-10-31T00:00:29.555Z,,0,,,NaN,,,,,,false,,,,251154.89999997616,251154.80000001192,,251154.69999998808,,251159.197,8,400,,,
sequence,flow.Sequence,4_12,2023-10-31T00:00:29.555Z,,0,,,5329.015000011917,completion,,,,,false,,,,251154.89999997616,251154.80000001192,245817.452,245822.19999998808,245825.785,251159.197,8,400,,,
trial,html.Screen,4_13_0,2023-10-31T00:00:35.941Z,,0,1,,6381.0029999880935,response,ISIC_0054233.JPG,8,ISIC_4049598.JPG,ISIC_4049598.JPG,false,0,keypress(z),500,257540.80000001192,257540.19999998808,251150.864,251155,251159.197,257542.275,8,400,14,,ISIC_0054233.JPG
break,html.Screen,4_13_1,2023-10-31T00:00:35.942Z,,0,,,NaN,,,,,,false,,,,257542,257541.80000001192,,257541.19999998808,,257542.275,8,400,,,
break_continue,html.Screen,4_13_2,2023-10-31T00:00:35.942Z,,0,,,NaN,,,,,,false,,,,257542.5,257542.30000001192,,257542.09999996424,,257542.275,8,400,,,
sequence,flow.Sequence,4_13,2023-10-31T00:00:35.942Z,,0,,,6383.103000011935,completion,,,,,false,,,,257542.69999998808,257542.30000001192,251150.864,251155,251159.197,257542.275,8,400,,,
trial,html.Screen,4_14_0,2023-10-31T00:00:42.122Z,,0,1,,6179.624999976164,response,ISIC_0027936.JPG,8,ISIC_1897507.JPG,ISIC_1897507.JPG,false,0,keypress(z),500,263722.5,263721.89999997616,257533.942,257542.80000001192,257542.275,263725.7,8,400,15,,ISIC_0027936.JPG
break,html.Screen,4_14_1,2023-10-31T00:00:42.123Z,,0,,,NaN,,,,,,false,,,,263723.6999999881,263723.5,,263722.8000000119,,263725.7,8,400,,,
break_continue,html.Screen,4_14_2,2023-10-31T00:00:42.124Z,,0,,,NaN,,,,,,false,,,,263724,263724,,263723.8000000119,,263725.7,8,400,,,
sequence,flow.Sequence,4_14,2023-10-31T00:00:42.124Z,,0,,,6181.725000000006,completion,,,,,false,,,,263724.1999999881,263724,257533.942,257542.69999998808,257542.275,263725.7,8,400,,,
trial,html.Screen,4_15_0,2023-10-31T00:00:46.834Z,,0,1,,4708.299999999988,response,ISIC_9473492.JPG,8,ISIC_0032635.JPG,ISIC_0032635.JPG,false,0,keypress(z),500,268434.39999997616,268434,263717.367,263724.39999997616,263725.7,268442.178,8,400,16,,ISIC_9473492.JPG
break,html.Screen,4_15_1,2023-10-31T00:00:46.835Z,,0,,,NaN,,,,,,false,,,,268434.8000000119,268434.6999999881,,268434.5,,268442.178,8,400,,,
break_continue,html.Screen,4_15_2,2023-10-31T00:00:46.835Z,,0,,,NaN,,,,,,false,,,,268435,268435,,268434.89999997616,,268442.178,8,400,,,
sequence,flow.Sequence,4_15,2023-10-31T00:00:46.835Z,,0,,,4709.299999999988,completion,,,,,false,,,,268435.09999996424,268435,263717.367,263724.3000000119,263725.7,268442.178,8,400,,,
trial,html.Screen,4_16_0,2023-10-31T00:00:50.216Z,,0,1,,3373.5219999880646,response,ISIC_4526581.JPG,8,ISIC_0015115.JPG,ISIC_0015115.JPG,false,0,keypress(z),500,271816.1999999881,271815.6999999881,268433.845,268435.09999996424,268442.178,271825.692,8,400,17,,ISIC_4526581.JPG
break,html.Screen,4_16_1,2023-10-31T00:00:50.217Z,,0,,,NaN,,,,,,false,,,,271817.5,271817.3000000119,,271816.59999996424,,271825.692,8,400,,,
break_continue,html.Screen,4_16_2,2023-10-31T00:00:50.218Z,,0,,,NaN,,,,,,false,,,,271818,271817.8000000119,,271817.59999996424,,271825.692,8,400,,,
sequence,flow.Sequence,4_16,2023-10-31T00:00:50.218Z,,0,,,3375.6220000119065,completion,,,,,false,,,,271818.1999999881,271817.8000000119,268433.845,268435.09999996424,268442.178,271825.692,8,400,,,
trial,html.Screen,4_17_0,2023-10-31T00:00:54.046Z,,0,1,,3820.507999988098,response,ISIC_0011164.JPG,8,ISIC_5736979.JPG,ISIC_0011164.JPG,false,1,keypress(m),500,275646.39999997616,275646.1999999881,271817.359,271818.3000000119,271825.692,275650.539,8,400,18,,ISIC_5736979.JPG
break,html.Screen,4_17_1,2023-10-31T00:00:54.047Z,,0,,,NaN,,,,,,false,,,,275646.89999997616,275646.89999997616,,275646.5,,275650.539,8,400,,,
break_continue,html.Screen,4_17_2,2023-10-31T00:00:54.047Z,,0,,,NaN,,,,,,false,,,,275647.1999999881,275647.09999996424,,275647,,275650.539,8,400,,,
sequence,flow.Sequence,4_17,2023-10-31T00:00:54.047Z,,0,,,3821.4079999642563,completion,,,,,false,,,,275647.1999999881,275647.09999996424,271817.359,271818.1999999881,271825.692,275650.539,8,400,,,
trial,html.Screen,4_18_0,2023-10-31T00:00:57.236Z,,0,1,,3185.761000011931,response,ISIC_0026812.JPG,9,ISIC_4692567.JPG,ISIC_0026812.JPG,false,1,keypress(m),500,278836.59999996424,278836.3000000119,275642.206,275647.3000000119,275650.539,278842.078,8,400,19,,ISIC_4692567.JPG
break,html.Screen,4_18_1,2023-10-31T00:00:57.237Z,,0,,,NaN,,,,,,false,,,,278837.5,278837.3000000119,,278836.89999997616,,278842.078,8,400,,,
break_continue,html.Screen,4_18_2,2023-10-31T00:00:57.237Z,,0,,,NaN,,,,,,false,,,,278837.8000000119,278837.59999996424,,278837.59999996424,,278842.078,8,400,,,
sequence,flow.Sequence,4_18,2023-10-31T00:00:57.238Z,,0,,,3187.0609999642475,completion,,,,,false,,,,278837.89999997616,278837.59999996424,275642.206,275647.3000000119,275650.539,278842.078,8,400,,,
trial,html.Screen,4_19_0,2023-10-31T00:01:00.216Z,,0,1,,2974.2220000119414,response,ISIC_0011177.JPG,7,ISIC_8588957.JPG,ISIC_0011177.JPG,false,1,keypress(m),500,281816.8000000119,281816.3000000119,278833.745,278838,278842.078,281825.605,8,400,20,,ISIC_8588957.JPG
break,html.Screen,4_19_1,2023-10-31T00:01:00.218Z,,0,,,NaN,,,,,,false,,,,281818.1999999881,281817.8000000119,,281817.1999999881,,281825.605,8,400,,,
break_continue,html.Screen,4_19_2,2023-10-31T00:01:00.218Z,,0,,,NaN,,,,,,false,,,,281818.59999996424,281818.5,,281818.3000000119,,281825.605,8,400,,,
sequence,flow.Sequence,4_19,2023-10-31T00:01:00.218Z,,0,,,2976.4220000000205,completion,,,,,false,,,,281818.8000000119,281818.5,278833.745,278838,278842.078,281825.605,8,400,,,
trial,html.Screen,4_20_0,2023-10-31T00:01:03.507Z,,0,1,,3281.2949999761768,response,ISIC_7820005.JPG,6,ISIC_5884700.JPG,ISIC_7820005.JPG,false,1,keypress(m),500,285107.3000000119,285106.89999997616,281817.272,281818.89999997616,281825.605,285108.807,8,400,21,,ISIC_5884700.JPG
break,html.Screen,4_20_1,2023-10-31T00:01:03.508Z,,0,,,NaN,,,,,,false,,,,285108.3000000119,285108.1999999881,,285107.6999999881,,285108.807,8,400,,,
break_continue,html.Screen,4_20_2,2023-10-31T00:01:03.508Z,,0,,,NaN,,,,,,false,,,,285108.5,285108.39999997616,,285108.3000000119,,285108.807,8,400,,,
sequence,flow.Sequence,4_20,2023-10-31T00:01:03.508Z,,0,,,3282.7949999761768,completion,,,,,false,,,,285108.59999996424,285108.39999997616,281817.272,281818.89999997616,281825.605,285108.807,8,400,,,
trial,html.Screen,4_21_0,2023-10-31T00:01:06.892Z,,0,1,,3383.2929999642656,response,ISIC_0003281.JPG,7,ISIC_3301933.JPG,ISIC_0003281.JPG,false,1,keypress(m),500,288492.59999996424,288492.09999996424,285100.474,285108.6999999881,285108.807,288500.338,8,400,22,,ISIC_3301933.JPG
break,html.Screen,4_21_1,2023-10-31T00:01:06.893Z,,0,,,NaN,,,,,,false,,,,288493.89999997616,288493.59999996424,,288493,,288500.338,8,400,,,
break_continue,html.Screen,4_21_2,2023-10-31T00:01:06.894Z,,0,,,NaN,,,,,,false,,,,288494.1999999881,288494.09999996424,,288493.89999997616,,288500.338,8,400,,,
sequence,flow.Sequence,4_21,2023-10-31T00:01:06.894Z,,0,,,3385.2929999642656,completion,,,,,false,,,,288494.3000000119,288494.09999996424,285100.474,285108.6999999881,285108.807,288500.338,8,400,,,
trial,html.Screen,4_22_0,2023-10-31T00:01:09.939Z,,0,1,,3038.662000000011,response,ISIC_0031589.JPG,6,ISIC_0305800.JPG,ISIC_0031589.JPG,false,1,keypress(m),500,291539.5,291539,288492.005,288494.59999996424,288500.338,291542.216,8,400,23,,ISIC_0305800.JPG
break,html.Screen,4_22_1,2023-10-31T00:01:09.940Z,,0,,,NaN,,,,,,false,,,,291540.6999999881,291540.5,,291539.8000000119,,291542.216,8,400,,,
break_continue,html.Screen,4_22_2,2023-10-31T00:01:09.941Z,,0,,,NaN,,,,,,false,,,,291541.09999996424,291540.89999997616,,291540.89999997616,,291542.216,8,400,,,
sequence,flow.Sequence,4_22,2023-10-31T00:01:09.941Z,,0,,,3040.5619999761693,completion,,,,,false,,,,291541.1999999881,291540.89999997616,288492.005,288494.5,288500.338,291542.216,8,400,,,
trial,html.Screen,4_23_0,2023-10-31T00:01:13.384Z,,0,1,,3441.483999988064,response,ISIC_6571597.JPG,9,ISIC_0024275.JPG,ISIC_6571597.JPG,false,1,keypress(m),500,294984,294983.6999999881,291533.883,291541.39999997616,291542.216,294992.078,8,400,24,,ISIC_0024275.JPG
break,html.Screen,4_23_1,2023-10-31T00:01:13.384Z,,0,,,NaN,,,,,,false,,,,294984.5,294984.39999997616,,294984.09999996424,,294992.078,8,400,,,
break_continue,html.Screen,4_23_2,2023-10-31T00:01:13.384Z,,0,,,NaN,,,,,,false,,,,294984.59999996424,294984.59999996424,,294984.5,,294992.078,8,400,,,
sequence,flow.Sequence,4_23,2023-10-31T00:01:13.384Z,,0,,,3442.3839999642223,completion,,,,,false,,,,294984.59999996424,294984.59999996424,291533.883,291541.3000000119,291542.216,294992.078,8,400,,,
trial,html.Screen,4_24_0,2023-10-31T00:01:17.085Z,,0,1,,3693.0219999642577,response,ISIC_8427534.JPG,7,ISIC_1925632.JPG,ISIC_1925632.JPG,false,0,keypress(z),500,298685.6999999881,298685.09999996424,294983.745,294984.6999999881,294992.078,298691.93,8,400,25,,ISIC_8427534.JPG
break,html.Screen,4_24_1,2023-10-31T00:01:17.087Z,,0,,,NaN,,,,,,false,,,,298686.89999997616,298686.59999996424,,298686,,298691.93,8,400,,,
break_continue,html.Screen,4_24_2,2023-10-31T00:01:17.087Z,,0,,,NaN,,,,,,false,,,,298687.3000000119,298687.09999996424,,298687,,298691.93,8,400,,,
sequence,flow.Sequence,4_24,2023-10-31T00:01:17.087Z,,0,,,3695.0219999642577,completion,,,,,false,,,,298687.3000000119,298687.09999996424,294983.745,294984.6999999881,294992.078,298691.93,8,400,,,
trial,html.Screen,4_25_0,2023-10-31T00:01:20.964Z,,0,1,,3872.370000011928,response,ISIC_0033562.JPG,8,ISIC_0027981.JPG,ISIC_0027981.JPG,false,0,keypress(z),500,302564.89999997616,302564.3000000119,298683.597,298687.39999997616,298691.93,302567.08,8,400,26,,ISIC_0033562.JPG
break,html.Screen,4_25_1,2023-10-31T00:01:20.966Z,,0,,,NaN,,,,,,false,,,,302566.1999999881,302566,,302565.1999999881,,302567.08,8,400,,,
break_continue,html.Screen,4_25_2,2023-10-31T00:01:20.966Z,,0,,,NaN,,,,,,false,,,,302566.59999996424,302566.39999997616,,302566.3000000119,,302567.08,8,400,,,
sequence,flow.Sequence,4_25,2023-10-31T00:01:20.966Z,,0,,,3874.469999976165,completion,,,,,false,,,,302566.6999999881,302566.39999997616,298683.597,298687.39999997616,298691.93,302567.08,8,400,,,
trial,html.Screen,4_26_0,2023-10-31T00:01:24.507Z,,0,1,,3540.119999988063,response,ISIC_0011693.JPG,9,ISIC_0059551.JPG,ISIC_0059551.JPG,false,0,keypress(z),500,306107.3000000119,306107.1999999881,302558.747,302566.8000000119,302567.08,306108.605,8,400,27,,ISIC_0011693.JPG
break,html.Screen,4_26_1,2023-10-31T00:01:24.507Z,,0,,,NaN,,,,,,false,,,,306107.59999996424,306107.59999996424,,306107.39999997616,,306108.605,8,400,,,
break_continue,html.Screen,4_26_2,2023-10-31T00:01:24.507Z,,0,,,NaN,,,,,,false,,,,306107.6999999881,306107.6999999881,,306107.59999996424,,306108.605,8,400,,,
sequence,flow.Sequence,4_26,2023-10-31T00:01:24.507Z,,0,,,3540.619999988063,completion,,,,,false,,,,306107.8000000119,306107.6999999881,302558.747,302566.8000000119,302567.08,306108.605,8,400,,,
trial,html.Screen,4_27_0,2023-10-31T00:01:28.911Z,,0,1,,4402.395000000019,response,ISIC_2222091.JPG,5,ISIC_7942881.JPG,ISIC_7942881.JPG,false,0,keypress(z),500,310511.59999996424,310511,306100.272,306107.8000000119,306108.605,310516.762,8,400,28,,ISIC_2222091.JPG
break,html.Screen,4_27_1,2023-10-31T00:01:28.913Z,,0,,,NaN,,,,,,false,,,,310513,310512.6999999881,,310512.09999996424,,310516.762,8,400,,,
break_continue,html.Screen,4_27_2,2023-10-31T00:01:28.913Z,,0,,,NaN,,,,,,false,,,,310513.39999997616,310513.1999999881,,310513.09999996424,,310516.762,8,400,,,
sequence,flow.Sequence,4_27,2023-10-31T00:01:28.913Z,,0,,,4404.594999988098,completion,,,,,false,,,,310513.5,310513.1999999881,306100.272,306107.8000000119,306108.605,310516.762,8,400,,,
trial,html.Screen,4_28_0,2023-10-31T00:01:33.382Z,,0,1,,4465.038000011933,response,ISIC_9775430.JPG,8,ISIC_4332846.JPG,ISIC_4332846.JPG,false,0,keypress(z),500,314982.39999997616,314981.8000000119,310508.429,310513.6999999881,310516.762,314991.893,8,400,29,,ISIC_9775430.JPG
break,html.Screen,4_28_1,2023-10-31T00:01:33.383Z,,0,,,NaN,,,,,,false,,,,314983.59999996424,314983.5,,314982.89999997616,,314991.893,8,400,,,
break_continue,html.Screen,4_28_2,2023-10-31T00:01:33.383Z,,0,,,NaN,,,,,,false,,,,314983.89999997616,314983.6999999881,,314983.6999999881,,314991.893,8,400,,,
sequence,flow.Sequence,4_28,2023-10-31T00:01:33.384Z,,0,,,4466.937999988091,completion,,,,,false,,,,314984,314983.6999999881,310508.429,310513.6999999881,310516.762,314991.893,8,400,,,
trial,html.Screen,4_29_0,2023-10-31T00:01:36.940Z,,0,1,,3548.2069999642554,response,ISIC_5409902.JPG,4,ISIC_4076162.JPG,ISIC_5409902.JPG,false,1,keypress(m),500,318540.59999996424,318540.09999996424,314983.56,314984,314991.893,318550.084,8,400,30,,ISIC_4076162.JPG
break,html.Screen,4_29_1,2023-10-31T00:01:36.942Z,,0,,,NaN,,,,,,false,,,,318542,318541.8000000119,,318541,,318550.084,8,400,,,
break_continue,html.Screen,4_29_2,2023-10-31T00:01:36.942Z,,0,,,NaN,,,,,,false,,,,318542.3000000119,318542.09999996424,,318542,,318550.084,8,400,,,
sequence,flow.Sequence,4_29,2023-10-31T00:01:36.942Z,,0,,,3550.2069999642554,completion,,,,,false,,,,318542.5,318542.09999996424,314983.56,314984,314991.893,318550.084,8,400,,,
trial,html.Screen,4_30_0,2023-10-31T00:01:40.163Z,,0,1,,3212.4160000000265,response,ISIC_5706192.JPG,7,ISIC_1977265.JPG,ISIC_5706192.JPG,false,1,keypress(m),500,321763.09999996424,321762.5,318541.751,318542.59999996424,318550.084,321766.984,8,400,31,,ISIC_1977265.JPG
break,html.Screen,4_30_1,2023-10-31T00:01:40.164Z,,0,,,NaN,,,,,,false,,,,321764.39999997616,321764.3000000119,,321763.39999997616,,321766.984,8,400,,,
break_continue,html.Screen,4_30_2,2023-10-31T00:01:40.164Z,,0,,,NaN,,,,,,false,,,,321764.8000000119,321764.6999999881,,321764.59999996424,,321766.984,8,400,,,
sequence,flow.Sequence,4_30,2023-10-31T00:01:40.164Z,,0,,,3214.6159999881056,completion,,,,,false,,,,321764.89999997616,321764.6999999881,318541.751,318542.59999996424,318550.084,321766.984,8,400,,,
trial,html.Screen,4_31_0,2023-10-31T00:01:44.008Z,,0,1,,3841.4159999761614,response,ISIC_8821700.JPG,7,ISIC_2743014.JPG,ISIC_2743014.JPG,false,0,keypress(z),500,325608.89999997616,325608.39999997616,321758.651,321765,321766.984,325616.83,8,400,32,,ISIC_8821700.JPG
break,html.Screen,4_31_1,2023-10-31T00:01:44.010Z,,0,,,NaN,,,,,,false,,,,325610,325609.8000000119,,325609.1999999881,,325616.83,8,400,,,
break_continue,html.Screen,4_31_2,2023-10-31T00:01:44.010Z,,0,,,NaN,,,,,,false,,,,325610.39999997616,325610.1999999881,,325610.09999996424,,325616.83,8,400,,,
sequence,flow.Sequence,4_31,2023-10-31T00:01:44.010Z,,0,,,3843.2159999880823,completion,,,,,false,,,,325610.5,325610.1999999881,321758.651,321765,321766.984,325616.83,8,400,,,
trial,html.Screen,4_32_0,2023-10-31T00:01:48.063Z,,0,1,,4046.069999976142,response,ISIC_8967786.JPG,8,ISIC_0010649.JPG,ISIC_8967786.JPG,false,1,keypress(m),500,329663.39999997616,329662.89999997616,325608.497,325610.6999999881,325616.83,329666.668,8,400,33,,ISIC_0010649.JPG
break,html.Screen,4_32_1,2023-10-31T00:01:48.064Z,,0,,,NaN,,,,,,false,,,,329664.6999999881,329664.59999996424,,329663.89999997616,,329666.668,8,400,,,
break_continue,html.Screen,4_32_2,2023-10-31T00:01:48.065Z,,0,,,NaN,,,,,,false,,,,329665.09999996424,329665.09999996424,,329664.89999997616,,329666.668,8,400,,,
sequence,flow.Sequence,4_32,2023-10-31T00:01:48.065Z,,0,,,4048.269999964221,completion,,,,,false,,,,329665.3000000119,329665.09999996424,325608.497,325610.59999996424,325616.83,329666.668,8,400,,,
trial,html.Screen,4_33_0,2023-10-31T00:01:52.503Z,,0,1,,4436.431999964232,response,ISIC_9874512.JPG,7,ISIC_0032504.JPG,ISIC_0032504.JPG,false,0,keypress(z),500,334103.1999999881,334103.09999996424,329658.335,329665.5,329666.668,334108.46,8,400,34,,ISIC_9874512.JPG
break,html.Screen,4_33_1,2023-10-31T00:01:52.503Z,,0,,,NaN,,,,,,false,,,,334103.8000000119,334103.6999999881,,334103.39999997616,,334108.46,8,400,,,
break_continue,html.Screen,4_33_2,2023-10-31T00:01:52.503Z,,0,,,NaN,,,,,,false,,,,334103.8000000119,334103.8000000119,,334103.8000000119,,334108.46,8,400,,,
sequence,flow.Sequence,4_33,2023-10-31T00:01:52.503Z,,0,,,4437.132000011916,completion,,,,,false,,,,334103.89999997616,334103.8000000119,329658.335,329665.39999997616,329666.668,334108.46,8,400,,,
trial,html.Screen,4_34_0,2023-10-31T00:01:55.739Z,,0,1,,3230.739999988058,response,ISIC_9543945.JPG,6,ISIC_0033879.JPG,ISIC_9543945.JPG,false,1,keypress(m),500,337339.3000000119,337339.1999999881,334100.127,334103.89999997616,334108.46,337341.664,8,400,35,,ISIC_0033879.JPG
break,html.Screen,4_34_1,2023-10-31T00:01:55.739Z,,0,,,NaN,,,,,,false,,,,337339.5,337339.5,,337339.3000000119,,337341.664,8,400,,,
break_continue,html.Screen,4_34_2,2023-10-31T00:01:55.739Z,,0,,,NaN,,,,,,false,,,,337339.59999996424,337339.59999996424,,337339.59999996424,,337341.664,8,400,,,
sequence,flow.Sequence,4_34,2023-10-31T00:01:55.739Z,,0,,,3231.1399999642163,completion,,,,,false,,,,337339.59999996424,337339.59999996424,334100.127,334103.89999997616,334108.46,337341.664,8,400,,,
trial,html.Screen,4_35_0,2023-10-31T00:01:59.202Z,,0,1,,3459.9359999642475,response,ISIC_1473511.JPG,8,ISIC_0060700.JPG,ISIC_0060700.JPG,false,0,keypress(z),500,340802.3000000119,340801.59999996424,337333.331,337339.6999999881,337341.664,340808.192,8,400,36,,ISIC_1473511.JPG
break,html.Screen,4_35_1,2023-10-31T00:01:59.203Z,,0,,,NaN,,,,,,false,,,,340803.5,340803.3000000119,,340802.59999996424,,340808.192,8,400,,,
break_continue,html.Screen,4_35_2,2023-10-31T00:01:59.203Z,,0,,,NaN,,,,,,false,,,,340803.89999997616,340803.8000000119,,340803.59999996424,,340808.192,8,400,,,
sequence,flow.Sequence,4_35,2023-10-31T00:01:59.204Z,,0,,,3462.136000011931,completion,,,,,false,,,,340804,340803.8000000119,337333.331,337339.6999999881,337341.664,340808.192,8,400,,,
trial,html.Screen,4_36_0,2023-10-31T00:02:02.201Z,,0,1,,2993.308000000019,response,ISIC_6410859.JPG,7,ISIC_0054284.JPG,ISIC_6410859.JPG,false,1,keypress(m),500,343801.6999999881,343801.5,340799.859,340804.09999996424,340808.192,343808.41,8,400,37,,ISIC_0054284.JPG
break,html.Screen,4_36_1,2023-10-31T00:02:02.202Z,,0,,,NaN,,,,,,false,,,,343802.1999999881,343802.09999996424,,343801.89999997616,,343808.41,8,400,,,
break_continue,html.Screen,4_36_2,2023-10-31T00:02:02.202Z,,0,,,NaN,,,,,,false,,,,343802.39999997616,343802.3000000119,,343802.1999999881,,343808.41,8,400,,,
sequence,flow.Sequence,4_36,2023-10-31T00:02:02.202Z,,0,,,2994.10800001194,completion,,,,,false,,,,343802.39999997616,343802.3000000119,340799.859,340804.09999996424,340808.192,343808.41,8,400,,,
trial,html.Screen,4_37_0,2023-10-31T00:02:06.590Z,,0,1,,4381.289999988105,response,ISIC_7196249.JPG,6,ISIC_2953279.JPG,ISIC_7196249.JPG,false,1,keypress(m),500,348190.39999997616,348189.6999999881,343800.077,343802.5,343808.41,348199.901,8,400,38,,ISIC_2953279.JPG
break,html.Screen,4_37_1,2023-10-31T00:02:06.591Z,,0,,,NaN,,,,,,false,,,,348191.59999996424,348191.39999997616,,348190.6999999881,,348199.901,8,400,,,
break_continue,html.Screen,4_37_2,2023-10-31T00:02:06.591Z,,0,,,NaN,,,,,,false,,,,348191.89999997616,348191.6999999881,,348191.59999996424,,348199.901,8,400,,,
sequence,flow.Sequence,4_37,2023-10-31T00:02:06.591Z,,0,,,4383.289999988105,completion,,,,,false,,,,348192,348191.6999999881,343800.077,343802.5,343808.41,348199.901,8,400,,,
trial,html.Screen,4_38_0,2023-10-31T00:02:09.962Z,,0,1,,3361.9989999761456,response,ISIC_1585370.JPG,8,ISIC_6269543.JPG,ISIC_6269543.JPG,false,0,keypress(z),500,351562.5,351561.89999997616,348191.568,348192.09999996424,348199.901,351566.433,8,400,39,,ISIC_1585370.JPG
break,html.Screen,4_38_1,2023-10-31T00:02:09.963Z,,0,,,NaN,,,,,,false,,,,351563.8000000119,351563.5,,351562.8000000119,,351566.433,8,400,,,
break_continue,html.Screen,4_38_2,2023-10-31T00:02:09.964Z,,0,,,NaN,,,,,,false,,,,351564.09999996424,351564,,351563.89999997616,,351566.433,8,400,,,
sequence,flow.Sequence,4_38,2023-10-31T00:02:09.964Z,,0,,,3364.0989999999874,completion,,,,,false,,,,351564.1999999881,351564,348191.568,348192.09999996424,348199.901,351566.433,8,400,,,
trial,html.Screen,4_39_0,2023-10-31T00:02:18.213Z,,0,1,,8246.76699998806,response,ISIC_2798803.JPG,7,ISIC_0004564.JPG,ISIC_0004564.JPG,false,0,keypress(z),500,359813.8000000119,359813.1999999881,351558.1,351564.3000000119,351566.433,359816.434,8,400,40,,ISIC_2798803.JPG
break,html.Screen,4_39_1,2023-10-31T00:02:18.215Z,,0,,,NaN,,,,,,false,,,,359815.09999996424,359814.89999997616,,359814.1999999881,,359816.434,8,400,,,
break_continue,html.Screen,4_39_2,2023-10-31T00:02:18.215Z,,0,,,NaN,,,,,,false,,,,359815.3000000119,359815.1999999881,,359815.1999999881,,359816.434,8,400,,,
sequence,flow.Sequence,4_39,2023-10-31T00:02:18.215Z,,0,,,8248.76699998806,completion,,,,,false,,,,359815.39999997616,359815.1999999881,351558.1,351564.3000000119,351566.433,359816.434,8,400,,,
trial,html.Screen,4_40_0,2023-10-31T00:02:23.675Z,,0,1,,5458.065999999992,response,ISIC_9847428.JPG,8,ISIC_5755836.JPG,ISIC_9847428.JPG,false,1,keypress(m),500,365275.1999999881,365274.5,359808.101,359815.5,359816.434,365283.272,8,400,41,,ISIC_5755836.JPG
break,html.Screen,4_40_1,2023-10-31T00:02:23.676Z,,0,,,NaN,,,,,,false,,,,365276.39999997616,365276.09999996424,,365275.5,,365283.272,8,400,,,
break_continue,html.Screen,4_40_2,2023-10-31T00:02:23.676Z,,0,,,NaN,,,,,,false,,,,365276.6999999881,365276.59999996424,,365276.39999997616,,365283.272,8,400,,,
sequence,flow.Sequence,4_40,2023-10-31T00:02:23.676Z,,0,,,5460.165999964229,completion,,,,,false,,,,365276.8000000119,365276.59999996424,359808.101,359815.5,359816.434,365283.272,8,400,,,
trial,html.Screen,4_41_0,2023-10-31T00:02:26.563Z,,0,1,,2879.728000000003,response,ISIC_2612661.JPG,7,ISIC_0012722.JPG,ISIC_2612661.JPG,false,1,keypress(m),500,368163.59999996424,368163,365274.939,365276.8000000119,365283.272,368166.49,8,400,42,,ISIC_0012722.JPG
break,html.Screen,4_41_1,2023-10-31T00:02:26.564Z,,0,,,NaN,,,,,,false,,,,368164.8000000119,368164.59999996424,,368164,,368166.49,8,400,,,
break_continue,html.Screen,4_41_2,2023-10-31T00:02:26.565Z,,0,,,NaN,,,,,,false,,,,368165.1999999881,368165.09999996424,,368164.89999997616,,368166.49,8,400,,,
sequence,flow.Sequence,4_41,2023-10-31T00:02:26.565Z,,0,,,2881.82799996424,completion,,,,,false,,,,368165.39999997616,368165.09999996424,365274.939,365276.8000000119,365283.272,368166.49,8,400,,,
trial,html.Screen,4_42_0,2023-10-31T00:02:29.961Z,,0,1,,3394.6099999642465,response,ISIC_8009880.JPG,5,ISIC_0057988.JPG,ISIC_0057988.JPG,false,0,keypress(z),500,371561.39999997616,371561.09999996424,368158.157,368165.5,368166.49,371566.354,8,400,43,,ISIC_8009880.JPG
break,html.Screen,4_42_1,2023-10-31T00:02:29.961Z,,0,,,NaN,,,,,,false,,,,371562,371561.89999997616,,371561.59999996424,,371566.354,8,400,,,
break_continue,html.Screen,4_42_2,2023-10-31T00:02:29.962Z,,0,,,NaN,,,,,,false,,,,371562.1999999881,371562.1999999881,,371562,,371566.354,8,400,,,
sequence,flow.Sequence,4_42,2023-10-31T00:02:29.962Z,,0,,,3395.7099999880884,completion,,,,,false,,,,371562.1999999881,371562.1999999881,368158.157,368165.5,368166.49,371566.354,8,400,,,
trial,html.Screen,4_43_0,2023-10-31T00:02:33.279Z,,0,1,,3312.745999964245,response,ISIC_5961619.JPG,7,ISIC_3234908.JPG,ISIC_5961619.JPG,false,1,keypress(m),500,374879.6999999881,374879.09999996424,371558.021,371562.3000000119,371566.354,374882.888,8,400,44,,ISIC_3234908.JPG
break,html.Screen,4_43_1,2023-10-31T00:02:33.280Z,,0,,,NaN,,,,,,false,,,,374881,374880.8000000119,,374880,,374882.888,8,400,,,
break_continue,html.Screen,4_43_2,2023-10-31T00:02:33.281Z,,0,,,NaN,,,,,,false,,,,374881.3000000119,374881.09999996424,,374881,,374882.888,8,400,,,
sequence,flow.Sequence,4_43,2023-10-31T00:02:33.281Z,,0,,,3314.745999964245,completion,,,,,false,,,,374881.39999997616,374881.09999996424,371558.021,371562.3000000119,371566.354,374882.888,8,400,,,
trial,html.Screen,4_44_0,2023-10-31T00:02:36.628Z,,0,1,,3345.4120000119437,response,ISIC_7333928.JPG,8,ISIC_7340112.JPG,ISIC_7333928.JPG,false,1,keypress(m),500,378228.3000000119,378228.3000000119,374874.555,374881.59999996424,374882.888,378233.065,8,400,45,,ISIC_7340112.JPG
break,html.Screen,4_44_1,2023-10-31T00:02:36.628Z,,0,,,NaN,,,,,,false,,,,378228.59999996424,378228.59999996424,,378228.39999997616,,378233.065,8,400,,,
break_continue,html.Screen,4_44_2,2023-10-31T00:02:36.628Z,,0,,,NaN,,,,,,false,,,,378228.6999999881,378228.6999999881,,378228.59999996424,,378233.065,8,400,,,
sequence,flow.Sequence,4_44,2023-10-31T00:02:36.628Z,,0,,,3345.811999988102,completion,,,,,false,,,,378228.6999999881,378228.6999999881,374874.555,374881.5,374882.888,378233.065,8,400,,,
trial,html.Screen,4_45_0,2023-10-31T00:02:39.752Z,,0,1,,3118.6349999880767,response,ISIC_0062301.JPG,7,ISIC_7349440.JPG,ISIC_0062301.JPG,false,1,keypress(m),500,381352.1999999881,381351.6999999881,378224.732,378228.6999999881,378233.065,381357.94,8,400,46,,ISIC_7349440.JPG
break,html.Screen,4_45_1,2023-10-31T00:02:39.753Z,,0,,,NaN,,,,,,false,,,,381353.39999997616,381353.1999999881,,381352.5,,381357.94,8,400,,,
break_continue,html.Screen,4_45_2,2023-10-31T00:02:39.753Z,,0,,,NaN,,,,,,false,,,,381353.8000000119,381353.6999999881,,381353.5,,381357.94,8,400,,,
sequence,flow.Sequence,4_45,2023-10-31T00:02:39.753Z,,0,,,3120.6349999880767,completion,,,,,false,,,,381353.89999997616,381353.6999999881,378224.732,378228.6999999881,378233.065,381357.94,8,400,,,
trial,html.Screen,4_46_0,2023-10-31T00:02:43.299Z,,0,1,,3541.0599999999977,response,ISIC_7513677.JPG,8,ISIC_0067804.JPG,ISIC_7513677.JPG,false,1,keypress(m),500,384899.5,384899,381349.607,381354,381357.94,384907.798,8,400,47,,ISIC_0067804.JPG
break,html.Screen,4_46_1,2023-10-31T00:02:43.300Z,,0,,,NaN,,,,,,false,,,,384900.6999999881,384900.39999997616,,384899.8000000119,,384907.798,8,400,,,
break_continue,html.Screen,4_46_2,2023-10-31T00:02:43.300Z,,0,,,NaN,,,,,,false,,,,384900.89999997616,384900.8000000119,,384900.6999999881,,384907.798,8,400,,,
sequence,flow.Sequence,4_46,2023-10-31T00:02:43.300Z,,0,,,3542.8600000119186,completion,,,,,false,,,,384901,384900.8000000119,381349.607,381354,381357.94,384907.798,8,400,,,
trial,html.Screen,4_47_0,2023-10-31T00:02:48.025Z,,0,1,,4717.20199999999,response,ISIC_0061265.JPG,5,ISIC_0013232.JPG,ISIC_0013232.JPG,false,0,keypress(z),500,389625.59999996424,389625,384899.465,384901.09999996424,384907.798,389632.92,8,400,48,,ISIC_0061265.JPG
break,html.Screen,4_47_1,2023-10-31T00:02:48.026Z,,0,,,NaN,,,,,,false,,,,389626.89999997616,389626.6999999881,,389625.89999997616,,389632.92,8,400,,,
break_continue,html.Screen,4_47_2,2023-10-31T00:02:48.027Z,,0,,,NaN,,,,,,false,,,,389627.3000000119,389627.1999999881,,389627,,389632.92,8,400,,,
sequence,flow.Sequence,4_47,2023-10-31T00:02:48.027Z,,0,,,4719.401999988069,completion,,,,,false,,,,389627.39999997616,389627.1999999881,384899.465,384901.09999996424,384907.798,389632.92,8,400,,,
trial,html.Screen,4_48_0,2023-10-31T00:02:51.585Z,,0,1,,3551.6799999642535,response,ISIC_7885531.JPG,5,ISIC_0010655.JPG,ISIC_0010655.JPG,false,0,keypress(z),500,393185.1999999881,393184.59999996424,389624.587,389627.59999996424,389632.92,393191.111,8,400,49,,ISIC_7885531.JPG
break,html.Screen,4_48_1,2023-10-31T00:02:51.586Z,,0,,,NaN,,,,,,false,,,,393186.39999997616,393186.09999996424,,393185.39999997616,,393191.111,8,400,,,
break_continue,html.Screen,4_48_2,2023-10-31T00:02:51.586Z,,0,,,NaN,,,,,,false,,,,393186.8000000119,393186.6999999881,,393186.59999996424,,393191.111,8,400,,,
sequence,flow.Sequence,4_48,2023-10-31T00:02:51.587Z,,0,,,3553.7799999880954,completion,,,,,false,,,,393187.3000000119,393186.6999999881,389624.587,389627.5,389632.92,393191.111,8,400,,,
trial,html.Screen,4_49_0,2023-10-31T00:02:55.302Z,,0,1,,3711.3890000000247,response,ISIC_0057539.JPG,8,ISIC_0031386.JPG,ISIC_0057539.JPG,false,1,keypress(m),500,396903.09999996424,396902.5,393182.778,393187.59999996424,393191.111,396908.002,8,400,50,,ISIC_0031386.JPG
break,html.Screen,4_49_1,2023-10-31T00:03:05.300Z,,0,,,9999.88300000003,timeout,,,,,false,,,,406900.89999997616,406899.552,396899.669,396903.39999997616,396908.002,406907.885,8,400,,,
break_continue,html.Screen,4_49_2,2023-10-31T00:03:06.470Z,,0,,,1148.1149999999907,response,,,,,false,continue,keypress(Space),,408070.3000000119,408056,406899.552,406900.89999997616,406907.885,408074.505,8,400,,,
sequence,flow.Sequence,4_49,2023-10-31T00:03:06.470Z,,0,,,14864.889000000025,completion,,,,,false,,,,408070.39999997616,408056,393182.778,393187.5,393191.111,408074.505,8,400,,,
trial,html.Screen,4_50_0,2023-10-31T00:03:10.408Z,,0,2,,3933.6949999880744,response,ISIC_0011665.JPG,5,ISIC_5501183.JPG,ISIC_0011665.JPG,false,1,keypress(m),500,412008.8000000119,412008.1999999881,408066.172,408070.5,408074.505,412016.014,8,400,1,,ISIC_5501183.JPG
break,html.Screen,4_50_1,2023-10-31T00:03:10.409Z,,0,,,NaN,,,,,,false,,,,412009.89999997616,412009.59999996424,,412009.09999996424,,412016.014,8,400,,,
break_continue,html.Screen,4_50_2,2023-10-31T00:03:10.409Z,,0,,,NaN,,,,,,false,,,,412010.09999996424,412010,,412009.89999997616,,412016.014,8,400,,,
sequence,flow.Sequence,4_50,2023-10-31T00:03:10.409Z,,0,,,3935.4949999999953,completion,,,,,false,,,,412010.09999996424,412010,408066.172,408070.5,408074.505,412016.014,8,400,,,
trial,html.Screen,4_51_0,2023-10-31T00:03:14.753Z,,0,2,,4337.8859999761335,response,ISIC_0046331.JPG,7,ISIC_0059440.JPG,ISIC_0059440.JPG,false,0,keypress(z),500,416354.1999999881,416353.89999997616,412007.681,412010.1999999881,412016.014,416357.507,8,400,2,,ISIC_0046331.JPG
break,html.Screen,4_51_1,2023-10-31T00:03:14.754Z,,0,,,NaN,,,,,,false,,,,416354.6999999881,416354.59999996424,,416354.3000000119,,416357.507,8,400,,,
break_continue,html.Screen,4_51_2,2023-10-31T00:03:14.754Z,,0,,,NaN,,,,,,false,,,,416354.8000000119,416354.8000000119,,416354.8000000119,,416357.507,8,400,,,
sequence,flow.Sequence,4_51,2023-10-31T00:03:14.754Z,,0,,,4338.786000011896,completion,,,,,false,,,,416354.89999997616,416354.8000000119,412007.681,412010.1999999881,412016.014,416357.507,8,400,,,
trial,html.Screen,4_52_0,2023-10-31T00:03:17.896Z,,0,2,,3138.192999988096,response,ISIC_7253401.JPG,7,ISIC_5908780.JPG,ISIC_5908780.JPG,false,0,keypress(z),500,419496.3000000119,419495.6999999881,416349.174,416354.89999997616,416357.507,419499.415,8,400,3,,ISIC_7253401.JPG
break,html.Screen,4_52_1,2023-10-31T00:03:17.897Z,,0,,,NaN,,,,,,false,,,,419497.5,419497.1999999881,,419496.6999999881,,419499.415,8,400,,,
break_continue,html.Screen,4_52_2,2023-10-31T00:03:17.897Z,,0,,,NaN,,,,,,false,,,,419497.6999999881,419497.6999999881,,419497.59999996424,,419499.415,8,400,,,
sequence,flow.Sequence,4_52,2023-10-31T00:03:17.897Z,,0,,,3140.192999988096,completion,,,,,false,,,,419497.89999997616,419497.6999999881,416349.174,416354.89999997616,416357.507,419499.415,8,400,,,
trial,html.Screen,4_53_0,2023-10-31T00:03:21.505Z,,0,2,,3606.085000000021,response,ISIC_2647643.JPG,5,ISIC_0014183.JPG,ISIC_0014183.JPG,false,0,keypress(z),500,423106,423105.5,419491.082,419497.89999997616,419499.415,423107.604,8,400,4,,ISIC_2647643.JPG
break,html.Screen,4_53_1,2023-10-31T00:03:21.506Z,,0,,,NaN,,,,,,false,,,,423107.09999996424,423106.89999997616,,423106.3000000119,,423107.604,8,400,,,
break_continue,html.Screen,4_53_2,2023-10-31T00:03:21.507Z,,0,,,NaN,,,,,,false,,,,423107.39999997616,423107.3000000119,,423107.1999999881,,423107.604,8,400,,,
sequence,flow.Sequence,4_53,2023-10-31T00:03:21.507Z,,0,,,3607.885000011942,completion,,,,,false,,,,423107.5,423107.3000000119,419491.082,419497.89999997616,419499.415,423107.604,8,400,,,
trial,html.Screen,4_54_0,2023-10-31T00:03:25.690Z,,0,2,,4182.896000000008,response,ISIC_0070003.JPG,6,ISIC_5248948.JPG,ISIC_0070003.JPG,false,1,keypress(m),500,427291.09999996424,427290.5,423099.271,423107.59999996424,423107.604,427299.103,8,400,5,,ISIC_5248948.JPG
break,html.Screen,4_54_1,2023-10-31T00:03:25.692Z,,0,,,NaN,,,,,,false,,,,427292.3000000119,427292.09999996424,,427291.39999997616,,427299.103,8,400,,,
break_continue,html.Screen,4_54_2,2023-10-31T00:03:25.692Z,,0,,,NaN,,,,,,false,,,,427292.59999996424,427292.5,,427292.39999997616,,427299.103,8,400,,,
sequence,flow.Sequence,4_54,2023-10-31T00:03:25.692Z,,0,,,4184.896000000008,completion,,,,,false,,,,427292.8000000119,427292.5,423099.271,423107.59999996424,423107.604,427299.103,8,400,,,
trial,html.Screen,4_55_0,2023-10-31T00:03:37.612Z,,0,2,,20858.418000000005,timeout,ISIC_9193127.JPG,7,ISIC_3696488.JPG,,false,,,500,439213.1999999881,439212.59999996424,427290.77,427293,427299.103,448157.521,8,400,6,,
break,html.Screen,4_55_1,2023-10-31T00:03:37.613Z,,0,,,NaN,,,,,,false,,,,439214.1999999881,439213.89999997616,,439213.5,,448157.521,8,400,,,
break_continue,html.Screen,4_55_2,2023-10-31T00:03:37.614Z,,0,,,NaN,,,,,,false,,,,439214.5,439214.3000000119,,439214.3000000119,,448157.521,8,400,,,
sequence,flow.Sequence,4_55,2023-10-31T00:03:37.614Z,,0,,,11915.197000011918,completion,,,,,false,,,,439214.59999996424,439214.3000000119,427290.77,427292.8000000119,427299.103,448157.521,8,400,,,
trial,html.Screen,4_56_0,2023-10-31T00:03:49.557Z,,0,2,,2999.678999988071,response,ISIC_0998962.JPG,495,ISIC_0069970.JPG,ISIC_0069970.JPG,false,0,keypress(z),500,451157.6999999881,451157.1999999881,448149.188,439214.59999996424,448157.521,451165.734,8,400,7,,ISIC_0998962.JPG
break,html.Screen,4_56_1,2023-10-31T00:03:49.558Z,,0,,,NaN,,,,,,false,,,,451158.8000000119,451158.59999996424,,451158,,451165.734,8,400,,,
break_continue,html.Screen,4_56_2,2023-10-31T00:03:49.558Z,,0,,,NaN,,,,,,false,,,,451159.09999996424,451159,,451158.89999997616,,451165.734,8,400,,,
sequence,flow.Sequence,4_56,2023-10-31T00:03:49.558Z,,0,,,3001.478999999992,completion,,,,,false,,,,451159.1999999881,451159,448149.188,439214.59999996424,448157.521,451165.734,8,400,,,
trial,html.Screen,4_57_0,2023-10-31T00:03:54.938Z,,0,2,,5371.965999988082,response,ISIC_0029652.JPG,8,ISIC_0032968.JPG,ISIC_0032968.JPG,false,0,keypress(z),500,456538.39999997616,456537.6999999881,451157.401,451159.3000000119,451165.734,456540.519,8,400,8,,ISIC_0029652.JPG
break,html.Screen,4_57_1,2023-10-31T00:03:54.939Z,,0,,,NaN,,,,,,false,,,,456539.59999996424,456539.39999997616,,456538.8000000119,,456540.519,8,400,,,
break_continue,html.Screen,4_57_2,2023-10-31T00:03:54.939Z,,0,,,NaN,,,,,,false,,,,456540,456539.8000000119,,456539.8000000119,,456540.519,8,400,,,
sequence,flow.Sequence,4_57,2023-10-31T00:03:54.939Z,,0,,,5374.066000011924,completion,,,,,false,,,,456540.09999996424,456539.8000000119,451157.401,451159.3000000119,451165.734,456540.519,8,400,,,
trial,html.Screen,4_58_0,2023-10-31T00:03:58.225Z,,0,2,,3284.28100001195,response,ISIC_0064010.JPG,5,ISIC_7801289.JPG,ISIC_0064010.JPG,false,1,keypress(m),500,459825.39999997616,459824.8000000119,456532.186,456540.3000000119,456540.519,459832.384,8,400,9,,ISIC_7801289.JPG
break,html.Screen,4_58_1,2023-10-31T00:03:58.226Z,,0,,,NaN,,,,,,false,,,,459826.6999999881,459826.39999997616,,459825.8000000119,,459832.384,8,400,,,
break_continue,html.Screen,4_58_2,2023-10-31T00:03:58.226Z,,0,,,NaN,,,,,,false,,,,459827,459826.89999997616,,459826.8000000119,,459832.384,8,400,,,
sequence,flow.Sequence,4_58,2023-10-31T00:03:58.226Z,,0,,,3286.380999976187,completion,,,,,false,,,,459827.1999999881,459826.89999997616,456532.186,456540.1999999881,456540.519,459832.384,8,400,,,
trial,html.Screen,4_59_0,2023-10-31T00:04:01.000Z,,0,2,,2767.916000011901,response,ISIC_0027590.JPG,8,ISIC_8036544.JPG,ISIC_0027590.JPG,false,1,keypress(m),500,462600.89999997616,462600.3000000119,459824.051,459827.3000000119,459832.384,462607.273,8,400,10,,ISIC_8036544.JPG
break,html.Screen,4_59_1,2023-10-31T00:04:01.001Z,,0,,,NaN,,,,,,false,,,,462602.09999996424,462601.89999997616,,462601.1999999881,,462607.273,8,400,,,
break_continue,html.Screen,4_59_2,2023-10-31T00:04:01.002Z,,0,,,NaN,,,,,,false,,,,462602.5,462602.3000000119,,462602.1999999881,,462607.273,8,400,,,
sequence,flow.Sequence,4_59,2023-10-31T00:04:01.002Z,,0,,,2769.916000011901,completion,,,,,false,,,,462602.8000000119,462602.3000000119,459824.051,459827.3000000119,459832.384,462607.273,8,400,,,
trial,html.Screen,4_60_0,2023-10-31T00:04:04.494Z,,0,2,,3487.1269999761716,response,ISIC_0024226.JPG,8,ISIC_3868662.JPG,ISIC_0024226.JPG,false,1,keypress(m),500,466094.89999997616,466094.39999997616,462598.94,462602.89999997616,462607.273,466098.8,8,400,11,,ISIC_3868662.JPG
break,html.Screen,4_60_1,2023-10-31T00:04:04.495Z,,0,,,NaN,,,,,,false,,,,466096.3000000119,466096.09999996424,,466095.3000000119,,466098.8,8,400,,,
break_continue,html.Screen,4_60_2,2023-10-31T00:04:04.496Z,,0,,,NaN,,,,,,false,,,,466096.6999999881,466096.59999996424,,466096.39999997616,,466098.8,8,400,,,
sequence,flow.Sequence,4_60,2023-10-31T00:04:04.496Z,,0,,,3489.3269999642507,completion,,,,,false,,,,466096.89999997616,466096.59999996424,462598.94,462602.89999997616,462607.273,466098.8,8,400,,,
trial,html.Screen,4_61_0,2023-10-31T00:04:07.474Z,,0,2,,2975.799999964249,response,ISIC_2007396.JPG,6,ISIC_6434210.JPG,ISIC_2007396.JPG,false,1,keypress(m),500,469074.89999997616,469074.59999996424,466090.467,466097,466098.8,469082.329,8,400,12,,ISIC_6434210.JPG
break,html.Screen,4_61_1,2023-10-31T00:04:07.475Z,,0,,,NaN,,,,,,false,,,,469075.39999997616,469075.39999997616,,469075,,469082.329,8,400,,,
break_continue,html.Screen,4_61_2,2023-10-31T00:04:07.475Z,,0,,,NaN,,,,,,false,,,,469075.59999996424,469075.59999996424,,469075.5,,469082.329,8,400,,,
sequence,flow.Sequence,4_61,2023-10-31T00:04:07.475Z,,0,,,2976.799999964249,completion,,,,,false,,,,469075.6999999881,469075.59999996424,466090.467,466096.89999997616,466098.8,469082.329,8,400,,,
trial,html.Screen,4_62_0,2023-10-31T00:04:10.776Z,,0,2,,3294.070999976131,response,ISIC_0065313.JPG,8,ISIC_4569077.JPG,ISIC_0065313.JPG,false,1,keypress(m),500,472376.59999996424,472376.39999997616,469073.996,469075.8000000119,469082.329,472382.197,8,400,13,,ISIC_4569077.JPG
break,html.Screen,4_62_1,2023-10-31T00:04:10.776Z,,0,,,NaN,,,,,,false,,,,472377.3000000119,472377.1999999881,,472376.89999997616,,472382.197,8,400,,,
break_continue,html.Screen,4_62_2,2023-10-31T00:04:10.777Z,,0,,,NaN,,,,,,false,,,,472377.39999997616,472377.39999997616,,472377.39999997616,,472382.197,8,400,,,
sequence,flow.Sequence,4_62,2023-10-31T00:04:10.777Z,,0,,,3295.070999976131,completion,,,,,false,,,,472377.59999996424,472377.39999997616,469073.996,469075.8000000119,469082.329,472382.197,8,400,,,
trial,html.Screen,4_63_0,2023-10-31T00:04:14.109Z,,0,2,,3327.1030000119354,response,ISIC_0024679.JPG,7,ISIC_0071913.JPG,ISIC_0024679.JPG,false,1,keypress(m),500,475709.89999997616,475709.3000000119,472373.864,472377.59999996424,472382.197,475715.397,8,400,14,,ISIC_0071913.JPG
break,html.Screen,4_63_1,2023-10-31T00:04:14.110Z,,0,,,NaN,,,,,,false,,,,475711.09999996424,475710.89999997616,,475710.1999999881,,475715.397,8,400,,,
break_continue,html.Screen,4_63_2,2023-10-31T00:04:14.111Z,,0,,,NaN,,,,,,false,,,,475711.5,475711.3000000119,,475711.1999999881,,475715.397,8,400,,,
sequence,flow.Sequence,4_63,2023-10-31T00:04:14.111Z,,0,,,3329.1030000119354,completion,,,,,false,,,,475711.59999996424,475711.3000000119,472373.864,472377.59999996424,472382.197,475715.397,8,400,,,
trial,html.Screen,4_64_0,2023-10-31T00:04:17.620Z,,0,2,,3505.20299996424,response,ISIC_6685532.JPG,6,ISIC_2844539.JPG,ISIC_6685532.JPG,false,1,keypress(m),500,479221.09999996424,479220.59999996424,475707.064,475711.8000000119,475715.397,479223.933,8,400,15,,ISIC_2844539.JPG
break,html.Screen,4_64_1,2023-10-31T00:04:17.621Z,,0,,,NaN,,,,,,false,,,,479222.09999996424,479221.89999997616,,479221.5,,479223.933,8,400,,,
break_continue,html.Screen,4_64_2,2023-10-31T00:04:17.621Z,,0,,,NaN,,,,,,false,,,,479222.39999997616,479222.3000000119,,479222.1999999881,,479223.933,8,400,,,
sequence,flow.Sequence,4_64,2023-10-31T00:04:17.622Z,,0,,,3506.9030000119237,completion,,,,,false,,,,479222.39999997616,479222.3000000119,475707.064,475711.6999999881,475715.397,479223.933,8,400,,,
trial,html.Screen,4_65_0,2023-10-31T00:04:21.214Z,,0,2,,3590.666999964218,response,ISIC_0013243.JPG,8,ISIC_9159730.JPG,ISIC_9159730.JPG,false,0,keypress(z),500,482815.1999999881,482814.59999996424,479215.6,479222.5,479223.933,482823.789,8,400,16,,ISIC_0013243.JPG
break,html.Screen,4_65_1,2023-10-31T00:04:21.216Z,,0,,,NaN,,,,,,false,,,,482816.39999997616,482816.3000000119,,482815.5,,482823.789,8,400,,,
break_continue,html.Screen,4_65_2,2023-10-31T00:04:21.216Z,,0,,,NaN,,,,,,false,,,,482816.8000000119,482816.6999999881,,482816.59999996424,,482823.789,8,400,,,
sequence,flow.Sequence,4_65,2023-10-31T00:04:21.216Z,,0,,,3592.76699998806,completion,,,,,false,,,,482817,482816.6999999881,479215.6,479222.5,479223.933,482823.789,8,400,,,
trial,html.Screen,4_66_0,2023-10-31T00:04:24.501Z,,0,2,,3277.1109999761684,response,ISIC_6590303.JPG,8,ISIC_2011408.JPG,ISIC_2011408.JPG,false,0,keypress(z),500,486101.5,486100.89999997616,482815.456,482817.09999996424,482823.789,486106.991,8,400,17,,ISIC_6590303.JPG
break,html.Screen,4_66_1,2023-10-31T00:04:24.502Z,,0,,,NaN,,,,,,false,,,,486102.8000000119,486102.5,,486101.8000000119,,486106.991,8,400,,,
break_continue,html.Screen,4_66_2,2023-10-31T00:04:24.502Z,,0,,,NaN,,,,,,false,,,,486103.09999996424,486103,,486102.89999997616,,486106.991,8,400,,,
sequence,flow.Sequence,4_66,2023-10-31T00:04:24.502Z,,0,,,3279.2110000000102,completion,,,,,false,,,,486103.3000000119,486103,482815.456,482817.09999996424,482823.789,486106.991,8,400,,,
trial,html.Screen,4_67_0,2023-10-31T00:04:27.754Z,,0,2,,3247.708999988099,response,ISIC_3312201.JPG,8,ISIC_0031671.JPG,ISIC_3312201.JPG,false,1,keypress(m),500,489354.89999997616,489354.6999999881,486098.658,486103.39999997616,486106.991,489357.163,8,400,18,,ISIC_0031671.JPG
break,html.Screen,4_67_1,2023-10-31T00:04:27.754Z,,0,,,NaN,,,,,,false,,,,489355.1999999881,489355.09999996424,,489354.89999997616,,489357.163,8,400,,,
break_continue,html.Screen,4_67_2,2023-10-31T00:04:27.754Z,,0,,,NaN,,,,,,false,,,,489355.3000000119,489355.3000000119,,489355.3000000119,,489357.163,8,400,,,
sequence,flow.Sequence,4_67,2023-10-31T00:04:27.754Z,,0,,,3248.309000011941,completion,,,,,false,,,,489355.39999997616,489355.3000000119,486098.658,486103.39999997616,486106.991,489357.163,8,400,,,
trial,html.Screen,4_68_0,2023-10-31T00:04:30.580Z,,0,2,,2823.0369999880786,response,ISIC_1367610.JPG,6,ISIC_7242542.JPG,ISIC_1367610.JPG,false,1,keypress(m),500,492180.8000000119,492180.1999999881,489348.83,489355.39999997616,489357.163,492190.383,8,400,19,,ISIC_7242542.JPG
break,html.Screen,4_68_1,2023-10-31T00:04:30.581Z,,0,,,NaN,,,,,,false,,,,492182.09999996424,492181.8000000119,,492181.1999999881,,492190.383,8,400,,,
break_continue,html.Screen,4_68_2,2023-10-31T00:04:30.582Z,,0,,,NaN,,,,,,false,,,,492182.39999997616,492182.3000000119,,492182.09999996424,,492190.383,8,400,,,
sequence,flow.Sequence,4_68,2023-10-31T00:04:30.582Z,,0,,,2825.1370000119205,completion,,,,,false,,,,492182.59999996424,492182.3000000119,489348.83,489355.39999997616,489357.163,492190.383,8,400,,,
trial,html.Screen,4_69_0,2023-10-31T00:04:34.412Z,,0,2,,3821.5169999761856,response,ISIC_0032925.JPG,7,ISIC_4128129.JPG,ISIC_4128129.JPG,false,0,keypress(z),500,496012.59999996424,496011.89999997616,492182.05,492182.6999999881,492190.383,496023.563,8,400,20,,ISIC_0032925.JPG
break,html.Screen,4_69_1,2023-10-31T00:04:34.413Z,,0,,,NaN,,,,,,false,,,,496013.6999999881,496013.39999997616,,496012.8000000119,,496023.563,8,400,,,
break_continue,html.Screen,4_69_2,2023-10-31T00:04:34.413Z,,0,,,NaN,,,,,,false,,,,496014,496013.89999997616,,496013.8000000119,,496023.563,8,400,,,
sequence,flow.Sequence,4_69,2023-10-31T00:04:34.413Z,,0,,,3823.5169999761856,completion,,,,,false,,,,496014.09999996424,496013.89999997616,492182.05,492182.6999999881,492190.383,496023.563,8,400,,,
trial,html.Screen,4_70_0,2023-10-31T00:04:38.549Z,,0,2,,4125.936999999976,response,ISIC_0927854.JPG,5,ISIC_0010792.JPG,ISIC_0010792.JPG,false,0,keypress(z),500,500150.1999999881,500149.5,496015.23,496014.1999999881,496023.563,500157.078,8,400,21,,ISIC_0927854.JPG
break,html.Screen,4_70_1,2023-10-31T00:04:38.552Z,,0,,,NaN,,,,,,false,,,,500152.8000000119,500152.59999996424,,500150.5,,500157.078,8,400,,,
break_continue,html.Screen,4_70_2,2023-10-31T00:04:38.553Z,,0,,,NaN,,,,,,false,,,,500153.59999996424,500153.5,,500153.39999997616,,500157.078,8,400,,,
sequence,flow.Sequence,4_70,2023-10-31T00:04:38.553Z,,0,,,4129.936999999976,completion,,,,,false,,,,500153.6999999881,500153.5,496015.23,496014.1999999881,496023.563,500157.078,8,400,,,
trial,html.Screen,4_71_0,2023-10-31T00:04:42.449Z,,0,2,,3892.4220000000205,response,ISIC_0056326.JPG,8,ISIC_0024537.JPG,ISIC_0024537.JPG,false,0,keypress(z),500,504050.1999999881,504049.5,500148.745,500153.8000000119,500157.078,504056.922,8,400,22,,ISIC_0056326.JPG
break,html.Screen,4_71_1,2023-10-31T00:04:42.451Z,,0,,,NaN,,,,,,false,,,,504051.5,504051.3000000119,,504050.59999996424,,504056.922,8,400,,,
break_continue,html.Screen,4_71_2,2023-10-31T00:04:42.451Z,,0,,,NaN,,,,,,false,,,,504051.8000000119,504051.6999999881,,504051.6999999881,,504056.922,8,400,,,
sequence,flow.Sequence,4_71,2023-10-31T00:04:42.451Z,,0,,,3894.6219999880996,completion,,,,,false,,,,504052,504051.6999999881,500148.745,500153.6999999881,500157.078,504056.922,8,400,,,
trial,html.Screen,4_72_0,2023-10-31T00:04:45.576Z,,0,2,,3120.0779999999795,response,ISIC_0027234.JPG,8,ISIC_5005253.JPG,ISIC_0027234.JPG,false,1,keypress(m),500,507177.39999997616,507177,504048.589,504052,504056.922,507181.797,8,400,23,,ISIC_5005253.JPG
break,html.Screen,4_72_1,2023-10-31T00:04:45.578Z,,0,,,NaN,,,,,,false,,,,507178.39999997616,507178.3000000119,,507177.6999999881,,507181.797,8,400,,,
break_continue,html.Screen,4_72_2,2023-10-31T00:04:45.578Z,,0,,,NaN,,,,,,false,,,,507178.8000000119,507178.6999999881,,507178.5,,507181.797,8,400,,,
sequence,flow.Sequence,4_72,2023-10-31T00:04:45.578Z,,0,,,3121.7779999880586,completion,,,,,false,,,,507178.8000000119,507178.6999999881,504048.589,504052,504056.922,507181.797,8,400,,,
trial,html.Screen,4_73_0,2023-10-31T00:04:48.817Z,,0,2,,3235.6029999761377,response,ISIC_7724635.JPG,8,ISIC_9008095.JPG,ISIC_7724635.JPG,false,1,keypress(m),500,510417.89999997616,510417.39999997616,507173.464,507178.89999997616,507181.797,510423.669,8,400,24,,ISIC_9008095.JPG
break,html.Screen,4_73_1,2023-10-31T00:04:48.818Z,,0,,,NaN,,,,,,false,,,,510418.89999997616,510418.8000000119,,510418.1999999881,,510423.669,8,400,,,
break_continue,html.Screen,4_73_2,2023-10-31T00:04:48.818Z,,0,,,NaN,,,,,,false,,,,510419.09999996424,510419.09999996424,,510419,,510423.669,8,400,,,
sequence,flow.Sequence,4_73,2023-10-31T00:04:48.818Z,,0,,,3237.3029999642167,completion,,,,,false,,,,510419.3000000119,510419.09999996424,507173.464,507178.89999997616,507181.797,510423.669,8,400,,,
trial,html.Screen,4_74_0,2023-10-31T00:04:52.421Z,,0,2,,3597.6310000119265,response,ISIC_4189981.JPG,8,ISIC_0062084.JPG,ISIC_4189981.JPG,false,1,keypress(m),500,514021.5,514021.3000000119,510415.336,510419.39999997616,510423.669,514031.858,8,400,25,,ISIC_0062084.JPG
break,html.Screen,4_74_1,2023-10-31T00:04:52.421Z,,0,,,NaN,,,,,,false,,,,514022,514021.89999997616,,514021.59999996424,,514031.858,8,400,,,
break_continue,html.Screen,4_74_2,2023-10-31T00:04:52.421Z,,0,,,NaN,,,,,,false,,,,514022.09999996424,514022.09999996424,,514022,,514031.858,8,400,,,
sequence,flow.Sequence,4_74,2023-10-31T00:04:52.421Z,,0,,,3598.430999964243,completion,,,,,false,,,,514022.09999996424,514022.09999996424,510415.336,510419.3000000119,510423.669,514031.858,8,400,,,
trial,html.Screen,4_75_0,2023-10-31T00:04:57.303Z,,0,2,,4871.641999999993,response,ISIC_0031717.JPG,7,ISIC_5835414.JPG,ISIC_5835414.JPG,false,0,keypress(z),500,518904,518903.5,514023.525,514022.1999999881,514031.858,518906.663,8,400,26,,ISIC_0031717.JPG
break,html.Screen,4_75_1,2023-10-31T00:04:57.304Z,,0,,,NaN,,,,,,false,,,,518905.39999997616,518905,,518904.3000000119,,518906.663,8,400,,,
break_continue,html.Screen,4_75_2,2023-10-31T00:04:57.305Z,,0,,,NaN,,,,,,false,,,,518905.6999999881,518905.59999996424,,518905.5,,518906.663,8,400,,,
sequence,flow.Sequence,4_75,2023-10-31T00:04:57.305Z,,0,,,4873.74199996423,completion,,,,,false,,,,518905.89999997616,518905.59999996424,514023.525,514022.1999999881,514031.858,518906.663,8,400,,,
trial,html.Screen,4_76_0,2023-10-31T00:05:00.541Z,,0,2,,3234.9369999642367,response,ISIC_0066678.JPG,6,ISIC_6162308.JPG,ISIC_0066678.JPG,false,1,keypress(m),500,522141.8000000119,522141.59999996424,518898.33,518906,518906.663,522148.516,8,400,27,,ISIC_6162308.JPG
break,html.Screen,4_76_1,2023-10-31T00:05:00.541Z,,0,,,NaN,,,,,,false,,,,522142.09999996424,522142.09999996424,,522141.89999997616,,522148.516,8,400,,,
break_continue,html.Screen,4_76_2,2023-10-31T00:05:00.541Z,,0,,,NaN,,,,,,false,,,,522142.1999999881,522142.1999999881,,522142.1999999881,,522148.516,8,400,,,
sequence,flow.Sequence,4_76,2023-10-31T00:05:00.541Z,,0,,,3235.5369999880786,completion,,,,,false,,,,522142.3000000119,522142.1999999881,518898.33,518906,518906.663,522148.516,8,400,,,
trial,html.Screen,4_77_0,2023-10-31T00:05:03.249Z,,0,2,,2701.2840000119177,response,ISIC_0027882.JPG,8,ISIC_5218530.JPG,ISIC_0027882.JPG,false,1,keypress(m),500,524850,524849.8000000119,522140.183,522142.3000000119,522148.516,524856.741,8,400,28,,ISIC_5218530.JPG
break,html.Screen,4_77_1,2023-10-31T00:05:03.250Z,,0,,,NaN,,,,,,false,,,,524850.5,524850.3999999762,,524850.0999999642,,524856.741,8,400,,,
break_continue,html.Screen,4_77_2,2023-10-31T00:05:03.250Z,,0,,,NaN,,,,,,false,,,,524850.8000000119,524850.6999999881,,524850.6999999881,,524856.741,8,400,,,
sequence,flow.Sequence,4_77,2023-10-31T00:05:03.250Z,,0,,,2702.183999988076,completion,,,,,false,,,,524850.8000000119,524850.6999999881,522140.183,522142.3000000119,522148.516,524856.741,8,400,,,
trial,html.Screen,4_78_0,2023-10-31T00:05:06.470Z,,0,2,,3213.5590000118827,response,ISIC_0057881.JPG,8,ISIC_0033344.JPG,ISIC_0033344.JPG,false,0,keypress(z),500,528070.8000000119,528070.3000000119,524848.408,524850.8000000119,524856.741,528073.279,8,400,29,,ISIC_0057881.JPG
break,html.Screen,4_78_1,2023-10-31T00:05:06.471Z,,0,,,NaN,,,,,,false,,,,528072.0999999642,528071.8000000119,,528071.0999999642,,528073.279,8,400,,,
break_continue,html.Screen,4_78_2,2023-10-31T00:05:06.471Z,,0,,,NaN,,,,,,false,,,,528072.3999999762,528072.3000000119,,528072.1999999881,,528073.279,8,400,,,
sequence,flow.Sequence,4_78,2023-10-31T00:05:06.471Z,,0,,,3215.5590000118827,completion,,,,,false,,,,528072.5,528072.3000000119,524848.408,524850.8000000119,524856.741,528073.279,8,400,,,
trial,html.Screen,4_79_0,2023-10-31T00:05:10.061Z,,0,2,,3588.5210000119405,response,ISIC_0620587.JPG,9,ISIC_0061583.JPG,ISIC_0061583.JPG,false,0,keypress(z),500,531662.5,531661.8000000119,528064.946,528072.5,528073.279,531665.159,8,400,30,,ISIC_0620587.JPG
break,html.Screen,4_79_1,2023-10-31T00:05:10.063Z,,0,,,NaN,,,,,,false,,,,531663.8000000119,531663.5,,531662.8000000119,,531665.159,8,400,,,
break_continue,html.Screen,4_79_2,2023-10-31T00:05:10.063Z,,0,,,NaN,,,,,,false,,,,531664.0999999642,531664,,531663.8999999762,,531665.159,8,400,,,
sequence,flow.Sequence,4_79,2023-10-31T00:05:10.063Z,,0,,,3590.7210000000196,completion,,,,,false,,,,531664.1999999881,531664,528064.946,528072.5,528073.279,531665.159,8,400,,,
trial,html.Screen,4_80_0,2023-10-31T00:05:13.416Z,,0,2,,3351.841000000015,response,ISIC_0333091.JPG,8,ISIC_0033946.JPG,ISIC_0333091.JPG,false,1,keypress(m),500,535017.5,535017,531656.826,531664.3999999762,531665.159,535023.358,8,400,31,,ISIC_0033946.JPG
break,html.Screen,4_80_1,2023-10-31T00:05:13.418Z,,0,,,NaN,,,,,,false,,,,535018.8999999762,535018.6999999881,,535018,,535023.358,8,400,,,
break_continue,html.Screen,4_80_2,2023-10-31T00:05:13.418Z,,0,,,NaN,,,,,,false,,,,535019.3000000119,535019.0999999642,,535019.0999999642,,535023.358,8,400,,,
sequence,flow.Sequence,4_80,2023-10-31T00:05:13.418Z,,0,,,3353.940999964252,completion,,,,,false,,,,535019.5,535019.0999999642,531656.826,531664.3999999762,531665.159,535023.358,8,400,,,
trial,html.Screen,4_81_0,2023-10-31T00:05:16.341Z,,0,2,,2918.6419999999925,response,ISIC_9775430.JPG,7,ISIC_0465476.JPG,ISIC_9775430.JPG,false,1,keypress(m),500,537942.0999999642,537942,535015.025,535019.6999999881,535023.358,537948.241,8,400,32,,ISIC_0465476.JPG
break,html.Screen,4_81_1,2023-10-31T00:05:16.341Z,,0,,,NaN,,,,,,false,,,,537942.3999999762,537942.3000000119,,537942.1999999881,,537948.241,8,400,,,
break_continue,html.Screen,4_81_2,2023-10-31T00:05:16.341Z,,0,,,NaN,,,,,,false,,,,537942.5,537942.3999999762,,537942.3999999762,,537948.241,8,400,,,
sequence,flow.Sequence,4_81,2023-10-31T00:05:16.341Z,,0,,,2919.0419999761507,completion,,,,,false,,,,537942.5,537942.3999999762,535015.025,535019.5999999642,535023.358,537948.241,8,400,,,
trial,html.Screen,4_82_0,2023-10-31T00:05:19.246Z,,0,2,,2897.958999988041,response,ISIC_0054233.JPG,6,ISIC_0032783.JPG,ISIC_0054233.JPG,false,1,keypress(m),500,540846.8000000119,540846.1999999881,537939.908,537942.5,537948.241,540848.125,8,400,33,,ISIC_0032783.JPG
break,html.Screen,4_82_1,2023-10-31T00:05:19.247Z,,0,,,NaN,,,,,,false,,,,540848,540847.8000000119,,540847.0999999642,,540848.125,8,400,,,
break_continue,html.Screen,4_82_2,2023-10-31T00:05:19.247Z,,0,,,NaN,,,,,,false,,,,540848.1999999881,540848.1999999881,,540848.0999999642,,540848.125,8,400,,,
sequence,flow.Sequence,4_82,2023-10-31T00:05:19.247Z,,0,,,2899.958999988041,completion,,,,,false,,,,540848.3999999762,540848.1999999881,537939.908,537942.5,537948.241,540848.125,8,400,,,
trial,html.Screen,4_83_0,2023-10-31T00:05:23.314Z,,0,2,,4066.474999964237,response,ISIC_6905623.JPG,9,ISIC_6125652.JPG,ISIC_6125652.JPG,false,0,keypress(z),500,544915.1999999881,544914.5999999642,540839.792,540848.5,540848.125,544923.276,8,400,34,,ISIC_6905623.JPG
break,html.Screen,4_83_1,2023-10-31T00:05:23.315Z,,0,,,NaN,,,,,,false,,,,544916.3999999762,544916.0999999642,,544915.5,,544923.276,8,400,,,
break_continue,html.Screen,4_83_2,2023-10-31T00:05:23.316Z,,0,,,NaN,,,,,,false,,,,544916.6999999881,544916.5999999642,,544916.5,,544923.276,8,400,,,
sequence,flow.Sequence,4_83,2023-10-31T00:05:23.316Z,,0,,,4068.474999964237,completion,,,,,false,,,,544916.8000000119,544916.5999999642,540839.792,540848.3999999762,540848.125,544923.276,8,400,,,
trial,html.Screen,4_84_0,2023-10-31T00:05:26.605Z,,0,2,,3281.823999964283,response,ISIC_1569775.JPG,8,ISIC_0000042.JPG,ISIC_1569775.JPG,false,1,keypress(m),500,548205.5999999642,548205.0999999642,544914.943,544917,544923.276,548214.811,8,400,35,,ISIC_0000042.JPG
break,html.Screen,4_84_1,2023-10-31T00:05:26.606Z,,0,,,NaN,,,,,,false,,,,548206.8000000119,548206.5999999642,,548206,,548214.811,8,400,,,
break_continue,html.Screen,4_84_2,2023-10-31T00:05:26.606Z,,0,,,NaN,,,,,,false,,,,548207.1999999881,548207.0999999642,,548207,,548214.811,8,400,,,
sequence,flow.Sequence,4_84,2023-10-31T00:05:26.606Z,,0,,,3283.823999964283,completion,,,,,false,,,,548207.3000000119,548207.0999999642,544914.943,544917,544923.276,548214.811,8,400,,,
trial,html.Screen,4_85_0,2023-10-31T00:05:29.315Z,,0,2,,2700.2889999642503,response,ISIC_0001121.JPG,7,ISIC_5508076.JPG,ISIC_0001121.JPG,false,1,keypress(m),500,550915.5999999642,550915.0999999642,548206.478,548207.5,548214.811,550923.036,8,400,36,,ISIC_5508076.JPG
break,html.Screen,4_85_1,2023-10-31T00:05:29.316Z,,0,,,NaN,,,,,,false,,,,550916.8000000119,550916.5,,550915.8999999762,,550923.036,8,400,,,
break_continue,html.Screen,4_85_2,2023-10-31T00:05:29.316Z,,0,,,NaN,,,,,,false,,,,550917,550916.8999999762,,550916.8000000119,,550923.036,8,400,,,
sequence,flow.Sequence,4_85,2023-10-31T00:05:29.316Z,,0,,,2702.088999976171,completion,,,,,false,,,,550917.0999999642,550916.8999999762,548206.478,548207.3999999762,548214.811,550923.036,8,400,,,
trial,html.Screen,4_86_0,2023-10-31T00:05:33.293Z,,0,2,,3970.4640000000363,response,ISIC_0060452.JPG,8,ISIC_0032718.JPG,ISIC_0032718.JPG,false,0,keypress(z),500,554893.8000000119,554893.5,550914.703,550917.1999999881,550923.036,554906.538,8,400,37,,ISIC_0060452.JPG
break,html.Screen,4_86_1,2023-10-31T00:05:33.293Z,,0,,,NaN,,,,,,false,,,,554894.5,554894.3000000119,,554894,,554906.538,8,400,,,
break_continue,html.Screen,4_86_2,2023-10-31T00:05:33.294Z,,0,,,NaN,,,,,,false,,,,554894.6999999881,554894.6999999881,,554894.5999999642,,554906.538,8,400,,,
sequence,flow.Sequence,4_86,2023-10-31T00:05:33.294Z,,0,,,3971.6639999881154,completion,,,,,false,,,,554894.8000000119,554894.6999999881,550914.703,550917.1999999881,550923.036,554906.538,8,400,,,
trial,html.Screen,4_87_0,2023-10-31T00:05:35.927Z,,0,2,,2620.4620000000577,response,ISIC_0032750.JPG,8,ISIC_7044184.JPG,ISIC_0032750.JPG,false,1,keypress(m),500,557527.6999999881,557527,554898.205,554894.8999999762,554906.538,557531.433,8,400,38,,ISIC_7044184.JPG
break,html.Screen,4_87_1,2023-10-31T00:05:35.928Z,,0,,,NaN,,,,,,false,,,,557528.8999999762,557528.6999999881,,557528,,557531.433,8,400,,,
break_continue,html.Screen,4_87_2,2023-10-31T00:05:35.928Z,,0,,,NaN,,,,,,false,,,,557529.3000000119,557529.1999999881,,557529,,557531.433,8,400,,,
sequence,flow.Sequence,4_87,2023-10-31T00:05:35.928Z,,0,,,2622.661999988137,completion,,,,,false,,,,557529.5,557529.1999999881,554898.205,554894.8000000119,554906.538,557531.433,8,400,,,
trial,html.Screen,4_88_0,2023-10-31T00:05:39.805Z,,0,2,,3874.36700001196,response,ISIC_0862350.JPG,6,ISIC_0055450.JPG,ISIC_0055450.JPG,false,0,keypress(z),500,561406.0999999642,561405.8000000119,557523.1,557529.5999999642,557531.433,561414.611,8,400,39,,ISIC_0862350.JPG
break,html.Screen,4_88_1,2023-10-31T00:05:39.806Z,,0,,,NaN,,,,,,false,,,,561406.6999999881,561406.5999999642,,561406.1999999881,,561414.611,8,400,,,
break_continue,html.Screen,4_88_2,2023-10-31T00:05:39.806Z,,0,,,NaN,,,,,,false,,,,561406.8000000119,561406.8000000119,,561406.6999999881,,561414.611,8,400,,,
sequence,flow.Sequence,4_88,2023-10-31T00:05:39.806Z,,0,,,3875.36700001196,completion,,,,,false,,,,561406.8999999762,561406.8000000119,557523.1,557529.5,557531.433,561414.611,8,400,,,
trial,html.Screen,4_89_0,2023-10-31T00:05:43.296Z,,0,2,,3481.6890000118874,response,ISIC_0032005.JPG,8,ISIC_0004089.JPG,ISIC_0004089.JPG,false,0,keypress(z),500,564896.8999999762,564896.3000000119,561406.278,561407,561414.611,564906.453,8,400,40,,ISIC_0032005.JPG
break,html.Screen,4_89_1,2023-10-31T00:05:43.297Z,,0,,,NaN,,,,,,false,,,,564898.3000000119,564898,,564897.3000000119,,564906.453,8,400,,,
break_continue,html.Screen,4_89_2,2023-10-31T00:05:43.298Z,,0,,,NaN,,,,,,false,,,,564898.8999999762,564898.5,,564898.5,,564906.453,8,400,,,
sequence,flow.Sequence,4_89,2023-10-31T00:05:43.298Z,,0,,,3483.8889999999665,completion,,,,,false,,,,564899.0999999642,564898.5,561406.278,561407,561414.611,564906.453,8,400,,,
trial,html.Screen,4_90_0,2023-10-31T00:05:47.401Z,,0,2,,4095.1469999642577,response,ISIC_8133350.JPG,8,ISIC_0025766.JPG,ISIC_8133350.JPG,false,1,keypress(m),500,569001.6999999881,569001.5999999642,564898.12,564899.1999999881,564906.453,569006.289,8,400,41,,ISIC_0025766.JPG
break,html.Screen,4_90_1,2023-10-31T00:05:47.401Z,,0,,,NaN,,,,,,false,,,,569002.0999999642,569002,,569001.8999999762,,569006.289,8,400,,,
break_continue,html.Screen,4_90_2,2023-10-31T00:05:47.401Z,,0,,,NaN,,,,,,false,,,,569002.1999999881,569002.1999999881,,569002.1999999881,,569006.289,8,400,,,
sequence,flow.Sequence,4_90,2023-10-31T00:05:47.401Z,,0,,,4095.7469999880996,completion,,,,,false,,,,569002.1999999881,569002.1999999881,564898.12,564899.1999999881,564906.453,569006.289,8,400,,,
trial,html.Screen,4_91_0,2023-10-31T00:05:51.021Z,,0,2,,3615.4109999880893,response,ISIC_8397077.JPG,8,ISIC_8727962.JPG,ISIC_8397077.JPG,false,1,keypress(m),500,572622.3999999762,572621.6999999881,568997.956,569002.3000000119,569006.289,572631.144,8,400,42,,ISIC_8727962.JPG
break,html.Screen,4_91_1,2023-10-31T00:05:51.023Z,,0,,,NaN,,,,,,false,,,,572623.6999999881,572623.3999999762,,572622.8000000119,,572631.144,8,400,,,
break_continue,html.Screen,4_91_2,2023-10-31T00:05:51.023Z,,0,,,NaN,,,,,,false,,,,572624,572623.8999999762,,572623.8000000119,,572631.144,8,400,,,
sequence,flow.Sequence,4_91,2023-10-31T00:05:51.023Z,,0,,,3617.6109999761684,completion,,,,,false,,,,572624.1999999881,572623.8999999762,568997.956,569002.1999999881,569006.289,572631.144,8,400,,,
trial,html.Screen,4_92_0,2023-10-31T00:05:54.819Z,,0,2,,3788.455999964266,response,ISIC_0055361.JPG,6,ISIC_4371210.JPG,ISIC_4371210.JPG,false,0,keypress(z),500,576419.8999999762,576419.5999999642,572622.811,572624.3000000119,572631.144,576422.96,8,400,43,,ISIC_0055361.JPG
break,html.Screen,4_92_1,2023-10-31T00:05:54.819Z,,0,,,NaN,,,,,,false,,,,576420.3999999762,576420.3000000119,,576420,,576422.96,8,400,,,
break_continue,html.Screen,4_92_2,2023-10-31T00:05:54.819Z,,0,,,NaN,,,,,,false,,,,576420.5,576420.5,,576420.3999999762,,576422.96,8,400,,,
sequence,flow.Sequence,4_92,2023-10-31T00:05:54.819Z,,0,,,3789.356000000029,completion,,,,,false,,,,576420.5999999642,576420.5,572622.811,572624.1999999881,572631.144,576422.96,8,400,,,
trial,html.Screen,4_93_0,2023-10-31T00:05:58.313Z,,0,2,,3490.9399999761954,response,ISIC_0027956.JPG,7,ISIC_0072422.JPG,ISIC_0072422.JPG,false,0,keypress(z),500,579914.6999999881,579913.8999999762,576414.627,576420.5999999642,576422.96,579922.82,8,400,44,,ISIC_0027956.JPG
break,html.Screen,4_93_1,2023-10-31T00:05:58.315Z,,0,,,NaN,,,,,,false,,,,579915.8999999762,579915.5999999642,,579914.8999999762,,579922.82,8,400,,,
break_continue,html.Screen,4_93_2,2023-10-31T00:05:58.315Z,,0,,,NaN,,,,,,false,,,,579916.3000000119,579916.1999999881,,579916,,579922.82,8,400,,,
sequence,flow.Sequence,4_93,2023-10-31T00:05:58.315Z,,0,,,3493.2399999881163,completion,,,,,false,,,,579916.3999999762,579916.1999999881,576414.627,576420.5999999642,576422.96,579922.82,8,400,,,
trial,html.Screen,4_94_0,2023-10-31T00:06:01.743Z,,0,2,,3420.680000000051,response,ISIC_4702522.JPG,9,ISIC_9125543.JPG,ISIC_9125543.JPG,false,0,keypress(z),500,583343.8000000119,583343.5,579914.487,579916.5,579922.82,583348.023,8,400,45,,ISIC_4702522.JPG
break,html.Screen,4_94_1,2023-10-31T00:06:01.743Z,,0,,,NaN,,,,,,false,,,,583344.5,583344.3000000119,,583344,,583348.023,8,400,,,
break_continue,html.Screen,4_94_2,2023-10-31T00:06:01.743Z,,0,,,NaN,,,,,,false,,,,583344.6999999881,583344.5,,583344.5,,583348.023,8,400,,,
sequence,flow.Sequence,4_94,2023-10-31T00:06:01.744Z,,0,,,3421.680000000051,completion,,,,,false,,,,583344.6999999881,583344.5,579914.487,579916.5,579922.82,583348.023,8,400,,,
trial,html.Screen,4_95_0,2023-10-31T00:06:05.540Z,,0,2,,3792.5769999641925,response,ISIC_0011409.JPG,7,ISIC_1578399.JPG,ISIC_0011409.JPG,false,1,keypress(m),500,587141.3000000119,587140.5999999642,583339.69,583344.6999999881,583348.023,587147.871,8,400,46,,ISIC_1578399.JPG
break,html.Screen,4_95_1,2023-10-31T00:06:05.541Z,,0,,,NaN,,,,,,false,,,,587142.5,587142.1999999881,,587141.5999999642,,587147.871,8,400,,,
break_continue,html.Screen,4_95_2,2023-10-31T00:06:05.542Z,,0,,,NaN,,,,,,false,,,,587142.8999999762,587142.8000000119,,587142.6999999881,,587147.871,8,400,,,
sequence,flow.Sequence,4_95,2023-10-31T00:06:05.542Z,,0,,,3794.777000011876,completion,,,,,false,,,,587142.8999999762,587142.8000000119,583339.69,583344.6999999881,583348.023,587147.871,8,400,,,
trial,html.Screen,4_96_0,2023-10-31T00:06:08.874Z,,0,2,,3326.628999999957,response,ISIC_0046908.JPG,6,ISIC_0062087.JPG,ISIC_0062087.JPG,false,0,keypress(z),500,590474.8000000119,590474.5,587139.538,587143.0999999642,587147.871,590481.071,8,400,47,,ISIC_0046908.JPG
break,html.Screen,4_96_1,2023-10-31T00:06:08.874Z,,0,,,NaN,,,,,,false,,,,590475.1999999881,590475.0999999642,,590474.8999999762,,590481.071,8,400,,,
break_continue,html.Screen,4_96_2,2023-10-31T00:06:08.874Z,,0,,,NaN,,,,,,false,,,,590475.1999999881,590475.1999999881,,590475.1999999881,,590481.071,8,400,,,
sequence,flow.Sequence,4_96,2023-10-31T00:06:08.874Z,,0,,,3327.3289999880362,completion,,,,,false,,,,590475.3000000119,590475.1999999881,587139.538,587143,587147.871,590481.071,8,400,,,
trial,html.Screen,4_97_0,2023-10-31T00:06:12.254Z,,0,2,,3373.028999964241,response,ISIC_6732560.JPG,6,ISIC_6938608.JPG,ISIC_6938608.JPG,false,0,keypress(z),500,593854.6999999881,593854.0999999642,590472.738,590475.3000000119,590481.071,593856.245,8,400,48,,ISIC_6732560.JPG
break,html.Screen,4_97_1,2023-10-31T00:06:12.255Z,,0,,,NaN,,,,,,false,,,,593856.0999999642,593855.8000000119,,593855.1999999881,,593856.245,8,400,,,
break_continue,html.Screen,4_97_2,2023-10-31T00:06:12.255Z,,0,,,NaN,,,,,,false,,,,593856.3999999762,593856.1999999881,,593856.0999999642,,593856.245,8,400,,,
sequence,flow.Sequence,4_97,2023-10-31T00:06:12.255Z,,0,,,3375.128999988083,completion,,,,,false,,,,593856.5,593856.1999999881,590472.738,590475.3000000119,590481.071,593856.245,8,400,,,
trial,html.Screen,4_98_0,2023-10-31T00:06:15.410Z,,0,2,,3154.7550000000047,response,ISIC_3981101.JPG,6,ISIC_4378189.JPG,ISIC_4378189.JPG,false,0,keypress(z),500,597011.5999999642,597011,593847.912,593856.8000000119,593856.245,597022.785,8,400,49,,ISIC_3981101.JPG
break,html.Screen,4_98_1,2023-10-31T00:06:15.412Z,,0,,,NaN,,,,,,false,,,,597013.3999999762,597013.1999999881,,597012.1999999881,,597022.785,8,400,,,
break_continue,html.Screen,4_98_2,2023-10-31T00:06:15.413Z,,0,,,NaN,,,,,,false,,,,597013.6999999881,597013.6999999881,,597013.5,,597022.785,8,400,,,
sequence,flow.Sequence,4_98,2023-10-31T00:06:15.413Z,,0,,,3157.4549999880837,completion,,,,,false,,,,597013.8999999762,597013.6999999881,593847.912,593856.5999999642,593856.245,597022.785,8,400,,,
trial,html.Screen,4_99_0,2023-10-31T00:06:18.777Z,,0,2,,3354.6149999761255,response,ISIC_5514594.JPG,5,ISIC_9471156.JPG,ISIC_9471156.JPG,false,0,keypress(z),500,600378,600377.3999999762,597014.452,597014,597022.785,600389.317,8,400,50,,ISIC_5514594.JPG
break,html.Screen,4_99_1,2023-10-31T00:06:28.783Z,,0,,,10000.037000000011,timeout,,,,,false,,,,610384.3999999762,610381.021,600380.984,600378.3999999762,600389.317,610389.354,8,400,,,
break_continue,html.Screen,4_99_2,2023-10-31T00:06:29.902Z,,0,,,1100.4460000118706,response,,,,,false,continue,keypress(Space),,611503.0999999642,611489.8000000119,610381.021,610384.6999999881,610389.354,611505.976,8,400,,,
sequence,flow.Sequence,4_99,2023-10-31T00:06:29.902Z,,0,,,14467.015000011888,completion,,,,,false,,,,611503.1999999881,611489.8000000119,597014.452,597014,597022.785,611505.976,8,400,,,
trial,html.Screen,4_100_0,2023-10-31T00:06:33.474Z,,0,3,,3568.723999988055,response,ISIC_0032624.JPG,8,ISIC_5358568.JPG,ISIC_0032624.JPG,false,1,keypress(m),500,615075.3999999762,615074.6999999881,611497.643,611503.3000000119,611505.976,615080.833,8,400,1,,ISIC_5358568.JPG
break,html.Screen,4_100_1,2023-10-31T00:06:33.475Z,,0,,,NaN,,,,,,false,,,,615076.6999999881,615076.3999999762,,615075.8000000119,,615080.833,8,400,,,
break_continue,html.Screen,4_100_2,2023-10-31T00:06:33.476Z,,0,,,NaN,,,,,,false,,,,615077,615076.8999999762,,615076.8000000119,,615080.833,8,400,,,
sequence,flow.Sequence,4_100,2023-10-31T00:06:33.476Z,,0,,,3570.923999976134,completion,,,,,false,,,,615077.1999999881,615076.8999999762,611497.643,611503.3000000119,611505.976,615080.833,8,400,,,
trial,html.Screen,4_101_0,2023-10-31T00:06:36.200Z,,0,3,,2719.4670000119368,response,ISIC_0014557.JPG,7,ISIC_7206167.JPG,ISIC_0014557.JPG,false,1,keypress(m),500,617800.8999999762,617800.3000000119,615072.5,615077.3999999762,615080.833,617806.056,8,400,2,,ISIC_7206167.JPG
break,html.Screen,4_101_1,2023-10-31T00:06:36.201Z,,0,,,NaN,,,,,,false,,,,617802.1999999881,617802,,617801.3999999762,,617806.056,8,400,,,
break_continue,html.Screen,4_101_2,2023-10-31T00:06:36.201Z,,0,,,NaN,,,,,,false,,,,617802.5,617802.3999999762,,617802.3000000119,,617806.056,8,400,,,
sequence,flow.Sequence,4_101,2023-10-31T00:06:36.201Z,,0,,,2721.566999976174,completion,,,,,false,,,,617802.5999999642,617802.3999999762,615072.5,615077.3000000119,615080.833,617806.056,8,400,,,
trial,html.Screen,4_102_0,2023-10-31T00:06:39.631Z,,0,3,,3426.043999964255,response,ISIC_1874480.JPG,8,ISIC_0033416.JPG,ISIC_0033416.JPG,false,0,keypress(z),500,621232.8000000119,621232.0999999642,617797.723,617802.6999999881,617806.056,621239.252,8,400,3,,ISIC_1874480.JPG
break,html.Screen,4_102_1,2023-10-31T00:06:39.633Z,,0,,,NaN,,,,,,false,,,,621233.8999999762,621233.6999999881,,621233.0999999642,,621239.252,8,400,,,
break_continue,html.Screen,4_102_2,2023-10-31T00:06:39.633Z,,0,,,NaN,,,,,,false,,,,621234.1999999881,621234.0999999642,,621234.0999999642,,621239.252,8,400,,,
sequence,flow.Sequence,4_102,2023-10-31T00:06:39.633Z,,0,,,3428.043999964255,completion,,,,,false,,,,621234.3000000119,621234.0999999642,617797.723,617802.6999999881,617806.056,621239.252,8,400,,,
trial,html.Screen,4_103_0,2023-10-31T00:06:42.743Z,,0,3,,3104.7480000000214,response,ISIC_5514594.JPG,8,ISIC_9223156.JPG,ISIC_9223156.JPG,false,0,keypress(z),500,624344.3999999762,624344,621230.919,621234.3999999762,621239.252,624347.461,8,400,4,,ISIC_5514594.JPG
break,html.Screen,4_103_1,2023-10-31T00:06:42.744Z,,0,,,NaN,,,,,,false,,,,624345.5,624345.3000000119,,624344.6999999881,,624347.461,8,400,,,
break_continue,html.Screen,4_103_2,2023-10-31T00:06:42.744Z,,0,,,NaN,,,,,,false,,,,624345.6999999881,624345.5999999642,,624345.5,,624347.461,8,400,,,
sequence,flow.Sequence,4_103,2023-10-31T00:06:42.744Z,,0,,,3106.3479999642586,completion,,,,,false,,,,624345.8000000119,624345.5999999642,621230.919,621234.3999999762,621239.252,624347.461,8,400,,,
trial,html.Screen,4_104_0,2023-10-31T00:06:46.688Z,,0,3,,3940.738999988069,response,ISIC_7765349.JPG,6,ISIC_3909039.JPG,ISIC_3909039.JPG,false,0,keypress(z),500,628288.8000000119,628288.1999999881,624339.128,624345.8999999762,624347.461,628297.638,8,400,5,,ISIC_7765349.JPG
break,html.Screen,4_104_1,2023-10-31T00:06:46.689Z,,0,,,NaN,,,,,,false,,,,628290.0999999642,628289.8000000119,,628289.1999999881,,628297.638,8,400,,,
break_continue,html.Screen,4_104_2,2023-10-31T00:06:46.689Z,,0,,,NaN,,,,,,false,,,,628290.3999999762,628290.3000000119,,628290.1999999881,,628297.638,8,400,,,
sequence,flow.Sequence,4_104,2023-10-31T00:06:46.689Z,,0,,,3942.8390000119107,completion,,,,,false,,,,628290.5999999642,628290.3000000119,624339.128,624345.8999999762,624347.461,628297.638,8,400,,,
trial,html.Screen,4_105_0,2023-10-31T00:06:50.843Z,,0,3,,4146.261999976123,response,ISIC_0009488.JPG,7,ISIC_6192289.JPG,ISIC_0009488.JPG,false,1,keypress(m),500,632444.5999999642,632443.8999999762,628289.305,628290.8000000119,628297.638,632455.805,8,400,6,,ISIC_6192289.JPG
break,html.Screen,4_105_1,2023-10-31T00:06:50.847Z,,0,,,NaN,,,,,,false,,,,632448.3999999762,632448,,632445,,632455.805,8,400,,,
break_continue,html.Screen,4_105_2,2023-10-31T00:06:50.848Z,,0,,,NaN,,,,,,false,,,,632448.8999999762,632448.6999999881,,632448.5,,632455.805,8,400,,,
sequence,flow.Sequence,4_105,2023-10-31T00:06:50.848Z,,0,,,4151.061999988044,completion,,,,,false,,,,632449,632448.6999999881,628289.305,628290.8000000119,628297.638,632455.805,8,400,,,
trial,html.Screen,4_106_0,2023-10-31T00:06:55.609Z,,0,3,,4753.794999964186,response,ISIC_9174306.JPG,7,ISIC_0011904.JPG,ISIC_0011904.JPG,false,0,keypress(z),500,637210.3000000119,637209.5999999642,632447.472,632449.0999999642,632455.805,637213.948,8,400,7,,ISIC_9174306.JPG
break,html.Screen,4_106_1,2023-10-31T00:06:55.610Z,,0,,,NaN,,,,,,false,,,,637211.5999999642,637211.3000000119,,637210.5999999642,,637213.948,8,400,,,
break_continue,html.Screen,4_106_2,2023-10-31T00:06:55.611Z,,0,,,NaN,,,,,,false,,,,637211.8999999762,637211.8000000119,,637211.6999999881,,637213.948,8,400,,,
sequence,flow.Sequence,4_106,2023-10-31T00:06:55.611Z,,0,,,4755.99500001187,completion,,,,,false,,,,637212,637211.8000000119,632447.472,632449.0999999642,632455.805,637213.948,8,400,,,
trial,html.Screen,4_107_0,2023-10-31T00:07:00.308Z,,0,3,,4694.251999988104,response,ISIC_3819893.JPG,7,ISIC_0012068.JPG,ISIC_3819893.JPG,false,1,keypress(m),500,641908.8999999762,641908.1999999881,637205.615,637212.0999999642,637213.948,641914.066,8,400,8,,ISIC_0012068.JPG
break,html.Screen,4_107_1,2023-10-31T00:07:00.309Z,,0,,,NaN,,,,,,false,,,,641909.8999999762,641909.6999999881,,641909.0999999642,,641914.066,8,400,,,
break_continue,html.Screen,4_107_2,2023-10-31T00:07:00.309Z,,0,,,NaN,,,,,,false,,,,641910.0999999642,641910.0999999642,,641909.8999999762,,641914.066,8,400,,,
sequence,flow.Sequence,4_107,2023-10-31T00:07:00.309Z,,0,,,4696.151999964262,completion,,,,,false,,,,641910.1999999881,641910.0999999642,637205.615,637212,637213.948,641914.066,8,400,,,
trial,html.Screen,4_108_0,2023-10-31T00:07:04.360Z,,0,3,,4046.3339999761665,response,ISIC_1113629.JPG,8,ISIC_4232756.JPG,ISIC_1113629.JPG,false,1,keypress(m),500,645961,645960.3999999762,641905.733,641910.3999999762,641914.066,645963.904,8,400,9,,ISIC_4232756.JPG
break,html.Screen,4_108_1,2023-10-31T00:07:04.361Z,,0,,,NaN,,,,,,false,,,,645962.3000000119,645962,,645961.3999999762,,645963.904,8,400,,,
break_continue,html.Screen,4_108_2,2023-10-31T00:07:04.361Z,,0,,,NaN,,,,,,false,,,,645962.5999999642,645962.5,,645962.3999999762,,645963.904,8,400,,,
sequence,flow.Sequence,4_108,2023-10-31T00:07:04.361Z,,0,,,4048.4340000000084,completion,,,,,false,,,,645962.8000000119,645962.5,641905.733,641910.3000000119,641914.066,645963.904,8,400,,,
trial,html.Screen,4_109_0,2023-10-31T00:07:08.031Z,,0,3,,3667.5960000000196,response,ISIC_0010580.JPG,6,ISIC_2507845.JPG,ISIC_0010580.JPG,false,1,keypress(m),500,649632.0999999642,649631.5,645955.571,645962.8999999762,645963.904,649639.094,8,400,10,,ISIC_2507845.JPG
break,html.Screen,4_109_1,2023-10-31T00:07:08.032Z,,0,,,NaN,,,,,,false,,,,649633.3999999762,649633.0999999642,,649632.3999999762,,649639.094,8,400,,,
break_continue,html.Screen,4_109_2,2023-10-31T00:07:08.032Z,,0,,,NaN,,,,,,false,,,,649633.5999999642,649633.5,,649633.5,,649639.094,8,400,,,
sequence,flow.Sequence,4_109,2023-10-31T00:07:08.032Z,,0,,,3669.5960000000196,completion,,,,,false,,,,649633.6999999881,649633.5,645955.571,645962.8999999762,645963.904,649639.094,8,400,,,
trial,html.Screen,4_110_0,2023-10-31T00:07:11.382Z,,0,3,,3343.405999999959,response,ISIC_9424787.JPG,7,ISIC_7172145.JPG,ISIC_7172145.JPG,false,0,keypress(z),500,652983.0999999642,652982.5,649630.761,649633.8000000119,649639.094,652988.96,8,400,11,,ISIC_9424787.JPG
break,html.Screen,4_110_1,2023-10-31T00:07:11.383Z,,0,,,NaN,,,,,,false,,,,652984.3999999762,652984.0999999642,,652983.5,,652988.96,8,400,,,
break_continue,html.Screen,4_110_2,2023-10-31T00:07:11.383Z,,0,,,NaN,,,,,,false,,,,652984.6999999881,652984.5999999642,,652984.5,,652988.96,8,400,,,
sequence,flow.Sequence,4_110,2023-10-31T00:07:11.383Z,,0,,,3345.5059999641962,completion,,,,,false,,,,652984.8000000119,652984.5999999642,649630.761,649633.6999999881,649639.094,652988.96,8,400,,,
trial,html.Screen,4_111_0,2023-10-31T00:07:14.541Z,,0,3,,3152.5400000000373,response,ISIC_0010879.JPG,5,ISIC_0066399.JPG,ISIC_0066399.JPG,false,0,keypress(z),500,656142.0999999642,656141.5,652980.627,652984.8999999762,652988.96,656147.167,8,400,12,,ISIC_0010879.JPG
break,html.Screen,4_111_1,2023-10-31T00:07:14.542Z,,0,,,NaN,,,,,,false,,,,656143.3000000119,656143,,656142.3999999762,,656147.167,8,400,,,
break_continue,html.Screen,4_111_2,2023-10-31T00:07:14.542Z,,0,,,NaN,,,,,,false,,,,656143.5,656143.3999999762,,656143.3000000119,,656147.167,8,400,,,
sequence,flow.Sequence,4_111,2023-10-31T00:07:14.542Z,,0,,,3154.4399999761954,completion,,,,,false,,,,656143.5999999642,656143.3999999762,652980.627,652984.8999999762,652988.96,656147.167,8,400,,,
trial,html.Screen,4_112_0,2023-10-31T00:07:18.134Z,,0,3,,3587.2329999761423,response,ISIC_3072382.JPG,8,ISIC_0033228.JPG,ISIC_3072382.JPG,false,1,keypress(m),500,659735.0999999642,659734.3999999762,656138.834,656143.6999999881,656147.167,659739.021,8,400,13,,ISIC_0033228.JPG
break,html.Screen,4_112_1,2023-10-31T00:07:18.135Z,,0,,,NaN,,,,,,false,,,,659736.3000000119,659736,,659735.3999999762,,659739.021,8,400,,,
break_continue,html.Screen,4_112_2,2023-10-31T00:07:18.135Z,,0,,,NaN,,,,,,false,,,,659736.6999999881,659736.5,,659736.3999999762,,659739.021,8,400,,,
sequence,flow.Sequence,4_112,2023-10-31T00:07:18.135Z,,0,,,3589.332999999984,completion,,,,,false,,,,659736.8999999762,659736.5,656138.834,656143.5999999642,656147.167,659739.021,8,400,,,
trial,html.Screen,4_113_0,2023-10-31T00:07:21.663Z,,0,3,,3524.8789999762084,response,ISIC_0010765.JPG,7,ISIC_7409889.JPG,ISIC_0010765.JPG,false,1,keypress(m),500,663264.1999999881,663263.8999999762,659730.688,659736.8999999762,659739.021,663272.213,8,400,14,,ISIC_7409889.JPG
break,html.Screen,4_113_1,2023-10-31T00:07:21.663Z,,0,,,NaN,,,,,,false,,,,663264.8000000119,663264.6999999881,,663264.3999999762,,663272.213,8,400,,,
break_continue,html.Screen,4_113_2,2023-10-31T00:07:21.664Z,,0,,,NaN,,,,,,false,,,,663265,663264.8999999762,,663264.8000000119,,663272.213,8,400,,,
sequence,flow.Sequence,4_113,2023-10-31T00:07:21.664Z,,0,,,3525.8789999762084,completion,,,,,false,,,,663265.0999999642,663264.8999999762,659730.688,659736.8999999762,659739.021,663272.213,8,400,,,
trial,html.Screen,4_114_0,2023-10-31T00:07:24.921Z,,0,3,,3249.1869999761693,response,ISIC_6868089.JPG,8,ISIC_1334038.JPG,ISIC_1334038.JPG,false,0,keypress(z),500,666522,666521.3999999762,663263.88,663265.0999999642,663272.213,666530.416,8,400,15,,ISIC_6868089.JPG
break,html.Screen,4_114_1,2023-10-31T00:07:24.922Z,,0,,,NaN,,,,,,false,,,,666523.3000000119,666523,,666522.3999999762,,666530.416,8,400,,,
break_continue,html.Screen,4_114_2,2023-10-31T00:07:24.922Z,,0,,,NaN,,,,,,false,,,,666523.8000000119,666523.5999999642,,666523.5,,666530.416,8,400,,,
sequence,flow.Sequence,4_114,2023-10-31T00:07:24.923Z,,0,,,3251.3869999642484,completion,,,,,false,,,,666524,666523.5999999642,663263.88,663265.0999999642,663272.213,666530.416,8,400,,,
trial,html.Screen,4_115_0,2023-10-31T00:07:30.866Z,,0,3,,5936.98399997619,response,ISIC_3148886.JPG,8,ISIC_0032988.JPG,ISIC_0032988.JPG,false,0,keypress(z),500,672467.5999999642,672467.3999999762,666522.083,666524.0999999642,666530.416,672472.177,8,400,16,,ISIC_3148886.JPG
break,html.Screen,4_115_1,2023-10-31T00:07:30.867Z,,0,,,NaN,,,,,,false,,,,672468.0999999642,672468,,672467.6999999881,,672472.177,8,400,,,
break_continue,html.Screen,4_115_2,2023-10-31T00:07:30.867Z,,0,,,NaN,,,,,,false,,,,672468.1999999881,672468.1999999881,,672468.0999999642,,672472.177,8,400,,,
sequence,flow.Sequence,4_115,2023-10-31T00:07:30.867Z,,0,,,5937.783999988111,completion,,,,,false,,,,672468.1999999881,672468.1999999881,666522.083,666524,666530.416,672472.177,8,400,,,
trial,html.Screen,4_116_0,2023-10-31T00:07:34.568Z,,0,3,,3696.123000011896,response,ISIC_7491389.JPG,8,ISIC_0000445.JPG,ISIC_0000445.JPG,false,0,keypress(z),500,676169,676168.3000000119,672463.844,672468.3000000119,672472.177,676172.029,8,400,17,,ISIC_7491389.JPG
break,html.Screen,4_116_1,2023-10-31T00:07:34.569Z,,0,,,NaN,,,,,,false,,,,676170.3000000119,676170,,676169.3000000119,,676172.029,8,400,,,
break_continue,html.Screen,4_116_2,2023-10-31T00:07:34.569Z,,0,,,NaN,,,,,,false,,,,676170.5999999642,676170.5,,676170.3999999762,,676172.029,8,400,,,
sequence,flow.Sequence,4_116,2023-10-31T00:07:34.569Z,,0,,,3698.322999999975,completion,,,,,false,,,,676170.8000000119,676170.5,672463.844,672468.3000000119,672472.177,676172.029,8,400,,,
trial,html.Screen,4_117_0,2023-10-31T00:07:37.917Z,,0,3,,3345.6709999880986,response,ISIC_0062991.JPG,6,ISIC_9948815.JPG,ISIC_9948815.JPG,false,0,keypress(z),500,679518.1999999881,679517.6999999881,676163.696,676170.8999999762,676172.029,679521.895,8,400,18,,ISIC_0062991.JPG
break,html.Screen,4_117_1,2023-10-31T00:07:37.918Z,,0,,,NaN,,,,,,false,,,,679519.5999999642,679519.3000000119,,679518.5999999642,,679521.895,8,400,,,
break_continue,html.Screen,4_117_2,2023-10-31T00:07:37.918Z,,0,,,NaN,,,,,,false,,,,679519.8999999762,679519.8000000119,,679519.5999999642,,679521.895,8,400,,,
sequence,flow.Sequence,4_117,2023-10-31T00:07:37.919Z,,0,,,3347.7710000119405,completion,,,,,false,,,,679520.0999999642,679519.8000000119,676163.696,676170.8000000119,676172.029,679521.895,8,400,,,
trial,html.Screen,4_118_0,2023-10-31T00:07:40.802Z,,0,3,,2880.1049999999814,response,ISIC_1685962.JPG,7,ISIC_9760652.JPG,ISIC_1685962.JPG,false,1,keypress(m),500,682403,682402,679513.562,679520.1999999881,679521.895,682413.78,8,400,19,,ISIC_9760652.JPG
break,html.Screen,4_118_1,2023-10-31T00:07:40.803Z,,0,,,NaN,,,,,,false,,,,682404.3000000119,682404,,682403.3999999762,,682413.78,8,400,,,
break_continue,html.Screen,4_118_2,2023-10-31T00:07:40.803Z,,0,,,NaN,,,,,,false,,,,682404.6999999881,682404.5999999642,,682404.5,,682413.78,8,400,,,
sequence,flow.Sequence,4_118,2023-10-31T00:07:40.804Z,,0,,,2882.7049999642186,completion,,,,,false,,,,682405,682404.5999999642,679513.562,679520.1999999881,679521.895,682413.78,8,400,,,
trial,html.Screen,4_119_0,2023-10-31T00:07:43.662Z,,0,3,,2848.919999988051,response,ISIC_0054925.JPG,7,ISIC_4332846.JPG,ISIC_0054925.JPG,false,1,keypress(m),500,685263.3999999762,685262.6999999881,682405.447,682405.3000000119,682413.78,685271.999,8,400,20,,ISIC_4332846.JPG
break,html.Screen,4_119_1,2023-10-31T00:07:43.663Z,,0,,,NaN,,,,,,false,,,,685264.8000000119,685264.3999999762,,685263.6999999881,,685271.999,8,400,,,
break_continue,html.Screen,4_119_2,2023-10-31T00:07:43.664Z,,0,,,NaN,,,,,,false,,,,685265.1999999881,685265.0999999642,,685265,,685271.999,8,400,,,
sequence,flow.Sequence,4_119,2023-10-31T00:07:43.664Z,,0,,,2851.3199999642093,completion,,,,,false,,,,685265.3999999762,685265.0999999642,682405.447,682405.0999999642,682413.78,685271.999,8,400,,,
trial,html.Screen,4_120_0,2023-10-31T00:07:47.047Z,,0,3,,3375.1009999642847,response,ISIC_7185913.JPG,8,ISIC_6945921.JPG,ISIC_7185913.JPG,false,1,keypress(m),500,688648,688647.0999999642,685263.666,685265.6999999881,685271.999,688655.197,8,400,21,,ISIC_6945921.JPG
break,html.Screen,4_120_1,2023-10-31T00:07:47.048Z,,0,,,NaN,,,,,,false,,,,688649.3000000119,688649,,688648.3000000119,,688655.197,8,400,,,
break_continue,html.Screen,4_120_2,2023-10-31T00:07:47.048Z,,0,,,NaN,,,,,,false,,,,688649.6999999881,688649.5,,688649.5,,688655.197,8,400,,,
sequence,flow.Sequence,4_120,2023-10-31T00:07:47.048Z,,0,,,3377.5010000000475,completion,,,,,false,,,,688649.8000000119,688649.5,685263.666,685265.6999999881,685271.999,688655.197,8,400,,,
trial,html.Screen,4_121_0,2023-10-31T00:07:49.757Z,,0,3,,2702.5029999880353,response,ISIC_0024808.JPG,9,ISIC_0002639.JPG,ISIC_0024808.JPG,false,1,keypress(m),500,691358.3999999762,691357.6999999881,688646.864,688650,688655.197,691363.745,8,400,22,,ISIC_0002639.JPG
break,html.Screen,4_121_1,2023-10-31T00:07:49.758Z,,0,,,NaN,,,,,,false,,,,691359.6999999881,691359.3999999762,,691358.6999999881,,691363.745,8,400,,,
break_continue,html.Screen,4_121_2,2023-10-31T00:07:49.759Z,,0,,,NaN,,,,,,false,,,,691360.0999999642,691359.8999999762,,691359.8000000119,,691363.745,8,400,,,
sequence,flow.Sequence,4_121,2023-10-31T00:07:49.759Z,,0,,,2704.7029999761144,completion,,,,,false,,,,691360.3999999762,691359.8999999762,688646.864,688649.8999999762,688655.197,691363.745,8,400,,,
trial,html.Screen,4_122_0,2023-10-31T00:07:52.899Z,,0,3,,3136.154999976163,response,ISIC_6180870.JPG,5,ISIC_7575957.JPG,ISIC_7575957.JPG,false,0,keypress(z),500,694500.5,694499.8999999762,691355.412,691360.3999999762,691363.745,694505.286,8,400,23,,ISIC_6180870.JPG
break,html.Screen,4_122_1,2023-10-31T00:07:52.900Z,,0,,,NaN,,,,,,false,,,,694501.5999999642,694501.3000000119,,694500.8000000119,,694505.286,8,400,,,
break_continue,html.Screen,4_122_2,2023-10-31T00:07:52.901Z,,0,,,NaN,,,,,,false,,,,694502,694501.8000000119,,694501.6999999881,,694505.286,8,400,,,
sequence,flow.Sequence,4_122,2023-10-31T00:07:52.901Z,,0,,,3138.0550000119256,completion,,,,,false,,,,694502.0999999642,694501.8000000119,691355.412,691360.3999999762,691363.745,694505.286,8,400,,,
trial,html.Screen,4_123_0,2023-10-31T00:07:56.031Z,,0,3,,3126.8139999642735,response,ISIC_4069690.JPG,7,ISIC_0033239.JPG,ISIC_4069690.JPG,false,1,keypress(m),500,697632.6999999881,697632.0999999642,694496.953,694502.1999999881,694505.286,697638.494,8,400,24,,ISIC_0033239.JPG
break,html.Screen,4_123_1,2023-10-31T00:07:56.032Z,,0,,,NaN,,,,,,false,,,,697633.8999999762,697633.6999999881,,697633.0999999642,,697638.494,8,400,,,
break_continue,html.Screen,4_123_2,2023-10-31T00:07:56.033Z,,0,,,NaN,,,,,,false,,,,697634.5,697634.3999999762,,697634.3000000119,,697638.494,8,400,,,
sequence,flow.Sequence,4_123,2023-10-31T00:07:56.033Z,,0,,,3129.1139999761945,completion,,,,,false,,,,697634.8000000119,697634.3999999762,694496.953,694502.1999999881,694505.286,697638.494,8,400,,,
trial,html.Screen,4_124_0,2023-10-31T00:07:59.784Z,,0,3,,3746.506000000052,response,ISIC_2056104.JPG,8,ISIC_1004416.JPG,ISIC_1004416.JPG,false,0,keypress(z),500,701385.1999999881,701385,697630.161,697635,697638.494,701388.656,8,400,25,,ISIC_2056104.JPG
break,html.Screen,4_124_1,2023-10-31T00:07:59.784Z,,0,,,NaN,,,,,,false,,,,701385.8000000119,701385.5999999642,,701385.3999999762,,701388.656,8,400,,,
break_continue,html.Screen,4_124_2,2023-10-31T00:07:59.784Z,,0,,,NaN,,,,,,false,,,,701386,701385.8999999762,,701385.8999999762,,701388.656,8,400,,,
sequence,flow.Sequence,4_124,2023-10-31T00:07:59.785Z,,0,,,3747.4059999762103,completion,,,,,false,,,,701386.0999999642,701385.8999999762,697630.161,697635,697638.494,701388.656,8,400,,,
trial,html.Screen,4_125_0,2023-10-31T00:08:02.863Z,,0,3,,3075.844000000041,response,ISIC_0062204.JPG,7,ISIC_8873236.JPG,ISIC_0062204.JPG,false,1,keypress(m),500,704464.8000000119,704464.5,701380.323,701386.0999999642,701388.656,704471.866,8,400,26,,ISIC_8873236.JPG
break,html.Screen,4_125_1,2023-10-31T00:08:02.864Z,,0,,,NaN,,,,,,false,,,,704465.5,704465.3000000119,,704465,,704471.866,8,400,,,
break_continue,html.Screen,4_125_2,2023-10-31T00:08:02.864Z,,0,,,NaN,,,,,,false,,,,704465.5999999642,704465.5999999642,,704465.5,,704471.866,8,400,,,
sequence,flow.Sequence,4_125,2023-10-31T00:08:02.864Z,,0,,,3076.943999964278,completion,,,,,false,,,,704465.6999999881,704465.5999999642,701380.323,701386.0999999642,701388.656,704471.866,8,400,,,
