sender,sender_type,sender_id,timestamp,meta,,blockNo,condition,duration,ended_on,img_left,img_reveal,img_right,loser,practice,response,response_action,selection_duration,time_commit,time_end,time_render,time_run,time_show,time_switch,total_blocks,total_trials,trialNo,url,winner
informed_consent,html.Screen,0,2023-09-16T02:41:25.087Z,"{""labjs_version"":""20.2.4"",""labjs_build"":{""flavor"":""production"",""commit"":""f5b4a49f956347addd546a832a3327688c2c0fef""},""location"":""https://run.pavlovia.org/MurrayBennett/melanoma-2afc/?participant=66890&platform=sona"",""userAgent"":""Mozilla/5.0 (Windows NT 10.0; Win64; x64) AppleWebKit/537.36 (KHTML, like Gecko) Chrome/116.0.0.0 Safari/537.36"",""platform"":""Win32"",""language"":""en-US"",""locale"":""en-US"",""timeZone"":""America/Chicago"",""timezoneOffset"":300,""screen_width"":1366,""screen_height"":768,""scroll_width"":1366,""scroll_height"":603,""window_innerWidth"":1366,""window_innerHeight"":651,""devicePixelRatio"":1}",,,,78444.23699995232,response,,,,,,consent,click button,,82875.79999995232,82872.79999995232,3728.696,4424.5,4428.563,82888.47,,,,"{""participant"":""66890"",""platform"":""sona""}",
Welcome,html.Screen,1,2023-09-16T02:41:27.892Z,,,,colourful,2791.329999952315,response,,,,,,continue,click button,,85681,85679.79999995232,82871.992,82876,82888.47,85688.219,,,,,
trial,html.Screen,2_0_0,2023-09-16T02:41:39.384Z,,0,0,,11515.775999999998,timeout,ISIC_0063388.JPG,,ISIC_0025593.JPG,,true,,,500,97172.70000004768,97172.29999995232,85671.663,85681.39999997616,85688.219,97203.995,1,6,1,,
sequence,flow.Sequence,2_0,2023-09-16T02:41:39.385Z,,0,,,11484.080999952319,completion,,,,,true,,,,97173.39999997616,97172.29999995232,85671.663,85681.39999997616,85688.219,97203.995,1,6,,,
trial,html.Screen,2_1_0,2023-09-16T02:41:50.900Z,,0,0,,11515.728000000003,timeout,ISIC_0028178.JPG,,ISIC_1309015.JPG,,true,,,500,108688.5,108687.89999997616,97187.334,97173.70000004768,97203.995,108719.723,1,6,2,,
sequence,flow.Sequence,2_1,2023-09-16T02:41:50.900Z,,0,,,11483.904999976163,completion,,,,,true,,,,108689.10000002384,108687.89999997616,97187.334,97173.60000002384,97203.995,108719.723,1,6,,,
trial,html.Screen,2_2_0,2023-09-16T02:42:02.414Z,,0,0,,11515.634999999995,timeout,ISIC_0031128.JPG,,ISIC_3314853.JPG,,true,,,500,120203.29999995232,120202.89999997616,108702.98,108689.5,108719.723,120235.358,1,6,3,,
sequence,flow.Sequence,2_2,2023-09-16T02:42:02.415Z,,0,,,11483.17699997616,completion,,,,,true,,,,120203.79999995232,120202.89999997616,108702.98,108689.39999997616,108719.723,120235.358,1,6,,,
trial,html.Screen,2_3_0,2023-09-16T02:42:13.930Z,,0,0,,11515.690000000017,timeout,ISIC_0031612.JPG,,ISIC_8980141.JPG,,true,,,500,131719,131718.70000004768,120218.807,120204.20000004768,120235.358,131751.048,1,6,4,,
sequence,flow.Sequence,2_3,2023-09-16T02:42:13.931Z,,0,,,11483.34200004769,completion,,,,,true,,,,131719.60000002384,131718.70000004768,120218.807,120204.10000002384,120235.358,131751.048,1,6,,,
trial,html.Screen,2_4_0,2023-09-16T02:42:25.446Z,,0,0,,11515.661999999982,timeout,ISIC_1197737.JPG,,ISIC_9721604.JPG,,true,,,500,143234.70000004768,143234.29999995232,131734.347,131720,131751.048,143266.71,1,6,5,,
sequence,flow.Sequence,2_4,2023-09-16T02:42:25.447Z,,0,,,11483.251999952307,completion,,,,,true,,,,143235.20000004768,143234.29999995232,131734.347,131719.79999995232,131751.048,143266.71,1,6,,,
trial,html.Screen,2_5_0,2023-09-16T02:42:36.962Z,,0,0,,11515.68300000002,timeout,ISIC_0010681.JPG,,ISIC_0025346.JPG,,true,,,500,154750.5,154750.10000002384,143250.019,143235.60000002384,143266.71,154782.393,1,6,6,,
sequence,flow.Sequence,2_5,2023-09-16T02:42:36.963Z,,0,,,11483.39000002385,completion,,,,,true,,,,154751.10000002384,154750.10000002384,143250.019,143235.39999997616,143266.71,154782.393,1,6,,,
loop,flow.Loop,2,2023-09-16T02:42:36.963Z,,,,,69061.88100002384,completion,,,,,true,,,,154751.60000002384,154750.10000002384,85671.663,85681.29999995232,85688.219,154782.393,1,6,,,
exp_instructions,html.Screen,3,2023-09-16T02:42:44.335Z,,,,,7334.707000023831,response,,,,,,continue,keypress(Space),,162123.10000002384,162117.10000002384,154765.69,154751.79999995232,154782.393,162131.743,,,,,
trial,html.Screen,4_0_0,2023-09-16T02:42:55.827Z,,0,1,,11515.743000000017,timeout,ISIC_6566042.JPG,8,ISIC_3687259.JPG,,false,,,500,173615.79999995232,173615.39999997616,162115.577,162123.5,162131.743,173647.486,8,400,1,,
break,html.Screen,4_0_1,2023-09-16T02:42:55.829Z,,0,,,NaN,,,,,,false,,,,173617.10000002384,173616.70000004768,,173616.10000002384,,173647.486,8,400,,,
break_continue,html.Screen,4_0_2,2023-09-16T02:42:55.830Z,,0,,,NaN,,,,,,false,,,,173617.89999997616,173617.70000004768,,173617.39999997616,,173647.486,8,400,,,
sequence,flow.Sequence,4_0,2023-09-16T02:42:55.830Z,,0,,,11485.957000047696,completion,,,,,false,,,,173618.29999995232,173617.70000004768,162115.577,162123.5,162131.743,173647.486,8,400,,,
trial,html.Screen,4_1_0,2023-09-16T02:43:07.343Z,,0,1,,11515.636999999988,timeout,ISIC_0033980.JPG,11,ISIC_0027604.JPG,,false,,,500,185131.10000002384,185130.70000004768,173630.738,173618.60000002384,173647.486,185163.123,8,400,2,,
break,html.Screen,4_1_1,2023-09-16T02:43:07.344Z,,0,,,NaN,,,,,,false,,,,185132.10000002384,185131.79999995232,,185131.29999995232,,185163.123,8,400,,,
break_continue,html.Screen,4_1_2,2023-09-16T02:43:07.344Z,,0,,,NaN,,,,,,false,,,,185132.70000004768,185132.5,,185132.29999995232,,185163.123,8,400,,,
sequence,flow.Sequence,4_1,2023-09-16T02:43:07.345Z,,0,,,11485.013999999996,completion,,,,,false,,,,185133,185132.5,173630.738,173618.5,173647.486,185163.123,8,400,,,
trial,html.Screen,4_2_0,2023-09-16T02:43:18.859Z,,0,1,,11515.682,timeout,ISIC_0071300.JPG,8,ISIC_7590292.JPG,,false,,,500,196647.10000002384,196646.60000002384,185146.447,185133.20000004768,185163.123,196678.805,8,400,3,,
break,html.Screen,4_2_1,2023-09-16T02:43:18.860Z,,0,,,NaN,,,,,,false,,,,196648.10000002384,196647.79999995232,,196647.39999997616,,196678.805,8,400,,,
break_continue,html.Screen,4_2_2,2023-09-16T02:43:18.860Z,,0,,,NaN,,,,,,false,,,,196648.70000004768,196648.5,,196648.29999995232,,196678.805,8,400,,,
sequence,flow.Sequence,4_2,2023-09-16T02:43:18.861Z,,0,,,11485.377000000008,completion,,,,,false,,,,196649,196648.5,185146.447,185133.10000002384,185163.123,196678.805,8,400,,,
trial,html.Screen,4_3_0,2023-09-16T02:43:23.100Z,,0,1,,4209.094999976165,response,ISIC_0054573.JPG,15,ISIC_0034194.JPG,ISIC_0034194.JPG,false,0,keypress(z),500,200888.29999995232,200887.89999997616,196662.151,196649.29999995232,196678.805,200895.102,8,400,4,,ISIC_0054573.JPG
break,html.Screen,4_3_1,2023-09-16T02:43:23.101Z,,0,,,NaN,,,,,,false,,,,200889.70000004768,200889.29999995232,,200888.60000002384,,200895.102,8,400,,,
break_continue,html.Screen,4_3_2,2023-09-16T02:43:23.102Z,,0,,,NaN,,,,,,false,,,,200890.20000004768,200890,,200889.89999997616,,200895.102,8,400,,,
sequence,flow.Sequence,4_3,2023-09-16T02:43:23.102Z,,0,,,4211.195000000007,completion,,,,,false,,,,200890.5,200890,196662.151,196649.20000004768,196678.805,200895.102,8,400,,,
trial,html.Screen,4_4_0,2023-09-16T02:43:29.089Z,,0,1,,5982.09800004767,response,ISIC_0014422.JPG,13,ISIC_1308649.JPG,ISIC_0014422.JPG,false,1,keypress(m),500,206877.70000004768,206877.20000004768,200878.712,200890.70000004768,200895.102,206894.682,8,400,5,,ISIC_1308649.JPG
break,html.Screen,4_4_1,2023-09-16T02:43:29.091Z,,0,,,NaN,,,,,,false,,,,206879.29999995232,206878.89999997616,,206878.10000002384,,206894.682,8,400,,,
break_continue,html.Screen,4_4_2,2023-09-16T02:43:29.092Z,,0,,,NaN,,,,,,false,,,,206879.89999997616,206879.70000004768,,206879.39999997616,,206894.682,8,400,,,
sequence,flow.Sequence,4_4,2023-09-16T02:43:29.092Z,,0,,,5984.59800004767,completion,,,,,false,,,,206880.20000004768,206879.70000004768,200878.712,200890.60000002384,200895.102,206894.682,8,400,,,
trial,html.Screen,4_5_0,2023-09-16T02:43:33.291Z,,0,1,,4183.817999999999,response,ISIC_0006332.JPG,9,ISIC_0799535.JPG,ISIC_0799535.JPG,false,0,keypress(z),500,211078.89999997616,211078.5,206878.192,206880.39999997616,206894.682,211094.405,8,400,6,,ISIC_0006332.JPG
break,html.Screen,4_5_1,2023-09-16T02:43:33.292Z,,0,,,NaN,,,,,,false,,,,211080.60000002384,211079.89999997616,,211079.29999995232,,211094.405,8,400,,,
break_continue,html.Screen,4_5_2,2023-09-16T02:43:33.293Z,,0,,,NaN,,,,,,false,,,,211081.20000004768,211080.89999997616,,211080.79999995232,,211094.405,8,400,,,
sequence,flow.Sequence,4_5,2023-09-16T02:43:33.293Z,,0,,,4186.217999976157,completion,,,,,false,,,,211081.5,211080.89999997616,206878.192,206880.29999995232,206894.682,211094.405,8,400,,,
trial,html.Screen,4_6_0,2023-09-16T02:43:37.448Z,,0,1,,4141.994999976159,response,ISIC_0013341.JPG,15,ISIC_5707761.JPG,ISIC_5707761.JPG,false,0,keypress(z),500,215236.60000002384,215236.39999997616,211077.839,211081.70000004768,211094.405,215243.863,8,400,7,,ISIC_0013341.JPG
break,html.Screen,4_6_1,2023-09-16T02:43:37.450Z,,0,,,NaN,,,,,,false,,,,215238.10000002384,215237.5,,215237,,215243.863,8,400,,,
break_continue,html.Screen,4_6_2,2023-09-16T02:43:37.450Z,,0,,,NaN,,,,,,false,,,,215238.70000004768,215238.5,,215238.29999995232,,215243.863,8,400,,,
sequence,flow.Sequence,4_6,2023-09-16T02:43:37.451Z,,0,,,4144.095000000001,completion,,,,,false,,,,215239,215238.5,211077.839,211081.70000004768,211094.405,215243.863,8,400,,,
trial,html.Screen,4_7_0,2023-09-16T02:43:42.052Z,,0,1,,4596.23700002383,response,ISIC_4433832.JPG,5,ISIC_0000550.JPG,ISIC_4433832.JPG,false,1,keypress(m),500,219840.39999997616,219840.10000002384,215227.515,215239.29999995232,215243.863,219843.511,8,400,8,,ISIC_0000550.JPG
break,html.Screen,4_7_1,2023-09-16T02:43:42.056Z,,0,,,NaN,,,,,,false,,,,219843.89999997616,219841.20000004768,,219840.70000004768,,219843.511,8,400,,,
break_continue,html.Screen,4_7_2,2023-09-16T02:43:42.056Z,,0,,,NaN,,,,,,false,,,,219844.60000002384,219844.39999997616,,219844.20000004768,,219843.511,8,400,,,
sequence,flow.Sequence,4_7,2023-09-16T02:43:42.057Z,,0,,,4600.536999976146,completion,,,,,false,,,,219845,219844.39999997616,215227.515,215239.20000004768,215243.863,219843.511,8,400,,,
trial,html.Screen,4_8_0,2023-09-16T02:43:45.230Z,,0,1,,3174.2889999523177,response,ISIC_7205745.JPG,5,ISIC_0032095.JPG,ISIC_7205745.JPG,false,1,keypress(m),500,223018.10000002384,223017.79999995232,219827.093,219845.20000004768,219843.511,223026.526,8,400,9,,ISIC_0032095.JPG
break,html.Screen,4_8_1,2023-09-16T02:43:45.231Z,,0,,,NaN,,,,,,false,,,,223019.5,223019,,223018.5,,223026.526,8,400,,,
break_continue,html.Screen,4_8_2,2023-09-16T02:43:45.232Z,,0,,,NaN,,,,,,false,,,,223020.20000004768,223019.89999997616,,223019.79999995232,,223026.526,8,400,,,
sequence,flow.Sequence,4_8,2023-09-16T02:43:45.232Z,,0,,,3176.3889999761595,completion,,,,,false,,,,223020.39999997616,223019.89999997616,219827.093,219845.10000002384,219843.511,223026.526,8,400,,,
trial,html.Screen,4_9_0,2023-09-16T02:43:48.493Z,,0,1,,3254.8739999761456,response,ISIC_7545340.JPG,10,ISIC_0031914.JPG,ISIC_0031914.JPG,false,0,keypress(z),500,226281.70000004768,226281.39999997616,223009.968,223020.70000004768,223026.526,226292.976,8,400,10,,ISIC_7545340.JPG
break,html.Screen,4_9_1,2023-09-16T02:43:48.495Z,,0,,,NaN,,,,,,false,,,,226283.10000002384,226282.60000002384,,226282.10000002384,,226292.976,8,400,,,
break_continue,html.Screen,4_9_2,2023-09-16T02:43:48.495Z,,0,,,NaN,,,,,,false,,,,226283.79999995232,226283.5,,226283.29999995232,,226292.976,8,400,,,
sequence,flow.Sequence,4_9,2023-09-16T02:43:48.496Z,,0,,,3256.9739999999874,completion,,,,,false,,,,226284,226283.5,223009.968,223020.60000002384,223026.526,226292.976,8,400,,,
trial,html.Screen,4_10_0,2023-09-16T02:43:51.590Z,,0,1,,3085.1240000238467,response,ISIC_6533176.JPG,10,ISIC_0071169.JPG,ISIC_6533176.JPG,false,1,keypress(m),500,229378.5,229378.10000002384,226276.569,226284.20000004768,226292.976,229392.862,8,400,11,,ISIC_0071169.JPG
break,html.Screen,4_10_1,2023-09-16T02:43:51.591Z,,0,,,NaN,,,,,,false,,,,229379.70000004768,229379.29999995232,,229378.79999995232,,229392.862,8,400,,,
break_continue,html.Screen,4_10_2,2023-09-16T02:43:51.592Z,,0,,,NaN,,,,,,false,,,,229380.29999995232,229380.10000002384,,229380,,229392.862,8,400,,,
sequence,flow.Sequence,4_10,2023-09-16T02:43:51.592Z,,0,,,3087.1240000238467,completion,,,,,false,,,,229380.60000002384,229380.10000002384,226276.569,226284.20000004768,226292.976,229392.862,8,400,,,
trial,html.Screen,4_11_0,2023-09-16T02:43:55.443Z,,0,1,,3838.238000023848,response,ISIC_4377208.JPG,10,ISIC_0058730.JPG,ISIC_4377208.JPG,false,1,keypress(m),500,233231.70000004768,233231.10000002384,229376.291,229380.89999997616,229392.862,233242.319,8,400,12,,ISIC_0058730.JPG
break,html.Screen,4_11_1,2023-09-16T02:43:55.445Z,,0,,,NaN,,,,,,false,,,,233233.10000002384,233232.39999997616,,233231.89999997616,,233242.319,8,400,,,
break_continue,html.Screen,4_11_2,2023-09-16T02:43:55.445Z,,0,,,NaN,,,,,,false,,,,233233.79999995232,233233.60000002384,,233233.29999995232,,233242.319,8,400,,,
sequence,flow.Sequence,4_11,2023-09-16T02:43:55.446Z,,0,,,3840.738000023848,completion,,,,,false,,,,233234,233233.60000002384,229376.291,229380.79999995232,229392.862,233242.319,8,400,,,
trial,html.Screen,4_12_0,2023-09-16T02:43:58.354Z,,0,1,,2899.5809999761696,response,ISIC_6469202.JPG,10,ISIC_0067953.JPG,ISIC_6469202.JPG,false,1,keypress(m),500,236142.5,236141.89999997616,233225.919,233234.29999995232,233242.319,236158.953,8,400,13,,ISIC_0067953.JPG
break,html.Screen,4_12_1,2023-09-16T02:43:58.355Z,,0,,,NaN,,,,,,false,,,,236143.60000002384,236143.39999997616,,236143,,236158.953,8,400,,,
break_continue,html.Screen,4_12_2,2023-09-16T02:43:58.356Z,,0,,,NaN,,,,,,false,,,,236144.20000004768,236144,,236143.79999995232,,236158.953,8,400,,,
sequence,flow.Sequence,4_12,2023-09-16T02:43:58.356Z,,0,,,2901.6810000000114,completion,,,,,false,,,,236144.60000002384,236144,233225.919,233234.20000004768,233242.319,236158.953,8,400,,,
trial,html.Screen,4_13_0,2023-09-16T02:44:02.018Z,,0,1,,3647.1470000238332,response,ISIC_0010478.JPG,7,ISIC_2633745.JPG,ISIC_2633745.JPG,false,0,keypress(z),500,239806.5,239806.10000002384,236142.085,236144.79999995232,236158.953,239832.888,8,400,14,,ISIC_0010478.JPG
break,html.Screen,4_13_1,2023-09-16T02:44:02.020Z,,0,,,NaN,,,,,,false,,,,239807.89999997616,239807.29999995232,,239806.79999995232,,239832.888,8,400,,,
break_continue,html.Screen,4_13_2,2023-09-16T02:44:02.020Z,,0,,,NaN,,,,,,false,,,,239808.60000002384,239808.29999995232,,239808.10000002384,,239832.888,8,400,,,
sequence,flow.Sequence,4_13,2023-09-16T02:44:02.021Z,,0,,,3649.3469999523077,completion,,,,,false,,,,239808.89999997616,239808.29999995232,236142.085,236144.70000004768,236158.953,239832.888,8,400,,,
trial,html.Screen,4_14_0,2023-09-16T02:44:05.354Z,,0,1,,3309.2120000238356,response,ISIC_4348579.JPG,9,ISIC_7633960.JPG,ISIC_7633960.JPG,false,0,keypress(z),500,243142.29999995232,243142.10000002384,239792.056,239809.10000002384,239832.888,243174.786,8,400,15,,ISIC_4348579.JPG
break,html.Screen,4_14_1,2023-09-16T02:44:05.355Z,,0,,,NaN,,,,,,false,,,,243143.20000004768,243143,,243142.60000002384,,243174.786,8,400,,,
break_continue,html.Screen,4_14_2,2023-09-16T02:44:05.355Z,,0,,,NaN,,,,,,false,,,,243143.70000004768,243143.60000002384,,243143.39999997616,,243174.786,8,400,,,
sequence,flow.Sequence,4_14,2023-09-16T02:44:05.356Z,,0,,,3310.7120000238356,completion,,,,,false,,,,243144,243143.60000002384,239792.056,239809,239832.888,243174.786,8,400,,,
trial,html.Screen,4_15_0,2023-09-16T02:44:08.355Z,,0,1,,2968.314000023849,response,ISIC_4724660.JPG,13,ISIC_4791589.JPG,ISIC_4724660.JPG,false,1,keypress(m),500,246143.39999997616,246143.10000002384,243158.093,243144.20000004768,243174.786,246174.778,8,400,16,,ISIC_4791589.JPG
break,html.Screen,4_15_1,2023-09-16T02:44:08.356Z,,0,,,NaN,,,,,,false,,,,246144.5,246144.29999995232,,246143.70000004768,,246174.778,8,400,,,
break_continue,html.Screen,4_15_2,2023-09-16T02:44:08.357Z,,0,,,NaN,,,,,,false,,,,246145.10000002384,246145,,246144.70000004768,,246174.778,8,400,,,
sequence,flow.Sequence,4_15,2023-09-16T02:44:08.357Z,,0,,,2970.214000000007,completion,,,,,false,,,,246145.5,246145,243158.093,243144.10000002384,243174.786,246174.778,8,400,,,
trial,html.Screen,4_16_0,2023-09-16T02:44:11.021Z,,0,1,,2633.9220000476926,response,ISIC_0026802.JPG,9,ISIC_6793830.JPG,ISIC_6793830.JPG,false,0,keypress(z),500,248809.10000002384,248808.70000004768,246158.106,246145.70000004768,246174.778,248824.552,8,400,17,,ISIC_0026802.JPG
break,html.Screen,4_16_1,2023-09-16T02:44:11.022Z,,0,,,NaN,,,,,,false,,,,248810.29999995232,248809.79999995232,,248809.39999997616,,248824.552,8,400,,,
break_continue,html.Screen,4_16_2,2023-09-16T02:44:11.023Z,,0,,,NaN,,,,,,false,,,,248810.89999997616,248810.70000004768,,248810.5,,248824.552,8,400,,,
sequence,flow.Sequence,4_16,2023-09-16T02:44:11.023Z,,0,,,2635.9220000476926,completion,,,,,false,,,,248811.10000002384,248810.70000004768,246158.106,246145.60000002384,246174.778,248824.552,8,400,,,
trial,html.Screen,4_17_0,2023-09-16T02:44:14.688Z,,0,1,,3651.048000023846,response,ISIC_3169133.JPG,7,ISIC_3805025.JPG,ISIC_3169133.JPG,false,1,keypress(m),500,252476,252475.60000002384,248807.937,248811.39999997616,248824.552,252490.895,8,400,18,,ISIC_3805025.JPG
break,html.Screen,4_17_1,2023-09-16T02:44:14.689Z,,0,,,NaN,,,,,,false,,,,252477.29999995232,252476.79999995232,,252476.29999995232,,252490.895,8,400,,,
break_continue,html.Screen,4_17_2,2023-09-16T02:44:14.690Z,,0,,,NaN,,,,,,false,,,,252478,252477.79999995232,,252477.60000002384,,252490.895,8,400,,,
sequence,flow.Sequence,4_17,2023-09-16T02:44:14.690Z,,0,,,3653.2479999523202,completion,,,,,false,,,,252478.29999995232,252477.79999995232,248807.937,248811.29999995232,248824.552,252490.895,8,400,,,
trial,html.Screen,4_18_0,2023-09-16T02:44:17.568Z,,0,1,,2864.9049999523268,response,ISIC_0054748.JPG,12,ISIC_5281485.JPG,ISIC_5281485.JPG,false,0,keypress(z),500,255356.39999997616,255355.79999995232,252474.303,252478.5,252490.895,255373.989,8,400,19,,ISIC_0054748.JPG
break,html.Screen,4_18_1,2023-09-16T02:44:17.570Z,,0,,,NaN,,,,,,false,,,,255357.89999997616,255357.29999995232,,255356.89999997616,,255373.989,8,400,,,
break_continue,html.Screen,4_18_2,2023-09-16T02:44:17.570Z,,0,,,NaN,,,,,,false,,,,255358.60000002384,255358.39999997616,,255358.20000004768,,255373.989,8,400,,,
sequence,flow.Sequence,4_18,2023-09-16T02:44:17.571Z,,0,,,2867.5049999761686,completion,,,,,false,,,,255358.89999997616,255358.39999997616,252474.303,252478.39999997616,252490.895,255373.989,8,400,,,
trial,html.Screen,4_19_0,2023-09-16T02:44:20.190Z,,0,1,,2603.5109999999986,response,ISIC_1497800.JPG,7,ISIC_0011169.JPG,ISIC_1497800.JPG,false,1,keypress(m),500,257977.79999995232,257977.5,255357.397,255359.20000004768,255373.989,257990.266,8,400,20,,ISIC_0011169.JPG
break,html.Screen,4_19_1,2023-09-16T02:44:20.191Z,,0,,,NaN,,,,,,false,,,,257979.20000004768,257978.70000004768,,257978.20000004768,,257990.266,8,400,,,
break_continue,html.Screen,4_19_2,2023-09-16T02:44:20.192Z,,0,,,NaN,,,,,,false,,,,257979.89999997616,257979.70000004768,,257979.39999997616,,257990.266,8,400,,,
sequence,flow.Sequence,4_19,2023-09-16T02:44:20.192Z,,0,,,2605.7110000476823,completion,,,,,false,,,,257980.20000004768,257979.70000004768,255357.397,255359.10000002384,255373.989,257990.266,8,400,,,
trial,html.Screen,4_20_0,2023-09-16T02:44:22.901Z,,0,1,,2698.533999952313,response,ISIC_9860895.JPG,11,ISIC_7080584.JPG,ISIC_7080584.JPG,false,0,keypress(z),500,260689.10000002384,260688.79999995232,257973.839,257980.39999997616,257990.266,260706.768,8,400,21,,ISIC_9860895.JPG
break,html.Screen,4_20_1,2023-09-16T02:44:22.902Z,,0,,,NaN,,,,,,false,,,,260690.5,260690,,260689.39999997616,,260706.768,8,400,,,
break_continue,html.Screen,4_20_2,2023-09-16T02:44:22.903Z,,0,,,NaN,,,,,,false,,,,260691.10000002384,260690.89999997616,,260690.70000004768,,260706.768,8,400,,,
sequence,flow.Sequence,4_20,2023-09-16T02:44:22.903Z,,0,,,2700.633999976155,completion,,,,,false,,,,260691.39999997616,260690.89999997616,257973.839,257980.39999997616,257990.266,260706.768,8,400,,,
trial,html.Screen,4_21_0,2023-09-16T02:44:26.755Z,,0,1,,3836.432000047673,response,ISIC_0009911.JPG,14,ISIC_0011793.JPG,ISIC_0009911.JPG,false,1,keypress(m),500,264543.60000002384,264543.2000000477,260673.62,260691.60000002384,260706.768,264556.502,8,400,22,,ISIC_0011793.JPG
break,html.Screen,4_21_1,2023-09-16T02:44:26.757Z,,0,,,NaN,,,,,,false,,,,264545,264544.39999997616,,264543.89999997616,,264556.502,8,400,,,
break_continue,html.Screen,4_21_2,2023-09-16T02:44:26.757Z,,0,,,NaN,,,,,,false,,,,264545.60000002384,264545.2999999523,,264545.10000002384,,264556.502,8,400,,,
sequence,flow.Sequence,4_21,2023-09-16T02:44:26.758Z,,0,,,3838.5319999523053,completion,,,,,false,,,,264545.89999997616,264545.2999999523,260673.62,260691.60000002384,260706.768,264556.502,8,400,,,
trial,html.Screen,4_22_0,2023-09-16T02:44:29.806Z,,0,1,,3037.7979999523377,response,ISIC_0026683.JPG,11,ISIC_1294049.JPG,ISIC_1294049.JPG,false,0,keypress(z),500,267594.7000000477,267594.2999999523,264539.956,264546.10000002384,264556.502,267606.262,8,400,23,,ISIC_0026683.JPG
break,html.Screen,4_22_1,2023-09-16T02:44:29.807Z,,0,,,NaN,,,,,,false,,,,267595.7000000477,267595.39999997616,,267594.89999997616,,267606.262,8,400,,,
break_continue,html.Screen,4_22_2,2023-09-16T02:44:29.808Z,,0,,,NaN,,,,,,false,,,,267596,267595.7999999523,,267595.7000000477,,267606.262,8,400,,,
sequence,flow.Sequence,4_22,2023-09-16T02:44:29.808Z,,0,,,3039.2979999523377,completion,,,,,false,,,,267596.2000000477,267595.7999999523,264539.956,264546,264556.502,267606.262,8,400,,,
trial,html.Screen,4_23_0,2023-09-16T02:44:33.390Z,,0,1,,3572.1379999761702,response,ISIC_5656921.JPG,11,ISIC_3238687.JPG,ISIC_3238687.JPG,false,0,keypress(z),500,271178.39999997616,271178.39999997616,267589.682,267596.2999999523,267606.262,271189.038,8,400,24,,ISIC_5656921.JPG
break,html.Screen,4_23_1,2023-09-16T02:44:33.391Z,,0,,,NaN,,,,,,false,,,,271179,271178.7999999523,,271178.60000002384,,271189.038,8,400,,,
break_continue,html.Screen,4_23_2,2023-09-16T02:44:33.391Z,,0,,,NaN,,,,,,false,,,,271179.2000000477,271179.10000002384,,271179,,271189.038,8,400,,,
sequence,flow.Sequence,4_23,2023-09-16T02:44:33.391Z,,0,,,3572.838000023854,completion,,,,,false,,,,271179.2999999523,271179.10000002384,267589.682,267596.2000000477,267606.262,271189.038,8,400,,,
trial,html.Screen,4_24_0,2023-09-16T02:44:36.840Z,,0,1,,3438.4619999999995,response,ISIC_7130929.JPG,10,ISIC_0024227.JPG,ISIC_0024227.JPG,false,0,keypress(z),500,274628.10000002384,274627.5,271172.738,271179.2999999523,271189.038,274638.826,8,400,25,,ISIC_7130929.JPG
break,html.Screen,4_24_1,2023-09-16T02:44:36.841Z,,0,,,NaN,,,,,,false,,,,274629.7000000477,274629.10000002384,,274628.60000002384,,274638.826,8,400,,,
break_continue,html.Screen,4_24_2,2023-09-16T02:44:36.842Z,,0,,,NaN,,,,,,false,,,,274630.2999999523,274630.2000000477,,274630,,274638.826,8,400,,,
sequence,flow.Sequence,4_24,2023-09-16T02:44:36.842Z,,0,,,3441.1620000476833,completion,,,,,false,,,,274630.7000000477,274630.2000000477,271172.738,271179.2999999523,271189.038,274638.826,8,400,,,
trial,html.Screen,4_25_0,2023-09-16T02:44:39.845Z,,0,1,,2994.374000047683,response,ISIC_8837443.JPG,12,ISIC_4653167.JPG,ISIC_8837443.JPG,false,1,keypress(m),500,277633.5,277633.2000000477,274622.377,274630.89999997616,274638.826,277655.187,8,400,26,,ISIC_4653167.JPG
break,html.Screen,4_25_1,2023-09-16T02:44:39.846Z,,0,,,NaN,,,,,,false,,,,277634.7000000477,277634.2000000477,,277633.7999999523,,277655.187,8,400,,,
break_continue,html.Screen,4_25_2,2023-09-16T02:44:39.847Z,,0,,,NaN,,,,,,false,,,,277635.2000000477,277635,,277634.89999997616,,277655.187,8,400,,,
sequence,flow.Sequence,4_25,2023-09-16T02:44:39.847Z,,0,,,2996.173999999999,completion,,,,,false,,,,277635.5,277635,274622.377,274630.7999999523,274638.826,277655.187,8,400,,,
trial,html.Screen,4_26_0,2023-09-16T02:44:43.650Z,,0,1,,3782.4130000238656,response,ISIC_0025243.JPG,12,ISIC_0013831.JPG,ISIC_0013831.JPG,false,0,keypress(z),500,281438,281437.60000002384,277638.667,277635.7000000477,277655.187,281455.082,8,400,27,,ISIC_0025243.JPG
break,html.Screen,4_26_1,2023-09-16T02:44:43.651Z,,0,,,NaN,,,,,,false,,,,281439.39999997616,281438.7999999523,,281438.2999999523,,281455.082,8,400,,,
break_continue,html.Screen,4_26_2,2023-09-16T02:44:43.652Z,,0,,,NaN,,,,,,false,,,,281439.89999997616,281439.7999999523,,281439.5,,281455.082,8,400,,,
sequence,flow.Sequence,4_26,2023-09-16T02:44:43.652Z,,0,,,3784.61299995234,completion,,,,,false,,,,281440.2999999523,281439.7999999523,277638.667,277635.7000000477,277655.187,281455.082,8,400,,,
trial,html.Screen,4_27_0,2023-09-16T02:44:47.576Z,,0,1,,3909.018000023847,response,ISIC_9017110.JPG,13,ISIC_0066952.JPG,ISIC_9017110.JPG,false,1,keypress(m),500,285364.5,285364.10000002384,281438.491,281440.5,281455.082,285371.196,8,400,28,,ISIC_0066952.JPG
break,html.Screen,4_27_1,2023-09-16T02:44:47.578Z,,0,,,NaN,,,,,,false,,,,285365.7999999523,285365.2999999523,,285364.89999997616,,285371.196,8,400,,,
break_continue,html.Screen,4_27_2,2023-09-16T02:44:47.578Z,,0,,,NaN,,,,,,false,,,,285366.39999997616,285366.2000000477,,285366,,285371.196,8,400,,,
sequence,flow.Sequence,4_27,2023-09-16T02:44:47.578Z,,0,,,3911.118000047689,completion,,,,,false,,,,285366.7000000477,285366.2000000477,281438.491,281440.39999997616,281455.082,285371.196,8,400,,,
trial,html.Screen,4_28_0,2023-09-16T02:44:50.389Z,,0,1,,2806.0040000476874,response,ISIC_0056466.JPG,12,ISIC_0302804.JPG,ISIC_0302804.JPG,false,0,keypress(z),500,288177.60000002384,288177.2000000477,285354.847,285367.10000002384,285371.196,288187.619,8,400,29,,ISIC_0056466.JPG
break,html.Screen,4_28_1,2023-09-16T02:44:50.391Z,,0,,,NaN,,,,,,false,,,,288178.7999999523,288178.39999997616,,288178,,288187.619,8,400,,,
break_continue,html.Screen,4_28_2,2023-09-16T02:44:50.391Z,,0,,,NaN,,,,,,false,,,,288179.39999997616,288179.2999999523,,288179.10000002384,,288187.619,8,400,,,
sequence,flow.Sequence,4_28,2023-09-16T02:44:50.391Z,,0,,,2808.10399995232,completion,,,,,false,,,,288179.7000000477,288179.2999999523,285354.847,285367,285371.196,288187.619,8,400,,,
trial,html.Screen,4_29_0,2023-09-16T02:44:53.203Z,,0,1,,2802.981000023836,response,ISIC_0001138.JPG,9,ISIC_0026300.JPG,ISIC_0026300.JPG,false,0,keypress(z),500,290991,290990.60000002384,288171.277,288180.10000002384,288187.619,291004.234,8,400,30,,ISIC_0001138.JPG
break,html.Screen,4_29_1,2023-09-16T02:44:53.204Z,,0,,,NaN,,,,,,false,,,,290992.39999997616,290991.89999997616,,290991.39999997616,,291004.234,8,400,,,
break_continue,html.Screen,4_29_2,2023-09-16T02:44:53.205Z,,0,,,NaN,,,,,,false,,,,290993,290992.7999999523,,290992.60000002384,,291004.234,8,400,,,
sequence,flow.Sequence,4_29,2023-09-16T02:44:53.205Z,,0,,,2805.1809999523102,completion,,,,,false,,,,290993.2999999523,290992.7999999523,288171.277,288180,288187.619,291004.234,8,400,,,
trial,html.Screen,4_30_0,2023-09-16T02:44:56.048Z,,0,1,,2831.366000023845,response,ISIC_7296463.JPG,7,ISIC_3571523.JPG,ISIC_3571523.JPG,false,0,keypress(z),500,293835.89999997616,293835.60000002384,290987.689,290993.60000002384,291004.234,293862.942,8,400,31,,ISIC_7296463.JPG
break,html.Screen,4_30_1,2023-09-16T02:44:56.049Z,,0,,,NaN,,,,,,false,,,,293837.2999999523,293836.7000000477,,293836.2999999523,,293862.942,8,400,,,
break_continue,html.Screen,4_30_2,2023-09-16T02:44:56.050Z,,0,,,NaN,,,,,,false,,,,293837.89999997616,293837.7000000477,,293837.60000002384,,293862.942,8,400,,,
sequence,flow.Sequence,4_30,2023-09-16T02:44:56.050Z,,0,,,2833.466000047687,completion,,,,,false,,,,293838.2999999523,293837.7000000477,290987.689,290993.5,291004.234,293862.942,8,400,,,
trial,html.Screen,4_31_0,2023-09-16T02:44:58.988Z,,0,1,,2912.758000047703,response,ISIC_0063151.JPG,10,ISIC_0032771.JPG,ISIC_0032771.JPG,false,0,keypress(z),500,296776,296775.7000000477,293820.791,293838.5,293862.942,296786.959,8,400,32,,ISIC_0063151.JPG
break,html.Screen,4_31_1,2023-09-16T02:44:58.989Z,,0,,,NaN,,,,,,false,,,,296777.39999997616,296776.7999999523,,296776.2999999523,,296786.959,8,400,,,
break_continue,html.Screen,4_31_2,2023-09-16T02:44:58.990Z,,0,,,NaN,,,,,,false,,,,296778,296777.7999999523,,296777.5,,296786.959,8,400,,,
sequence,flow.Sequence,4_31,2023-09-16T02:44:58.990Z,,0,,,2914.8579999523354,completion,,,,,false,,,,296778.2999999523,296777.7999999523,293820.791,293838.39999997616,293862.942,296786.959,8,400,,,
trial,html.Screen,4_32_0,2023-09-16T02:45:02.051Z,,0,1,,3052.1410000238684,response,ISIC_0031499.JPG,13,ISIC_0028075.JPG,ISIC_0028075.JPG,false,0,keypress(z),500,299839.60000002384,299839.10000002384,296770.485,296778.5,296786.959,299853.511,8,400,33,,ISIC_0031499.JPG
break,html.Screen,4_32_1,2023-09-16T02:45:02.053Z,,0,,,NaN,,,,,,false,,,,299840.7999999523,299840.39999997616,,299839.89999997616,,299853.511,8,400,,,
break_continue,html.Screen,4_32_2,2023-09-16T02:45:02.053Z,,0,,,NaN,,,,,,false,,,,299841.5,299841.2000000477,,299841.10000002384,,299853.511,8,400,,,
sequence,flow.Sequence,4_32,2023-09-16T02:45:02.053Z,,0,,,3054.2410000477103,completion,,,,,false,,,,299841.7999999523,299841.2000000477,296770.485,296778.5,296786.959,299853.511,8,400,,,
trial,html.Screen,4_33_0,2023-09-16T02:45:04.907Z,,0,1,,2841.5890000238433,response,ISIC_0060978.JPG,12,ISIC_3967213.JPG,ISIC_3967213.JPG,false,0,keypress(z),500,302695.5,302695.10000002384,299836.98,299842,299853.511,302703.144,8,400,34,,ISIC_0060978.JPG
break,html.Screen,4_33_1,2023-09-16T02:45:04.908Z,,0,,,NaN,,,,,,false,,,,302696.7999999523,302696.2000000477,,302695.7999999523,,302703.144,8,400,,,
break_continue,html.Screen,4_33_2,2023-09-16T02:45:04.909Z,,0,,,NaN,,,,,,false,,,,302697.39999997616,302697.10000002384,,302697,,302703.144,8,400,,,
sequence,flow.Sequence,4_33,2023-09-16T02:45:04.909Z,,0,,,2843.5890000238433,completion,,,,,false,,,,302697.7000000477,302697.10000002384,299836.98,299841.89999997616,299853.511,302703.144,8,400,,,
trial,html.Screen,4_34_0,2023-09-16T02:45:08.081Z,,0,1,,3165.856000000029,response,ISIC_0069970.JPG,11,ISIC_0026272.JPG,ISIC_0026272.JPG,false,0,keypress(z),500,305869.2999999523,305869,302686.693,302697.89999997616,302703.144,305886.34,8,400,35,,ISIC_0069970.JPG
break,html.Screen,4_34_1,2023-09-16T02:45:08.082Z,,0,,,NaN,,,,,,false,,,,305870.7000000477,305870.2000000477,,305869.7000000477,,305886.34,8,400,,,
break_continue,html.Screen,4_34_2,2023-09-16T02:45:08.083Z,,0,,,NaN,,,,,,false,,,,305871.2999999523,305871.10000002384,,305870.89999997616,,305886.34,8,400,,,
sequence,flow.Sequence,4_34,2023-09-16T02:45:08.083Z,,0,,,3167.9560000238707,completion,,,,,false,,,,305871.60000002384,305871.10000002384,302686.693,302697.7999999523,302703.144,305886.34,8,400,,,
trial,html.Screen,4_35_0,2023-09-16T02:45:11.758Z,,0,1,,3659.2600000238162,response,ISIC_3900049.JPG,14,ISIC_1175291.JPG,ISIC_3900049.JPG,false,1,keypress(m),500,309545.89999997616,309545.60000002384,305869.701,305871.7999999523,305886.34,309552.471,8,400,36,,ISIC_1175291.JPG
break,html.Screen,4_35_1,2023-09-16T02:45:11.759Z,,0,,,NaN,,,,,,false,,,,309547.2999999523,309546.7999999523,,309546.2999999523,,309552.471,8,400,,,
break_continue,html.Screen,4_35_2,2023-09-16T02:45:11.760Z,,0,,,NaN,,,,,,false,,,,309547.89999997616,309547.7000000477,,309547.5,,309552.471,8,400,,,
sequence,flow.Sequence,4_35,2023-09-16T02:45:11.760Z,,0,,,3661.360000047658,completion,,,,,false,,,,309548.2000000477,309547.7000000477,305869.701,305871.7000000477,305886.34,309552.471,8,400,,,
trial,html.Screen,4_36_0,2023-09-16T02:45:15.316Z,,0,1,,3552.0289999999804,response,ISIC_0031909.JPG,5,ISIC_8429798.JPG,ISIC_0031909.JPG,false,1,keypress(m),500,313104.7000000477,313104.5,309536.103,309548.5,309552.471,313118.762,8,400,37,,ISIC_8429798.JPG
break,html.Screen,4_36_1,2023-09-16T02:45:15.317Z,,0,,,NaN,,,,,,false,,,,313105.60000002384,313105.2999999523,,313104.89999997616,,313118.762,8,400,,,
break_continue,html.Screen,4_36_2,2023-09-16T02:45:15.318Z,,0,,,NaN,,,,,,false,,,,313106,313105.89999997616,,313105.7000000477,,313118.762,8,400,,,
sequence,flow.Sequence,4_36,2023-09-16T02:45:15.318Z,,0,,,3553.4289999761386,completion,,,,,false,,,,313106.2999999523,313105.89999997616,309536.103,309548.39999997616,309552.471,313118.762,8,400,,,
trial,html.Screen,4_37_0,2023-09-16T02:45:18.960Z,,0,1,,3629.238000000012,response,ISIC_0006321.JPG,5,ISIC_0030689.JPG,ISIC_0030689.JPG,false,0,keypress(z),500,316748.10000002384,316748,313102.176,313106.5,313118.762,316751.785,8,400,38,,ISIC_0006321.JPG
break,html.Screen,4_37_1,2023-09-16T02:45:18.960Z,,0,,,NaN,,,,,,false,,,,316748.7999999523,316748.60000002384,,316748.2999999523,,316751.785,8,400,,,
break_continue,html.Screen,4_37_2,2023-09-16T02:45:18.961Z,,0,,,NaN,,,,,,false,,,,316749,316748.89999997616,,316748.7999999523,,316751.785,8,400,,,
sequence,flow.Sequence,4_37,2023-09-16T02:45:18.961Z,,0,,,3630.1379999761702,completion,,,,,false,,,,316749.10000002384,316748.89999997616,313102.176,313106.39999997616,313118.762,316751.785,8,400,,,
trial,html.Screen,4_38_0,2023-09-16T02:45:22.647Z,,0,1,,3683.2150000000256,response,ISIC_5776158.JPG,14,ISIC_5525765.JPG,ISIC_5776158.JPG,false,1,keypress(m),500,320435.10000002384,320435,316735.218,316749.2000000477,316751.785,320451.507,8,400,39,,ISIC_5525765.JPG
break,html.Screen,4_38_1,2023-09-16T02:45:22.647Z,,0,,,NaN,,,,,,false,,,,320435.7000000477,320435.39999997616,,320435.2999999523,,320451.507,8,400,,,
break_continue,html.Screen,4_38_2,2023-09-16T02:45:22.648Z,,0,,,NaN,,,,,,false,,,,320435.89999997616,320435.89999997616,,320435.7000000477,,320451.507,8,400,,,
sequence,flow.Sequence,4_38,2023-09-16T02:45:22.648Z,,0,,,3684.1149999761838,completion,,,,,false,,,,320436,320435.89999997616,316735.218,316749.2000000477,316751.785,320451.507,8,400,,,
trial,html.Screen,4_39_0,2023-09-16T02:45:25.261Z,,0,1,,2597.1930000477005,response,ISIC_0055498.JPG,11,ISIC_2087913.JPG,ISIC_2087913.JPG,false,0,keypress(z),500,323048.7999999523,323048.7000000477,320435.208,320436.10000002384,320451.507,323067.936,8,400,40,,ISIC_0055498.JPG
break,html.Screen,4_39_1,2023-09-16T02:45:25.261Z,,0,,,NaN,,,,,,false,,,,323049.2000000477,323049.10000002384,,323049,,323067.936,8,400,,,
break_continue,html.Screen,4_39_2,2023-09-16T02:45:25.261Z,,0,,,NaN,,,,,,false,,,,323049.39999997616,323049.39999997616,,323049.2999999523,,323067.936,8,400,,,
sequence,flow.Sequence,4_39,2023-09-16T02:45:25.261Z,,0,,,2597.892999976175,completion,,,,,false,,,,323049.5,323049.39999997616,320435.208,320436.10000002384,320451.507,323067.936,8,400,,,
trial,html.Screen,4_40_0,2023-09-16T02:45:30.723Z,,0,1,,5442.764000047697,response,ISIC_0062025.JPG,15,ISIC_2750230.JPG,ISIC_2750230.JPG,false,0,keypress(z),500,328511.10000002384,328510.7000000477,323051.277,323049.60000002384,323067.936,328517.556,8,400,41,,ISIC_0062025.JPG
break,html.Screen,4_40_1,2023-09-16T02:45:30.724Z,,0,,,NaN,,,,,,false,,,,328512.5,328512,,328511.5,,328517.556,8,400,,,
break_continue,html.Screen,4_40_2,2023-09-16T02:45:30.725Z,,0,,,NaN,,,,,,false,,,,328513.2999999523,328513,,328512.7999999523,,328517.556,8,400,,,
sequence,flow.Sequence,4_40,2023-09-16T02:45:30.725Z,,0,,,5445.064000000013,completion,,,,,false,,,,328513.60000002384,328513,323051.277,323049.5,323067.936,328517.556,8,400,,,
trial,html.Screen,4_41_0,2023-09-16T02:45:33.513Z,,0,1,,2782.9440000000177,response,ISIC_2119925.JPG,10,ISIC_7044184.JPG,ISIC_2119925.JPG,false,1,keypress(m),500,331301.10000002384,331300.5,328501.167,328513.7999999523,328517.556,331317.488,8,400,42,,ISIC_7044184.JPG
break,html.Screen,4_41_1,2023-09-16T02:45:33.515Z,,0,,,NaN,,,,,,false,,,,331302.7000000477,331302.2999999523,,331301.5,,331317.488,8,400,,,
break_continue,html.Screen,4_41_2,2023-09-16T02:45:33.516Z,,0,,,NaN,,,,,,false,,,,331303.7999999523,331303.5,,331303.2000000477,,331317.488,8,400,,,
sequence,flow.Sequence,4_41,2023-09-16T02:45:33.516Z,,0,,,2785.9440000000177,completion,,,,,false,,,,331304.2999999523,331303.5,328501.167,328513.7000000477,328517.556,331317.488,8,400,,,
trial,html.Screen,4_42_0,2023-09-16T02:45:36.658Z,,0,1,,3128.811999952304,response,ISIC_0031960.JPG,7,ISIC_0025759.JPG,ISIC_0031960.JPG,false,1,keypress(m),500,334446.60000002384,334446.2999999523,331300.931,331304.60000002384,331317.488,334450.357,8,400,43,,ISIC_0025759.JPG
break,html.Screen,4_42_1,2023-09-16T02:45:36.660Z,,0,,,NaN,,,,,,false,,,,334447.89999997616,334447.5,,334446.89999997616,,334450.357,8,400,,,
break_continue,html.Screen,4_42_2,2023-09-16T02:45:36.660Z,,0,,,NaN,,,,,,false,,,,334448.5,334448.39999997616,,334448.2000000477,,334450.357,8,400,,,
sequence,flow.Sequence,4_42,2023-09-16T02:45:36.661Z,,0,,,3130.911999976146,completion,,,,,false,,,,334448.89999997616,334448.39999997616,331300.931,331304.5,331317.488,334450.357,8,400,,,
trial,html.Screen,4_43_0,2023-09-16T02:45:39.406Z,,0,1,,2743.442999952298,response,ISIC_3613392.JPG,8,ISIC_0056740.JPG,ISIC_3613392.JPG,false,1,keypress(m),500,337194,337193.7999999523,334433.945,334449.10000002384,334450.357,337200.022,8,400,44,,ISIC_0056740.JPG
break,html.Screen,4_43_1,2023-09-16T02:45:39.406Z,,0,,,NaN,,,,,,false,,,,337194.60000002384,337194.39999997616,,337194.2000000477,,337200.022,8,400,,,
break_continue,html.Screen,4_43_2,2023-09-16T02:45:39.407Z,,0,,,NaN,,,,,,false,,,,337194.7999999523,337194.7000000477,,337194.60000002384,,337200.022,8,400,,,
sequence,flow.Sequence,4_43,2023-09-16T02:45:39.407Z,,0,,,2744.3430000476656,completion,,,,,false,,,,337195,337194.7000000477,334433.945,334449,334450.357,337200.022,8,400,,,
trial,html.Screen,4_44_0,2023-09-16T02:45:41.959Z,,0,1,,2547.277999952319,response,ISIC_3959570.JPG,5,ISIC_0027663.JPG,ISIC_3959570.JPG,false,1,keypress(m),500,339747.7000000477,339747.2999999523,337183.721,337195,337200.022,339749.897,8,400,45,,ISIC_0027663.JPG
break,html.Screen,4_44_1,2023-09-16T02:45:41.961Z,,0,,,NaN,,,,,,false,,,,339749,339748.5,,339748,,339749.897,8,400,,,
break_continue,html.Screen,4_44_2,2023-09-16T02:45:41.961Z,,0,,,NaN,,,,,,false,,,,339749.60000002384,339749.2999999523,,339749.2000000477,,339749.897,8,400,,,
sequence,flow.Sequence,4_44,2023-09-16T02:45:41.962Z,,0,,,2549.277999952319,completion,,,,,false,,,,339749.89999997616,339749.2999999523,337183.721,337195,337200.022,339749.897,8,400,,,
trial,html.Screen,4_45_0,2023-09-16T02:45:44.945Z,,0,1,,2983.103000000003,response,ISIC_0069536.JPG,10,ISIC_0011717.JPG,ISIC_0011717.JPG,false,0,keypress(z),500,342733.2999999523,342733,339733.531,339750.2999999523,339749.897,342749.867,8,400,46,,ISIC_0069536.JPG
break,html.Screen,4_45_1,2023-09-16T02:45:44.946Z,,0,,,NaN,,,,,,false,,,,342734.7000000477,342734.10000002384,,342733.7000000477,,342749.867,8,400,,,
break_continue,html.Screen,4_45_2,2023-09-16T02:45:44.947Z,,0,,,NaN,,,,,,false,,,,342735.39999997616,342735.10000002384,,342734.89999997616,,342749.867,8,400,,,
sequence,flow.Sequence,4_45,2023-09-16T02:45:44.947Z,,0,,,2985.2030000238447,completion,,,,,false,,,,342735.7000000477,342735.10000002384,339733.531,339750.2000000477,339749.897,342749.867,8,400,,,
trial,html.Screen,4_46_0,2023-09-16T02:45:47.959Z,,0,1,,2996.8330000476562,response,ISIC_0028606.JPG,13,ISIC_0010156.JPG,ISIC_0028606.JPG,false,1,keypress(m),500,345747,345746.7000000477,342733.27,342735.89999997616,342749.867,345749.434,8,400,47,,ISIC_0010156.JPG
break,html.Screen,4_46_1,2023-09-16T02:45:47.960Z,,0,,,NaN,,,,,,false,,,,345748.60000002384,345747.89999997616,,345747.2999999523,,345749.434,8,400,,,
break_continue,html.Screen,4_46_2,2023-09-16T02:45:47.961Z,,0,,,NaN,,,,,,false,,,,345749.7000000477,345749.2000000477,,345748.89999997616,,345749.434,8,400,,,
sequence,flow.Sequence,4_46,2023-09-16T02:45:47.962Z,,0,,,2999.3330000476562,completion,,,,,false,,,,345750.2999999523,345749.2000000477,342733.27,342735.7999999523,342749.867,345749.434,8,400,,,
trial,html.Screen,4_47_0,2023-09-16T02:45:50.628Z,,0,1,,2666.5659999999916,response,ISIC_8647900.JPG,8,ISIC_2458253.JPG,ISIC_8647900.JPG,false,1,keypress(m),500,348416.39999997616,348416,345732.991,345750.5,345749.434,348432.713,8,400,48,,ISIC_2458253.JPG
break,html.Screen,4_47_1,2023-09-16T02:45:50.629Z,,0,,,NaN,,,,,,false,,,,348417.7000000477,348417.2999999523,,348416.7000000477,,348432.713,8,400,,,
break_continue,html.Screen,4_47_2,2023-09-16T02:45:50.630Z,,0,,,NaN,,,,,,false,,,,348418.39999997616,348418.10000002384,,348418,,348432.713,8,400,,,
sequence,flow.Sequence,4_47,2023-09-16T02:45:50.630Z,,0,,,2668.6660000238335,completion,,,,,false,,,,348418.7000000477,348418.10000002384,345732.991,345750.39999997616,345749.434,348432.713,8,400,,,
trial,html.Screen,4_48_0,2023-09-16T02:45:55.231Z,,0,1,,4585.787000000011,response,ISIC_0027872.JPG,5,ISIC_5634573.JPG,ISIC_5634573.JPG,false,0,keypress(z),500,353018.7999999523,353018.5,348416.12,348418.89999997616,348432.713,353032.278,8,400,49,,ISIC_0027872.JPG
break,html.Screen,4_48_1,2023-09-16T02:45:55.232Z,,0,,,NaN,,,,,,false,,,,353020.2999999523,353019.7000000477,,353019.2000000477,,353032.278,8,400,,,
break_continue,html.Screen,4_48_2,2023-09-16T02:45:55.233Z,,0,,,NaN,,,,,,false,,,,353020.7999999523,353020.60000002384,,353020.5,,353032.278,8,400,,,
sequence,flow.Sequence,4_48,2023-09-16T02:45:55.233Z,,0,,,4587.887000023853,completion,,,,,false,,,,353021.10000002384,353020.60000002384,348416.12,348418.89999997616,348432.713,353032.278,8,400,,,
trial,html.Screen,4_49_0,2023-09-16T02:45:59.271Z,,0,1,,4027.021999952325,response,ISIC_1850196.JPG,9,ISIC_1595325.JPG,ISIC_1595325.JPG,false,0,keypress(z),500,357059.7000000477,357059.2999999523,353015.709,353021.39999997616,353032.278,357065.084,8,400,50,,ISIC_1850196.JPG
break,html.Screen,4_49_1,2023-09-16T02:46:09.261Z,,0,,,9999.232000000018,timeout,,,,,false,,,,367049.39999997616,367047.664,357048.707,357060.5,357065.084,367064.316,8,400,,,
break_continue,html.Screen,4_49_2,2023-09-16T02:46:11.477Z,,0,,,2177.0839999761665,response,,,,,false,continue,keypress(Space),,369265.2999999523,369241.39999997616,367047.664,367050,367064.316,369280.875,8,400,,,
sequence,flow.Sequence,4_49,2023-09-16T02:46:11.477Z,,0,,,16209.121999976167,completion,,,,,false,,,,369265.7000000477,369241.39999997616,353015.709,353021.2999999523,353032.278,369280.875,8,400,,,
trial,html.Screen,4_50_0,2023-09-16T02:46:14.627Z,,0,2,,3133.524999976158,response,ISIC_0063617.JPG,11,ISIC_0060992.JPG,ISIC_0060992.JPG,false,0,keypress(z),500,372414.7999999523,372414.39999997616,369264.614,369265.89999997616,369280.875,372430.625,8,400,1,,ISIC_0063617.JPG
break,html.Screen,4_50_1,2023-09-16T02:46:14.628Z,,0,,,NaN,,,,,,false,,,,372416.2999999523,372415.7999999523,,372415.2000000477,,372430.625,8,400,,,
break_continue,html.Screen,4_50_2,2023-09-16T02:46:14.629Z,,0,,,NaN,,,,,,false,,,,372416.89999997616,372416.7000000477,,372416.60000002384,,372430.625,8,400,,,
sequence,flow.Sequence,4_50,2023-09-16T02:46:14.629Z,,0,,,3135.8250000476837,completion,,,,,false,,,,372417.2000000477,372416.7000000477,369264.614,369265.89999997616,369280.875,372430.625,8,400,,,
trial,html.Screen,4_51_0,2023-09-16T02:46:18.270Z,,0,2,,3627.6749999523163,response,ISIC_7867077.JPG,8,ISIC_0029910.JPG,ISIC_7867077.JPG,false,1,keypress(m),500,376058.7000000477,376058.2999999523,372414.038,372417.5,372430.625,376063.463,8,400,2,,ISIC_0029910.JPG
break,html.Screen,4_51_1,2023-09-16T02:46:18.272Z,,0,,,NaN,,,,,,false,,,,376060.10000002384,376059.5,,376059,,376063.463,8,400,,,
break_continue,html.Screen,4_51_2,2023-09-16T02:46:18.272Z,,0,,,NaN,,,,,,false,,,,376060.60000002384,376060.39999997616,,376060.2999999523,,376063.463,8,400,,,
sequence,flow.Sequence,4_51,2023-09-16T02:46:18.273Z,,0,,,3629.774999976158,completion,,,,,false,,,,376061,376060.39999997616,372414.038,372417.39999997616,372430.625,376063.463,8,400,,,
trial,html.Screen,4_52_0,2023-09-16T02:46:20.957Z,,0,2,,2681.9369999761693,response,ISIC_0031742.JPG,6,ISIC_0071778.JPG,ISIC_0031742.JPG,false,1,keypress(m),500,378745.7000000477,378745.39999997616,376047.12,376061.10000002384,376063.463,378780.104,8,400,3,,ISIC_0071778.JPG
break,html.Screen,4_52_1,2023-09-16T02:46:20.959Z,,0,,,NaN,,,,,,false,,,,378747.2000000477,378746.60000002384,,378746.10000002384,,378780.104,8,400,,,
break_continue,html.Screen,4_52_2,2023-09-16T02:46:20.960Z,,0,,,NaN,,,,,,false,,,,378747.7999999523,378747.60000002384,,378747.39999997616,,378780.104,8,400,,,
sequence,flow.Sequence,4_52,2023-09-16T02:46:20.960Z,,0,,,2684.137000023853,completion,,,,,false,,,,378748.2999999523,378747.60000002384,376047.12,376061.10000002384,376063.463,378780.104,8,400,,,
trial,html.Screen,4_53_0,2023-09-16T02:46:23.497Z,,0,2,,2505.195999952324,response,ISIC_0030060.JPG,7,ISIC_2279679.JPG,ISIC_2279679.JPG,false,0,keypress(z),500,381285.60000002384,381285.2999999523,378763.242,378748.5,378780.104,381296.418,8,400,4,,ISIC_0030060.JPG
break,html.Screen,4_53_1,2023-09-16T02:46:23.499Z,,0,,,NaN,,,,,,false,,,,381286.89999997616,381286.39999997616,,381286,,381296.418,8,400,,,
break_continue,html.Screen,4_53_2,2023-09-16T02:46:23.499Z,,0,,,NaN,,,,,,false,,,,381287.5,381287.2000000477,,381287.10000002384,,381296.418,8,400,,,
sequence,flow.Sequence,4_53,2023-09-16T02:46:23.500Z,,0,,,2507.0960000476916,completion,,,,,false,,,,381287.7999999523,381287.2000000477,378763.242,378748.39999997616,378780.104,381296.418,8,400,,,
trial,html.Screen,4_54_0,2023-09-16T02:46:26.081Z,,0,2,,2572.481999976153,response,ISIC_0027089.JPG,5,ISIC_9209245.JPG,ISIC_9209245.JPG,false,0,keypress(z),500,383869.2000000477,383868.89999997616,381279.97,381288,381296.418,383879.622,8,400,5,,ISIC_0027089.JPG
break,html.Screen,4_54_1,2023-09-16T02:46:26.082Z,,0,,,NaN,,,,,,false,,,,383870.5,383870,,383869.5,,383879.622,8,400,,,
break_continue,html.Screen,4_54_2,2023-09-16T02:46:26.083Z,,0,,,NaN,,,,,,false,,,,383871,383870.7999999523,,383870.60000002384,,383879.622,8,400,,,
sequence,flow.Sequence,4_54,2023-09-16T02:46:26.083Z,,0,,,2574.381999952311,completion,,,,,false,,,,383871.39999997616,383870.7999999523,381279.97,381287.89999997616,381296.418,383879.622,8,400,,,
trial,html.Screen,4_55_0,2023-09-16T02:46:28.583Z,,0,2,,2490.878000000026,response,ISIC_7732765.JPG,7,ISIC_2241388.JPG,ISIC_2241388.JPG,false,0,keypress(z),500,386370.89999997616,386370.5,383863.063,383871.60000002384,383879.622,386379.236,8,400,6,,ISIC_7732765.JPG
break,html.Screen,4_55_1,2023-09-16T02:46:28.584Z,,0,,,NaN,,,,,,false,,,,386371.89999997616,386371.60000002384,,386371.2000000477,,386379.236,8,400,,,
break_continue,html.Screen,4_55_2,2023-09-16T02:46:28.585Z,,0,,,NaN,,,,,,false,,,,386373.10000002384,386372.7999999523,,386372.60000002384,,386379.236,8,400,,,
sequence,flow.Sequence,4_55,2023-09-16T02:46:28.585Z,,0,,,2493.1779999523424,completion,,,,,false,,,,386373.39999997616,386372.7999999523,383863.063,383871.5,383879.622,386379.236,8,400,,,
trial,html.Screen,4_56_0,2023-09-16T02:46:31.094Z,,0,2,,2502.9640000477084,response,ISIC_0033730.JPG,14,ISIC_0057420.JPG,ISIC_0057420.JPG,false,0,keypress(z),500,388882.60000002384,388882.2000000477,386362.869,386373.7999999523,386379.236,388895.887,8,400,7,,ISIC_0033730.JPG
break,html.Screen,4_56_1,2023-09-16T02:46:31.096Z,,0,,,NaN,,,,,,false,,,,388884.5,388884.10000002384,,388883.10000002384,,388895.887,8,400,,,
break_continue,html.Screen,4_56_2,2023-09-16T02:46:31.097Z,,0,,,NaN,,,,,,false,,,,388885.10000002384,388884.89999997616,,388884.7000000477,,388895.887,8,400,,,
sequence,flow.Sequence,4_56,2023-09-16T02:46:31.097Z,,0,,,2505.663999976183,completion,,,,,false,,,,388885.39999997616,388884.89999997616,386362.869,386373.7000000477,386379.236,388895.887,8,400,,,
trial,html.Screen,4_57_0,2023-09-16T02:46:33.697Z,,0,2,,2589.4129999523284,response,ISIC_0033250.JPG,8,ISIC_0029995.JPG,ISIC_0033250.JPG,false,1,keypress(m),500,391485.39999997616,391485.2999999523,388879.307,388885.60000002384,388895.887,391495.422,8,400,8,,ISIC_0029995.JPG
break,html.Screen,4_57_1,2023-09-16T02:46:33.698Z,,0,,,NaN,,,,,,false,,,,391486,391485.7999999523,,391485.60000002384,,391495.422,8,400,,,
break_continue,html.Screen,4_57_2,2023-09-16T02:46:33.698Z,,0,,,NaN,,,,,,false,,,,391486.2999999523,391486.2000000477,,391486.10000002384,,391495.422,8,400,,,
sequence,flow.Sequence,4_57,2023-09-16T02:46:33.698Z,,0,,,2590.313000047696,completion,,,,,false,,,,391486.39999997616,391486.2000000477,388879.307,388885.5,388895.887,391495.422,8,400,,,
trial,html.Screen,4_58_0,2023-09-16T02:46:37.163Z,,0,2,,3455.778000047663,response,ISIC_0031627.JPG,6,ISIC_0024263.JPG,ISIC_0031627.JPG,false,1,keypress(m),500,394951.60000002384,394951.2000000477,391478.776,391486.5,391495.422,394961.844,8,400,9,,ISIC_0024263.JPG
break,html.Screen,4_58_1,2023-09-16T02:46:37.165Z,,0,,,NaN,,,,,,false,,,,394953,394952.39999997616,,394952,,394961.844,8,400,,,
break_continue,html.Screen,4_58_2,2023-09-16T02:46:37.165Z,,0,,,NaN,,,,,,false,,,,394953.5,394953.2999999523,,394953.10000002384,,394961.844,8,400,,,
sequence,flow.Sequence,4_58,2023-09-16T02:46:37.166Z,,0,,,3457.877999952296,completion,,,,,false,,,,394953.7999999523,394953.2999999523,391478.776,391486.39999997616,391495.422,394961.844,8,400,,,
trial,html.Screen,4_59_0,2023-09-16T02:46:40.490Z,,0,2,,3316.4559999523335,response,ISIC_0025735.JPG,6,ISIC_3181358.JPG,ISIC_3181358.JPG,false,0,keypress(z),500,398278.7000000477,398278.2999999523,394945.446,394954.10000002384,394961.844,398294.889,8,400,10,,ISIC_0025735.JPG
break,html.Screen,4_59_1,2023-09-16T02:46:40.492Z,,0,,,NaN,,,,,,false,,,,398280,398279.5,,398279,,398294.889,8,400,,,
break_continue,html.Screen,4_59_2,2023-09-16T02:46:40.492Z,,0,,,NaN,,,,,,false,,,,398280.60000002384,398280.39999997616,,398280.2000000477,,398294.889,8,400,,,
sequence,flow.Sequence,4_59,2023-09-16T02:46:40.493Z,,0,,,3318.5559999761754,completion,,,,,false,,,,398281.10000002384,398280.39999997616,394945.446,394953.89999997616,394961.844,398294.889,8,400,,,
trial,html.Screen,4_60_0,2023-09-16T02:46:45.028Z,,0,2,,4520.910999952292,response,ISIC_9066201.JPG,8,ISIC_1387456.JPG,ISIC_9066201.JPG,false,1,keypress(m),500,402816.10000002384,402815.7999999523,398278.619,398281.2999999523,398294.889,402827.904,8,400,11,,ISIC_1387456.JPG
break,html.Screen,4_60_1,2023-09-16T02:46:45.029Z,,0,,,NaN,,,,,,false,,,,402817.39999997616,402816.89999997616,,402816.39999997616,,402827.904,8,400,,,
break_continue,html.Screen,4_60_2,2023-09-16T02:46:45.030Z,,0,,,NaN,,,,,,false,,,,402817.89999997616,402817.60000002384,,402817.60000002384,,402827.904,8,400,,,
sequence,flow.Sequence,4_60,2023-09-16T02:46:45.030Z,,0,,,4522.711000023817,completion,,,,,false,,,,402818.10000002384,402817.60000002384,398278.619,398281.2000000477,398294.889,402827.904,8,400,,,
trial,html.Screen,4_61_0,2023-09-16T02:46:48.433Z,,0,2,,3392.5960000000196,response,ISIC_4842269.JPG,5,ISIC_0011799.JPG,ISIC_0011799.JPG,false,0,keypress(z),500,406220.89999997616,406220.5,402811.408,402818.39999997616,402827.904,406227.542,8,400,12,,ISIC_4842269.JPG
break,html.Screen,4_61_1,2023-09-16T02:46:48.434Z,,0,,,NaN,,,,,,false,,,,406222.10000002384,406221.7000000477,,406221.2000000477,,406227.542,8,400,,,
break_continue,html.Screen,4_61_2,2023-09-16T02:46:48.435Z,,0,,,NaN,,,,,,false,,,,406222.7999999523,406222.60000002384,,406222.39999997616,,406227.542,8,400,,,
sequence,flow.Sequence,4_61,2023-09-16T02:46:48.435Z,,0,,,3394.6960000238614,completion,,,,,false,,,,406223.10000002384,406222.60000002384,402811.408,402818.2999999523,402827.904,406227.542,8,400,,,
trial,html.Screen,4_62_0,2023-09-16T02:46:51.609Z,,0,2,,3168.957999999984,response,ISIC_0000467.JPG,14,ISIC_0068886.JPG,ISIC_0000467.JPG,false,1,keypress(m),500,409396.7999999523,409396.5,406211.148,406223.2999999523,406227.542,409410.775,8,400,13,,ISIC_0068886.JPG
break,html.Screen,4_62_1,2023-09-16T02:46:51.610Z,,0,,,NaN,,,,,,false,,,,409398.10000002384,409397.60000002384,,409397.10000002384,,409410.775,8,400,,,
break_continue,html.Screen,4_62_2,2023-09-16T02:46:51.610Z,,0,,,NaN,,,,,,false,,,,409398.7999999523,409398.5,,409398.39999997616,,409410.775,8,400,,,
sequence,flow.Sequence,4_62,2023-09-16T02:46:51.611Z,,0,,,3170.957999999984,completion,,,,,false,,,,409399.10000002384,409398.5,406211.148,406223.2000000477,406227.542,409410.775,8,400,,,
trial,html.Screen,4_63_0,2023-09-16T02:46:54.760Z,,0,2,,3136.8250000238186,response,ISIC_8068693.JPG,6,ISIC_9612228.JPG,ISIC_8068693.JPG,false,1,keypress(m),500,412547.89999997616,412547.60000002384,409394.226,409399.2999999523,409410.775,412560.426,8,400,14,,ISIC_9612228.JPG
break,html.Screen,4_63_1,2023-09-16T02:46:54.761Z,,0,,,NaN,,,,,,false,,,,412549.2999999523,412548.89999997616,,412548.2999999523,,412560.426,8,400,,,
break_continue,html.Screen,4_63_2,2023-09-16T02:46:54.762Z,,0,,,NaN,,,,,,false,,,,412549.7999999523,412549.60000002384,,412549.5,,412560.426,8,400,,,
sequence,flow.Sequence,4_63,2023-09-16T02:46:54.762Z,,0,,,3138.8250000238186,completion,,,,,false,,,,412550.10000002384,412549.60000002384,409394.226,409399.2000000477,409410.775,412560.426,8,400,,,
trial,html.Screen,4_64_0,2023-09-16T02:46:57.888Z,,0,2,,3115.274000047706,response,ISIC_1223648.JPG,10,ISIC_0536321.JPG,ISIC_0536321.JPG,false,0,keypress(z),500,415676.2000000477,415675.7000000477,412543.914,412550.2999999523,412560.426,415693.624,8,400,15,,ISIC_1223648.JPG
break,html.Screen,4_64_1,2023-09-16T02:46:57.889Z,,0,,,NaN,,,,,,false,,,,415677.60000002384,415677,,415676.5,,415693.624,8,400,,,
break_continue,html.Screen,4_64_2,2023-09-16T02:46:57.890Z,,0,,,NaN,,,,,,false,,,,415678.10000002384,415677.89999997616,,415677.7000000477,,415693.624,8,400,,,
sequence,flow.Sequence,4_64,2023-09-16T02:46:57.890Z,,0,,,3117.4739999761805,completion,,,,,false,,,,415678.39999997616,415677.89999997616,412543.914,412550.2000000477,412560.426,415693.624,8,400,,,
trial,html.Screen,4_65_0,2023-09-16T02:47:02.222Z,,0,2,,4315.976000023831,response,ISIC_0029639.JPG,8,ISIC_3043475.JPG,ISIC_0029639.JPG,false,1,keypress(m),500,420009.89999997616,420009.60000002384,415677.036,415678.60000002384,415693.624,420026.568,8,400,16,,ISIC_3043475.JPG
break,html.Screen,4_65_1,2023-09-16T02:47:02.223Z,,0,,,NaN,,,,,,false,,,,420011.2000000477,420010.7000000477,,420010.2000000477,,420026.568,8,400,,,
break_continue,html.Screen,4_65_2,2023-09-16T02:47:02.224Z,,0,,,NaN,,,,,,false,,,,420011.89999997616,420011.60000002384,,420011.39999997616,,420026.568,8,400,,,
sequence,flow.Sequence,4_65,2023-09-16T02:47:02.224Z,,0,,,4317.976000023831,completion,,,,,false,,,,420012.10000002384,420011.60000002384,415677.036,415678.60000002384,415693.624,420026.568,8,400,,,
trial,html.Screen,4_66_0,2023-09-16T02:47:05.380Z,,0,2,,3141.731999952288,response,ISIC_0579562.JPG,7,ISIC_0010089.JPG,ISIC_0010089.JPG,false,0,keypress(z),500,423168.7000000477,423168.2999999523,420009.993,420012.39999997616,420026.568,423176.095,8,400,17,,ISIC_0579562.JPG
break,html.Screen,4_66_1,2023-09-16T02:47:05.382Z,,0,,,NaN,,,,,,false,,,,423170.10000002384,423169.5,,423169,,423176.095,8,400,,,
break_continue,html.Screen,4_66_2,2023-09-16T02:47:05.382Z,,0,,,NaN,,,,,,false,,,,423170.7000000477,423170.5,,423170.2999999523,,423176.095,8,400,,,
sequence,flow.Sequence,4_66,2023-09-16T02:47:05.383Z,,0,,,3143.9319999999716,completion,,,,,false,,,,423170.89999997616,423170.5,420009.993,420012.2999999523,420026.568,423176.095,8,400,,,
trial,html.Screen,4_67_0,2023-09-16T02:47:09.405Z,,0,2,,4016.905000000028,response,ISIC_1412843.JPG,6,ISIC_0011369.JPG,ISIC_1412843.JPG,false,1,keypress(m),500,427193.2999999523,427193,423159.725,423171.2000000477,423176.095,427209.296,8,400,18,,ISIC_0011369.JPG
break,html.Screen,4_67_1,2023-09-16T02:47:09.406Z,,0,,,NaN,,,,,,false,,,,427194.7000000477,427194.10000002384,,427193.60000002384,,427209.296,8,400,,,
break_continue,html.Screen,4_67_2,2023-09-16T02:47:09.407Z,,0,,,NaN,,,,,,false,,,,427195.39999997616,427195.10000002384,,427194.89999997616,,427209.296,8,400,,,
sequence,flow.Sequence,4_67,2023-09-16T02:47:09.407Z,,0,,,4019.00500002387,completion,,,,,false,,,,427195.7000000477,427195.10000002384,423159.725,423171.2000000477,423176.095,427209.296,8,400,,,
trial,html.Screen,4_68_0,2023-09-16T02:47:15.142Z,,0,2,,5720.904000047711,response,ISIC_0032549.JPG,7,ISIC_0010382.JPG,ISIC_0032549.JPG,false,1,keypress(m),500,432930.60000002384,432930.2000000477,427192.708,427195.89999997616,427209.296,432941.9,8,400,19,,ISIC_0010382.JPG
break,html.Screen,4_68_1,2023-09-16T02:47:15.144Z,,0,,,NaN,,,,,,false,,,,432931.89999997616,432931.39999997616,,432931,,432941.9,8,400,,,
break_continue,html.Screen,4_68_2,2023-09-16T02:47:15.144Z,,0,,,NaN,,,,,,false,,,,432932.5,432932.2000000477,,432932.10000002384,,432941.9,8,400,,,
sequence,flow.Sequence,4_68,2023-09-16T02:47:15.145Z,,0,,,5722.904000047711,completion,,,,,false,,,,432932.7999999523,432932.2000000477,427192.708,427195.7999999523,427209.296,432941.9,8,400,,,
trial,html.Screen,4_69_0,2023-09-16T02:47:19.704Z,,0,2,,4550.30000004766,response,ISIC_5849178.JPG,12,ISIC_3761253.JPG,ISIC_5849178.JPG,false,1,keypress(m),500,437492.60000002384,437492.2000000477,432925.557,432933,432941.9,437508.408,8,400,20,,ISIC_3761253.JPG
break,html.Screen,4_69_1,2023-09-16T02:47:19.706Z,,0,,,NaN,,,,,,false,,,,437493.89999997616,437493.2999999523,,437492.89999997616,,437508.408,8,400,,,
break_continue,html.Screen,4_69_2,2023-09-16T02:47:19.706Z,,0,,,NaN,,,,,,false,,,,437494.5,437494.2000000477,,437494.10000002384,,437508.408,8,400,,,
sequence,flow.Sequence,4_69,2023-09-16T02:47:19.706Z,,0,,,4552.30000004766,completion,,,,,false,,,,437494.7999999523,437494.2000000477,432925.557,432932.89999997616,432941.9,437508.408,8,400,,,
trial,html.Screen,4_70_0,2023-09-16T02:47:24.003Z,,0,2,,4282.991999976162,response,ISIC_1670165.JPG,7,ISIC_0024565.JPG,ISIC_0024565.JPG,false,0,keypress(z),500,441791.7999999523,441791.39999997616,437491.819,437494.89999997616,437508.408,441808.036,8,400,21,,ISIC_1670165.JPG
break,html.Screen,4_70_1,2023-09-16T02:47:24.005Z,,0,,,NaN,,,,,,false,,,,441793.10000002384,441792.5,,441792.10000002384,,441808.036,8,400,,,
break_continue,html.Screen,4_70_2,2023-09-16T02:47:24.005Z,,0,,,NaN,,,,,,false,,,,441793.7000000477,441793.39999997616,,441793.2000000477,,441808.036,8,400,,,
sequence,flow.Sequence,4_70,2023-09-16T02:47:24.005Z,,0,,,4284.991999976162,completion,,,,,false,,,,441793.89999997616,441793.39999997616,437491.819,437494.89999997616,437508.408,441808.036,8,400,,,
trial,html.Screen,4_71_0,2023-09-16T02:47:27.288Z,,0,2,,3268.2639999522944,response,ISIC_0029106.JPG,5,ISIC_5490352.JPG,ISIC_0029106.JPG,false,1,keypress(m),500,445076.60000002384,445076.2999999523,441791.31,441794.2000000477,441808.036,445091.081,8,400,22,,ISIC_5490352.JPG
break,html.Screen,4_71_1,2023-09-16T02:47:27.290Z,,0,,,NaN,,,,,,false,,,,445078,445077.5,,445077,,445091.081,8,400,,,
break_continue,html.Screen,4_71_2,2023-09-16T02:47:27.290Z,,0,,,NaN,,,,,,false,,,,445078.60000002384,445078.39999997616,,445078.2000000477,,445091.081,8,400,,,
sequence,flow.Sequence,4_71,2023-09-16T02:47:27.290Z,,0,,,3270.3639999761363,completion,,,,,false,,,,445078.89999997616,445078.39999997616,441791.31,441794.10000002384,441808.036,445091.081,8,400,,,
trial,html.Screen,4_72_0,2023-09-16T02:47:30.650Z,,0,2,,3347.2189999523107,response,ISIC_7519557.JPG,13,ISIC_0014219.JPG,ISIC_0014219.JPG,false,0,keypress(z),500,448438.60000002384,448438.2999999523,445074.498,445079.10000002384,445091.081,448440.602,8,400,23,,ISIC_7519557.JPG
break,html.Screen,4_72_1,2023-09-16T02:47:30.651Z,,0,,,NaN,,,,,,false,,,,448439.89999997616,448439.39999997616,,448438.89999997616,,448440.602,8,400,,,
break_continue,html.Screen,4_72_2,2023-09-16T02:47:30.652Z,,0,,,NaN,,,,,,false,,,,448440.5,448440.2999999523,,448440.10000002384,,448440.602,8,400,,,
sequence,flow.Sequence,4_72,2023-09-16T02:47:30.653Z,,0,,,3349.2189999523107,completion,,,,,false,,,,448441,448440.2999999523,445074.498,445079.10000002384,445091.081,448440.602,8,400,,,
trial,html.Screen,4_73_0,2023-09-16T02:47:33.904Z,,0,2,,3251.3979999999865,response,ISIC_0001134.JPG,13,ISIC_5048124.JPG,ISIC_5048124.JPG,false,0,keypress(z),500,451692.2999999523,451692,448424.209,448441.2999999523,448440.602,451723.867,8,400,24,,ISIC_0001134.JPG
break,html.Screen,4_73_1,2023-09-16T02:47:33.905Z,,0,,,NaN,,,,,,false,,,,451693.39999997616,451693.10000002384,,451692.60000002384,,451723.867,8,400,,,
break_continue,html.Screen,4_73_2,2023-09-16T02:47:33.905Z,,0,,,NaN,,,,,,false,,,,451693.89999997616,451693.7000000477,,451693.60000002384,,451723.867,8,400,,,
sequence,flow.Sequence,4_73,2023-09-16T02:47:33.906Z,,0,,,3253.09800004767,completion,,,,,false,,,,451694.2000000477,451693.7000000477,448424.209,448441.10000002384,448440.602,451723.867,8,400,,,
trial,html.Screen,4_74_0,2023-09-16T02:47:36.649Z,,0,2,,2712.8330000476562,response,ISIC_0072826.JPG,14,ISIC_2341100.JPG,ISIC_2341100.JPG,false,0,keypress(z),500,454437,454436.7000000477,451707.244,451694.39999997616,451723.867,454440.081,8,400,25,,ISIC_0072826.JPG
break,html.Screen,4_74_1,2023-09-16T02:47:36.650Z,,0,,,NaN,,,,,,false,,,,454438.39999997616,454437.7999999523,,454437.39999997616,,454440.081,8,400,,,
break_continue,html.Screen,4_74_2,2023-09-16T02:47:36.651Z,,0,,,NaN,,,,,,false,,,,454439,454438.7000000477,,454438.5,,454440.081,8,400,,,
sequence,flow.Sequence,4_74,2023-09-16T02:47:36.651Z,,0,,,2714.8330000476562,completion,,,,,false,,,,454439.2000000477,454438.7000000477,451707.244,451694.2999999523,451723.867,454440.081,8,400,,,
trial,html.Screen,4_75_0,2023-09-16T02:47:40.350Z,,0,2,,3698.3189999761526,response,ISIC_5441247.JPG,11,ISIC_0011527.JPG,ISIC_5441247.JPG,false,1,keypress(m),500,458138.89999997616,458138.39999997616,454423.719,454439.39999997616,454440.081,458156.636,8,400,26,,ISIC_0011527.JPG
break,html.Screen,4_75_1,2023-09-16T02:47:40.352Z,,0,,,NaN,,,,,,false,,,,458140.2999999523,458139.89999997616,,458139.39999997616,,458156.636,8,400,,,
break_continue,html.Screen,4_75_2,2023-09-16T02:47:40.353Z,,0,,,NaN,,,,,,false,,,,458140.89999997616,458140.7000000477,,458140.60000002384,,458156.636,8,400,,,
sequence,flow.Sequence,4_75,2023-09-16T02:47:40.353Z,,0,,,3700.619000047678,completion,,,,,false,,,,458141.2000000477,458140.7000000477,454423.719,454439.39999997616,454440.081,458156.636,8,400,,,
trial,html.Screen,4_76_0,2023-09-16T02:47:43.319Z,,0,2,,2950.564000047685,response,ISIC_0071111.JPG,8,ISIC_6258744.JPG,ISIC_6258744.JPG,false,0,keypress(z),500,461107.60000002384,461107.2000000477,458139.859,458141.39999997616,458156.636,461123.04,8,400,27,,ISIC_0071111.JPG
break,html.Screen,4_76_1,2023-09-16T02:47:43.320Z,,0,,,NaN,,,,,,false,,,,461108.89999997616,461108.2999999523,,461107.89999997616,,461123.04,8,400,,,
break_continue,html.Screen,4_76_2,2023-09-16T02:47:43.321Z,,0,,,NaN,,,,,,false,,,,461109.5,461109.2000000477,,461109.10000002384,,461123.04,8,400,,,
sequence,flow.Sequence,4_76,2023-09-16T02:47:43.321Z,,0,,,2952.564000047685,completion,,,,,false,,,,461109.7999999523,461109.2000000477,458139.859,458141.39999997616,458156.636,461123.04,8,400,,,
trial,html.Screen,4_77_0,2023-09-16T02:47:48.141Z,,0,2,,4806.460000000021,response,ISIC_0248628.JPG,7,ISIC_1161370.JPG,ISIC_0248628.JPG,false,1,keypress(m),500,465929.7999999523,465929.5,461106.461,461110,461123.04,465939.098,8,400,28,,ISIC_1161370.JPG
break,html.Screen,4_77_1,2023-09-16T02:47:48.143Z,,0,,,NaN,,,,,,false,,,,465931.2000000477,465930.7000000477,,465930.10000002384,,465939.098,8,400,,,
break_continue,html.Screen,4_77_2,2023-09-16T02:47:48.143Z,,0,,,NaN,,,,,,false,,,,465931.7999999523,465931.60000002384,,465931.2999999523,,465939.098,8,400,,,
sequence,flow.Sequence,4_77,2023-09-16T02:47:48.144Z,,0,,,4808.560000023863,completion,,,,,false,,,,465932.10000002384,465931.60000002384,461106.461,461109.89999997616,461123.04,465939.098,8,400,,,
trial,html.Screen,4_78_0,2023-09-16T02:47:51.051Z,,0,2,,2899.902000000002,response,ISIC_0061685.JPG,12,ISIC_0056247.JPG,ISIC_0056247.JPG,false,0,keypress(z),500,468839.2999999523,468839,465922.733,465932.2999999523,465939.098,468855.537,8,400,29,,ISIC_0061685.JPG
break,html.Screen,4_78_1,2023-09-16T02:47:51.052Z,,0,,,NaN,,,,,,false,,,,468840.7000000477,468840.10000002384,,468839.7000000477,,468855.537,8,400,,,
break_continue,html.Screen,4_78_2,2023-09-16T02:47:51.053Z,,0,,,NaN,,,,,,false,,,,468841.39999997616,468841.2000000477,,468841,,468855.537,8,400,,,
sequence,flow.Sequence,4_78,2023-09-16T02:47:51.053Z,,0,,,2902.1020000476856,completion,,,,,false,,,,468841.7000000477,468841.2000000477,465922.733,465932.2000000477,465939.098,468855.537,8,400,,,
trial,html.Screen,4_79_0,2023-09-16T02:47:53.755Z,,0,2,,2687.262999952305,response,ISIC_0010658.JPG,8,ISIC_2316159.JPG,ISIC_2316159.JPG,false,0,keypress(z),500,471543.10000002384,471542.7999999523,468838.931,468842,468855.537,471555.563,8,400,30,,ISIC_0010658.JPG
break,html.Screen,4_79_1,2023-09-16T02:47:53.756Z,,0,,,NaN,,,,,,false,,,,471544.60000002384,471544,,471543.5,,471555.563,8,400,,,
break_continue,html.Screen,4_79_2,2023-09-16T02:47:53.757Z,,0,,,NaN,,,,,,false,,,,471545.2000000477,471545,,471544.7999999523,,471555.563,8,400,,,
sequence,flow.Sequence,4_79,2023-09-16T02:47:53.757Z,,0,,,2689.462999999989,completion,,,,,false,,,,471545.60000002384,471545,468838.931,468841.89999997616,468855.537,471555.563,8,400,,,
trial,html.Screen,4_80_0,2023-09-16T02:47:56.777Z,,0,2,,3009.037000023818,response,ISIC_7066723.JPG,13,ISIC_2808622.JPG,ISIC_2808622.JPG,false,0,keypress(z),500,474565,474564.60000002384,471538.922,471545.7000000477,471555.563,474571.713,8,400,31,,ISIC_7066723.JPG
break,html.Screen,4_80_1,2023-09-16T02:47:56.778Z,,0,,,NaN,,,,,,false,,,,474566.2999999523,474565.7999999523,,474565.2999999523,,474571.713,8,400,,,
break_continue,html.Screen,4_80_2,2023-09-16T02:47:56.779Z,,0,,,NaN,,,,,,false,,,,474567,474566.7000000477,,474566.5,,474571.713,8,400,,,
sequence,flow.Sequence,4_80,2023-09-16T02:47:56.779Z,,0,,,3011.13700004766,completion,,,,,false,,,,474567.2000000477,474566.7000000477,471538.922,471545.7000000477,471555.563,474571.713,8,400,,,
trial,html.Screen,4_81_0,2023-09-16T02:47:59.522Z,,0,2,,2738.5869999523275,response,ISIC_3586824.JPG,13,ISIC_7899041.JPG,ISIC_3586824.JPG,false,1,keypress(m),500,477310.7000000477,477310.2999999523,474555.313,474567.39999997616,474571.713,477321.452,8,400,32,,ISIC_7899041.JPG
break,html.Screen,4_81_1,2023-09-16T02:47:59.524Z,,0,,,NaN,,,,,,false,,,,477312.2000000477,477311.7999999523,,477311,,477321.452,8,400,,,
break_continue,html.Screen,4_81_2,2023-09-16T02:47:59.524Z,,0,,,NaN,,,,,,false,,,,477312.89999997616,477312.60000002384,,477312.39999997616,,477321.452,8,400,,,
sequence,flow.Sequence,4_81,2023-09-16T02:47:59.525Z,,0,,,2740.887000023853,completion,,,,,false,,,,477313.10000002384,477312.60000002384,474555.313,474567.39999997616,474571.713,477321.452,8,400,,,
trial,html.Screen,4_82_0,2023-09-16T02:48:04.339Z,,0,2,,4805.947999976168,response,ISIC_0000446.JPG,8,ISIC_0000553.JPG,ISIC_0000553.JPG,false,0,keypress(z),500,482127.7000000477,482127.39999997616,477305.096,477313.2999999523,477321.452,482137.735,8,400,33,,ISIC_0000446.JPG
break,html.Screen,4_82_1,2023-09-16T02:48:04.341Z,,0,,,NaN,,,,,,false,,,,482129.10000002384,482128.60000002384,,482128.10000002384,,482137.735,8,400,,,
break_continue,html.Screen,4_82_2,2023-09-16T02:48:04.341Z,,0,,,NaN,,,,,,false,,,,482129.7999999523,482129.5,,482129.2999999523,,482137.735,8,400,,,
sequence,flow.Sequence,4_82,2023-09-16T02:48:04.342Z,,0,,,4808.04800000001,completion,,,,,false,,,,482130,482129.5,477305.096,477313.2999999523,477321.452,482137.735,8,400,,,
trial,html.Screen,4_83_0,2023-09-16T02:48:07.217Z,,0,2,,2866.9650000476977,response,ISIC_0031304.JPG,8,ISIC_8699453.JPG,ISIC_8699453.JPG,false,0,keypress(z),500,485005,485004.7000000477,482121.345,482130.2000000477,482137.735,485021.009,8,400,34,,ISIC_0031304.JPG
break,html.Screen,4_83_1,2023-09-16T02:48:07.218Z,,0,,,NaN,,,,,,false,,,,485006.39999997616,485005.7999999523,,485005.2999999523,,485021.009,8,400,,,
break_continue,html.Screen,4_83_2,2023-09-16T02:48:07.219Z,,0,,,NaN,,,,,,false,,,,485007,485006.89999997616,,485006.60000002384,,485021.009,8,400,,,
sequence,flow.Sequence,4_83,2023-09-16T02:48:07.219Z,,0,,,2869.164999976172,completion,,,,,false,,,,485007.2999999523,485006.89999997616,482121.345,482130.10000002384,482137.735,485021.009,8,400,,,
trial,html.Screen,4_84_0,2023-09-16T02:48:10.509Z,,0,2,,3276.591000023822,response,ISIC_0062812.JPG,12,ISIC_4412555.JPG,ISIC_4412555.JPG,false,0,keypress(z),500,488297.7999999523,488297.60000002384,485004.437,485007.60000002384,485021.009,488303.916,8,400,35,,ISIC_0062812.JPG
break,html.Screen,4_84_1,2023-09-16T02:48:10.510Z,,0,,,NaN,,,,,,false,,,,488298.60000002384,488298.2999999523,,488298,,488303.916,8,400,,,
break_continue,html.Screen,4_84_2,2023-09-16T02:48:10.510Z,,0,,,NaN,,,,,,false,,,,488299,488298.7999999523,,488298.7000000477,,488303.916,8,400,,,
sequence,flow.Sequence,4_84,2023-09-16T02:48:10.511Z,,0,,,3277.7909999522963,completion,,,,,false,,,,488299.10000002384,488298.7999999523,485004.437,485007.5,485021.009,488303.916,8,400,,,
trial,html.Screen,4_85_0,2023-09-16T02:48:13.302Z,,0,2,,2786.3839999522897,response,ISIC_9958062.JPG,6,ISIC_0033245.JPG,ISIC_9958062.JPG,false,1,keypress(m),500,491090.7000000477,491090.2999999523,488287.455,488299.2000000477,488303.916,491103.806,8,400,36,,ISIC_0033245.JPG
break,html.Screen,4_85_1,2023-09-16T02:48:13.304Z,,0,,,NaN,,,,,,false,,,,491092,491091.5,,491091,,491103.806,8,400,,,
break_continue,html.Screen,4_85_2,2023-09-16T02:48:13.304Z,,0,,,NaN,,,,,,false,,,,491092.7000000477,491092.5,,491092.2999999523,,491103.806,8,400,,,
sequence,flow.Sequence,4_85,2023-09-16T02:48:13.305Z,,0,,,2788.5839999999735,completion,,,,,false,,,,491092.89999997616,491092.5,488287.455,488299.2000000477,488303.916,491103.806,8,400,,,
trial,html.Screen,4_86_0,2023-09-16T02:48:17.183Z,,0,2,,3867.493999952334,response,ISIC_0624498.JPG,9,ISIC_0033086.JPG,ISIC_0033086.JPG,false,0,keypress(z),500,494971.7000000477,494971.2999999523,491087.231,491093.2000000477,491103.806,495003.323,8,400,37,,ISIC_0624498.JPG
break,html.Screen,4_86_1,2023-09-16T02:48:17.184Z,,0,,,NaN,,,,,,false,,,,494972.7000000477,494972.5,,494972.10000002384,,495003.323,8,400,,,
break_continue,html.Screen,4_86_2,2023-09-16T02:48:17.185Z,,0,,,NaN,,,,,,false,,,,494973.2999999523,494973.10000002384,,494973,,495003.323,8,400,,,
sequence,flow.Sequence,4_86,2023-09-16T02:48:17.185Z,,0,,,3869.2940000238596,completion,,,,,false,,,,494973.60000002384,494973.10000002384,491087.231,491093.2000000477,491103.806,495003.323,8,400,,,
trial,html.Screen,4_87_0,2023-09-16T02:48:20.655Z,,0,2,,3439.277000023867,response,ISIC_3338629.JPG,14,ISIC_8389650.JPG,ISIC_8389650.JPG,false,0,keypress(z),500,498443,498442.60000002384,494986.847,494973.7999999523,495003.323,498452.976,8,400,38,,ISIC_3338629.JPG
break,html.Screen,4_87_1,2023-09-16T02:48:20.656Z,,0,,,NaN,,,,,,false,,,,498444.60000002384,498444.10000002384,,498443.39999997616,,498452.976,8,400,,,
break_continue,html.Screen,4_87_2,2023-09-16T02:48:20.657Z,,0,,,NaN,,,,,,false,,,,498445.10000002384,498444.89999997616,,498444.7000000477,,498452.976,8,400,,,
sequence,flow.Sequence,4_87,2023-09-16T02:48:20.657Z,,0,,,3441.5769999761833,completion,,,,,false,,,,498445.39999997616,498444.89999997616,494986.847,494973.7000000477,495003.323,498452.976,8,400,,,
trial,html.Screen,4_88_0,2023-09-16T02:48:23.899Z,,0,2,,3234.423999976134,response,ISIC_8562820.JPG,9,ISIC_0212774.JPG,ISIC_0212774.JPG,false,0,keypress(z),500,501687.7999999523,501687.39999997616,498436.379,498445.5,498452.976,501702.921,8,400,39,,ISIC_8562820.JPG
break,html.Screen,4_88_1,2023-09-16T02:48:23.901Z,,0,,,NaN,,,,,,false,,,,501688.89999997616,501688.39999997616,,501688.10000002384,,501702.921,8,400,,,
break_continue,html.Screen,4_88_2,2023-09-16T02:48:23.901Z,,0,,,NaN,,,,,,false,,,,501689.5,501689.2999999523,,501689.10000002384,,501702.921,8,400,,,
sequence,flow.Sequence,4_88,2023-09-16T02:48:23.901Z,,0,,,3236.323999952292,completion,,,,,false,,,,501689.7999999523,501689.2999999523,498436.379,498445.39999997616,498452.976,501702.921,8,400,,,
trial,html.Screen,4_89_0,2023-09-16T02:48:26.675Z,,0,2,,2759.579000000027,response,ISIC_7885010.JPG,5,ISIC_0055526.JPG,ISIC_7885010.JPG,false,1,keypress(m),500,504463,504462.5,501686.304,501690,501702.921,504469.134,8,400,40,,ISIC_0055526.JPG
break,html.Screen,4_89_1,2023-09-16T02:48:26.676Z,,0,,,NaN,,,,,,false,,,,504464.2999999523,504463.89999997616,,504463.2000000477,,504469.134,8,400,,,
break_continue,html.Screen,4_89_2,2023-09-16T02:48:26.676Z,,0,,,NaN,,,,,,false,,,,504464.7999999523,504464.60000002384,,504464.5,,504469.134,8,400,,,
sequence,flow.Sequence,4_89,2023-09-16T02:48:26.677Z,,0,,,2761.679000023869,completion,,,,,false,,,,504465.10000002384,504464.60000002384,501686.304,501690,501702.921,504469.134,8,400,,,
trial,html.Screen,4_90_0,2023-09-16T02:48:29.874Z,,0,2,,3192.6659999522963,response,ISIC_6488658.JPG,7,ISIC_8378321.JPG,ISIC_8378321.JPG,false,0,keypress(z),500,507662.2999999523,507661.7999999523,504452.766,504465.2999999523,504469.134,507668.876,8,400,41,,ISIC_6488658.JPG
break,html.Screen,4_90_1,2023-09-16T02:48:29.875Z,,0,,,NaN,,,,,,false,,,,507663.7000000477,507663.10000002384,,507662.7000000477,,507668.876,8,400,,,
break_continue,html.Screen,4_90_2,2023-09-16T02:48:29.876Z,,0,,,NaN,,,,,,false,,,,507664.2999999523,507664,,507663.7999999523,,507668.876,8,400,,,
sequence,flow.Sequence,4_90,2023-09-16T02:48:29.876Z,,0,,,3194.86599999998,completion,,,,,false,,,,507664.60000002384,507664,504452.766,504465.2999999523,504469.134,507668.876,8,400,,,
trial,html.Screen,4_91_0,2023-09-16T02:48:33.417Z,,0,2,,3536.423999952327,response,ISIC_0033625.JPG,13,ISIC_0032624.JPG,ISIC_0033625.JPG,false,1,keypress(m),500,511205.5,511205.2999999523,507652.5,507664.7999999523,507668.876,511218.542,8,400,42,,ISIC_0032624.JPG
break,html.Screen,4_91_1,2023-09-16T02:48:33.418Z,,0,,,NaN,,,,,,false,,,,511206.10000002384,511205.89999997616,,511205.7000000477,,511218.542,8,400,,,
break_continue,html.Screen,4_91_2,2023-09-16T02:48:33.418Z,,0,,,NaN,,,,,,false,,,,511206.2999999523,511206.2999999523,,511206.2000000477,,511218.542,8,400,,,
sequence,flow.Sequence,4_91,2023-09-16T02:48:33.418Z,,0,,,3537.423999952327,completion,,,,,false,,,,511206.39999997616,511206.2999999523,507652.5,507664.7000000477,507668.876,511218.542,8,400,,,
trial,html.Screen,4_92_0,2023-09-16T02:48:37.584Z,,0,2,,4153.2579999523,response,ISIC_9482251.JPG,12,ISIC_0033075.JPG,ISIC_9482251.JPG,false,1,keypress(m),500,515372.10000002384,515371.7999999523,511202.203,511206.5,511218.542,515385.029,8,400,43,,ISIC_0033075.JPG
break,html.Screen,4_92_1,2023-09-16T02:48:37.585Z,,0,,,NaN,,,,,,false,,,,515373.5,515373,,515372.5,,515385.029,8,400,,,
break_continue,html.Screen,4_92_2,2023-09-16T02:48:37.586Z,,0,,,NaN,,,,,,false,,,,515374.2000000477,515374,,515373.7000000477,,515385.029,8,400,,,
sequence,flow.Sequence,4_92,2023-09-16T02:48:37.586Z,,0,,,4155.457999999984,completion,,,,,false,,,,515374.39999997616,515374,511202.203,511206.5,511218.542,515385.029,8,400,,,
trial,html.Screen,4_93_0,2023-09-16T02:48:40.904Z,,0,2,,3306.5710000238614,response,ISIC_0014788.JPG,12,ISIC_0033962.JPG,ISIC_0033962.JPG,false,0,keypress(z),500,518691.89999997616,518691.60000002384,515368.518,515374.60000002384,515385.029,518701.243,8,400,44,,ISIC_0014788.JPG
break,html.Screen,4_93_1,2023-09-16T02:48:40.905Z,,0,,,NaN,,,,,,false,,,,518693.39999997616,518693,,518692.2000000477,,518701.243,8,400,,,
break_continue,html.Screen,4_93_2,2023-09-16T02:48:40.906Z,,0,,,NaN,,,,,,false,,,,518694,518693.7000000477,,518693.60000002384,,518701.243,8,400,,,
sequence,flow.Sequence,4_93,2023-09-16T02:48:40.906Z,,0,,,3308.6710000477033,completion,,,,,false,,,,518694.2999999523,518693.7000000477,515368.518,515374.5,515385.029,518701.243,8,400,,,
trial,html.Screen,4_94_0,2023-09-16T02:48:43.702Z,,0,2,,2788.957000047667,response,ISIC_3327201.JPG,13,ISIC_0027225.JPG,ISIC_0027225.JPG,false,0,keypress(z),500,521490.60000002384,521490.2000000477,518684.891,518694.5,518701.243,521501.155,8,400,45,,ISIC_3327201.JPG
break,html.Screen,4_94_1,2023-09-16T02:48:43.704Z,,0,,,NaN,,,,,,false,,,,521492,521491.39999997616,,521490.89999997616,,521501.155,8,400,,,
break_continue,html.Screen,4_94_2,2023-09-16T02:48:43.704Z,,0,,,NaN,,,,,,false,,,,521492.60000002384,521492.2999999523,,521492.10000002384,,521501.155,8,400,,,
sequence,flow.Sequence,4_94,2023-09-16T02:48:43.704Z,,0,,,2791.0569999522995,completion,,,,,false,,,,521492.7999999523,521492.2999999523,518684.891,518694.39999997616,518701.243,521501.155,8,400,,,
trial,html.Screen,4_95_0,2023-09-16T02:48:46.612Z,,0,2,,2898.545000047656,response,ISIC_8121679.JPG,12,ISIC_0070435.JPG,ISIC_8121679.JPG,false,1,keypress(m),500,524400,524399.7000000477,521484.64,521493,521501.155,524434.366,8,400,46,,ISIC_0070435.JPG
break,html.Screen,4_95_1,2023-09-16T02:48:46.613Z,,0,,,NaN,,,,,,false,,,,524401.2999999523,524400.7999999523,,524400.3999999762,,524434.366,8,400,,,
break_continue,html.Screen,4_95_2,2023-09-16T02:48:46.614Z,,0,,,NaN,,,,,,false,,,,524402.1000000238,524402,,524401.7999999523,,524434.366,8,400,,,
sequence,flow.Sequence,4_95,2023-09-16T02:48:46.614Z,,0,,,2900.844999999972,completion,,,,,false,,,,524402.3999999762,524402,521484.64,521493,521501.155,524434.366,8,400,,,
trial,html.Screen,4_96_0,2023-09-16T02:48:49.482Z,,0,2,,2836.03399997612,response,ISIC_7897925.JPG,12,ISIC_1985436.JPG,ISIC_1985436.JPG,false,0,keypress(z),500,527270.7000000477,527270.3999999762,524417.695,524402.7000000477,524434.366,527284.031,8,400,47,,ISIC_7897925.JPG
break,html.Screen,4_96_1,2023-09-16T02:48:49.484Z,,0,,,NaN,,,,,,false,,,,527272.1000000238,527271.6000000238,,527271.1000000238,,527284.031,8,400,,,
break_continue,html.Screen,4_96_2,2023-09-16T02:48:49.484Z,,0,,,NaN,,,,,,false,,,,527272.7000000477,527272.3999999762,,527272.2000000477,,527284.031,8,400,,,
sequence,flow.Sequence,4_96,2023-09-16T02:48:49.485Z,,0,,,2838.03399997612,completion,,,,,false,,,,527273,527272.3999999762,524417.695,524402.6000000238,524434.366,527284.031,8,400,,,
trial,html.Screen,4_97_0,2023-09-16T02:48:52.100Z,,0,2,,2604.1690000477247,response,ISIC_9527051.JPG,5,ISIC_0069210.JPG,ISIC_9527051.JPG,false,1,keypress(m),500,529888.5,529888.2000000477,527267.472,527273.1000000238,527284.031,529900.386,8,400,48,,ISIC_0069210.JPG
break,html.Screen,4_97_1,2023-09-16T02:48:52.101Z,,0,,,NaN,,,,,,false,,,,529889.7999999523,529889.2999999523,,529888.7999999523,,529900.386,8,400,,,
break_continue,html.Screen,4_97_2,2023-09-16T02:48:52.102Z,,0,,,NaN,,,,,,false,,,,529890.3999999762,529890.2000000477,,529890,,529900.386,8,400,,,
sequence,flow.Sequence,4_97,2023-09-16T02:48:52.102Z,,0,,,2606.1690000477247,completion,,,,,false,,,,529890.7000000477,529890.2000000477,527267.472,527273.1000000238,527284.031,529900.386,8,400,,,
trial,html.Screen,4_98_0,2023-09-16T02:48:55.898Z,,0,2,,3785.9139999522595,response,ISIC_8523143.JPG,4,ISIC_0067550.JPG,ISIC_8523143.JPG,false,1,keypress(m),500,533686.7000000477,533686.2999999523,529883.909,529891,529900.386,533700.022,8,400,49,,ISIC_0067550.JPG
break,html.Screen,4_98_1,2023-09-16T02:48:55.900Z,,0,,,NaN,,,,,,false,,,,533688,533687.3999999762,,533687,,533700.022,8,400,,,
break_continue,html.Screen,4_98_2,2023-09-16T02:48:55.900Z,,0,,,NaN,,,,,,false,,,,533688.5,533688.2999999523,,533688.1000000238,,533700.022,8,400,,,
sequence,flow.Sequence,4_98,2023-09-16T02:48:55.900Z,,0,,,3787.9139999522595,completion,,,,,false,,,,533688.8999999762,533688.2999999523,529883.909,529890.7999999523,529900.386,533700.022,8,400,,,
trial,html.Screen,4_99_0,2023-09-16T02:48:59.031Z,,0,2,,3118.877999976161,response,ISIC_0058021.JPG,10,ISIC_0054914.JPG,ISIC_0058021.JPG,false,1,keypress(m),500,536819.2999999523,536818.8999999762,533683.606,533689.1000000238,533700.022,536833.253,8,400,50,,ISIC_0054914.JPG
break,html.Screen,4_99_1,2023-09-16T02:49:09.029Z,,0,,,9999.034999999916,timeout,,,,,false,,,,546817.6000000238,546815.955,536816.671,536819.6000000238,536833.253,546832.288,8,400,,,
break_continue,html.Screen,4_99_2,2023-09-16T02:49:10.531Z,,0,,,1439.3120000238996,response,,,,,false,continue,keypress(Space),,548319.6000000238,548271.6000000238,546815.955,546818.1000000238,546832.288,548332.027,8,400,,,
sequence,flow.Sequence,4_99,2023-09-16T02:49:10.532Z,,0,,,14571.578000023845,completion,,,,,false,,,,548320,548271.6000000238,533683.606,533689,533700.022,548332.027,8,400,,,
trial,html.Screen,4_100_0,2023-09-16T02:49:13.308Z,,0,3,,2764.472999999998,response,ISIC_0063157.JPG,6,ISIC_0029562.JPG,ISIC_0029562.JPG,false,0,keypress(z),500,551096.7999999523,551096.5,548315.72,548320.7000000477,548332.027,551121.647,8,400,1,,ISIC_0063157.JPG
break,html.Screen,4_100_1,2023-09-16T02:49:13.310Z,,0,,,NaN,,,,,,false,,,,551098.1000000238,551097.7000000477,,551097.2000000477,,551121.647,8,400,,,
break_continue,html.Screen,4_100_2,2023-09-16T02:49:13.310Z,,0,,,NaN,,,,,,false,,,,551098.7000000477,551098.5,,551098.2999999523,,551121.647,8,400,,,
sequence,flow.Sequence,4_100,2023-09-16T02:49:13.311Z,,0,,,2766.472999999998,completion,,,,,false,,,,551099.1000000238,551098.5,548315.72,548320.6000000238,548332.027,551121.647,8,400,,,
trial,html.Screen,4_101_0,2023-09-16T02:49:16.604Z,,0,3,,3270.0530000476865,response,ISIC_0072976.JPG,10,ISIC_0060355.JPG,ISIC_0060355.JPG,false,0,keypress(z),500,554392.3999999762,554391.7000000477,551082.115,551099.2999999523,551121.647,554398.204,8,400,2,,ISIC_0072976.JPG
break,html.Screen,4_101_1,2023-09-16T02:49:16.606Z,,0,,,NaN,,,,,,false,,,,554394.1000000238,554393.5,,554392.7999999523,,554398.204,8,400,,,
break_continue,html.Screen,4_101_2,2023-09-16T02:49:16.607Z,,0,,,NaN,,,,,,false,,,,554395,554394.7000000477,,554394.3999999762,,554398.204,8,400,,,
sequence,flow.Sequence,4_101,2023-09-16T02:49:16.607Z,,0,,,3273.0530000476865,completion,,,,,false,,,,554395.2999999523,554394.7000000477,551082.115,551099.1000000238,551121.647,554398.204,8,400,,,
trial,html.Screen,4_102_0,2023-09-16T02:49:19.748Z,,0,3,,3138.295999999973,response,ISIC_0014994.JPG,12,ISIC_1410408.JPG,ISIC_1410408.JPG,false,0,keypress(z),500,557536.7999999523,557536.5,554381.677,554395.5,554398.204,557548.002,8,400,3,,ISIC_0014994.JPG
break,html.Screen,4_102_1,2023-09-16T02:49:19.750Z,,0,,,NaN,,,,,,false,,,,557538.1000000238,557537.5,,557537.2000000477,,557548.002,8,400,,,
break_continue,html.Screen,4_102_2,2023-09-16T02:49:19.750Z,,0,,,NaN,,,,,,false,,,,557538.7000000477,557538.5,,557538.2999999523,,557548.002,8,400,,,
sequence,flow.Sequence,4_102,2023-09-16T02:49:19.751Z,,0,,,3140.295999999973,completion,,,,,false,,,,557539,557538.5,554381.677,554395.5,554398.204,557548.002,8,400,,,
trial,html.Screen,4_103_0,2023-09-16T02:49:22.899Z,,0,3,,3138.698000047705,response,ISIC_7266462.JPG,14,ISIC_1470245.JPG,ISIC_7266462.JPG,false,1,keypress(m),500,560687,560686.7000000477,557531.56,557539.1000000238,557548.002,560697.688,8,400,4,,ISIC_1470245.JPG
break,html.Screen,4_103_1,2023-09-16T02:49:22.900Z,,0,,,NaN,,,,,,false,,,,560688.3999999762,560687.7999999523,,560687.2999999523,,560697.688,8,400,,,
break_continue,html.Screen,4_103_2,2023-09-16T02:49:22.901Z,,0,,,NaN,,,,,,false,,,,560688.8999999762,560688.7000000477,,560688.6000000238,,560697.688,8,400,,,
sequence,flow.Sequence,4_103,2023-09-16T02:49:22.901Z,,0,,,3140.698000047705,completion,,,,,false,,,,560689.2000000477,560688.7000000477,557531.56,557539.1000000238,557548.002,560697.688,8,400,,,
trial,html.Screen,4_104_0,2023-09-16T02:49:26.082Z,,0,3,,3172.012000047718,response,ISIC_8082460.JPG,5,ISIC_2378428.JPG,ISIC_8082460.JPG,false,1,keypress(m),500,563870.1000000238,563869.7000000477,560681.287,560689.3999999762,560697.688,563880.858,8,400,5,,ISIC_2378428.JPG
break,html.Screen,4_104_1,2023-09-16T02:49:26.083Z,,0,,,NaN,,,,,,false,,,,563871.5,563870.8999999762,,563870.3999999762,,563880.858,8,400,,,
break_continue,html.Screen,4_104_2,2023-09-16T02:49:26.084Z,,0,,,NaN,,,,,,false,,,,563872.2000000477,563871.8999999762,,563871.7999999523,,563880.858,8,400,,,
sequence,flow.Sequence,4_104,2023-09-16T02:49:26.084Z,,0,,,3174.2119999761926,completion,,,,,false,,,,563872.5,563871.8999999762,560681.287,560689.3999999762,560697.688,563880.858,8,400,,,
trial,html.Screen,4_105_0,2023-09-16T02:49:28.759Z,,0,3,,2666.1419999999925,response,ISIC_0024952.JPG,8,ISIC_0057307.JPG,ISIC_0024952.JPG,false,1,keypress(m),500,566547.3999999762,566547,563864.335,563872.7000000477,563880.858,566564.027,8,400,6,,ISIC_0057307.JPG
break,html.Screen,4_105_1,2023-09-16T02:49:28.760Z,,0,,,NaN,,,,,,false,,,,566548.7000000477,566548.2000000477,,566547.7000000477,,566564.027,8,400,,,
break_continue,html.Screen,4_105_2,2023-09-16T02:49:28.761Z,,0,,,NaN,,,,,,false,,,,566549.2999999523,566549.1000000238,,566549,,566564.027,8,400,,,
sequence,flow.Sequence,4_105,2023-09-16T02:49:28.761Z,,0,,,2668.2420000238344,completion,,,,,false,,,,566549.6000000238,566549.1000000238,563864.335,563872.6000000238,563880.858,566564.027,8,400,,,
trial,html.Screen,4_106_0,2023-09-16T02:49:31.587Z,,0,3,,2811.57300002384,response,ISIC_0026664.JPG,11,ISIC_0014558.JPG,ISIC_0026664.JPG,false,1,keypress(m),500,569375.8999999762,569375.6000000238,566547.452,566549.7999999523,566564.027,569380.26,8,400,7,,ISIC_0014558.JPG
break,html.Screen,4_106_1,2023-09-16T02:49:31.589Z,,0,,,NaN,,,,,,false,,,,569377.1000000238,569376.6000000238,,569376.2000000477,,569380.26,8,400,,,
break_continue,html.Screen,4_106_2,2023-09-16T02:49:31.589Z,,0,,,NaN,,,,,,false,,,,569377.6000000238,569377.5,,569377.2999999523,,569380.26,8,400,,,
sequence,flow.Sequence,4_106,2023-09-16T02:49:31.589Z,,0,,,2813.472999999998,completion,,,,,false,,,,569377.8999999762,569377.5,566547.452,566549.7999999523,566564.027,569380.26,8,400,,,
trial,html.Screen,4_107_0,2023-09-16T02:49:34.252Z,,0,3,,2659.8400000238325,response,ISIC_5097947.JPG,14,ISIC_0011692.JPG,ISIC_5097947.JPG,false,1,keypress(m),500,572040.5,572040.1000000238,569363.895,569378.1000000238,569380.26,572046.719,8,400,8,,ISIC_0011692.JPG
break,html.Screen,4_107_1,2023-09-16T02:49:34.253Z,,0,,,NaN,,,,,,false,,,,572041.7999999523,572041.2999999523,,572040.8999999762,,572046.719,8,400,,,
break_continue,html.Screen,4_107_2,2023-09-16T02:49:34.254Z,,0,,,NaN,,,,,,false,,,,572042.3999999762,572042.2000000477,,572042,,572046.719,8,400,,,
sequence,flow.Sequence,4_107,2023-09-16T02:49:34.254Z,,0,,,2661.9400000476744,completion,,,,,false,,,,572042.7000000477,572042.2000000477,569363.895,569378.1000000238,569380.26,572046.719,8,400,,,
trial,html.Screen,4_108_0,2023-09-16T02:49:38.200Z,,0,3,,3941.780999999959,response,ISIC_2275181.JPG,12,ISIC_4264600.JPG,ISIC_4264600.JPG,false,0,keypress(z),500,575988.7999999523,575988.5,572030.295,572042.8999999762,572046.719,575996.351,8,400,9,,ISIC_2275181.JPG
break,html.Screen,4_108_1,2023-09-16T02:49:38.202Z,,0,,,NaN,,,,,,false,,,,575990.1000000238,575989.6000000238,,575989.2000000477,,575996.351,8,400,,,
break_continue,html.Screen,4_108_2,2023-09-16T02:49:38.202Z,,0,,,NaN,,,,,,false,,,,575990.7999999523,575990.5,,575990.3999999762,,575996.351,8,400,,,
sequence,flow.Sequence,4_108,2023-09-16T02:49:38.203Z,,0,,,3943.780999999959,completion,,,,,false,,,,575991.1000000238,575990.5,572030.295,572042.8999999762,572046.719,575996.351,8,400,,,
trial,html.Screen,4_109_0,2023-09-16T02:49:42.656Z,,0,3,,4447.448999952292,response,ISIC_2222091.JPG,11,ISIC_0765585.JPG,ISIC_0765585.JPG,false,0,keypress(z),500,580444.2000000477,580443.7999999523,575979.984,575991.2999999523,575996.351,580471.119,8,400,10,,ISIC_2222091.JPG
break,html.Screen,4_109_1,2023-09-16T02:49:42.657Z,,0,,,NaN,,,,,,false,,,,580445.6000000238,580445,,580444.6000000238,,580471.119,8,400,,,
break_continue,html.Screen,4_109_2,2023-09-16T02:49:42.658Z,,0,,,NaN,,,,,,false,,,,580446.1000000238,580445.8999999762,,580445.7000000477,,580471.119,8,400,,,
sequence,flow.Sequence,4_109,2023-09-16T02:49:42.658Z,,0,,,4449.548999976134,completion,,,,,false,,,,580446.3999999762,580445.8999999762,575979.984,575991.2000000477,575996.351,580471.119,8,400,,,
trial,html.Screen,4_110_0,2023-09-16T02:49:45.322Z,,0,3,,2638.481000023894,response,ISIC_6985114.JPG,10,ISIC_0071913.JPG,ISIC_6985114.JPG,false,1,keypress(m),500,583110,583109.6000000238,580429.598,580446.6000000238,580471.119,583112.421,8,400,11,,ISIC_0071913.JPG
break,html.Screen,4_110_1,2023-09-16T02:49:45.323Z,,0,,,NaN,,,,,,false,,,,583111.2000000477,583110.7999999523,,583110.2999999523,,583112.421,8,400,,,
break_continue,html.Screen,4_110_2,2023-09-16T02:49:45.323Z,,0,,,NaN,,,,,,false,,,,583111.7000000477,583111.5,,583111.3999999762,,583112.421,8,400,,,
sequence,flow.Sequence,4_110,2023-09-16T02:49:45.324Z,,0,,,2640.381000000052,completion,,,,,false,,,,583112,583111.5,580429.598,580446.6000000238,580471.119,583112.421,8,400,,,
trial,html.Screen,4_111_0,2023-09-16T02:49:49.087Z,,0,3,,3762.478999976185,response,ISIC_0026185.JPG,14,ISIC_6926118.JPG,ISIC_6926118.JPG,false,0,keypress(z),500,586875.2000000477,586874.8999999762,583096.042,583112.2000000477,583112.421,586878.759,8,400,12,,ISIC_0026185.JPG
break,html.Screen,4_111_1,2023-09-16T02:49:49.088Z,,0,,,NaN,,,,,,false,,,,586876.6000000238,586876.1000000238,,586875.6000000238,,586878.759,8,400,,,
break_continue,html.Screen,4_111_2,2023-09-16T02:49:49.089Z,,0,,,NaN,,,,,,false,,,,586877.2000000477,586876.8999999762,,586876.7999999523,,586878.759,8,400,,,
sequence,flow.Sequence,4_111,2023-09-16T02:49:49.089Z,,0,,,3764.478999976185,completion,,,,,false,,,,586877.5,586876.8999999762,583096.042,583112.1000000238,583112.421,586878.759,8,400,,,
trial,html.Screen,4_112_0,2023-09-16T02:49:51.748Z,,0,3,,2657.0409999523545,response,ISIC_1078854.JPG,12,ISIC_1739667.JPG,ISIC_1078854.JPG,false,1,keypress(m),500,589536.2000000477,589535.7999999523,586862.361,586877.7000000477,586878.759,589545.217,8,400,13,,ISIC_1739667.JPG
break,html.Screen,4_112_1,2023-09-16T02:49:51.749Z,,0,,,NaN,,,,,,false,,,,589537.6000000238,589537,,589536.5,,589545.217,8,400,,,
break_continue,html.Screen,4_112_2,2023-09-16T02:49:51.750Z,,0,,,NaN,,,,,,false,,,,589538.2999999523,589538,,589537.7999999523,,589545.217,8,400,,,
sequence,flow.Sequence,4_112,2023-09-16T02:49:51.750Z,,0,,,2659.241000000038,completion,,,,,false,,,,589538.5,589538,586862.361,586877.6000000238,586878.759,589545.217,8,400,,,
trial,html.Screen,4_113_0,2023-09-16T02:49:55.201Z,,0,3,,3443.383000023896,response,ISIC_0069667.JPG,6,ISIC_0010707.JPG,ISIC_0010707.JPG,false,0,keypress(z),500,592989,592988.6000000238,589528.827,589538.7999999523,589545.217,593011.593,8,400,14,,ISIC_0069667.JPG
break,html.Screen,4_113_1,2023-09-16T02:49:55.202Z,,0,,,NaN,,,,,,false,,,,592990,592989.7999999523,,592989.2999999523,,593011.593,8,400,,,
break_continue,html.Screen,4_113_2,2023-09-16T02:49:55.202Z,,0,,,NaN,,,,,,false,,,,592990.5,592990.3999999762,,592990.2000000477,,593011.593,8,400,,,
sequence,flow.Sequence,4_113,2023-09-16T02:49:55.202Z,,0,,,3445.182999976212,completion,,,,,false,,,,592990.7999999523,592990.3999999762,589528.827,589538.7000000477,589545.217,593011.593,8,400,,,
trial,html.Screen,4_114_0,2023-09-16T02:49:59.389Z,,0,3,,4165.60700004769,response,ISIC_0056017.JPG,15,ISIC_0027480.JPG,ISIC_0027480.JPG,false,0,keypress(z),500,597177.5,597177.2000000477,592995.136,592991,593011.593,597194.749,8,400,15,,ISIC_0056017.JPG
break,html.Screen,4_114_1,2023-09-16T02:49:59.390Z,,0,,,NaN,,,,,,false,,,,597178.8999999762,597178.2999999523,,597177.8999999762,,597194.749,8,400,,,
break_continue,html.Screen,4_114_2,2023-09-16T02:49:59.391Z,,0,,,NaN,,,,,,false,,,,597179.5,597179.2999999523,,597179.2000000477,,597194.749,8,400,,,
sequence,flow.Sequence,4_114,2023-09-16T02:49:59.391Z,,0,,,4167.706999952323,completion,,,,,false,,,,597179.7999999523,597179.2999999523,592995.136,592991,593011.593,597194.749,8,400,,,
trial,html.Screen,4_115_0,2023-09-16T02:50:02.183Z,,0,3,,2776.7510000000475,response,ISIC_0033319.JPG,7,ISIC_0068314.JPG,ISIC_0033319.JPG,false,1,keypress(m),500,599971.8999999762,599971.5,597178.157,597180.1000000238,597194.749,599977.653,8,400,16,,ISIC_0068314.JPG
break,html.Screen,4_115_1,2023-09-16T02:50:02.185Z,,0,,,NaN,,,,,,false,,,,599973.2999999523,599972.7000000477,,599972.2000000477,,599977.653,8,400,,,
break_continue,html.Screen,4_115_2,2023-09-16T02:50:02.186Z,,0,,,NaN,,,,,,false,,,,599974.1000000238,599973.7999999523,,599973.7000000477,,599977.653,8,400,,,
sequence,flow.Sequence,4_115,2023-09-16T02:50:02.186Z,,0,,,2779.050999952364,completion,,,,,false,,,,599974.3999999762,599973.7999999523,597178.157,597180,597194.749,599977.653,8,400,,,
trial,html.Screen,4_116_0,2023-09-16T02:50:05.059Z,,0,3,,2869.0470000476344,response,ISIC_6108795.JPG,12,ISIC_0027087.JPG,ISIC_6108795.JPG,false,1,keypress(m),500,602847.1000000238,602846.7000000477,599961.297,599974.6000000238,599977.653,602860.695,8,400,17,,ISIC_0027087.JPG
break,html.Screen,4_116_1,2023-09-16T02:50:05.060Z,,0,,,NaN,,,,,,false,,,,602848.1000000238,602847.8999999762,,602847.5,,602860.695,8,400,,,
break_continue,html.Screen,4_116_2,2023-09-16T02:50:05.060Z,,0,,,NaN,,,,,,false,,,,602848.6000000238,602848.3999999762,,602848.2999999523,,602860.695,8,400,,,
sequence,flow.Sequence,4_116,2023-09-16T02:50:05.060Z,,0,,,2870.746999976109,completion,,,,,false,,,,602848.8999999762,602848.3999999762,599961.297,599974.6000000238,599977.653,602860.695,8,400,,,
trial,html.Screen,4_117_0,2023-09-16T02:50:07.611Z,,0,3,,2538.005000047735,response,ISIC_6455702.JPG,5,ISIC_0025020.JPG,ISIC_6455702.JPG,false,1,keypress(m),500,605399,605398.7000000477,602844.318,602849.1000000238,602860.695,605410.577,8,400,18,,ISIC_0025020.JPG
break,html.Screen,4_117_1,2023-09-16T02:50:07.612Z,,0,,,NaN,,,,,,false,,,,605400.3999999762,605399.8999999762,,605399.2999999523,,605410.577,8,400,,,
break_continue,html.Screen,4_117_2,2023-09-16T02:50:07.613Z,,0,,,NaN,,,,,,false,,,,605401,605400.7999999523,,605400.6000000238,,605410.577,8,400,,,
sequence,flow.Sequence,4_117,2023-09-16T02:50:07.613Z,,0,,,2540.1049999523675,completion,,,,,false,,,,605401.2999999523,605400.7999999523,602844.318,602849.1000000238,602860.695,605410.577,8,400,,,
trial,html.Screen,4_118_0,2023-09-16T02:50:10.219Z,,0,3,,2595.9229999999516,response,ISIC_1020369.JPG,4,ISIC_0063168.JPG,ISIC_1020369.JPG,false,1,keypress(m),500,608007.1000000238,608006.5,605394.118,605401.5,605410.577,608010.282,8,400,19,,ISIC_0063168.JPG
break,html.Screen,4_118_1,2023-09-16T02:50:10.220Z,,0,,,NaN,,,,,,false,,,,608008.3999999762,608007.8999999762,,608007.3999999762,,608010.282,8,400,,,
break_continue,html.Screen,4_118_2,2023-09-16T02:50:10.221Z,,0,,,NaN,,,,,,false,,,,608009,608008.7999999523,,608008.7000000477,,608010.282,8,400,,,
sequence,flow.Sequence,4_118,2023-09-16T02:50:10.221Z,,0,,,2598.222999952268,completion,,,,,false,,,,608009.2999999523,608008.7999999523,605394.118,605401.3999999762,605410.577,608010.282,8,400,,,
trial,html.Screen,4_119_0,2023-09-16T02:50:13.718Z,,0,3,,3496.3180000238353,response,ISIC_1372928.JPG,9,ISIC_7604596.JPG,ISIC_7604596.JPG,false,0,keypress(z),500,611507,611506.6000000238,607993.929,608009.5,608010.282,611509.982,8,400,20,,ISIC_1372928.JPG
break,html.Screen,4_119_1,2023-09-16T02:50:13.720Z,,0,,,NaN,,,,,,false,,,,611508.2999999523,611507.7999999523,,611507.2999999523,,611509.982,8,400,,,
break_continue,html.Screen,4_119_2,2023-09-16T02:50:13.720Z,,0,,,NaN,,,,,,false,,,,611509,611508.7000000477,,611508.5,,611509.982,8,400,,,
sequence,flow.Sequence,4_119,2023-09-16T02:50:13.721Z,,0,,,3498.418000047677,completion,,,,,false,,,,611509.2000000477,611508.7000000477,607993.929,608009.5,608010.282,611509.982,8,400,,,
trial,html.Screen,4_120_0,2023-09-16T02:50:16.528Z,,0,3,,2806.118000023882,response,ISIC_0011944.JPG,5,ISIC_1423737.JPG,ISIC_1423737.JPG,false,0,keypress(z),500,614316.5,614316.1000000238,611493.613,611509.3999999762,611509.982,614326.409,8,400,21,,ISIC_0011944.JPG
break,html.Screen,4_120_1,2023-09-16T02:50:16.529Z,,0,,,NaN,,,,,,false,,,,614317.7999999523,614317.2000000477,,614316.7999999523,,614326.409,8,400,,,
break_continue,html.Screen,4_120_2,2023-09-16T02:50:16.530Z,,0,,,NaN,,,,,,false,,,,614318.3999999762,614318.1000000238,,614318,,614326.409,8,400,,,
sequence,flow.Sequence,4_120,2023-09-16T02:50:16.530Z,,0,,,2808.118000023882,completion,,,,,false,,,,614318.7000000477,614318.1000000238,611493.613,611509.3999999762,611509.982,614326.409,8,400,,,
trial,html.Screen,4_121_0,2023-09-16T02:50:19.548Z,,0,3,,3009.890999952331,response,ISIC_0028751.JPG,5,ISIC_0010611.JPG,ISIC_0028751.JPG,false,1,keypress(m),500,617336.7000000477,617336.2999999523,614310.039,614318.8999999762,614326.409,617342.883,8,400,22,,ISIC_0010611.JPG
break,html.Screen,4_121_1,2023-09-16T02:50:19.550Z,,0,,,NaN,,,,,,false,,,,617338,617337.5,,617337,,617342.883,8,400,,,
break_continue,html.Screen,4_121_2,2023-09-16T02:50:19.550Z,,0,,,NaN,,,,,,false,,,,617338.7000000477,617338.5,,617338.2999999523,,617342.883,8,400,,,
sequence,flow.Sequence,4_121,2023-09-16T02:50:19.550Z,,0,,,3012.091000000015,completion,,,,,false,,,,617339,617338.5,614310.039,614318.8999999762,614326.409,617342.883,8,400,,,
trial,html.Screen,4_122_0,2023-09-16T02:50:22.370Z,,0,3,,2815.4169999522856,response,ISIC_0533930.JPG,6,ISIC_1484525.JPG,ISIC_1484525.JPG,false,0,keypress(z),500,620158.8999999762,620158.2999999523,617326.236,617339.2000000477,617342.883,620176.121,8,400,23,,ISIC_0533930.JPG
break,html.Screen,4_122_1,2023-09-16T02:50:22.372Z,,0,,,NaN,,,,,,false,,,,620160.3999999762,620159.7999999523,,620159.2999999523,,620176.121,8,400,,,
break_continue,html.Screen,4_122_2,2023-09-16T02:50:22.372Z,,0,,,NaN,,,,,,false,,,,620160.8999999762,620160.7000000477,,620160.5,,620176.121,8,400,,,
sequence,flow.Sequence,4_122,2023-09-16T02:50:22.373Z,,0,,,2817.817000047653,completion,,,,,false,,,,620161.2000000477,620160.7000000477,617326.236,617339.1000000238,617342.883,620176.121,8,400,,,
trial,html.Screen,4_123_0,2023-09-16T02:50:25.740Z,,0,3,,3352.1789999522734,response,ISIC_0000401.JPG,8,ISIC_0010925.JPG,ISIC_0010925.JPG,false,0,keypress(z),500,623528.6000000238,623528.2999999523,620159.522,620161.3999999762,620176.121,623542.262,8,400,24,,ISIC_0000401.JPG
break,html.Screen,4_123_1,2023-09-16T02:50:25.742Z,,0,,,NaN,,,,,,false,,,,623530,623529.5,,623528.8999999762,,623542.262,8,400,,,
break_continue,html.Screen,4_123_2,2023-09-16T02:50:25.742Z,,0,,,NaN,,,,,,false,,,,623530.7000000477,623530.5,,623530.2000000477,,623542.262,8,400,,,
sequence,flow.Sequence,4_123,2023-09-16T02:50:25.743Z,,0,,,3354.378999999957,completion,,,,,false,,,,623530.8999999762,623530.5,620159.522,620161.3999999762,620176.121,623542.262,8,400,,,
trial,html.Screen,4_124_0,2023-09-16T02:50:28.771Z,,0,3,,3017.1379999761702,response,ISIC_6917681.JPG,14,ISIC_0313507.JPG,ISIC_0313507.JPG,false,0,keypress(z),500,626559.7000000477,626559.3999999762,623525.816,623531.2000000477,623542.262,626575.576,8,400,25,,ISIC_6917681.JPG
break,html.Screen,4_124_1,2023-09-16T02:50:28.773Z,,0,,,NaN,,,,,,false,,,,626561,626560.5,,626560,,626575.576,8,400,,,
break_continue,html.Screen,4_124_2,2023-09-16T02:50:28.773Z,,0,,,NaN,,,,,,false,,,,626561.7999999523,626561.6000000238,,626561.2999999523,,626575.576,8,400,,,
sequence,flow.Sequence,4_124,2023-09-16T02:50:28.774Z,,0,,,3019.338000023854,completion,,,,,false,,,,626562.2000000477,626561.6000000238,623525.816,623531.1000000238,623542.262,626575.576,8,400,,,
trial,html.Screen,4_125_0,2023-09-16T02:50:32.265Z,,0,3,,3477.7239999523154,response,ISIC_9779803.JPG,12,ISIC_5153848.JPG,ISIC_9779803.JPG,false,1,keypress(m),500,630053.7999999523,630053.2999999523,626558.988,626562.2999999523,626575.576,630075.283,8,400,26,,ISIC_5153848.JPG
break,html.Screen,4_125_1,2023-09-16T02:50:32.267Z,,0,,,NaN,,,,,,false,,,,630055.1000000238,630054.6000000238,,630054.1000000238,,630075.283,8,400,,,
break_continue,html.Screen,4_125_2,2023-09-16T02:50:32.268Z,,0,,,NaN,,,,,,false,,,,630056,630055.7999999523,,630055.3999999762,,630075.283,8,400,,,
sequence,flow.Sequence,4_125,2023-09-16T02:50:32.268Z,,0,,,3480.2239999523154,completion,,,,,false,,,,630056.5,630055.7999999523,626558.988,626562.2000000477,626575.576,630075.283,8,400,,,
