sender,sender_type,sender_id,timestamp,meta,,blockNo,condition,duration,ended_on,img_left,img_reveal,img_right,loser,practice,response,response_action,selection_duration,time_commit,time_end,time_render,time_run,time_show,time_switch,total_blocks,total_trials,trialNo,url,winner
informed_consent,html.Screen,0,2023-09-16T19:11:54.766Z,"{""labjs_version"":""20.2.4"",""labjs_build"":{""flavor"":""production"",""commit"":""f5b4a49f956347addd546a832a3327688c2c0fef""},""location"":""https://run.pavlovia.org/MurrayBennett/melanoma-2afc/?participant=66439&platform=sona"",""userAgent"":""Mozilla/5.0 (Macintosh; Intel Mac OS X 10_15_7) AppleWebKit/537.36 (KHTML, like Gecko) Chrome/116.0.0.0 Safari/537.36"",""platform"":""MacIntel"",""language"":""en-US"",""locale"":""en-US"",""timeZone"":""America/Chicago"",""timezoneOffset"":300,""screen_width"":1680,""screen_height"":1050,""scroll_width"":1680,""scroll_height"":885,""window_innerWidth"":1680,""window_innerHeight"":933,""devicePixelRatio"":2}",,,,5004.863999988079,response,,,,,,consent,click button,,6786.599999964237,6784.199999988079,1762.67,1767.5999999642372,1779.336,6813.128,,,,"{""participant"":""66439"",""platform"":""sona""}",
Welcome,html.Screen,1,2023-09-16T19:12:06.515Z,,,,symmetry,11721.372,response,,,,,,continue,click button,,18536.799999952316,18534.5,6779.796,6786.799999952316,6813.128,18546.751,,,,,
trial,html.Screen,2_0_0,2023-09-16T19:12:14.088Z,,0,0,,7562.548999952316,response,ISIC_6997061.JPG,,ISIC_0069348.JPG,ISIC_0069348.JPG,true,0,keypress(z),500,26109.899999976158,26109.299999952316,18530.085,18537.099999964237,18546.751,26113.115,1,6,1,,ISIC_6997061.JPG
sequence,flow.Sequence,2_0,2023-09-16T19:12:14.089Z,,0,,,7562.548999952316,completion,,,,,true,,,,26110.299999952316,26109.299999952316,18530.085,18537.099999964237,18546.751,26113.115,1,6,,,
trial,html.Screen,2_1_0,2023-09-16T19:12:23.708Z,,0,0,,9615.784999976157,response,ISIC_0009529.JPG,,ISIC_0057368.JPG,ISIC_0009529.JPG,true,1,keypress(m),500,35729.5,35728.89999997616,26096.449,26110.5,26113.115,35746.73,1,6,2,,ISIC_0057368.JPG
sequence,flow.Sequence,2_1,2023-09-16T19:12:23.708Z,,0,,,9615.784999976157,completion,,,,,true,,,,35730.09999996424,35728.89999997616,26096.449,26110.399999976158,26113.115,35746.73,1,6,,,
trial,html.Screen,2_2_0,2023-09-16T19:12:33.698Z,,0,0,,9973.169999976155,response,ISIC_0064954.JPG,,ISIC_9758671.JPG,ISIC_9758671.JPG,true,0,keypress(z),500,45720.5,45719.89999997616,35730.064,35730.39999997616,35746.73,45730.849,1,6,3,,ISIC_0064954.JPG
sequence,flow.Sequence,2_2,2023-09-16T19:12:33.699Z,,0,,,9973.169999976155,completion,,,,,true,,,,45720.89999997616,45719.89999997616,35730.064,35730.19999998808,35746.73,45730.849,1,6,,,
trial,html.Screen,2_3_0,2023-09-16T19:12:45.196Z,,0,0,,11516.941999999995,timeout,ISIC_0005785.JPG,,ISIC_0000080.JPG,,true,,,500,57218.89999997616,57218.39999997616,45714.183,45721.299999952316,45730.849,57247.791,1,6,4,,
sequence,flow.Sequence,2_3,2023-09-16T19:12:45.197Z,,0,,,11487.550999976156,completion,,,,,true,,,,57219.299999952316,57218.39999997616,45714.183,45721.09999996424,45730.849,57247.791,1,6,,,
trial,html.Screen,2_4_0,2023-09-16T19:12:50.690Z,,0,0,,5464.008999952319,response,ISIC_5390060.JPG,,ISIC_7944028.JPG,ISIC_5390060.JPG,true,1,keypress(m),500,62712.39999997616,62711.799999952316,57231.125,57219.59999996424,57247.791,62714.239,1,6,5,,ISIC_7944028.JPG
sequence,flow.Sequence,2_4,2023-09-16T19:12:50.690Z,,0,,,5464.008999952319,completion,,,,,true,,,,62712.89999997616,62711.799999952316,57231.125,57219.5,57247.791,62714.239,1,6,,,
trial,html.Screen,2_5_0,2023-09-16T19:12:56.415Z,,0,0,,5722.560999952315,response,ISIC_0794216.JPG,,ISIC_0010188.JPG,ISIC_0010188.JPG,true,0,keypress(z),500,68437.39999997616,68436.79999995232,62697.573,62713.09999996424,62714.239,68447.851,1,6,6,,ISIC_0794216.JPG
sequence,flow.Sequence,2_5,2023-09-16T19:12:56.415Z,,0,,,5722.560999952315,completion,,,,,true,,,,68437.89999997616,68436.79999995232,62697.573,62713,62714.239,68447.851,1,6,,,
loop,flow.Loop,2,2023-09-16T19:12:56.415Z,,,,,49890.04899995231,completion,,,,,true,,,,68438.29999995232,68436.79999995232,18530.085,18536.899999976158,18546.751,68447.851,1,6,,,
exp_instructions,html.Screen,3,2023-09-16T19:13:03.936Z,,,,,7504.149000000005,response,,,,,,continue,keypress(Space),,75959.39999997616,75952,68431.185,68438.39999997616,68447.851,75964.217,,,,,
trial,html.Screen,4_0_0,2023-09-16T19:13:07.767Z,,0,1,,3825.482999988075,response,ISIC_7140778.JPG,8,ISIC_5343231.JPG,ISIC_7140778.JPG,false,1,keypress(m),500,79790.19999998808,79789.69999998808,75947.551,75959.79999995232,75964.217,79798.385,8,400,1,,ISIC_5343231.JPG
break,html.Screen,4_0_1,2023-09-16T19:13:07.769Z,,0,,,NaN,,,,,,false,,,,79792.19999998808,79791.79999995232,,79790.5,,79798.385,8,400,,,
break_continue,html.Screen,4_0_2,2023-09-16T19:13:07.770Z,,0,,,NaN,,,,,,false,,,,79792.79999995232,79792.59999996424,,79792.39999997616,,79798.385,8,400,,,
sequence,flow.Sequence,4_0,2023-09-16T19:13:07.770Z,,0,,,3828.382999964233,completion,,,,,false,,,,79793,79792.59999996424,75947.551,75959.79999995232,75964.217,79798.385,8,400,,,
trial,html.Screen,4_1_0,2023-09-16T19:13:10.872Z,,0,1,,3096.4149999523215,response,ISIC_0010809.JPG,7,ISIC_1124434.JPG,ISIC_1124434.JPG,false,0,keypress(z),500,82895.29999995232,82894.79999995232,79781.719,79793.09999996424,79798.385,82898.261,8,400,2,,ISIC_0010809.JPG
break,html.Screen,4_1_1,2023-09-16T19:13:10.874Z,,0,,,NaN,,,,,,false,,,,82896.69999998808,82896.39999997616,,82895.5,,82898.261,8,400,,,
break_continue,html.Screen,4_1_2,2023-09-16T19:13:10.874Z,,0,,,NaN,,,,,,false,,,,82897.19999998808,82897.09999996424,,82896.89999997616,,82898.261,8,400,,,
sequence,flow.Sequence,4_1,2023-09-16T19:13:10.874Z,,0,,,3098.7149999642425,completion,,,,,false,,,,82897.39999997616,82897.09999996424,79781.719,79793,79798.385,82898.261,8,400,,,
trial,html.Screen,4_2_0,2023-09-16T19:13:14.382Z,,0,1,,3506.8389999642386,response,ISIC_0010768.JPG,8,ISIC_2108849.JPG,ISIC_2108849.JPG,false,0,keypress(z),500,86405.69999998808,86405.09999996424,82881.595,82897.5,82898.261,86414.787,8,400,3,,ISIC_0010768.JPG
break,html.Screen,4_2_1,2023-09-16T19:13:14.384Z,,0,,,NaN,,,,,,false,,,,86407.29999995232,86406.89999997616,,86406,,86414.787,8,400,,,
break_continue,html.Screen,4_2_2,2023-09-16T19:13:14.385Z,,0,,,NaN,,,,,,false,,,,86407.79999995232,86407.69999998808,,86407.39999997616,,86414.787,8,400,,,
sequence,flow.Sequence,4_2,2023-09-16T19:13:14.385Z,,0,,,3509.4389999880805,completion,,,,,false,,,,86407.89999997616,86407.69999998808,82881.595,82897.5,82898.261,86414.787,8,400,,,
trial,html.Screen,4_3_0,2023-09-16T19:13:19.014Z,,0,1,,4622.51299995232,response,ISIC_5111521.JPG,7,ISIC_7511557.JPG,ISIC_5111521.JPG,false,1,keypress(m),500,91037.69999998808,91037.29999995232,86398.121,86408.09999996424,86414.787,91048.574,8,400,4,,ISIC_7511557.JPG
break,html.Screen,4_3_1,2023-09-16T19:13:19.016Z,,0,,,NaN,,,,,,false,,,,91039.29999995232,91039,,91038,,91048.574,8,400,,,
break_continue,html.Screen,4_3_2,2023-09-16T19:13:19.017Z,,0,,,NaN,,,,,,false,,,,91040,91039.79999995232,,91039.5,,91048.574,8,400,,,
sequence,flow.Sequence,4_3,2023-09-16T19:13:19.017Z,,0,,,4625.01299995232,completion,,,,,false,,,,91040.19999998808,91039.79999995232,86398.121,86408,86414.787,91048.574,8,400,,,
trial,html.Screen,4_4_0,2023-09-16T19:13:22.057Z,,0,1,,3030.9260000000068,response,ISIC_0059904.JPG,7,ISIC_4619903.JPG,ISIC_0059904.JPG,false,1,keypress(m),500,94080,94079.5,91031.908,91040.29999995232,91048.574,94081.786,8,400,5,,ISIC_4619903.JPG
break,html.Screen,4_4_1,2023-09-16T19:13:22.058Z,,0,,,NaN,,,,,,false,,,,94081.5,94081.09999996424,,94080.29999995232,,94081.786,8,400,,,
break_continue,html.Screen,4_4_2,2023-09-16T19:13:22.058Z,,0,,,NaN,,,,,,false,,,,94081.79999995232,94081.79999995232,,94081.5,,94081.786,8,400,,,
sequence,flow.Sequence,4_4,2023-09-16T19:13:22.059Z,,0,,,3033.225999952323,completion,,,,,false,,,,94082.09999996424,94081.79999995232,91031.908,91040.29999995232,91048.574,94081.786,8,400,,,
trial,html.Screen,4_5_0,2023-09-16T19:13:26.608Z,,0,1,,4548.813999964244,response,ISIC_0033444.JPG,7,ISIC_2969968.JPG,ISIC_2969968.JPG,false,0,keypress(z),500,98631.09999996424,98630.59999996424,94065.12,94082.19999998808,94081.786,98648.27,8,400,6,,ISIC_0033444.JPG
break,html.Screen,4_5_1,2023-09-16T19:13:26.609Z,,0,,,NaN,,,,,,false,,,,98632.79999995232,98632.29999995232,,98631.5,,98648.27,8,400,,,
break_continue,html.Screen,4_5_2,2023-09-16T19:13:26.610Z,,0,,,NaN,,,,,,false,,,,98633.19999998808,98633,,98632.89999997616,,98648.27,8,400,,,
sequence,flow.Sequence,4_5,2023-09-16T19:13:26.610Z,,0,,,4551.214000000007,completion,,,,,false,,,,98633.39999997616,98633,94065.12,94082.09999996424,94081.786,98648.27,8,400,,,
trial,html.Screen,4_6_0,2023-09-16T19:13:30.998Z,,0,1,,4372.529999952312,response,ISIC_4875370.JPG,5,ISIC_9021685.JPG,ISIC_4875370.JPG,false,1,keypress(m),500,103021.19999998808,103020.79999995232,98631.604,98633.5,98648.27,103032.066,8,400,7,,ISIC_9021685.JPG
break,html.Screen,4_6_1,2023-09-16T19:13:30.999Z,,0,,,NaN,,,,,,false,,,,103022.69999998808,103022.39999997616,,103021.5,,103032.066,8,400,,,
break_continue,html.Screen,4_6_2,2023-09-16T19:13:30.999Z,,0,,,NaN,,,,,,false,,,,103023.09999996424,103023,,103022.69999998808,,103032.066,8,400,,,
sequence,flow.Sequence,4_6,2023-09-16T19:13:31.000Z,,0,,,4374.729999999996,completion,,,,,false,,,,103023.29999995232,103023,98631.604,98633.5,98648.27,103032.066,8,400,,,
trial,html.Screen,4_7_0,2023-09-16T19:13:33.742Z,,0,1,,2732.933999999994,response,ISIC_0034222.JPG,7,ISIC_3652847.JPG,ISIC_3652847.JPG,false,0,keypress(z),500,105765.5,105765,103015.4,103023.5,103032.066,105781.956,8,400,8,,ISIC_0034222.JPG
break,html.Screen,4_7_1,2023-09-16T19:13:33.743Z,,0,,,NaN,,,,,,false,,,,105767,105766.69999998808,,105765.69999998808,,105781.956,8,400,,,
break_continue,html.Screen,4_7_2,2023-09-16T19:13:33.744Z,,0,,,NaN,,,,,,false,,,,105767.5,105767.39999997616,,105767.09999996424,,105781.956,8,400,,,
sequence,flow.Sequence,4_7,2023-09-16T19:13:33.744Z,,0,,,2735.333999976152,completion,,,,,false,,,,105767.59999996424,105767.39999997616,103015.4,103023.39999997616,103032.066,105781.956,8,400,,,
trial,html.Screen,4_8_0,2023-09-16T19:13:36.066Z,,0,1,,2307.3439999523107,response,ISIC_0055680.JPG,8,ISIC_2644988.JPG,ISIC_0055680.JPG,false,1,keypress(m),500,108089.79999995232,108089.29999995232,105765.29,105767.79999995232,105781.956,108098.53,8,400,9,,ISIC_2644988.JPG
break,html.Screen,4_8_1,2023-09-16T19:13:36.068Z,,0,,,NaN,,,,,,false,,,,108091.39999997616,108091,,108090.09999996424,,108098.53,8,400,,,
break_continue,html.Screen,4_8_2,2023-09-16T19:13:36.068Z,,0,,,NaN,,,,,,false,,,,108091.89999997616,108091.79999995232,,108091.59999996424,,108098.53,8,400,,,
sequence,flow.Sequence,4_8,2023-09-16T19:13:36.068Z,,0,,,2309.8439999523107,completion,,,,,false,,,,108092,108091.79999995232,105765.29,105767.69999998808,105781.956,108098.53,8,400,,,
trial,html.Screen,4_9_0,2023-09-16T19:13:39.784Z,,0,1,,3709.3699999761593,response,ISIC_8255784.JPG,6,ISIC_0026943.JPG,ISIC_0026943.JPG,false,0,keypress(z),500,111808.29999995232,111807.89999997616,108081.864,108092.19999998808,108098.53,111815.861,8,400,10,,ISIC_8255784.JPG
break,html.Screen,4_9_1,2023-09-16T19:13:39.786Z,,0,,,NaN,,,,,,false,,,,111809.59999996424,111809.29999995232,,111808.5,,111815.861,8,400,,,
break_continue,html.Screen,4_9_2,2023-09-16T19:13:39.786Z,,0,,,NaN,,,,,,false,,,,111810,111809.89999997616,,111809.69999998808,,111815.861,8,400,,,
sequence,flow.Sequence,4_9,2023-09-16T19:13:39.786Z,,0,,,3711.3699999761593,completion,,,,,false,,,,111810.09999996424,111809.89999997616,108081.864,108092.19999998808,108098.53,111815.861,8,400,,,
trial,html.Screen,4_10_0,2023-09-16T19:13:43.166Z,,0,1,,3373.238999964233,response,ISIC_1558504.JPG,6,ISIC_6008974.JPG,ISIC_1558504.JPG,false,1,keypress(m),500,115189.59999996424,115189.09999996424,111799.195,111810.19999998808,111815.861,115199.059,8,400,11,,ISIC_6008974.JPG
break,html.Screen,4_10_1,2023-09-16T19:13:43.167Z,,0,,,NaN,,,,,,false,,,,115191.09999996424,115190.79999995232,,115189.89999997616,,115199.059,8,400,,,
break_continue,html.Screen,4_10_2,2023-09-16T19:13:43.168Z,,0,,,NaN,,,,,,false,,,,115191.5,115191.39999997616,,115191.29999995232,,115199.059,8,400,,,
sequence,flow.Sequence,4_10,2023-09-16T19:13:43.168Z,,0,,,3375.5389999761537,completion,,,,,false,,,,115191.69999998808,115191.39999997616,111799.195,111810.19999998808,111815.861,115199.059,8,400,,,
trial,html.Screen,4_11_0,2023-09-16T19:13:48.381Z,,0,1,,5206.040999964243,response,ISIC_0033886.JPG,6,ISIC_3743283.JPG,ISIC_3743283.JPG,false,0,keypress(z),500,120405.59999996424,120405.09999996424,115182.393,115191.79999995232,115199.059,120415.517,8,400,12,,ISIC_0033886.JPG
break,html.Screen,4_11_1,2023-09-16T19:13:48.383Z,,0,,,NaN,,,,,,false,,,,120407.19999998808,120406.89999997616,,120405.89999997616,,120415.517,8,400,,,
break_continue,html.Screen,4_11_2,2023-09-16T19:13:48.384Z,,0,,,NaN,,,,,,false,,,,120407.69999998808,120407.69999998808,,120407.39999997616,,120415.517,8,400,,,
sequence,flow.Sequence,4_11,2023-09-16T19:13:48.384Z,,0,,,5208.640999988085,completion,,,,,false,,,,120407.89999997616,120407.69999998808,115182.393,115191.79999995232,115199.059,120415.517,8,400,,,
trial,html.Screen,4_12_0,2023-09-16T19:13:52.181Z,,0,1,,3789.282999952309,response,ISIC_0046683.JPG,7,ISIC_0068460.JPG,ISIC_0068460.JPG,false,0,keypress(z),500,124205.39999997616,124204.79999995232,120398.851,120408.09999996424,120415.517,124216.03,8,400,13,,ISIC_0046683.JPG
break,html.Screen,4_12_1,2023-09-16T19:13:52.183Z,,0,,,NaN,,,,,,false,,,,124206.89999997616,124206.59999996424,,124205.59999996424,,124216.03,8,400,,,
break_continue,html.Screen,4_12_2,2023-09-16T19:13:52.183Z,,0,,,NaN,,,,,,false,,,,124207.29999995232,124207.19999998808,,124207,,124216.03,8,400,,,
sequence,flow.Sequence,4_12,2023-09-16T19:13:52.183Z,,0,,,3791.682999988072,completion,,,,,false,,,,124207.5,124207.19999998808,120398.851,120408,120415.517,124216.03,8,400,,,
trial,html.Screen,4_13_0,2023-09-16T19:13:55.128Z,,0,1,,2935.6699999880802,response,ISIC_7185913.JPG,8,ISIC_0031674.JPG,ISIC_7185913.JPG,false,1,keypress(m),500,127152.09999996424,127151.69999998808,124199.364,124207.59999996424,124216.03,127165.912,8,400,14,,ISIC_0031674.JPG
break,html.Screen,4_13_1,2023-09-16T19:13:55.129Z,,0,,,NaN,,,,,,false,,,,127153.69999998808,127153.39999997616,,127152.5,,127165.912,8,400,,,
break_continue,html.Screen,4_13_2,2023-09-16T19:13:55.130Z,,0,,,NaN,,,,,,false,,,,127154.19999998808,127154.09999996424,,127153.79999995232,,127165.912,8,400,,,
sequence,flow.Sequence,4_13,2023-09-16T19:13:55.130Z,,0,,,2938.0699999642384,completion,,,,,false,,,,127154.19999998808,127154.09999996424,124199.364,124207.59999996424,124216.03,127165.912,8,400,,,
trial,html.Screen,4_14_0,2023-09-16T19:13:58.614Z,,0,1,,3472.2879999880824,response,ISIC_5518595.JPG,7,ISIC_4912684.JPG,ISIC_4912684.JPG,false,0,keypress(z),500,130638.59999996424,130638.19999998808,127149.246,127154.39999997616,127165.912,130649.106,8,400,15,,ISIC_5518595.JPG
break,html.Screen,4_14_1,2023-09-16T19:13:58.616Z,,0,,,NaN,,,,,,false,,,,130640.19999998808,130639.89999997616,,130639,,130649.106,8,400,,,
break_continue,html.Screen,4_14_2,2023-09-16T19:13:58.616Z,,0,,,NaN,,,,,,false,,,,130640.69999998808,130640.59999996424,,130640.29999995232,,130649.106,8,400,,,
sequence,flow.Sequence,4_14,2023-09-16T19:13:58.616Z,,0,,,3474.6879999642406,completion,,,,,false,,,,130640.89999997616,130640.59999996424,127149.246,127154.39999997616,127165.912,130649.106,8,400,,,
trial,html.Screen,4_15_0,2023-09-16T19:14:02.390Z,,0,1,,3764.4939999642374,response,ISIC_0026188.JPG,8,ISIC_8866896.JPG,ISIC_0026188.JPG,false,1,keypress(m),500,134414,134413.59999996424,130632.44,130641,130649.106,134416.225,8,400,16,,ISIC_8866896.JPG
break,html.Screen,4_15_1,2023-09-16T19:14:02.391Z,,0,,,NaN,,,,,,false,,,,134415.69999998808,134415.39999997616,,134414.39999997616,,134416.225,8,400,,,
break_continue,html.Screen,4_15_2,2023-09-16T19:14:02.392Z,,0,,,NaN,,,,,,false,,,,134416.09999996424,134416,,134415.79999995232,,134416.225,8,400,,,
sequence,flow.Sequence,4_15,2023-09-16T19:14:02.392Z,,0,,,3766.8940000000002,completion,,,,,false,,,,134416.29999995232,134416,130632.44,130641,130649.106,134416.225,8,400,,,
trial,html.Screen,4_16_0,2023-09-16T19:14:05.581Z,,0,1,,3188.3749999642314,response,ISIC_4961708.JPG,8,ISIC_0056164.JPG,ISIC_4961708.JPG,false,1,keypress(m),500,137605.09999996424,137604.59999996424,134399.559,134416.39999997616,134416.225,137616.097,8,400,17,,ISIC_0056164.JPG
break,html.Screen,4_16_1,2023-09-16T19:14:05.582Z,,0,,,NaN,,,,,,false,,,,137606.69999998808,137606.39999997616,,137605.39999997616,,137616.097,8,400,,,
break_continue,html.Screen,4_16_2,2023-09-16T19:14:05.583Z,,0,,,NaN,,,,,,false,,,,137607.09999996424,137607,,137606.69999998808,,137616.097,8,400,,,
sequence,flow.Sequence,4_16,2023-09-16T19:14:05.583Z,,0,,,3190.774999999994,completion,,,,,false,,,,137607.29999995232,137607,134399.559,134416.39999997616,134416.225,137616.097,8,400,,,
trial,html.Screen,4_17_0,2023-09-16T19:14:08.162Z,,0,1,,2570.10299998807,response,ISIC_4034644.JPG,6,ISIC_2487188.JPG,ISIC_2487188.JPG,false,0,keypress(z),500,140186.59999996424,140186.19999998808,137599.431,137607.5,137616.097,140199.327,8,400,18,,ISIC_4034644.JPG
break,html.Screen,4_17_1,2023-09-16T19:14:08.163Z,,0,,,NaN,,,,,,false,,,,140188.09999996424,140187.79999995232,,140187,,140199.327,8,400,,,
break_continue,html.Screen,4_17_2,2023-09-16T19:14:08.164Z,,0,,,NaN,,,,,,false,,,,140188.69999998808,140188.5,,140188.29999995232,,140199.327,8,400,,,
sequence,flow.Sequence,4_17,2023-09-16T19:14:08.164Z,,0,,,2572.402999999991,completion,,,,,false,,,,140188.79999995232,140188.5,137599.431,137607.39999997616,137616.097,140199.327,8,400,,,
trial,html.Screen,4_18_0,2023-09-16T19:14:10.904Z,,0,1,,2728.972999952326,response,ISIC_6228471.JPG,7,ISIC_8791729.JPG,ISIC_6228471.JPG,false,1,keypress(m),500,142928.69999998808,142928.29999995232,140182.661,140188.89999997616,140199.327,142933.248,8,400,19,,ISIC_8791729.JPG
break,html.Screen,4_18_1,2023-09-16T19:14:10.906Z,,0,,,NaN,,,,,,false,,,,142930.29999995232,142930.09999996424,,142929.09999996424,,142933.248,8,400,,,
break_continue,html.Screen,4_18_2,2023-09-16T19:14:10.906Z,,0,,,NaN,,,,,,false,,,,142930.79999995232,142930.59999996424,,142930.5,,142933.248,8,400,,,
sequence,flow.Sequence,4_18,2023-09-16T19:14:10.906Z,,0,,,2731.272999964247,completion,,,,,false,,,,142931,142930.59999996424,140182.661,140188.79999995232,140199.327,142933.248,8,400,,,
trial,html.Screen,4_19_0,2023-09-16T19:14:14.933Z,,0,1,,4023.7520000000077,response,ISIC_0060696.JPG,9,ISIC_1576437.JPG,ISIC_0060696.JPG,false,1,keypress(m),500,146957.59999996424,146957,142916.582,142931.19999998808,142933.248,146966.42,8,400,20,,ISIC_1576437.JPG
break,html.Screen,4_19_1,2023-09-16T19:14:14.934Z,,0,,,NaN,,,,,,false,,,,146959.19999998808,146958.79999995232,,146957.89999997616,,146966.42,8,400,,,
break_continue,html.Screen,4_19_2,2023-09-16T19:14:14.935Z,,0,,,NaN,,,,,,false,,,,146959.59999996424,146959.39999997616,,146959.29999995232,,146966.42,8,400,,,
sequence,flow.Sequence,4_19,2023-09-16T19:14:14.935Z,,0,,,4026.151999976166,completion,,,,,false,,,,146959.79999995232,146959.39999997616,142916.582,142931.09999996424,142933.248,146966.42,8,400,,,
trial,html.Screen,4_20_0,2023-09-16T19:14:18.010Z,,0,1,,3067.579999999987,response,ISIC_8121679.JPG,8,ISIC_6558697.JPG,ISIC_6558697.JPG,false,0,keypress(z),500,150034.5,150034,146949.754,146960.09999996424,146966.42,150049.63,8,400,21,,ISIC_8121679.JPG
break,html.Screen,4_20_1,2023-09-16T19:14:18.011Z,,0,,,NaN,,,,,,false,,,,150036,150035.79999995232,,150034.69999998808,,150049.63,8,400,,,
break_continue,html.Screen,4_20_2,2023-09-16T19:14:18.012Z,,0,,,NaN,,,,,,false,,,,150036.5,150036.39999997616,,150036.19999998808,,150049.63,8,400,,,
sequence,flow.Sequence,4_20,2023-09-16T19:14:18.012Z,,0,,,3069.9799999761453,completion,,,,,false,,,,150036.69999998808,150036.39999997616,146949.754,146960,146966.42,150049.63,8,400,,,
trial,html.Screen,4_21_0,2023-09-16T19:14:21.265Z,,0,1,,3239.7699999761535,response,ISIC_0084086.JPG,5,ISIC_0067577.JPG,ISIC_0067577.JPG,false,0,keypress(z),500,153289.79999995232,153289.39999997616,150032.964,150036.89999997616,150049.63,153300.169,8,400,22,,ISIC_0084086.JPG
break,html.Screen,4_21_1,2023-09-16T19:14:21.266Z,,0,,,NaN,,,,,,false,,,,153291.39999997616,153291.09999996424,,153290.09999996424,,153300.169,8,400,,,
break_continue,html.Screen,4_21_2,2023-09-16T19:14:21.267Z,,0,,,NaN,,,,,,false,,,,153292,153291.79999995232,,153291.59999996424,,153300.169,8,400,,,
sequence,flow.Sequence,4_21,2023-09-16T19:14:21.267Z,,0,,,3242.1699999523116,completion,,,,,false,,,,153292.19999998808,153291.79999995232,150032.964,150036.89999997616,150049.63,153300.169,8,400,,,
trial,html.Screen,4_22_0,2023-09-16T19:14:24.910Z,,0,1,,3633.930999964243,response,ISIC_0033612.JPG,7,ISIC_0003068.JPG,ISIC_0003068.JPG,false,0,keypress(z),500,156934.59999996424,156934.09999996424,153283.503,153292.39999997616,153300.169,156950.023,8,400,23,,ISIC_0033612.JPG
break,html.Screen,4_22_1,2023-09-16T19:14:24.911Z,,0,,,NaN,,,,,,false,,,,156936.19999998808,156935.89999997616,,156935,,156950.023,8,400,,,
break_continue,html.Screen,4_22_2,2023-09-16T19:14:24.912Z,,0,,,NaN,,,,,,false,,,,156936.69999998808,156936.59999996424,,156936.29999995232,,156950.023,8,400,,,
sequence,flow.Sequence,4_22,2023-09-16T19:14:24.912Z,,0,,,3636.430999964243,completion,,,,,false,,,,156936.79999995232,156936.59999996424,153283.503,153292.29999995232,153300.169,156950.023,8,400,,,
trial,html.Screen,4_23_0,2023-09-16T19:14:28.438Z,,0,1,,3512.3769999761716,response,ISIC_0046683.JPG,8,ISIC_0015015.JPG,ISIC_0015015.JPG,false,0,keypress(z),500,160462.79999995232,160462.39999997616,156933.357,156937,156950.023,160466.549,8,400,24,,ISIC_0046683.JPG
break,html.Screen,4_23_1,2023-09-16T19:14:28.439Z,,0,,,NaN,,,,,,false,,,,160464.39999997616,160464.09999996424,,160463.09999996424,,160466.549,8,400,,,
break_continue,html.Screen,4_23_2,2023-09-16T19:14:28.440Z,,0,,,NaN,,,,,,false,,,,160464.89999997616,160464.79999995232,,160464.59999996424,,160466.549,8,400,,,
sequence,flow.Sequence,4_23,2023-09-16T19:14:28.440Z,,0,,,3514.77699995233,completion,,,,,false,,,,160465.09999996424,160464.79999995232,156933.357,156937,156950.023,160466.549,8,400,,,
trial,html.Screen,4_24_0,2023-09-16T19:14:31.084Z,,0,1,,2641.850999976159,response,ISIC_0030929.JPG,8,ISIC_0504165.JPG,ISIC_0030929.JPG,false,1,keypress(m),500,163109,163108.39999997616,160449.883,160465.29999995232,160466.549,163116.443,8,400,25,,ISIC_0504165.JPG
break,html.Screen,4_24_1,2023-09-16T19:14:31.085Z,,0,,,NaN,,,,,,false,,,,163110.39999997616,163110.09999996424,,163109.19999998808,,163116.443,8,400,,,
break_continue,html.Screen,4_24_2,2023-09-16T19:14:31.086Z,,0,,,NaN,,,,,,false,,,,163110.89999997616,163110.79999995232,,163110.59999996424,,163116.443,8,400,,,
sequence,flow.Sequence,4_24,2023-09-16T19:14:31.086Z,,0,,,2644.250999952317,completion,,,,,false,,,,163111.19999998808,163110.79999995232,160449.883,160465.19999998808,160466.549,163116.443,8,400,,,
trial,html.Screen,4_25_0,2023-09-16T19:14:34.737Z,,0,1,,3645.2569999880798,response,ISIC_0296580.JPG,9,ISIC_0028883.JPG,ISIC_0296580.JPG,false,1,keypress(m),500,166762.19999998808,166761.69999998808,163099.777,163111.39999997616,163116.443,166767.017,8,400,26,,ISIC_0028883.JPG
break,html.Screen,4_25_1,2023-09-16T19:14:34.738Z,,0,,,NaN,,,,,,false,,,,166763.69999998808,166763.39999997616,,166762.5,,166767.017,8,400,,,
break_continue,html.Screen,4_25_2,2023-09-16T19:14:34.739Z,,0,,,NaN,,,,,,false,,,,166764.19999998808,166764.09999996424,,166763.79999995232,,166767.017,8,400,,,
sequence,flow.Sequence,4_25,2023-09-16T19:14:34.739Z,,0,,,3647.656999964238,completion,,,,,false,,,,166764.39999997616,166764.09999996424,163099.777,163111.29999995232,163116.443,166767.017,8,400,,,
trial,html.Screen,4_26_0,2023-09-16T19:14:38.396Z,,0,1,,3654.2829999523237,response,ISIC_0016114.JPG,8,ISIC_8330906.JPG,ISIC_0016114.JPG,false,1,keypress(m),500,170421.79999995232,170421.29999995232,166750.351,166764.59999996424,166767.017,170450.203,8,400,27,,ISIC_8330906.JPG
break,html.Screen,4_26_1,2023-09-16T19:14:38.398Z,,0,,,NaN,,,,,,false,,,,170423.29999995232,170423,,170422.19999998808,,170450.203,8,400,,,
break_continue,html.Screen,4_26_2,2023-09-16T19:14:38.398Z,,0,,,NaN,,,,,,false,,,,170423.69999998808,170423.59999996424,,170423.29999995232,,170450.203,8,400,,,
sequence,flow.Sequence,4_26,2023-09-16T19:14:38.398Z,,0,,,3656.5829999642447,completion,,,,,false,,,,170423.79999995232,170423.59999996424,166750.351,166764.5,166767.017,170450.203,8,400,,,
trial,html.Screen,4_27_0,2023-09-16T19:14:41.300Z,,0,1,,2874.5969999523077,response,ISIC_5807112.JPG,8,ISIC_9791275.JPG,ISIC_9791275.JPG,false,0,keypress(z),500,173325.29999995232,173324.79999995232,170433.537,170424,170450.203,173333.421,8,400,28,,ISIC_5807112.JPG
break,html.Screen,4_27_1,2023-09-16T19:14:41.301Z,,0,,,NaN,,,,,,false,,,,173326.69999998808,173326.39999997616,,173325.59999996424,,173333.421,8,400,,,
break_continue,html.Screen,4_27_2,2023-09-16T19:14:41.302Z,,0,,,NaN,,,,,,false,,,,173327.19999998808,173327.19999998808,,173326.89999997616,,173333.421,8,400,,,
sequence,flow.Sequence,4_27,2023-09-16T19:14:41.302Z,,0,,,2876.9969999880705,completion,,,,,false,,,,173327.5,173327.19999998808,170433.537,170423.89999997616,170450.203,173333.421,8,400,,,
trial,html.Screen,4_28_0,2023-09-16T19:14:44.696Z,,0,1,,3387.578999999998,response,ISIC_0072041.JPG,7,ISIC_0053473.JPG,ISIC_0053473.JPG,false,0,keypress(z),500,176721.5,176721,173316.755,173327.5,173333.421,176750.616,8,400,29,,ISIC_0072041.JPG
break,html.Screen,4_28_1,2023-09-16T19:14:44.698Z,,0,,,NaN,,,,,,false,,,,176723.29999995232,176723.09999996424,,176721.89999997616,,176750.616,8,400,,,
break_continue,html.Screen,4_28_2,2023-09-16T19:14:44.698Z,,0,,,NaN,,,,,,false,,,,176723.89999997616,176723.69999998808,,176723.39999997616,,176750.616,8,400,,,
sequence,flow.Sequence,4_28,2023-09-16T19:14:44.699Z,,0,,,3390.278999988077,completion,,,,,false,,,,176724.09999996424,176723.69999998808,173316.755,173327.5,173333.421,176750.616,8,400,,,
trial,html.Screen,4_29_0,2023-09-16T19:14:47.936Z,,0,1,,3210.283999976149,response,ISIC_0030820.JPG,7,ISIC_9788545.JPG,ISIC_0030820.JPG,false,1,keypress(m),500,179961.39999997616,179960.89999997616,176733.95,176724.29999995232,176750.616,179967.154,8,400,30,,ISIC_9788545.JPG
break,html.Screen,4_29_1,2023-09-16T19:14:47.937Z,,0,,,NaN,,,,,,false,,,,179962.89999997616,179962.59999996424,,179961.59999996424,,179967.154,8,400,,,
break_continue,html.Screen,4_29_2,2023-09-16T19:14:47.938Z,,0,,,NaN,,,,,,false,,,,179963.39999997616,179963.29999995232,,179963,,179967.154,8,400,,,
sequence,flow.Sequence,4_29,2023-09-16T19:14:47.938Z,,0,,,3212.683999952307,completion,,,,,false,,,,179963.59999996424,179963.29999995232,176733.95,176724.19999998808,176750.616,179967.154,8,400,,,
trial,html.Screen,4_30_0,2023-09-16T19:14:50.694Z,,0,1,,2752.2459999761486,response,ISIC_0034079.JPG,8,ISIC_0005304.JPG,ISIC_0005304.JPG,false,0,keypress(z),500,182720,182719.39999997616,179950.488,179963.79999995232,179967.154,182733.71,8,400,31,,ISIC_0034079.JPG
break,html.Screen,4_30_1,2023-09-16T19:14:50.696Z,,0,,,NaN,,,,,,false,,,,182721.5,182721.09999996424,,182720.19999998808,,182733.71,8,400,,,
break_continue,html.Screen,4_30_2,2023-09-16T19:14:50.696Z,,0,,,NaN,,,,,,false,,,,182721.89999997616,182721.89999997616,,182721.59999996424,,182733.71,8,400,,,
sequence,flow.Sequence,4_30,2023-09-16T19:14:50.696Z,,0,,,2754.7459999761486,completion,,,,,false,,,,182722.09999996424,182721.89999997616,179950.488,179963.69999998808,179967.154,182733.71,8,400,,,
trial,html.Screen,4_31_0,2023-09-16T19:14:53.269Z,,0,1,,2560.6899999761663,response,ISIC_0034022.JPG,8,ISIC_0046222.JPG,ISIC_0034022.JPG,false,1,keypress(m),500,185295,185294.39999997616,182717.044,182722.29999995232,182733.71,185300.919,8,400,32,,ISIC_0046222.JPG
break,html.Screen,4_31_1,2023-09-16T19:14:53.271Z,,0,,,NaN,,,,,,false,,,,185296.5,185296.19999998808,,185295.29999995232,,185300.919,8,400,,,
break_continue,html.Screen,4_31_2,2023-09-16T19:14:53.271Z,,0,,,NaN,,,,,,false,,,,185296.89999997616,185296.79999995232,,185296.59999996424,,185300.919,8,400,,,
sequence,flow.Sequence,4_31,2023-09-16T19:14:53.271Z,,0,,,2563.0899999523244,completion,,,,,false,,,,185297.09999996424,185296.79999995232,182717.044,182722.19999998808,182733.71,185300.919,8,400,,,
trial,html.Screen,4_32_0,2023-09-16T19:14:56.044Z,,0,1,,2768.2809999880847,response,ISIC_0032147.JPG,8,ISIC_0056817.JPG,ISIC_0056817.JPG,false,0,keypress(z),500,188069.69999998808,188069.19999998808,185284.253,185297.29999995232,185300.919,188084.141,8,400,33,,ISIC_0032147.JPG
break,html.Screen,4_32_1,2023-09-16T19:14:56.045Z,,0,,,NaN,,,,,,false,,,,188071.09999996424,188070.89999997616,,188069.89999997616,,188084.141,8,400,,,
break_continue,html.Screen,4_32_2,2023-09-16T19:14:56.046Z,,0,,,NaN,,,,,,false,,,,188071.5,188071.39999997616,,188071.29999995232,,188084.141,8,400,,,
sequence,flow.Sequence,4_32,2023-09-16T19:14:56.046Z,,0,,,2770.4809999761637,completion,,,,,false,,,,188071.69999998808,188071.39999997616,185284.253,185297.19999998808,185300.919,188084.141,8,400,,,
trial,html.Screen,4_33_0,2023-09-16T19:14:59.054Z,,0,1,,2995.3589999999967,response,ISIC_0033452.JPG,7,ISIC_0032182.JPG,ISIC_0032182.JPG,false,0,keypress(z),500,191079.89999997616,191079.5,188067.475,188071.69999998808,188084.141,191084.021,8,400,34,,ISIC_0033452.JPG
break,html.Screen,4_33_1,2023-09-16T19:14:59.055Z,,0,,,NaN,,,,,,false,,,,191081.5,191081.19999998808,,191080.19999998808,,191084.021,8,400,,,
break_continue,html.Screen,4_33_2,2023-09-16T19:14:59.056Z,,0,,,NaN,,,,,,false,,,,191081.89999997616,191081.79999995232,,191081.59999996424,,191084.021,8,400,,,
sequence,flow.Sequence,4_33,2023-09-16T19:14:59.056Z,,0,,,2997.658999952313,completion,,,,,false,,,,191082,191081.79999995232,188067.475,188071.69999998808,188084.141,191084.021,8,400,,,
trial,html.Screen,4_34_0,2023-09-16T19:15:02.646Z,,0,1,,3587.37899997615,response,ISIC_0651353.JPG,5,ISIC_9303594.JPG,ISIC_9303594.JPG,false,0,keypress(z),500,194671.89999997616,194671.39999997616,191067.355,191082.09999996424,191084.021,194684.52,8,400,35,,ISIC_0651353.JPG
break,html.Screen,4_34_1,2023-09-16T19:15:02.647Z,,0,,,NaN,,,,,,false,,,,194673.5,194673.09999996424,,194672.19999998808,,194684.52,8,400,,,
break_continue,html.Screen,4_34_2,2023-09-16T19:15:02.648Z,,0,,,NaN,,,,,,false,,,,194674,194673.79999995232,,194673.59999996424,,194684.52,8,400,,,
sequence,flow.Sequence,4_34,2023-09-16T19:15:02.648Z,,0,,,3589.7789999523084,completion,,,,,false,,,,194674.09999996424,194673.79999995232,191067.355,191082.09999996424,191084.021,194684.52,8,400,,,
trial,html.Screen,4_35_0,2023-09-16T19:15:05.819Z,,0,1,,3160.2799999523268,response,ISIC_2059085.JPG,6,ISIC_0378399.JPG,ISIC_2059085.JPG,false,1,keypress(m),500,197845.19999998808,197844.79999995232,194667.854,194674.19999998808,194684.52,197851.06,8,400,36,,ISIC_0378399.JPG
break,html.Screen,4_35_1,2023-09-16T19:15:05.821Z,,0,,,NaN,,,,,,false,,,,197846.69999998808,197846.39999997616,,197845.5,,197851.06,8,400,,,
break_continue,html.Screen,4_35_2,2023-09-16T19:15:05.821Z,,0,,,NaN,,,,,,false,,,,197847.19999998808,197847.19999998808,,197846.89999997616,,197851.06,8,400,,,
sequence,flow.Sequence,4_35,2023-09-16T19:15:05.821Z,,0,,,3162.6799999880895,completion,,,,,false,,,,197847.39999997616,197847.19999998808,194667.854,194674.09999996424,194684.52,197851.06,8,400,,,
trial,html.Screen,4_36_0,2023-09-16T19:15:08.624Z,,0,1,,2799.1399999880814,response,ISIC_6111078.JPG,6,ISIC_9879693.JPG,ISIC_9879693.JPG,false,0,keypress(z),500,200650.59999996424,200650.19999998808,197834.394,197847.5,197851.06,200667.614,8,400,37,,ISIC_6111078.JPG
break,html.Screen,4_36_1,2023-09-16T19:15:08.626Z,,0,,,NaN,,,,,,false,,,,200652.09999996424,200651.69999998808,,200650.89999997616,,200667.614,8,400,,,
break_continue,html.Screen,4_36_2,2023-09-16T19:15:08.626Z,,0,,,NaN,,,,,,false,,,,200652.59999996424,200652.5,,200652.19999998808,,200667.614,8,400,,,
sequence,flow.Sequence,4_36,2023-09-16T19:15:08.627Z,,0,,,2801.4400000000023,completion,,,,,false,,,,200652.89999997616,200652.5,197834.394,197847.39999997616,197851.06,200667.614,8,400,,,
trial,html.Screen,4_37_0,2023-09-16T19:15:11.637Z,,0,1,,2995.3859999999986,response,ISIC_7450481.JPG,9,ISIC_0029672.JPG,ISIC_7450481.JPG,false,1,keypress(m),500,203663.19999998808,203663,200650.948,200652.89999997616,200667.614,203667.494,8,400,38,,ISIC_0029672.JPG
break,html.Screen,4_37_1,2023-09-16T19:15:11.637Z,,0,,,NaN,,,,,,false,,,,203663.59999996424,203663.5,,203663.19999998808,,203667.494,8,400,,,
break_continue,html.Screen,4_37_2,2023-09-16T19:15:11.637Z,,0,,,NaN,,,,,,false,,,,203663.79999995232,203663.69999998808,,203663.69999998808,,203667.494,8,400,,,
sequence,flow.Sequence,4_37,2023-09-16T19:15:11.638Z,,0,,,2996.0859999880777,completion,,,,,false,,,,203663.79999995232,203663.69999998808,200650.948,200652.89999997616,200667.614,203667.494,8,400,,,
trial,html.Screen,4_38_0,2023-09-16T19:15:14.476Z,,0,1,,2834.405999976152,response,ISIC_0030392.JPG,6,ISIC_7840728.JPG,ISIC_7840728.JPG,false,0,keypress(z),500,206502.39999997616,206501.89999997616,203650.828,203663.89999997616,203667.494,206518.099,8,400,39,,ISIC_0030392.JPG
break,html.Screen,4_38_1,2023-09-16T19:15:14.478Z,,0,,,NaN,,,,,,false,,,,206503.89999997616,206503.69999998808,,206502.79999995232,,206518.099,8,400,,,
break_continue,html.Screen,4_38_2,2023-09-16T19:15:14.478Z,,0,,,NaN,,,,,,false,,,,206504.39999997616,206504.29999995232,,206504.09999996424,,206518.099,8,400,,,
sequence,flow.Sequence,4_38,2023-09-16T19:15:14.478Z,,0,,,2836.8059999523102,completion,,,,,false,,,,206504.59999996424,206504.29999995232,203650.828,203663.89999997616,203667.494,206518.099,8,400,,,
trial,html.Screen,4_39_0,2023-09-16T19:15:17.681Z,,0,1,,3189.1009999880916,response,ISIC_3496800.JPG,7,ISIC_0169604.JPG,ISIC_3496800.JPG,false,1,keypress(m),500,209707.39999997616,209707.19999998808,206501.433,206504.79999995232,206518.099,209717.971,8,400,40,,ISIC_0169604.JPG
break,html.Screen,4_39_1,2023-09-16T19:15:17.682Z,,0,,,NaN,,,,,,false,,,,209708.09999996424,209708,,209707.5,,209717.971,8,400,,,
break_continue,html.Screen,4_39_2,2023-09-16T19:15:17.682Z,,0,,,NaN,,,,,,false,,,,209708.29999995232,209708.29999995232,,209708.19999998808,,209717.971,8,400,,,
sequence,flow.Sequence,4_39,2023-09-16T19:15:17.682Z,,0,,,3190.200999952329,completion,,,,,false,,,,209708.39999997616,209708.29999995232,206501.433,206504.69999998808,206518.099,209717.971,8,400,,,
trial,html.Screen,4_40_0,2023-09-16T19:15:20.666Z,,0,1,,2974.6289999642468,response,ISIC_0031074.JPG,7,ISIC_0033977.JPG,ISIC_0033977.JPG,false,0,keypress(z),500,212692.79999995232,212692.59999996424,209701.305,209708.5,209717.971,212701.185,8,400,41,,ISIC_0031074.JPG
break,html.Screen,4_40_1,2023-09-16T19:15:20.667Z,,0,,,NaN,,,,,,false,,,,212693.19999998808,212693.09999996424,,212692.89999997616,,212701.185,8,400,,,
break_continue,html.Screen,4_40_2,2023-09-16T19:15:20.667Z,,0,,,NaN,,,,,,false,,,,212693.29999995232,212693.29999995232,,212693.29999995232,,212701.185,8,400,,,
sequence,flow.Sequence,4_40,2023-09-16T19:15:20.667Z,,0,,,2975.328999952326,completion,,,,,false,,,,212693.39999997616,212693.29999995232,209701.305,209708.39999997616,209717.971,212701.185,8,400,,,
trial,html.Screen,4_41_0,2023-09-16T19:15:24.580Z,,0,1,,3904.6149999523186,response,ISIC_0028065.JPG,8,ISIC_8296881.JPG,ISIC_8296881.JPG,false,0,keypress(z),500,216606.29999995232,216605.79999995232,212684.519,212693.39999997616,212701.185,216618.38,8,400,42,,ISIC_0028065.JPG
break,html.Screen,4_41_1,2023-09-16T19:15:24.581Z,,0,,,NaN,,,,,,false,,,,216607.69999998808,216607.39999997616,,216606.59999996424,,216618.38,8,400,,,
break_continue,html.Screen,4_41_2,2023-09-16T19:15:24.582Z,,0,,,NaN,,,,,,false,,,,216608.09999996424,216608,,216607.79999995232,,216618.38,8,400,,,
sequence,flow.Sequence,4_41,2023-09-16T19:15:24.582Z,,0,,,3906.8150000000023,completion,,,,,false,,,,216608.29999995232,216608,212684.519,212693.39999997616,212701.185,216618.38,8,400,,,
trial,html.Screen,4_42_0,2023-09-16T19:15:27.604Z,,0,1,,3012.4199999523116,response,ISIC_0000371.JPG,8,ISIC_0028655.JPG,ISIC_0028655.JPG,false,0,keypress(z),500,219631,219630.79999995232,216601.714,216608.39999997616,216618.38,219651.592,8,400,43,,ISIC_0000371.JPG
break,html.Screen,4_42_1,2023-09-16T19:15:27.605Z,,0,,,NaN,,,,,,false,,,,219631.59999996424,219631.5,,219631.19999998808,,219651.592,8,400,,,
break_continue,html.Screen,4_42_2,2023-09-16T19:15:27.605Z,,0,,,NaN,,,,,,false,,,,219631.69999998808,219631.59999996424,,219631.59999996424,,219651.592,8,400,,,
sequence,flow.Sequence,4_42,2023-09-16T19:15:27.605Z,,0,,,3013.2199999642326,completion,,,,,false,,,,219631.79999995232,219631.59999996424,216601.714,216608.29999995232,216618.38,219651.592,8,400,,,
trial,html.Screen,4_43_0,2023-09-16T19:15:30.199Z,,0,1,,2573.407999999996,response,ISIC_9234944.JPG,5,ISIC_0067609.JPG,ISIC_9234944.JPG,false,1,keypress(m),500,222225.5,222225,219634.926,219631.79999995232,219651.592,222234.822,8,400,44,,ISIC_0067609.JPG
break,html.Screen,4_43_1,2023-09-16T19:15:30.201Z,,0,,,NaN,,,,,,false,,,,222227.29999995232,222227,,222226,,222234.822,8,400,,,
break_continue,html.Screen,4_43_2,2023-09-16T19:15:30.201Z,,0,,,NaN,,,,,,false,,,,222227.79999995232,222227.59999996424,,222227.5,,222234.822,8,400,,,
sequence,flow.Sequence,4_43,2023-09-16T19:15:30.201Z,,0,,,2576.007999964233,completion,,,,,false,,,,222228.09999996424,222227.59999996424,219634.926,219631.79999995232,219651.592,222234.822,8,400,,,
trial,html.Screen,4_44_0,2023-09-16T19:15:32.989Z,,0,1,,2780.6780000000144,response,ISIC_0029198.JPG,6,ISIC_5370803.JPG,ISIC_5370803.JPG,false,0,keypress(z),500,225016,225015.5,222218.156,222228.19999998808,222234.822,225018.044,8,400,45,,ISIC_0029198.JPG
break,html.Screen,4_44_1,2023-09-16T19:15:32.991Z,,0,,,NaN,,,,,,false,,,,225017.5,225017.19999998808,,225016.29999995232,,225018.044,8,400,,,
break_continue,html.Screen,4_44_2,2023-09-16T19:15:32.991Z,,0,,,NaN,,,,,,false,,,,225018,225017.79999995232,,225017.59999996424,,225018.044,8,400,,,
sequence,flow.Sequence,4_44,2023-09-16T19:15:32.991Z,,0,,,2782.9779999523307,completion,,,,,false,,,,225018.09999996424,225017.79999995232,222218.156,222228.19999998808,222234.822,225018.044,8,400,,,
trial,html.Screen,4_45_0,2023-09-16T19:15:36.693Z,,0,1,,3701.555999964243,response,ISIC_0010068.JPG,6,ISIC_8806357.JPG,ISIC_8806357.JPG,false,0,keypress(z),500,228720.09999996424,228719.59999996424,225001.378,225018.19999998808,225018.044,228735.327,8,400,46,,ISIC_0010068.JPG
break,html.Screen,4_45_1,2023-09-16T19:15:36.695Z,,0,,,NaN,,,,,,false,,,,228721.59999996424,228721.39999997616,,228720.39999997616,,228735.327,8,400,,,
break_continue,html.Screen,4_45_2,2023-09-16T19:15:36.695Z,,0,,,NaN,,,,,,false,,,,228722.09999996424,228721.89999997616,,228721.79999995232,,228735.327,8,400,,,
sequence,flow.Sequence,4_45,2023-09-16T19:15:36.695Z,,0,,,3703.8559999761637,completion,,,,,false,,,,228722.19999998808,228721.89999997616,225001.378,225018.19999998808,225018.044,228735.327,8,400,,,
trial,html.Screen,4_46_0,2023-09-16T19:15:39.485Z,,0,1,,2776.272999964247,response,ISIC_0029993.JPG,6,ISIC_0025964.JPG,ISIC_0025964.JPG,false,0,keypress(z),500,231512,231511.59999996424,228718.661,228722.29999995232,228735.327,231518.549,8,400,47,,ISIC_0029993.JPG
break,html.Screen,4_46_1,2023-09-16T19:15:39.486Z,,0,,,NaN,,,,,,false,,,,231513.19999998808,231513,,231512.19999998808,,231518.549,8,400,,,
break_continue,html.Screen,4_46_2,2023-09-16T19:15:39.486Z,,0,,,NaN,,,,,,false,,,,231513.5,231513.39999997616,,231513.29999995232,,231518.549,8,400,,,
sequence,flow.Sequence,4_46,2023-09-16T19:15:39.487Z,,0,,,2778.072999976168,completion,,,,,false,,,,231513.69999998808,231513.39999997616,228718.661,228722.19999998808,228735.327,231518.549,8,400,,,
trial,html.Screen,4_47_0,2023-09-16T19:15:43.041Z,,0,1,,3549.350999976159,response,ISIC_6032520.JPG,7,ISIC_9053988.JPG,ISIC_6032520.JPG,false,1,keypress(m),500,235068.29999995232,235067.89999997616,231501.883,231513.69999998808,231518.549,235085.073,8,400,48,,ISIC_9053988.JPG
break,html.Screen,4_47_1,2023-09-16T19:15:43.043Z,,0,,,NaN,,,,,,false,,,,235069.79999995232,235069.5,,235068.59999996424,,235085.073,8,400,,,
break_continue,html.Screen,4_47_2,2023-09-16T19:15:43.043Z,,0,,,NaN,,,,,,false,,,,235070.29999995232,235070.19999998808,,235069.89999997616,,235085.073,8,400,,,
sequence,flow.Sequence,4_47,2023-09-16T19:15:43.043Z,,0,,,3551.65099998808,completion,,,,,false,,,,235070.59999996424,235070.19999998808,231501.883,231513.69999998808,231518.549,235085.073,8,400,,,
trial,html.Screen,4_48_0,2023-09-16T19:15:45.848Z,,0,1,,2789.926999999996,response,ISIC_0010933.JPG,9,ISIC_0056364.JPG,ISIC_0010933.JPG,false,1,keypress(m),500,237875.59999996424,237875,235068.407,235070.69999998808,235085.073,237885.614,8,400,49,,ISIC_0056364.JPG
break,html.Screen,4_48_1,2023-09-16T19:15:45.850Z,,0,,,NaN,,,,,,false,,,,237877,237876.69999998808,,237875.79999995232,,237885.614,8,400,,,
break_continue,html.Screen,4_48_2,2023-09-16T19:15:45.850Z,,0,,,NaN,,,,,,false,,,,237877.5,237877.39999997616,,237877.19999998808,,237885.614,8,400,,,
sequence,flow.Sequence,4_48,2023-09-16T19:15:45.850Z,,0,,,2792.326999976154,completion,,,,,false,,,,237877.59999996424,237877.39999997616,235068.407,235070.59999996424,235085.073,237885.614,8,400,,,
trial,html.Screen,4_49_0,2023-09-16T19:15:48.848Z,,0,1,,2989.5859999880777,response,ISIC_8133871.JPG,7,ISIC_6400714.JPG,ISIC_8133871.JPG,false,1,keypress(m),500,240875.59999996424,240875.19999998808,237868.948,237877.79999995232,237885.614,240885.494,8,400,50,,ISIC_6400714.JPG
break,html.Screen,4_49_1,2023-09-16T19:15:58.845Z,,0,,,10000.252999999997,timeout,,,,,false,,,,250872.39999997616,250869.081,240868.828,240875.89999997616,240885.494,250885.747,8,400,,,
break_continue,html.Screen,4_49_2,2023-09-16T19:15:59.921Z,,0,,,1050.252999999997,response,,,,,false,continue,keypress(Space),,251948.79999995232,251936,250869.081,250872.59999996424,250885.747,251952.371,8,400,,,
sequence,flow.Sequence,4_49,2023-09-16T19:15:59.921Z,,0,,,14050.385999999999,completion,,,,,false,,,,251949,251936,237868.948,237877.79999995232,237885.614,251952.371,8,400,,,
trial,html.Screen,4_50_0,2023-09-16T19:16:02.683Z,,0,2,,2758.2289999642235,response,ISIC_0046670.JPG,8,ISIC_4307626.JPG,ISIC_4307626.JPG,false,0,keypress(z),500,254711,254710.59999996424,251935.705,251949.09999996424,251952.371,254718.927,8,400,1,,ISIC_0046670.JPG
break,html.Screen,4_50_1,2023-09-16T19:16:02.685Z,,0,,,NaN,,,,,,false,,,,254712.59999996424,254712.29999995232,,254711.29999995232,,254718.927,8,400,,,
break_continue,html.Screen,4_50_2,2023-09-16T19:16:02.685Z,,0,,,NaN,,,,,,false,,,,254713,254712.89999997616,,254712.59999996424,,254718.927,8,400,,,
sequence,flow.Sequence,4_50,2023-09-16T19:16:02.686Z,,0,,,2760.5289999761444,completion,,,,,false,,,,254713.19999998808,254712.89999997616,251935.705,251949.09999996424,251952.371,254718.927,8,400,,,
trial,html.Screen,4_51_0,2023-09-16T19:16:05.594Z,,0,2,,2902.172999964241,response,ISIC_0009927.JPG,8,ISIC_3234816.JPG,ISIC_0009927.JPG,false,1,keypress(m),500,257621.59999996424,257621.09999996424,254702.261,254713.39999997616,254718.927,257636.131,8,400,2,,ISIC_3234816.JPG
break,html.Screen,4_51_1,2023-09-16T19:16:05.596Z,,0,,,NaN,,,,,,false,,,,257623.19999998808,257622.89999997616,,257622.09999996424,,257636.131,8,400,,,
break_continue,html.Screen,4_51_2,2023-09-16T19:16:05.596Z,,0,,,NaN,,,,,,false,,,,257623.69999998808,257623.59999996424,,257623.39999997616,,257636.131,8,400,,,
sequence,flow.Sequence,4_51,2023-09-16T19:16:05.596Z,,0,,,2904.672999964241,completion,,,,,false,,,,257623.89999997616,257623.59999996424,254702.261,254713.29999995232,254718.927,257636.131,8,400,,,
trial,html.Screen,4_52_0,2023-09-16T19:16:08.205Z,,0,2,,2596.068999988085,response,ISIC_6732560.JPG,8,ISIC_9511265.JPG,ISIC_6732560.JPG,false,1,keypress(m),500,260232.69999998808,260232.19999998808,257619.465,257624.09999996424,257636.131,260236.027,8,400,3,,ISIC_9511265.JPG
break,html.Screen,4_52_1,2023-09-16T19:16:08.207Z,,0,,,NaN,,,,,,false,,,,260234.39999997616,260234,,260233.09999996424,,260236.027,8,400,,,
break_continue,html.Screen,4_52_2,2023-09-16T19:16:08.207Z,,0,,,NaN,,,,,,false,,,,260234.79999995232,260234.69999998808,,260234.5,,260236.027,8,400,,,
sequence,flow.Sequence,4_52,2023-09-16T19:16:08.207Z,,0,,,2598.568999988085,completion,,,,,false,,,,260235.19999998808,260234.69999998808,257619.465,257624.09999996424,257636.131,260236.027,8,400,,,
trial,html.Screen,4_53_0,2023-09-16T19:16:10.907Z,,0,2,,2698.672999988077,response,ISIC_0032939.JPG,8,ISIC_0501843.JPG,ISIC_0501843.JPG,false,0,keypress(z),500,262935,262934.6999999881,260219.361,260235.29999995232,260236.027,262935.919,8,400,4,,ISIC_0032939.JPG
break,html.Screen,4_53_1,2023-09-16T19:16:10.908Z,,0,,,NaN,,,,,,false,,,,262935.59999996424,262935.5,,262935.09999996424,,262935.919,8,400,,,
break_continue,html.Screen,4_53_2,2023-09-16T19:16:10.908Z,,0,,,NaN,,,,,,false,,,,262935.7999999523,262935.7999999523,,262935.59999996424,,262935.919,8,400,,,
sequence,flow.Sequence,4_53,2023-09-16T19:16:10.908Z,,0,,,2699.7729999523144,completion,,,,,false,,,,262935.89999997616,262935.7999999523,260219.361,260235.19999998808,260236.027,262935.919,8,400,,,
trial,html.Screen,4_54_0,2023-09-16T19:16:13.804Z,,0,2,,2895.0810000000056,response,ISIC_7262685.JPG,7,ISIC_4720306.JPG,ISIC_7262685.JPG,false,1,keypress(m),500,265831.39999997616,265831,262919.253,262935.89999997616,262935.919,265835.803,8,400,5,,ISIC_4720306.JPG
break,html.Screen,4_54_1,2023-09-16T19:16:13.805Z,,0,,,NaN,,,,,,false,,,,265832.89999997616,265832.59999996424,,265831.6999999881,,265835.803,8,400,,,
break_continue,html.Screen,4_54_2,2023-09-16T19:16:13.805Z,,0,,,NaN,,,,,,false,,,,265833.39999997616,265833.2999999523,,265833,,265835.803,8,400,,,
sequence,flow.Sequence,4_54,2023-09-16T19:16:13.806Z,,0,,,2897.380999952322,completion,,,,,false,,,,265833.5,265833.2999999523,262919.253,262935.89999997616,262935.919,265835.803,8,400,,,
trial,html.Screen,4_55_0,2023-09-16T19:16:16.435Z,,0,2,,2626.796999964223,response,ISIC_0026103.JPG,8,ISIC_0613014.JPG,ISIC_0613014.JPG,false,0,keypress(z),500,268463.1999999881,268462.59999996424,265819.137,265833.59999996424,265835.803,268469.719,8,400,6,,ISIC_0026103.JPG
break,html.Screen,4_55_1,2023-09-16T19:16:16.437Z,,0,,,NaN,,,,,,false,,,,268464.6999999881,268464.39999997616,,268463.5,,268469.719,8,400,,,
break_continue,html.Screen,4_55_2,2023-09-16T19:16:16.437Z,,0,,,NaN,,,,,,false,,,,268465.1999999881,268465.09999996424,,268464.89999997616,,268469.719,8,400,,,
sequence,flow.Sequence,4_55,2023-09-16T19:16:16.437Z,,0,,,2629.296999964223,completion,,,,,false,,,,268465.39999997616,268465.09999996424,265819.137,265833.59999996424,265835.803,268469.719,8,400,,,
trial,html.Screen,4_56_0,2023-09-16T19:16:20.891Z,,0,2,,4449.5809999523335,response,ISIC_0029024.JPG,5,ISIC_0024294.JPG,ISIC_0024294.JPG,false,0,keypress(z),500,272919.39999997616,272919.2999999523,268453.053,268465.59999996424,268469.719,272936.207,8,400,7,,ISIC_0029024.JPG
break,html.Screen,4_56_1,2023-09-16T19:16:20.892Z,,0,,,NaN,,,,,,false,,,,272919.7999999523,272919.6999999881,,272919.59999996424,,272936.207,8,400,,,
break_continue,html.Screen,4_56_2,2023-09-16T19:16:20.892Z,,0,,,NaN,,,,,,false,,,,272920,272920,,272919.89999997616,,272936.207,8,400,,,
sequence,flow.Sequence,4_56,2023-09-16T19:16:20.892Z,,0,,,4450.281000000017,completion,,,,,false,,,,272920,272920,268453.053,268465.59999996424,268469.719,272936.207,8,400,,,
trial,html.Screen,4_57_0,2023-09-16T19:16:24.161Z,,0,2,,3252.5929999523214,response,ISIC_2664946.JPG,6,ISIC_0068530.JPG,ISIC_2664946.JPG,false,1,keypress(m),500,276189.2999999523,276188.7999999523,272919.541,272920.09999996424,272936.207,276202.743,8,400,8,,ISIC_0068530.JPG
break,html.Screen,4_57_1,2023-09-16T19:16:24.163Z,,0,,,NaN,,,,,,false,,,,276190.89999997616,276190.5,,276189.59999996424,,276202.743,8,400,,,
break_continue,html.Screen,4_57_2,2023-09-16T19:16:24.163Z,,0,,,NaN,,,,,,false,,,,276191.2999999523,276191.1999999881,,276190.89999997616,,276202.743,8,400,,,
sequence,flow.Sequence,4_57,2023-09-16T19:16:24.163Z,,0,,,3254.992999988084,completion,,,,,false,,,,276191.39999997616,276191.1999999881,272919.541,272920.09999996424,272936.207,276202.743,8,400,,,
trial,html.Screen,4_58_0,2023-09-16T19:16:27.112Z,,0,2,,2937.3569999642204,response,ISIC_7867077.JPG,6,ISIC_5504560.JPG,ISIC_5504560.JPG,false,0,keypress(z),500,279140.6999999881,279140.09999996424,276186.077,276191.59999996424,276202.743,279153.295,8,400,9,,ISIC_7867077.JPG
break,html.Screen,4_58_1,2023-09-16T19:16:27.114Z,,0,,,NaN,,,,,,false,,,,279142,279141.7999999523,,279140.89999997616,,279153.295,8,400,,,
break_continue,html.Screen,4_58_2,2023-09-16T19:16:27.114Z,,0,,,NaN,,,,,,false,,,,279142.5,279142.39999997616,,279142.1999999881,,279153.295,8,400,,,
sequence,flow.Sequence,4_58,2023-09-16T19:16:27.114Z,,0,,,2939.6569999761414,completion,,,,,false,,,,279142.6999999881,279142.39999997616,276186.077,276191.5,276202.743,279153.295,8,400,,,
trial,html.Screen,4_59_0,2023-09-16T19:16:30.319Z,,0,2,,3193.1049999761744,response,ISIC_8298434.JPG,7,ISIC_0028248.JPG,ISIC_8298434.JPG,false,1,keypress(m),500,282346.89999997616,282346.39999997616,279136.629,279142.89999997616,279153.295,282353.167,8,400,10,,ISIC_0028248.JPG
break,html.Screen,4_59_1,2023-09-16T19:16:30.320Z,,0,,,NaN,,,,,,false,,,,282348.5,282348.1999999881,,282347.1999999881,,282353.167,8,400,,,
break_continue,html.Screen,4_59_2,2023-09-16T19:16:30.321Z,,0,,,NaN,,,,,,false,,,,282348.89999997616,282348.7999999523,,282348.5,,282353.167,8,400,,,
sequence,flow.Sequence,4_59,2023-09-16T19:16:30.321Z,,0,,,3195.5049999523326,completion,,,,,false,,,,282349.2999999523,282348.7999999523,279136.629,279142.7999999523,279153.295,282353.167,8,400,,,
trial,html.Screen,4_60_0,2023-09-16T19:16:33.110Z,,0,2,,2785.0329999880632,response,ISIC_5049165.JPG,5,ISIC_2106823.JPG,ISIC_5049165.JPG,false,1,keypress(m),500,285138.6999999881,285138.1999999881,282336.501,282349.39999997616,282353.167,285153.055,8,400,11,,ISIC_2106823.JPG
break,html.Screen,4_60_1,2023-09-16T19:16:33.112Z,,0,,,NaN,,,,,,false,,,,285140.1999999881,285139.7999999523,,285139,,285153.055,8,400,,,
break_continue,html.Screen,4_60_2,2023-09-16T19:16:33.112Z,,0,,,NaN,,,,,,false,,,,285140.59999996424,285140.5,,285140.2999999523,,285153.055,8,400,,,
sequence,flow.Sequence,4_60,2023-09-16T19:16:33.112Z,,0,,,2787.332999999984,completion,,,,,false,,,,285140.6999999881,285140.5,282336.501,282349.2999999523,282353.167,285153.055,8,400,,,
trial,html.Screen,4_61_0,2023-09-16T19:16:36.366Z,,0,2,,3240.445000000007,response,ISIC_0032747.JPG,6,ISIC_0046224.JPG,ISIC_0046224.JPG,false,0,keypress(z),500,288394,288393.5,285136.389,285140.7999999523,285153.055,288403.614,8,400,12,,ISIC_0032747.JPG
break,html.Screen,4_61_1,2023-09-16T19:16:36.367Z,,0,,,NaN,,,,,,false,,,,288395.5,288395.1999999881,,288394.2999999523,,288403.614,8,400,,,
break_continue,html.Screen,4_61_2,2023-09-16T19:16:36.367Z,,0,,,NaN,,,,,,false,,,,288395.89999997616,288395.89999997616,,288395.59999996424,,288403.614,8,400,,,
sequence,flow.Sequence,4_61,2023-09-16T19:16:36.368Z,,0,,,3242.844999976165,completion,,,,,false,,,,288396.1999999881,288395.89999997616,285136.389,285140.7999999523,285153.055,288403.614,8,400,,,
trial,html.Screen,4_62_0,2023-09-16T19:16:40.436Z,,0,2,,4060.485999964236,response,ISIC_9375324.JPG,7,ISIC_5356775.JPG,ISIC_9375324.JPG,false,1,keypress(m),500,292464.39999997616,292464.09999996424,288386.948,288396.39999997616,288403.614,292470.118,8,400,13,,ISIC_5356775.JPG
break,html.Screen,4_62_1,2023-09-16T19:16:40.437Z,,0,,,NaN,,,,,,false,,,,292465.59999996424,292465.39999997616,,292464.59999996424,,292470.118,8,400,,,
break_continue,html.Screen,4_62_2,2023-09-16T19:16:40.438Z,,0,,,NaN,,,,,,false,,,,292466.1999999881,292466,,292465.7999999523,,292470.118,8,400,,,
sequence,flow.Sequence,4_62,2023-09-16T19:16:40.438Z,,0,,,4062.3859999999986,completion,,,,,false,,,,292466.2999999523,292466,288386.948,288396.2999999523,288403.614,292470.118,8,400,,,
trial,html.Screen,4_63_0,2023-09-16T19:16:45.035Z,,0,2,,4592.881999999983,response,ISIC_1793821.JPG,6,ISIC_9267202.JPG,ISIC_1793821.JPG,false,1,keypress(m),500,297063.5,297063,292453.452,292466.39999997616,292470.118,297069.934,8,400,14,,ISIC_9267202.JPG
break,html.Screen,4_63_1,2023-09-16T19:16:45.036Z,,0,,,NaN,,,,,,false,,,,297065,297064.6999999881,,297063.7999999523,,297069.934,8,400,,,
break_continue,html.Screen,4_63_2,2023-09-16T19:16:45.037Z,,0,,,NaN,,,,,,false,,,,297065.5,297065.39999997616,,297065.09999996424,,297069.934,8,400,,,
sequence,flow.Sequence,4_63,2023-09-16T19:16:45.037Z,,0,,,4595.281999976141,completion,,,,,false,,,,297065.59999996424,297065.39999997616,292453.452,292466.39999997616,292470.118,297069.934,8,400,,,
trial,html.Screen,4_64_0,2023-09-16T19:16:48.626Z,,0,2,,3583.865999952308,response,ISIC_0011987.JPG,5,ISIC_7822725.JPG,ISIC_7822725.JPG,false,0,keypress(z),500,300654.2999999523,300653.7999999523,297053.268,297065.7999999523,297069.934,300670.45,8,400,15,,ISIC_0011987.JPG
break,html.Screen,4_64_1,2023-09-16T19:16:48.627Z,,0,,,NaN,,,,,,false,,,,300655.89999997616,300655.5,,300654.59999996424,,300670.45,8,400,,,
break_continue,html.Screen,4_64_2,2023-09-16T19:16:48.627Z,,0,,,NaN,,,,,,false,,,,300656.2999999523,300656.1999999881,,300655.89999997616,,300670.45,8,400,,,
sequence,flow.Sequence,4_64,2023-09-16T19:16:48.628Z,,0,,,3586.2659999880707,completion,,,,,false,,,,300656.5,300656.1999999881,297053.268,297065.6999999881,297069.934,300670.45,8,400,,,
trial,html.Screen,4_65_0,2023-09-16T19:16:51.257Z,,0,2,,2615.1499999642256,response,ISIC_8521610.JPG,8,ISIC_0067338.JPG,ISIC_8521610.JPG,false,1,keypress(m),500,303286,303285.59999996424,300653.784,300656.6999999881,300670.45,303303.678,8,400,16,,ISIC_0067338.JPG
break,html.Screen,4_65_1,2023-09-16T19:16:51.259Z,,0,,,NaN,,,,,,false,,,,303287.5,303287.1999999881,,303286.2999999523,,303303.678,8,400,,,
break_continue,html.Screen,4_65_2,2023-09-16T19:16:51.259Z,,0,,,NaN,,,,,,false,,,,303287.89999997616,303287.7999999523,,303287.59999996424,,303303.678,8,400,,,
sequence,flow.Sequence,4_65,2023-09-16T19:16:51.259Z,,0,,,2617.3499999523046,completion,,,,,false,,,,303288.09999996424,303287.7999999523,300653.784,300656.59999996424,300670.45,303303.678,8,400,,,
trial,html.Screen,4_66_0,2023-09-16T19:16:53.982Z,,0,2,,2706.3219999999856,response,ISIC_0064534.JPG,9,ISIC_0025964.JPG,ISIC_0025964.JPG,false,0,keypress(z),500,306010.5,306010,303287.012,303288.2999999523,303303.678,306020.236,8,400,17,,ISIC_0064534.JPG
break,html.Screen,4_66_1,2023-09-16T19:16:53.983Z,,0,,,NaN,,,,,,false,,,,306012,306011.6999999881,,306010.7999999523,,306020.236,8,400,,,
break_continue,html.Screen,4_66_2,2023-09-16T19:16:53.984Z,,0,,,NaN,,,,,,false,,,,306012.59999996424,306012.39999997616,,306012.1999999881,,306020.236,8,400,,,
sequence,flow.Sequence,4_66,2023-09-16T19:16:53.984Z,,0,,,2708.7219999761437,completion,,,,,false,,,,306012.6999999881,306012.39999997616,303287.012,303288.1999999881,303303.678,306020.236,8,400,,,
trial,html.Screen,4_67_0,2023-09-16T19:16:56.890Z,,0,2,,2898.7640000000247,response,ISIC_0015023.JPG,8,ISIC_0026470.JPG,ISIC_0026470.JPG,false,0,keypress(z),500,308919.5,308919,306003.57,306012.7999999523,306020.236,308920.733,8,400,18,,ISIC_0015023.JPG
break,html.Screen,4_67_1,2023-09-16T19:16:56.892Z,,0,,,NaN,,,,,,false,,,,308921,308920.6999999881,,308919.7999999523,,308920.733,8,400,,,
break_continue,html.Screen,4_67_2,2023-09-16T19:16:56.892Z,,0,,,NaN,,,,,,false,,,,308921.39999997616,308921.2999999523,,308921.09999996424,,308920.733,8,400,,,
sequence,flow.Sequence,4_67,2023-09-16T19:16:56.893Z,,0,,,2901.063999952341,completion,,,,,false,,,,308921.59999996424,308921.2999999523,306003.57,306012.6999999881,306020.236,308920.733,8,400,,,
trial,html.Screen,4_68_0,2023-09-16T19:16:59.618Z,,0,2,,2725.6669999761507,response,ISIC_0024229.JPG,8,ISIC_1418304.JPG,ISIC_0024229.JPG,false,1,keypress(m),500,311646.89999997616,311646.39999997616,308904.067,308921.6999999881,308920.733,311653.957,8,400,19,,ISIC_1418304.JPG
break,html.Screen,4_68_1,2023-09-16T19:16:59.620Z,,0,,,NaN,,,,,,false,,,,311648.7999999523,311648.59999996424,,311647.2999999523,,311653.957,8,400,,,
break_continue,html.Screen,4_68_2,2023-09-16T19:16:59.620Z,,0,,,NaN,,,,,,false,,,,311649.2999999523,311649.1999999881,,311649,,311653.957,8,400,,,
sequence,flow.Sequence,4_68,2023-09-16T19:16:59.620Z,,0,,,2728.4669999880716,completion,,,,,false,,,,311649.5,311649.1999999881,308904.067,308921.6999999881,308920.733,311653.957,8,400,,,
trial,html.Screen,4_69_0,2023-09-16T19:17:02.263Z,,0,2,,2637.543000000005,response,ISIC_7505369.JPG,8,ISIC_7253401.JPG,ISIC_7505369.JPG,false,1,keypress(m),500,314292,314291.5,311637.291,311649.6999999881,311653.957,314303.851,8,400,20,,ISIC_7253401.JPG
break,html.Screen,4_69_1,2023-09-16T19:17:02.264Z,,0,,,NaN,,,,,,false,,,,314293.5,314293.1999999881,,314292.2999999523,,314303.851,8,400,,,
break_continue,html.Screen,4_69_2,2023-09-16T19:17:02.265Z,,0,,,NaN,,,,,,false,,,,314294,314293.89999997616,,314293.59999996424,,314303.851,8,400,,,
sequence,flow.Sequence,4_69,2023-09-16T19:17:02.265Z,,0,,,2639.9429999761633,completion,,,,,false,,,,314294.1999999881,314293.89999997616,311637.291,311649.59999996424,311653.957,314303.851,8,400,,,
trial,html.Screen,4_70_0,2023-09-16T19:17:05.115Z,,0,2,,2840.048999976134,response,ISIC_4938791.JPG,8,ISIC_4884803.JPG,ISIC_4884803.JPG,false,0,keypress(z),500,317144.39999997616,317143.89999997616,314287.185,314294.39999997616,314303.851,317153.737,8,400,21,,ISIC_4938791.JPG
break,html.Screen,4_70_1,2023-09-16T19:17:05.117Z,,0,,,NaN,,,,,,false,,,,317145.89999997616,317145.59999996424,,317144.6999999881,,317153.737,8,400,,,
break_continue,html.Screen,4_70_2,2023-09-16T19:17:05.117Z,,0,,,NaN,,,,,,false,,,,317146.39999997616,317146.2999999523,,317146.09999996424,,317153.737,8,400,,,
sequence,flow.Sequence,4_70,2023-09-16T19:17:05.117Z,,0,,,2842.448999952292,completion,,,,,false,,,,317146.6999999881,317146.2999999523,314287.185,314294.2999999523,314303.851,317153.737,8,400,,,
trial,html.Screen,4_71_0,2023-09-16T19:17:08.243Z,,0,2,,3118.1629999761353,response,ISIC_0063981.JPG,8,ISIC_0056796.JPG,ISIC_0056796.JPG,false,0,keypress(z),500,320272.5,320271.89999997616,317137.071,317146.7999999523,317153.737,320287.665,8,400,22,,ISIC_0063981.JPG
break,html.Screen,4_71_1,2023-09-16T19:17:08.245Z,,0,,,NaN,,,,,,false,,,,320274,320273.6999999881,,320272.7999999523,,320287.665,8,400,,,
break_continue,html.Screen,4_71_2,2023-09-16T19:17:08.245Z,,0,,,NaN,,,,,,false,,,,320274.5,320274.2999999523,,320274.1999999881,,320287.665,8,400,,,
sequence,flow.Sequence,4_71,2023-09-16T19:17:08.245Z,,0,,,3120.5629999522935,completion,,,,,false,,,,320274.6999999881,320274.2999999523,317137.071,317146.6999999881,317153.737,320287.665,8,400,,,
trial,html.Screen,4_72_0,2023-09-16T19:17:11.105Z,,0,2,,2846.335000000021,response,ISIC_0026652.JPG,8,ISIC_0065260.JPG,ISIC_0026652.JPG,false,1,keypress(m),500,323134.09999996424,323134,320270.999,320274.89999997616,320287.665,323137.551,8,400,23,,ISIC_0065260.JPG
break,html.Screen,4_72_1,2023-09-16T19:17:11.105Z,,0,,,NaN,,,,,,false,,,,323134.5,323134.5,,323134.1999999881,,323137.551,8,400,,,
break_continue,html.Screen,4_72_2,2023-09-16T19:17:11.105Z,,0,,,NaN,,,,,,false,,,,323134.59999996424,323134.59999996424,,323134.5,,323137.551,8,400,,,
sequence,flow.Sequence,4_72,2023-09-16T19:17:11.105Z,,0,,,2846.934999964258,completion,,,,,false,,,,323134.6999999881,323134.59999996424,320270.999,320274.7999999523,320287.665,323137.551,8,400,,,
trial,html.Screen,4_73_0,2023-09-16T19:17:14.361Z,,0,2,,3252.6489999881014,response,ISIC_4153234.JPG,8,ISIC_0067170.JPG,ISIC_4153234.JPG,false,1,keypress(m),500,326390.6999999881,326390.1999999881,323120.885,323135.1999999881,323137.551,326404.087,8,400,24,,ISIC_0067170.JPG
break,html.Screen,4_73_1,2023-09-16T19:17:14.363Z,,0,,,NaN,,,,,,false,,,,326392.2999999523,326391.89999997616,,326391,,326404.087,8,400,,,
break_continue,html.Screen,4_73_2,2023-09-16T19:17:14.363Z,,0,,,NaN,,,,,,false,,,,326392.6999999881,326392.59999996424,,326392.39999997616,,326404.087,8,400,,,
sequence,flow.Sequence,4_73,2023-09-16T19:17:14.363Z,,0,,,3255.0489999642596,completion,,,,,false,,,,326393,326392.59999996424,323120.885,323135.09999996424,323137.551,326404.087,8,400,,,
trial,html.Screen,4_74_0,2023-09-16T19:17:17.121Z,,0,2,,2746.3129999761586,response,ISIC_0033472.JPG,6,ISIC_0011333.JPG,ISIC_0011333.JPG,false,0,keypress(z),500,329150.89999997616,329150.39999997616,326387.421,326393.09999996424,326404.087,329153.977,8,400,25,,ISIC_0033472.JPG
break,html.Screen,4_74_1,2023-09-16T19:17:17.123Z,,0,,,NaN,,,,,,false,,,,329152.39999997616,329152.1999999881,,329151.1999999881,,329153.977,8,400,,,
break_continue,html.Screen,4_74_2,2023-09-16T19:17:17.123Z,,0,,,NaN,,,,,,false,,,,329152.89999997616,329152.7999999523,,329152.59999996424,,329153.977,8,400,,,
sequence,flow.Sequence,4_74,2023-09-16T19:17:17.124Z,,0,,,2748.7129999523167,completion,,,,,false,,,,329153.09999996424,329152.7999999523,326387.421,326393,326404.087,329153.977,8,400,,,
trial,html.Screen,4_75_0,2023-09-16T19:17:20.535Z,,0,2,,3410.4229999761446,response,ISIC_0060760.JPG,8,ISIC_8497457.JPG,ISIC_0060760.JPG,false,1,keypress(m),500,332564.89999997616,332564.39999997616,329137.311,329153.2999999523,329153.977,332571.169,8,400,26,,ISIC_8497457.JPG
break,html.Screen,4_75_1,2023-09-16T19:17:20.537Z,,0,,,NaN,,,,,,false,,,,332566.39999997616,332566.09999996424,,332565.1999999881,,332571.169,8,400,,,
break_continue,html.Screen,4_75_2,2023-09-16T19:17:20.537Z,,0,,,NaN,,,,,,false,,,,332566.7999999523,332566.6999999881,,332566.59999996424,,332571.169,8,400,,,
sequence,flow.Sequence,4_75,2023-09-16T19:17:20.537Z,,0,,,3412.7229999880656,completion,,,,,false,,,,332567,332566.6999999881,329137.311,329153.1999999881,329153.977,332571.169,8,400,,,
trial,html.Screen,4_76_0,2023-09-16T19:17:23.265Z,,0,2,,2723.0309999880847,response,ISIC_0016137.JPG,6,ISIC_0057244.JPG,ISIC_0057244.JPG,false,0,keypress(z),500,335294.6999999881,335294.1999999881,332554.503,332567.1999999881,332571.169,335304.393,8,400,27,,ISIC_0016137.JPG
break,html.Screen,4_76_1,2023-09-16T19:17:23.267Z,,0,,,NaN,,,,,,false,,,,335296.1999999881,335295.89999997616,,335295,,335304.393,8,400,,,
break_continue,html.Screen,4_76_2,2023-09-16T19:17:23.267Z,,0,,,NaN,,,,,,false,,,,335296.6999999881,335296.59999996424,,335296.39999997616,,335304.393,8,400,,,
sequence,flow.Sequence,4_76,2023-09-16T19:17:23.267Z,,0,,,2725.430999964243,completion,,,,,false,,,,335296.89999997616,335296.59999996424,332554.503,332567.09999996424,332571.169,335304.393,8,400,,,
trial,html.Screen,4_77_0,2023-09-16T19:17:26.005Z,,0,2,,2730.107000000018,response,ISIC_8624049.JPG,9,ISIC_0015219.JPG,ISIC_8624049.JPG,false,1,keypress(m),500,338034.89999997616,338034.5,335287.727,335297.09999996424,335304.393,338037.617,8,400,28,,ISIC_0015219.JPG
break,html.Screen,4_77_1,2023-09-16T19:17:26.007Z,,0,,,NaN,,,,,,false,,,,338036.5,338036.09999996424,,338035.1999999881,,338037.617,8,400,,,
break_continue,html.Screen,4_77_2,2023-09-16T19:17:26.007Z,,0,,,NaN,,,,,,false,,,,338036.7999999523,338036.6999999881,,338036.59999996424,,338037.617,8,400,,,
sequence,flow.Sequence,4_77,2023-09-16T19:17:26.007Z,,0,,,2732.3069999880972,completion,,,,,false,,,,338037,338036.6999999881,335287.727,335297,335304.393,338037.617,8,400,,,
trial,html.Screen,4_78_0,2023-09-16T19:17:28.561Z,,0,2,,2552.3829999999725,response,ISIC_0061108.JPG,8,ISIC_0028219.JPG,ISIC_0028219.JPG,false,0,keypress(z),500,340590.5,340590,338020.951,338037.1999999881,338037.617,340604.836,8,400,29,,ISIC_0061108.JPG
break,html.Screen,4_78_1,2023-09-16T19:17:28.562Z,,0,,,NaN,,,,,,false,,,,340592,340591.6999999881,,340590.7999999523,,340604.836,8,400,,,
break_continue,html.Screen,4_78_2,2023-09-16T19:17:28.563Z,,0,,,NaN,,,,,,false,,,,340592.5,340592.39999997616,,340592.1999999881,,340604.836,8,400,,,
sequence,flow.Sequence,4_78,2023-09-16T19:17:28.563Z,,0,,,2554.7829999761307,completion,,,,,false,,,,340592.6999999881,340592.39999997616,338020.951,338037.09999996424,338037.617,340604.836,8,400,,,
trial,html.Screen,4_79_0,2023-09-16T19:17:31.304Z,,0,2,,2728.6639999999898,response,ISIC_5820693.JPG,8,ISIC_7169653.JPG,ISIC_7169653.JPG,false,0,keypress(z),500,343334,343333.5,340588.17,340592.7999999523,340604.836,343338.06,8,400,30,,ISIC_5820693.JPG
break,html.Screen,4_79_1,2023-09-16T19:17:31.306Z,,0,,,NaN,,,,,,false,,,,343335.5,343335.1999999881,,343334.2999999523,,343338.06,8,400,,,
break_continue,html.Screen,4_79_2,2023-09-16T19:17:31.306Z,,0,,,NaN,,,,,,false,,,,343336,343335.89999997616,,343335.59999996424,,343338.06,8,400,,,
sequence,flow.Sequence,4_79,2023-09-16T19:17:31.306Z,,0,,,2731.063999976148,completion,,,,,false,,,,343336.1999999881,343335.89999997616,340588.17,340592.7999999523,340604.836,343338.06,8,400,,,
trial,html.Screen,4_80_0,2023-09-16T19:17:34.735Z,,0,2,,3426.7399999523186,response,ISIC_0013652.JPG,5,ISIC_0014994.JPG,ISIC_0013652.JPG,false,1,keypress(m),500,346765.2999999523,346764.7999999523,343321.394,343336.2999999523,343338.06,346771.256,8,400,31,,ISIC_0014994.JPG
break,html.Screen,4_80_1,2023-09-16T19:17:34.737Z,,0,,,NaN,,,,,,false,,,,346766.89999997616,346766.59999996424,,346765.6999999881,,346771.256,8,400,,,
break_continue,html.Screen,4_80_2,2023-09-16T19:17:34.737Z,,0,,,NaN,,,,,,false,,,,346767.2999999523,346767.1999999881,,346767,,346771.256,8,400,,,
sequence,flow.Sequence,4_80,2023-09-16T19:17:34.738Z,,0,,,3429.1399999880814,completion,,,,,false,,,,346767.5,346767.1999999881,343321.394,343336.2999999523,343338.06,346771.256,8,400,,,
trial,html.Screen,4_81_0,2023-09-16T19:17:37.384Z,,0,2,,2642.244000000006,response,ISIC_0033655.JPG,8,ISIC_0032858.JPG,ISIC_0032858.JPG,false,0,keypress(z),500,349414,349413.5,346754.59,346767.6999999881,346771.256,349421.15,8,400,32,,ISIC_0033655.JPG
break,html.Screen,4_81_1,2023-09-16T19:17:37.386Z,,0,,,NaN,,,,,,false,,,,349415.59999996424,349415.2999999523,,349414.39999997616,,349421.15,8,400,,,
break_continue,html.Screen,4_81_2,2023-09-16T19:17:37.386Z,,0,,,NaN,,,,,,false,,,,349416,349415.89999997616,,349415.59999996424,,349421.15,8,400,,,
sequence,flow.Sequence,4_81,2023-09-16T19:17:37.386Z,,0,,,2644.643999976164,completion,,,,,false,,,,349416.1999999881,349415.89999997616,346754.59,346767.59999996424,346771.256,349421.15,8,400,,,
trial,html.Screen,4_82_0,2023-09-16T19:17:39.997Z,,0,2,,2605.449999964214,response,ISIC_9742073.JPG,5,ISIC_5498651.JPG,ISIC_5498651.JPG,false,0,keypress(z),500,352026.6999999881,352026.59999996424,349404.484,349416.39999997616,349421.15,352038.383,8,400,33,,ISIC_9742073.JPG
break,html.Screen,4_82_1,2023-09-16T19:17:39.997Z,,0,,,NaN,,,,,,false,,,,352027,352027,,352026.7999999523,,352038.383,8,400,,,
break_continue,html.Screen,4_82_2,2023-09-16T19:17:39.997Z,,0,,,NaN,,,,,,false,,,,352027.2999999523,352027.1999999881,,352027.09999996424,,352038.383,8,400,,,
sequence,flow.Sequence,4_82,2023-09-16T19:17:39.997Z,,0,,,2606.049999988056,completion,,,,,false,,,,352027.2999999523,352027.1999999881,349404.484,349416.2999999523,349421.15,352038.383,8,400,,,
trial,html.Screen,4_83_0,2023-09-16T19:17:43.314Z,,0,2,,3305.3169999881065,response,ISIC_0070046.JPG,6,ISIC_0064376.JPG,ISIC_0070046.JPG,false,1,keypress(m),500,355344.2999999523,355343.6999999881,352021.717,352027.2999999523,352038.383,355354.917,8,400,34,,ISIC_0064376.JPG
break,html.Screen,4_83_1,2023-09-16T19:17:43.316Z,,0,,,NaN,,,,,,false,,,,355346.09999996424,355345.89999997616,,355344.6999999881,,355354.917,8,400,,,
break_continue,html.Screen,4_83_2,2023-09-16T19:17:43.316Z,,0,,,NaN,,,,,,false,,,,355346.59999996424,355346.5,,355346.1999999881,,355354.917,8,400,,,
sequence,flow.Sequence,4_83,2023-09-16T19:17:43.317Z,,0,,,3308.1170000000275,completion,,,,,false,,,,355346.7999999523,355346.5,352021.717,352027.2999999523,352038.383,355354.917,8,400,,,
trial,html.Screen,4_84_0,2023-09-16T19:17:45.882Z,,0,2,,2556.4829999761423,response,ISIC_1818238.JPG,6,ISIC_0011521.JPG,ISIC_1818238.JPG,false,1,keypress(m),500,357912,357911.39999997616,355338.251,355346.89999997616,355354.917,357921.481,8,400,35,,ISIC_0011521.JPG
break,html.Screen,4_84_1,2023-09-16T19:17:45.883Z,,0,,,NaN,,,,,,false,,,,357913.5,357913.1999999881,,357912.1999999881,,357921.481,8,400,,,
break_continue,html.Screen,4_84_2,2023-09-16T19:17:45.884Z,,0,,,NaN,,,,,,false,,,,357913.89999997616,357913.7999999523,,357913.59999996424,,357921.481,8,400,,,
sequence,flow.Sequence,4_84,2023-09-16T19:17:45.884Z,,0,,,2558.8829999523005,completion,,,,,false,,,,357914,357913.7999999523,355338.251,355346.7999999523,355354.917,357921.481,8,400,,,
trial,html.Screen,4_85_0,2023-09-16T19:17:48.649Z,,0,2,,2757.3189999522874,response,ISIC_0033800.JPG,5,ISIC_3744940.JPG,ISIC_3744940.JPG,false,0,keypress(z),500,360679.2999999523,360678.7999999523,357904.815,357914.09999996424,357921.481,360688.037,8,400,36,,ISIC_0033800.JPG
break,html.Screen,4_85_1,2023-09-16T19:17:48.651Z,,0,,,NaN,,,,,,false,,,,360680.89999997616,360680.5,,360679.59999996424,,360688.037,8,400,,,
break_continue,html.Screen,4_85_2,2023-09-16T19:17:48.651Z,,0,,,NaN,,,,,,false,,,,360681.2999999523,360681.1999999881,,360681,,360688.037,8,400,,,
sequence,flow.Sequence,4_85,2023-09-16T19:17:48.651Z,,0,,,2759.71899998805,completion,,,,,false,,,,360681.59999996424,360681.1999999881,357904.815,357914.09999996424,357921.481,360688.037,8,400,,,
trial,html.Screen,4_86_0,2023-09-16T19:17:51.374Z,,0,2,,2715.562999964226,response,ISIC_0027822.JPG,6,ISIC_5359416.JPG,ISIC_5359416.JPG,false,0,keypress(z),500,363404.09999996424,363403.59999996424,360671.371,360681.6999999881,360688.037,363405.317,8,400,37,,ISIC_0027822.JPG
break,html.Screen,4_86_1,2023-09-16T19:17:51.375Z,,0,,,NaN,,,,,,false,,,,363405.59999996424,363405.2999999523,,363404.39999997616,,363405.317,8,400,,,
break_continue,html.Screen,4_86_2,2023-09-16T19:17:51.376Z,,0,,,NaN,,,,,,false,,,,363406.09999996424,363406,,363405.7999999523,,363405.317,8,400,,,
sequence,flow.Sequence,4_86,2023-09-16T19:17:51.376Z,,0,,,2717.962999999989,completion,,,,,false,,,,363406.1999999881,363406,360671.371,360681.59999996424,360688.037,363405.317,8,400,,,
trial,html.Screen,4_87_0,2023-09-16T19:17:54.053Z,,0,2,,2677.683000000019,response,ISIC_0068544.JPG,8,ISIC_6239663.JPG,ISIC_6239663.JPG,false,0,keypress(z),500,366083.5,366083,363388.651,363406.5,363405.317,366088.543,8,400,38,,ISIC_0068544.JPG
break,html.Screen,4_87_1,2023-09-16T19:17:54.055Z,,0,,,NaN,,,,,,false,,,,366085,366084.6999999881,,366083.7999999523,,366088.543,8,400,,,
break_continue,html.Screen,4_87_2,2023-09-16T19:17:54.055Z,,0,,,NaN,,,,,,false,,,,366085.5,366085.39999997616,,366085.09999996424,,366088.543,8,400,,,
sequence,flow.Sequence,4_87,2023-09-16T19:17:54.055Z,,0,,,2680.0829999761772,completion,,,,,false,,,,366085.6999999881,366085.39999997616,363388.651,363406.39999997616,363405.317,366088.543,8,400,,,
trial,html.Screen,4_88_0,2023-09-16T19:17:56.876Z,,0,2,,2817.556999964232,response,ISIC_8509219.JPG,8,ISIC_0256715.JPG,ISIC_0256715.JPG,false,0,keypress(z),500,368906.59999996424,368906.09999996424,366071.877,366085.7999999523,366088.543,368921.763,8,400,39,,ISIC_8509219.JPG
break,html.Screen,4_88_1,2023-09-16T19:17:56.878Z,,0,,,NaN,,,,,,false,,,,368908.09999996424,368907.7999999523,,368907,,368921.763,8,400,,,
break_continue,html.Screen,4_88_2,2023-09-16T19:17:56.878Z,,0,,,NaN,,,,,,false,,,,368908.5,368908.39999997616,,368908.2999999523,,368921.763,8,400,,,
sequence,flow.Sequence,4_88,2023-09-16T19:17:56.878Z,,0,,,2819.856999976153,completion,,,,,false,,,,368908.6999999881,368908.39999997616,366071.877,366085.7999999523,366088.543,368921.763,8,400,,,
trial,html.Screen,4_89_0,2023-09-16T19:17:59.705Z,,0,2,,2813.237000000023,response,ISIC_0071913.JPG,7,ISIC_0066518.JPG,ISIC_0066518.JPG,false,0,keypress(z),500,371735.59999996424,371735,368905.097,368908.7999999523,368921.763,371738.961,8,400,40,,ISIC_0071913.JPG
break,html.Screen,4_89_1,2023-09-16T19:17:59.707Z,,0,,,NaN,,,,,,false,,,,371737.1999999881,371736.7999999523,,371735.89999997616,,371738.961,8,400,,,
break_continue,html.Screen,4_89_2,2023-09-16T19:17:59.707Z,,0,,,NaN,,,,,,false,,,,371737.6999999881,371737.59999996424,,371737.39999997616,,371738.961,8,400,,,
sequence,flow.Sequence,4_89,2023-09-16T19:17:59.707Z,,0,,,2815.83699996426,completion,,,,,false,,,,371738,371737.59999996424,368905.097,368908.7999999523,368921.763,371738.961,8,400,,,
trial,html.Screen,4_90_0,2023-09-16T19:18:02.526Z,,0,2,,2817.338999952306,response,ISIC_0024266.JPG,8,ISIC_0011211.JPG,ISIC_0024266.JPG,false,1,keypress(m),500,374556.89999997616,374556.2999999523,371722.295,371738.09999996424,371738.961,374572.181,8,400,41,,ISIC_0011211.JPG
break,html.Screen,4_90_1,2023-09-16T19:18:02.528Z,,0,,,NaN,,,,,,false,,,,374558.39999997616,374558.09999996424,,374557.09999996424,,374572.181,8,400,,,
break_continue,html.Screen,4_90_2,2023-09-16T19:18:02.528Z,,0,,,NaN,,,,,,false,,,,374558.7999999523,374558.6999999881,,374558.59999996424,,374572.181,8,400,,,
sequence,flow.Sequence,4_90,2023-09-16T19:18:02.528Z,,0,,,2819.738999988069,completion,,,,,false,,,,374559.09999996424,374558.6999999881,371722.295,371738.09999996424,371738.961,374572.181,8,400,,,
trial,html.Screen,4_91_0,2023-09-16T19:18:05.537Z,,0,2,,2994.8190000000177,response,ISIC_0032684.JPG,6,ISIC_2918117.JPG,ISIC_0032684.JPG,false,1,keypress(m),500,377567.39999997616,377567,374555.515,374559.1999999881,374572.181,377572.061,8,400,42,,ISIC_2918117.JPG
break,html.Screen,4_91_1,2023-09-16T19:18:05.538Z,,0,,,NaN,,,,,,false,,,,377568.89999997616,377568.59999996424,,377567.6999999881,,377572.061,8,400,,,
break_continue,html.Screen,4_91_2,2023-09-16T19:18:05.539Z,,0,,,NaN,,,,,,false,,,,377569.39999997616,377569.2999999523,,377569,,377572.061,8,400,,,
sequence,flow.Sequence,4_91,2023-09-16T19:18:05.539Z,,0,,,2997.118999952334,completion,,,,,false,,,,377569.59999996424,377569.2999999523,374555.515,374559.1999999881,374572.181,377572.061,8,400,,,
trial,html.Screen,4_92_0,2023-09-16T19:18:08.369Z,,0,2,,2827.439000000013,response,ISIC_0024226.JPG,7,ISIC_0879097.JPG,ISIC_0879097.JPG,false,0,keypress(z),500,380400,380399.5,377555.395,377569.7999999523,377572.061,380405.281,8,400,43,,ISIC_0024226.JPG
break,html.Screen,4_92_1,2023-09-16T19:18:08.371Z,,0,,,NaN,,,,,,false,,,,380401.59999996424,380401.2999999523,,380400.2999999523,,380405.281,8,400,,,
break_continue,html.Screen,4_92_2,2023-09-16T19:18:08.371Z,,0,,,NaN,,,,,,false,,,,380402,380401.89999997616,,380401.6999999881,,380405.281,8,400,,,
sequence,flow.Sequence,4_92,2023-09-16T19:18:08.371Z,,0,,,2829.838999976171,completion,,,,,false,,,,380402.1999999881,380401.89999997616,377555.395,377569.6999999881,377572.061,380405.281,8,400,,,
trial,html.Screen,4_93_0,2023-09-16T19:18:11.001Z,,0,2,,2626.2189999999828,response,ISIC_6544382.JPG,9,ISIC_9332795.JPG,ISIC_6544382.JPG,false,1,keypress(m),500,383031.6999999881,383031.5,380388.615,380402.2999999523,380405.281,383039.142,8,400,44,,ISIC_9332795.JPG
break,html.Screen,4_93_1,2023-09-16T19:18:11.001Z,,0,,,NaN,,,,,,false,,,,383032.09999996424,383032,,383031.7999999523,,383039.142,8,400,,,
break_continue,html.Screen,4_93_2,2023-09-16T19:18:11.001Z,,0,,,NaN,,,,,,false,,,,383032.2999999523,383032.1999999881,,383032.1999999881,,383039.142,8,400,,,
sequence,flow.Sequence,4_93,2023-09-16T19:18:11.001Z,,0,,,2626.918999988062,completion,,,,,false,,,,383032.2999999523,383032.1999999881,380388.615,380402.1999999881,380405.281,383039.142,8,400,,,
trial,html.Screen,4_94_0,2023-09-16T19:18:14.158Z,,0,2,,3149.3580000000075,response,ISIC_6220625.JPG,5,ISIC_0010227.JPG,ISIC_0010227.JPG,false,0,keypress(z),500,386189,386188.5,383022.476,383032.39999997616,383039.142,386205.682,8,400,45,,ISIC_6220625.JPG
break,html.Screen,4_94_1,2023-09-16T19:18:14.160Z,,0,,,NaN,,,,,,false,,,,386190.7999999523,386190.1999999881,,386189.2999999523,,386205.682,8,400,,,
break_continue,html.Screen,4_94_2,2023-09-16T19:18:14.160Z,,0,,,NaN,,,,,,false,,,,386191.2999999523,386191.09999996424,,386190.89999997616,,386205.682,8,400,,,
sequence,flow.Sequence,4_94,2023-09-16T19:18:14.160Z,,0,,,3151.9579999642447,completion,,,,,false,,,,386191.39999997616,386191.09999996424,383022.476,383032.2999999523,383039.142,386205.682,8,400,,,
trial,html.Screen,4_95_0,2023-09-16T19:18:16.981Z,,0,2,,2806.2179999761865,response,ISIC_0068677.JPG,6,ISIC_0027171.JPG,ISIC_0068677.JPG,false,1,keypress(m),500,389012.39999997616,389011.89999997616,386189.016,386191.5,386205.682,389022.236,8,400,46,,ISIC_0027171.JPG
break,html.Screen,4_95_1,2023-09-16T19:18:16.983Z,,0,,,NaN,,,,,,false,,,,389013.7999999523,389013.5,,389012.59999996424,,389022.236,8,400,,,
break_continue,html.Screen,4_95_2,2023-09-16T19:18:16.983Z,,0,,,NaN,,,,,,false,,,,389014.2999999523,389014.1999999881,,389013.89999997616,,389022.236,8,400,,,
sequence,flow.Sequence,4_95,2023-09-16T19:18:16.985Z,,0,,,2808.5179999881075,completion,,,,,false,,,,389016.09999996424,389014.1999999881,386189.016,386191.39999997616,386205.682,389022.236,8,400,,,
trial,html.Screen,4_96_0,2023-09-16T19:18:19.726Z,,0,2,,2734.863999964262,response,ISIC_8095877.JPG,5,ISIC_0032717.JPG,ISIC_0032717.JPG,false,0,keypress(z),500,391757.59999996424,391757.09999996424,389005.57,389016.2999999523,389022.236,391772.126,8,400,47,,ISIC_8095877.JPG
break,html.Screen,4_96_1,2023-09-16T19:18:19.728Z,,0,,,NaN,,,,,,false,,,,391759.09999996424,391758.7999999523,,391757.89999997616,,391772.126,8,400,,,
break_continue,html.Screen,4_96_2,2023-09-16T19:18:19.728Z,,0,,,NaN,,,,,,false,,,,391759.39999997616,391759.39999997616,,391759.1999999881,,391772.126,8,400,,,
sequence,flow.Sequence,4_96,2023-09-16T19:18:19.728Z,,0,,,2737.163999976183,completion,,,,,false,,,,391759.59999996424,391759.39999997616,389005.57,389016.1999999881,389022.236,391772.126,8,400,,,
trial,html.Screen,4_97_0,2023-09-16T19:18:22.339Z,,0,2,,2597.57399998809,response,ISIC_9024078.JPG,9,ISIC_0028379.JPG,ISIC_0028379.JPG,false,0,keypress(z),500,394370.2999999523,394369.6999999881,391755.46,391759.7999999523,391772.126,394372.753,8,400,48,,ISIC_9024078.JPG
break,html.Screen,4_97_1,2023-09-16T19:18:22.341Z,,0,,,NaN,,,,,,false,,,,394371.7999999523,394371.5,,394370.6999999881,,394372.753,8,400,,,
break_continue,html.Screen,4_97_2,2023-09-16T19:18:22.341Z,,0,,,NaN,,,,,,false,,,,394372.1999999881,394372.09999996424,,394371.89999997616,,394372.753,8,400,,,
sequence,flow.Sequence,4_97,2023-09-16T19:18:22.341Z,,0,,,2599.973999964248,completion,,,,,false,,,,394372.2999999523,394372.09999996424,391755.46,391759.7999999523,391772.126,394372.753,8,400,,,
trial,html.Screen,4_98_0,2023-09-16T19:18:24.923Z,,0,2,,2580.54699995229,response,ISIC_0011798.JPG,6,ISIC_9767255.JPG,ISIC_9767255.JPG,false,0,keypress(z),500,396953.7999999523,396953.2999999523,394356.087,394372.5,394372.753,396955.983,8,400,49,,ISIC_0011798.JPG
break,html.Screen,4_98_1,2023-09-16T19:18:24.924Z,,0,,,NaN,,,,,,false,,,,396955.2999999523,396955,,396954.1999999881,,396955.983,8,400,,,
break_continue,html.Screen,4_98_2,2023-09-16T19:18:24.924Z,,0,,,NaN,,,,,,false,,,,396955.7999999523,396955.59999996424,,396955.5,,396955.983,8,400,,,
sequence,flow.Sequence,4_98,2023-09-16T19:18:24.925Z,,0,,,2582.846999964211,completion,,,,,false,,,,396956,396955.59999996424,394356.087,394372.39999997616,394372.753,396955.983,8,400,,,
trial,html.Screen,4_99_0,2023-09-16T19:18:27.544Z,,0,2,,2619.0169999999925,response,ISIC_0000154.JPG,6,ISIC_0033042.JPG,ISIC_0000154.JPG,false,1,keypress(m),500,399575.5,399575,396939.317,396956.09999996424,396955.983,399589.211,8,400,50,,ISIC_0033042.JPG
break,html.Screen,4_99_1,2023-09-16T19:18:37.546Z,,0,,,10000.244999999995,timeout,,,,,false,,,,409577.39999997616,409572.79,399572.545,399575.7999999523,399589.211,409589.456,8,400,,,
break_continue,html.Screen,4_99_2,2023-09-16T19:18:39.461Z,,0,,,1887.4439999761526,response,,,,,false,continue,keypress(Space),,411493.09999996424,411476.89999997616,409572.79,409577.6999999881,409589.456,411506.046,8,400,,,
sequence,flow.Sequence,4_99,2023-09-16T19:18:39.462Z,,0,,,14520.91699997615,completion,,,,,false,,,,411493.1999999881,411476.89999997616,396939.317,396956,396955.983,411506.046,8,400,,,
trial,html.Screen,4_100_0,2023-09-16T19:18:42.014Z,,0,3,,2539.053999964264,response,ISIC_6829008.JPG,8,ISIC_1470245.JPG,ISIC_1470245.JPG,false,0,keypress(z),500,414045.6999999881,414045.09999996424,411489.38,411493.39999997616,411506.046,414056.635,8,400,1,,ISIC_6829008.JPG
break,html.Screen,4_100_1,2023-09-16T19:18:42.015Z,,0,,,NaN,,,,,,false,,,,414047.09999996424,414046.7999999523,,414046,,414056.635,8,400,,,
break_continue,html.Screen,4_100_2,2023-09-16T19:18:42.016Z,,0,,,NaN,,,,,,false,,,,414047.5,414047.39999997616,,414047.2999999523,,414056.635,8,400,,,
sequence,flow.Sequence,4_100,2023-09-16T19:18:42.016Z,,0,,,2541.353999976185,completion,,,,,false,,,,414047.6999999881,414047.39999997616,411489.38,411493.2999999523,411506.046,414056.635,8,400,,,
trial,html.Screen,4_101_0,2023-09-16T19:18:45.109Z,,0,3,,3083.964999964228,response,ISIC_9538004.JPG,7,ISIC_1473511.JPG,ISIC_1473511.JPG,false,0,keypress(z),500,417141.09999996424,417140.59999996424,414039.969,414047.6999999881,414056.635,417156.511,8,400,2,,ISIC_9538004.JPG
break,html.Screen,4_101_1,2023-09-16T19:18:45.111Z,,0,,,NaN,,,,,,false,,,,417142.6999999881,417142.39999997616,,417141.5,,417156.511,8,400,,,
break_continue,html.Screen,4_101_2,2023-09-16T19:18:45.111Z,,0,,,NaN,,,,,,false,,,,417143.1999999881,417143,,417142.89999997616,,417156.511,8,400,,,
sequence,flow.Sequence,4_101,2023-09-16T19:18:45.112Z,,0,,,3086.3649999999907,completion,,,,,false,,,,417143.2999999523,417143,414039.969,414047.6999999881,414056.635,417156.511,8,400,,,
trial,html.Screen,4_102_0,2023-09-16T19:18:47.754Z,,0,3,,2628.6889999880805,response,ISIC_0058649.JPG,7,ISIC_4918571.JPG,ISIC_0058649.JPG,false,1,keypress(m),500,419785.7999999523,419785.1999999881,417139.845,417143.39999997616,417156.511,419789.739,8,400,3,,ISIC_4918571.JPG
break,html.Screen,4_102_1,2023-09-16T19:18:47.755Z,,0,,,NaN,,,,,,false,,,,419787.2999999523,419787,,419786.09999996424,,419789.739,8,400,,,
break_continue,html.Screen,4_102_2,2023-09-16T19:18:47.756Z,,0,,,NaN,,,,,,false,,,,419787.6999999881,419787.59999996424,,419787.39999997616,,419789.739,8,400,,,
sequence,flow.Sequence,4_102,2023-09-16T19:18:47.756Z,,0,,,2631.0889999642386,completion,,,,,false,,,,419787.89999997616,419787.59999996424,417139.845,417143.39999997616,417156.511,419789.739,8,400,,,
trial,html.Screen,4_103_0,2023-09-16T19:18:52.305Z,,0,3,,4546.360999964236,response,ISIC_5234605.JPG,8,ISIC_4280835.JPG,ISIC_4280835.JPG,false,0,keypress(z),500,424336.5,424336.09999996424,419773.073,419788,419789.739,424340.267,8,400,4,,ISIC_5234605.JPG
break,html.Screen,4_103_1,2023-09-16T19:18:52.306Z,,0,,,NaN,,,,,,false,,,,424337.89999997616,424337.59999996424,,424336.89999997616,,424340.267,8,400,,,
break_continue,html.Screen,4_103_2,2023-09-16T19:18:52.306Z,,0,,,NaN,,,,,,false,,,,424338.1999999881,424338.09999996424,,424338,,424340.267,8,400,,,
sequence,flow.Sequence,4_103,2023-09-16T19:18:52.306Z,,0,,,4548.360999964236,completion,,,,,false,,,,424338.39999997616,424338.09999996424,419773.073,419788,419789.739,424340.267,8,400,,,
trial,html.Screen,4_104_0,2023-09-16T19:18:54.805Z,,0,3,,2496.4329999880865,response,ISIC_0068407.JPG,7,ISIC_4197990.JPG,ISIC_4197990.JPG,false,0,keypress(z),500,426837.2999999523,426836.6999999881,424323.601,424338.5,424340.267,426840.167,8,400,5,,ISIC_0068407.JPG
break,html.Screen,4_104_1,2023-09-16T19:18:54.807Z,,0,,,NaN,,,,,,false,,,,426838.7999999523,426838.5,,426837.59999996424,,426840.167,8,400,,,
break_continue,html.Screen,4_104_2,2023-09-16T19:18:54.807Z,,0,,,NaN,,,,,,false,,,,426839.1999999881,426839.1999999881,,426839,,426840.167,8,400,,,
sequence,flow.Sequence,4_104,2023-09-16T19:18:54.807Z,,0,,,2498.9329999880865,completion,,,,,false,,,,426839.59999996424,426839.1999999881,424323.601,424338.5,424340.267,426840.167,8,400,,,
trial,html.Screen,4_105_0,2023-09-16T19:18:57.917Z,,0,3,,3108.6329999523005,response,ISIC_0033692.JPG,7,ISIC_0070860.JPG,ISIC_0033692.JPG,false,1,keypress(m),500,429949.1999999881,429948.7999999523,426823.501,426839.6999999881,426840.167,429956.709,8,400,6,,ISIC_0070860.JPG
break,html.Screen,4_105_1,2023-09-16T19:18:57.919Z,,0,,,NaN,,,,,,false,,,,429950.6999999881,429950.39999997616,,429949.59999996424,,429956.709,8,400,,,
break_continue,html.Screen,4_105_2,2023-09-16T19:18:57.919Z,,0,,,NaN,,,,,,false,,,,429951.1999999881,429951,,429950.7999999523,,429956.709,8,400,,,
sequence,flow.Sequence,4_105,2023-09-16T19:18:57.919Z,,0,,,3110.832999999984,completion,,,,,false,,,,429951.2999999523,429951,426823.501,426839.6999999881,426840.167,429956.709,8,400,,,
trial,html.Screen,4_106_0,2023-09-16T19:19:00.630Z,,0,3,,2705.090999952343,response,ISIC_7412559.JPG,6,ISIC_8855102.JPG,ISIC_8855102.JPG,false,0,keypress(z),500,432662.2999999523,432661.7999999523,429940.043,429951.5,429956.709,432673.267,8,400,7,,ISIC_7412559.JPG
break,html.Screen,4_106_1,2023-09-16T19:19:00.632Z,,0,,,NaN,,,,,,false,,,,432663.89999997616,432663.59999996424,,432662.59999996424,,432673.267,8,400,,,
break_continue,html.Screen,4_106_2,2023-09-16T19:19:00.632Z,,0,,,NaN,,,,,,false,,,,432664.2999999523,432664.2999999523,,432664,,432673.267,8,400,,,
sequence,flow.Sequence,4_106,2023-09-16T19:19:00.632Z,,0,,,2707.590999952343,completion,,,,,false,,,,432664.5,432664.2999999523,429940.043,429951.39999997616,429956.709,432673.267,8,400,,,
trial,html.Screen,4_107_0,2023-09-16T19:19:03.405Z,,0,3,,2764.0329999523237,response,ISIC_0030663.JPG,7,ISIC_0061941.JPG,ISIC_0030663.JPG,false,1,keypress(m),500,435437.6999999881,435437.2999999523,432656.601,432664.6999999881,432673.267,435440.473,8,400,8,,ISIC_0061941.JPG
break,html.Screen,4_107_1,2023-09-16T19:19:03.407Z,,0,,,NaN,,,,,,false,,,,435439.1999999881,435438.89999997616,,435438.09999996424,,435440.473,8,400,,,
break_continue,html.Screen,4_107_2,2023-09-16T19:19:03.407Z,,0,,,NaN,,,,,,false,,,,435439.6999999881,435439.59999996424,,435439.39999997616,,435440.473,8,400,,,
sequence,flow.Sequence,4_107,2023-09-16T19:19:03.408Z,,0,,,2766.3329999642447,completion,,,,,false,,,,435439.89999997616,435439.59999996424,432656.601,432664.59999996424,432673.267,435440.473,8,400,,,
trial,html.Screen,4_108_0,2023-09-16T19:19:05.909Z,,0,3,,2500.726999988081,response,ISIC_0031472.JPG,7,ISIC_3306135.JPG,ISIC_0031472.JPG,false,1,keypress(m),500,437941.6999999881,437941.1999999881,435423.807,435440.09999996424,435440.473,437957.039,8,400,9,,ISIC_3306135.JPG
break,html.Screen,4_108_1,2023-09-16T19:19:05.911Z,,0,,,NaN,,,,,,false,,,,437943.1999999881,437942.89999997616,,437942,,437957.039,8,400,,,
break_continue,html.Screen,4_108_2,2023-09-16T19:19:05.911Z,,0,,,NaN,,,,,,false,,,,437943.59999996424,437943.5,,437943.2999999523,,437957.039,8,400,,,
sequence,flow.Sequence,4_108,2023-09-16T19:19:05.913Z,,0,,,2503.027000000002,completion,,,,,false,,,,437945.1999999881,437943.5,435423.807,435440,435440.473,437957.039,8,400,,,
trial,html.Screen,4_109_0,2023-09-16T19:19:08.478Z,,0,3,,2552.5609999642475,response,ISIC_9944671.JPG,6,ISIC_9307584.JPG,ISIC_9307584.JPG,false,0,keypress(z),500,440510,440509.59999996424,437940.373,437945.2999999523,437957.039,440523.603,8,400,10,,ISIC_9944671.JPG
break,html.Screen,4_109_1,2023-09-16T19:19:08.479Z,,0,,,NaN,,,,,,false,,,,440511.5,440511.1999999881,,440510.39999997616,,440523.603,8,400,,,
break_continue,html.Screen,4_109_2,2023-09-16T19:19:08.480Z,,0,,,NaN,,,,,,false,,,,440512,440511.89999997616,,440511.59999996424,,440523.603,8,400,,,
sequence,flow.Sequence,4_109,2023-09-16T19:19:08.480Z,,0,,,2554.8609999761684,completion,,,,,false,,,,440512.09999996424,440511.89999997616,437940.373,437945.1999999881,437957.039,440523.603,8,400,,,
trial,html.Screen,4_110_0,2023-09-16T19:19:11.058Z,,0,3,,2566.4969999642344,response,ISIC_0801281.JPG,8,ISIC_0028878.JPG,ISIC_0028878.JPG,false,0,keypress(z),500,443090.09999996424,443090.09999996424,440506.937,440512.2999999523,440523.603,443106.833,8,400,11,,ISIC_0801281.JPG
break,html.Screen,4_110_1,2023-09-16T19:19:11.058Z,,0,,,NaN,,,,,,false,,,,443090.59999996424,443090.59999996424,,443090.1999999881,,443106.833,8,400,,,
break_continue,html.Screen,4_110_2,2023-09-16T19:19:11.058Z,,0,,,NaN,,,,,,false,,,,443090.7999999523,443090.7999999523,,443090.6999999881,,443106.833,8,400,,,
sequence,flow.Sequence,4_110,2023-09-16T19:19:11.058Z,,0,,,2567.1969999523135,completion,,,,,false,,,,443090.7999999523,443090.7999999523,440506.937,440512.2999999523,440523.603,443106.833,8,400,,,
trial,html.Screen,4_111_0,2023-09-16T19:19:13.638Z,,0,3,,2562.866999988095,response,ISIC_0028515.JPG,5,ISIC_3736075.JPG,ISIC_3736075.JPG,false,0,keypress(z),500,445670.1999999881,445669.6999999881,443090.167,443090.89999997616,443106.833,445674.068,8,400,12,,ISIC_0028515.JPG
break,html.Screen,4_111_1,2023-09-16T19:19:13.639Z,,0,,,NaN,,,,,,false,,,,445671.6999999881,445671.39999997616,,445670.59999996424,,445674.068,8,400,,,
break_continue,html.Screen,4_111_2,2023-09-16T19:19:13.640Z,,0,,,NaN,,,,,,false,,,,445672.1999999881,445672.09999996424,,445671.7999999523,,445674.068,8,400,,,
sequence,flow.Sequence,4_111,2023-09-16T19:19:13.640Z,,0,,,2565.266999964253,completion,,,,,false,,,,445672.39999997616,445672.09999996424,443090.167,443090.7999999523,443106.833,445674.068,8,400,,,
trial,html.Screen,4_112_0,2023-09-16T19:19:16.391Z,,0,3,,2748.8319999761297,response,ISIC_9667908.JPG,8,ISIC_0011810.JPG,ISIC_9667908.JPG,false,1,keypress(m),500,448423.5,448422.89999997616,445657.402,445672.5,445674.068,448440.624,8,400,13,,ISIC_0011810.JPG
break,html.Screen,4_112_1,2023-09-16T19:19:16.392Z,,0,,,NaN,,,,,,false,,,,448424.89999997616,448424.6999999881,,448423.6999999881,,448440.624,8,400,,,
break_continue,html.Screen,4_112_2,2023-09-16T19:19:16.393Z,,0,,,NaN,,,,,,false,,,,448425.39999997616,448425.1999999881,,448425.09999996424,,448440.624,8,400,,,
sequence,flow.Sequence,4_112,2023-09-16T19:19:16.393Z,,0,,,2751.1319999880507,completion,,,,,false,,,,448425.5,448425.1999999881,445657.402,445672.5,445674.068,448440.624,8,400,,,
trial,html.Screen,4_113_0,2023-09-16T19:19:19.038Z,,0,3,,2629.7759999761474,response,ISIC_0064761.JPG,6,ISIC_6124481.JPG,ISIC_0064761.JPG,false,1,keypress(m),500,451070.7999999523,451070.39999997616,448423.958,448425.7999999523,448440.624,451073.852,8,400,14,,ISIC_6124481.JPG
break,html.Screen,4_113_1,2023-09-16T19:19:19.040Z,,0,,,NaN,,,,,,false,,,,451072.2999999523,451072,,451071.09999996424,,451073.852,8,400,,,
break_continue,html.Screen,4_113_2,2023-09-16T19:19:19.040Z,,0,,,NaN,,,,,,false,,,,451072.6999999881,451072.59999996424,,451072.39999997616,,451073.852,8,400,,,
sequence,flow.Sequence,4_113,2023-09-16T19:19:19.040Z,,0,,,2631.9759999642265,completion,,,,,false,,,,451073,451072.59999996424,448423.958,448425.6999999881,448440.624,451073.852,8,400,,,
trial,html.Screen,4_114_0,2023-09-16T19:19:22.022Z,,0,3,,2980.8479999880656,response,ISIC_0028998.JPG,8,ISIC_0031709.JPG,ISIC_0031709.JPG,false,0,keypress(z),500,454055.1999999881,454054.6999999881,451057.186,451073,451073.852,454057.066,8,400,15,,ISIC_0028998.JPG
break,html.Screen,4_114_1,2023-09-16T19:19:22.024Z,,0,,,NaN,,,,,,false,,,,454056.6999999881,454056.39999997616,,454055.39999997616,,454057.066,8,400,,,
break_continue,html.Screen,4_114_2,2023-09-16T19:19:22.024Z,,0,,,NaN,,,,,,false,,,,454057.09999996424,454057,,454056.7999999523,,454057.066,8,400,,,
sequence,flow.Sequence,4_114,2023-09-16T19:19:22.025Z,,0,,,2983.1479999999865,completion,,,,,false,,,,454057.2999999523,454057,451057.186,451073,451073.852,454057.066,8,400,,,
trial,html.Screen,4_115_0,2023-09-16T19:19:24.654Z,,0,3,,2629.6339999880875,response,ISIC_0032248.JPG,6,ISIC_3816833.JPG,ISIC_3816833.JPG,false,0,keypress(z),500,456687.1999999881,456686.6999999881,454040.4,454057.39999997616,454057.066,456690.935,8,400,16,,ISIC_0032248.JPG
break,html.Screen,4_115_1,2023-09-16T19:19:24.656Z,,0,,,NaN,,,,,,false,,,,456688.6999999881,456688.2999999523,,456687.5,,456690.935,8,400,,,
break_continue,html.Screen,4_115_2,2023-09-16T19:19:24.656Z,,0,,,NaN,,,,,,false,,,,456689.09999996424,456689,,456688.7999999523,,456690.935,8,400,,,
sequence,flow.Sequence,4_115,2023-09-16T19:19:24.656Z,,0,,,2631.9340000000084,completion,,,,,false,,,,456689.2999999523,456689,454040.4,454057.39999997616,454057.066,456690.935,8,400,,,
trial,html.Screen,4_116_0,2023-09-16T19:19:27.619Z,,0,3,,2960.9649999761605,response,ISIC_6714923.JPG,7,ISIC_2268341.JPG,ISIC_6714923.JPG,false,1,keypress(m),500,459652.39999997616,459651.89999997616,456674.269,456689.39999997616,456690.935,459657.483,8,400,17,,ISIC_2268341.JPG
break,html.Screen,4_116_1,2023-09-16T19:19:27.621Z,,0,,,NaN,,,,,,false,,,,459653.89999997616,459653.59999996424,,459652.6999999881,,459657.483,8,400,,,
break_continue,html.Screen,4_116_2,2023-09-16T19:19:27.621Z,,0,,,NaN,,,,,,false,,,,459654.2999999523,459654.1999999881,,459654,,459657.483,8,400,,,
sequence,flow.Sequence,4_116,2023-09-16T19:19:27.622Z,,0,,,2963.2649999880814,completion,,,,,false,,,,459654.5,459654.1999999881,456674.269,456689.39999997616,456690.935,459657.483,8,400,,,
trial,html.Screen,4_117_0,2023-09-16T19:19:30.252Z,,0,3,,2627.5169999999925,response,ISIC_0024911.JPG,6,ISIC_7492530.JPG,ISIC_7492530.JPG,false,0,keypress(z),500,462285.5,462285,459640.817,459654.6999999881,459657.483,462290.711,8,400,18,,ISIC_0024911.JPG
break,html.Screen,4_117_1,2023-09-16T19:19:30.254Z,,0,,,NaN,,,,,,false,,,,462287,462286.6999999881,,462285.7999999523,,462290.711,8,400,,,
break_continue,html.Screen,4_117_2,2023-09-16T19:19:30.254Z,,0,,,NaN,,,,,,false,,,,462287.39999997616,462287.2999999523,,462287.1999999881,,462290.711,8,400,,,
sequence,flow.Sequence,4_117,2023-09-16T19:19:30.255Z,,0,,,2629.816999952309,completion,,,,,false,,,,462287.5,462287.2999999523,459640.817,459654.59999996424,459657.483,462290.711,8,400,,,
trial,html.Screen,4_118_0,2023-09-16T19:19:32.964Z,,0,3,,2706.088999952306,response,ISIC_4949672.JPG,9,ISIC_0066033.JPG,ISIC_4949672.JPG,false,1,keypress(m),500,464997.2999999523,464996.7999999523,462274.045,462287.59999996424,462290.711,465007.269,8,400,19,,ISIC_0066033.JPG
break,html.Screen,4_118_1,2023-09-16T19:19:32.966Z,,0,,,NaN,,,,,,false,,,,464998.7999999523,464998.5,,464997.6999999881,,465007.269,8,400,,,
break_continue,html.Screen,4_118_2,2023-09-16T19:19:32.966Z,,0,,,NaN,,,,,,false,,,,464999.2999999523,464999.09999996424,,464999,,465007.269,8,400,,,
sequence,flow.Sequence,4_118,2023-09-16T19:19:32.966Z,,0,,,2708.388999964227,completion,,,,,false,,,,464999.39999997616,464999.09999996424,462274.045,462287.59999996424,462290.711,465007.269,8,400,,,
trial,html.Screen,4_119_0,2023-09-16T19:19:35.543Z,,0,3,,2568.930999988108,response,ISIC_5410481.JPG,8,ISIC_3914140.JPG,ISIC_3914140.JPG,false,0,keypress(z),500,467576.39999997616,467576.1999999881,464990.603,464999.59999996424,465007.269,467591.265,8,400,20,,ISIC_5410481.JPG
break,html.Screen,4_119_1,2023-09-16T19:19:35.544Z,,0,,,NaN,,,,,,false,,,,467576.89999997616,467576.7999999523,,467576.39999997616,,467591.265,8,400,,,
break_continue,html.Screen,4_119_2,2023-09-16T19:19:35.544Z,,0,,,NaN,,,,,,false,,,,467577.09999996424,467577.09999996424,,467576.89999997616,,467591.265,8,400,,,
sequence,flow.Sequence,4_119,2023-09-16T19:19:35.544Z,,0,,,2569.830999964266,completion,,,,,false,,,,467577.1999999881,467577.09999996424,464990.603,464999.59999996424,465007.269,467591.265,8,400,,,
trial,html.Screen,4_120_0,2023-09-16T19:19:38.489Z,,0,3,,2930.934999988065,response,ISIC_0027964.JPG,7,ISIC_1888865.JPG,ISIC_1888865.JPG,false,0,keypress(z),500,470522.6999999881,470522.1999999881,467574.599,467577.2999999523,467591.265,470524.481,8,400,21,,ISIC_0027964.JPG
break,html.Screen,4_120_1,2023-09-16T19:19:38.491Z,,0,,,NaN,,,,,,false,,,,470524.09999996424,470523.7999999523,,470523,,470524.481,8,400,,,
break_continue,html.Screen,4_120_2,2023-09-16T19:19:38.491Z,,0,,,NaN,,,,,,false,,,,470524.6999999881,470524.5,,470524.1999999881,,470524.481,8,400,,,
sequence,flow.Sequence,4_120,2023-09-16T19:19:38.492Z,,0,,,2933.234999999986,completion,,,,,false,,,,470524.6999999881,470524.5,467574.599,467577.2999999523,467591.265,470524.481,8,400,,,
trial,html.Screen,4_121_0,2023-09-16T19:19:41.494Z,,0,3,,3002.518999999971,response,ISIC_0027817.JPG,8,ISIC_4523565.JPG,ISIC_0027817.JPG,false,1,keypress(m),500,473527.59999996424,473527,470507.815,470524.7999999523,470524.481,473541.027,8,400,22,,ISIC_4523565.JPG
break,html.Screen,4_121_1,2023-09-16T19:19:41.496Z,,0,,,NaN,,,,,,false,,,,473529.09999996424,473528.6999999881,,473527.89999997616,,473541.027,8,400,,,
break_continue,html.Screen,4_121_2,2023-09-16T19:19:41.496Z,,0,,,NaN,,,,,,false,,,,473529.5,473529.2999999523,,473529.1999999881,,473541.027,8,400,,,
sequence,flow.Sequence,4_121,2023-09-16T19:19:41.496Z,,0,,,3004.8189999522874,completion,,,,,false,,,,473529.59999996424,473529.2999999523,470507.815,470524.7999999523,470524.481,473541.027,8,400,,,
trial,html.Screen,4_122_0,2023-09-16T19:19:44.254Z,,0,3,,2746.0729999642354,response,ISIC_0065727.JPG,6,ISIC_6704623.JPG,ISIC_6704623.JPG,false,0,keypress(z),500,476287.59999996424,476287.09999996424,473524.361,473529.6999999881,473541.027,476290.917,8,400,23,,ISIC_0065727.JPG
break,html.Screen,4_122_1,2023-09-16T19:19:44.256Z,,0,,,NaN,,,,,,false,,,,476289.09999996424,476288.89999997616,,476288,,476290.917,8,400,,,
break_continue,html.Screen,4_122_2,2023-09-16T19:19:44.256Z,,0,,,NaN,,,,,,false,,,,476289.6999999881,476289.5,,476289.2999999523,,476290.917,8,400,,,
sequence,flow.Sequence,4_122,2023-09-16T19:19:44.256Z,,0,,,2748.472999999998,completion,,,,,false,,,,476289.7999999523,476289.5,473524.361,473529.6999999881,473541.027,476290.917,8,400,,,
trial,html.Screen,4_123_0,2023-09-16T19:19:47.123Z,,0,3,,2864.6829999642214,response,ISIC_6553579.JPG,6,ISIC_0000186.JPG,ISIC_6553579.JPG,false,1,keypress(m),500,479156,479155.59999996424,476274.251,476290,476290.917,479158.097,8,400,24,,ISIC_0000186.JPG
break,html.Screen,4_123_1,2023-09-16T19:19:47.124Z,,0,,,NaN,,,,,,false,,,,479157.59999996424,479157.2999999523,,479156.2999999523,,479158.097,8,400,,,
break_continue,html.Screen,4_123_2,2023-09-16T19:19:47.125Z,,0,,,NaN,,,,,,false,,,,479158.09999996424,479157.89999997616,,479157.6999999881,,479158.097,8,400,,,
sequence,flow.Sequence,4_123,2023-09-16T19:19:47.125Z,,0,,,2866.9829999761423,completion,,,,,false,,,,479158.1999999881,479157.89999997616,476274.251,476289.89999997616,476290.917,479158.097,8,400,,,
trial,html.Screen,4_124_0,2023-09-16T19:19:50.684Z,,0,3,,3559.0029999642284,response,ISIC_4153542.JPG,8,ISIC_9544059.JPG,ISIC_4153542.JPG,false,1,keypress(m),500,482717.59999996424,482717.09999996424,479141.431,479158.39999997616,479158.097,482724.621,8,400,25,,ISIC_9544059.JPG
break,html.Screen,4_124_1,2023-09-16T19:19:50.686Z,,0,,,NaN,,,,,,false,,,,482719.09999996424,482718.7999999523,,482717.89999997616,,482724.621,8,400,,,
break_continue,html.Screen,4_124_2,2023-09-16T19:19:50.686Z,,0,,,NaN,,,,,,false,,,,482719.5,482719.39999997616,,482719.2999999523,,482724.621,8,400,,,
sequence,flow.Sequence,4_124,2023-09-16T19:19:50.686Z,,0,,,3561.3029999761493,completion,,,,,false,,,,482719.6999999881,482719.39999997616,479141.431,479158.2999999523,479158.097,482724.621,8,400,,,
trial,html.Screen,4_125_0,2023-09-16T19:19:53.267Z,,0,3,,2575.4789999642526,response,ISIC_9445196.JPG,7,ISIC_0067467.JPG,ISIC_9445196.JPG,false,1,keypress(m),500,485300.2999999523,485300.09999996424,482707.955,482719.7999999523,482724.621,485307.851,8,400,26,,ISIC_0067467.JPG
break,html.Screen,4_125_1,2023-09-16T19:19:53.267Z,,0,,,NaN,,,,,,false,,,,485301,485300.89999997616,,485300.5,,485307.851,8,400,,,
