sender,sender_type,sender_id,timestamp,meta,,blockNo,condition,duration,ended_on,img_left,img_reveal,img_right,loser,practice,response,response_action,selection_duration,time_commit,time_end,time_render,time_run,time_show,time_switch,total_blocks,total_trials,trialNo,url,winner
informed_consent,html.Screen,0,2023-09-11T17:58:41.326Z,"{""labjs_version"":""20.2.4"",""labjs_build"":{""flavor"":""production"",""commit"":""f5b4a49f956347addd546a832a3327688c2c0fef""},""location"":""https://run.pavlovia.org/MurrayBennett/melanoma-2afc/?participant=67707&platform=sona"",""userAgent"":""Mozilla/5.0 (X11; CrOS x86_64 14541.0.0) AppleWebKit/537.36 (KHTML, like Gecko) Chrome/116.0.0.0 Safari/537.36"",""platform"":""Linux x86_64"",""language"":""en-US"",""locale"":""en-US"",""timeZone"":""America/Chicago"",""timezoneOffset"":300,""screen_width"":1396,""screen_height"":785,""scroll_width"":1397,""scroll_height"":614,""window_innerWidth"":1397,""window_innerHeight"":662,""devicePixelRatio"":1.3753582239151}",,,,7130.473000000012,response,,,,,,consent,click button,,9993.599999999977,9989.700000000012,2842.57,2844,2859.227,10026.344,,,,"{""participant"":""67707"",""platform"":""sona""}",
Welcome,html.Screen,1,2023-09-11T17:59:06.348Z,,,,regular,24982.855999999956,response,,,,,,continue,click button,,35016,35009.19999999995,9976.373,9994.299999999988,10026.344,35016.887,,,,,
trial,html.Screen,2_0_0,2023-09-11T17:59:17.843Z,,0,0,,11524.572,timeout,ISIC_4679428.JPG,,ISIC_0061792.JPG,,true,,,500,46510.30000000005,46509.59999999998,35000.23,35017,35016.887,46541.459,1,6,1,,
sequence,flow.Sequence,2_0,2023-09-11T17:59:17.844Z,,0,,,11492.712999999974,completion,,,,,true,,,,46511.40000000002,46509.59999999998,35000.23,35016.80000000005,35016.887,46541.459,1,6,,,
trial,html.Screen,2_1_0,2023-09-11T17:59:29.356Z,,0,0,,11514.399999999994,timeout,ISIC_5199497.JPG,,ISIC_0776486.JPG,,true,,,500,58023.90000000002,58023.59999999998,46524.802,46511.69999999995,46541.459,58055.859,1,6,2,,
sequence,flow.Sequence,2_1,2023-09-11T17:59:29.357Z,,0,,,11482.140999999974,completion,,,,,true,,,,58024.40000000002,58023.59999999998,46524.802,46511.59999999998,46541.459,58055.859,1,6,,,
trial,html.Screen,2_2_0,2023-09-11T17:59:37.049Z,,0,0,,7660.0410000000265,response,ISIC_2556187.JPG,,ISIC_8575776.JPG,ISIC_2556187.JPG,true,1,keypress(m),500,65716.40000000002,65715.90000000002,58039.202,58024.69999999995,58055.859,65728.813,1,6,3,,ISIC_8575776.JPG
sequence,flow.Sequence,2_2,2023-09-11T17:59:37.050Z,,0,,,7660.0410000000265,completion,,,,,true,,,,65717.09999999998,65715.90000000002,58039.202,58024.59999999998,58055.859,65728.813,1,6,,,
trial,html.Screen,2_3_0,2023-09-11T17:59:42.494Z,,0,0,,5432.087000000029,response,ISIC_9238366.JPG,,ISIC_8141769.JPG,ISIC_9238366.JPG,true,1,keypress(m),500,71161.40000000002,71160.90000000002,65712.156,65717.5,65728.813,71171.04,1,6,4,,ISIC_8141769.JPG
sequence,flow.Sequence,2_3,2023-09-11T17:59:42.495Z,,0,,,5432.087000000029,completion,,,,,true,,,,71162.19999999995,71160.90000000002,65712.156,65717.40000000002,65728.813,71171.04,1,6,,,
trial,html.Screen,2_4_0,2023-09-11T17:59:47.336Z,,0,0,,4831.86000000003,response,ISIC_9959593.JPG,,ISIC_8949026.JPG,ISIC_9959593.JPG,true,1,keypress(m),500,76003.40000000002,76002.90000000002,71154.383,71162.69999999995,71171.04,76013.781,1,6,5,,ISIC_8949026.JPG
sequence,flow.Sequence,2_4,2023-09-11T17:59:47.336Z,,0,,,4831.86000000003,completion,,,,,true,,,,76004,76002.90000000002,71154.383,71162.5,71171.04,76013.781,1,6,,,
trial,html.Screen,2_5_0,2023-09-11T17:59:52.672Z,,0,0,,5325.119000000021,response,ISIC_0010479.JPG,,ISIC_0460240.JPG,ISIC_0010479.JPG,true,1,keypress(m),500,81339.40000000002,81338.90000000002,75997.124,76004.30000000005,76013.781,81352.231,1,6,6,,ISIC_0460240.JPG
sequence,flow.Sequence,2_5,2023-09-11T17:59:52.673Z,,0,,,5325.119000000021,completion,,,,,true,,,,81340,81338.90000000002,75997.124,76004.19999999995,76013.781,81352.231,1,6,,,
loop,flow.Loop,2,2023-09-11T17:59:52.673Z,,,,,46322.01300000002,completion,,,,,true,,,,81340.59999999998,81338.90000000002,35000.23,35016.69999999995,35016.887,81352.231,1,6,,,
exp_instructions,html.Screen,3,2023-09-11T18:00:03.957Z,,,,,11268.269,response,,,,,,continue,keypress(Space),,92624.19999999995,92620.5,81335.574,81340.80000000005,81352.231,92639.473,,,,,
trial,html.Screen,4_0_0,2023-09-11T18:00:09.712Z,,0,1,,5739.527000000002,response,ISIC_7016261.JPG,4,ISIC_4762702.JPG,ISIC_7016261.JPG,false,1,keypress(m),500,98379.40000000002,98379,92622.816,92624.69999999995,92639.473,98395.279,8,400,1,,ISIC_4762702.JPG
break,html.Screen,4_0_1,2023-09-11T18:00:09.715Z,,0,,,NaN,,,,,,false,,,,98382.09999999998,98381.5,,98379.90000000002,,98395.279,8,400,,,
break_continue,html.Screen,4_0_2,2023-09-11T18:00:09.716Z,,0,,,NaN,,,,,,false,,,,98383.30000000005,98383.09999999998,,98382.5,,98395.279,8,400,,,
sequence,flow.Sequence,4_0,2023-09-11T18:00:09.716Z,,0,,,5743.626999999979,completion,,,,,false,,,,98383.80000000005,98383.09999999998,92622.816,92624.59999999998,92639.473,98395.279,8,400,,,
trial,html.Screen,4_1_0,2023-09-11T18:00:16.759Z,,0,1,,7031.320999999982,response,ISIC_0057188.JPG,6,ISIC_0024688.JPG,ISIC_0057188.JPG,false,1,keypress(m),500,105426.90000000002,105426.59999999998,98378.622,98384,98395.279,105437.154,8,400,2,,ISIC_0024688.JPG
break,html.Screen,4_1_1,2023-09-11T18:00:16.760Z,,0,,,NaN,,,,,,false,,,,105427.69999999995,105427.5,,105427,,105437.154,8,400,,,
break_continue,html.Screen,4_1_2,2023-09-11T18:00:16.761Z,,0,,,NaN,,,,,,false,,,,105428.09999999998,105428,,105427.80000000005,,105437.154,8,400,,,
sequence,flow.Sequence,4_1,2023-09-11T18:00:16.761Z,,0,,,7032.721000000005,completion,,,,,false,,,,105428.19999999995,105428,98378.622,98383.90000000002,98395.279,105437.154,8,400,,,
trial,html.Screen,4_2_0,2023-09-11T18:00:20.424Z,,0,1,,3653.7460000000283,response,ISIC_5485661.JPG,5,ISIC_0059840.JPG,ISIC_0059840.JPG,false,0,keypress(z),500,109091.19999999995,109090.90000000002,105420.497,105428.30000000005,105437.154,109096.834,8,400,3,,ISIC_5485661.JPG
break,html.Screen,4_2_1,2023-09-11T18:00:20.426Z,,0,,,NaN,,,,,,false,,,,109093.19999999995,109092.69999999995,,109091.5,,109096.834,8,400,,,
break_continue,html.Screen,4_2_2,2023-09-11T18:00:20.426Z,,0,,,NaN,,,,,,false,,,,109094,109093.80000000005,,109093.5,,109096.834,8,400,,,
sequence,flow.Sequence,4_2,2023-09-11T18:00:20.427Z,,0,,,3656.6460000000516,completion,,,,,false,,,,109094.30000000005,109093.80000000005,105420.497,105428.30000000005,105437.154,109096.834,8,400,,,
trial,html.Screen,4_3_0,2023-09-11T18:00:25.136Z,,0,1,,4705.966000000044,response,ISIC_0033977.JPG,6,ISIC_0024401.JPG,ISIC_0033977.JPG,false,1,keypress(m),500,113803.40000000002,113802.80000000005,109080.177,109094.5,109096.834,113817.441,8,400,4,,ISIC_0024401.JPG
break,html.Screen,4_3_1,2023-09-11T18:00:25.138Z,,0,,,NaN,,,,,,false,,,,113805.5,113804.90000000002,,113803.69999999995,,113817.441,8,400,,,
break_continue,html.Screen,4_3_2,2023-09-11T18:00:25.139Z,,0,,,NaN,,,,,,false,,,,113806.30000000005,113806.09999999998,,113805.69999999995,,113817.441,8,400,,,
sequence,flow.Sequence,4_3,2023-09-11T18:00:25.139Z,,0,,,4709.265999999974,completion,,,,,false,,,,113806.59999999998,113806.09999999998,109080.177,109094.5,109096.834,113817.441,8,400,,,
trial,html.Screen,4_4_0,2023-09-11T18:00:28.725Z,,0,1,,3575.058999999994,response,ISIC_7306535.JPG,6,ISIC_2173158.JPG,ISIC_7306535.JPG,false,1,keypress(m),500,117392.90000000002,117392.5,113800.784,113806.80000000005,113817.441,117403.242,8,400,5,,ISIC_2173158.JPG
break,html.Screen,4_4_1,2023-09-11T18:00:28.728Z,,0,,,NaN,,,,,,false,,,,117395.09999999998,117394.69999999995,,117393.19999999995,,117403.242,8,400,,,
break_continue,html.Screen,4_4_2,2023-09-11T18:00:28.728Z,,0,,,NaN,,,,,,false,,,,117396,117395.90000000002,,117395.40000000002,,117403.242,8,400,,,
sequence,flow.Sequence,4_4,2023-09-11T18:00:28.729Z,,0,,,3578.459000000017,completion,,,,,false,,,,117396.09999999998,117395.90000000002,113800.784,113806.80000000005,113817.441,117403.242,8,400,,,
trial,html.Screen,4_5_0,2023-09-11T18:00:32.625Z,,0,1,,3888.3579999999783,response,ISIC_0000030.JPG,6,ISIC_7127760.JPG,ISIC_0000030.JPG,false,1,keypress(m),500,121292.69999999995,121291.59999999998,117386.585,117396.19999999995,117403.242,121303.035,8,400,6,,ISIC_7127760.JPG
break,html.Screen,4_5_1,2023-09-11T18:00:32.629Z,,0,,,NaN,,,,,,false,,,,121296.30000000005,121296,,121293.59999999998,,121303.035,8,400,,,
break_continue,html.Screen,4_5_2,2023-09-11T18:00:32.629Z,,0,,,NaN,,,,,,false,,,,121296.80000000005,121296.69999999995,,121296.40000000002,,121303.035,8,400,,,
sequence,flow.Sequence,4_5,2023-09-11T18:00:32.629Z,,0,,,3893.457999999955,completion,,,,,false,,,,121297,121296.69999999995,117386.585,117396.19999999995,117403.242,121303.035,8,400,,,
trial,html.Screen,4_6_0,2023-09-11T18:00:36.615Z,,0,1,,3979.564999999973,response,ISIC_0070308.JPG,6,ISIC_0069351.JPG,ISIC_0069351.JPG,false,0,keypress(z),500,125283,125282.59999999998,121286.378,121297,121303.035,125290.357,8,400,7,,ISIC_0070308.JPG
break,html.Screen,4_6_1,2023-09-11T18:00:36.618Z,,0,,,NaN,,,,,,false,,,,125285.30000000005,125284.69999999995,,125283.30000000005,,125290.357,8,400,,,
break_continue,html.Screen,4_6_2,2023-09-11T18:00:36.619Z,,0,,,NaN,,,,,,false,,,,125286.19999999995,125286,,125285.5,,125290.357,8,400,,,
sequence,flow.Sequence,4_6,2023-09-11T18:00:36.619Z,,0,,,3982.9649999999965,completion,,,,,false,,,,125286.5,125286,121286.378,121297,121303.035,125290.357,8,400,,,
trial,html.Screen,4_7_0,2023-09-11T18:00:43.241Z,,0,1,,6617.54300000002,response,ISIC_6118824.JPG,5,ISIC_4864523.JPG,ISIC_4864523.JPG,false,0,keypress(z),500,131908.19999999995,131907.90000000002,125273.7,125286.80000000005,125290.357,131911.021,8,400,8,,ISIC_6118824.JPG
break,html.Screen,4_7_1,2023-09-11T18:00:43.243Z,,0,,,NaN,,,,,,false,,,,131910.59999999998,131910.09999999998,,131908.59999999998,,131911.021,8,400,,,
break_continue,html.Screen,4_7_2,2023-09-11T18:00:43.244Z,,0,,,NaN,,,,,,false,,,,131911.59999999998,131911.30000000005,,131910.80000000005,,131911.021,8,400,,,
sequence,flow.Sequence,4_7,2023-09-11T18:00:43.244Z,,0,,,6620.943000000043,completion,,,,,false,,,,131911.90000000002,131911.30000000005,125273.7,125286.59999999998,125290.357,131911.021,8,400,,,
trial,html.Screen,4_8_0,2023-09-11T18:00:48.585Z,,0,1,,5340.779000000039,response,ISIC_4224064.JPG,5,ISIC_0029626.JPG,ISIC_0029626.JPG,false,0,keypress(z),500,137252.30000000005,137251.80000000005,131894.364,131912.09999999998,131911.021,137257.601,8,400,9,,ISIC_4224064.JPG
break,html.Screen,4_8_1,2023-09-11T18:00:48.588Z,,0,,,NaN,,,,,,false,,,,137255.30000000005,137253.80000000005,,137252.80000000005,,137257.601,8,400,,,
break_continue,html.Screen,4_8_2,2023-09-11T18:00:48.588Z,,0,,,NaN,,,,,,false,,,,137255.69999999995,137255.59999999998,,137255.40000000002,,137257.601,8,400,,,
sequence,flow.Sequence,4_8,2023-09-11T18:00:48.588Z,,0,,,5344.578999999969,completion,,,,,false,,,,137255.80000000005,137255.59999999998,131894.364,131912.09999999998,131911.021,137257.601,8,400,,,
trial,html.Screen,4_9_0,2023-09-11T18:00:52.446Z,,0,1,,3855.4989999999816,response,ISIC_0012049.JPG,5,ISIC_0062559.JPG,ISIC_0012049.JPG,false,1,keypress(m),500,141113.5,141113.09999999998,137240.944,137256,137257.601,141122.812,8,400,10,,ISIC_0062559.JPG
break,html.Screen,4_9_1,2023-09-11T18:00:52.448Z,,0,,,NaN,,,,,,false,,,,141115.80000000005,141115,,141113.90000000002,,141122.812,8,400,,,
break_continue,html.Screen,4_9_2,2023-09-11T18:00:52.449Z,,0,,,NaN,,,,,,false,,,,141116.80000000005,141116.59999999998,,141116.09999999998,,141122.812,8,400,,,
sequence,flow.Sequence,4_9,2023-09-11T18:00:52.449Z,,0,,,3858.9989999999816,completion,,,,,false,,,,141117,141116.59999999998,137240.944,137255.90000000002,137257.601,141122.812,8,400,,,
trial,html.Screen,4_10_0,2023-09-11T18:00:55.875Z,,0,1,,3419.588000000018,response,ISIC_7830756.JPG,5,ISIC_6131393.JPG,ISIC_6131393.JPG,false,0,keypress(z),500,144542.69999999995,144542.40000000002,141106.155,141117.09999999998,141122.812,144547.325,8,400,11,,ISIC_7830756.JPG
break,html.Screen,4_10_1,2023-09-11T18:00:55.877Z,,0,,,NaN,,,,,,false,,,,144544.5,144544,,144543,,144547.325,8,400,,,
break_continue,html.Screen,4_10_2,2023-09-11T18:00:55.878Z,,0,,,NaN,,,,,,false,,,,144545.40000000002,144545.19999999995,,144544.69999999995,,144547.325,8,400,,,
sequence,flow.Sequence,4_10,2023-09-11T18:00:55.878Z,,0,,,3422.387999999948,completion,,,,,false,,,,144545.69999999995,144545.19999999995,141106.155,141117.09999999998,141122.812,144547.325,8,400,,,
trial,html.Screen,4_11_0,2023-09-11T18:00:59.776Z,,0,1,,3895.5750000000116,response,ISIC_6640227.JPG,5,ISIC_3961647.JPG,ISIC_6640227.JPG,false,1,keypress(m),500,148443.19999999995,148442.90000000002,144530.668,144546,144547.325,148451.873,8,400,12,,ISIC_3961647.JPG
break,html.Screen,4_11_1,2023-09-11T18:00:59.778Z,,0,,,NaN,,,,,,false,,,,148445.09999999998,148444.69999999995,,148443.59999999998,,148451.873,8,400,,,
break_continue,html.Screen,4_11_2,2023-09-11T18:00:59.779Z,,0,,,NaN,,,,,,false,,,,148446.09999999998,148445.80000000005,,148445.40000000002,,148451.873,8,400,,,
sequence,flow.Sequence,4_11,2023-09-11T18:00:59.779Z,,0,,,3898.475000000035,completion,,,,,false,,,,148446.40000000002,148445.80000000005,144530.668,144545.90000000002,144547.325,148451.873,8,400,,,
trial,html.Screen,4_12_0,2023-09-11T18:01:03.712Z,,0,1,,3927.027000000031,response,ISIC_0001105.JPG,4,ISIC_7914631.JPG,ISIC_7914631.JPG,false,0,keypress(z),500,152379.30000000005,152378.90000000002,148435.216,148446.69999999995,148451.873,152389.127,8,400,13,,ISIC_0001105.JPG
break,html.Screen,4_12_1,2023-09-11T18:01:03.714Z,,0,,,NaN,,,,,,false,,,,152381.30000000005,152380.80000000005,,152379.69999999995,,152389.127,8,400,,,
break_continue,html.Screen,4_12_2,2023-09-11T18:01:03.715Z,,0,,,NaN,,,,,,false,,,,152382.09999999998,152382,,152381.59999999998,,152389.127,8,400,,,
sequence,flow.Sequence,4_12,2023-09-11T18:01:03.715Z,,0,,,3930.1270000000077,completion,,,,,false,,,,152382.40000000002,152382,148435.216,148446.59999999998,148451.873,152389.127,8,400,,,
trial,html.Screen,4_13_0,2023-09-11T18:01:11.637Z,,0,1,,7914.673000000039,response,ISIC_8738598.JPG,5,ISIC_0031717.JPG,ISIC_0031717.JPG,false,0,keypress(z),500,160304.09999999998,160303.80000000005,152372.47,152382.59999999998,152389.127,160307.258,8,400,14,,ISIC_8738598.JPG
break,html.Screen,4_13_1,2023-09-11T18:01:11.639Z,,0,,,NaN,,,,,,false,,,,160306.19999999995,160305.80000000005,,160304.5,,160307.258,8,400,,,
break_continue,html.Screen,4_13_2,2023-09-11T18:01:11.640Z,,0,,,NaN,,,,,,false,,,,160307,160306.90000000002,,160306.40000000002,,160307.258,8,400,,,
sequence,flow.Sequence,4_13,2023-09-11T18:01:11.640Z,,0,,,7917.773000000016,completion,,,,,false,,,,160307.40000000002,160306.90000000002,152372.47,152382.59999999998,152389.127,160307.258,8,400,,,
trial,html.Screen,4_14_0,2023-09-11T18:01:15.080Z,,0,1,,3439.7419999999984,response,ISIC_6806124.JPG,5,ISIC_4918571.JPG,ISIC_6806124.JPG,false,1,keypress(m),500,163747.30000000005,163747,160290.601,160307.69999999995,160307.258,163755.56,8,400,15,,ISIC_4918571.JPG
break,html.Screen,4_14_1,2023-09-11T18:01:15.082Z,,0,,,NaN,,,,,,false,,,,163749.09999999998,163748.69999999995,,163747.59999999998,,163755.56,8,400,,,
break_continue,html.Screen,4_14_2,2023-09-11T18:01:15.082Z,,0,,,NaN,,,,,,false,,,,163750,163749.80000000005,,163749.30000000005,,163755.56,8,400,,,
sequence,flow.Sequence,4_14,2023-09-11T18:01:15.083Z,,0,,,3442.542000000045,completion,,,,,false,,,,163750.30000000005,163749.80000000005,160290.601,160307.69999999995,160307.258,163755.56,8,400,,,
trial,html.Screen,4_15_0,2023-09-11T18:01:18.601Z,,0,1,,3512.3400000000256,response,ISIC_0027378.JPG,6,ISIC_0009871.JPG,ISIC_0027378.JPG,false,1,keypress(m),500,167268.19999999995,167267.90000000002,163738.903,163750.30000000005,163755.56,167274.272,8,400,16,,ISIC_0009871.JPG
break,html.Screen,4_15_1,2023-09-11T18:01:18.603Z,,0,,,NaN,,,,,,false,,,,167270.30000000005,167269.59999999998,,167268.59999999998,,167274.272,8,400,,,
break_continue,html.Screen,4_15_2,2023-09-11T18:01:18.603Z,,0,,,NaN,,,,,,false,,,,167270.90000000002,167270.80000000005,,167270.59999999998,,167274.272,8,400,,,
sequence,flow.Sequence,4_15,2023-09-11T18:01:18.603Z,,0,,,3515.240000000049,completion,,,,,false,,,,167271,167270.80000000005,163738.903,163750.30000000005,163755.56,167274.272,8,400,,,
trial,html.Screen,4_16_0,2023-09-11T18:01:21.901Z,,0,1,,3293.9279999999562,response,ISIC_0064836.JPG,5,ISIC_2067576.JPG,ISIC_0064836.JPG,false,1,keypress(m),500,170568.30000000005,170568.19999999995,167257.615,167271.09999999998,167274.272,170574.449,8,400,17,,ISIC_2067576.JPG
break,html.Screen,4_16_1,2023-09-11T18:01:21.902Z,,0,,,NaN,,,,,,false,,,,170569.40000000002,170569.19999999995,,170568.40000000002,,170574.449,8,400,,,
break_continue,html.Screen,4_16_2,2023-09-11T18:01:21.902Z,,0,,,NaN,,,,,,false,,,,170569.80000000005,170569.69999999995,,170569.59999999998,,170574.449,8,400,,,
sequence,flow.Sequence,4_16,2023-09-11T18:01:21.903Z,,0,,,3295.4279999999562,completion,,,,,false,,,,170570.09999999998,170569.69999999995,167257.615,167271.09999999998,167274.272,170574.449,8,400,,,
trial,html.Screen,4_17_0,2023-09-11T18:01:25.193Z,,0,1,,3285.3510000000533,response,ISIC_0056247.JPG,4,ISIC_0046609.JPG,ISIC_0046609.JPG,false,0,keypress(z),500,173860.30000000005,173859.80000000005,170557.792,170570.09999999998,170574.449,173869.192,8,400,18,,ISIC_0056247.JPG
break,html.Screen,4_17_1,2023-09-11T18:01:25.195Z,,0,,,NaN,,,,,,false,,,,173862.40000000002,173861.90000000002,,173860.80000000005,,173869.192,8,400,,,
break_continue,html.Screen,4_17_2,2023-09-11T18:01:25.196Z,,0,,,NaN,,,,,,false,,,,173863.69999999995,173863.30000000005,,173862.90000000002,,173869.192,8,400,,,
sequence,flow.Sequence,4_17,2023-09-11T18:01:25.196Z,,0,,,3288.8510000000533,completion,,,,,false,,,,173863.90000000002,173863.30000000005,170557.792,170570.09999999998,170574.449,173869.192,8,400,,,
trial,html.Screen,4_18_0,2023-09-11T18:01:29.199Z,,0,1,,3997.2080000000133,response,ISIC_0046340.JPG,5,ISIC_3305055.JPG,ISIC_0046340.JPG,false,1,keypress(m),500,177866.80000000005,177866.40000000002,173852.535,173864.19999999995,173869.192,177876.639,8,400,19,,ISIC_3305055.JPG
break,html.Screen,4_18_1,2023-09-11T18:01:29.201Z,,0,,,NaN,,,,,,false,,,,177868.69999999995,177868.19999999995,,177867.09999999998,,177876.639,8,400,,,
break_continue,html.Screen,4_18_2,2023-09-11T18:01:29.202Z,,0,,,NaN,,,,,,false,,,,177869.69999999995,177869.40000000002,,177869,,177876.639,8,400,,,
sequence,flow.Sequence,4_18,2023-09-11T18:01:29.202Z,,0,,,4000.2080000000133,completion,,,,,false,,,,177869.90000000002,177869.40000000002,173852.535,173864.09999999998,173869.192,177876.639,8,400,,,
trial,html.Screen,4_19_0,2023-09-11T18:01:34.293Z,,0,1,,5083.661000000051,response,ISIC_0313507.JPG,6,ISIC_4811593.JPG,ISIC_0313507.JPG,false,1,keypress(m),500,182960.80000000005,182960.30000000005,177859.982,177870.19999999995,177876.639,182971.911,8,400,20,,ISIC_4811593.JPG
break,html.Screen,4_19_1,2023-09-11T18:01:34.295Z,,0,,,NaN,,,,,,false,,,,182963,182962.30000000005,,182961.09999999998,,182971.911,8,400,,,
break_continue,html.Screen,4_19_2,2023-09-11T18:01:34.296Z,,0,,,NaN,,,,,,false,,,,182963.90000000002,182963.69999999995,,182963.19999999995,,182971.911,8,400,,,
sequence,flow.Sequence,4_19,2023-09-11T18:01:34.297Z,,0,,,5087.060999999958,completion,,,,,false,,,,182964.30000000005,182963.69999999995,177859.982,177870.09999999998,177876.639,182971.911,8,400,,,
trial,html.Screen,4_20_0,2023-09-11T18:01:37.776Z,,0,1,,3470.9890000000305,response,ISIC_3018550.JPG,4,ISIC_9961652.JPG,ISIC_3018550.JPG,false,1,keypress(m),500,186443.30000000005,186442.90000000002,182955.254,182964.5,182971.911,186453.361,8,400,21,,ISIC_9961652.JPG
break,html.Screen,4_20_1,2023-09-11T18:01:37.778Z,,0,,,NaN,,,,,,false,,,,186445.69999999995,186445.19999999995,,186443.90000000002,,186453.361,8,400,,,
break_continue,html.Screen,4_20_2,2023-09-11T18:01:37.779Z,,0,,,NaN,,,,,,false,,,,186446.59999999998,186446.40000000002,,186445.90000000002,,186453.361,8,400,,,
sequence,flow.Sequence,4_20,2023-09-11T18:01:37.779Z,,0,,,3474.4890000000305,completion,,,,,false,,,,186446.90000000002,186446.40000000002,182955.254,182964.40000000002,182971.911,186453.361,8,400,,,
trial,html.Screen,4_21_0,2023-09-11T18:01:41.249Z,,0,1,,3462.539000000019,response,ISIC_5377977.JPG,5,ISIC_7620514.JPG,ISIC_7620514.JPG,false,0,keypress(z),500,189916.19999999995,189915.90000000002,186436.704,186447.19999999995,186453.361,189933.467,8,400,22,,ISIC_5377977.JPG
break,html.Screen,4_21_1,2023-09-11T18:01:41.251Z,,0,,,NaN,,,,,,false,,,,189918.40000000002,189917.80000000005,,189916.69999999995,,189933.467,8,400,,,
break_continue,html.Screen,4_21_2,2023-09-11T18:01:41.252Z,,0,,,NaN,,,,,,false,,,,189919.19999999995,189919,,189918.59999999998,,189933.467,8,400,,,
sequence,flow.Sequence,4_21,2023-09-11T18:01:41.252Z,,0,,,3465.6389999999956,completion,,,,,false,,,,189919.59999999998,189919,186436.704,186447.09999999998,186453.361,189933.467,8,400,,,
trial,html.Screen,4_22_0,2023-09-11T18:01:45.336Z,,0,1,,4069.3330000000424,response,ISIC_7498132.JPG,4,ISIC_8043299.JPG,ISIC_8043299.JPG,false,0,keypress(z),500,194003.19999999995,194002.80000000005,189916.81,189919.80000000005,189933.467,194013.616,8,400,23,,ISIC_7498132.JPG
break,html.Screen,4_22_1,2023-09-11T18:01:45.338Z,,0,,,NaN,,,,,,false,,,,194005.09999999998,194004.59999999998,,194003.5,,194013.616,8,400,,,
break_continue,html.Screen,4_22_2,2023-09-11T18:01:45.338Z,,0,,,NaN,,,,,,false,,,,194005.90000000002,194005.69999999995,,194005.19999999995,,194013.616,8,400,,,
sequence,flow.Sequence,4_22,2023-09-11T18:01:45.339Z,,0,,,4072.2329999999492,completion,,,,,false,,,,194006.40000000002,194005.69999999995,189916.81,189919.80000000005,189933.467,194013.616,8,400,,,
trial,html.Screen,4_23_0,2023-09-11T18:01:48.879Z,,0,1,,3532.1840000000375,response,ISIC_7956417.JPG,4,ISIC_0011995.JPG,ISIC_0011995.JPG,false,0,keypress(z),500,197546.19999999995,197545.80000000005,193996.959,194006.69999999995,194013.616,197550.104,8,400,24,,ISIC_7956417.JPG
break,html.Screen,4_23_1,2023-09-11T18:01:48.880Z,,0,,,NaN,,,,,,false,,,,197548.09999999998,197547.5,,197546.59999999998,,197550.104,8,400,,,
break_continue,html.Screen,4_23_2,2023-09-11T18:01:48.881Z,,0,,,NaN,,,,,,false,,,,197549,197548.80000000005,,197548.30000000005,,197550.104,8,400,,,
sequence,flow.Sequence,4_23,2023-09-11T18:01:48.882Z,,0,,,3535.1840000000375,completion,,,,,false,,,,197549.30000000005,197548.80000000005,193996.959,194006.69999999995,194013.616,197550.104,8,400,,,
trial,html.Screen,4_24_0,2023-09-11T18:01:53.176Z,,0,1,,4292.796000000031,response,ISIC_1790808.JPG,5,ISIC_0059769.JPG,ISIC_1790808.JPG,false,1,keypress(m),500,201843.30000000005,201842.90000000002,197533.447,197549.5,197550.104,201851.393,8,400,25,,ISIC_0059769.JPG
break,html.Screen,4_24_1,2023-09-11T18:01:53.178Z,,0,,,NaN,,,,,,false,,,,201845.30000000005,201844.80000000005,,201843.69999999995,,201851.393,8,400,,,
break_continue,html.Screen,4_24_2,2023-09-11T18:01:53.179Z,,0,,,NaN,,,,,,false,,,,201846.30000000005,201846,,201845.59999999998,,201851.393,8,400,,,
sequence,flow.Sequence,4_24,2023-09-11T18:01:53.179Z,,0,,,4295.896000000008,completion,,,,,false,,,,201846.59999999998,201846,197533.447,197549.40000000002,197550.104,201851.393,8,400,,,
trial,html.Screen,4_25_0,2023-09-11T18:01:57.679Z,,0,1,,4494.706999999966,response,ISIC_6168754.JPG,4,ISIC_0027863.JPG,ISIC_0027863.JPG,false,0,keypress(z),500,206346.59999999998,206346.09999999998,201834.736,201846.90000000002,201851.393,206358.738,8,400,26,,ISIC_6168754.JPG
break,html.Screen,4_25_1,2023-09-11T18:01:57.681Z,,0,,,NaN,,,,,,false,,,,206349,206348.40000000002,,206347.09999999998,,206358.738,8,400,,,
break_continue,html.Screen,4_25_2,2023-09-11T18:01:57.682Z,,0,,,NaN,,,,,,false,,,,206350,206349.59999999998,,206349.09999999998,,206358.738,8,400,,,
sequence,flow.Sequence,4_25,2023-09-11T18:01:57.683Z,,0,,,4498.206999999966,completion,,,,,false,,,,206350.19999999995,206349.59999999998,201834.736,201846.80000000005,201851.393,206358.738,8,400,,,
trial,html.Screen,4_26_0,2023-09-11T18:02:00.920Z,,0,1,,3227.9619999999413,response,ISIC_0027271.JPG,4,ISIC_0011403.JPG,ISIC_0027271.JPG,false,1,keypress(m),500,209587.09999999998,209586.69999999995,206342.081,206350.5,206358.738,209594.57,8,400,27,,ISIC_0011403.JPG
break,html.Screen,4_26_1,2023-09-11T18:02:00.922Z,,0,,,NaN,,,,,,false,,,,209589.40000000002,209588.90000000002,,209587.59999999998,,209594.57,8,400,,,
break_continue,html.Screen,4_26_2,2023-09-11T18:02:00.923Z,,0,,,NaN,,,,,,false,,,,209590.30000000005,209590.09999999998,,209589.69999999995,,209594.57,8,400,,,
sequence,flow.Sequence,4_26,2023-09-11T18:02:00.923Z,,0,,,3231.3619999999646,completion,,,,,false,,,,209590.69999999995,209590.09999999998,206342.081,206350.40000000002,206358.738,209594.57,8,400,,,
trial,html.Screen,4_27_0,2023-09-11T18:02:06.857Z,,0,1,,5929.330000000016,response,ISIC_3979323.JPG,5,ISIC_0865706.JPG,ISIC_3979323.JPG,false,1,keypress(m),500,215524.30000000005,215523.90000000002,209577.913,209591,209594.57,215531.563,8,400,28,,ISIC_0865706.JPG
break,html.Screen,4_27_1,2023-09-11T18:02:06.859Z,,0,,,NaN,,,,,,false,,,,215526.69999999995,215526.09999999998,,215524.80000000005,,215531.563,8,400,,,
break_continue,html.Screen,4_27_2,2023-09-11T18:02:06.860Z,,0,,,NaN,,,,,,false,,,,215527.19999999995,215527.09999999998,,215526.90000000002,,215531.563,8,400,,,
sequence,flow.Sequence,4_27,2023-09-11T18:02:06.860Z,,0,,,5932.52999999997,completion,,,,,false,,,,215527.30000000005,215527.09999999998,209577.913,209590.80000000005,209594.57,215531.563,8,400,,,
trial,html.Screen,4_28_0,2023-09-11T18:02:10.045Z,,0,1,,3181.036999999982,response,ISIC_9029813.JPG,4,ISIC_0015046.JPG,ISIC_0015046.JPG,false,0,keypress(z),500,218712.90000000002,218712.59999999998,215514.906,215527.40000000002,215531.563,218718.045,8,400,29,,ISIC_9029813.JPG
break,html.Screen,4_28_1,2023-09-11T18:02:10.047Z,,0,,,NaN,,,,,,false,,,,218715,218714.5,,218713.30000000005,,218718.045,8,400,,,
break_continue,html.Screen,4_28_2,2023-09-11T18:02:10.048Z,,0,,,NaN,,,,,,false,,,,218715.80000000005,218715.59999999998,,218715.19999999995,,218718.045,8,400,,,
sequence,flow.Sequence,4_28,2023-09-11T18:02:10.049Z,,0,,,3184.036999999982,completion,,,,,false,,,,218716.09999999998,218715.59999999998,215514.906,215527.40000000002,215531.563,218718.045,8,400,,,
trial,html.Screen,4_29_0,2023-09-11T18:02:13.843Z,,0,1,,3792.3550000000105,response,ISIC_6913272.JPG,6,ISIC_0060558.JPG,ISIC_0060558.JPG,false,0,keypress(z),500,222510.80000000005,222510.40000000002,218701.388,218716.40000000002,218718.045,222515.955,8,400,30,,ISIC_6913272.JPG
break,html.Screen,4_29_1,2023-09-11T18:02:13.845Z,,0,,,NaN,,,,,,false,,,,222512.90000000002,222512.30000000005,,222511.09999999998,,222515.955,8,400,,,
break_continue,html.Screen,4_29_2,2023-09-11T18:02:13.846Z,,0,,,NaN,,,,,,false,,,,222513.80000000005,222513.69999999995,,222513.19999999995,,222515.955,8,400,,,
sequence,flow.Sequence,4_29,2023-09-11T18:02:13.847Z,,0,,,3795.6549999999406,completion,,,,,false,,,,222514.09999999998,222513.69999999995,218701.388,218716.30000000005,218718.045,222515.955,8,400,,,
trial,html.Screen,4_30_0,2023-09-11T18:02:17.481Z,,0,1,,3632.2449999999662,response,ISIC_0026089.JPG,6,ISIC_0026094.JPG,ISIC_0026089.JPG,false,1,keypress(m),500,226148.30000000005,226148.19999999995,222499.298,222514.30000000005,222515.955,226161.633,8,400,31,,ISIC_0026094.JPG
break,html.Screen,4_30_1,2023-09-11T18:02:17.482Z,,0,,,NaN,,,,,,false,,,,226149.19999999995,226149,,226148.40000000002,,226161.633,8,400,,,
break_continue,html.Screen,4_30_2,2023-09-11T18:02:17.482Z,,0,,,NaN,,,,,,false,,,,226149.40000000002,226149.40000000002,,226149.19999999995,,226161.633,8,400,,,
sequence,flow.Sequence,4_30,2023-09-11T18:02:17.482Z,,0,,,3633.445000000036,completion,,,,,false,,,,226149.5,226149.40000000002,222499.298,222514.30000000005,222515.955,226161.633,8,400,,,
trial,html.Screen,4_31_0,2023-09-11T18:02:21.312Z,,0,1,,3817.167000000045,response,ISIC_0025327.JPG,6,ISIC_8849818.JPG,ISIC_0025327.JPG,false,1,keypress(m),500,229979.19999999995,229978.80000000005,226144.976,226149.59999999998,226161.633,229988.933,8,400,32,,ISIC_8849818.JPG
break,html.Screen,4_31_1,2023-09-11T18:02:21.314Z,,0,,,NaN,,,,,,false,,,,229981.09999999998,229980.59999999998,,229979.69999999995,,229988.933,8,400,,,
break_continue,html.Screen,4_31_2,2023-09-11T18:02:21.314Z,,0,,,NaN,,,,,,false,,,,229982,229981.80000000005,,229981.40000000002,,229988.933,8,400,,,
sequence,flow.Sequence,4_31,2023-09-11T18:02:21.315Z,,0,,,3820.167000000045,completion,,,,,false,,,,229982.40000000002,229981.80000000005,226144.976,226149.59999999998,226161.633,229988.933,8,400,,,
trial,html.Screen,4_32_0,2023-09-11T18:02:24.736Z,,0,1,,3413.8670000000566,response,ISIC_5938680.JPG,4,ISIC_6673956.JPG,ISIC_6673956.JPG,false,0,keypress(z),500,233403.30000000005,233402.80000000005,229972.276,229982.5,229988.933,233409.741,8,400,33,,ISIC_5938680.JPG
break,html.Screen,4_32_1,2023-09-11T18:02:24.738Z,,0,,,NaN,,,,,,false,,,,233405.5,233404.90000000002,,233403.80000000005,,233409.741,8,400,,,
break_continue,html.Screen,4_32_2,2023-09-11T18:02:24.739Z,,0,,,NaN,,,,,,false,,,,233406.40000000002,233406.19999999995,,233405.69999999995,,233409.741,8,400,,,
sequence,flow.Sequence,4_32,2023-09-11T18:02:24.739Z,,0,,,3417.2669999999634,completion,,,,,false,,,,233406.90000000002,233406.19999999995,229972.276,229982.5,229988.933,233409.741,8,400,,,
trial,html.Screen,4_33_0,2023-09-11T18:02:29.888Z,,0,1,,5145.159000000014,response,ISIC_0008447.JPG,5,ISIC_8849818.JPG,ISIC_8849818.JPG,false,0,keypress(z),500,238555.30000000005,238554.90000000002,233393.084,233407.09999999998,233409.741,238567.632,8,400,34,,ISIC_0008447.JPG
break,html.Screen,4_33_1,2023-09-11T18:02:29.890Z,,0,,,NaN,,,,,,false,,,,238557.40000000002,238556.80000000005,,238555.80000000005,,238567.632,8,400,,,
break_continue,html.Screen,4_33_2,2023-09-11T18:02:29.891Z,,0,,,NaN,,,,,,false,,,,238558.19999999995,238558,,238557.59999999998,,238567.632,8,400,,,
sequence,flow.Sequence,4_33,2023-09-11T18:02:29.891Z,,0,,,5148.258999999991,completion,,,,,false,,,,238558.69999999995,238558,233393.084,233407,233409.741,238567.632,8,400,,,
trial,html.Screen,4_34_0,2023-09-11T18:02:34.214Z,,0,1,,4313.268000000011,response,ISIC_2153686.JPG,4,ISIC_0056957.JPG,ISIC_0056957.JPG,false,0,keypress(z),500,242881.30000000005,242880.90000000002,238550.975,238558.90000000002,238567.632,242891.91,8,400,35,,ISIC_2153686.JPG
break,html.Screen,4_34_1,2023-09-11T18:02:34.216Z,,0,,,NaN,,,,,,false,,,,242883.19999999995,242882.80000000005,,242881.80000000005,,242891.91,8,400,,,
break_continue,html.Screen,4_34_2,2023-09-11T18:02:34.217Z,,0,,,NaN,,,,,,false,,,,242884.09999999998,242883.90000000002,,242883.5,,242891.91,8,400,,,
sequence,flow.Sequence,4_34,2023-09-11T18:02:34.217Z,,0,,,4316.268000000011,completion,,,,,false,,,,242884.5,242883.90000000002,238550.975,238558.80000000005,238567.632,242891.91,8,400,,,
trial,html.Screen,4_35_0,2023-09-11T18:02:37.152Z,,0,1,,2926.890000000043,response,ISIC_0067120.JPG,4,ISIC_6876281.JPG,ISIC_0067120.JPG,false,1,keypress(m),500,245819.19999999995,245818.80000000005,242875.253,242884.69999999995,242891.91,245830.285,8,400,36,,ISIC_6876281.JPG
break,html.Screen,4_35_1,2023-09-11T18:02:37.154Z,,0,,,NaN,,,,,,false,,,,245821.59999999998,245820.80000000005,,245819.69999999995,,245830.285,8,400,,,
break_continue,html.Screen,4_35_2,2023-09-11T18:02:37.155Z,,0,,,NaN,,,,,,false,,,,245822.40000000002,245822.19999999995,,245821.80000000005,,245830.285,8,400,,,
sequence,flow.Sequence,4_35,2023-09-11T18:02:37.155Z,,0,,,2930.28999999995,completion,,,,,false,,,,245822.5,245822.19999999995,242875.253,242884.69999999995,242891.91,245830.285,8,400,,,
trial,html.Screen,4_36_0,2023-09-11T18:02:40.293Z,,0,1,,3129.7149999999965,response,ISIC_0059082.JPG,5,ISIC_1020369.JPG,ISIC_0059082.JPG,false,1,keypress(m),500,248960.5,248960,245813.628,245822.69999999995,245830.285,248977.716,8,400,37,,ISIC_1020369.JPG
break,html.Screen,4_36_1,2023-09-11T18:02:40.295Z,,0,,,NaN,,,,,,false,,,,248962.69999999995,248962.09999999998,,248960.80000000005,,248977.716,8,400,,,
break_continue,html.Screen,4_36_2,2023-09-11T18:02:40.296Z,,0,,,NaN,,,,,,false,,,,248963.59999999998,248963.30000000005,,248962.90000000002,,248977.716,8,400,,,
sequence,flow.Sequence,4_36,2023-09-11T18:02:40.296Z,,0,,,3133.015000000043,completion,,,,,false,,,,248963.90000000002,248963.30000000005,245813.628,245822.59999999998,245830.285,248977.716,8,400,,,
trial,html.Screen,4_37_0,2023-09-11T18:02:44.112Z,,0,1,,3801.0840000000608,response,ISIC_0013342.JPG,5,ISIC_5482805.JPG,ISIC_5482805.JPG,false,0,keypress(z),500,252779.19999999995,252778.80000000005,248961.059,248964.19999999995,248977.716,252807.624,8,400,38,,ISIC_0013342.JPG
break,html.Screen,4_37_1,2023-09-11T18:02:44.113Z,,0,,,NaN,,,,,,false,,,,252780.90000000002,252780.30000000005,,252779.5,,252807.624,8,400,,,
break_continue,html.Screen,4_37_2,2023-09-11T18:02:44.114Z,,0,,,NaN,,,,,,false,,,,252781.80000000005,252781.5,,252781.09999999998,,252807.624,8,400,,,
sequence,flow.Sequence,4_37,2023-09-11T18:02:44.115Z,,0,,,3803.784000000014,completion,,,,,false,,,,252782,252781.5,248961.059,248964.09999999998,248977.716,252807.624,8,400,,,
trial,html.Screen,4_38_0,2023-09-11T18:02:47.240Z,,0,1,,3099.176000000036,response,ISIC_0033320.JPG,6,ISIC_9672482.JPG,ISIC_0033320.JPG,false,1,keypress(m),500,255907.30000000005,255906.80000000005,252790.967,252782.30000000005,252807.624,255919.931,8,400,39,,ISIC_9672482.JPG
break,html.Screen,4_38_1,2023-09-11T18:02:47.242Z,,0,,,NaN,,,,,,false,,,,255909.40000000002,255909,,255907.59999999998,,255919.931,8,400,,,
break_continue,html.Screen,4_38_2,2023-09-11T18:02:47.243Z,,0,,,NaN,,,,,,false,,,,255910.30000000005,255910.09999999998,,255909.59999999998,,255919.931,8,400,,,
sequence,flow.Sequence,4_38,2023-09-11T18:02:47.243Z,,0,,,3102.475999999966,completion,,,,,false,,,,255910.69999999995,255910.09999999998,252790.967,252782.30000000005,252807.624,255919.931,8,400,,,
trial,html.Screen,4_39_0,2023-09-11T18:02:51.486Z,,0,1,,4233.469000000012,response,ISIC_0011099.JPG,5,ISIC_0055136.JPG,ISIC_0055136.JPG,false,0,keypress(z),500,260153.80000000005,260153.40000000002,255903.274,255910.90000000002,255919.931,260166.459,8,400,40,,ISIC_0011099.JPG
break,html.Screen,4_39_1,2023-09-11T18:02:51.488Z,,0,,,NaN,,,,,,false,,,,260155.80000000005,260155.19999999995,,260154.19999999995,,260166.459,8,400,,,
break_continue,html.Screen,4_39_2,2023-09-11T18:02:51.489Z,,0,,,NaN,,,,,,false,,,,260156.69999999995,260156.5,,260156,,260166.459,8,400,,,
sequence,flow.Sequence,4_39,2023-09-11T18:02:51.489Z,,0,,,4236.568999999989,completion,,,,,false,,,,260157.09999999998,260156.5,255903.274,255910.90000000002,255919.931,260166.459,8,400,,,
trial,html.Screen,4_40_0,2023-09-11T18:02:55.080Z,,0,1,,3580.4410000000207,response,ISIC_0025791.JPG,5,ISIC_6001716.JPG,ISIC_6001716.JPG,false,0,keypress(z),500,263747.19999999995,263746.9,260149.802,260157.19999999995,260166.459,263758.738,8,400,41,,ISIC_0025791.JPG
break,html.Screen,4_40_1,2023-09-11T18:02:55.082Z,,0,,,NaN,,,,,,false,,,,263749,263748.6,,263747.6,,263758.738,8,400,,,
break_continue,html.Screen,4_40_2,2023-09-11T18:02:55.082Z,,0,,,NaN,,,,,,false,,,,263749.9,263749.6,,263749.30000000005,,263758.738,8,400,,,
sequence,flow.Sequence,4_40,2023-09-11T18:02:55.083Z,,0,,,3583.140999999974,completion,,,,,false,,,,263750.30000000005,263749.6,260149.802,260157.19999999995,260166.459,263758.738,8,400,,,
trial,html.Screen,4_41_0,2023-09-11T18:02:58.126Z,,0,1,,3033.9619999999413,response,ISIC_0029863.JPG,6,ISIC_4538661.JPG,ISIC_0029863.JPG,false,1,keypress(m),500,266793.1,266792.69999999995,263742.081,263750.6,263758.738,266797.692,8,400,42,,ISIC_4538661.JPG
break,html.Screen,4_41_1,2023-09-11T18:02:58.128Z,,0,,,NaN,,,,,,false,,,,266795.1,266794.6,,266793.4,,266797.692,8,400,,,
break_continue,html.Screen,4_41_2,2023-09-11T18:02:58.128Z,,0,,,NaN,,,,,,false,,,,266795.4,266795.4,,266795.19999999995,,266797.692,8,400,,,
sequence,flow.Sequence,4_41,2023-09-11T18:02:58.128Z,,0,,,3036.662000000011,completion,,,,,false,,,,266795.6,266795.4,263742.081,263750.6,263758.738,266797.692,8,400,,,
trial,html.Screen,4_42_0,2023-09-11T18:03:01.667Z,,0,1,,3536.0079999999725,response,ISIC_0097500.JPG,4,ISIC_5948901.JPG,ISIC_5948901.JPG,false,0,keypress(z),500,270334.1,270333.69999999995,266781.035,266795.69999999995,266797.692,270344.425,8,400,43,,ISIC_0097500.JPG
break,html.Screen,4_42_1,2023-09-11T18:03:01.669Z,,0,,,NaN,,,,,,false,,,,270336.1,270335.5,,270334.5,,270344.425,8,400,,,
break_continue,html.Screen,4_42_2,2023-09-11T18:03:01.669Z,,0,,,NaN,,,,,,false,,,,270337,270336.80000000005,,270336.4,,270344.425,8,400,,,
sequence,flow.Sequence,4_42,2023-09-11T18:03:01.670Z,,0,,,3539.1080000000657,completion,,,,,false,,,,270337.30000000005,270336.80000000005,266781.035,266795.6,266797.692,270344.425,8,400,,,
trial,html.Screen,4_43_0,2023-09-11T18:03:06.201Z,,0,1,,4523.674999999988,response,ISIC_0010322.JPG,6,ISIC_0055727.JPG,ISIC_0010322.JPG,false,1,keypress(m),500,274868.4,274868.1,270327.768,270337.5,270344.425,274876.022,8,400,44,,ISIC_0055727.JPG
break,html.Screen,4_43_1,2023-09-11T18:03:06.203Z,,0,,,NaN,,,,,,false,,,,274870.5,274870,,274868.9,,274876.022,8,400,,,
break_continue,html.Screen,4_43_2,2023-09-11T18:03:06.204Z,,0,,,NaN,,,,,,false,,,,274871.5,274871.19999999995,,274870.9,,274876.022,8,400,,,
sequence,flow.Sequence,4_43,2023-09-11T18:03:06.204Z,,0,,,4526.774999999965,completion,,,,,false,,,,274871.80000000005,274871.19999999995,270327.768,270337.4,270344.425,274876.022,8,400,,,
trial,html.Screen,4_44_0,2023-09-11T18:03:09.680Z,,0,1,,3470.978000000003,response,ISIC_0027986.JPG,5,ISIC_1075605.JPG,ISIC_0027986.JPG,false,1,keypress(m),500,278347.4,278347,274859.365,274872,274876.022,278358.286,8,400,45,,ISIC_1075605.JPG
break,html.Screen,4_44_1,2023-09-11T18:03:09.682Z,,0,,,NaN,,,,,,false,,,,278349.4,278348.9,,278347.80000000005,,278358.286,8,400,,,
break_continue,html.Screen,4_44_2,2023-09-11T18:03:09.683Z,,0,,,NaN,,,,,,false,,,,278350.1,278350,,278349.6,,278358.286,8,400,,,
sequence,flow.Sequence,4_44,2023-09-11T18:03:09.685Z,,0,,,3473.978000000003,completion,,,,,false,,,,278352.1,278350,274859.365,274872,274876.022,278358.286,8,400,,,
trial,html.Screen,4_45_0,2023-09-11T18:03:13.088Z,,0,1,,3396.5140000000247,response,ISIC_0010729.JPG,6,ISIC_5315062.JPG,ISIC_0010729.JPG,false,1,keypress(m),500,281755.19999999995,281754.80000000005,278341.629,278352.19999999995,278358.286,281762.117,8,400,46,,ISIC_5315062.JPG
break,html.Screen,4_45_1,2023-09-11T18:03:13.089Z,,0,,,NaN,,,,,,false,,,,281756.9,281756.4,,281755.6,,281762.117,8,400,,,
break_continue,html.Screen,4_45_2,2023-09-11T18:03:13.090Z,,0,,,NaN,,,,,,false,,,,281757.9,281757.5,,281757.1,,281762.117,8,400,,,
sequence,flow.Sequence,4_45,2023-09-11T18:03:13.091Z,,0,,,3399.213999999978,completion,,,,,false,,,,281758.19999999995,281757.5,278341.629,278352.19999999995,278358.286,281762.117,8,400,,,
trial,html.Screen,4_46_0,2023-09-11T18:03:17.559Z,,0,1,,4464.582999999926,response,ISIC_0064823.JPG,5,ISIC_0014657.JPG,ISIC_0014657.JPG,false,0,keypress(z),500,286226.9,286226.69999999995,281745.46,281758.4,281762.117,286241.772,8,400,47,,ISIC_0064823.JPG
break,html.Screen,4_46_1,2023-09-11T18:03:17.561Z,,0,,,NaN,,,,,,false,,,,286228.19999999995,286227.9,,286227.19999999995,,286241.772,8,400,,,
break_continue,html.Screen,4_46_2,2023-09-11T18:03:17.561Z,,0,,,NaN,,,,,,false,,,,286228.80000000005,286228.69999999995,,286228.4,,286241.772,8,400,,,
sequence,flow.Sequence,4_46,2023-09-11T18:03:17.561Z,,0,,,4466.582999999926,completion,,,,,false,,,,286229,286228.69999999995,281745.46,281758.4,281762.117,286241.772,8,400,,,
trial,html.Screen,4_47_0,2023-09-11T18:03:20.944Z,,0,1,,3369.0280000000494,response,ISIC_7161002.JPG,6,ISIC_4119029.JPG,ISIC_4119029.JPG,false,0,keypress(z),500,289611.19999999995,289610.80000000005,286225.115,286229.1,286241.772,289623.159,8,400,48,,ISIC_7161002.JPG
break,html.Screen,4_47_1,2023-09-11T18:03:20.946Z,,0,,,NaN,,,,,,false,,,,289613.1,289612.69999999995,,289611.5,,289623.159,8,400,,,
break_continue,html.Screen,4_47_2,2023-09-11T18:03:20.946Z,,0,,,NaN,,,,,,false,,,,289613.9,289613.69999999995,,289613.30000000005,,289623.159,8,400,,,
sequence,flow.Sequence,4_47,2023-09-11T18:03:20.947Z,,0,,,3371.9279999999562,completion,,,,,false,,,,289614.19999999995,289613.69999999995,286225.115,286229.1,286241.772,289623.159,8,400,,,
trial,html.Screen,4_48_0,2023-09-11T18:03:24.257Z,,0,1,,3300.741000000038,response,ISIC_0028175.JPG,4,ISIC_5877211.JPG,ISIC_0028175.JPG,false,1,keypress(m),500,292924.30000000005,292923.9,289606.502,289614.4,289623.159,292927.27,8,400,49,,ISIC_5877211.JPG
break,html.Screen,4_48_1,2023-09-11T18:03:24.259Z,,0,,,NaN,,,,,,false,,,,292926.5,292926,,292924.69999999995,,292927.27,8,400,,,
break_continue,html.Screen,4_48_2,2023-09-11T18:03:24.260Z,,0,,,NaN,,,,,,false,,,,292927.4,292927.19999999995,,292926.69999999995,,292927.27,8,400,,,
sequence,flow.Sequence,4_48,2023-09-11T18:03:24.261Z,,0,,,3304.0409999999683,completion,,,,,false,,,,292928,292927.19999999995,289606.502,289614.4,289623.159,292927.27,8,400,,,
trial,html.Screen,4_49_0,2023-09-11T18:03:27.408Z,,0,1,,3147.530000000028,response,ISIC_0007619.JPG,4,ISIC_6207818.JPG,ISIC_6207818.JPG,false,0,keypress(z),500,296075.6,296074.80000000005,292910.613,292928.4,292927.27,296083.92,8,400,50,,ISIC_0007619.JPG
break,html.Screen,4_49_1,2023-09-11T18:03:37.408Z,,0,,,10006.334000000032,timeout,,,,,false,,,,306075.69999999995,306073.595,296067.263,296076,296083.92,306090.254,8,400,,,
break_continue,html.Screen,4_49_2,2023-09-11T18:03:39.699Z,,0,,,2264.646000000008,response,,,,,false,continue,keypress(Space),,308366.6,308354.9,306073.595,306075.9,306090.254,308372.272,8,400,,,
sequence,flow.Sequence,4_49,2023-09-11T18:03:39.699Z,,0,,,15427.630000000005,completion,,,,,false,,,,308366.69999999995,308354.9,292910.613,292928.30000000005,292927.27,308372.272,8,400,,,
trial,html.Screen,4_50_0,2023-09-11T18:03:43.254Z,,0,2,,3548.8279999999795,response,ISIC_4128129.JPG,4,ISIC_5397818.JPG,ISIC_4128129.JPG,false,1,keypress(m),500,311921.5,311921.1,308355.615,308366.80000000005,308372.272,311932.417,8,400,1,,ISIC_5397818.JPG
break,html.Screen,4_50_1,2023-09-11T18:03:43.256Z,,0,,,NaN,,,,,,false,,,,311923.6,311923.1,,311922,,311932.417,8,400,,,
break_continue,html.Screen,4_50_2,2023-09-11T18:03:43.257Z,,0,,,NaN,,,,,,false,,,,311924.4,311924.19999999995,,311923.80000000005,,311932.417,8,400,,,
sequence,flow.Sequence,4_50,2023-09-11T18:03:43.257Z,,0,,,3551.9279999999562,completion,,,,,false,,,,311924.80000000005,311924.19999999995,308355.615,308366.80000000005,308372.272,311932.417,8,400,,,
trial,html.Screen,4_51_0,2023-09-11T18:03:46.600Z,,0,2,,3334.3830000000307,response,ISIC_0012047.JPG,5,ISIC_0063824.JPG,ISIC_0063824.JPG,false,0,keypress(z),500,315267.19999999995,315266.80000000005,311915.76,311924.9,311932.417,315273.698,8,400,2,,ISIC_0012047.JPG
break,html.Screen,4_51_1,2023-09-11T18:03:46.602Z,,0,,,NaN,,,,,,false,,,,315269.1,315268.6,,315267.5,,315273.698,8,400,,,
break_continue,html.Screen,4_51_2,2023-09-11T18:03:46.602Z,,0,,,NaN,,,,,,false,,,,315269.9,315269.80000000005,,315269.30000000005,,315273.698,8,400,,,
sequence,flow.Sequence,4_51,2023-09-11T18:03:46.603Z,,0,,,3337.3830000000307,completion,,,,,false,,,,315270.19999999995,315269.80000000005,311915.76,311924.80000000005,311932.417,315273.698,8,400,,,
trial,html.Screen,4_52_0,2023-09-11T18:03:50.016Z,,0,2,,3409.1020000000717,response,ISIC_0063295.JPG,4,ISIC_4691943.JPG,ISIC_4691943.JPG,false,0,keypress(z),500,318683.19999999995,318682.80000000005,315257.041,315270.4,315273.698,318689.161,8,400,3,,ISIC_0063295.JPG
break,html.Screen,4_52_1,2023-09-11T18:03:50.018Z,,0,,,NaN,,,,,,false,,,,318685.30000000005,318684.69999999995,,318683.69999999995,,318689.161,8,400,,,
break_continue,html.Screen,4_52_2,2023-09-11T18:03:50.019Z,,0,,,NaN,,,,,,false,,,,318686.30000000005,318686,,318685.6,,318689.161,8,400,,,
sequence,flow.Sequence,4_52,2023-09-11T18:03:50.019Z,,0,,,3412.302000000025,completion,,,,,false,,,,318686.6,318686,315257.041,315270.4,315273.698,318689.161,8,400,,,
trial,html.Screen,4_53_0,2023-09-11T18:03:52.902Z,,0,2,,2879.838999999978,response,ISIC_2376016.JPG,4,ISIC_3439215.JPG,ISIC_3439215.JPG,false,0,keypress(z),500,321569.5,321569,318672.504,318686.69999999995,318689.161,321577.362,8,400,4,,ISIC_2376016.JPG
break,html.Screen,4_53_1,2023-09-11T18:03:52.904Z,,0,,,NaN,,,,,,false,,,,321571.5,321571,,321569.80000000005,,321577.362,8,400,,,
break_continue,html.Screen,4_53_2,2023-09-11T18:03:52.905Z,,0,,,NaN,,,,,,false,,,,321572.4,321572.30000000005,,321571.69999999995,,321577.362,8,400,,,
sequence,flow.Sequence,4_53,2023-09-11T18:03:52.905Z,,0,,,2883.1390000000247,completion,,,,,false,,,,321572.80000000005,321572.30000000005,318672.504,318686.69999999995,318689.161,321577.362,8,400,,,
trial,html.Screen,4_54_0,2023-09-11T18:03:56.731Z,,0,2,,3821.237999999954,response,ISIC_0012435.JPG,4,ISIC_9000234.JPG,ISIC_9000234.JPG,false,0,keypress(z),500,325398.9,325398.6,321560.705,321572.9,321577.362,325412.977,8,400,5,,ISIC_0012435.JPG
break,html.Screen,4_54_1,2023-09-11T18:03:56.734Z,,0,,,NaN,,,,,,false,,,,325401.6,325400.9,,325399.30000000005,,325412.977,8,400,,,
break_continue,html.Screen,4_54_2,2023-09-11T18:03:56.735Z,,0,,,NaN,,,,,,false,,,,325402.4,325402.19999999995,,325401.80000000005,,325412.977,8,400,,,
sequence,flow.Sequence,4_54,2023-09-11T18:03:56.735Z,,0,,,3824.8379999999306,completion,,,,,false,,,,325402.80000000005,325402.19999999995,321560.705,321572.9,321577.362,325412.977,8,400,,,
trial,html.Screen,4_55_0,2023-09-11T18:04:00.210Z,,0,2,,3464.122999999963,response,ISIC_0021894.JPG,4,ISIC_2642873.JPG,ISIC_0021894.JPG,false,1,keypress(m),500,328877.5,328877.1,325396.32,325403,325412.977,328883.654,8,400,6,,ISIC_2642873.JPG
break,html.Screen,4_55_1,2023-09-11T18:04:00.212Z,,0,,,NaN,,,,,,false,,,,328879.19999999995,328878.9,,328877.9,,328883.654,8,400,,,
break_continue,html.Screen,4_55_2,2023-09-11T18:04:00.213Z,,0,,,NaN,,,,,,false,,,,328880.1,328879.9,,328879.5,,328883.654,8,400,,,
sequence,flow.Sequence,4_55,2023-09-11T18:04:00.213Z,,0,,,3466.92300000001,completion,,,,,false,,,,328880.5,328879.9,325396.32,325402.9,325412.977,328883.654,8,400,,,
trial,html.Screen,4_56_0,2023-09-11T18:04:03.208Z,,0,2,,2991.045999999973,response,ISIC_0033047.JPG,5,ISIC_6681802.JPG,ISIC_0033047.JPG,false,1,keypress(m),500,331875.1,331874.69999999995,328866.997,328880.80000000005,328883.654,331882.056,8,400,7,,ISIC_6681802.JPG
break,html.Screen,4_56_1,2023-09-11T18:04:03.210Z,,0,,,NaN,,,,,,false,,,,331877,331876.6,,331875.30000000005,,331882.056,8,400,,,
break_continue,html.Screen,4_56_2,2023-09-11T18:04:03.210Z,,0,,,NaN,,,,,,false,,,,331877.80000000005,331877.6,,331877.19999999995,,331882.056,8,400,,,
sequence,flow.Sequence,4_56,2023-09-11T18:04:03.211Z,,0,,,2993.9459999999963,completion,,,,,false,,,,331878.1,331877.6,328866.997,328880.69999999995,328883.654,331882.056,8,400,,,
trial,html.Screen,4_57_0,2023-09-11T18:04:06.109Z,,0,2,,2894.344000000041,response,ISIC_9870885.JPG,5,ISIC_5065360.JPG,ISIC_9870885.JPG,false,1,keypress(m),500,334776.80000000005,334776.4,331865.399,331878.30000000005,331882.056,334784.008,8,400,8,,ISIC_5065360.JPG
break,html.Screen,4_57_1,2023-09-11T18:04:06.111Z,,0,,,NaN,,,,,,false,,,,334778.9,334778.19999999995,,334777.1,,334784.008,8,400,,,
break_continue,html.Screen,4_57_2,2023-09-11T18:04:06.112Z,,0,,,NaN,,,,,,false,,,,334779.69999999995,334779.5,,334779.1,,334784.008,8,400,,,
sequence,flow.Sequence,4_57,2023-09-11T18:04:06.112Z,,0,,,2897.4440000000177,completion,,,,,false,,,,334780.1,334779.5,331865.399,331878.19999999995,331882.056,334784.008,8,400,,,
trial,html.Screen,4_58_0,2023-09-11T18:04:09.075Z,,0,2,,2958.3920000000508,response,ISIC_0058877.JPG,6,ISIC_8374889.JPG,ISIC_0058877.JPG,false,1,keypress(m),500,337742.80000000005,337742.4,334767.351,334780.19999999995,334784.008,337747.055,8,400,9,,ISIC_8374889.JPG
break,html.Screen,4_58_1,2023-09-11T18:04:09.077Z,,0,,,NaN,,,,,,false,,,,337744.80000000005,337744.19999999995,,337743.19999999995,,337747.055,8,400,,,
break_continue,html.Screen,4_58_2,2023-09-11T18:04:09.078Z,,0,,,NaN,,,,,,false,,,,337745.6,337745.4,,337745,,337747.055,8,400,,,
sequence,flow.Sequence,4_58,2023-09-11T18:04:09.078Z,,0,,,2961.3920000000508,completion,,,,,false,,,,337746,337745.4,334767.351,334780.19999999995,334784.008,337747.055,8,400,,,
trial,html.Screen,4_59_0,2023-09-11T18:04:13.280Z,,0,2,,4199.84500000003,response,ISIC_0013775.JPG,5,ISIC_7927525.JPG,ISIC_7927525.JPG,false,0,keypress(z),500,341947.30000000005,341946.9,337730.398,337746.19999999995,337747.055,341960.941,8,400,10,,ISIC_0013775.JPG
break,html.Screen,4_59_1,2023-09-11T18:04:13.282Z,,0,,,NaN,,,,,,false,,,,341949.4,341948.80000000005,,341947.69999999995,,341960.941,8,400,,,
break_continue,html.Screen,4_59_2,2023-09-11T18:04:13.283Z,,0,,,NaN,,,,,,false,,,,341950.19999999995,341950,,341949.6,,341960.941,8,400,,,
sequence,flow.Sequence,4_59,2023-09-11T18:04:13.283Z,,0,,,4202.945000000007,completion,,,,,false,,,,341950.9,341950,337730.398,337746.19999999995,337747.055,341960.941,8,400,,,
trial,html.Screen,4_60_0,2023-09-11T18:04:17.872Z,,0,2,,4577.859000000055,response,ISIC_6460137.JPG,5,ISIC_0558485.JPG,ISIC_0558485.JPG,false,0,keypress(z),500,346539.1,346538.80000000005,341944.284,341951.30000000005,341960.941,346551.932,8,400,11,,ISIC_6460137.JPG
break,html.Screen,4_60_1,2023-09-11T18:04:17.873Z,,0,,,NaN,,,,,,false,,,,346541,346540.5,,346539.4,,346551.932,8,400,,,
break_continue,html.Screen,4_60_2,2023-09-11T18:04:17.874Z,,0,,,NaN,,,,,,false,,,,346541.80000000005,346541.6,,346541.30000000005,,346551.932,8,400,,,
sequence,flow.Sequence,4_60,2023-09-11T18:04:17.875Z,,0,,,4580.658999999985,completion,,,,,false,,,,346542.19999999995,346541.6,341944.284,341951.19999999995,341960.941,346551.932,8,400,,,
trial,html.Screen,4_61_0,2023-09-11T18:04:21.232Z,,0,2,,3346.868000000075,response,ISIC_3416324.JPG,6,ISIC_0068616.JPG,ISIC_0068616.JPG,false,0,keypress(z),500,349899.19999999995,349898.80000000005,346535.275,346542.30000000005,346551.932,349907.147,8,400,12,,ISIC_3416324.JPG
break,html.Screen,4_61_1,2023-09-11T18:04:21.234Z,,0,,,NaN,,,,,,false,,,,349901.30000000005,349900.6,,349899.5,,349907.147,8,400,,,
break_continue,html.Screen,4_61_2,2023-09-11T18:04:21.235Z,,0,,,NaN,,,,,,false,,,,349902.19999999995,349902,,349901.5,,349907.147,8,400,,,
sequence,flow.Sequence,4_61,2023-09-11T18:04:21.235Z,,0,,,3350.0680000000284,completion,,,,,false,,,,349902.5,349902,346535.275,346542.30000000005,346551.932,349907.147,8,400,,,
trial,html.Screen,4_62_0,2023-09-11T18:04:25.744Z,,0,2,,4503.753000000026,response,ISIC_0476606.JPG,6,ISIC_2395624.JPG,ISIC_0476606.JPG,false,1,keypress(m),500,354411.30000000005,354410.9,349890.49,349902.6,349907.147,354421.208,8,400,13,,ISIC_2395624.JPG
break,html.Screen,4_62_1,2023-09-11T18:04:25.746Z,,0,,,NaN,,,,,,false,,,,354413.30000000005,354412.80000000005,,354411.6,,354421.208,8,400,,,
break_continue,html.Screen,4_62_2,2023-09-11T18:04:25.747Z,,0,,,NaN,,,,,,false,,,,354414.19999999995,354413.9,,354413.5,,354421.208,8,400,,,
sequence,flow.Sequence,4_62,2023-09-11T18:04:25.747Z,,0,,,4506.753000000026,completion,,,,,false,,,,354414.4,354413.9,349890.49,349902.6,349907.147,354421.208,8,400,,,
trial,html.Screen,4_63_0,2023-09-11T18:04:29.590Z,,0,2,,3835.4919999999693,response,ISIC_0061066.JPG,6,ISIC_3251486.JPG,ISIC_0061066.JPG,false,1,keypress(m),500,358257,358256.69999999995,354404.551,354414.69999999995,354421.208,358266.203,8,400,14,,ISIC_3251486.JPG
break,html.Screen,4_63_1,2023-09-11T18:04:29.592Z,,0,,,NaN,,,,,,false,,,,358259.1,358258.5,,358257.4,,358266.203,8,400,,,
break_continue,html.Screen,4_63_2,2023-09-11T18:04:29.593Z,,0,,,NaN,,,,,,false,,,,358260.1,358259.80000000005,,358259.4,,358266.203,8,400,,,
sequence,flow.Sequence,4_63,2023-09-11T18:04:29.593Z,,0,,,3838.5920000000624,completion,,,,,false,,,,358260.30000000005,358259.80000000005,354404.551,354414.6,354421.208,358266.203,8,400,,,
trial,html.Screen,4_64_0,2023-09-11T18:04:33.547Z,,0,2,,3947.6970000000438,response,ISIC_9196783.JPG,4,ISIC_2693412.JPG,ISIC_9196783.JPG,false,1,keypress(m),500,362214.30000000005,362213.9,358249.546,358260.6,358266.203,362222.134,8,400,15,,ISIC_2693412.JPG
break,html.Screen,4_64_1,2023-09-11T18:04:33.549Z,,0,,,NaN,,,,,,false,,,,362216.6,362215.9,,362214.69999999995,,362222.134,8,400,,,
break_continue,html.Screen,4_64_2,2023-09-11T18:04:33.550Z,,0,,,NaN,,,,,,false,,,,362217.5,362217.30000000005,,362216.80000000005,,362222.134,8,400,,,
sequence,flow.Sequence,4_64,2023-09-11T18:04:33.550Z,,0,,,3951.097000000067,completion,,,,,false,,,,362217.69999999995,362217.30000000005,358249.546,358260.5,358266.203,362222.134,8,400,,,
trial,html.Screen,4_65_0,2023-09-11T18:04:36.713Z,,0,2,,3157.7660000000033,response,ISIC_0031821.JPG,4,ISIC_4093484.JPG,ISIC_0031821.JPG,false,1,keypress(m),500,365380.30000000005,365379.9,362205.477,362217.80000000005,362222.134,365386.565,8,400,16,,ISIC_4093484.JPG
break,html.Screen,4_65_1,2023-09-11T18:04:36.715Z,,0,,,NaN,,,,,,false,,,,365382.1,365381.80000000005,,365380.69999999995,,365386.565,8,400,,,
break_continue,html.Screen,4_65_2,2023-09-11T18:04:36.715Z,,0,,,NaN,,,,,,false,,,,365382.4,365382.4,,365382.19999999995,,365386.565,8,400,,,
sequence,flow.Sequence,4_65,2023-09-11T18:04:36.715Z,,0,,,3160.2660000000033,completion,,,,,false,,,,365382.6,365382.4,362205.477,362217.80000000005,362222.134,365386.565,8,400,,,
trial,html.Screen,4_66_0,2023-09-11T18:04:40.025Z,,0,2,,3305.2350000000442,response,ISIC_4289906.JPG,4,ISIC_0072041.JPG,ISIC_0072041.JPG,false,0,keypress(z),500,368692.19999999995,368691.80000000005,365369.908,365382.69999999995,365386.565,368699.361,8,400,17,,ISIC_4289906.JPG
break,html.Screen,4_66_1,2023-09-11T18:04:40.027Z,,0,,,NaN,,,,,,false,,,,368694.1,368693.5,,368692.5,,368699.361,8,400,,,
break_continue,html.Screen,4_66_2,2023-09-11T18:04:40.027Z,,0,,,NaN,,,,,,false,,,,368695,368694.80000000005,,368694.4,,368699.361,8,400,,,
sequence,flow.Sequence,4_66,2023-09-11T18:04:40.028Z,,0,,,3308.2350000000442,completion,,,,,false,,,,368695.30000000005,368694.80000000005,365369.908,365382.69999999995,365386.565,368699.361,8,400,,,
trial,html.Screen,4_67_0,2023-09-11T18:04:42.991Z,,0,2,,2959.039000000048,response,ISIC_0058033.JPG,6,ISIC_9160614.JPG,ISIC_0058033.JPG,false,1,keypress(m),500,371658.9,371658.4,368682.704,368695.5,368699.361,371675.998,8,400,18,,ISIC_9160614.JPG
break,html.Screen,4_67_1,2023-09-11T18:04:42.993Z,,0,,,NaN,,,,,,false,,,,371660.9,371660.30000000005,,371659.30000000005,,371675.998,8,400,,,
break_continue,html.Screen,4_67_2,2023-09-11T18:04:42.994Z,,0,,,NaN,,,,,,false,,,,371661.6,371661.4,,371661,,371675.998,8,400,,,
sequence,flow.Sequence,4_67,2023-09-11T18:04:42.994Z,,0,,,2962.039000000048,completion,,,,,false,,,,371661.80000000005,371661.4,368682.704,368695.5,368699.361,371675.998,8,400,,,
trial,html.Screen,4_68_0,2023-09-11T18:04:46.720Z,,0,2,,3710.902000000002,response,ISIC_0033394.JPG,4,ISIC_0060446.JPG,ISIC_0060446.JPG,false,0,keypress(z),500,375387.19999999995,375386.9,371659.341,371662.1,371675.998,375410.358,8,400,19,,ISIC_0033394.JPG
break,html.Screen,4_68_1,2023-09-11T18:04:46.722Z,,0,,,NaN,,,,,,false,,,,375389.5,375388.9,,375387.6,,375410.358,8,400,,,
break_continue,html.Screen,4_68_2,2023-09-11T18:04:46.723Z,,0,,,NaN,,,,,,false,,,,375390.4,375390.19999999995,,375389.69999999995,,375410.358,8,400,,,
sequence,flow.Sequence,4_68,2023-09-11T18:04:46.723Z,,0,,,3714.201999999932,completion,,,,,false,,,,375390.69999999995,375390.19999999995,371659.341,371662.1,371675.998,375410.358,8,400,,,
trial,html.Screen,4_69_0,2023-09-11T18:04:49.542Z,,0,2,,2798.841999999946,response,ISIC_2930792.JPG,5,ISIC_0030254.JPG,ISIC_2930792.JPG,false,1,keypress(m),500,378209.69999999995,378209.19999999995,375393.701,375391,375410.358,378214.778,8,400,20,,ISIC_0030254.JPG
break,html.Screen,4_69_1,2023-09-11T18:04:49.544Z,,0,,,NaN,,,,,,false,,,,378211.6,378211.1,,378210,,378214.778,8,400,,,
break_continue,html.Screen,4_69_2,2023-09-11T18:04:49.545Z,,0,,,NaN,,,,,,false,,,,378212.30000000005,378212.1,,378211.80000000005,,378214.778,8,400,,,
sequence,flow.Sequence,4_69,2023-09-11T18:04:49.545Z,,0,,,2801.7419999999693,completion,,,,,false,,,,378212.69999999995,378212.1,375393.701,375390.9,375410.358,378214.778,8,400,,,
trial,html.Screen,4_70_0,2023-09-11T18:04:53.773Z,,0,2,,4224.921999999962,response,ISIC_5717433.JPG,5,ISIC_7283084.JPG,ISIC_5717433.JPG,false,1,keypress(m),500,382440.1,382439.69999999995,378198.121,378212.80000000005,378214.778,382453.947,8,400,21,,ISIC_7283084.JPG
break,html.Screen,4_70_1,2023-09-11T18:04:53.775Z,,0,,,NaN,,,,,,false,,,,382442.19999999995,382441.69999999995,,382440.4,,382453.947,8,400,,,
break_continue,html.Screen,4_70_2,2023-09-11T18:04:53.776Z,,0,,,NaN,,,,,,false,,,,382443.19999999995,382442.9,,382442.4,,382453.947,8,400,,,
sequence,flow.Sequence,4_70,2023-09-11T18:04:53.776Z,,0,,,4228.122000000032,completion,,,,,false,,,,382443.5,382442.9,378198.121,378212.80000000005,378214.778,382453.947,8,400,,,
trial,html.Screen,4_71_0,2023-09-11T18:04:56.696Z,,0,2,,2908.853000000061,response,ISIC_0014108.JPG,4,ISIC_0028998.JPG,ISIC_0028998.JPG,false,0,keypress(z),500,385363.19999999995,385362.80000000005,382437.29,382443.69999999995,382453.947,385386.884,8,400,22,,ISIC_0014108.JPG
break,html.Screen,4_71_1,2023-09-11T18:04:56.697Z,,0,,,NaN,,,,,,false,,,,385365,385364.4,,385363.6,,385386.884,8,400,,,
break_continue,html.Screen,4_71_2,2023-09-11T18:04:56.698Z,,0,,,NaN,,,,,,false,,,,385365.9,385365.69999999995,,385365.19999999995,,385386.884,8,400,,,
sequence,flow.Sequence,4_71,2023-09-11T18:04:56.699Z,,0,,,2911.752999999968,completion,,,,,false,,,,385366.19999999995,385365.69999999995,382437.29,382443.69999999995,382453.947,385386.884,8,400,,,
trial,html.Screen,4_72_0,2023-09-11T18:04:59.656Z,,0,2,,2935.9160000000265,response,ISIC_0029283.JPG,5,ISIC_9547089.JPG,ISIC_0029283.JPG,false,1,keypress(m),500,388323.19999999995,388322.80000000005,385370.227,385366.4,385386.884,388327.071,8,400,23,,ISIC_9547089.JPG
break,html.Screen,4_72_1,2023-09-11T18:04:59.658Z,,0,,,NaN,,,,,,false,,,,388325.4,388324.80000000005,,388323.69999999995,,388327.071,8,400,,,
break_continue,html.Screen,4_72_2,2023-09-11T18:04:59.659Z,,0,,,NaN,,,,,,false,,,,388326.4,388326.1,,388325.69999999995,,388327.071,8,400,,,
sequence,flow.Sequence,4_72,2023-09-11T18:04:59.659Z,,0,,,2939.2159999999567,completion,,,,,false,,,,388326.69999999995,388326.1,385370.227,385366.30000000005,385386.884,388327.071,8,400,,,
trial,html.Screen,4_73_0,2023-09-11T18:05:02.575Z,,0,2,,2915.329000000027,response,ISIC_0025512.JPG,6,ISIC_0283957.JPG,ISIC_0025512.JPG,false,1,keypress(m),500,391243,391242.4,388310.414,388326.9,388327.071,391248.444,8,400,24,,ISIC_0283957.JPG
break,html.Screen,4_73_1,2023-09-11T18:05:02.577Z,,0,,,NaN,,,,,,false,,,,391244.9,391244.4,,391243.4,,391248.444,8,400,,,
break_continue,html.Screen,4_73_2,2023-09-11T18:05:02.578Z,,0,,,NaN,,,,,,false,,,,391245.80000000005,391245.6,,391245.19999999995,,391248.444,8,400,,,
sequence,flow.Sequence,4_73,2023-09-11T18:05:02.579Z,,0,,,2918.5289999999804,completion,,,,,false,,,,391246.19999999995,391245.6,388310.414,388326.9,388327.071,391248.444,8,400,,,
trial,html.Screen,4_74_0,2023-09-11T18:05:05.509Z,,0,2,,2927.4560000000056,response,ISIC_0029705.JPG,5,ISIC_4938994.JPG,ISIC_0029705.JPG,false,1,keypress(m),500,394176.4,394175.9,391231.787,391246.4,391248.444,394183.195,8,400,25,,ISIC_4938994.JPG
break,html.Screen,4_74_1,2023-09-11T18:05:05.511Z,,0,,,NaN,,,,,,false,,,,394178.30000000005,394177.69999999995,,394176.69999999995,,394183.195,8,400,,,
break_continue,html.Screen,4_74_2,2023-09-11T18:05:05.512Z,,0,,,NaN,,,,,,false,,,,394179.1,394178.9,,394178.5,,394183.195,8,400,,,
sequence,flow.Sequence,4_74,2023-09-11T18:05:05.512Z,,0,,,2930.4560000000056,completion,,,,,false,,,,394179.4,394178.9,391231.787,391246.30000000005,391248.444,394183.195,8,400,,,
trial,html.Screen,4_75_0,2023-09-11T18:05:08.384Z,,0,2,,2867.6050000000396,response,ISIC_1460249.JPG,5,ISIC_1848300.JPG,ISIC_1460249.JPG,false,1,keypress(m),500,397051.19999999995,397050.80000000005,394166.538,394179.6,394183.195,397057.07,8,400,26,,ISIC_1848300.JPG
break,html.Screen,4_75_1,2023-09-11T18:05:08.386Z,,0,,,NaN,,,,,,false,,,,397053.19999999995,397052.80000000005,,397051.69999999995,,397057.07,8,400,,,
break_continue,html.Screen,4_75_2,2023-09-11T18:05:08.387Z,,0,,,NaN,,,,,,false,,,,397054.19999999995,397053.80000000005,,397053.4,,397057.07,8,400,,,
sequence,flow.Sequence,4_75,2023-09-11T18:05:08.387Z,,0,,,2870.6050000000396,completion,,,,,false,,,,397054.5,397053.80000000005,394166.538,394179.6,394183.195,397057.07,8,400,,,
trial,html.Screen,4_76_0,2023-09-11T18:05:11.688Z,,0,2,,3297.6299999999464,response,ISIC_0028910.JPG,4,ISIC_2768787.JPG,ISIC_0028910.JPG,false,1,keypress(m),500,400355.1,400354.69999999995,397040.413,397054.69999999995,397057.07,400362.277,8,400,27,,ISIC_2768787.JPG
break,html.Screen,4_76_1,2023-09-11T18:05:11.689Z,,0,,,NaN,,,,,,false,,,,400356.9,400356.30000000005,,400355.30000000005,,400362.277,8,400,,,
break_continue,html.Screen,4_76_2,2023-09-11T18:05:11.690Z,,0,,,NaN,,,,,,false,,,,400357.69999999995,400357.5,,400357.1,,400362.277,8,400,,,
sequence,flow.Sequence,4_76,2023-09-11T18:05:11.690Z,,0,,,3300.429999999993,completion,,,,,false,,,,400358,400357.5,397040.413,397054.6,397057.07,400362.277,8,400,,,
trial,html.Screen,4_77_0,2023-09-11T18:05:14.633Z,,0,2,,2937.5230000000447,response,ISIC_0011264.JPG,5,ISIC_0032546.JPG,ISIC_0011264.JPG,false,1,keypress(m),500,403300.30000000005,403299.80000000005,400345.62,400358.19999999995,400362.277,403305.06,8,400,28,,ISIC_0032546.JPG
break,html.Screen,4_77_1,2023-09-11T18:05:14.635Z,,0,,,NaN,,,,,,false,,,,403302.4,403301.69999999995,,403300.6,,403305.06,8,400,,,
break_continue,html.Screen,4_77_2,2023-09-11T18:05:14.636Z,,0,,,NaN,,,,,,false,,,,403303.30000000005,403303,,403302.6,,403305.06,8,400,,,
sequence,flow.Sequence,4_77,2023-09-11T18:05:14.636Z,,0,,,2940.722999999998,completion,,,,,false,,,,403303.69999999995,403303,400345.62,400358.1,400362.277,403305.06,8,400,,,
trial,html.Screen,4_78_0,2023-09-11T18:05:17.593Z,,0,2,,2954.740000000049,response,ISIC_0024258.JPG,6,ISIC_3474681.JPG,ISIC_0024258.JPG,false,1,keypress(m),500,406260.19999999995,406259.80000000005,403288.403,403303.80000000005,403305.06,406261.964,8,400,29,,ISIC_3474681.JPG
break,html.Screen,4_78_1,2023-09-11T18:05:17.595Z,,0,,,NaN,,,,,,false,,,,406262.4,406261.80000000005,,406260.6,,406261.964,8,400,,,
break_continue,html.Screen,4_78_2,2023-09-11T18:05:17.596Z,,0,,,NaN,,,,,,false,,,,406263.30000000005,406263.19999999995,,406262.69999999995,,406261.964,8,400,,,
sequence,flow.Sequence,4_78,2023-09-11T18:05:17.596Z,,0,,,2958.1399999999558,completion,,,,,false,,,,406263.69999999995,406263.19999999995,403288.403,403303.80000000005,403305.06,406261.964,8,400,,,
trial,html.Screen,4_79_0,2023-09-11T18:05:22.575Z,,0,2,,4980.036000000022,response,ISIC_8803600.JPG,5,ISIC_0033129.JPG,ISIC_0033129.JPG,false,0,keypress(z),500,411242.5,411242,406245.307,406263.9,406261.964,411256.057,8,400,30,,ISIC_8803600.JPG
break,html.Screen,4_79_1,2023-09-11T18:05:22.577Z,,0,,,NaN,,,,,,false,,,,411244.9,411244.4,,411242.80000000005,,411256.057,8,400,,,
break_continue,html.Screen,4_79_2,2023-09-11T18:05:22.578Z,,0,,,NaN,,,,,,false,,,,411245.69999999995,411245.4,,411245.1,,411256.057,8,400,,,
sequence,flow.Sequence,4_79,2023-09-11T18:05:22.578Z,,0,,,4983.436000000045,completion,,,,,false,,,,411246,411245.4,406245.307,406263.9,406261.964,411256.057,8,400,,,
trial,html.Screen,4_80_0,2023-09-11T18:05:25.605Z,,0,2,,3015.743000000075,response,ISIC_7236365.JPG,5,ISIC_0027596.JPG,ISIC_7236365.JPG,false,1,keypress(m),500,414272.1,414271.80000000005,411239.4,411246.1,411256.057,414281.218,8,400,31,,ISIC_0027596.JPG
break,html.Screen,4_80_1,2023-09-11T18:05:25.607Z,,0,,,NaN,,,,,,false,,,,414274.19999999995,414273.5,,414272.4,,414281.218,8,400,,,
break_continue,html.Screen,4_80_2,2023-09-11T18:05:25.607Z,,0,,,NaN,,,,,,false,,,,414274.9,414274.80000000005,,414274.4,,414281.218,8,400,,,
sequence,flow.Sequence,4_80,2023-09-11T18:05:25.607Z,,0,,,3018.743000000075,completion,,,,,false,,,,414275.1,414274.80000000005,411239.4,411246,411256.057,414281.218,8,400,,,
trial,html.Screen,4_81_0,2023-09-11T18:05:29.024Z,,0,2,,3409.582000000053,response,ISIC_0033496.JPG,5,ISIC_2294790.JPG,ISIC_0033496.JPG,false,1,keypress(m),500,417691.30000000005,417690.80000000005,414264.561,414275.1,414281.218,417699.731,8,400,32,,ISIC_2294790.JPG
break,html.Screen,4_81_1,2023-09-11T18:05:29.026Z,,0,,,NaN,,,,,,false,,,,417693.1,417692.69999999995,,417691.69999999995,,417699.731,8,400,,,
break_continue,html.Screen,4_81_2,2023-09-11T18:05:29.026Z,,0,,,NaN,,,,,,false,,,,417693.4,417693.30000000005,,417693.1,,417699.731,8,400,,,
sequence,flow.Sequence,4_81,2023-09-11T18:05:29.026Z,,0,,,3412.082000000053,completion,,,,,false,,,,417693.6,417693.30000000005,414264.561,414275.1,414281.218,417699.731,8,400,,,
trial,html.Screen,4_82_0,2023-09-11T18:05:32.500Z,,0,2,,3467.0690000000177,response,ISIC_9244047.JPG,5,ISIC_4798962.JPG,ISIC_4798962.JPG,false,0,keypress(z),500,421167.19999999995,421166.80000000005,417683.074,417693.69999999995,417699.731,421188.782,8,400,33,,ISIC_9244047.JPG
break,html.Screen,4_82_1,2023-09-11T18:05:32.501Z,,0,,,NaN,,,,,,false,,,,421169,421168.4,,421167.6,,421188.782,8,400,,,
break_continue,html.Screen,4_82_2,2023-09-11T18:05:32.502Z,,0,,,NaN,,,,,,false,,,,421169.80000000005,421169.6,,421169.19999999995,,421188.782,8,400,,,
sequence,flow.Sequence,4_82,2023-09-11T18:05:32.503Z,,0,,,3469.868999999948,completion,,,,,false,,,,421170.1,421169.6,417683.074,417693.69999999995,417699.731,421188.782,8,400,,,
trial,html.Screen,4_83_0,2023-09-11T18:05:36.122Z,,0,2,,3600.1180000000168,response,ISIC_0010322.JPG,6,ISIC_0056749.JPG,ISIC_0010322.JPG,false,1,keypress(m),500,424789.30000000005,424788.9,421172.125,421170.30000000005,421188.782,424800.325,8,400,34,,ISIC_0056749.JPG
break,html.Screen,4_83_1,2023-09-11T18:05:36.124Z,,0,,,NaN,,,,,,false,,,,424791.4,424790.9,,424789.69999999995,,424800.325,8,400,,,
break_continue,html.Screen,4_83_2,2023-09-11T18:05:36.125Z,,0,,,NaN,,,,,,false,,,,424792.30000000005,424792.1,,424791.6,,424800.325,8,400,,,
sequence,flow.Sequence,4_83,2023-09-11T18:05:36.125Z,,0,,,3603.31799999997,completion,,,,,false,,,,424792.6,424792.1,421172.125,421170.19999999995,421188.782,424800.325,8,400,,,
trial,html.Screen,4_84_0,2023-09-11T18:05:39.080Z,,0,2,,2946.475000000035,response,ISIC_0009880.JPG,6,ISIC_0010810.JPG,ISIC_0010810.JPG,false,0,keypress(z),500,427747.19999999995,427746.80000000005,424783.668,424792.80000000005,424800.325,427755.227,8,400,35,,ISIC_0009880.JPG
break,html.Screen,4_84_1,2023-09-11T18:05:39.082Z,,0,,,NaN,,,,,,false,,,,427749.30000000005,427748.80000000005,,427747.69999999995,,427755.227,8,400,,,
break_continue,html.Screen,4_84_2,2023-09-11T18:05:39.083Z,,0,,,NaN,,,,,,false,,,,427750.19999999995,427750,,427749.6,,427755.227,8,400,,,
sequence,flow.Sequence,4_84,2023-09-11T18:05:39.083Z,,0,,,2949.6749999999884,completion,,,,,false,,,,427750.5,427750,424783.668,424792.69999999995,424800.325,427755.227,8,400,,,
trial,html.Screen,4_85_0,2023-09-11T18:05:42.056Z,,0,2,,2967.7729999999865,response,ISIC_0060586.JPG,5,ISIC_5468164.JPG,ISIC_0060586.JPG,false,1,keypress(m),500,430723.5,430723,427738.57,427750.80000000005,427755.227,430731.9,8,400,36,,ISIC_5468164.JPG
break,html.Screen,4_85_1,2023-09-11T18:05:42.058Z,,0,,,NaN,,,,,,false,,,,430725.4,430724.69999999995,,430723.80000000005,,430731.9,8,400,,,
break_continue,html.Screen,4_85_2,2023-09-11T18:05:42.059Z,,0,,,NaN,,,,,,false,,,,430726.30000000005,430726,,430725.69999999995,,430731.9,8,400,,,
sequence,flow.Sequence,4_85,2023-09-11T18:05:42.059Z,,0,,,2970.7729999999865,completion,,,,,false,,,,430726.6,430726,427738.57,427750.80000000005,427755.227,430731.9,8,400,,,
trial,html.Screen,4_86_0,2023-09-11T18:05:45.305Z,,0,2,,3240,response,ISIC_0010730.JPG,5,ISIC_1795529.JPG,ISIC_1795529.JPG,false,0,keypress(z),500,433972.19999999995,433971.9,430715.243,430726.80000000005,430731.9,433976.413,8,400,37,,ISIC_0010730.JPG
break,html.Screen,4_86_1,2023-09-11T18:05:45.307Z,,0,,,NaN,,,,,,false,,,,433974.30000000005,433973.69999999995,,433972.5,,433976.413,8,400,,,
break_continue,html.Screen,4_86_2,2023-09-11T18:05:45.308Z,,0,,,NaN,,,,,,false,,,,433975.1,433974.80000000005,,433974.5,,433976.413,8,400,,,
sequence,flow.Sequence,4_86,2023-09-11T18:05:45.308Z,,0,,,3242.9000000000233,completion,,,,,false,,,,433975.30000000005,433974.80000000005,430715.243,430726.69999999995,430731.9,433976.413,8,400,,,
trial,html.Screen,4_87_0,2023-09-11T18:05:48.623Z,,0,2,,3313.6869999999763,response,ISIC_2805573.JPG,4,ISIC_0028219.JPG,ISIC_0028219.JPG,false,0,keypress(z),500,437290.6,437290.1,433959.756,433975.5,433976.413,437294.337,8,400,38,,ISIC_2805573.JPG
break,html.Screen,4_87_1,2023-09-11T18:05:48.625Z,,0,,,NaN,,,,,,false,,,,437292.69999999995,437292.19999999995,,437291,,437294.337,8,400,,,
break_continue,html.Screen,4_87_2,2023-09-11T18:05:48.626Z,,0,,,NaN,,,,,,false,,,,437293.6,437293.30000000005,,437292.9,,437294.337,8,400,,,
sequence,flow.Sequence,4_87,2023-09-11T18:05:48.626Z,,0,,,3316.887000000046,completion,,,,,false,,,,437294,437293.30000000005,433959.756,433975.5,433976.413,437294.337,8,400,,,
trial,html.Screen,4_88_0,2023-09-11T18:05:51.541Z,,0,2,,2913.5630000000237,response,ISIC_9751601.JPG,5,ISIC_0032597.JPG,ISIC_0032597.JPG,false,0,keypress(z),500,440208.4,440207.9,437277.68,437294.1,437294.337,440213.768,8,400,39,,ISIC_9751601.JPG
break,html.Screen,4_88_1,2023-09-11T18:05:51.543Z,,0,,,NaN,,,,,,false,,,,440210.5,440209.9,,440208.69999999995,,440213.768,8,400,,,
break_continue,html.Screen,4_88_2,2023-09-11T18:05:51.543Z,,0,,,NaN,,,,,,false,,,,440211.1,440211,,440210.69999999995,,440213.768,8,400,,,
sequence,flow.Sequence,4_88,2023-09-11T18:05:51.544Z,,0,,,2916.6630000000005,completion,,,,,false,,,,440211.19999999995,440211,437277.68,437294,437294.337,440213.768,8,400,,,
trial,html.Screen,4_89_0,2023-09-11T18:05:54.560Z,,0,2,,3013.0320000000647,response,ISIC_9756117.JPG,5,ISIC_0844312.JPG,ISIC_9756117.JPG,false,1,keypress(m),500,443227.1,443226.80000000005,440197.111,440211.30000000005,440213.768,443231.469,8,400,40,,ISIC_0844312.JPG
break,html.Screen,4_89_1,2023-09-11T18:05:54.562Z,,0,,,NaN,,,,,,false,,,,443229.19999999995,443228.6,,443227.6,,443231.469,8,400,,,
break_continue,html.Screen,4_89_2,2023-09-11T18:05:54.563Z,,0,,,NaN,,,,,,false,,,,443230.4,443230.19999999995,,443229.4,,443231.469,8,400,,,
sequence,flow.Sequence,4_89,2023-09-11T18:05:54.563Z,,0,,,3016.4319999999716,completion,,,,,false,,,,443230.69999999995,443230.19999999995,440197.111,440211.19999999995,440213.768,443231.469,8,400,,,
trial,html.Screen,4_90_0,2023-09-11T18:05:57.786Z,,0,2,,3219.9310000000405,response,ISIC_0025900.JPG,5,ISIC_0027472.JPG,ISIC_0027472.JPG,false,0,keypress(z),500,446453.19999999995,446451.4,443214.812,443230.9,443231.469,446462.643,8,400,41,,ISIC_0025900.JPG
break,html.Screen,4_90_1,2023-09-11T18:05:57.787Z,,0,,,NaN,,,,,,false,,,,446455,446454.6,,446453.6,,446462.643,8,400,,,
break_continue,html.Screen,4_90_2,2023-09-11T18:05:57.788Z,,0,,,NaN,,,,,,false,,,,446455.80000000005,446455.6,,446455.19999999995,,446462.643,8,400,,,
sequence,flow.Sequence,4_90,2023-09-11T18:05:57.789Z,,0,,,3224.130999999994,completion,,,,,false,,,,446456.1,446455.6,443214.812,443230.9,443231.469,446462.643,8,400,,,
trial,html.Screen,4_91_0,2023-09-11T18:06:00.744Z,,0,2,,2948.357000000018,response,ISIC_0958701.JPG,6,ISIC_0073173.JPG,ISIC_0073173.JPG,false,0,keypress(z),500,449411.69999999995,449411,446445.986,446456.30000000005,446462.643,449418.031,8,400,42,,ISIC_0958701.JPG
break,html.Screen,4_91_1,2023-09-11T18:06:00.746Z,,0,,,NaN,,,,,,false,,,,449413.6,449413.1,,449411.9,,449418.031,8,400,,,
break_continue,html.Screen,4_91_2,2023-09-11T18:06:00.747Z,,0,,,NaN,,,,,,false,,,,449414.4,449414.19999999995,,449413.80000000005,,449418.031,8,400,,,
sequence,flow.Sequence,4_91,2023-09-11T18:06:00.747Z,,0,,,2951.5569999999716,completion,,,,,false,,,,449414.69999999995,449414.19999999995,446445.986,446456.19999999995,446462.643,449418.031,8,400,,,
trial,html.Screen,4_92_0,2023-09-11T18:06:04.217Z,,0,2,,3465.7690000000293,response,ISIC_0067226.JPG,5,ISIC_9803747.JPG,ISIC_0067226.JPG,false,1,keypress(m),500,452884.19999999995,452883.80000000005,449401.374,449414.9,449418.031,452904.234,8,400,43,,ISIC_9803747.JPG
break,html.Screen,4_92_1,2023-09-11T18:06:04.219Z,,0,,,NaN,,,,,,false,,,,452886.1,452885.6,,452884.5,,452904.234,8,400,,,
break_continue,html.Screen,4_92_2,2023-09-11T18:06:04.219Z,,0,,,NaN,,,,,,false,,,,452887,452886.69999999995,,452886.30000000005,,452904.234,8,400,,,
sequence,flow.Sequence,4_92,2023-09-11T18:06:04.220Z,,0,,,3468.668999999936,completion,,,,,false,,,,452887.30000000005,452886.69999999995,449401.374,449414.80000000005,449418.031,452904.234,8,400,,,
trial,html.Screen,4_93_0,2023-09-11T18:06:08.736Z,,0,2,,4498.36599999998,response,ISIC_0339930.JPG,5,ISIC_0001120.JPG,ISIC_0339930.JPG,false,1,keypress(m),500,457403,457402.6,452887.577,452887.6,452904.234,457413.08,8,400,44,,ISIC_0001120.JPG
break,html.Screen,4_93_1,2023-09-11T18:06:08.738Z,,0,,,NaN,,,,,,false,,,,457405.19999999995,457404.69999999995,,457403.5,,457413.08,8,400,,,
break_continue,html.Screen,4_93_2,2023-09-11T18:06:08.739Z,,0,,,NaN,,,,,,false,,,,457406.1,457405.80000000005,,457405.5,,457413.08,8,400,,,
sequence,flow.Sequence,4_93,2023-09-11T18:06:08.739Z,,0,,,4501.56600000005,completion,,,,,false,,,,457406.5,457405.80000000005,452887.577,452887.5,452904.234,457413.08,8,400,,,
trial,html.Screen,4_94_0,2023-09-11T18:06:11.622Z,,0,2,,2875.9199999999837,response,ISIC_0011136.JPG,4,ISIC_6562871.JPG,ISIC_6562871.JPG,false,0,keypress(z),500,460289.30000000005,460289,457396.423,457406.69999999995,457413.08,460296.87,8,400,45,,ISIC_0011136.JPG
break,html.Screen,4_94_1,2023-09-11T18:06:11.624Z,,0,,,NaN,,,,,,false,,,,460291.30000000005,460290.80000000005,,460289.69999999995,,460296.87,8,400,,,
break_continue,html.Screen,4_94_2,2023-09-11T18:06:11.625Z,,0,,,NaN,,,,,,false,,,,460292.19999999995,460291.9,,460291.5,,460296.87,8,400,,,
sequence,flow.Sequence,4_94,2023-09-11T18:06:11.625Z,,0,,,2878.820000000007,completion,,,,,false,,,,460292.5,460291.9,457396.423,457406.69999999995,457413.08,460296.87,8,400,,,
trial,html.Screen,4_95_0,2023-09-11T18:06:16.315Z,,0,2,,4685.729999999981,response,ISIC_0032244.JPG,5,ISIC_0070387.JPG,ISIC_0032244.JPG,false,1,keypress(m),500,464982.9,464982.6,460280.213,460292.69999999995,460296.87,464992.058,8,400,46,,ISIC_0070387.JPG
break,html.Screen,4_95_1,2023-09-11T18:06:16.317Z,,0,,,NaN,,,,,,false,,,,464984.9,464984.30000000005,,464983.30000000005,,464992.058,8,400,,,
break_continue,html.Screen,4_95_2,2023-09-11T18:06:16.318Z,,0,,,NaN,,,,,,false,,,,464985.69999999995,464985.4,,464985.1,,464992.058,8,400,,,
sequence,flow.Sequence,4_95,2023-09-11T18:06:16.318Z,,0,,,4688.530000000028,completion,,,,,false,,,,464985.9,464985.4,460280.213,460292.69999999995,460296.87,464992.058,8,400,,,
trial,html.Screen,4_96_0,2023-09-11T18:06:19.137Z,,0,2,,2811.7420000000275,response,ISIC_7814144.JPG,4,ISIC_4459125.JPG,ISIC_7814144.JPG,false,1,keypress(m),500,467804.19999999995,467803.80000000005,464975.401,464986.1,464992.058,467819.266,8,400,47,,ISIC_4459125.JPG
break,html.Screen,4_96_1,2023-09-11T18:06:19.139Z,,0,,,NaN,,,,,,false,,,,467806.30000000005,467805.9,,467804.6,,467819.266,8,400,,,
break_continue,html.Screen,4_96_2,2023-09-11T18:06:19.139Z,,0,,,NaN,,,,,,false,,,,467806.69999999995,467806.6,,467806.4,,467819.266,8,400,,,
sequence,flow.Sequence,4_96,2023-09-11T18:06:19.139Z,,0,,,2814.5419999999576,completion,,,,,false,,,,467806.9,467806.6,464975.401,464986.1,464992.058,467819.266,8,400,,,
trial,html.Screen,4_97_0,2023-09-11T18:06:22.096Z,,0,2,,2943.7339999999967,response,ISIC_5559165.JPG,5,ISIC_0068477.JPG,ISIC_0068477.JPG,false,0,keypress(z),500,470763.5,470763,467802.609,467806.9,467819.266,470775.224,8,400,48,,ISIC_5559165.JPG
break,html.Screen,4_97_1,2023-09-11T18:06:22.098Z,,0,,,NaN,,,,,,false,,,,470765.69999999995,470764.80000000005,,470763.80000000005,,470775.224,8,400,,,
break_continue,html.Screen,4_97_2,2023-09-11T18:06:22.099Z,,0,,,NaN,,,,,,false,,,,470766.6,470766.30000000005,,470765.9,,470775.224,8,400,,,
sequence,flow.Sequence,4_97,2023-09-11T18:06:22.099Z,,0,,,2947.0340000000433,completion,,,,,false,,,,470766.9,470766.30000000005,467802.609,467806.9,467819.266,470775.224,8,400,,,
trial,html.Screen,4_98_0,2023-09-11T18:06:26.632Z,,0,2,,4523.576000000059,response,ISIC_6065301.JPG,5,ISIC_6875745.JPG,ISIC_6875745.JPG,false,0,keypress(z),500,475299.1,475298.80000000005,470758.567,470767.1,470775.224,475310.646,8,400,49,,ISIC_6065301.JPG
break,html.Screen,4_98_1,2023-09-11T18:06:26.633Z,,0,,,NaN,,,,,,false,,,,475300.80000000005,475300.30000000005,,475299.5,,475310.646,8,400,,,
break_continue,html.Screen,4_98_2,2023-09-11T18:06:26.634Z,,0,,,NaN,,,,,,false,,,,475301.5,475301.30000000005,,475301,,475310.646,8,400,,,
sequence,flow.Sequence,4_98,2023-09-11T18:06:26.634Z,,0,,,4526.076000000059,completion,,,,,false,,,,475301.9,475301.30000000005,470758.567,470767,470775.224,475310.646,8,400,,,
trial,html.Screen,4_99_0,2023-09-11T18:06:30.477Z,,0,2,,3833.353999999992,response,ISIC_1988080.JPG,4,ISIC_4787403.JPG,ISIC_1988080.JPG,false,1,keypress(m),500,479144.6,479144,475293.989,475302.1,475310.646,479155.905,8,400,50,,ISIC_4787403.JPG
break,html.Screen,4_99_1,2023-09-11T18:06:40.760Z,,0,,,24806.851999999955,timeout,,,,,false,,,,489427.1,489426.69999999995,479139.248,479145,479155.905,503962.757,8,400,,,
break_continue,html.Screen,4_99_2,2023-09-11T18:07:23.578Z,,0,,,28234.842999999993,response,,,,,false,continue,keypress(Space),,532245.2,532197.6,489426.69999999995,489427.30000000005,503962.757,532258.32,8,400,,,
sequence,flow.Sequence,4_99,2023-09-11T18:07:23.578Z,,0,,,56886.95399999997,completion,,,,,false,,,,532245.3,532197.6,475293.989,475302,475310.646,532258.32,8,400,,,
trial,html.Screen,4_100_0,2023-09-11T18:07:28.220Z,,0,3,,4628.5800000000745,response,ISIC_0058858.JPG,4,ISIC_2147549.JPG,ISIC_0058858.JPG,false,1,keypress(m),500,536887.3,536886.9,532241.663,532245.5,532258.32,536903.888,8,400,1,,ISIC_2147549.JPG
break,html.Screen,4_100_1,2023-09-11T18:07:28.222Z,,0,,,NaN,,,,,,false,,,,536889.3,536888.8,,536887.7,,536903.888,8,400,,,
break_continue,html.Screen,4_100_2,2023-09-11T18:07:28.223Z,,0,,,NaN,,,,,,false,,,,536890.3,536890,,536889.6,,536903.888,8,400,,,
sequence,flow.Sequence,4_100,2023-09-11T18:07:28.223Z,,0,,,4631.680000000051,completion,,,,,false,,,,536890.6,536890,532241.663,532245.4,532258.32,536903.888,8,400,,,
trial,html.Screen,4_101_0,2023-09-11T18:07:33.490Z,,0,3,,5253.0119999998715,response,ISIC_5059476.JPG,4,ISIC_1640823.JPG,ISIC_1640823.JPG,false,0,keypress(z),500,542157.3,542156.8999999999,536887.231,536890.7,536903.888,542170.881,8,400,2,,ISIC_5059476.JPG
break,html.Screen,4_101_1,2023-09-11T18:07:33.492Z,,0,,,NaN,,,,,,false,,,,542159.3,542158.7,,542157.6000000001,,542170.881,8,400,,,
break_continue,html.Screen,4_101_2,2023-09-11T18:07:33.493Z,,0,,,NaN,,,,,,false,,,,542160.2,542159.8999999999,,542159.5,,542170.881,8,400,,,
sequence,flow.Sequence,4_101,2023-09-11T18:07:33.493Z,,0,,,5256.0119999998715,completion,,,,,false,,,,542160.3999999999,542159.8999999999,536887.231,536890.7,536903.888,542170.881,8,400,,,
trial,html.Screen,4_102_0,2023-09-11T18:07:36.568Z,,0,3,,3063.9189999999944,response,ISIC_0061735.JPG,4,ISIC_0059773.JPG,ISIC_0059773.JPG,false,0,keypress(z),500,545235.1000000001,545234.8,542154.224,542160.7,542170.881,545243.209,8,400,3,,ISIC_0061735.JPG
break,html.Screen,4_102_1,2023-09-11T18:07:36.570Z,,0,,,NaN,,,,,,false,,,,545237.2,545236.6000000001,,545235.5,,545243.209,8,400,,,
break_continue,html.Screen,4_102_2,2023-09-11T18:07:36.570Z,,0,,,NaN,,,,,,false,,,,545238,545237.8,,545237.3,,545243.209,8,400,,,
sequence,flow.Sequence,4_102,2023-09-11T18:07:36.571Z,,0,,,3066.9189999999944,completion,,,,,false,,,,545238.2,545237.8,542154.224,542160.6000000001,542170.881,545243.209,8,400,,,
trial,html.Screen,4_103_0,2023-09-11T18:07:40.701Z,,0,3,,4125.3910000000615,response,ISIC_6569060.JPG,5,ISIC_0011471.JPG,ISIC_0011471.JPG,false,0,keypress(z),500,549369,549368.6000000001,545226.552,545238.5,545243.209,549381.863,8,400,4,,ISIC_6569060.JPG
break,html.Screen,4_103_1,2023-09-11T18:07:40.704Z,,0,,,NaN,,,,,,false,,,,549371.2,549370.7,,549369.3,,549381.863,8,400,,,
break_continue,html.Screen,4_103_2,2023-09-11T18:07:40.705Z,,0,,,NaN,,,,,,false,,,,549372,549371.8,,549371.3999999999,,549381.863,8,400,,,
sequence,flow.Sequence,4_103,2023-09-11T18:07:40.705Z,,0,,,4128.591000000015,completion,,,,,false,,,,549372.3,549371.8,545226.552,545238.3999999999,545243.209,549381.863,8,400,,,
trial,html.Screen,4_104_0,2023-09-11T18:07:43.864Z,,0,3,,3148.9370000000345,response,ISIC_3166535.JPG,6,ISIC_7642142.JPG,ISIC_3166535.JPG,false,1,keypress(m),500,552531.3,552530.8,549365.206,549372.6000000001,549381.863,552543.208,8,400,5,,ISIC_7642142.JPG
break,html.Screen,4_104_1,2023-09-11T18:07:43.866Z,,0,,,NaN,,,,,,false,,,,552533.7,552532.7,,552531.7,,552543.208,8,400,,,
break_continue,html.Screen,4_104_2,2023-09-11T18:07:43.867Z,,0,,,NaN,,,,,,false,,,,552534.6000000001,552534.3,,552533.8999999999,,552543.208,8,400,,,
sequence,flow.Sequence,4_104,2023-09-11T18:07:43.867Z,,0,,,3152.4370000000345,completion,,,,,false,,,,552534.8999999999,552534.3,549365.206,549372.5,549381.863,552543.208,8,400,,,
trial,html.Screen,4_105_0,2023-09-11T18:07:47.193Z,,0,3,,3316.6919999999227,response,ISIC_2483825.JPG,6,ISIC_6647306.JPG,ISIC_2483825.JPG,false,1,keypress(m),500,555860.3,555859.8999999999,552526.551,552535.2,552543.208,555866.036,8,400,6,,ISIC_6647306.JPG
break,html.Screen,4_105_1,2023-09-11T18:07:47.195Z,,0,,,NaN,,,,,,false,,,,555862.3999999999,555862,,555860.7,,555866.036,8,400,,,
break_continue,html.Screen,4_105_2,2023-09-11T18:07:47.196Z,,0,,,NaN,,,,,,false,,,,555863.3,555863.1000000001,,555862.7,,555866.036,8,400,,,
sequence,flow.Sequence,4_105,2023-09-11T18:07:47.196Z,,0,,,3319.892000000109,completion,,,,,false,,,,555863.6000000001,555863.1000000001,552526.551,552535.1000000001,552543.208,555866.036,8,400,,,
trial,html.Screen,4_106_0,2023-09-11T18:07:50.672Z,,0,3,,3472.6639999999898,response,ISIC_2034687.JPG,4,ISIC_6184891.JPG,ISIC_2034687.JPG,false,1,keypress(m),500,559339.2,559338.7,555849.379,555863.8999999999,555866.036,559353.391,8,400,7,,ISIC_6184891.JPG
break,html.Screen,4_106_1,2023-09-11T18:07:50.673Z,,0,,,NaN,,,,,,false,,,,559341,559340.3999999999,,559339.6000000001,,559353.391,8,400,,,
break_continue,html.Screen,4_106_2,2023-09-11T18:07:50.674Z,,0,,,NaN,,,,,,false,,,,559341.8,559341.6000000001,,559341.2,,559353.391,8,400,,,
sequence,flow.Sequence,4_106,2023-09-11T18:07:50.675Z,,0,,,3475.5640000001295,completion,,,,,false,,,,559342.2,559341.6000000001,555849.379,555863.8,555866.036,559353.391,8,400,,,
trial,html.Screen,4_107_0,2023-09-11T18:07:53.640Z,,0,3,,2953.4090000001015,response,ISIC_7203184.JPG,4,ISIC_6178088.JPG,ISIC_7203184.JPG,false,1,keypress(m),500,562307.3,562306.8,559336.734,559342.3999999999,559353.391,562316.941,8,400,8,,ISIC_6178088.JPG
break,html.Screen,4_107_1,2023-09-11T18:07:53.642Z,,0,,,NaN,,,,,,false,,,,562309.3999999999,562308.8,,562307.6000000001,,562316.941,8,400,,,
break_continue,html.Screen,4_107_2,2023-09-11T18:07:53.643Z,,0,,,NaN,,,,,,false,,,,562310.3,562310,,562309.7,,562316.941,8,400,,,
sequence,flow.Sequence,4_107,2023-09-11T18:07:53.643Z,,0,,,2956.609000000055,completion,,,,,false,,,,562310.7,562310,559336.734,559342.3999999999,559353.391,562316.941,8,400,,,
trial,html.Screen,4_108_0,2023-09-11T18:07:57.160Z,,0,3,,3509.859000000055,response,ISIC_0066001.JPG,5,ISIC_4564960.JPG,ISIC_4564960.JPG,false,0,keypress(z),500,565827.3,565826.8,562300.284,562310.8999999999,562316.941,565853.001,8,400,9,,ISIC_0066001.JPG
break,html.Screen,4_108_1,2023-09-11T18:07:57.161Z,,0,,,NaN,,,,,,false,,,,565828.8999999999,565828.3999999999,,565827.6000000001,,565853.001,8,400,,,
break_continue,html.Screen,4_108_2,2023-09-11T18:07:57.162Z,,0,,,NaN,,,,,,false,,,,565829.8,565829.6000000001,,565829.1000000001,,565853.001,8,400,,,
sequence,flow.Sequence,4_108,2023-09-11T18:07:57.163Z,,0,,,3512.6590000001015,completion,,,,,false,,,,565830.2,565829.6000000001,562300.284,562310.8999999999,562316.941,565853.001,8,400,,,
trial,html.Screen,4_109_0,2023-09-11T18:08:01.088Z,,0,3,,3901.798999999999,response,ISIC_0011627.JPG,6,ISIC_0028082.JPG,ISIC_0011627.JPG,false,1,keypress(m),500,569755.3,569754.8,565836.344,565830.3,565853.001,569766.206,8,400,10,,ISIC_0028082.JPG
break,html.Screen,4_109_1,2023-09-11T18:08:01.090Z,,0,,,NaN,,,,,,false,,,,569757.3999999999,569756.8999999999,,569755.7,,569766.206,8,400,,,
break_continue,html.Screen,4_109_2,2023-09-11T18:08:01.091Z,,0,,,NaN,,,,,,false,,,,569758.3,569758,,569757.6000000001,,569766.206,8,400,,,
sequence,flow.Sequence,4_109,2023-09-11T18:08:01.091Z,,0,,,3904.9989999999525,completion,,,,,false,,,,569758.7,569758,565836.344,565830.3,565853.001,569766.206,8,400,,,
trial,html.Screen,4_110_0,2023-09-11T18:08:04.256Z,,0,3,,3156.594000000041,response,ISIC_0011810.JPG,4,ISIC_0013501.JPG,ISIC_0011810.JPG,false,1,keypress(m),500,572923.3,572922.8,569749.549,569758.8,569766.206,572930.995,8,400,11,,ISIC_0013501.JPG
break,html.Screen,4_110_1,2023-09-11T18:08:04.258Z,,0,,,NaN,,,,,,false,,,,572925.3999999999,572924.8,,572923.7,,572930.995,8,400,,,
break_continue,html.Screen,4_110_2,2023-09-11T18:08:04.259Z,,0,,,NaN,,,,,,false,,,,572926.3,572925.8999999999,,572925.6000000001,,572930.995,8,400,,,
sequence,flow.Sequence,4_110,2023-09-11T18:08:04.259Z,,0,,,3159.6939999999013,completion,,,,,false,,,,572926.6000000001,572925.8999999999,569749.549,569758.8,569766.206,572930.995,8,400,,,
trial,html.Screen,4_111_0,2023-09-11T18:08:07.136Z,,0,3,,2871.805000000051,response,ISIC_1490986.JPG,5,ISIC_6108795.JPG,ISIC_1490986.JPG,false,1,keypress(m),500,575803.3,575802.8,572914.338,572926.8,572930.995,575831.148,8,400,12,,ISIC_6108795.JPG
break,html.Screen,4_111_1,2023-09-11T18:08:07.138Z,,0,,,NaN,,,,,,false,,,,575805.1000000001,575804.6000000001,,575803.6000000001,,575831.148,8,400,,,
break_continue,html.Screen,4_111_2,2023-09-11T18:08:07.138Z,,0,,,NaN,,,,,,false,,,,575805.8999999999,575805.7,,575805.3,,575831.148,8,400,,,
sequence,flow.Sequence,4_111,2023-09-11T18:08:07.139Z,,0,,,2874.704999999958,completion,,,,,false,,,,575806.2,575805.7,572914.338,572926.8,572930.995,575831.148,8,400,,,
trial,html.Screen,4_112_0,2023-09-11T18:08:10.342Z,,0,3,,3177.5519999999087,response,ISIC_0000239.JPG,5,ISIC_6517663.JPG,ISIC_0000239.JPG,false,1,keypress(m),500,579009.2,579008.7,575814.491,575806.5,575831.148,579020.93,8,400,13,,ISIC_6517663.JPG
break,html.Screen,4_112_1,2023-09-11T18:08:10.344Z,,0,,,NaN,,,,,,false,,,,579011.3,579010.7,,579009.5,,579020.93,8,400,,,
break_continue,html.Screen,4_112_2,2023-09-11T18:08:10.345Z,,0,,,NaN,,,,,,false,,,,579012.2,579011.8,,579011.5,,579020.93,8,400,,,
sequence,flow.Sequence,4_112,2023-09-11T18:08:10.345Z,,0,,,3180.652000000002,completion,,,,,false,,,,579012.3999999999,579011.8,575814.491,575806.3999999999,575831.148,579020.93,8,400,,,
trial,html.Screen,4_113_0,2023-09-11T18:08:13.808Z,,0,3,,3453.769999999902,response,ISIC_0007257.JPG,4,ISIC_0071740.JPG,ISIC_0071740.JPG,false,0,keypress(z),500,582475.1000000001,582474.7,579004.273,579012.7,579020.93,582486.495,8,400,14,,ISIC_0007257.JPG
break,html.Screen,4_113_1,2023-09-11T18:08:13.809Z,,0,,,NaN,,,,,,false,,,,582476.8,582476.3,,582475.3999999999,,582486.495,8,400,,,
break_continue,html.Screen,4_113_2,2023-09-11T18:08:13.810Z,,0,,,NaN,,,,,,false,,,,582477.6000000001,582477.3999999999,,582477,,582486.495,8,400,,,
sequence,flow.Sequence,4_113,2023-09-11T18:08:13.810Z,,0,,,3456.4699999998556,completion,,,,,false,,,,582478,582477.3999999999,579004.273,579012.6000000001,579020.93,582486.495,8,400,,,
trial,html.Screen,4_114_0,2023-09-11T18:08:16.801Z,,0,3,,2981.305000000051,response,ISIC_0046405.JPG,4,ISIC_8130596.JPG,ISIC_0046405.JPG,false,1,keypress(m),500,585468.3,585467.8,582469.838,582478.2,582486.495,585473.957,8,400,15,,ISIC_8130596.JPG
break,html.Screen,4_114_1,2023-09-11T18:08:16.803Z,,0,,,NaN,,,,,,false,,,,585470.5,585469.8999999999,,585468.6000000001,,585473.957,8,400,,,
break_continue,html.Screen,4_114_2,2023-09-11T18:08:16.804Z,,0,,,NaN,,,,,,false,,,,585471.3999999999,585471.1000000001,,585470.7,,585473.957,8,400,,,
sequence,flow.Sequence,4_114,2023-09-11T18:08:16.804Z,,0,,,2984.605000000098,completion,,,,,false,,,,585471.8,585471.1000000001,582469.838,582478.1000000001,582486.495,585473.957,8,400,,,
trial,html.Screen,4_115_0,2023-09-11T18:08:19.856Z,,0,3,,3049.64300000004,response,ISIC_0011612.JPG,4,ISIC_7450481.JPG,ISIC_0011612.JPG,false,1,keypress(m),500,588524.1000000001,588523.6000000001,585457.3,585472,585473.957,588528.19,8,400,16,,ISIC_7450481.JPG
break,html.Screen,4_115_1,2023-09-11T18:08:19.859Z,,0,,,NaN,,,,,,false,,,,588526.2,588525.5,,588524.3999999999,,588528.19,8,400,,,
break_continue,html.Screen,4_115_2,2023-09-11T18:08:19.860Z,,0,,,NaN,,,,,,false,,,,588527.5,588527.1000000001,,588526.3999999999,,588528.19,8,400,,,
sequence,flow.Sequence,4_115,2023-09-11T18:08:19.860Z,,0,,,3053.14300000004,completion,,,,,false,,,,588527.8,588527.1000000001,585457.3,585471.8999999999,585473.957,588528.19,8,400,,,
trial,html.Screen,4_116_0,2023-09-11T18:08:23.040Z,,0,3,,3178.7099999999627,response,ISIC_7582818.JPG,4,ISIC_0028859.JPG,ISIC_0028859.JPG,false,0,keypress(z),500,591707.3999999999,591706.8999999999,588511.533,588528.1000000001,588528.19,591718.359,8,400,17,,ISIC_7582818.JPG
break,html.Screen,4_116_1,2023-09-11T18:08:23.042Z,,0,,,NaN,,,,,,false,,,,591709.3,591708.7,,591707.7,,591718.359,8,400,,,
break_continue,html.Screen,4_116_2,2023-09-11T18:08:23.043Z,,0,,,NaN,,,,,,false,,,,591710.3,591710,,591709.6000000001,,591718.359,8,400,,,
sequence,flow.Sequence,4_116,2023-09-11T18:08:23.043Z,,0,,,3181.810000000056,completion,,,,,false,,,,591710.5,591710,588511.533,588528,588528.19,591718.359,8,400,,,
trial,html.Screen,4_117_0,2023-09-11T18:08:26.150Z,,0,3,,3098.640999999945,response,ISIC_6809191.JPG,5,ISIC_5642824.JPG,ISIC_5642824.JPG,false,0,keypress(z),500,594817.3999999999,594817,591701.702,591710.8,591718.359,594829.936,8,400,18,,ISIC_6809191.JPG
break,html.Screen,4_117_1,2023-09-11T18:08:26.152Z,,0,,,NaN,,,,,,false,,,,594819.5,594819,,594817.8,,594829.936,8,400,,,
break_continue,html.Screen,4_117_2,2023-09-11T18:08:26.153Z,,0,,,NaN,,,,,,false,,,,594820.3999999999,594820.2,,594819.7,,594829.936,8,400,,,
sequence,flow.Sequence,4_117,2023-09-11T18:08:26.153Z,,0,,,3101.8409999998985,completion,,,,,false,,,,594820.8,594820.2,591701.702,591710.7,591718.359,594829.936,8,400,,,
trial,html.Screen,4_118_0,2023-09-11T18:08:29.244Z,,0,3,,3081.3640000000596,response,ISIC_7062293.JPG,6,ISIC_0059349.JPG,ISIC_0059349.JPG,false,0,keypress(z),500,597911.8,597911.3,594813.279,594821,594829.936,597921.854,8,400,19,,ISIC_7062293.JPG
break,html.Screen,4_118_1,2023-09-11T18:08:29.246Z,,0,,,NaN,,,,,,false,,,,597913.8,597913.3,,597912.2,,597921.854,8,400,,,
break_continue,html.Screen,4_118_2,2023-09-11T18:08:29.247Z,,0,,,NaN,,,,,,false,,,,597914.8,597914.5,,597914,,597921.854,8,400,,,
sequence,flow.Sequence,4_118,2023-09-11T18:08:29.248Z,,0,,,3084.564000000013,completion,,,,,false,,,,597915.1000000001,597914.5,594813.279,594821,594829.936,597921.854,8,400,,,
trial,html.Screen,4_119_0,2023-09-11T18:08:32.792Z,,0,3,,3536.9459999999963,response,ISIC_0028291.JPG,5,ISIC_0000516.JPG,ISIC_0000516.JPG,false,0,keypress(z),500,601459.3,601458.8,597905.197,597915.3,597921.854,601466.586,8,400,20,,ISIC_0028291.JPG
break,html.Screen,4_119_1,2023-09-11T18:08:32.794Z,,0,,,NaN,,,,,,false,,,,601461.3,601460.7,,601459.7,,601466.586,8,400,,,
break_continue,html.Screen,4_119_2,2023-09-11T18:08:32.795Z,,0,,,NaN,,,,,,false,,,,601462.2,601461.8999999999,,601461.3999999999,,601466.586,8,400,,,
sequence,flow.Sequence,4_119,2023-09-11T18:08:32.797Z,,0,,,3540.0459999998566,completion,,,,,false,,,,601464.5,601461.8999999999,597905.197,597915.3,597921.854,601466.586,8,400,,,
trial,html.Screen,4_120_0,2023-09-11T18:08:35.688Z,,0,3,,2888.3139999998966,response,ISIC_0015129.JPG,4,ISIC_3869533.JPG,ISIC_0015129.JPG,false,1,keypress(m),500,604355.3,604354.8999999999,601449.929,601464.8,601466.586,604363.757,8,400,21,,ISIC_3869533.JPG
break,html.Screen,4_120_1,2023-09-11T18:08:35.690Z,,0,,,NaN,,,,,,false,,,,604357.3,604356.8,,604355.7,,604363.757,8,400,,,
break_continue,html.Screen,4_120_2,2023-09-11T18:08:35.691Z,,0,,,NaN,,,,,,false,,,,604358.3,604358,,604357.6000000001,,604363.757,8,400,,,
sequence,flow.Sequence,4_120,2023-09-11T18:08:35.691Z,,0,,,2891.4139999999898,completion,,,,,false,,,,604358.7,604358,601449.929,601464.8,601466.586,604363.757,8,400,,,
trial,html.Screen,4_121_0,2023-09-11T18:08:39.454Z,,0,3,,3757.34300000011,response,ISIC_0068126.JPG,5,ISIC_0010967.JPG,ISIC_0068126.JPG,false,1,keypress(m),500,608121.5,608121.1000000001,604347.1,604358.8999999999,604363.757,608132.308,8,400,22,,ISIC_0010967.JPG
break,html.Screen,4_121_1,2023-09-11T18:08:39.456Z,,0,,,NaN,,,,,,false,,,,608123.6000000001,608123.1000000001,,608121.8999999999,,608132.308,8,400,,,
break_continue,html.Screen,4_121_2,2023-09-11T18:08:39.457Z,,0,,,NaN,,,,,,false,,,,608124.5,608124.3,,608123.8999999999,,608132.308,8,400,,,
sequence,flow.Sequence,4_121,2023-09-11T18:08:39.457Z,,0,,,3760.5430000000633,completion,,,,,false,,,,608124.8999999999,608124.3,604347.1,604358.8,604363.757,608132.308,8,400,,,
trial,html.Screen,4_122_0,2023-09-11T18:08:43.524Z,,0,3,,4059.091999999946,response,ISIC_9079361.JPG,5,ISIC_6721869.JPG,ISIC_6721869.JPG,false,0,keypress(z),500,612191.8999999999,612191.3999999999,608115.651,608125.1000000001,608132.308,612200.733,8,400,23,,ISIC_9079361.JPG
break,html.Screen,4_122_1,2023-09-11T18:08:43.527Z,,0,,,NaN,,,,,,false,,,,612194.1000000001,612193.6000000001,,612192.2,,612200.733,8,400,,,
break_continue,html.Screen,4_122_2,2023-09-11T18:08:43.527Z,,0,,,NaN,,,,,,false,,,,612195,612194.7,,612194.3,,612200.733,8,400,,,
sequence,flow.Sequence,4_122,2023-09-11T18:08:43.528Z,,0,,,4062.3919999999925,completion,,,,,false,,,,612195.3,612194.7,608115.651,608125.1000000001,608132.308,612200.733,8,400,,,
trial,html.Screen,4_123_0,2023-09-11T18:08:46.571Z,,0,3,,3036.966999999946,response,ISIC_0070248.JPG,5,ISIC_0027537.JPG,ISIC_0070248.JPG,false,1,keypress(m),500,615238.2,615237.7,612184.076,612195.5,612200.733,615247.231,8,400,24,,ISIC_0027537.JPG
break,html.Screen,4_123_1,2023-09-11T18:08:46.573Z,,0,,,NaN,,,,,,false,,,,615240.2,615239.6000000001,,615238.5,,615247.231,8,400,,,
break_continue,html.Screen,4_123_2,2023-09-11T18:08:46.574Z,,0,,,NaN,,,,,,false,,,,615241.3,615241.1000000001,,615240.3999999999,,615247.231,8,400,,,
sequence,flow.Sequence,4_123,2023-09-11T18:08:46.575Z,,0,,,3040.3670000000857,completion,,,,,false,,,,615243,615241.1000000001,612184.076,612195.5,612200.733,615247.231,8,400,,,
trial,html.Screen,4_124_0,2023-09-11T18:08:49.976Z,,0,3,,3395.668999999878,response,ISIC_9225640.JPG,5,ISIC_2513933.JPG,ISIC_2513933.JPG,false,0,keypress(z),500,618643.2,618642.8999999999,615230.574,615243.8,615247.231,618654.553,8,400,25,,ISIC_9225640.JPG
break,html.Screen,4_124_1,2023-09-11T18:08:49.978Z,,0,,,NaN,,,,,,false,,,,618645.1000000001,618644.6000000001,,618643.6000000001,,618654.553,8,400,,,
break_continue,html.Screen,4_124_2,2023-09-11T18:08:49.978Z,,0,,,NaN,,,,,,false,,,,618646,618645.8,,618645.3,,618654.553,8,400,,,
sequence,flow.Sequence,4_124,2023-09-11T18:08:49.979Z,,0,,,3398.5690000000177,completion,,,,,false,,,,618646.3,618645.8,615230.574,615243.5,615247.231,618654.553,8,400,,,
trial,html.Screen,4_125_0,2023-09-11T18:08:53.198Z,,0,3,,3210.146999999997,response,ISIC_7181296.JPG,5,ISIC_0055293.JPG,ISIC_0055293.JPG,false,0,keypress(z),500,621865.1000000001,621864.7,618637.896,618646.5,618654.553,621874.839,8,400,26,,ISIC_7181296.JPG
break,html.Screen,4_125_1,2023-09-11T18:08:53.200Z,,0,,,NaN,,,,,,false,,,,621867.2,621866.8,,621865.5,,621874.839,8,400,,,
break_continue,html.Screen,4_125_2,2023-09-11T18:08:53.201Z,,0,,,NaN,,,,,,false,,,,621868.2,621867.8999999999,,621867.5,,621874.839,8,400,,,
sequence,flow.Sequence,4_125,2023-09-11T18:08:53.201Z,,0,,,3213.3469999999506,completion,,,,,false,,,,621868.3999999999,621867.8999999999,618637.896,618646.3999999999,618654.553,621874.839,8,400,,,
trial,html.Screen,4_126_0,2023-09-11T18:08:56.116Z,,0,3,,2907.9610000000102,response,ISIC_0032551.JPG,4,ISIC_0192490.JPG,ISIC_0032551.JPG,false,1,keypress(m),500,624783.2,624782.8,621858.182,621868.7,621874.839,624791.144,8,400,27,,ISIC_0192490.JPG
break,html.Screen,4_126_1,2023-09-11T18:08:56.118Z,,0,,,NaN,,,,,,false,,,,624785.1000000001,624784.6000000001,,624783.6000000001,,624791.144,8,400,,,
break_continue,html.Screen,4_126_2,2023-09-11T18:08:56.118Z,,0,,,NaN,,,,,,false,,,,624786,624785.8,,624785.3999999999,,624791.144,8,400,,,
sequence,flow.Sequence,4_126,2023-09-11T18:08:56.119Z,,0,,,2910.9610000000102,completion,,,,,false,,,,624786.3,624785.8,621858.182,621868.6000000001,621874.839,624791.144,8,400,,,
trial,html.Screen,4_127_0,2023-09-11T18:08:59.040Z,,0,3,,2915.7559999999357,response,ISIC_0028606.JPG,6,ISIC_2183722.JPG,ISIC_0028606.JPG,false,1,keypress(m),500,627707.2,627706.8999999999,624774.487,624786.5,624791.144,627716.338,8,400,28,,ISIC_2183722.JPG
break,html.Screen,4_127_1,2023-09-11T18:08:59.042Z,,0,,,NaN,,,,,,false,,,,627709.3999999999,627708.8999999999,,627707.6000000001,,627716.338,8,400,,,
break_continue,html.Screen,4_127_2,2023-09-11T18:08:59.043Z,,0,,,NaN,,,,,,false,,,,627710.3,627710.1000000001,,627709.7,,627716.338,8,400,,,
sequence,flow.Sequence,4_127,2023-09-11T18:08:59.043Z,,0,,,2918.956000000122,completion,,,,,false,,,,627710.6000000001,627710.1000000001,624774.487,624786.5,624791.144,627716.338,8,400,,,
trial,html.Screen,4_128_0,2023-09-11T18:09:02.064Z,,0,3,,3014.561999999918,response,ISIC_2421696.JPG,4,ISIC_3203344.JPG,ISIC_3203344.JPG,false,0,keypress(z),500,630731.3,630730.8999999999,627699.681,627710.8999999999,627716.338,630742.307,8,400,29,,ISIC_2421696.JPG
break,html.Screen,4_128_1,2023-09-11T18:09:02.066Z,,0,,,NaN,,,,,,false,,,,630733.3,630732.6000000001,,630731.7,,630742.307,8,400,,,
break_continue,html.Screen,4_128_2,2023-09-11T18:09:02.067Z,,0,,,NaN,,,,,,false,,,,630734.1000000001,630733.8999999999,,630733.5,,630742.307,8,400,,,
sequence,flow.Sequence,4_128,2023-09-11T18:09:02.067Z,,0,,,3017.561999999918,completion,,,,,false,,,,630734.3999999999,630733.8999999999,627699.681,627710.8,627716.338,630742.307,8,400,,,
trial,html.Screen,4_129_0,2023-09-11T18:09:05.687Z,,0,3,,3611.3929999999236,response,ISIC_3170155.JPG,4,ISIC_2717192.JPG,ISIC_2717192.JPG,false,0,keypress(z),500,634354.2,634353.7,630725.65,630734.7,630742.307,634356.835,8,400,30,,ISIC_3170155.JPG
break,html.Screen,4_129_1,2023-09-11T18:09:05.689Z,,0,,,NaN,,,,,,false,,,,634356.2,634355.7,,634354.5,,634356.835,8,400,,,
break_continue,html.Screen,4_129_2,2023-09-11T18:09:05.690Z,,0,,,NaN,,,,,,false,,,,634357.8,634356.8,,634356.3999999999,,634356.835,8,400,,,
sequence,flow.Sequence,4_129,2023-09-11T18:09:05.691Z,,0,,,3614.4930000000168,completion,,,,,false,,,,634358.1000000001,634356.8,630725.65,630734.6000000001,630742.307,634356.835,8,400,,,
trial,html.Screen,4_130_0,2023-09-11T18:09:08.542Z,,0,3,,2852.2650000001304,response,ISIC_2987613.JPG,5,ISIC_0026371.JPG,ISIC_2987613.JPG,false,1,keypress(m),500,637209.5,637209.1000000001,634340.178,634358.3999999999,634356.835,637217.045,8,400,31,,ISIC_0026371.JPG
break,html.Screen,4_130_1,2023-09-11T18:09:08.544Z,,0,,,NaN,,,,,,false,,,,637211.5,637211,,637209.8,,637217.045,8,400,,,
