sender,sender_type,sender_id,timestamp,meta,,blockNo,condition,duration,ended_on,img_left,img_reveal,img_right,loser,practice,response,response_action,selection_duration,time_commit,time_end,time_render,time_run,time_show,time_switch,total_blocks,total_trials,trialNo,url,winner
informed_consent,html.Screen,0,2023-11-06T15:20:06.693Z,"{""labjs_version"":""20.2.4"",""labjs_build"":{""flavor"":""production"",""commit"":""f5b4a49f956347addd546a832a3327688c2c0fef""},""location"":""https://run.pavlovia.org/MurrayBennett/melanoma-2afc/?participant=66809&platform=sona"",""userAgent"":""Mozilla/5.0 (Macintosh; Intel Mac OS X 10_15_7) AppleWebKit/537.36 (KHTML, like Gecko) Chrome/116.0.0.0 Safari/537.36"",""platform"":""MacIntel"",""language"":""en-US"",""locale"":""en-US"",""timeZone"":""America/Chicago"",""timezoneOffset"":360,""screen_width"":1470,""screen_height"":956,""scroll_width"":1470,""scroll_height"":755,""window_innerWidth"":1470,""window_innerHeight"":803,""devicePixelRatio"":2}",,,,2940.951999976158,response,,,,,,consent,click button,,4567.699999928474,4565.399999976158,1607.782,1600.1999999284744,1624.448,4574.33,,,,"{""participant"":""66809"",""platform"":""sona""}",
Welcome,html.Screen,1,2023-11-06T15:20:11.560Z,,,,symmetry,4857.269999904633,response,,,,,,continue,click button,,9434.099999904633,9431.599999904633,4557.664,4567.799999952316,4574.33,9441.108,,,,,
trial,html.Screen,2_0_0,2023-11-06T15:20:21.406Z,,0,0,,9838.691999952316,response,ISIC_0069348.JPG,,ISIC_6997061.JPG,ISIC_0069348.JPG,true,1,keypress(m),500,19280.399999976158,19279.799999952316,9424.442,9434.299999952316,9441.108,19291.207,1,6,1,,ISIC_6997061.JPG
sequence,flow.Sequence,2_0,2023-11-06T15:20:21.407Z,,0,,,9838.691999952316,completion,,,,,true,,,,19281,19279.799999952316,9424.442,9434.199999928474,9441.108,19291.207,1,6,,,
trial,html.Screen,2_1_0,2023-11-06T15:20:27.020Z,,0,0,,5602.892999904634,response,ISIC_0057368.JPG,,ISIC_0009529.JPG,ISIC_0057368.JPG,true,1,keypress(m),500,24894.5,24894.099999904633,19274.541,19281.199999928474,19291.207,24907.649,1,6,2,,ISIC_0009529.JPG
sequence,flow.Sequence,2_1,2023-11-06T15:20:27.021Z,,0,,,5602.892999904634,completion,,,,,true,,,,24894.899999976158,24894.099999904633,19274.541,19281.099999904633,19291.207,24907.649,1,6,,,
trial,html.Screen,2_2_0,2023-11-06T15:20:31.571Z,,0,0,,4537.450999904631,response,ISIC_0064954.JPG,,ISIC_9758671.JPG,ISIC_9758671.JPG,true,0,keypress(z),500,29445.599999904633,29445.099999904633,24890.983,24895.199999928474,24907.649,29457.908,1,6,3,,ISIC_0064954.JPG
sequence,flow.Sequence,2_2,2023-11-06T15:20:31.572Z,,0,,,4537.450999904631,completion,,,,,true,,,,29446,29445.099999904633,24890.983,24895.099999904633,24907.649,29457.908,1,6,,,
trial,html.Screen,2_3_0,2023-11-06T15:20:36.875Z,,0,0,,5291.092000000001,response,ISIC_0005785.JPG,,ISIC_0000080.JPG,ISIC_0005785.JPG,true,1,keypress(m),500,34749.799999952316,34749,29441.242,29446.299999952316,29457.908,34757.696,1,6,4,,ISIC_0000080.JPG
sequence,flow.Sequence,2_3,2023-11-06T15:20:36.876Z,,0,,,5291.092000000001,completion,,,,,true,,,,34750.39999997616,34749,29441.242,29446.099999904633,29457.908,34757.696,1,6,,,
trial,html.Screen,2_4_0,2023-11-06T15:20:40.322Z,,0,0,,3437.503999928471,response,ISIC_5390060.JPG,,ISIC_7944028.JPG,ISIC_5390060.JPG,true,1,keypress(m),500,38195.89999997616,38195.199999928474,34741.03,34750.699999928474,34757.696,38207.558,1,6,5,,ISIC_7944028.JPG
sequence,flow.Sequence,2_4,2023-11-06T15:20:40.322Z,,0,,,3437.503999928471,completion,,,,,true,,,,38196.299999952316,38195.199999928474,34741.03,34750.5,34757.696,38207.558,1,6,,,
trial,html.Screen,2_5_0,2023-11-06T15:20:44.635Z,,0,0,,4301.241999952319,response,ISIC_0010188.JPG,,ISIC_0794216.JPG,ISIC_0010188.JPG,true,1,keypress(m),500,42509.39999997616,42508.799999952316,38190.892,38196.5,38207.558,42524.464,1,6,6,,ISIC_0794216.JPG
sequence,flow.Sequence,2_5,2023-11-06T15:20:44.636Z,,0,,,4301.241999952319,completion,,,,,true,,,,42509.799999952316,42508.799999952316,38190.892,38196.5,38207.558,42524.464,1,6,,,
loop,flow.Loop,2,2023-11-06T15:20:44.636Z,,,,,33067.691999952316,completion,,,,,true,,,,42510.09999990463,42508.799999952316,9424.442,9434.199999928474,9441.108,42524.464,1,6,,,
exp_instructions,html.Screen,3,2023-11-06T15:20:50.837Z,,,,,6180.135999904633,response,,,,,,continue,keypress(Space),,48710.89999997616,48704.59999990463,42507.798,42510.199999928474,42524.464,48724.216,,,,,
trial,html.Screen,4_0_0,2023-11-06T15:20:55.964Z,,0,1,,5113.583999952316,response,ISIC_0029244.JPG,8,ISIC_0024732.JPG,ISIC_0024732.JPG,false,0,keypress(z),500,53838.299999952316,53837.799999952316,48707.55,48711.39999997616,48724.216,53841.099,8,400,1,,ISIC_0029244.JPG
break,html.Screen,4_0_1,2023-11-06T15:20:55.965Z,,0,,,NaN,,,,,,false,,,,53839.59999990463,53839.299999952316,,53838.5,,53841.099,8,400,,,
break_continue,html.Screen,4_0_2,2023-11-06T15:20:55.966Z,,0,,,NaN,,,,,,false,,,,53840.09999990463,53840,,53839.799999952316,,53841.099,8,400,,,
sequence,flow.Sequence,4_0,2023-11-06T15:20:55.966Z,,0,,,5115.784,completion,,,,,false,,,,53840.299999952316,53840,48707.55,48711.39999997616,48724.216,53841.099,8,400,,,
trial,html.Screen,4_1_0,2023-11-06T15:20:59.121Z,,0,1,,3154.0009999046306,response,ISIC_0015189.JPG,7,ISIC_5569568.JPG,ISIC_5569568.JPG,false,0,keypress(z),500,56995.59999990463,56995.09999990463,53824.433,53840.5,53841.099,57007.639,8,400,2,,ISIC_0015189.JPG
break,html.Screen,4_1_1,2023-11-06T15:20:59.122Z,,0,,,NaN,,,,,,false,,,,56996.59999990463,56996.299999952316,,56995.799999952316,,57007.639,8,400,,,
break_continue,html.Screen,4_1_2,2023-11-06T15:20:59.123Z,,0,,,NaN,,,,,,false,,,,56996.89999997616,56996.799999952316,,56996.699999928474,,57007.639,8,400,,,
sequence,flow.Sequence,4_1,2023-11-06T15:20:59.123Z,,0,,,3155.7009999523143,completion,,,,,false,,,,56997.09999990463,56996.799999952316,53824.433,53840.5,53841.099,57007.639,8,400,,,
trial,html.Screen,4_2_0,2023-11-06T15:21:02.565Z,,0,1,,3431.1609999523134,response,ISIC_3074949.JPG,8,ISIC_0062099.JPG,ISIC_3074949.JPG,false,1,keypress(m),500,60438.89999997616,60438.799999952316,56990.973,56997.299999952316,57007.639,60441.243,8,400,3,,ISIC_0062099.JPG
break,html.Screen,4_2_1,2023-11-06T15:21:02.565Z,,0,,,NaN,,,,,,false,,,,60439.299999952316,60439.199999928474,,60439.09999990463,,60441.243,8,400,,,
break_continue,html.Screen,4_2_2,2023-11-06T15:21:02.565Z,,0,,,NaN,,,,,,false,,,,60439.5,60439.5,,60439.39999997616,,60441.243,8,400,,,
sequence,flow.Sequence,4_2,2023-11-06T15:21:02.565Z,,0,,,3431.860999999997,completion,,,,,false,,,,60439.59999990463,60439.5,56990.973,56997.199999928474,57007.639,60441.243,8,400,,,
trial,html.Screen,4_3_0,2023-11-06T15:21:07.127Z,,0,1,,4559.756999999998,response,ISIC_0063473.JPG,7,ISIC_2647198.JPG,ISIC_2647198.JPG,false,0,keypress(z),500,65001.39999997616,65001,60424.577,60439.59999990463,60441.243,65007.727,8,400,4,,ISIC_0063473.JPG
break,html.Screen,4_3_1,2023-11-06T15:21:07.128Z,,0,,,NaN,,,,,,false,,,,65002.39999997616,65002.199999928474,,65001.699999928474,,65007.727,8,400,,,
break_continue,html.Screen,4_3_2,2023-11-06T15:21:07.129Z,,0,,,NaN,,,,,,false,,,,65002.699999928474,65002.59999990463,,65002.5,,65007.727,8,400,,,
sequence,flow.Sequence,4_3,2023-11-06T15:21:07.129Z,,0,,,4561.35699990463,completion,,,,,false,,,,65002.89999997616,65002.59999990463,60424.577,60439.59999990463,60441.243,65007.727,8,400,,,
trial,html.Screen,4_4_0,2023-11-06T15:21:10.141Z,,0,1,,3007.5729999523173,response,ISIC_0059005.JPG,8,ISIC_0034076.JPG,ISIC_0034076.JPG,false,0,keypress(z),500,68015.59999990463,68015.29999995232,64991.061,65003.09999990463,65007.727,68024.273,8,400,5,,ISIC_0059005.JPG
break,html.Screen,4_4_1,2023-11-06T15:21:10.142Z,,0,,,NaN,,,,,,false,,,,68016.59999990463,68016.39999997616,,68016,,68024.273,8,400,,,
break_continue,html.Screen,4_4_2,2023-11-06T15:21:10.143Z,,0,,,NaN,,,,,,false,,,,68017,68016.89999997616,,68016.69999992847,,68024.273,8,400,,,
sequence,flow.Sequence,4_4,2023-11-06T15:21:10.143Z,,0,,,3009.172999976159,completion,,,,,false,,,,68017.09999990463,68016.89999997616,64991.061,65003.09999990463,65007.727,68024.273,8,400,,,
trial,html.Screen,4_5_0,2023-11-06T15:21:13.362Z,,0,1,,3211.726999999999,response,ISIC_0005572.JPG,6,ISIC_0029561.JPG,ISIC_0029561.JPG,false,0,keypress(z),500,71236.29999995232,71236,68007.607,68017.29999995232,68024.273,71241.196,8,400,6,,ISIC_0005572.JPG
break,html.Screen,4_5_1,2023-11-06T15:21:13.363Z,,0,,,NaN,,,,,,false,,,,71237.39999997616,71237.09999990463,,71236.59999990463,,71241.196,8,400,,,
break_continue,html.Screen,4_5_2,2023-11-06T15:21:13.364Z,,0,,,NaN,,,,,,false,,,,71237.69999992847,71237.69999992847,,71237.5,,71241.196,8,400,,,
sequence,flow.Sequence,4_5,2023-11-06T15:21:13.364Z,,0,,,3213.4269999284734,completion,,,,,false,,,,71238,71237.69999992847,68007.607,68017.29999995232,68024.273,71241.196,8,400,,,
trial,html.Screen,4_6_0,2023-11-06T15:21:17.126Z,,0,1,,3758.8040000000037,response,ISIC_0058926.JPG,7,ISIC_3971712.JPG,ISIC_0058926.JPG,false,1,keypress(m),500,75000.29999995232,75000,71224.53,71238.09999990463,71241.196,75024.378,8,400,7,,ISIC_3971712.JPG
break,html.Screen,4_6_1,2023-11-06T15:21:17.127Z,,0,,,NaN,,,,,,false,,,,75001.29999995232,75001,,75000.59999990463,,75024.378,8,400,,,
break_continue,html.Screen,4_6_2,2023-11-06T15:21:17.127Z,,0,,,NaN,,,,,,false,,,,75001.59999990463,75001.5,,75001.39999997616,,75024.378,8,400,,,
sequence,flow.Sequence,4_6,2023-11-06T15:21:17.128Z,,0,,,3760.3040000000037,completion,,,,,false,,,,75001.79999995232,75001.5,71224.53,71238,71241.196,75024.378,8,400,,,
trial,html.Screen,4_7_0,2023-11-06T15:21:20.412Z,,0,1,,3261.8219999284775,response,ISIC_0026438.JPG,8,ISIC_0027620.JPG,ISIC_0026438.JPG,false,1,keypress(m),500,78286.59999990463,78286.19999992847,75007.712,75001.89999997616,75024.378,78290.914,8,400,8,,ISIC_0027620.JPG
break,html.Screen,4_7_1,2023-11-06T15:21:20.413Z,,0,,,NaN,,,,,,false,,,,78287.29999995232,78287.19999992847,,78286.79999995232,,78290.914,8,400,,,
break_continue,html.Screen,4_7_2,2023-11-06T15:21:20.413Z,,0,,,NaN,,,,,,false,,,,78287.59999990463,78287.5,,78287.39999997616,,78290.914,8,400,,,
sequence,flow.Sequence,4_7,2023-11-06T15:21:20.414Z,,0,,,3263.122000000003,completion,,,,,false,,,,78287.59999990463,78287.5,75007.712,75001.79999995232,75024.378,78290.914,8,400,,,
trial,html.Screen,4_8_0,2023-11-06T15:21:23.568Z,,0,1,,3151.1859999046283,response,ISIC_4853597.JPG,8,ISIC_6002694.JPG,ISIC_6002694.JPG,false,0,keypress(z),500,81442.39999997616,81442.09999990463,78274.248,78287.79999995232,78290.914,81457.865,8,400,9,,ISIC_4853597.JPG
break,html.Screen,4_8_1,2023-11-06T15:21:23.569Z,,0,,,NaN,,,,,,false,,,,81443.19999992847,81443.09999990463,,81442.59999990463,,81457.865,8,400,,,
break_continue,html.Screen,4_8_2,2023-11-06T15:21:23.569Z,,0,,,NaN,,,,,,false,,,,81443.39999997616,81443.29999995232,,81443.19999992847,,81457.865,8,400,,,
sequence,flow.Sequence,4_8,2023-11-06T15:21:23.569Z,,0,,,3152.385999952312,completion,,,,,false,,,,81443.5,81443.29999995232,78274.248,78287.69999992847,78290.914,81457.865,8,400,,,
trial,html.Screen,4_9_0,2023-11-06T15:21:26.902Z,,0,1,,3317.2349999046273,response,ISIC_7976724.JPG,5,ISIC_1431777.JPG,ISIC_7976724.JPG,false,1,keypress(m),500,84775.59999990463,84775.09999990463,81441.199,81443.5,81457.865,84791.065,8,400,10,,ISIC_1431777.JPG
break,html.Screen,4_9_1,2023-11-06T15:21:26.903Z,,0,,,NaN,,,,,,false,,,,84776.69999992847,84776.39999997616,,84775.89999997616,,84791.065,8,400,,,
break_continue,html.Screen,4_9_2,2023-11-06T15:21:26.903Z,,0,,,NaN,,,,,,false,,,,84777,84776.89999997616,,84776.79999995232,,84791.065,8,400,,,
sequence,flow.Sequence,4_9,2023-11-06T15:21:26.903Z,,0,,,3319.034999976153,completion,,,,,false,,,,84777.09999990463,84776.89999997616,81441.199,81443.5,81457.865,84791.065,8,400,,,
trial,html.Screen,4_10_0,2023-11-06T15:21:30.171Z,,0,1,,3253.834999976156,response,ISIC_3389704.JPG,8,ISIC_0021894.JPG,ISIC_3389704.JPG,false,1,keypress(m),500,88045.39999997616,88044.89999997616,84774.399,84777.19999992847,84791.065,88057.601,8,400,11,,ISIC_0021894.JPG
break,html.Screen,4_10_1,2023-11-06T15:21:30.172Z,,0,,,NaN,,,,,,false,,,,88046.39999997616,88046.19999992847,,88045.69999992847,,88057.601,8,400,,,
break_continue,html.Screen,4_10_2,2023-11-06T15:21:30.173Z,,0,,,NaN,,,,,,false,,,,88046.69999992847,88046.69999992847,,88046.5,,88057.601,8,400,,,
sequence,flow.Sequence,4_10,2023-11-06T15:21:30.173Z,,0,,,3255.634999928472,completion,,,,,false,,,,88046.89999997616,88046.69999992847,84774.399,84777.19999992847,84791.065,88057.601,8,400,,,
trial,html.Screen,4_11_0,2023-11-06T15:21:33.251Z,,0,1,,3067.0989999284793,response,ISIC_0032130.JPG,8,ISIC_4702522.JPG,ISIC_4702522.JPG,false,0,keypress(z),500,91125,91124.69999992847,88040.935,88047,88057.601,91140.811,8,400,12,,ISIC_0032130.JPG
break,html.Screen,4_11_1,2023-11-06T15:21:33.252Z,,0,,,NaN,,,,,,false,,,,91126,91125.79999995232,,91125.29999995232,,91140.811,8,400,,,
break_continue,html.Screen,4_11_2,2023-11-06T15:21:33.252Z,,0,,,NaN,,,,,,false,,,,91126.19999992847,91126.19999992847,,91126.09999990463,,91140.811,8,400,,,
sequence,flow.Sequence,4_11,2023-11-06T15:21:33.252Z,,0,,,3068.5989999284793,completion,,,,,false,,,,91126.39999997616,91126.19999992847,88040.935,88046.89999997616,88057.601,91140.811,8,400,,,
trial,html.Screen,4_12_0,2023-11-06T15:21:36.952Z,,0,1,,3684.9889999523148,response,ISIC_3666094.JPG,8,ISIC_0027472.JPG,ISIC_0027472.JPG,false,0,keypress(z),500,94826.19999992847,94825.79999995232,91124.145,91126.5,91140.811,94841.117,8,400,13,,ISIC_3666094.JPG
break,html.Screen,4_12_1,2023-11-06T15:21:36.953Z,,0,,,NaN,,,,,,false,,,,94827.19999992847,94827,,94826.5,,94841.117,8,400,,,
break_continue,html.Screen,4_12_2,2023-11-06T15:21:36.953Z,,0,,,NaN,,,,,,false,,,,94827.59999990463,94827.5,,94827.29999995232,,94841.117,8,400,,,
sequence,flow.Sequence,4_12,2023-11-06T15:21:36.954Z,,0,,,3686.6889999999985,completion,,,,,false,,,,94827.69999992847,94827.5,91124.145,91126.39999997616,91140.811,94841.117,8,400,,,
trial,html.Screen,4_13_0,2023-11-06T15:21:39.870Z,,0,1,,2902.2829999761598,response,ISIC_2160913.JPG,7,ISIC_0013792.JPG,ISIC_2160913.JPG,false,1,keypress(m),500,97743.79999995232,97743.39999997616,94824.451,94827.89999997616,94841.117,97757.667,8,400,14,,ISIC_0013792.JPG
break,html.Screen,4_13_1,2023-11-06T15:21:39.871Z,,0,,,NaN,,,,,,false,,,,97744.79999995232,97744.59999990463,,97744.09999990463,,97757.667,8,400,,,
break_continue,html.Screen,4_13_2,2023-11-06T15:21:39.871Z,,0,,,NaN,,,,,,false,,,,97745.29999995232,97745.09999990463,,97745,,97757.667,8,400,,,
sequence,flow.Sequence,4_13,2023-11-06T15:21:39.871Z,,0,,,2903.982999904634,completion,,,,,false,,,,97745.39999997616,97745.09999990463,94824.451,94827.89999997616,94841.117,97757.667,8,400,,,
trial,html.Screen,4_14_0,2023-11-06T15:21:44.252Z,,0,1,,4368.332999999999,response,ISIC_0067808.JPG,6,ISIC_0010869.JPG,ISIC_0067808.JPG,false,1,keypress(m),500,102126.5,102126,97741.001,97745.5,97757.667,102141.15,8,400,15,,ISIC_0010869.JPG
break,html.Screen,4_14_1,2023-11-06T15:21:44.253Z,,0,,,NaN,,,,,,false,,,,102127.39999997616,102127.29999995232,,102126.69999992847,,102141.15,8,400,,,
break_continue,html.Screen,4_14_2,2023-11-06T15:21:44.254Z,,0,,,NaN,,,,,,false,,,,102127.79999995232,102127.69999992847,,102127.59999990463,,102141.15,8,400,,,
sequence,flow.Sequence,4_14,2023-11-06T15:21:44.254Z,,0,,,4370.032999928473,completion,,,,,false,,,,102128,102127.69999992847,97741.001,97745.5,97757.667,102141.15,8,400,,,
trial,html.Screen,4_15_0,2023-11-06T15:21:47.155Z,,0,1,,2887.749999976164,response,ISIC_2687641.JPG,9,ISIC_0034104.JPG,ISIC_0034104.JPG,false,0,keypress(z),500,105029.29999995232,105028.89999997616,102124.484,102128.09999990463,102141.15,105041.034,8,400,16,,ISIC_2687641.JPG
break,html.Screen,4_15_1,2023-11-06T15:21:47.156Z,,0,,,NaN,,,,,,false,,,,105030.19999992847,105030,,105029.59999990463,,105041.034,8,400,,,
break_continue,html.Screen,4_15_2,2023-11-06T15:21:47.156Z,,0,,,NaN,,,,,,false,,,,105030.5,105030.29999995232,,105030.29999995232,,105041.034,8,400,,,
sequence,flow.Sequence,4_15,2023-11-06T15:21:47.157Z,,0,,,2889.149999952322,completion,,,,,false,,,,105030.59999990463,105030.29999995232,102124.484,102128.09999990463,102141.15,105041.034,8,400,,,
trial,html.Screen,4_16_0,2023-11-06T15:21:50.156Z,,0,1,,2988.8659999761585,response,ISIC_9351418.JPG,9,ISIC_0363130.JPG,ISIC_9351418.JPG,false,1,keypress(m),500,108030.19999992847,108029.89999997616,105024.368,105030.69999992847,105041.034,108040.914,8,400,17,,ISIC_0363130.JPG
break,html.Screen,4_16_1,2023-11-06T15:21:50.157Z,,0,,,NaN,,,,,,false,,,,108031.09999990463,108030.89999997616,,108030.5,,108040.914,8,400,,,
break_continue,html.Screen,4_16_2,2023-11-06T15:21:50.157Z,,0,,,NaN,,,,,,false,,,,108031.39999997616,108031.29999995232,,108031.19999992847,,108040.914,8,400,,,
sequence,flow.Sequence,4_16,2023-11-06T15:21:50.158Z,,0,,,2990.2659999523166,completion,,,,,false,,,,108031.5,108031.29999995232,105024.368,105030.69999992847,105041.034,108040.914,8,400,,,
trial,html.Screen,4_17_0,2023-11-06T15:21:53.504Z,,0,1,,3336.385999952312,response,ISIC_8174951.JPG,9,ISIC_1670165.JPG,ISIC_8174951.JPG,false,1,keypress(m),500,111377.69999992847,111377.29999995232,108024.248,108031.69999992847,108040.914,111390.78,8,400,18,,ISIC_1670165.JPG
break,html.Screen,4_17_1,2023-11-06T15:21:53.505Z,,0,,,NaN,,,,,,false,,,,111378.69999992847,111378.5,,111378,,111390.78,8,400,,,
break_continue,html.Screen,4_17_2,2023-11-06T15:21:53.505Z,,0,,,NaN,,,,,,false,,,,111379.19999992847,111379,,111378.89999997616,,111390.78,8,400,,,
sequence,flow.Sequence,4_17,2023-11-06T15:21:53.505Z,,0,,,3338.0859999999957,completion,,,,,false,,,,111379.29999995232,111379,108024.248,108031.59999990463,108040.914,111390.78,8,400,,,
trial,html.Screen,4_18_0,2023-11-06T15:21:57.165Z,,0,1,,3647.6199999761593,response,ISIC_5198780.JPG,5,ISIC_9307584.JPG,ISIC_5198780.JPG,false,1,keypress(m),500,115038.69999992847,115038.39999997616,111374.114,111379.39999997616,111390.78,115057.785,8,400,19,,ISIC_9307584.JPG
break,html.Screen,4_18_1,2023-11-06T15:21:57.166Z,,0,,,NaN,,,,,,false,,,,115039.69999992847,115039.5,,115039.09999990463,,115057.785,8,400,,,
break_continue,html.Screen,4_18_2,2023-11-06T15:21:57.166Z,,0,,,NaN,,,,,,false,,,,115040.09999990463,115040,,115039.89999997616,,115057.785,8,400,,,
sequence,flow.Sequence,4_18,2023-11-06T15:21:57.166Z,,0,,,3649.220000000001,completion,,,,,false,,,,115040.29999995232,115040,111374.114,111379.29999995232,111390.78,115057.785,8,400,,,
trial,html.Screen,4_19_0,2023-11-06T15:21:59.917Z,,0,1,,2732.6149999761546,response,ISIC_1740912.JPG,8,ISIC_0071733.JPG,ISIC_0071733.JPG,false,0,keypress(z),500,117790.79999995232,117790.39999997616,115041.119,115040.39999997616,115057.785,117807.675,8,400,20,,ISIC_1740912.JPG
break,html.Screen,4_19_1,2023-11-06T15:21:59.918Z,,0,,,NaN,,,,,,false,,,,117791.79999995232,117791.69999992847,,117791.09999990463,,117807.675,8,400,,,
break_continue,html.Screen,4_19_2,2023-11-06T15:21:59.918Z,,0,,,NaN,,,,,,false,,,,117792.29999995232,117792.09999990463,,117791.89999997616,,117807.675,8,400,,,
sequence,flow.Sequence,4_19,2023-11-06T15:21:59.918Z,,0,,,2734.314999904629,completion,,,,,false,,,,117792.39999997616,117792.09999990463,115041.119,115040.29999995232,115057.785,117807.675,8,400,,,
trial,html.Screen,4_20_0,2023-11-06T15:22:03.201Z,,0,1,,3267.0249999284715,response,ISIC_1009042.JPG,7,ISIC_0032684.JPG,ISIC_1009042.JPG,false,1,keypress(m),500,121074.79999995232,121074.69999992847,117791.009,117792.59999990463,117807.675,121090.877,8,400,21,,ISIC_0032684.JPG
break,html.Screen,4_20_1,2023-11-06T15:22:03.201Z,,0,,,NaN,,,,,,false,,,,121075.19999992847,121075.19999992847,,121074.89999997616,,121090.877,8,400,,,
break_continue,html.Screen,4_20_2,2023-11-06T15:22:03.201Z,,0,,,NaN,,,,,,false,,,,121075.5,121075.39999997616,,121075.29999995232,,121090.877,8,400,,,
sequence,flow.Sequence,4_20,2023-11-06T15:22:03.202Z,,0,,,3267.7249999761552,completion,,,,,false,,,,121075.5,121075.39999997616,117791.009,117792.5,117807.675,121090.877,8,400,,,
trial,html.Screen,4_21_0,2023-11-06T15:22:09.494Z,,0,1,,6276.922999952323,response,ISIC_0058376.JPG,7,ISIC_0011238.JPG,ISIC_0011238.JPG,false,0,keypress(z),500,127368.19999992847,127367.79999995232,121074.211,121075.5,121090.877,127374.348,8,400,22,,ISIC_0058376.JPG
break,html.Screen,4_21_1,2023-11-06T15:22:09.495Z,,0,,,NaN,,,,,,false,,,,127369.09999990463,127368.89999997616,,127368.39999997616,,127374.348,8,400,,,
break_continue,html.Screen,4_21_2,2023-11-06T15:22:09.496Z,,0,,,NaN,,,,,,false,,,,127369.5,127369.29999995232,,127369.19999992847,,127374.348,8,400,,,
sequence,flow.Sequence,4_21,2023-11-06T15:22:09.496Z,,0,,,6278.422999952323,completion,,,,,false,,,,127369.59999990463,127369.29999995232,121074.211,121075.5,121090.877,127374.348,8,400,,,
trial,html.Screen,4_22_0,2023-11-06T15:22:13.436Z,,0,1,,3934.951999952318,response,ISIC_0026300.JPG,7,ISIC_6915759.JPG,ISIC_6915759.JPG,false,0,keypress(z),500,131309.59999990463,131309.29999995232,127357.682,127369.79999995232,127374.348,131324.19,8,400,23,,ISIC_0026300.JPG
break,html.Screen,4_22_1,2023-11-06T15:22:13.437Z,,0,,,NaN,,,,,,false,,,,131310.59999990463,131310.39999997616,,131309.89999997616,,131324.19,8,400,,,
break_continue,html.Screen,4_22_2,2023-11-06T15:22:13.437Z,,0,,,NaN,,,,,,false,,,,131311,131310.89999997616,,131310.79999995232,,131324.19,8,400,,,
sequence,flow.Sequence,4_22,2023-11-06T15:22:13.437Z,,0,,,3936.55199997616,completion,,,,,false,,,,131311.19999992847,131310.89999997616,127357.682,127369.69999992847,127374.348,131324.19,8,400,,,
trial,html.Screen,4_23_0,2023-11-06T15:22:16.882Z,,0,1,,3431.209999976156,response,ISIC_0000000.JPG,7,ISIC_8205879.JPG,ISIC_0000000.JPG,false,1,keypress(m),500,134755.69999992847,134755.39999997616,131307.524,131311.29999995232,131324.19,134757.836,8,400,24,,ISIC_8205879.JPG
break,html.Screen,4_23_1,2023-11-06T15:22:16.882Z,,0,,,NaN,,,,,,false,,,,134756.39999997616,134756.29999995232,,134755.79999995232,,134757.836,8,400,,,
break_continue,html.Screen,4_23_2,2023-11-06T15:22:16.883Z,,0,,,NaN,,,,,,false,,,,134756.59999990463,134756.5,,134756.39999997616,,134757.836,8,400,,,
sequence,flow.Sequence,4_23,2023-11-06T15:22:16.883Z,,0,,,3432.3099999999977,completion,,,,,false,,,,134756.69999992847,134756.5,131307.524,131311.19999992847,131324.19,134757.836,8,400,,,
trial,html.Screen,4_24_0,2023-11-06T15:22:20.268Z,,0,1,,3383.863999928464,response,ISIC_0064318.JPG,8,ISIC_0070566.JPG,ISIC_0070566.JPG,false,0,keypress(z),500,138142.09999990463,138141.69999992847,134741.17,134756.79999995232,134757.836,138157.7,8,400,25,,ISIC_0064318.JPG
break,html.Screen,4_24_1,2023-11-06T15:22:20.269Z,,0,,,NaN,,,,,,false,,,,138143.09999990463,138142.89999997616,,138142.39999997616,,138157.7,8,400,,,
break_continue,html.Screen,4_24_2,2023-11-06T15:22:20.270Z,,0,,,NaN,,,,,,false,,,,138143.5,138143.39999997616,,138143.29999995232,,138157.7,8,400,,,
sequence,flow.Sequence,4_24,2023-11-06T15:22:20.270Z,,0,,,3385.563999976148,completion,,,,,false,,,,138143.69999992847,138143.39999997616,134741.17,134756.69999992847,134757.836,138157.7,8,400,,,
trial,html.Screen,4_25_0,2023-11-06T15:22:24.093Z,,0,1,,3809.399999904621,response,ISIC_0063295.JPG,7,ISIC_0026426.JPG,ISIC_0026426.JPG,false,0,keypress(z),500,141967.29999995232,141967.09999990463,138141.034,138143.79999995232,138157.7,141974.214,8,400,26,,ISIC_0063295.JPG
break,html.Screen,4_25_1,2023-11-06T15:22:24.094Z,,0,,,NaN,,,,,,false,,,,141967.79999995232,141967.79999995232,,141967.5,,141974.214,8,400,,,
break_continue,html.Screen,4_25_2,2023-11-06T15:22:24.094Z,,0,,,NaN,,,,,,false,,,,141968,141968,,141968,,141974.214,8,400,,,
sequence,flow.Sequence,4_25,2023-11-06T15:22:24.094Z,,0,,,3810.2999999999884,completion,,,,,false,,,,141968.09999990463,141968,138141.034,138143.79999995232,138157.7,141974.214,8,400,,,
trial,html.Screen,4_26_0,2023-11-06T15:22:27.827Z,,0,1,,3725.8859999046254,response,ISIC_0552911.JPG,8,ISIC_0024757.JPG,ISIC_0552911.JPG,false,1,keypress(m),500,145700.39999997616,145700.09999990463,141957.548,141968.19999992847,141974.214,145707.824,8,400,27,,ISIC_0024757.JPG
break,html.Screen,4_26_1,2023-11-06T15:22:27.827Z,,0,,,NaN,,,,,,false,,,,145701.39999997616,145701.19999992847,,145700.69999992847,,145707.824,8,400,,,
break_continue,html.Screen,4_26_2,2023-11-06T15:22:27.828Z,,0,,,NaN,,,,,,false,,,,145701.79999995232,145701.69999992847,,145701.5,,145707.824,8,400,,,
sequence,flow.Sequence,4_26,2023-11-06T15:22:27.828Z,,0,,,3727.485999928467,completion,,,,,false,,,,145702,145701.69999992847,141957.548,141968.19999992847,141974.214,145707.824,8,400,,,
trial,html.Screen,4_27_0,2023-11-06T15:22:30.905Z,,0,1,,3071.2759999046393,response,ISIC_0054317.JPG,8,ISIC_0011862.JPG,ISIC_0054317.JPG,false,1,keypress(m),500,148779.19999992847,148779.09999990463,145691.158,145702.09999990463,145707.824,148791.034,8,400,28,,ISIC_0011862.JPG
break,html.Screen,4_27_1,2023-11-06T15:22:30.906Z,,0,,,NaN,,,,,,false,,,,148779.69999992847,148779.59999990463,,148779.39999997616,,148791.034,8,400,,,
break_continue,html.Screen,4_27_2,2023-11-06T15:22:30.906Z,,0,,,NaN,,,,,,false,,,,148779.89999997616,148779.89999997616,,148779.79999995232,,148791.034,8,400,,,
sequence,flow.Sequence,4_27,2023-11-06T15:22:30.906Z,,0,,,3072.075999976165,completion,,,,,false,,,,148780,148779.89999997616,145691.158,145702.09999990463,145707.824,148791.034,8,400,,,
trial,html.Screen,4_28_0,2023-11-06T15:22:33.821Z,,0,1,,2903.66599992846,response,ISIC_1608727.JPG,7,ISIC_0066401.JPG,ISIC_0066401.JPG,false,0,keypress(z),500,151695.19999992847,151694.69999992847,148774.368,148780.09999990463,148791.034,151707.584,8,400,29,,ISIC_1608727.JPG
break,html.Screen,4_28_1,2023-11-06T15:22:33.822Z,,0,,,NaN,,,,,,false,,,,151696.19999992847,151696,,151695.5,,151707.584,8,400,,,
break_continue,html.Screen,4_28_2,2023-11-06T15:22:33.823Z,,0,,,NaN,,,,,,false,,,,151696.5,151696.5,,151696.39999997616,,151707.584,8,400,,,
sequence,flow.Sequence,4_28,2023-11-06T15:22:33.823Z,,0,,,2905.465999999986,completion,,,,,false,,,,151696.69999992847,151696.5,148774.368,148780.09999990463,148791.034,151707.584,8,400,,,
trial,html.Screen,4_29_0,2023-11-06T15:22:37.204Z,,0,1,,3370.01599990463,response,ISIC_0024306.JPG,8,ISIC_6166247.JPG,ISIC_6166247.JPG,false,0,keypress(z),500,155077.89999997616,155077.59999990463,151690.918,151696.89999997616,151707.584,155091.172,8,400,30,,ISIC_0024306.JPG
break,html.Screen,4_29_1,2023-11-06T15:22:37.205Z,,0,,,NaN,,,,,,false,,,,155078.5,155078.29999995232,,155078.09999990463,,155091.172,8,400,,,
break_continue,html.Screen,4_29_2,2023-11-06T15:22:37.205Z,,0,,,NaN,,,,,,false,,,,155078.59999990463,155078.59999990463,,155078.59999990463,,155091.172,8,400,,,
sequence,flow.Sequence,4_29,2023-11-06T15:22:37.205Z,,0,,,3371.01599990463,completion,,,,,false,,,,155078.69999992847,155078.59999990463,151690.918,151696.79999995232,151707.584,155091.172,8,400,,,
trial,html.Screen,4_30_0,2023-11-06T15:22:40.182Z,,0,1,,2964.3280000000086,response,ISIC_6445453.JPG,8,ISIC_0012082.JPG,ISIC_0012082.JPG,false,0,keypress(z),500,158056,158055.5,155074.506,155078.79999995232,155091.172,158057.72,8,400,31,,ISIC_6445453.JPG
break,html.Screen,4_30_1,2023-11-06T15:22:40.183Z,,0,,,NaN,,,,,,false,,,,158056.89999997616,158056.79999995232,,158056.29999995232,,158057.72,8,400,,,
break_continue,html.Screen,4_30_2,2023-11-06T15:22:40.184Z,,0,,,NaN,,,,,,false,,,,158057.29999995232,158057.29999995232,,158057.09999990463,,158057.72,8,400,,,
sequence,flow.Sequence,4_30,2023-11-06T15:22:40.184Z,,0,,,2966.127999952325,completion,,,,,false,,,,158057.59999990463,158057.29999995232,155074.506,155078.79999995232,155091.172,158057.72,8,400,,,
trial,html.Screen,4_31_0,2023-11-06T15:22:43.566Z,,0,1,,3381.3799999046314,response,ISIC_2214766.JPG,7,ISIC_0027065.JPG,ISIC_0027065.JPG,false,0,keypress(z),500,161439.5,161439.09999990463,158041.054,158057.69999992847,158057.72,161440.918,8,400,32,,ISIC_2214766.JPG
break,html.Screen,4_31_1,2023-11-06T15:22:43.567Z,,0,,,NaN,,,,,,false,,,,161440.5,161440.19999992847,,161439.69999992847,,161440.918,8,400,,,
break_continue,html.Screen,4_31_2,2023-11-06T15:22:43.567Z,,0,,,NaN,,,,,,false,,,,161440.79999995232,161440.69999992847,,161440.59999990463,,161440.918,8,400,,,
sequence,flow.Sequence,4_31,2023-11-06T15:22:43.567Z,,0,,,3382.9799999284733,completion,,,,,false,,,,161441,161440.69999992847,158041.054,158057.69999992847,158057.72,161440.918,8,400,,,
trial,html.Screen,4_32_0,2023-11-06T15:22:46.413Z,,0,1,,2845.2819999284693,response,ISIC_7440724.JPG,8,ISIC_4679971.JPG,ISIC_7440724.JPG,false,1,keypress(m),500,164286.59999990463,164286.19999992847,161424.252,161441.09999990463,161440.918,164291.247,8,400,33,,ISIC_4679971.JPG
break,html.Screen,4_32_1,2023-11-06T15:22:46.414Z,,0,,,NaN,,,,,,false,,,,164287.69999992847,164287.39999997616,,164286.79999995232,,164291.247,8,400,,,
break_continue,html.Screen,4_32_2,2023-11-06T15:22:46.414Z,,0,,,NaN,,,,,,false,,,,164288,164287.89999997616,,164287.69999992847,,164291.247,8,400,,,
sequence,flow.Sequence,4_32,2023-11-06T15:22:46.414Z,,0,,,2846.981999976153,completion,,,,,false,,,,164288.19999992847,164287.89999997616,161424.252,161441.09999990463,161440.918,164291.247,8,400,,,
trial,html.Screen,4_33_0,2023-11-06T15:22:49.186Z,,0,1,,2768.652999976155,response,ISIC_0000292.JPG,9,ISIC_4966148.JPG,ISIC_0000292.JPG,false,1,keypress(m),500,167060.09999990463,167059.89999997616,164274.581,164288.39999997616,164291.247,167074.469,8,400,34,,ISIC_4966148.JPG
break,html.Screen,4_33_1,2023-11-06T15:22:49.187Z,,0,,,NaN,,,,,,false,,,,167060.39999997616,167060.39999997616,,167060.19999992847,,167074.469,8,400,,,
break_continue,html.Screen,4_33_2,2023-11-06T15:22:49.187Z,,0,,,NaN,,,,,,false,,,,167060.5,167060.5,,167060.5,,167074.469,8,400,,,
sequence,flow.Sequence,4_33,2023-11-06T15:22:49.187Z,,0,,,2769.252999999997,completion,,,,,false,,,,167060.59999990463,167060.5,164274.581,164288.29999995232,164291.247,167074.469,8,400,,,
trial,html.Screen,4_34_0,2023-11-06T15:22:52.108Z,,0,1,,2906.8309999523044,response,ISIC_7205745.JPG,8,ISIC_0871853.JPG,ISIC_7205745.JPG,false,1,keypress(m),500,169981.59999990463,169981.29999995232,167057.803,167060.69999992847,167074.469,169991.019,8,400,35,,ISIC_0871853.JPG
break,html.Screen,4_34_1,2023-11-06T15:22:52.109Z,,0,,,NaN,,,,,,false,,,,169982.5,169982.39999997616,,169981.89999997616,,169991.019,8,400,,,
break_continue,html.Screen,4_34_2,2023-11-06T15:22:52.109Z,,0,,,NaN,,,,,,false,,,,169982.89999997616,169982.79999995232,,169982.69999992847,,169991.019,8,400,,,
sequence,flow.Sequence,4_34,2023-11-06T15:22:52.109Z,,0,,,2908.3309999523044,completion,,,,,false,,,,169983.09999990463,169982.79999995232,167057.803,167060.69999992847,167074.469,169991.019,8,400,,,
trial,html.Screen,4_35_0,2023-11-06T15:22:55.075Z,,0,1,,2956.9809999999998,response,ISIC_0064261.JPG,8,ISIC_0027663.JPG,ISIC_0027663.JPG,false,0,keypress(z),500,172948.39999997616,172948,169974.353,169983.19999992847,169991.019,172957.567,8,400,36,,ISIC_0064261.JPG
break,html.Screen,4_35_1,2023-11-06T15:22:55.076Z,,0,,,NaN,,,,,,false,,,,172949.39999997616,172949.19999992847,,172948.69999992847,,172957.567,8,400,,,
break_continue,html.Screen,4_35_2,2023-11-06T15:22:55.076Z,,0,,,NaN,,,,,,false,,,,172949.69999992847,172949.59999990463,,172949.39999997616,,172957.567,8,400,,,
sequence,flow.Sequence,4_35,2023-11-06T15:22:55.076Z,,0,,,2958.5809999046323,completion,,,,,false,,,,172949.89999997616,172949.59999990463,169974.353,169983.19999992847,169991.019,172957.567,8,400,,,
trial,html.Screen,4_36_0,2023-11-06T15:22:57.804Z,,0,1,,2719.832999976148,response,ISIC_0268187.JPG,8,ISIC_8781751.JPG,ISIC_0268187.JPG,false,1,keypress(m),500,175677.79999995232,175677.39999997616,172940.901,172950,172957.567,175691.199,8,400,37,,ISIC_8781751.JPG
break,html.Screen,4_36_1,2023-11-06T15:22:57.805Z,,0,,,NaN,,,,,,false,,,,175678.69999992847,175678.5,,175678,,175691.199,8,400,,,
break_continue,html.Screen,4_36_2,2023-11-06T15:22:57.805Z,,0,,,NaN,,,,,,false,,,,175679.09999990463,175679,,175678.79999995232,,175691.199,8,400,,,
sequence,flow.Sequence,4_36,2023-11-06T15:22:57.805Z,,0,,,2721.43299999999,completion,,,,,false,,,,175679.19999992847,175679,172940.901,172949.89999997616,172957.567,175691.199,8,400,,,
trial,html.Screen,4_37_0,2023-11-06T15:23:01.620Z,,0,1,,3802.500999928481,response,ISIC_8159718.JPG,6,ISIC_0001505.JPG,ISIC_0001505.JPG,false,0,keypress(z),500,179494.09999990463,179493.69999992847,175674.533,175679.39999997616,175691.199,179507.713,8,400,38,,ISIC_8159718.JPG
break,html.Screen,4_37_1,2023-11-06T15:23:01.621Z,,0,,,NaN,,,,,,false,,,,179495.09999990463,179495,,179494.39999997616,,179507.713,8,400,,,
break_continue,html.Screen,4_37_2,2023-11-06T15:23:01.622Z,,0,,,NaN,,,,,,false,,,,179495.5,179495.39999997616,,179495.19999992847,,179507.713,8,400,,,
sequence,flow.Sequence,4_37,2023-11-06T15:23:01.622Z,,0,,,3804.200999976165,completion,,,,,false,,,,179495.59999990463,179495.39999997616,175674.533,175679.39999997616,175691.199,179507.713,8,400,,,
trial,html.Screen,4_38_0,2023-11-06T15:23:04.824Z,,0,1,,3189.8869999046437,response,ISIC_4780727.JPG,8,ISIC_7185913.JPG,ISIC_4780727.JPG,false,1,keypress(m),500,182698,182697.59999990463,179491.047,179495.79999995232,179507.713,182707.585,8,400,39,,ISIC_7185913.JPG
break,html.Screen,4_38_1,2023-11-06T15:23:04.825Z,,0,,,NaN,,,,,,false,,,,182699,182698.69999992847,,182698.29999995232,,182707.585,8,400,,,
break_continue,html.Screen,4_38_2,2023-11-06T15:23:04.826Z,,0,,,NaN,,,,,,false,,,,182699.39999997616,182699.19999992847,,182699.09999990463,,182707.585,8,400,,,
sequence,flow.Sequence,4_38,2023-11-06T15:23:04.826Z,,0,,,3191.4869999284856,completion,,,,,false,,,,182699.59999990463,182699.19999992847,179491.047,179495.79999995232,179507.713,182707.585,8,400,,,
trial,html.Screen,4_39_0,2023-11-06T15:23:08.143Z,,0,1,,3309.2149999523244,response,ISIC_0887530.JPG,6,ISIC_0924902.JPG,ISIC_0887530.JPG,false,1,keypress(m),500,186017,186016.79999995232,182690.919,182699.69999992847,182707.585,186024.506,8,400,40,,ISIC_0924902.JPG
break,html.Screen,4_39_1,2023-11-06T15:23:08.144Z,,0,,,NaN,,,,,,false,,,,186017.59999990463,186017.5,,186017.19999992847,,186024.506,8,400,,,
break_continue,html.Screen,4_39_2,2023-11-06T15:23:08.144Z,,0,,,NaN,,,,,,false,,,,186017.89999997616,186017.69999992847,,186017.69999992847,,186024.506,8,400,,,
sequence,flow.Sequence,4_39,2023-11-06T15:23:08.144Z,,0,,,3310.1149999284826,completion,,,,,false,,,,186017.89999997616,186017.69999992847,182690.919,182699.59999990463,182707.585,186024.506,8,400,,,
trial,html.Screen,4_40_0,2023-11-06T15:23:10.915Z,,0,1,,2763.494000000006,response,ISIC_2854303.JPG,5,ISIC_2279679.JPG,ISIC_2854303.JPG,false,1,keypress(m),500,188788.39999997616,188788,186007.84,186018,186024.506,188791.062,8,400,41,,ISIC_2279679.JPG
break,html.Screen,4_40_1,2023-11-06T15:23:10.916Z,,0,,,NaN,,,,,,false,,,,188789.39999997616,188789.09999990463,,188788.69999992847,,188791.062,8,400,,,
break_continue,html.Screen,4_40_2,2023-11-06T15:23:10.916Z,,0,,,NaN,,,,,,false,,,,188789.79999995232,188789.59999990463,,188789.5,,188791.062,8,400,,,
sequence,flow.Sequence,4_40,2023-11-06T15:23:10.916Z,,0,,,2765.0939999046386,completion,,,,,false,,,,188789.89999997616,188789.59999990463,186007.84,186017.89999997616,186024.506,188791.062,8,400,,,
trial,html.Screen,4_41_0,2023-11-06T15:23:13.932Z,,0,1,,3013.837999976153,response,ISIC_0025152.JPG,7,ISIC_9543945.JPG,ISIC_0025152.JPG,false,1,keypress(m),500,191805.39999997616,191804.89999997616,188774.396,188790.19999992847,188791.062,191807.608,8,400,42,,ISIC_9543945.JPG
break,html.Screen,4_41_1,2023-11-06T15:23:13.933Z,,0,,,NaN,,,,,,false,,,,191806.39999997616,191806.19999992847,,191805.69999992847,,191807.608,8,400,,,
break_continue,html.Screen,4_41_2,2023-11-06T15:23:13.933Z,,0,,,NaN,,,,,,false,,,,191806.69999992847,191806.59999990463,,191806.5,,191807.608,8,400,,,
sequence,flow.Sequence,4_41,2023-11-06T15:23:13.933Z,,0,,,3015.537999904627,completion,,,,,false,,,,191806.89999997616,191806.59999990463,188774.396,188790,188791.062,191807.608,8,400,,,
trial,html.Screen,4_42_0,2023-11-06T15:23:17.859Z,,0,1,,3924.691999952309,response,ISIC_2565206.JPG,8,ISIC_0069248.JPG,ISIC_0069248.JPG,false,0,keypress(z),500,195732.79999995232,195732.29999995232,191790.942,191807.09999990463,191807.608,195741.248,8,400,43,,ISIC_2565206.JPG
break,html.Screen,4_42_1,2023-11-06T15:23:17.860Z,,0,,,NaN,,,,,,false,,,,195733.89999997616,195733.69999992847,,195733.09999990463,,195741.248,8,400,,,
break_continue,html.Screen,4_42_2,2023-11-06T15:23:17.861Z,,0,,,NaN,,,,,,false,,,,195734.29999995232,195734.09999990463,,195734,,195741.248,8,400,,,
sequence,flow.Sequence,4_42,2023-11-06T15:23:17.861Z,,0,,,3926.491999904625,completion,,,,,false,,,,195734.5,195734.09999990463,191790.942,191807,191807.608,195741.248,8,400,,,
trial,html.Screen,4_43_0,2023-11-06T15:23:20.685Z,,0,1,,2816.8519999046403,response,ISIC_0046537.JPG,7,ISIC_0345607.JPG,ISIC_0345607.JPG,false,0,keypress(z),500,198558.59999990463,198558.09999990463,195724.582,195734.59999990463,195741.248,198574.468,8,400,44,,ISIC_0046537.JPG
break,html.Screen,4_43_1,2023-11-06T15:23:20.686Z,,0,,,NaN,,,,,,false,,,,198559.5,198559.29999995232,,198558.79999995232,,198574.468,8,400,,,
break_continue,html.Screen,4_43_2,2023-11-06T15:23:20.686Z,,0,,,NaN,,,,,,false,,,,198559.89999997616,198559.79999995232,,198559.59999990463,,198574.468,8,400,,,
sequence,flow.Sequence,4_43,2023-11-06T15:23:20.686Z,,0,,,2818.551999952324,completion,,,,,false,,,,198560.09999990463,198559.79999995232,195724.582,195734.5,195741.248,198574.468,8,400,,,
trial,html.Screen,4_44_0,2023-11-06T15:23:24.721Z,,0,1,,4020.0320000000065,response,ISIC_0033569.JPG,8,ISIC_0028582.JPG,ISIC_0033569.JPG,false,1,keypress(m),500,202594.89999997616,202594.5,198557.802,198560.19999992847,198574.468,202607.64,8,400,45,,ISIC_0028582.JPG
break,html.Screen,4_44_1,2023-11-06T15:23:24.722Z,,0,,,NaN,,,,,,false,,,,202595.89999997616,202595.69999992847,,202595.09999990463,,202607.64,8,400,,,
break_continue,html.Screen,4_44_2,2023-11-06T15:23:24.723Z,,0,,,NaN,,,,,,false,,,,202596.29999995232,202596.09999990463,,202596,,202607.64,8,400,,,
sequence,flow.Sequence,4_44,2023-11-06T15:23:24.723Z,,0,,,4021.631999904639,completion,,,,,false,,,,202596.39999997616,202596.09999990463,198557.802,198560.19999992847,198574.468,202607.64,8,400,,,
trial,html.Screen,4_45_0,2023-11-06T15:23:28.107Z,,0,1,,3372.859999999986,response,ISIC_6739241.JPG,7,ISIC_2603420.JPG,ISIC_2603420.JPG,false,0,keypress(z),500,205980.89999997616,205980.5,202590.974,202596.59999990463,202607.64,205991.248,8,400,46,,ISIC_6739241.JPG
break,html.Screen,4_45_1,2023-11-06T15:23:28.108Z,,0,,,NaN,,,,,,false,,,,205981.79999995232,205981.69999992847,,205981.19999992847,,205991.248,8,400,,,
break_continue,html.Screen,4_45_2,2023-11-06T15:23:28.109Z,,0,,,NaN,,,,,,false,,,,205982.19999992847,205982.09999990463,,205982,,205991.248,8,400,,,
sequence,flow.Sequence,4_45,2023-11-06T15:23:28.109Z,,0,,,3374.4599999046186,completion,,,,,false,,,,205982.39999997616,205982.09999990463,202590.974,202596.59999990463,202607.64,205991.248,8,400,,,
trial,html.Screen,4_46_0,2023-11-06T15:23:32.493Z,,0,1,,4375.451999928482,response,ISIC_3637551.JPG,8,ISIC_6780662.JPG,ISIC_3637551.JPG,false,1,keypress(m),500,210367,210366.69999992847,205974.582,205982.59999990463,205991.248,210374.406,8,400,47,,ISIC_6780662.JPG
break,html.Screen,4_46_1,2023-11-06T15:23:32.494Z,,0,,,NaN,,,,,,false,,,,210368,210367.79999995232,,210367.29999995232,,210374.406,8,400,,,
break_continue,html.Screen,4_46_2,2023-11-06T15:23:32.495Z,,0,,,NaN,,,,,,false,,,,210368.29999995232,210368.19999992847,,210368.09999990463,,210374.406,8,400,,,
sequence,flow.Sequence,4_46,2023-11-06T15:23:32.495Z,,0,,,4376.951999928482,completion,,,,,false,,,,210368.59999990463,210368.19999992847,205974.582,205982.5,205991.248,210374.406,8,400,,,
trial,html.Screen,4_47_0,2023-11-06T15:23:35.916Z,,0,1,,3414.6939999046444,response,ISIC_9196783.JPG,7,ISIC_7075474.JPG,ISIC_9196783.JPG,false,1,keypress(m),500,213789.5,213789.09999990463,210357.74,210368.69999992847,210374.406,213790.936,8,400,48,,ISIC_7075474.JPG
break,html.Screen,4_47_1,2023-11-06T15:23:35.917Z,,0,,,NaN,,,,,,false,,,,213790.59999990463,213790.29999995232,,213789.79999995232,,213790.936,8,400,,,
break_continue,html.Screen,4_47_2,2023-11-06T15:23:35.917Z,,0,,,NaN,,,,,,false,,,,213791,213790.89999997616,,213790.69999992847,,213790.936,8,400,,,
sequence,flow.Sequence,4_47,2023-11-06T15:23:35.918Z,,0,,,3416.49399997617,completion,,,,,false,,,,213791.19999992847,213790.89999997616,210357.74,210368.59999990463,210374.406,213790.936,8,400,,,
trial,html.Screen,4_48_0,2023-11-06T15:23:38.686Z,,0,1,,2767.8639999523293,response,ISIC_9747194.JPG,8,ISIC_6119830.JPG,ISIC_6119830.JPG,false,0,keypress(z),500,216559.19999992847,216558.79999995232,213774.27,213791.29999995232,213790.936,216574.551,8,400,49,,ISIC_9747194.JPG
break,html.Screen,4_48_1,2023-11-06T15:23:38.687Z,,0,,,NaN,,,,,,false,,,,216560.19999992847,216560,,216559.5,,216574.551,8,400,,,
break_continue,html.Screen,4_48_2,2023-11-06T15:23:38.687Z,,0,,,NaN,,,,,,false,,,,216560.59999990463,216560.39999997616,,216560.29999995232,,216574.551,8,400,,,
sequence,flow.Sequence,4_48,2023-11-06T15:23:38.687Z,,0,,,2769.463999976171,completion,,,,,false,,,,216560.69999992847,216560.39999997616,213774.27,213791.19999992847,213790.936,216574.551,8,400,,,
trial,html.Screen,4_49_0,2023-11-06T15:23:42.114Z,,0,1,,3412.6489999284677,response,ISIC_0082348.JPG,8,ISIC_0001118.JPG,ISIC_0001118.JPG,false,0,keypress(z),500,219987.5,219987.19999992847,216557.885,216560.89999997616,216574.551,219991.081,8,400,50,,ISIC_0082348.JPG
break,html.Screen,4_49_1,2023-11-06T15:23:52.105Z,,0,,,10000.022999999986,timeout,,,,,false,,,,229979.09999990463,229974.438,219974.415,219987.89999997616,219991.081,229991.104,8,400,,,
break_continue,html.Screen,4_49_2,2023-11-06T15:23:53.848Z,,0,,,1718.9959999046405,response,,,,,false,continue,keypress(Space),,231722.09999990463,231710.09999990463,229974.438,229979.19999992847,229991.104,231724.368,8,400,,,
sequence,flow.Sequence,4_49,2023-11-06T15:23:53.849Z,,0,,,15135.548999904626,completion,,,,,false,,,,231722.29999995232,231710.09999990463,216557.885,216560.79999995232,216574.551,231724.368,8,400,,,
trial,html.Screen,4_50_0,2023-11-06T15:23:57.678Z,,0,2,,3826.3319999284868,response,ISIC_0033302.JPG,6,ISIC_0193907.JPG,ISIC_0193907.JPG,false,0,keypress(z),500,235551.19999992847,235550.69999992847,231707.702,231722.39999997616,231724.368,235557.548,8,400,1,,ISIC_0033302.JPG
break,html.Screen,4_50_1,2023-11-06T15:23:57.679Z,,0,,,NaN,,,,,,false,,,,235552.09999990463,235551.89999997616,,235551.39999997616,,235557.548,8,400,,,
break_continue,html.Screen,4_50_2,2023-11-06T15:23:57.679Z,,0,,,NaN,,,,,,false,,,,235552.59999990463,235552.39999997616,,235552.29999995232,,235557.548,8,400,,,
sequence,flow.Sequence,4_50,2023-11-06T15:23:57.679Z,,0,,,3828.0319999761705,completion,,,,,false,,,,235552.69999992847,235552.39999997616,231707.702,231722.29999995232,231724.368,235557.548,8,400,,,
trial,html.Screen,4_51_0,2023-11-06T15:24:00.429Z,,0,2,,2744.3519999761484,response,ISIC_0071647.JPG,8,ISIC_0027149.JPG,ISIC_0027149.JPG,false,0,keypress(z),500,238302.29999995232,238301.89999997616,235540.882,235552.79999995232,235557.548,238307.826,8,400,2,,ISIC_0071647.JPG
break,html.Screen,4_51_1,2023-11-06T15:24:00.429Z,,0,,,NaN,,,,,,false,,,,238303,238302.79999995232,,238302.5,,238307.826,8,400,,,
break_continue,html.Screen,4_51_2,2023-11-06T15:24:00.430Z,,0,,,NaN,,,,,,false,,,,238303.29999995232,238303.19999992847,,238303.09999990463,,238307.826,8,400,,,
sequence,flow.Sequence,4_51,2023-11-06T15:24:00.430Z,,0,,,2745.6519999284646,completion,,,,,false,,,,238303.39999997616,238303.19999992847,235540.882,235552.79999995232,235557.548,238307.826,8,400,,,
trial,html.Screen,4_52_0,2023-11-06T15:24:03.139Z,,0,2,,2704.173999999999,response,ISIC_7626256.JPG,8,ISIC_5502342.JPG,ISIC_5502342.JPG,false,0,keypress(z),500,241012.19999992847,241012,238291.16,238303.5,238307.826,241024.384,8,400,3,,ISIC_7626256.JPG
break,html.Screen,4_52_1,2023-11-06T15:24:03.139Z,,0,,,NaN,,,,,,false,,,,241012.59999990463,241012.5,,241012.29999995232,,241024.384,8,400,,,
break_continue,html.Screen,4_52_2,2023-11-06T15:24:03.139Z,,0,,,NaN,,,,,,false,,,,241012.79999995232,241012.69999992847,,241012.69999992847,,241024.384,8,400,,,
sequence,flow.Sequence,4_52,2023-11-06T15:24:03.139Z,,0,,,2704.8739999284735,completion,,,,,false,,,,241012.89999997616,241012.69999992847,238291.16,238303.5,238307.826,241024.384,8,400,,,
trial,html.Screen,4_53_0,2023-11-06T15:24:14.640Z,,0,2,,11516.646000000008,timeout,ISIC_8590883.JPG,8,ISIC_0054568.JPG,,false,,,500,252513.09999990463,252512.29999995232,241007.718,241013,241024.384,252541.03,8,400,4,,
break,html.Screen,4_53_1,2023-11-06T15:24:14.640Z,,0,,,NaN,,,,,,false,,,,252513.79999995232,252513.59999990463,,252513.29999995232,,252541.03,8,400,,,
break_continue,html.Screen,4_53_2,2023-11-06T15:24:14.640Z,,0,,,NaN,,,,,,false,,,,252514,252513.89999997616,,252513.79999995232,,252541.03,8,400,,,
sequence,flow.Sequence,4_53,2023-11-06T15:24:14.641Z,,0,,,11489.515999976167,completion,,,,,false,,,,252514.09999990463,252513.89999997616,241007.718,241012.89999997616,241024.384,252541.03,8,400,,,
trial,html.Screen,4_54_0,2023-11-06T15:24:17.661Z,,0,2,,2993.470000000001,response,ISIC_0069330.JPG,6,ISIC_9822801.JPG,ISIC_9822801.JPG,false,0,keypress(z),500,255534.89999997616,255534.5,252524.364,252514.29999995232,252541.03,255540.91,8,400,5,,ISIC_0069330.JPG
break,html.Screen,4_54_1,2023-11-06T15:24:17.663Z,,0,,,NaN,,,,,,false,,,,255536.09999990463,255535.89999997616,,255535.29999995232,,255540.91,8,400,,,
break_continue,html.Screen,4_54_2,2023-11-06T15:24:17.663Z,,0,,,NaN,,,,,,false,,,,255536.59999990463,255536.39999997616,,255536.19999992847,,255540.91,8,400,,,
sequence,flow.Sequence,4_54,2023-11-06T15:24:17.663Z,,0,,,2995.3699999761593,completion,,,,,false,,,,255536.69999992847,255536.39999997616,252524.364,252514.29999995232,252541.03,255540.91,8,400,,,
trial,html.Screen,4_55_0,2023-11-06T15:24:20.308Z,,0,2,,2640.4899999761546,response,ISIC_0054206.JPG,6,ISIC_0031401.JPG,ISIC_0054206.JPG,false,1,keypress(m),500,258181.69999992847,258181.39999997616,255524.244,255536.89999997616,255540.91,258191.225,8,400,6,,ISIC_0031401.JPG
break,html.Screen,4_55_1,2023-11-06T15:24:20.309Z,,0,,,NaN,,,,,,false,,,,258182.39999997616,258182.19999992847,,258181.89999997616,,258191.225,8,400,,,
break_continue,html.Screen,4_55_2,2023-11-06T15:24:20.309Z,,0,,,NaN,,,,,,false,,,,258182.59999990463,258182.5,,258182.39999997616,,258191.225,8,400,,,
sequence,flow.Sequence,4_55,2023-11-06T15:24:20.309Z,,0,,,2641.5899999999965,completion,,,,,false,,,,258182.59999990463,258182.5,255524.244,255536.79999995232,255540.91,258191.225,8,400,,,
trial,html.Screen,4_56_0,2023-11-06T15:24:23.000Z,,0,2,,2682.0749999523105,response,ISIC_9259989.JPG,5,ISIC_0013688.JPG,ISIC_9259989.JPG,false,1,keypress(m),500,260873.69999992847,260873.29999995232,258174.559,258182.69999992847,258191.225,260891.117,8,400,7,,ISIC_0013688.JPG
break,html.Screen,4_56_1,2023-11-06T15:24:23.001Z,,0,,,NaN,,,,,,false,,,,260874.79999995232,260874.59999990463,,260874.09999990463,,260891.117,8,400,,,
break_continue,html.Screen,4_56_2,2023-11-06T15:24:23.002Z,,0,,,NaN,,,,,,false,,,,260875.19999992847,260875.09999990463,,260874.89999997616,,260891.117,8,400,,,
sequence,flow.Sequence,4_56,2023-11-06T15:24:23.002Z,,0,,,2683.8749999046267,completion,,,,,false,,,,260875.39999997616,260875.09999990463,258174.559,258182.59999990463,258191.225,260891.117,8,400,,,
trial,html.Screen,4_57_0,2023-11-06T15:24:25.775Z,,0,2,,2756.7829999761598,response,ISIC_0059432.JPG,6,ISIC_5017874.JPG,ISIC_5017874.JPG,false,0,keypress(z),500,263648.2999999523,263647.89999997616,260874.451,260875.5,260891.117,263657.673,8,400,8,,ISIC_0059432.JPG
break,html.Screen,4_57_1,2023-11-06T15:24:25.776Z,,0,,,NaN,,,,,,false,,,,263649.2999999523,263649.09999990463,,263648.6999999285,,263657.673,8,400,,,
break_continue,html.Screen,4_57_2,2023-11-06T15:24:25.776Z,,0,,,NaN,,,,,,false,,,,263649.6999999285,263649.5,,263649.39999997616,,263657.673,8,400,,,
sequence,flow.Sequence,4_57,2023-11-06T15:24:25.776Z,,0,,,2758.3830000000016,completion,,,,,false,,,,263649.89999997616,263649.5,260874.451,260875.5,260891.117,263657.673,8,400,,,
trial,html.Screen,4_58_0,2023-11-06T15:24:28.291Z,,0,2,,2506.32699999999,response,ISIC_0060558.JPG,8,ISIC_5381712.JPG,ISIC_0060558.JPG,false,1,keypress(m),500,266164.5,266164,263641.007,263650.09999990463,263657.673,266174.239,8,400,9,,ISIC_5381712.JPG
break,html.Screen,4_58_1,2023-11-06T15:24:28.292Z,,0,,,NaN,,,,,,false,,,,266165.5,266165.1999999285,,266164.7999999523,,266174.239,8,400,,,
break_continue,html.Screen,4_58_2,2023-11-06T15:24:28.292Z,,0,,,NaN,,,,,,false,,,,266165.89999997616,266165.6999999285,,266165.5,,266174.239,8,400,,,
sequence,flow.Sequence,4_58,2023-11-06T15:24:28.293Z,,0,,,2508.0269999284646,completion,,,,,false,,,,266166,266165.6999999285,263641.007,263650.09999990463,263657.673,266174.239,8,400,,,
trial,html.Screen,4_59_0,2023-11-06T15:24:30.842Z,,0,2,,2540.7609999999986,response,ISIC_0026509.JPG,8,ISIC_9090822.JPG,ISIC_9090822.JPG,false,0,keypress(z),500,268715.39999997616,268715,266157.573,266166.1999999285,266174.239,268724.544,8,400,10,,ISIC_0026509.JPG
break,html.Screen,4_59_1,2023-11-06T15:24:30.843Z,,0,,,NaN,,,,,,false,,,,268716.09999990463,268716,,268715.6999999285,,268724.544,8,400,,,
break_continue,html.Screen,4_59_2,2023-11-06T15:24:30.843Z,,0,,,NaN,,,,,,false,,,,268716.39999997616,268716.2999999523,,268716.1999999285,,268724.544,8,400,,,
sequence,flow.Sequence,4_59,2023-11-06T15:24:30.843Z,,0,,,2542.060999952315,completion,,,,,false,,,,268716.59999990463,268716.2999999523,266157.573,266166.09999990463,266174.239,268724.544,8,400,,,
trial,html.Screen,4_60_0,2023-11-06T15:24:33.317Z,,0,2,,2465.65599992848,response,ISIC_2232883.JPG,8,ISIC_0034232.JPG,ISIC_2232883.JPG,false,1,keypress(m),500,271190.7999999523,271190.1999999285,268707.878,268716.6999999285,268724.544,271207.778,8,400,11,,ISIC_0034232.JPG
break,html.Screen,4_60_1,2023-11-06T15:24:33.318Z,,0,,,NaN,,,,,,false,,,,271191.89999997616,271191.59999990463,,271191.1999999285,,271207.778,8,400,,,
break_continue,html.Screen,4_60_2,2023-11-06T15:24:33.319Z,,0,,,NaN,,,,,,false,,,,271192.39999997616,271192.1999999285,,271192,,271207.778,8,400,,,
sequence,flow.Sequence,4_60,2023-11-06T15:24:33.319Z,,0,,,2467.65599992848,completion,,,,,false,,,,271192.5,271192.1999999285,268707.878,268716.6999999285,268724.544,271207.778,8,400,,,
trial,html.Screen,4_61_0,2023-11-06T15:24:36.141Z,,0,2,,2806.021999952325,response,ISIC_0068234.JPG,8,ISIC_8060329.JPG,ISIC_0068234.JPG,false,1,keypress(m),500,274014.1999999285,274013.7999999523,271191.112,271192.6999999285,271207.778,274024.332,8,400,12,,ISIC_8060329.JPG
break,html.Screen,4_61_1,2023-11-06T15:24:36.142Z,,0,,,NaN,,,,,,false,,,,274015.59999990463,274015.2999999523,,274014.5,,274024.332,8,400,,,
break_continue,html.Screen,4_61_2,2023-11-06T15:24:36.142Z,,0,,,NaN,,,,,,false,,,,274015.89999997616,274015.7999999523,,274015.7999999523,,274024.332,8,400,,,
sequence,flow.Sequence,4_61,2023-11-06T15:24:36.143Z,,0,,,2808.021999952325,completion,,,,,false,,,,274016,274015.7999999523,271191.112,271192.59999990463,271207.778,274024.332,8,400,,,
trial,html.Screen,4_62_0,2023-11-06T15:24:38.931Z,,0,2,,2779.9679999523214,response,ISIC_7109582.JPG,8,ISIC_0024987.JPG,ISIC_0024987.JPG,false,0,keypress(z),500,276804.6999999285,276804.2999999523,274007.666,274016.09999990463,274024.332,276807.554,8,400,13,,ISIC_7109582.JPG
break,html.Screen,4_62_1,2023-11-06T15:24:38.932Z,,0,,,NaN,,,,,,false,,,,276805.7999999523,276805.59999990463,,276805,,276807.554,8,400,,,
break_continue,html.Screen,4_62_2,2023-11-06T15:24:38.933Z,,0,,,NaN,,,,,,false,,,,276806.09999990463,276806.09999990463,,276805.89999997616,,276807.554,8,400,,,
sequence,flow.Sequence,4_62,2023-11-06T15:24:38.933Z,,0,,,2781.7679999046377,completion,,,,,false,,,,276806.39999997616,276806.09999990463,274007.666,274016.09999990463,274024.332,276807.554,8,400,,,
trial,html.Screen,4_63_0,2023-11-06T15:24:41.853Z,,0,2,,2918.2459999523126,response,ISIC_3002956.JPG,6,ISIC_6447663.JPG,ISIC_3002956.JPG,false,1,keypress(m),500,279726.1999999285,279725.7999999523,276790.888,276806.5,276807.554,279741.195,8,400,14,,ISIC_6447663.JPG
break,html.Screen,4_63_1,2023-11-06T15:24:41.854Z,,0,,,NaN,,,,,,false,,,,279727.1999999285,279726.89999997616,,279726.5,,279741.195,8,400,,,
break_continue,html.Screen,4_63_2,2023-11-06T15:24:41.854Z,,0,,,NaN,,,,,,false,,,,279727.59999990463,279727.5,,279727.2999999523,,279741.195,8,400,,,
sequence,flow.Sequence,4_63,2023-11-06T15:24:41.854Z,,0,,,2919.9459999999963,completion,,,,,false,,,,279727.6999999285,279727.5,276790.888,276806.5,276807.554,279741.195,8,400,,,
trial,html.Screen,4_64_0,2023-11-06T15:24:44.707Z,,0,2,,2838.704999976151,response,ISIC_0016112.JPG,7,ISIC_7747998.JPG,ISIC_7747998.JPG,false,0,keypress(z),500,282580.39999997616,282579.89999997616,279724.529,279727.89999997616,279741.195,282591.081,8,400,15,,ISIC_0016112.JPG
break,html.Screen,4_64_1,2023-11-06T15:24:44.708Z,,0,,,NaN,,,,,,false,,,,282581.5,282581.1999999285,,282580.6999999285,,282591.081,8,400,,,
break_continue,html.Screen,4_64_2,2023-11-06T15:24:44.708Z,,0,,,NaN,,,,,,false,,,,282581.89999997616,282581.6999999285,,282581.59999990463,,282591.081,8,400,,,
sequence,flow.Sequence,4_64,2023-11-06T15:24:44.709Z,,0,,,2840.5049999284674,completion,,,,,false,,,,282582,282581.6999999285,279724.529,279727.7999999523,279741.195,282591.081,8,400,,,
trial,html.Screen,4_65_0,2023-11-06T15:24:47.429Z,,0,2,,2710.518999904627,response,ISIC_8649055.JPG,6,ISIC_4692454.JPG,ISIC_8649055.JPG,false,1,keypress(m),500,285301.89999997616,285301.59999990463,282574.415,282582.09999990463,282591.081,285324.305,8,400,16,,ISIC_4692454.JPG
break,html.Screen,4_65_1,2023-11-06T15:24:47.429Z,,0,,,NaN,,,,,,false,,,,285302.59999990463,285302.39999997616,,285302,,285324.305,8,400,,,
break_continue,html.Screen,4_65_2,2023-11-06T15:24:47.429Z,,0,,,NaN,,,,,,false,,,,285302.7999999523,285302.59999990463,,285302.59999990463,,285324.305,8,400,,,
sequence,flow.Sequence,4_65,2023-11-06T15:24:47.429Z,,0,,,2711.518999904627,completion,,,,,false,,,,285302.7999999523,285302.59999990463,282574.415,282582,282591.081,285324.305,8,400,,,
trial,html.Screen,4_66_0,2023-11-06T15:24:50.699Z,,0,2,,3247.195000000007,response,ISIC_0027674.JPG,8,ISIC_0069536.JPG,ISIC_0027674.JPG,false,1,keypress(m),500,288572,288571.5,285307.639,285302.7999999523,285324.305,288574.586,8,400,17,,ISIC_0069536.JPG
break,html.Screen,4_66_1,2023-11-06T15:24:50.700Z,,0,,,NaN,,,,,,false,,,,288573,288572.7999999523,,288572.1999999285,,288574.586,8,400,,,
break_continue,html.Screen,4_66_2,2023-11-06T15:24:50.700Z,,0,,,NaN,,,,,,false,,,,288573.2999999523,288573.2999999523,,288573.09999990463,,288574.586,8,400,,,
sequence,flow.Sequence,4_66,2023-11-06T15:24:50.700Z,,0,,,3248.9949999523233,completion,,,,,false,,,,288573.5,288573.2999999523,285307.639,285302.7999999523,285324.305,288574.586,8,400,,,
trial,html.Screen,4_67_0,2023-11-06T15:24:53.521Z,,0,2,,2819.313999976148,response,ISIC_0057881.JPG,8,ISIC_0025892.JPG,ISIC_0057881.JPG,false,1,keypress(m),500,291394.39999997616,291393.89999997616,288557.92,288573.59999990463,288574.586,291407.806,8,400,18,,ISIC_0025892.JPG
break,html.Screen,4_67_1,2023-11-06T15:24:53.522Z,,0,,,NaN,,,,,,false,,,,291395.5,291395.1999999285,,291394.59999990463,,291407.806,8,400,,,
break_continue,html.Screen,4_67_2,2023-11-06T15:24:53.522Z,,0,,,NaN,,,,,,false,,,,291395.7999999523,291395.59999990463,,291395.59999990463,,291407.806,8,400,,,
sequence,flow.Sequence,4_67,2023-11-06T15:24:53.523Z,,0,,,2821.0139999046223,completion,,,,,false,,,,291396,291395.59999990463,288557.92,288573.59999990463,288574.586,291407.806,8,400,,,
trial,html.Screen,4_68_0,2023-11-06T15:24:56.391Z,,0,2,,2855.893999928492,response,ISIC_0010346.JPG,8,ISIC_1452549.JPG,ISIC_0010346.JPG,false,1,keypress(m),500,294264.2999999523,294263.6999999285,291391.14,291396.09999990463,291407.806,294274.358,8,400,19,,ISIC_1452549.JPG
break,html.Screen,4_68_1,2023-11-06T15:24:56.392Z,,0,,,NaN,,,,,,false,,,,294265.1999999285,294265,,294264.5,,294274.358,8,400,,,
break_continue,html.Screen,4_68_2,2023-11-06T15:24:56.392Z,,0,,,NaN,,,,,,false,,,,294265.59999990463,294265.5,,294265.39999997616,,294274.358,8,400,,,
sequence,flow.Sequence,4_68,2023-11-06T15:24:56.392Z,,0,,,2857.6940000000177,completion,,,,,false,,,,294265.7999999523,294265.5,291391.14,291396,291407.806,294274.358,8,400,,,
trial,html.Screen,4_69_0,2023-11-06T15:24:59.117Z,,0,2,,2715.741999904625,response,ISIC_6208222.JPG,8,ISIC_5929687.JPG,ISIC_6208222.JPG,false,1,keypress(m),500,296990.6999999285,296990.09999990463,294257.692,294265.89999997616,294274.358,297007.582,8,400,20,,ISIC_5929687.JPG
break,html.Screen,4_69_1,2023-11-06T15:24:59.118Z,,0,,,NaN,,,,,,false,,,,296991.6999999285,296991.5,,296990.89999997616,,297007.582,8,400,,,
break_continue,html.Screen,4_69_2,2023-11-06T15:24:59.119Z,,0,,,NaN,,,,,,false,,,,296992.2999999523,296992.09999990463,,296992,,297007.582,8,400,,,
sequence,flow.Sequence,4_69,2023-11-06T15:24:59.119Z,,0,,,2717.741999904625,completion,,,,,false,,,,296992.5,296992.09999990463,294257.692,294265.7999999523,294274.358,297007.582,8,400,,,
trial,html.Screen,4_70_0,2023-11-06T15:25:02.755Z,,0,2,,3620.5179999046377,response,ISIC_1560455.JPG,5,ISIC_6628544.JPG,ISIC_1560455.JPG,false,1,keypress(m),500,300628.59999990463,300628.09999990463,296990.916,296992.59999990463,297007.582,300641.168,8,400,21,,ISIC_6628544.JPG
break,html.Screen,4_70_1,2023-11-06T15:25:02.757Z,,0,,,NaN,,,,,,false,,,,300630.09999990463,300629.7999999523,,300628.89999997616,,300641.168,8,400,,,
break_continue,html.Screen,4_70_2,2023-11-06T15:25:02.757Z,,0,,,NaN,,,,,,false,,,,300630.39999997616,300630.2999999523,,300630.1999999285,,300641.168,8,400,,,
sequence,flow.Sequence,4_70,2023-11-06T15:25:02.757Z,,0,,,3622.7179999523214,completion,,,,,false,,,,300630.39999997616,300630.2999999523,296990.916,296992.5,297007.582,300641.168,8,400,,,
trial,html.Screen,4_71_0,2023-11-06T15:25:05.658Z,,0,2,,2890.0319999284693,response,ISIC_0029982.JPG,6,ISIC_0247197.JPG,ISIC_0247197.JPG,false,0,keypress(z),500,303531.59999990463,303531.1999999285,300624.502,300630.59999990463,300641.168,303541.052,8,400,22,,ISIC_0029982.JPG
break,html.Screen,4_71_1,2023-11-06T15:25:05.659Z,,0,,,NaN,,,,,,false,,,,303532.7999999523,303532.39999997616,,303531.89999997616,,303541.052,8,400,,,
break_continue,html.Screen,4_71_2,2023-11-06T15:25:05.660Z,,0,,,NaN,,,,,,false,,,,303533.2999999523,303533.1999999285,,303533,,303541.052,8,400,,,
sequence,flow.Sequence,4_71,2023-11-06T15:25:05.660Z,,0,,,2892.0319999284693,completion,,,,,false,,,,303533.5,303533.1999999285,300624.502,300630.59999990463,300641.168,303541.052,8,400,,,
trial,html.Screen,4_72_0,2023-11-06T15:25:09.777Z,,0,2,,4108.947999999975,response,ISIC_0929483.JPG,5,ISIC_0033885.JPG,ISIC_0929483.JPG,false,1,keypress(m),500,307650.1999999285,307650,303524.386,303533.59999990463,303541.052,307657.554,8,400,23,,ISIC_0033885.JPG
break,html.Screen,4_72_1,2023-11-06T15:25:09.777Z,,0,,,NaN,,,,,,false,,,,307650.7999999523,307650.59999990463,,307650.39999997616,,307657.554,8,400,,,
break_continue,html.Screen,4_72_2,2023-11-06T15:25:09.778Z,,0,,,NaN,,,,,,false,,,,307651,307650.89999997616,,307650.89999997616,,307657.554,8,400,,,
sequence,flow.Sequence,4_72,2023-11-06T15:25:09.778Z,,0,,,4109.847999976133,completion,,,,,false,,,,307651.09999990463,307650.89999997616,303524.386,303533.59999990463,303541.052,307657.554,8,400,,,
trial,html.Screen,4_73_0,2023-11-06T15:25:13.895Z,,0,2,,4110.145999928471,response,ISIC_9271800.JPG,9,ISIC_0056186.JPG,ISIC_0056186.JPG,false,0,keypress(z),500,311767.89999997616,311767.6999999285,307640.888,307651.09999990463,307657.554,311774.482,8,400,24,,ISIC_9271800.JPG
break,html.Screen,4_73_1,2023-11-06T15:25:13.895Z,,0,,,NaN,,,,,,false,,,,311768.2999999523,311768.1999999285,,311768,,311774.482,8,400,,,
break_continue,html.Screen,4_73_2,2023-11-06T15:25:13.895Z,,0,,,NaN,,,,,,false,,,,311768.5,311768.39999997616,,311768.39999997616,,311774.482,8,400,,,
sequence,flow.Sequence,4_73,2023-11-06T15:25:13.895Z,,0,,,4110.845999976154,completion,,,,,false,,,,311768.5,311768.39999997616,307640.888,307651.09999990463,307657.554,311774.482,8,400,,,
trial,html.Screen,4_74_0,2023-11-06T15:25:16.856Z,,0,2,,2954.817999952298,response,ISIC_9122215.JPG,5,ISIC_0064823.JPG,ISIC_9122215.JPG,false,1,keypress(m),500,314729.6999999285,314729.2999999523,311757.816,311768.59999990463,311774.482,314741.03,8,400,25,,ISIC_0064823.JPG
break,html.Screen,4_74_1,2023-11-06T15:25:16.857Z,,0,,,NaN,,,,,,false,,,,314730.6999999285,314730.5,,314730,,314741.03,8,400,,,
break_continue,html.Screen,4_74_2,2023-11-06T15:25:16.858Z,,0,,,NaN,,,,,,false,,,,314731,314730.89999997616,,314730.7999999523,,314741.03,8,400,,,
sequence,flow.Sequence,4_74,2023-11-06T15:25:16.858Z,,0,,,2956.41799997614,completion,,,,,false,,,,314731.1999999285,314730.89999997616,311757.816,311768.5,311774.482,314741.03,8,400,,,
trial,html.Screen,4_75_0,2023-11-06T15:25:19.685Z,,0,2,,2817.1699999284465,response,ISIC_7566505.JPG,5,ISIC_3928910.JPG,ISIC_3928910.JPG,false,0,keypress(z),500,317558.5,317558.1999999285,314724.364,314731.2999999523,314741.03,317574.25,8,400,26,,ISIC_7566505.JPG
break,html.Screen,4_75_1,2023-11-06T15:25:19.686Z,,0,,,NaN,,,,,,false,,,,317559.59999990463,317559.1999999285,,317558.7999999523,,317574.25,8,400,,,
break_continue,html.Screen,4_75_2,2023-11-06T15:25:19.687Z,,0,,,NaN,,,,,,false,,,,317559.89999997616,317559.7999999523,,317559.6999999285,,317574.25,8,400,,,
sequence,flow.Sequence,4_75,2023-11-06T15:25:19.687Z,,0,,,2818.7699999522883,completion,,,,,false,,,,317560.09999990463,317559.7999999523,314724.364,314731.1999999285,314741.03,317574.25,8,400,,,
trial,html.Screen,4_76_0,2023-11-06T15:25:22.694Z,,0,2,,2992.149999976158,response,ISIC_0025305.JPG,8,ISIC_0031406.JPG,ISIC_0025305.JPG,false,1,keypress(m),500,320566.89999997616,320566.39999997616,317557.584,317560.1999999285,317574.25,320574.527,8,400,27,,ISIC_0031406.JPG
break,html.Screen,4_76_1,2023-11-06T15:25:22.694Z,,0,,,NaN,,,,,,false,,,,320567.6999999285,320567.5,,320567.09999990463,,320574.527,8,400,,,
break_continue,html.Screen,4_76_2,2023-11-06T15:25:22.695Z,,0,,,NaN,,,,,,false,,,,320568,320567.89999997616,,320567.7999999523,,320574.527,8,400,,,
sequence,flow.Sequence,4_76,2023-11-06T15:25:22.695Z,,0,,,2993.649999976158,completion,,,,,false,,,,320568.09999990463,320567.89999997616,317557.584,317560.1999999285,317574.25,320574.527,8,400,,,
trial,html.Screen,4_77_0,2023-11-06T15:25:25.510Z,,0,2,,2808.6729999284726,response,ISIC_0059808.JPG,7,ISIC_0013457.JPG,ISIC_0059808.JPG,false,1,keypress(m),500,323383.6999999285,323383.1999999285,320557.861,320568.2999999523,320574.527,323391.081,8,400,28,,ISIC_0013457.JPG
break,html.Screen,4_77_1,2023-11-06T15:25:25.511Z,,0,,,NaN,,,,,,false,,,,323384.59999990463,323384.39999997616,,323383.89999997616,,323391.081,8,400,,,
break_continue,html.Screen,4_77_2,2023-11-06T15:25:25.512Z,,0,,,NaN,,,,,,false,,,,323385.09999990463,323384.89999997616,,323384.7999999523,,323391.081,8,400,,,
sequence,flow.Sequence,4_77,2023-11-06T15:25:25.512Z,,0,,,2810.3729999761563,completion,,,,,false,,,,323385.1999999285,323384.89999997616,320557.861,320568.1999999285,320574.527,323391.081,8,400,,,
trial,html.Screen,4_78_0,2023-11-06T15:25:28.461Z,,0,2,,2942.8189999761526,response,ISIC_0056141.JPG,5,ISIC_1745731.JPG,ISIC_1745731.JPG,false,0,keypress(z),500,326334.39999997616,326333.89999997616,323374.415,323385.1999999285,323391.081,326340.963,8,400,29,,ISIC_0056141.JPG
break,html.Screen,4_78_1,2023-11-06T15:25:28.462Z,,0,,,NaN,,,,,,false,,,,326335.5,326335.2999999523,,326334.6999999285,,326340.963,8,400,,,
break_continue,html.Screen,4_78_2,2023-11-06T15:25:28.463Z,,0,,,NaN,,,,,,false,,,,326335.7999999523,326335.7999999523,,326335.59999990463,,326340.963,8,400,,,
sequence,flow.Sequence,4_78,2023-11-06T15:25:28.463Z,,0,,,2944.7189999523107,completion,,,,,false,,,,326336,326335.7999999523,323374.415,323385.1999999285,323391.081,326340.963,8,400,,,
trial,html.Screen,4_79_0,2023-11-06T15:25:31.173Z,,0,2,,2704.6369999046437,response,ISIC_0009911.JPG,5,ISIC_0067830.JPG,ISIC_0067830.JPG,false,0,keypress(z),500,329046.1999999285,329045.59999990463,326324.297,326336.1999999285,326340.963,329057.521,8,400,30,,ISIC_0009911.JPG
break,html.Screen,4_79_1,2023-11-06T15:25:31.174Z,,0,,,NaN,,,,,,false,,,,329047.1999999285,329047,,329046.5,,329057.521,8,400,,,
break_continue,html.Screen,4_79_2,2023-11-06T15:25:31.174Z,,0,,,NaN,,,,,,false,,,,329047.59999990463,329047.5,,329047.39999997616,,329057.521,8,400,,,
sequence,flow.Sequence,4_79,2023-11-06T15:25:31.175Z,,0,,,2706.537000000011,completion,,,,,false,,,,329047.7999999523,329047.5,326324.297,326336.09999990463,326340.963,329057.521,8,400,,,
trial,html.Screen,4_80_0,2023-11-06T15:25:34.281Z,,0,2,,3095.87899997615,response,ISIC_0062298.JPG,7,ISIC_6745554.JPG,ISIC_6745554.JPG,false,0,keypress(z),500,332153.89999997616,332153.39999997616,329040.855,329047.89999997616,329057.521,332157.856,8,400,31,,ISIC_0062298.JPG
break,html.Screen,4_80_1,2023-11-06T15:25:34.282Z,,0,,,NaN,,,,,,false,,,,332154.89999997616,332154.59999990463,,332154.1999999285,,332157.856,8,400,,,
break_continue,html.Screen,4_80_2,2023-11-06T15:25:34.282Z,,0,,,NaN,,,,,,false,,,,332155.2999999523,332155.09999990463,,332154.89999997616,,332157.856,8,400,,,
sequence,flow.Sequence,4_80,2023-11-06T15:25:34.282Z,,0,,,3097.5789999046247,completion,,,,,false,,,,332155.39999997616,332155.09999990463,329040.855,329047.7999999523,329057.521,332157.856,8,400,,,
trial,html.Screen,4_81_0,2023-11-06T15:25:37.029Z,,0,2,,2744.143999999971,response,ISIC_0014428.JPG,6,ISIC_0054134.JPG,ISIC_0054134.JPG,false,0,keypress(z),500,334902.39999997616,334902,332141.19,332155.5,332157.856,334907.746,8,400,32,,ISIC_0014428.JPG
break,html.Screen,4_81_1,2023-11-06T15:25:37.030Z,,0,,,NaN,,,,,,false,,,,334903.5,334903.2999999523,,334902.7999999523,,334907.746,8,400,,,
break_continue,html.Screen,4_81_2,2023-11-06T15:25:37.031Z,,0,,,NaN,,,,,,false,,,,334903.89999997616,334903.7999999523,,334903.59999990463,,334907.746,8,400,,,
sequence,flow.Sequence,4_81,2023-11-06T15:25:37.031Z,,0,,,2745.9439999522874,completion,,,,,false,,,,334904.09999990463,334903.7999999523,332141.19,332155.5,332157.856,334907.746,8,400,,,
trial,html.Screen,4_82_0,2023-11-06T15:25:39.782Z,,0,2,,2746.853999904648,response,ISIC_9210086.JPG,7,ISIC_0025072.JPG,ISIC_9210086.JPG,false,1,keypress(m),500,337654.89999997616,337654.59999990463,334891.08,334904.1999999285,334907.746,337657.636,8,400,33,,ISIC_0025072.JPG
break,html.Screen,4_82_1,2023-11-06T15:25:39.782Z,,0,,,NaN,,,,,,false,,,,337655.5,337655.39999997616,,337655,,337657.636,8,400,,,
break_continue,html.Screen,4_82_2,2023-11-06T15:25:39.782Z,,0,,,NaN,,,,,,false,,,,337655.6999999285,337655.59999990463,,337655.5,,337657.636,8,400,,,
sequence,flow.Sequence,4_82,2023-11-06T15:25:39.783Z,,0,,,2747.853999904648,completion,,,,,false,,,,337655.7999999523,337655.59999990463,334891.08,334904.1999999285,334907.746,337657.636,8,400,,,
trial,html.Screen,4_83_0,2023-11-06T15:25:42.605Z,,0,2,,2819.8640000000014,response,ISIC_3303825.JPG,7,ISIC_0061848.JPG,ISIC_0061848.JPG,false,0,keypress(z),500,340477.7999999523,340477.5,337640.97,337655.89999997616,337657.636,340490.856,8,400,34,,ISIC_3303825.JPG
break,html.Screen,4_83_1,2023-11-06T15:25:42.605Z,,0,,,NaN,,,,,,false,,,,340478.5,340478.5,,340478,,340490.856,8,400,,,
break_continue,html.Screen,4_83_2,2023-11-06T15:25:42.606Z,,0,,,NaN,,,,,,false,,,,340478.7999999523,340478.6999999285,,340478.6999999285,,340490.856,8,400,,,
sequence,flow.Sequence,4_83,2023-11-06T15:25:42.606Z,,0,,,2821.063999928476,completion,,,,,false,,,,340478.89999997616,340478.6999999285,337640.97,337655.89999997616,337657.636,340490.856,8,400,,,
trial,html.Screen,4_84_0,2023-11-06T15:25:45.421Z,,0,2,,2803.143999999971,response,ISIC_1731109.JPG,9,ISIC_0033329.JPG,ISIC_1731109.JPG,false,1,keypress(m),500,343294.39999997616,343294,340474.19,340479,340490.856,343307.807,8,400,35,,ISIC_0033329.JPG
break,html.Screen,4_84_1,2023-11-06T15:25:45.422Z,,0,,,NaN,,,,,,false,,,,343295.1999999285,343294.89999997616,,343294.59999990463,,343307.807,8,400,,,
break_continue,html.Screen,4_84_2,2023-11-06T15:25:45.422Z,,0,,,NaN,,,,,,false,,,,343295.39999997616,343295.39999997616,,343295.2999999523,,343307.807,8,400,,,
sequence,flow.Sequence,4_84,2023-11-06T15:25:45.422Z,,0,,,2804.5439999761293,completion,,,,,false,,,,343295.59999990463,343295.39999997616,340474.19,340479,340490.856,343307.807,8,400,,,
trial,html.Screen,4_85_0,2023-11-06T15:25:48.531Z,,0,2,,3095.6930000000284,response,ISIC_0027030.JPG,5,ISIC_9197665.JPG,ISIC_0027030.JPG,false,1,keypress(m),500,346403.89999997616,346403.5,343291.141,343295.6999999285,343307.807,346407.683,8,400,36,,ISIC_9197665.JPG
break,html.Screen,4_85_1,2023-11-06T15:25:48.532Z,,0,,,NaN,,,,,,false,,,,346404.89999997616,346404.7999999523,,346404.1999999285,,346407.683,8,400,,,
break_continue,html.Screen,4_85_2,2023-11-06T15:25:48.532Z,,0,,,NaN,,,,,,false,,,,346405.2999999523,346405.1999999285,,346405.09999990463,,346407.683,8,400,,,
sequence,flow.Sequence,4_85,2023-11-06T15:25:48.532Z,,0,,,3097.392999928503,completion,,,,,false,,,,346405.5,346405.1999999285,343291.141,343295.59999990463,343307.807,346407.683,8,400,,,
trial,html.Screen,4_86_0,2023-11-06T15:25:51.414Z,,0,2,,2879.816999999981,response,ISIC_0046422.JPG,7,ISIC_3463156.JPG,ISIC_0046422.JPG,false,1,keypress(m),500,349287.6999999285,349287.5,346391.017,346405.6999999285,346407.683,349290.901,8,400,37,,ISIC_3463156.JPG
break,html.Screen,4_86_1,2023-11-06T15:25:51.415Z,,0,,,NaN,,,,,,false,,,,349288,349288,,349287.6999999285,,349290.901,8,400,,,
break_continue,html.Screen,4_86_2,2023-11-06T15:25:51.415Z,,0,,,NaN,,,,,,false,,,,349288.09999990463,349288.09999990463,,349288.09999990463,,349290.901,8,400,,,
sequence,flow.Sequence,4_86,2023-11-06T15:25:51.415Z,,0,,,2880.4169999046135,completion,,,,,false,,,,349288.2999999523,349288.09999990463,346391.017,346405.59999990463,346407.683,349290.901,8,400,,,
trial,html.Screen,4_87_0,2023-11-06T15:25:54.557Z,,0,2,,3138.4989999761456,response,ISIC_0031146.JPG,9,ISIC_0014157.JPG,ISIC_0031146.JPG,false,1,keypress(m),500,352430,352429.39999997616,349274.235,349288.2999999523,349290.901,352441.187,8,400,38,,ISIC_0014157.JPG
break,html.Screen,4_87_1,2023-11-06T15:25:54.558Z,,0,,,NaN,,,,,,false,,,,352430.89999997616,352430.7999999523,,352430.1999999285,,352441.187,8,400,,,
break_continue,html.Screen,4_87_2,2023-11-06T15:25:54.558Z,,0,,,NaN,,,,,,false,,,,352431.39999997616,352431.2999999523,,352431.09999990463,,352441.187,8,400,,,
sequence,flow.Sequence,4_87,2023-11-06T15:25:54.558Z,,0,,,3140.3989999523037,completion,,,,,false,,,,352431.5,352431.2999999523,349274.235,349288.2999999523,349290.901,352441.187,8,400,,,
trial,html.Screen,4_88_0,2023-11-06T15:25:57.284Z,,0,2,,2715.512999928498,response,ISIC_0027036.JPG,8,ISIC_9099430.JPG,ISIC_0027036.JPG,false,1,keypress(m),500,355157.1999999285,355156.6999999285,352424.521,352431.6999999285,352441.187,355174.411,8,400,39,,ISIC_9099430.JPG
break,html.Screen,4_88_1,2023-11-06T15:25:57.285Z,,0,,,NaN,,,,,,false,,,,355158.1999999285,355157.89999997616,,355157.39999997616,,355174.411,8,400,,,
break_continue,html.Screen,4_88_2,2023-11-06T15:25:57.285Z,,0,,,NaN,,,,,,false,,,,355158.5,355158.39999997616,,355158.1999999285,,355174.411,8,400,,,
sequence,flow.Sequence,4_88,2023-11-06T15:25:57.286Z,,0,,,2717.212999976182,completion,,,,,false,,,,355158.7999999523,355158.39999997616,352424.521,352431.59999990463,352441.187,355174.411,8,400,,,
trial,html.Screen,4_89_0,2023-11-06T15:26:00.069Z,,0,2,,2766.8889999522944,response,ISIC_7799968.JPG,9,ISIC_0002295.JPG,ISIC_0002295.JPG,false,0,keypress(z),500,357941.6999999285,357941.2999999523,355157.745,355158.7999999523,355174.411,357957.633,8,400,40,,ISIC_7799968.JPG
break,html.Screen,4_89_1,2023-11-06T15:26:00.070Z,,0,,,NaN,,,,,,false,,,,357942.6999999285,357942.5,,357942,,357957.633,8,400,,,
break_continue,html.Screen,4_89_2,2023-11-06T15:26:00.070Z,,0,,,NaN,,,,,,false,,,,357943.1999999285,357943,,357942.89999997616,,357957.633,8,400,,,
sequence,flow.Sequence,4_89,2023-11-06T15:26:00.070Z,,0,,,2768.588999999978,completion,,,,,false,,,,357943.39999997616,357943,355157.745,355158.7999999523,355174.411,357957.633,8,400,,,
trial,html.Screen,4_90_0,2023-11-06T15:26:02.858Z,,0,2,,2772.7669999761856,response,ISIC_0032687.JPG,6,ISIC_0189336.JPG,ISIC_0032687.JPG,false,1,keypress(m),500,360730.7999999523,360730.39999997616,357940.967,357943.5,357957.633,360740.855,8,400,41,,ISIC_0189336.JPG
break,html.Screen,4_90_1,2023-11-06T15:26:02.858Z,,0,,,NaN,,,,,,false,,,,360731.5,360731.39999997616,,360731,,360740.855,8,400,,,
break_continue,html.Screen,4_90_2,2023-11-06T15:26:02.859Z,,0,,,NaN,,,,,,false,,,,360731.7999999523,360731.6999999285,,360731.59999990463,,360740.855,8,400,,,
sequence,flow.Sequence,4_90,2023-11-06T15:26:02.859Z,,0,,,2774.066999928502,completion,,,,,false,,,,360731.89999997616,360731.6999999285,357940.967,357943.5,357957.633,360740.855,8,400,,,
trial,html.Screen,4_91_0,2023-11-06T15:26:05.774Z,,0,2,,2905.844999928493,response,ISIC_6260969.JPG,7,ISIC_8711983.JPG,ISIC_6260969.JPG,false,1,keypress(m),500,363647.09999990463,363646.6999999285,360724.189,360732.09999990463,360740.855,363657.861,8,400,42,,ISIC_8711983.JPG
break,html.Screen,4_91_1,2023-11-06T15:26:05.775Z,,0,,,NaN,,,,,,false,,,,363648.09999990463,363647.89999997616,,363647.39999997616,,363657.861,8,400,,,
break_continue,html.Screen,4_91_2,2023-11-06T15:26:05.775Z,,0,,,NaN,,,,,,false,,,,363648.5,363648.2999999523,,363648.1999999285,,363657.861,8,400,,,
sequence,flow.Sequence,4_91,2023-11-06T15:26:05.776Z,,0,,,2907.444999952335,completion,,,,,false,,,,363648.59999990463,363648.2999999523,360724.189,360732.09999990463,360740.855,363657.861,8,400,,,
trial,html.Screen,4_92_0,2023-11-06T15:26:08.510Z,,0,2,,2724.6390000000247,response,ISIC_7833178.JPG,7,ISIC_0008630.JPG,ISIC_7833178.JPG,false,1,keypress(m),500,366382.89999997616,366382.5,363641.195,363648.7999999523,363657.861,366391.085,8,400,43,,ISIC_0008630.JPG
break,html.Screen,4_92_1,2023-11-06T15:26:08.511Z,,0,,,NaN,,,,,,false,,,,366383.89999997616,366383.6999999285,,366383.1999999285,,366391.085,8,400,,,
break_continue,html.Screen,4_92_2,2023-11-06T15:26:08.511Z,,0,,,NaN,,,,,,false,,,,366384.1999999285,366384.09999990463,,366384,,366391.085,8,400,,,
sequence,flow.Sequence,4_92,2023-11-06T15:26:08.511Z,,0,,,2726.2389999046572,completion,,,,,false,,,,366384.39999997616,366384.09999990463,363641.195,363648.6999999285,363657.861,366391.085,8,400,,,
trial,html.Screen,4_93_0,2023-11-06T15:26:11.236Z,,0,2,,2717.0149999046116,response,ISIC_0059330.JPG,7,ISIC_0033229.JPG,ISIC_0059330.JPG,false,1,keypress(m),500,369108.6999999285,369108.09999990463,366374.419,366384.5,366391.085,369124.309,8,400,44,,ISIC_0033229.JPG
break,html.Screen,4_93_1,2023-11-06T15:26:11.237Z,,0,,,NaN,,,,,,false,,,,369109.59999990463,369109.2999999523,,369108.89999997616,,369124.309,8,400,,,
break_continue,html.Screen,4_93_2,2023-11-06T15:26:11.237Z,,0,,,NaN,,,,,,false,,,,369110,369109.89999997616,,369109.6999999285,,369124.309,8,400,,,
sequence,flow.Sequence,4_93,2023-11-06T15:26:11.237Z,,0,,,2718.814999976137,completion,,,,,false,,,,369110.1999999285,369109.89999997616,366374.419,366384.5,366391.085,369124.309,8,400,,,
trial,html.Screen,4_94_0,2023-11-06T15:26:14.120Z,,0,2,,2868.290999904624,response,ISIC_0055087.JPG,5,ISIC_8613657.JPG,ISIC_0055087.JPG,false,1,keypress(m),500,371992.89999997616,371992.59999990463,369107.643,369110.39999997616,369124.309,372007.527,8,400,45,,ISIC_8613657.JPG
break,html.Screen,4_94_1,2023-11-06T15:26:14.120Z,,0,,,NaN,,,,,,false,,,,371993.59999990463,371993.39999997616,,371993,,372007.527,8,400,,,
break_continue,html.Screen,4_94_2,2023-11-06T15:26:14.121Z,,0,,,NaN,,,,,,false,,,,371993.7999999523,371993.6999999285,,371993.59999990463,,372007.527,8,400,,,
sequence,flow.Sequence,4_94,2023-11-06T15:26:14.121Z,,0,,,2869.390999928466,completion,,,,,false,,,,371993.7999999523,371993.6999999285,369107.643,369110.2999999523,369124.309,372007.527,8,400,,,
trial,html.Screen,4_95_0,2023-11-06T15:26:16.734Z,,0,2,,2598.8729999761563,response,ISIC_0046645.JPG,7,ISIC_7024807.JPG,ISIC_0046645.JPG,false,1,keypress(m),500,374606.7999999523,374606.39999997616,371990.861,371993.89999997616,372007.527,374607.834,8,400,46,,ISIC_7024807.JPG
break,html.Screen,4_95_1,2023-11-06T15:26:16.735Z,,0,,,NaN,,,,,,false,,,,374607.7999999523,374607.59999990463,,374607.09999990463,,374607.834,8,400,,,
break_continue,html.Screen,4_95_2,2023-11-06T15:26:16.735Z,,0,,,NaN,,,,,,false,,,,374608.09999990463,374608,,374607.89999997616,,374607.834,8,400,,,
sequence,flow.Sequence,4_95,2023-11-06T15:26:16.735Z,,0,,,2600.472999999998,completion,,,,,false,,,,374608.2999999523,374608,371990.861,371993.89999997616,372007.527,374607.834,8,400,,,
trial,html.Screen,4_96_0,2023-11-06T15:26:19.716Z,,0,2,,2980.465999952343,response,ISIC_7885010.JPG,8,ISIC_0030492.JPG,ISIC_7885010.JPG,false,1,keypress(m),500,377589,377588.2999999523,374591.168,374608.5,374607.834,377591.048,8,400,47,,ISIC_0030492.JPG
break,html.Screen,4_96_1,2023-11-06T15:26:19.717Z,,0,,,NaN,,,,,,false,,,,377590,377589.6999999285,,377589.1999999285,,377591.048,8,400,,,
break_continue,html.Screen,4_96_2,2023-11-06T15:26:19.717Z,,0,,,NaN,,,,,,false,,,,377590.39999997616,377590.1999999285,,377590.09999990463,,377591.048,8,400,,,
sequence,flow.Sequence,4_96,2023-11-06T15:26:19.718Z,,0,,,2982.365999928501,completion,,,,,false,,,,377590.59999990463,377590.1999999285,374591.168,374608.39999997616,374607.834,377591.048,8,400,,,
trial,html.Screen,4_97_0,2023-11-06T15:26:22.476Z,,0,2,,2757.1519999284646,response,ISIC_0014846.JPG,5,ISIC_1856556.JPG,ISIC_1856556.JPG,false,0,keypress(z),500,380348.59999990463,380348.1999999285,377574.382,377590.6999999285,377591.048,380357.604,8,400,48,,ISIC_0014846.JPG
break,html.Screen,4_97_1,2023-11-06T15:26:22.477Z,,0,,,NaN,,,,,,false,,,,380349.6999999285,380349.39999997616,,380348.89999997616,,380357.604,8,400,,,
break_continue,html.Screen,4_97_2,2023-11-06T15:26:22.477Z,,0,,,NaN,,,,,,false,,,,380350.09999990463,380349.89999997616,,380349.89999997616,,380357.604,8,400,,,
sequence,flow.Sequence,4_97,2023-11-06T15:26:22.477Z,,0,,,2758.8519999761484,completion,,,,,false,,,,380350.2999999523,380349.89999997616,377574.382,377590.6999999285,377591.048,380357.604,8,400,,,
trial,html.Screen,4_98_0,2023-11-06T15:26:25.138Z,,0,2,,2652.5959999284823,response,ISIC_9611100.JPG,8,ISIC_1216139.JPG,ISIC_9611100.JPG,false,1,keypress(m),500,383010.5,383010.1999999285,380340.938,380350.39999997616,380357.604,383024.559,8,400,49,,ISIC_1216139.JPG
break,html.Screen,4_98_1,2023-11-06T15:26:25.138Z,,0,,,NaN,,,,,,false,,,,383011.5,383011.1999999285,,383010.7999999523,,383024.559,8,400,,,
break_continue,html.Screen,4_98_2,2023-11-06T15:26:25.139Z,,0,,,NaN,,,,,,false,,,,383011.89999997616,383011.6999999285,,383011.5,,383024.559,8,400,,,
sequence,flow.Sequence,4_98,2023-11-06T15:26:25.139Z,,0,,,2654.0959999284823,completion,,,,,false,,,,383012,383011.6999999285,380340.938,380350.2999999523,380357.604,383024.559,8,400,,,
trial,html.Screen,4_99_0,2023-11-06T15:26:28.301Z,,0,2,,3148.9409999999916,response,ISIC_0024585.JPG,5,ISIC_0963531.JPG,ISIC_0963531.JPG,false,0,keypress(z),500,386173.59999990463,386173.5,383007.893,383012,383024.559,386174.433,8,400,50,,ISIC_0024585.JPG
break,html.Screen,4_99_1,2023-11-06T15:26:38.287Z,,0,,,10000.027000000002,timeout,,,,,false,,,,396159.5,396157.794,386157.767,386173.7999999523,386174.433,396174.46,8,400,,,
break_continue,html.Screen,4_99_2,2023-11-06T15:26:39.470Z,,0,,,1152.2399999284535,response,,,,,false,continue,keypress(Space),,397343.1999999285,397326.6999999285,396157.794,396159.6999999285,396174.46,397357.746,8,400,,,
sequence,flow.Sequence,4_99,2023-11-06T15:26:39.470Z,,0,,,14302.140999928466,completion,,,,,false,,,,397343.39999997616,397326.6999999285,383007.893,383012,383024.559,397357.746,8,400,,,
trial,html.Screen,4_100_0,2023-11-06T15:26:42.692Z,,0,3,,3206.353999904648,response,ISIC_5961092.JPG,8,ISIC_9586758.JPG,ISIC_9586758.JPG,false,0,keypress(z),500,400564.59999990463,400564.09999990463,397341.08,397343.5,397357.746,400574.284,8,400,1,,ISIC_5961092.JPG
break,html.Screen,4_100_1,2023-11-06T15:26:42.693Z,,0,,,NaN,,,,,,false,,,,400565.59999990463,400565.39999997616,,400564.89999997616,,400574.284,8,400,,,
break_continue,html.Screen,4_100_2,2023-11-06T15:26:42.693Z,,0,,,NaN,,,,,,false,,,,400566.09999990463,400565.89999997616,,400565.7999999523,,400574.284,8,400,,,
sequence,flow.Sequence,4_100,2023-11-06T15:26:42.693Z,,0,,,3208.1539999761735,completion,,,,,false,,,,400566.1999999285,400565.89999997616,397341.08,397343.5,397357.746,400574.284,8,400,,,
trial,html.Screen,4_101_0,2023-11-06T15:26:45.272Z,,0,3,,2570.615999976173,response,ISIC_0010778.JPG,9,ISIC_8297563.JPG,ISIC_0010778.JPG,false,1,keypress(m),500,403145.2999999523,403144.89999997616,400557.618,400566.39999997616,400574.284,403157.896,8,400,2,,ISIC_8297563.JPG
break,html.Screen,4_101_1,2023-11-06T15:26:45.273Z,,0,,,NaN,,,,,,false,,,,403146.39999997616,403146.1999999285,,403145.6999999285,,403157.896,8,400,,,
break_continue,html.Screen,4_101_2,2023-11-06T15:26:45.274Z,,0,,,NaN,,,,,,false,,,,403146.89999997616,403146.6999999285,,403146.5,,403157.896,8,400,,,
sequence,flow.Sequence,4_101,2023-11-06T15:26:45.274Z,,0,,,2572.4159999284893,completion,,,,,false,,,,403147,403146.6999999285,400557.618,400566.2999999523,400574.284,403157.896,8,400,,,
trial,html.Screen,4_102_0,2023-11-06T15:26:47.949Z,,0,3,,2663.9039999523084,response,ISIC_0054528.JPG,7,ISIC_0061300.JPG,ISIC_0054528.JPG,false,1,keypress(m),500,405822.2999999523,405821.7999999523,403141.23,403147.09999990463,403157.896,405824.456,8,400,3,,ISIC_0061300.JPG
break,html.Screen,4_102_1,2023-11-06T15:26:47.950Z,,0,,,NaN,,,,,,false,,,,405823.2999999523,405823.09999990463,,405822.59999990463,,405824.456,8,400,,,
break_continue,html.Screen,4_102_2,2023-11-06T15:26:47.951Z,,0,,,NaN,,,,,,false,,,,405823.6999999285,405823.59999990463,,405823.5,,405824.456,8,400,,,
sequence,flow.Sequence,4_102,2023-11-06T15:26:47.951Z,,0,,,2665.7039999046247,completion,,,,,false,,,,405823.89999997616,405823.59999990463,403141.23,403147.09999990463,403157.896,405824.456,8,400,,,
trial,html.Screen,4_103_0,2023-11-06T15:26:50.510Z,,0,3,,2557.743999928469,response,ISIC_0060158.JPG,7,ISIC_0024380.JPG,ISIC_0024380.JPG,false,0,keypress(z),500,408382.6999999285,408382.1999999285,405807.79,405824,405824.456,408391.02,8,400,4,,ISIC_0060158.JPG
break,html.Screen,4_103_1,2023-11-06T15:26:50.511Z,,0,,,NaN,,,,,,false,,,,408383.59999990463,408383.39999997616,,408382.89999997616,,408391.02,8,400,,,
break_continue,html.Screen,4_103_2,2023-11-06T15:26:50.511Z,,0,,,NaN,,,,,,false,,,,408384,408383.89999997616,,408383.7999999523,,408391.02,8,400,,,
sequence,flow.Sequence,4_103,2023-11-06T15:26:50.511Z,,0,,,2559.4439999761526,completion,,,,,false,,,,408384.1999999285,408383.89999997616,405807.79,405824,405824.456,408391.02,8,400,,,
trial,html.Screen,4_104_0,2023-11-06T15:26:53.171Z,,0,3,,2652.7799999522977,response,ISIC_0059976.JPG,8,ISIC_2011145.JPG,ISIC_2011145.JPG,false,0,keypress(z),500,411044.2999999523,411043.7999999523,408374.354,408384.2999999523,408391.02,411057.58,8,400,5,,ISIC_0059976.JPG
break,html.Screen,4_104_1,2023-11-06T15:26:53.172Z,,0,,,NaN,,,,,,false,,,,411045.1999999285,411045.09999990463,,411044.59999990463,,411057.58,8,400,,,
break_continue,html.Screen,4_104_2,2023-11-06T15:26:53.173Z,,0,,,NaN,,,,,,false,,,,411045.6999999285,411045.5,,411045.39999997616,,411057.58,8,400,,,
sequence,flow.Sequence,4_104,2023-11-06T15:26:53.173Z,,0,,,2654.4799999999814,completion,,,,,false,,,,411045.7999999523,411045.5,408374.354,408384.2999999523,408391.02,411057.58,8,400,,,
trial,html.Screen,4_105_0,2023-11-06T15:26:56.042Z,,0,3,,2857.319999976142,response,ISIC_9791275.JPG,6,ISIC_0027669.JPG,ISIC_9791275.JPG,false,1,keypress(m),500,413915.39999997616,413914.89999997616,411040.914,411045.89999997616,411057.58,413924.55,8,400,6,,ISIC_0027669.JPG
break,html.Screen,4_105_1,2023-11-06T15:26:56.044Z,,0,,,NaN,,,,,,false,,,,413916.5,413916.1999999285,,413915.7999999523,,413924.55,8,400,,,
break_continue,html.Screen,4_105_2,2023-11-06T15:26:56.044Z,,0,,,NaN,,,,,,false,,,,413916.89999997616,413916.7999999523,,413916.6999999285,,413924.55,8,400,,,
sequence,flow.Sequence,4_105,2023-11-06T15:26:56.044Z,,0,,,2859.2199999523,completion,,,,,false,,,,413917,413916.7999999523,411040.914,411045.89999997616,411057.58,413924.55,8,400,,,
trial,html.Screen,4_106_0,2023-11-06T15:26:58.947Z,,0,3,,2894.549999904644,response,ISIC_3825641.JPG,6,ISIC_5097947.JPG,ISIC_3825641.JPG,false,1,keypress(m),500,416819.59999990463,416819.09999990463,413907.884,413917.1999999285,413924.55,416824.434,8,400,7,,ISIC_5097947.JPG
break,html.Screen,4_106_1,2023-11-06T15:26:58.948Z,,0,,,NaN,,,,,,false,,,,416820.7999999523,416820.59999990463,,416819.89999997616,,416824.434,8,400,,,
break_continue,html.Screen,4_106_2,2023-11-06T15:26:58.948Z,,0,,,NaN,,,,,,false,,,,416821.2999999523,416821.1999999285,,416821,,416824.434,8,400,,,
sequence,flow.Sequence,4_106,2023-11-06T15:26:58.949Z,,0,,,2896.649999928486,completion,,,,,false,,,,416821.5,416821.1999999285,413907.884,413917.1999999285,413924.55,416824.434,8,400,,,
trial,html.Screen,4_107_0,2023-11-06T15:27:01.641Z,,0,3,,2688.9659999761498,response,ISIC_0033074.JPG,6,ISIC_0025724.JPG,ISIC_0025724.JPG,false,0,keypress(z),500,419513.89999997616,419513.39999997616,416807.768,416821.59999990463,416824.434,419524.326,8,400,8,,ISIC_0033074.JPG
break,html.Screen,4_107_1,2023-11-06T15:27:01.642Z,,0,,,NaN,,,,,,false,,,,419514.7999999523,419514.59999990463,,419514.09999990463,,419524.326,8,400,,,
break_continue,html.Screen,4_107_2,2023-11-06T15:27:01.642Z,,0,,,NaN,,,,,,false,,,,419515.2999999523,419515.09999990463,,419515,,419524.326,8,400,,,
sequence,flow.Sequence,4_107,2023-11-06T15:27:01.642Z,,0,,,2690.665999904624,completion,,,,,false,,,,419515.39999997616,419515.09999990463,416807.768,416821.5,416824.434,419524.326,8,400,,,
trial,html.Screen,4_108_0,2023-11-06T15:27:04.165Z,,0,3,,2513.8739999284735,response,ISIC_0000087.JPG,7,ISIC_3791309.JPG,ISIC_3791309.JPG,false,0,keypress(z),500,422038.39999997616,422038.1999999285,419507.66,419515.5,419524.326,422040.892,8,400,9,,ISIC_0000087.JPG
break,html.Screen,4_108_1,2023-11-06T15:27:04.166Z,,0,,,NaN,,,,,,false,,,,422038.59999990463,422038.59999990463,,422038.39999997616,,422040.892,8,400,,,
break_continue,html.Screen,4_108_2,2023-11-06T15:27:04.166Z,,0,,,NaN,,,,,,false,,,,422038.6999999285,422038.6999999285,,422038.59999990463,,422040.892,8,400,,,
sequence,flow.Sequence,4_108,2023-11-06T15:27:04.166Z,,0,,,2514.3739999284735,completion,,,,,false,,,,422038.7999999523,422038.6999999285,419507.66,419515.5,419524.326,422040.892,8,400,,,
trial,html.Screen,4_109_0,2023-11-06T15:27:07.034Z,,0,3,,2865.4079999523237,response,ISIC_0053760.JPG,7,ISIC_0033074.JPG,ISIC_0053760.JPG,false,1,keypress(m),500,424906.7999999523,424906.2999999523,422024.226,422038.7999999523,422040.892,424907.865,8,400,10,,ISIC_0033074.JPG
break,html.Screen,4_109_1,2023-11-06T15:27:07.035Z,,0,,,NaN,,,,,,false,,,,424907.6999999285,424907.5,,424907,,424907.865,8,400,,,
break_continue,html.Screen,4_109_2,2023-11-06T15:27:07.035Z,,0,,,NaN,,,,,,false,,,,424908.1999999285,424908,,424907.89999997616,,424907.865,8,400,,,
sequence,flow.Sequence,4_109,2023-11-06T15:27:07.035Z,,0,,,2867.1080000000075,completion,,,,,false,,,,424908.2999999523,424908,422024.226,422038.7999999523,422040.892,424907.865,8,400,,,
trial,html.Screen,4_110_0,2023-11-06T15:27:09.742Z,,0,3,,2707.0349999761675,response,ISIC_0025603.JPG,8,ISIC_7110699.JPG,ISIC_0025603.JPG,false,1,keypress(m),500,427615.2999999523,427614.89999997616,424891.199,424908.39999997616,424907.865,427624.423,8,400,11,,ISIC_7110699.JPG
break,html.Screen,4_110_1,2023-11-06T15:27:09.743Z,,0,,,NaN,,,,,,false,,,,427616.39999997616,427616.1999999285,,427615.59999990463,,427624.423,8,400,,,
break_continue,html.Screen,4_110_2,2023-11-06T15:27:09.744Z,,0,,,NaN,,,,,,false,,,,427616.7999999523,427616.6999999285,,427616.5,,427624.423,8,400,,,
sequence,flow.Sequence,4_110,2023-11-06T15:27:09.744Z,,0,,,2708.8349999284837,completion,,,,,false,,,,427616.89999997616,427616.6999999285,424891.199,424908.39999997616,424907.865,427624.423,8,400,,,
trial,html.Screen,4_111_0,2023-11-06T15:27:12.302Z,,0,3,,2550.2769999284646,response,ISIC_0028326.JPG,6,ISIC_7581199.JPG,ISIC_7581199.JPG,false,0,keypress(z),500,430175.1999999285,430174.6999999285,427607.757,427617.09999990463,427624.423,430190.987,8,400,12,,ISIC_0028326.JPG
break,html.Screen,4_111_1,2023-11-06T15:27:12.303Z,,0,,,NaN,,,,,,false,,,,430176.1999999285,430175.89999997616,,430175.39999997616,,430190.987,8,400,,,
break_continue,html.Screen,4_111_2,2023-11-06T15:27:12.304Z,,0,,,NaN,,,,,,false,,,,430176.59999990463,430176.5,,430176.39999997616,,430190.987,8,400,,,
sequence,flow.Sequence,4_111,2023-11-06T15:27:12.304Z,,0,,,2552.07699999999,completion,,,,,false,,,,430176.89999997616,430176.5,427607.757,427617,427624.423,430190.987,8,400,,,
trial,html.Screen,4_112_0,2023-11-06T15:27:14.926Z,,0,3,,2607.4129999761353,response,ISIC_8065001.JPG,6,ISIC_7466175.JPG,ISIC_7466175.JPG,false,0,keypress(z),500,432798.7999999523,432798.39999997616,430174.321,430176.89999997616,430190.987,432807.549,8,400,13,,ISIC_8065001.JPG
break,html.Screen,4_112_1,2023-11-06T15:27:14.927Z,,0,,,NaN,,,,,,false,,,,432799.89999997616,432799.59999990463,,432799.1999999285,,432807.549,8,400,,,
break_continue,html.Screen,4_112_2,2023-11-06T15:27:14.927Z,,0,,,NaN,,,,,,false,,,,432800.39999997616,432800.1999999285,,432800.09999990463,,432807.549,8,400,,,
sequence,flow.Sequence,4_112,2023-11-06T15:27:14.928Z,,0,,,2609.2129999284516,completion,,,,,false,,,,432800.59999990463,432800.1999999285,430174.321,430176.89999997616,430190.987,432807.549,8,400,,,
trial,html.Screen,4_113_0,2023-11-06T15:27:17.630Z,,0,3,,2694.5509999046335,response,ISIC_3737739.JPG,8,ISIC_0034199.JPG,ISIC_3737739.JPG,false,1,keypress(m),500,435502.5,435502.09999990463,432790.883,432800.59999990463,432807.549,435507.869,8,400,14,,ISIC_0034199.JPG
break,html.Screen,4_113_1,2023-11-06T15:27:17.631Z,,0,,,NaN,,,,,,false,,,,435503.5,435503.2999999523,,435502.7999999523,,435507.869,8,400,,,
break_continue,html.Screen,4_113_2,2023-11-06T15:27:17.631Z,,0,,,NaN,,,,,,false,,,,435504,435503.89999997616,,435503.6999999285,,435507.869,8,400,,,
sequence,flow.Sequence,4_113,2023-11-06T15:27:17.631Z,,0,,,2696.350999976159,completion,,,,,false,,,,435504.09999990463,435503.89999997616,432790.883,432800.59999990463,432807.549,435507.869,8,400,,,
trial,html.Screen,4_114_0,2023-11-06T15:27:20.227Z,,0,3,,2592.2309999046265,response,ISIC_0058022.JPG,6,ISIC_4208361.JPG,ISIC_0058022.JPG,false,1,keypress(m),500,438100.2999999523,438100.09999990463,435491.203,435504.2999999523,435507.869,438107.765,8,400,15,,ISIC_4208361.JPG
break,html.Screen,4_114_1,2023-11-06T15:27:20.228Z,,0,,,NaN,,,,,,false,,,,438100.6999999285,438100.59999990463,,438100.5,,438107.765,8,400,,,
break_continue,html.Screen,4_114_2,2023-11-06T15:27:20.228Z,,0,,,NaN,,,,,,false,,,,438100.89999997616,438100.7999999523,,438100.7999999523,,438107.765,8,400,,,
sequence,flow.Sequence,4_114,2023-11-06T15:27:20.228Z,,0,,,2592.9309999523102,completion,,,,,false,,,,438101,438100.7999999523,435491.203,435504.1999999285,435507.869,438107.765,8,400,,,
trial,html.Screen,4_115_0,2023-11-06T15:27:22.792Z,,0,3,,2556.634999976144,response,ISIC_9183042.JPG,9,ISIC_0053686.JPG,ISIC_0053686.JPG,false,0,keypress(z),500,440664.89999997616,440664.39999997616,438091.099,438101,438107.765,440674.329,8,400,16,,ISIC_9183042.JPG
break,html.Screen,4_115_1,2023-11-06T15:27:22.793Z,,0,,,NaN,,,,,,false,,,,440665.89999997616,440665.6999999285,,440665.1999999285,,440674.329,8,400,,,
break_continue,html.Screen,4_115_2,2023-11-06T15:27:22.794Z,,0,,,NaN,,,,,,false,,,,440666.2999999523,440666.1999999285,,440666,,440674.329,8,400,,,
sequence,flow.Sequence,4_115,2023-11-06T15:27:22.794Z,,0,,,2558.4349999284605,completion,,,,,false,,,,440666.59999990463,440666.1999999285,438091.099,438101,438107.765,440674.329,8,400,,,
trial,html.Screen,4_116_0,2023-11-06T15:27:25.472Z,,0,3,,2669.670999999973,response,ISIC_1234463.JPG,7,ISIC_0961235.JPG,ISIC_1234463.JPG,false,1,keypress(m),500,443344.39999997616,443344,440657.663,440666.6999999285,440674.329,443357.555,8,400,17,,ISIC_0961235.JPG
break,html.Screen,4_116_1,2023-11-06T15:27:25.472Z,,0,,,NaN,,,,,,false,,,,443344.89999997616,443344.7999999523,,443344.5,,443357.555,8,400,,,
break_continue,html.Screen,4_116_2,2023-11-06T15:27:25.472Z,,0,,,NaN,,,,,,false,,,,443345.09999990463,443345,,443345,,443357.555,8,400,,,
sequence,flow.Sequence,4_116,2023-11-06T15:27:25.472Z,,0,,,2670.670999999973,completion,,,,,false,,,,443345.2999999523,443345,440657.663,440666.59999990463,440674.329,443357.555,8,400,,,
trial,html.Screen,4_117_0,2023-11-06T15:27:28.262Z,,0,3,,2776.445000000007,response,ISIC_6517663.JPG,8,ISIC_0032856.JPG,ISIC_6517663.JPG,false,1,keypress(m),500,446134.39999997616,446134,443340.889,443345.2999999523,443357.555,446141.16,8,400,18,,ISIC_0032856.JPG
break,html.Screen,4_117_1,2023-11-06T15:27:28.263Z,,0,,,NaN,,,,,,false,,,,446135.59999990463,446135.2999999523,,446134.7999999523,,446141.16,8,400,,,
break_continue,html.Screen,4_117_2,2023-11-06T15:27:28.263Z,,0,,,NaN,,,,,,false,,,,446136,446135.89999997616,,446135.7999999523,,446141.16,8,400,,,
sequence,flow.Sequence,4_117,2023-11-06T15:27:28.263Z,,0,,,2778.344999976165,completion,,,,,false,,,,446136.2999999523,446135.89999997616,443340.889,443345.2999999523,443357.555,446141.16,8,400,,,
trial,html.Screen,4_118_0,2023-11-06T15:27:31.133Z,,0,3,,2864.139999952342,response,ISIC_0014308.JPG,8,ISIC_2535541.JPG,ISIC_2535541.JPG,false,0,keypress(z),500,449005.7999999523,449005.2999999523,446124.494,446136.39999997616,446141.16,449007.712,8,400,19,,ISIC_0014308.JPG
break,html.Screen,4_118_1,2023-11-06T15:27:31.134Z,,0,,,NaN,,,,,,false,,,,449006.7999999523,449006.59999990463,,449006.09999990463,,449007.712,8,400,,,
break_continue,html.Screen,4_118_2,2023-11-06T15:27:31.134Z,,0,,,NaN,,,,,,false,,,,449007.2999999523,449007.09999990463,,449007,,449007.712,8,400,,,
sequence,flow.Sequence,4_118,2023-11-06T15:27:31.135Z,,0,,,2865.939999904658,completion,,,,,false,,,,449007.39999997616,449007.09999990463,446124.494,446136.2999999523,446141.16,449007.712,8,400,,,
trial,html.Screen,4_119_0,2023-11-06T15:27:33.918Z,,0,3,,2782.487999928475,response,ISIC_0010978.JPG,6,ISIC_0029397.JPG,ISIC_0010978.JPG,false,1,keypress(m),500,451790.59999990463,451790.1999999285,448991.046,449007.59999990463,449007.712,451807.6,8,400,20,,ISIC_0029397.JPG
break,html.Screen,4_119_1,2023-11-06T15:27:33.919Z,,0,,,NaN,,,,,,false,,,,451791.6999999285,451791.5,,451790.89999997616,,451807.6,8,400,,,
break_continue,html.Screen,4_119_2,2023-11-06T15:27:33.919Z,,0,,,NaN,,,,,,false,,,,451792.09999990463,451792,,451791.89999997616,,451807.6,8,400,,,
sequence,flow.Sequence,4_119,2023-11-06T15:27:33.920Z,,0,,,2784.2880000000005,completion,,,,,false,,,,451792.2999999523,451792,448991.046,449007.5,449007.712,451807.6,8,400,,,
trial,html.Screen,4_120_0,2023-11-06T15:27:36.708Z,,0,3,,2772.5999999284977,response,ISIC_0064072.JPG,7,ISIC_0009871.JPG,ISIC_0064072.JPG,false,1,keypress(m),500,454580.5,454580.1999999285,451790.934,451792.39999997616,451807.6,454590.822,8,400,21,,ISIC_0009871.JPG
break,html.Screen,4_120_1,2023-11-06T15:27:36.709Z,,0,,,NaN,,,,,,false,,,,454581.2999999523,454581.09999990463,,454580.6999999285,,454590.822,8,400,,,
break_continue,html.Screen,4_120_2,2023-11-06T15:27:36.709Z,,0,,,NaN,,,,,,false,,,,454581.59999990463,454581.5,,454581.39999997616,,454590.822,8,400,,,
sequence,flow.Sequence,4_120,2023-11-06T15:27:36.709Z,,0,,,2773.9000000000233,completion,,,,,false,,,,454581.59999990463,454581.5,451790.934,451792.39999997616,451807.6,454590.822,8,400,,,
trial,html.Screen,4_121_0,2023-11-06T15:27:39.341Z,,0,3,,2622.377999928489,response,ISIC_2858419.JPG,7,ISIC_1568268.JPG,ISIC_2858419.JPG,false,1,keypress(m),500,457213.6999999285,457213.1999999285,454574.156,454581.7999999523,454590.822,457224.498,8,400,22,,ISIC_1568268.JPG
break,html.Screen,4_121_1,2023-11-06T15:27:39.342Z,,0,,,NaN,,,,,,false,,,,457214.7999999523,457214.59999990463,,457214,,457224.498,8,400,,,
break_continue,html.Screen,4_121_2,2023-11-06T15:27:39.342Z,,0,,,NaN,,,,,,false,,,,457215.1999999285,457215.09999990463,,457215,,457224.498,8,400,,,
sequence,flow.Sequence,4_121,2023-11-06T15:27:39.343Z,,0,,,2624.277999904647,completion,,,,,false,,,,457215.2999999523,457215.09999990463,454574.156,454581.6999999285,454590.822,457224.498,8,400,,,
trial,html.Screen,4_122_0,2023-11-06T15:27:42.099Z,,0,3,,2747.201999928453,response,ISIC_0862745.JPG,8,ISIC_0010784.JPG,ISIC_0862745.JPG,false,1,keypress(m),500,459972.1999999285,459971.6999999285,457207.832,457215.39999997616,457224.498,459974.388,8,400,23,,ISIC_0010784.JPG
break,html.Screen,4_122_1,2023-11-06T15:27:42.100Z,,0,,,NaN,,,,,,false,,,,459973.1999999285,459973,,459972.5,,459974.388,8,400,,,
break_continue,html.Screen,4_122_2,2023-11-06T15:27:42.101Z,,0,,,NaN,,,,,,false,,,,459973.59999990463,459973.5,,459973.2999999523,,459974.388,8,400,,,
sequence,flow.Sequence,4_122,2023-11-06T15:27:42.101Z,,0,,,2749.0019999999786,completion,,,,,false,,,,459973.7999999523,459973.5,457207.832,457215.39999997616,457224.498,459974.388,8,400,,,
trial,html.Screen,4_123_0,2023-11-06T15:27:44.808Z,,0,3,,2705.511999976181,response,ISIC_1115013.JPG,7,ISIC_2513933.JPG,ISIC_1115013.JPG,false,1,keypress(m),500,462680.2999999523,462679.89999997616,459957.722,459974,459974.388,462690.946,8,400,24,,ISIC_2513933.JPG
break,html.Screen,4_123_1,2023-11-06T15:27:44.808Z,,0,,,NaN,,,,,,false,,,,462681,462680.89999997616,,462680.39999997616,,462690.946,8,400,,,
break_continue,html.Screen,4_123_2,2023-11-06T15:27:44.809Z,,0,,,NaN,,,,,,false,,,,462681.2999999523,462681.1999999285,,462681.09999990463,,462690.946,8,400,,,
sequence,flow.Sequence,4_123,2023-11-06T15:27:44.809Z,,0,,,2706.8119999284972,completion,,,,,false,,,,462681.39999997616,462681.1999999285,459957.722,459973.89999997616,459974.388,462690.946,8,400,,,
trial,html.Screen,4_124_0,2023-11-06T15:27:47.517Z,,0,3,,2698.0540000000037,response,ISIC_6398669.JPG,9,ISIC_0010145.JPG,ISIC_6398669.JPG,false,1,keypress(m),500,465389.39999997616,465389,462674.28,462681.5,462690.946,465391.251,8,400,25,,ISIC_0010145.JPG
break,html.Screen,4_124_1,2023-11-06T15:27:47.518Z,,0,,,NaN,,,,,,false,,,,465390.5,465390.1999999285,,465389.6999999285,,465391.251,8,400,,,
break_continue,html.Screen,4_124_2,2023-11-06T15:27:47.518Z,,0,,,NaN,,,,,,false,,,,465391,465390.7999999523,,465390.6999999285,,465391.251,8,400,,,
sequence,flow.Sequence,4_124,2023-11-06T15:27:47.518Z,,0,,,2699.85399995232,completion,,,,,false,,,,465391.09999990463,465390.7999999523,462674.28,462681.5,462690.946,465391.251,8,400,,,
trial,html.Screen,4_125_0,2023-11-06T15:27:50.356Z,,0,3,,2836.648999976169,response,ISIC_0059836.JPG,8,ISIC_1092432.JPG,ISIC_1092432.JPG,false,0,keypress(z),500,468228.2999999523,468227.89999997616,465374.585,465391.39999997616,465391.251,468241.137,8,400,26,,ISIC_0059836.JPG
break,html.Screen,4_125_1,2023-11-06T15:27:50.357Z,,0,,,NaN,,,,,,false,,,,468229.39999997616,468229.1999999285,,468228.6999999285,,468241.137,8,400,,,
break_continue,html.Screen,4_125_2,2023-11-06T15:27:50.357Z,,0,,,NaN,,,,,,false,,,,468229.7999999523,468229.6999999285,,468229.5,,468241.137,8,400,,,
