sender,sender_type,sender_id,timestamp,meta,,blockNo,condition,duration,ended_on,img_left,img_reveal,img_right,loser,practice,response,response_action,selection_duration,time_commit,time_end,time_render,time_run,time_show,time_switch,total_blocks,total_trials,trialNo,url,winner
informed_consent,html.Screen,0,2023-09-16T00:42:07.335Z,"{""labjs_version"":""20.2.4"",""labjs_build"":{""flavor"":""production"",""commit"":""f5b4a49f956347addd546a832a3327688c2c0fef""},""location"":""https://run.pavlovia.org/MurrayBennett/melanoma-2afc/?participant=67544&platform=sona"",""userAgent"":""Mozilla/5.0 (Windows NT 10.0; Win64; x64) AppleWebKit/537.36 (KHTML, like Gecko) Chrome/116.0.0.0 Safari/537.36"",""platform"":""Win32"",""language"":""en-US"",""locale"":""en-US"",""timeZone"":""America/Chicago"",""timezoneOffset"":300,""screen_width"":1280,""screen_height"":720,""scroll_width"":1280,""scroll_height"":563,""window_innerWidth"":1280,""window_innerHeight"":563,""devicePixelRatio"":1.5}",,,,14074.122000023843,response,,,,,,consent,click button,,18646.30000001192,18643.100000023842,3985.533,4562,4568.978,18666.921,,,,"{""participant"":""67544"",""platform"":""sona""}",
Welcome,html.Screen,1,2023-09-16T00:42:46.844Z,,,,symmetry,39484.37900001192,response,,,,,,continue,click button,,58155.5,58151.30000001192,18633.82,18646.600000023842,18666.921,58161.703,,,,,
trial,html.Screen,2_0_0,2023-09-16T00:42:54.346Z,,0,0,,7492.09700001192,response,ISIC_0069348.JPG,,ISIC_6997061.JPG,ISIC_0069348.JPG,true,1,keypress(m),500,65654.19999998808,65653.80000001192,58143.125,58155.60000002384,58161.703,65660.823,1,6,1,,ISIC_6997061.JPG
sequence,flow.Sequence,2_0,2023-09-16T00:42:54.346Z,,0,,,7492.09700001192,completion,,,,,true,,,,65654.60000002384,65653.80000001192,58143.125,58155.60000002384,58161.703,65660.823,1,6,,,
trial,html.Screen,2_1_0,2023-09-16T00:42:59.532Z,,0,0,,5179.576999976154,response,ISIC_0057368.JPG,,ISIC_0009529.JPG,ISIC_0057368.JPG,true,1,keypress(m),500,70840.60000002384,70840.39999997616,65646.258,65654.69999998808,65660.823,70843.397,1,6,2,,ISIC_0009529.JPG
sequence,flow.Sequence,2_1,2023-09-16T00:42:59.532Z,,0,,,5179.576999976154,completion,,,,,true,,,,70840.89999997616,70840.39999997616,65646.258,65654.69999998808,65660.823,70843.397,1,6,,,
trial,html.Screen,2_2_0,2023-09-16T00:43:10.404Z,,0,0,,10868.903000011924,response,ISIC_9758671.JPG,,ISIC_0064954.JPG,ISIC_0064954.JPG,true,0,keypress(z),500,81712.60000002384,81712.30000001192,70831.33,70841,70843.397,81725.267,1,6,3,,ISIC_9758671.JPG
sequence,flow.Sequence,2_2,2023-09-16T00:43:10.404Z,,0,,,10868.903000011924,completion,,,,,true,,,,81712.89999997616,81712.30000001192,70831.33,70840.89999997616,70843.397,81725.267,1,6,,,
trial,html.Screen,2_3_0,2023-09-16T00:43:14.400Z,,0,0,,3982.732999999993,response,ISIC_0000080.JPG,,ISIC_0005785.JPG,ISIC_0005785.JPG,true,0,keypress(z),500,85708.39999997616,85708,81709.375,81713.10000002384,81725.267,85724.816,1,6,4,,ISIC_0000080.JPG
sequence,flow.Sequence,2_3,2023-09-16T00:43:14.401Z,,0,,,3982.732999999993,completion,,,,,true,,,,85709.10000002384,85708,81709.375,81713,81725.267,85724.816,1,6,,,
trial,html.Screen,2_4_0,2023-09-16T00:43:21.336Z,,0,0,,6919.083999976152,response,ISIC_5390060.JPG,,ISIC_7944028.JPG,ISIC_5390060.JPG,true,1,keypress(m),500,92644.19999998808,92643.89999997616,85696.911,85709.30000001192,85724.816,92657.147,1,6,5,,ISIC_7944028.JPG
sequence,flow.Sequence,2_4,2023-09-16T00:43:21.336Z,,0,,,6919.083999976152,completion,,,,,true,,,,92644.5,92643.89999997616,85696.911,85709.19999998808,85724.816,92657.147,1,6,,,
trial,html.Screen,2_5_0,2023-09-16T00:43:32.477Z,,0,0,,11127.552999988082,response,ISIC_0794216.JPG,,ISIC_0010188.JPG,ISIC_0010188.JPG,true,0,keypress(z),500,103785.10000002384,103784.69999998808,92640.632,92644.69999998808,92657.147,103789.107,1,6,6,,ISIC_0794216.JPG
sequence,flow.Sequence,2_5,2023-09-16T00:43:32.477Z,,0,,,11127.552999988082,completion,,,,,true,,,,103785.39999997616,103784.69999998808,92640.632,92644.60000002384,92657.147,103789.107,1,6,,,
loop,flow.Loop,2,2023-09-16T00:43:32.477Z,,,,,45622.99699998808,completion,,,,,true,,,,103785.69999998808,103784.69999998808,58143.125,58155.5,58161.703,103789.107,1,6,,,
exp_instructions,html.Screen,3,2023-09-16T00:43:59.627Z,,,,,27148.99300002384,response,,,,,,continue,keypress(Space),,130938.69999998808,130938.10000002384,103775.499,103785.69999998808,103789.107,130952.082,,,,,
trial,html.Screen,4_0_0,2023-09-16T00:44:05.557Z,,0,1,,5916.817999976163,response,ISIC_0070447.JPG,10,ISIC_4153687.JPG,ISIC_0070447.JPG,false,1,keypress(m),500,136869.10000002384,136868.89999997616,130929.298,130938.80000001192,130952.082,136884.896,8,400,1,,ISIC_4153687.JPG
break,html.Screen,4_0_1,2023-09-16T00:44:05.558Z,,0,,,NaN,,,,,,false,,,,136870.10000002384,136869.89999997616,,136869.30000001192,,136884.896,8,400,,,
break_continue,html.Screen,4_0_2,2023-09-16T00:44:05.559Z,,0,,,NaN,,,,,,false,,,,136870.39999997616,136870.30000001192,,136870.19999998808,,136884.896,8,400,,,
sequence,flow.Sequence,4_0,2023-09-16T00:44:05.559Z,,0,,,5918.218000011926,completion,,,,,false,,,,136870.5,136870.30000001192,130929.298,130938.80000001192,130952.082,136884.896,8,400,,,
trial,html.Screen,4_1_0,2023-09-16T00:44:12.000Z,,0,1,,6426.603999999992,response,ISIC_7254389.JPG,8,ISIC_0011868.JPG,ISIC_0011868.JPG,false,0,keypress(z),500,143311.89999997616,143311.5,136868.702,136870.69999998808,136884.896,143317.225,8,400,2,,ISIC_7254389.JPG
break,html.Screen,4_1_1,2023-09-16T00:44:12.001Z,,0,,,NaN,,,,,,false,,,,143312.60000002384,143312.39999997616,,143312.10000002384,,143317.225,8,400,,,
break_continue,html.Screen,4_1_2,2023-09-16T00:44:12.001Z,,0,,,NaN,,,,,,false,,,,143312.89999997616,143312.80000001192,,143312.69999998808,,143317.225,8,400,,,
sequence,flow.Sequence,4_1,2023-09-16T00:44:12.001Z,,0,,,6427.904000011913,completion,,,,,false,,,,143313,143312.80000001192,136868.702,136870.69999998808,136884.896,143317.225,8,400,,,
trial,html.Screen,4_2_0,2023-09-16T00:44:20.894Z,,0,1,,8887.974999988073,response,ISIC_3663705.JPG,6,ISIC_0013867.JPG,ISIC_0013867.JPG,false,0,keypress(z),500,152205.5,152205.19999998808,143300.703,143313.10000002384,143317.225,152216.018,8,400,3,,ISIC_3663705.JPG
break,html.Screen,4_2_1,2023-09-16T00:44:20.894Z,,0,,,NaN,,,,,,false,,,,152206.10000002384,152205.89999997616,,152205.60000002384,,152216.018,8,400,,,
break_continue,html.Screen,4_2_2,2023-09-16T00:44:20.895Z,,0,,,NaN,,,,,,false,,,,152206.39999997616,152206.39999997616,,152206.30000001192,,152216.018,8,400,,,
sequence,flow.Sequence,4_2,2023-09-16T00:44:20.895Z,,0,,,8889.174999976152,completion,,,,,false,,,,152206.60000002384,152206.39999997616,143300.703,143313.10000002384,143317.225,152216.018,8,400,,,
trial,html.Screen,4_3_0,2023-09-16T00:44:27.193Z,,0,1,,6288.881999976147,response,ISIC_1632696.JPG,6,ISIC_5356775.JPG,ISIC_1632696.JPG,false,1,keypress(m),500,158505.19999998808,158504.89999997616,152202.683,152206.69999998808,152216.018,158515.182,8,400,4,,ISIC_5356775.JPG
break,html.Screen,4_3_1,2023-09-16T00:44:27.194Z,,0,,,NaN,,,,,,false,,,,158505.89999997616,158505.69999998808,,158505.39999997616,,158515.182,8,400,,,
break_continue,html.Screen,4_3_2,2023-09-16T00:44:27.194Z,,0,,,NaN,,,,,,false,,,,158506.19999998808,158506.10000002384,,158506,,158515.182,8,400,,,
sequence,flow.Sequence,4_3,2023-09-16T00:44:27.195Z,,0,,,6290.082000023831,completion,,,,,false,,,,158506.30000001192,158506.10000002384,152202.683,152206.69999998808,152216.018,158515.182,8,400,,,
trial,html.Screen,4_4_0,2023-09-16T00:44:32.254Z,,0,1,,5050.817999999999,response,ISIC_0057495.JPG,11,ISIC_6913272.JPG,ISIC_6913272.JPG,false,0,keypress(z),500,163566.30000001192,163566,158499.74,158506.39999997616,158515.182,163581.098,8,400,5,,ISIC_0057495.JPG
break,html.Screen,4_4_1,2023-09-16T00:44:32.255Z,,0,,,NaN,,,,,,false,,,,163567.10000002384,163566.89999997616,,163566.5,,163581.098,8,400,,,
break_continue,html.Screen,4_4_2,2023-09-16T00:44:32.256Z,,0,,,NaN,,,,,,false,,,,163568.19999998808,163568.19999998808,,163568,,163581.098,8,400,,,
sequence,flow.Sequence,4_4,2023-09-16T00:44:32.257Z,,0,,,5053.017999988078,completion,,,,,false,,,,163568.39999997616,163568.19999998808,158499.74,158506.39999997616,158515.182,163581.098,8,400,,,
trial,html.Screen,4_5_0,2023-09-16T00:44:40.724Z,,0,1,,8454.601999988081,response,ISIC_9410044.JPG,11,ISIC_0026483.JPG,ISIC_9410044.JPG,false,1,keypress(m),500,172036,172035.69999998808,163565.326,163568.5,163581.098,172046.714,8,400,6,,ISIC_0026483.JPG
break,html.Screen,4_5_1,2023-09-16T00:44:40.725Z,,0,,,NaN,,,,,,false,,,,172036.80000001192,172036.5,,172036.19999998808,,172046.714,8,400,,,
break_continue,html.Screen,4_5_2,2023-09-16T00:44:40.725Z,,0,,,NaN,,,,,,false,,,,172037.19999998808,172037,,172036.80000001192,,172046.714,8,400,,,
sequence,flow.Sequence,4_5,2023-09-16T00:44:40.726Z,,0,,,8455.902000000002,completion,,,,,false,,,,172037.39999997616,172037,163565.326,163568.5,163581.098,172046.714,8,400,,,
trial,html.Screen,4_6_0,2023-09-16T00:44:46.190Z,,0,1,,5454.985999988072,response,ISIC_1925590.JPG,9,ISIC_0010861.JPG,ISIC_1925590.JPG,false,1,keypress(m),500,177501.89999997616,177501.69999998808,172030.242,172037.5,172046.714,177512.608,8,400,7,,ISIC_0010861.JPG
break,html.Screen,4_6_1,2023-09-16T00:44:46.191Z,,0,,,NaN,,,,,,false,,,,177502.69999998808,177502.5,,177502.10000002384,,177512.608,8,400,,,
break_continue,html.Screen,4_6_2,2023-09-16T00:44:46.191Z,,0,,,NaN,,,,,,false,,,,177503,177502.89999997616,,177502.89999997616,,177512.608,8,400,,,
sequence,flow.Sequence,4_6,2023-09-16T00:44:46.191Z,,0,,,5456.185999976151,completion,,,,,false,,,,177503.19999998808,177502.89999997616,172030.242,172037.5,172046.714,177512.608,8,400,,,
trial,html.Screen,4_7_0,2023-09-16T00:44:54.070Z,,0,1,,7865.891999999993,response,ISIC_7519627.JPG,7,ISIC_0430837.JPG,ISIC_0430837.JPG,false,0,keypress(z),500,185378.80000001192,185378.5,177499.69,177503.30000001192,177512.608,185395.283,8,400,8,,ISIC_7519627.JPG
break,html.Screen,4_7_1,2023-09-16T00:44:54.071Z,,0,,,NaN,,,,,,false,,,,185379.69999998808,185379.39999997616,,185379,,185395.283,8,400,,,
break_continue,html.Screen,4_7_2,2023-09-16T00:44:54.072Z,,0,,,NaN,,,,,,false,,,,185380,185379.89999997616,,185379.80000001192,,185395.283,8,400,,,
sequence,flow.Sequence,4_7,2023-09-16T00:44:54.072Z,,0,,,7867.291999976151,completion,,,,,false,,,,185380.10000002384,185379.89999997616,177499.69,177503.19999998808,177512.608,185395.283,8,400,,,
trial,html.Screen,4_8_0,2023-09-16T00:45:05.569Z,,0,1,,11514.863000000012,timeout,ISIC_2470795.JPG,4,ISIC_0025020.JPG,,false,,,500,196877.69999998808,196877.5,185363.217,185380.19999998808,185395.283,196910.146,8,400,9,,
break,html.Screen,4_8_1,2023-09-16T00:45:05.570Z,,0,,,NaN,,,,,,false,,,,196878.10000002384,196878,,196877.80000001192,,196910.146,8,400,,,
break_continue,html.Screen,4_8_2,2023-09-16T00:45:05.570Z,,0,,,NaN,,,,,,false,,,,196878.39999997616,196878.30000001192,,196878.30000001192,,196910.146,8,400,,,
sequence,flow.Sequence,4_8,2023-09-16T00:45:05.570Z,,0,,,11483.017000011925,completion,,,,,false,,,,196878.5,196878.30000001192,185363.217,185380.19999998808,185395.283,196910.146,8,400,,,
trial,html.Screen,4_9_0,2023-09-16T00:45:09.800Z,,0,1,,4197.454000023834,response,ISIC_0071532.JPG,9,ISIC_0060972.JPG,ISIC_0060972.JPG,false,0,keypress(z),500,201107.89999997616,201107.60000002384,196893.441,196878.60000002384,196910.146,201131.487,8,400,10,,ISIC_0071532.JPG
break,html.Screen,4_9_1,2023-09-16T00:45:09.800Z,,0,,,NaN,,,,,,false,,,,201108.80000001192,201108.5,,201108.10000002384,,201131.487,8,400,,,
break_continue,html.Screen,4_9_2,2023-09-16T00:45:09.801Z,,0,,,NaN,,,,,,false,,,,201109,201109,,201108.89999997616,,201131.487,8,400,,,
sequence,flow.Sequence,4_9,2023-09-16T00:45:09.801Z,,0,,,4198.853999999992,completion,,,,,false,,,,201109.19999998808,201109,196893.441,196878.5,196910.146,201131.487,8,400,,,
trial,html.Screen,4_10_0,2023-09-16T00:45:15.616Z,,0,1,,5793.013000000006,response,ISIC_0305800.JPG,7,ISIC_0069411.JPG,ISIC_0069411.JPG,false,0,keypress(z),500,206924.69999998808,206924.5,201094.11,201109.30000001192,201131.487,206925.52,8,400,11,,ISIC_0305800.JPG
break,html.Screen,4_10_1,2023-09-16T00:45:15.617Z,,0,,,NaN,,,,,,false,,,,206925.39999997616,206925.19999998808,,206924.89999997616,,206925.52,8,400,,,
break_continue,html.Screen,4_10_2,2023-09-16T00:45:15.617Z,,0,,,NaN,,,,,,false,,,,206925.69999998808,206925.60000002384,,206925.5,,206925.52,8,400,,,
sequence,flow.Sequence,4_10,2023-09-16T00:45:15.617Z,,0,,,5794.113000023848,completion,,,,,false,,,,206925.89999997616,206925.60000002384,201094.11,201109.30000001192,201131.487,206925.52,8,400,,,
trial,html.Screen,4_11_0,2023-09-16T00:45:20.246Z,,0,1,,4628.879999976169,response,ISIC_0063168.JPG,6,ISIC_0059840.JPG,ISIC_0063168.JPG,false,1,keypress(m),500,211554.69999998808,211554.39999997616,206909.055,206925.89999997616,206925.52,211558.238,8,400,12,,ISIC_0059840.JPG
break,html.Screen,4_11_1,2023-09-16T00:45:20.247Z,,0,,,NaN,,,,,,false,,,,211555.5,211555.19999998808,,211554.89999997616,,211558.238,8,400,,,
break_continue,html.Screen,4_11_2,2023-09-16T00:45:20.247Z,,0,,,NaN,,,,,,false,,,,211555.80000001192,211555.80000001192,,211555.69999998808,,211558.238,8,400,,,
sequence,flow.Sequence,4_11,2023-09-16T00:45:20.248Z,,0,,,4630.280000011931,completion,,,,,false,,,,211556,211555.80000001192,206909.055,206925.89999997616,206925.52,211558.238,8,400,,,
trial,html.Screen,4_12_0,2023-09-16T00:45:25.566Z,,0,1,,5315.461999988067,response,ISIC_2375394.JPG,10,ISIC_0014013.JPG,ISIC_0014013.JPG,false,0,keypress(z),500,216874,216873.69999998808,211543.234,211556,211558.238,216890.939,8,400,13,,ISIC_2375394.JPG
break,html.Screen,4_12_1,2023-09-16T00:45:25.566Z,,0,,,NaN,,,,,,false,,,,216874.69999998808,216874.60000002384,,216874.30000001192,,216890.939,8,400,,,
break_continue,html.Screen,4_12_2,2023-09-16T00:45:25.567Z,,0,,,NaN,,,,,,false,,,,216874.89999997616,216874.80000001192,,216874.80000001192,,216890.939,8,400,,,
sequence,flow.Sequence,4_12,2023-09-16T00:45:25.567Z,,0,,,5316.562000011909,completion,,,,,false,,,,216875.10000002384,216874.80000001192,211543.234,211556,211558.238,216890.939,8,400,,,
trial,html.Screen,4_13_0,2023-09-16T00:45:31.415Z,,0,1,,5831.760999988066,response,ISIC_0008447.JPG,12,ISIC_0071536.JPG,ISIC_0071536.JPG,false,0,keypress(z),500,222723,222722.69999998808,216874.22,216875.19999998808,216890.939,222740.116,8,400,14,,ISIC_0008447.JPG
break,html.Screen,4_13_1,2023-09-16T00:45:31.415Z,,0,,,NaN,,,,,,false,,,,222723.69999998808,222723.5,,222723.10000002384,,222740.116,8,400,,,
break_continue,html.Screen,4_13_2,2023-09-16T00:45:31.416Z,,0,,,NaN,,,,,,false,,,,222724,222723.89999997616,,222723.80000001192,,222740.116,8,400,,,
sequence,flow.Sequence,4_13,2023-09-16T00:45:31.416Z,,0,,,5832.960999976145,completion,,,,,false,,,,222724.19999998808,222723.89999997616,216874.22,216875.19999998808,216890.939,222740.116,8,400,,,
trial,html.Screen,4_14_0,2023-09-16T00:45:35.597Z,,0,1,,4164.984000023833,response,ISIC_3727059.JPG,6,ISIC_0028930.JPG,ISIC_0028930.JPG,false,0,keypress(z),500,226905.39999997616,226905.10000002384,222707.941,222724.30000001192,222740.116,226906.181,8,400,15,,ISIC_3727059.JPG
break,html.Screen,4_14_1,2023-09-16T00:45:35.597Z,,0,,,NaN,,,,,,false,,,,226905.89999997616,226905.69999998808,,226905.39999997616,,226906.181,8,400,,,
break_continue,html.Screen,4_14_2,2023-09-16T00:45:35.598Z,,0,,,NaN,,,,,,false,,,,226906,226906,,226906,,226906.181,8,400,,,
sequence,flow.Sequence,4_14,2023-09-16T00:45:35.598Z,,0,,,4165.883999999991,completion,,,,,false,,,,226906.19999998808,226906,222707.941,222724.19999998808,222740.116,226906.181,8,400,,,
trial,html.Screen,4_15_0,2023-09-16T00:45:39.156Z,,0,1,,3558.3189999999886,response,ISIC_2200197.JPG,5,ISIC_1169724.JPG,ISIC_2200197.JPG,false,1,keypress(m),500,230464.80000001192,230464.5,226889.49,226906.30000001192,226906.181,230472.336,8,400,16,,ISIC_1169724.JPG
break,html.Screen,4_15_1,2023-09-16T00:45:39.157Z,,0,,,NaN,,,,,,false,,,,230465.5,230465.30000001192,,230464.89999997616,,230472.336,8,400,,,
break_continue,html.Screen,4_15_2,2023-09-16T00:45:39.157Z,,0,,,NaN,,,,,,false,,,,230465.80000001192,230465.69999998808,,230465.60000002384,,230472.336,8,400,,,
sequence,flow.Sequence,4_15,2023-09-16T00:45:39.157Z,,0,,,3559.5189999880677,completion,,,,,false,,,,230465.89999997616,230465.69999998808,226889.49,226906.30000001192,226906.181,230472.336,8,400,,,
trial,html.Screen,4_16_0,2023-09-16T00:45:44.238Z,,0,1,,5074.264000023832,response,ISIC_1601784.JPG,7,ISIC_7172145.JPG,ISIC_7172145.JPG,false,0,keypress(z),500,235546.80000001192,235546.60000002384,230456.612,230466,230472.336,235555.34,8,400,17,,ISIC_1601784.JPG
break,html.Screen,4_16_1,2023-09-16T00:45:44.239Z,,0,,,NaN,,,,,,false,,,,235547.39999997616,235547.19999998808,,235547,,235555.34,8,400,,,
break_continue,html.Screen,4_16_2,2023-09-16T00:45:44.239Z,,0,,,NaN,,,,,,false,,,,235547.69999998808,235547.60000002384,,235547.5,,235555.34,8,400,,,
sequence,flow.Sequence,4_16,2023-09-16T00:45:44.239Z,,0,,,5075.264000023832,completion,,,,,false,,,,235547.80000001192,235547.60000002384,230456.612,230465.89999997616,230472.336,235555.34,8,400,,,
trial,html.Screen,4_17_0,2023-09-16T00:45:48.801Z,,0,1,,4553.859999988083,response,ISIC_2426937.JPG,13,ISIC_2309744.JPG,ISIC_2309744.JPG,false,0,keypress(z),500,240109.5,240109.19999998808,235540.572,235547.89999997616,235555.34,240121.284,8,400,18,,ISIC_2426937.JPG
break,html.Screen,4_17_1,2023-09-16T00:45:48.802Z,,0,,,NaN,,,,,,false,,,,240110.19999998808,240110.10000002384,,240109.60000002384,,240121.284,8,400,,,
break_continue,html.Screen,4_17_2,2023-09-16T00:45:48.802Z,,0,,,NaN,,,,,,false,,,,240110.5,240110.39999997616,,240110.30000001192,,240121.284,8,400,,,
sequence,flow.Sequence,4_17,2023-09-16T00:45:48.802Z,,0,,,4555.059999976162,completion,,,,,false,,,,240110.69999998808,240110.39999997616,235540.572,235547.89999997616,235555.34,240121.284,8,400,,,
trial,html.Screen,4_18_0,2023-09-16T00:45:53.925Z,,0,1,,5112.316000023828,response,ISIC_0255997.JPG,5,ISIC_1258986.JPG,ISIC_1258986.JPG,false,0,keypress(z),500,245233.80000001192,245233.60000002384,240105.623,240110.69999998808,240121.284,245237.122,8,400,19,,ISIC_0255997.JPG
break,html.Screen,4_18_1,2023-09-16T00:45:53.926Z,,0,,,NaN,,,,,,false,,,,245234.60000002384,245234.39999997616,,245234.10000002384,,245237.122,8,400,,,
break_continue,html.Screen,4_18_2,2023-09-16T00:45:53.927Z,,0,,,NaN,,,,,,false,,,,245235.10000002384,245234.89999997616,,245234.80000001192,,245237.122,8,400,,,
sequence,flow.Sequence,4_18,2023-09-16T00:45:53.927Z,,0,,,5113.615999976144,completion,,,,,false,,,,245235.30000001192,245234.89999997616,240105.623,240110.69999998808,240121.284,245237.122,8,400,,,
trial,html.Screen,4_19_0,2023-09-16T00:45:58.921Z,,0,1,,4991.678000011918,response,ISIC_0060741.JPG,8,ISIC_3390057.JPG,ISIC_3390057.JPG,false,0,keypress(z),500,250229.10000002384,250228.80000001192,245222.006,245235.39999997616,245237.122,250236.475,8,400,20,,ISIC_0060741.JPG
break,html.Screen,4_19_1,2023-09-16T00:45:58.922Z,,0,,,NaN,,,,,,false,,,,250229.89999997616,250229.69999998808,,250229.39999997616,,250236.475,8,400,,,
break_continue,html.Screen,4_19_2,2023-09-16T00:45:58.922Z,,0,,,NaN,,,,,,false,,,,250230.19999998808,250230.10000002384,,250230.10000002384,,250236.475,8,400,,,
sequence,flow.Sequence,4_19,2023-09-16T00:45:58.922Z,,0,,,4992.978000023839,completion,,,,,false,,,,250230.5,250230.10000002384,245222.006,245235.39999997616,245237.122,250236.475,8,400,,,
trial,html.Screen,4_20_0,2023-09-16T00:46:04.175Z,,0,1,,5247.125000023836,response,ISIC_0033192.JPG,11,ISIC_0056983.JPG,ISIC_0033192.JPG,false,1,keypress(m),500,255483.89999997616,255483.60000002384,250220.114,250230.69999998808,250236.475,255485.74,8,400,21,,ISIC_0056983.JPG
break,html.Screen,4_20_1,2023-09-16T00:46:04.176Z,,0,,,NaN,,,,,,false,,,,255484.60000002384,255484.39999997616,,255484.10000002384,,255485.74,8,400,,,
break_continue,html.Screen,4_20_2,2023-09-16T00:46:04.176Z,,0,,,NaN,,,,,,false,,,,255484.89999997616,255484.80000001192,,255484.60000002384,,255485.74,8,400,,,
sequence,flow.Sequence,4_20,2023-09-16T00:46:04.177Z,,0,,,5248.325000011915,completion,,,,,false,,,,255485.10000002384,255484.80000001192,250220.114,250230.60000002384,250236.475,255485.74,8,400,,,
trial,html.Screen,4_21_0,2023-09-16T00:46:08.695Z,,0,1,,4517.760000000009,response,ISIC_0032938.JPG,7,ISIC_0029212.JPG,ISIC_0029212.JPG,false,0,keypress(z),500,260003.80000001192,260003.5,255469.422,255485.10000002384,255485.74,260018.743,8,400,22,,ISIC_0032938.JPG
break,html.Screen,4_21_1,2023-09-16T00:46:08.696Z,,0,,,NaN,,,,,,false,,,,260004.60000002384,260004.30000001192,,260004,,260018.743,8,400,,,
break_continue,html.Screen,4_21_2,2023-09-16T00:46:08.696Z,,0,,,NaN,,,,,,false,,,,260004.89999997616,260004.69999998808,,260004.69999998808,,260018.743,8,400,,,
sequence,flow.Sequence,4_21,2023-09-16T00:46:08.697Z,,0,,,4518.959999988088,completion,,,,,false,,,,260005,260004.69999998808,255469.422,255485.10000002384,255485.74,260018.743,8,400,,,
trial,html.Screen,4_22_0,2023-09-16T00:46:12.573Z,,0,1,,3862.2570000000123,response,ISIC_1886756.JPG,8,ISIC_1740912.JPG,ISIC_1886756.JPG,false,1,keypress(m),500,263881.3000000119,263881,260004.391,260005,260018.743,263884.615,8,400,23,,ISIC_1740912.JPG
break,html.Screen,4_22_1,2023-09-16T00:46:12.574Z,,0,,,NaN,,,,,,false,,,,263882.10000002384,263881.89999997616,,263881.60000002384,,263884.615,8,400,,,
break_continue,html.Screen,4_22_2,2023-09-16T00:46:12.574Z,,0,,,NaN,,,,,,false,,,,263882.39999997616,263882.3000000119,,263882.1999999881,,263884.615,8,400,,,
sequence,flow.Sequence,4_22,2023-09-16T00:46:12.574Z,,0,,,3863.5570000119333,completion,,,,,false,,,,263882.60000002384,263882.3000000119,260004.391,260005,260018.743,263884.615,8,400,,,
trial,html.Screen,4_23_0,2023-09-16T00:46:16.269Z,,0,1,,3692.3850000000093,response,ISIC_0025708.JPG,10,ISIC_8671453.JPG,ISIC_0025708.JPG,false,1,keypress(m),500,267577.3000000119,267577,263868.897,263882.6999999881,263884.615,267584.263,8,400,24,,ISIC_8671453.JPG
break,html.Screen,4_23_1,2023-09-16T00:46:16.270Z,,0,,,NaN,,,,,,false,,,,267577.89999997616,267577.8000000119,,267577.5,,267584.263,8,400,,,
break_continue,html.Screen,4_23_2,2023-09-16T00:46:16.270Z,,0,,,NaN,,,,,,false,,,,267578.3000000119,267578.3000000119,,267578.10000002384,,267584.263,8,400,,,
sequence,flow.Sequence,4_23,2023-09-16T00:46:16.270Z,,0,,,3693.6850000119302,completion,,,,,false,,,,267578.5,267578.3000000119,263868.897,263882.6999999881,263884.615,267584.263,8,400,,,
trial,html.Screen,4_24_0,2023-09-16T00:46:21.225Z,,0,1,,4949.136999976181,response,ISIC_2679689.JPG,5,ISIC_0062048.JPG,ISIC_0062048.JPG,false,0,keypress(z),500,272533.6999999881,272533.39999997616,267567.796,267578.60000002384,267584.263,272550.087,8,400,25,,ISIC_2679689.JPG
break,html.Screen,4_24_1,2023-09-16T00:46:21.226Z,,0,,,NaN,,,,,,false,,,,272534.39999997616,272534.1999999881,,272533.8000000119,,272550.087,8,400,,,
break_continue,html.Screen,4_24_2,2023-09-16T00:46:21.226Z,,0,,,NaN,,,,,,false,,,,272534.6999999881,272534.6999999881,,272534.60000002384,,272550.087,8,400,,,
sequence,flow.Sequence,4_24,2023-09-16T00:46:21.226Z,,0,,,4950.436999988102,completion,,,,,false,,,,272534.8000000119,272534.6999999881,267567.796,267578.60000002384,267584.263,272550.087,8,400,,,
trial,html.Screen,4_25_0,2023-09-16T00:46:25.090Z,,0,1,,3848.1129999880795,response,ISIC_0013243.JPG,13,ISIC_4255013.JPG,ISIC_0013243.JPG,false,1,keypress(m),500,276398.39999997616,276398.1999999881,272533.94,272534.89999997616,272550.087,276422.908,8,400,26,,ISIC_4255013.JPG
break,html.Screen,4_25_1,2023-09-16T00:46:25.091Z,,0,,,NaN,,,,,,false,,,,276399.10000002384,276399,,276398.6999999881,,276422.908,8,400,,,
break_continue,html.Screen,4_25_2,2023-09-16T00:46:25.091Z,,0,,,NaN,,,,,,false,,,,276399.39999997616,276399.39999997616,,276399.3000000119,,276422.908,8,400,,,
sequence,flow.Sequence,4_25,2023-09-16T00:46:25.091Z,,0,,,3849.3129999761586,completion,,,,,false,,,,276399.60000002384,276399.39999997616,272533.94,272534.89999997616,272550.087,276422.908,8,400,,,
trial,html.Screen,4_26_0,2023-09-16T00:46:29.207Z,,0,1,,4092.092000000004,response,ISIC_3824206.JPG,7,ISIC_0057286.JPG,ISIC_0057286.JPG,false,0,keypress(z),500,280515.3000000119,280515,276385.73,276399.8000000119,276422.908,280532.706,8,400,27,,ISIC_3824206.JPG
break,html.Screen,4_26_1,2023-09-16T00:46:29.208Z,,0,,,NaN,,,,,,false,,,,280516,280515.8000000119,,280515.5,,280532.706,8,400,,,
break_continue,html.Screen,4_26_2,2023-09-16T00:46:29.208Z,,0,,,NaN,,,,,,false,,,,280516.3000000119,280516.1999999881,,280516.10000002384,,280532.706,8,400,,,
sequence,flow.Sequence,4_26,2023-09-16T00:46:29.208Z,,0,,,4093.2919999880833,completion,,,,,false,,,,280516.39999997616,280516.1999999881,276385.73,276399.60000002384,276422.908,280532.706,8,400,,,
trial,html.Screen,4_27_0,2023-09-16T00:46:33.117Z,,0,1,,3892.6939999761526,response,ISIC_0031960.JPG,6,ISIC_0010400.JPG,ISIC_0010400.JPG,false,0,keypress(z),500,284425.6999999881,284425.39999997616,280499.983,280516.5,280532.706,284431.908,8,400,28,,ISIC_0031960.JPG
break,html.Screen,4_27_1,2023-09-16T00:46:33.118Z,,0,,,NaN,,,,,,false,,,,284426.3000000119,284426.10000002384,,284425.89999997616,,284431.908,8,400,,,
break_continue,html.Screen,4_27_2,2023-09-16T00:46:33.118Z,,0,,,NaN,,,,,,false,,,,284426.6999999881,284426.5,,284426.5,,284431.908,8,400,,,
sequence,flow.Sequence,4_27,2023-09-16T00:46:33.118Z,,0,,,3893.7939999999944,completion,,,,,false,,,,284426.8000000119,284426.5,280499.983,280516.5,280532.706,284431.908,8,400,,,
trial,html.Screen,4_28_0,2023-09-16T00:46:36.340Z,,0,1,,3215.892000011925,response,ISIC_0056047.JPG,10,ISIC_1399572.JPG,ISIC_0056047.JPG,false,1,keypress(m),500,287648.10000002384,287647.8000000119,284415.792,284426.89999997616,284431.908,287665.054,8,400,29,,ISIC_1399572.JPG
break,html.Screen,4_28_1,2023-09-16T00:46:36.340Z,,0,,,NaN,,,,,,false,,,,287648.8000000119,287648.60000002384,,287648.3000000119,,287665.054,8,400,,,
break_continue,html.Screen,4_28_2,2023-09-16T00:46:36.341Z,,0,,,NaN,,,,,,false,,,,287649.10000002384,287649,,287649,,287665.054,8,400,,,
sequence,flow.Sequence,4_28,2023-09-16T00:46:36.341Z,,0,,,3217.092000000004,completion,,,,,false,,,,287649.1999999881,287649,284415.792,284426.8000000119,284431.908,287665.054,8,400,,,
trial,html.Screen,4_29_0,2023-09-16T00:46:40.537Z,,0,1,,4180.246000011917,response,ISIC_0054652.JPG,8,ISIC_4673648.JPG,ISIC_0054652.JPG,false,1,keypress(m),500,291845.60000002384,291845.3000000119,287632.11,287649.3000000119,287665.054,291847.635,8,400,30,,ISIC_4673648.JPG
break,html.Screen,4_29_1,2023-09-16T00:46:40.538Z,,0,,,NaN,,,,,,false,,,,291846.39999997616,291846.1999999881,,291845.89999997616,,291847.635,8,400,,,
break_continue,html.Screen,4_29_2,2023-09-16T00:46:40.538Z,,0,,,NaN,,,,,,false,,,,291846.8000000119,291846.60000002384,,291846.60000002384,,291847.635,8,400,,,
sequence,flow.Sequence,4_29,2023-09-16T00:46:40.538Z,,0,,,4181.546000023838,completion,,,,,false,,,,291846.89999997616,291846.60000002384,287632.11,287649.3000000119,287665.054,291847.635,8,400,,,
trial,html.Screen,4_30_0,2023-09-16T00:46:44.316Z,,0,1,,3776.9650000238325,response,ISIC_9987485.JPG,12,ISIC_0033831.JPG,ISIC_0033831.JPG,false,0,keypress(z),500,295624.89999997616,295624.60000002384,291833.394,291847,291847.635,295630.431,8,400,31,,ISIC_9987485.JPG
break,html.Screen,4_30_1,2023-09-16T00:46:44.317Z,,0,,,NaN,,,,,,false,,,,295625.60000002384,295625.39999997616,,295625.10000002384,,295630.431,8,400,,,
break_continue,html.Screen,4_30_2,2023-09-16T00:46:44.317Z,,0,,,NaN,,,,,,false,,,,295625.89999997616,295625.8000000119,,295625.6999999881,,295630.431,8,400,,,
sequence,flow.Sequence,4_30,2023-09-16T00:46:44.318Z,,0,,,3778.1650000119116,completion,,,,,false,,,,295626,295625.8000000119,291833.394,291846.89999997616,291847.635,295630.431,8,400,,,
trial,html.Screen,4_31_0,2023-09-16T00:46:49.619Z,,0,1,,5296.468999976176,response,ISIC_7251402.JPG,12,ISIC_0182020.JPG,ISIC_0182020.JPG,false,0,keypress(z),500,300927.10000002384,300926.89999997616,295614.209,295626.1999999881,295630.431,300929.755,8,400,32,,ISIC_7251402.JPG
break,html.Screen,4_31_1,2023-09-16T00:46:49.620Z,,0,,,NaN,,,,,,false,,,,300927.89999997616,300927.6999999881,,300927.3000000119,,300929.755,8,400,,,
break_continue,html.Screen,4_31_2,2023-09-16T00:46:49.620Z,,0,,,NaN,,,,,,false,,,,300928.3000000119,300928.1999999881,,300928.10000002384,,300929.755,8,400,,,
sequence,flow.Sequence,4_31,2023-09-16T00:46:49.620Z,,0,,,5297.768999988097,completion,,,,,false,,,,300928.5,300928.1999999881,295614.209,295626.10000002384,295630.431,300929.755,8,400,,,
trial,html.Screen,4_32_0,2023-09-16T00:46:53.001Z,,0,1,,3379.6449999761535,response,ISIC_5284935.JPG,11,ISIC_0009100.JPG,ISIC_5284935.JPG,false,1,keypress(m),500,304309.6999999881,304309.39999997616,300913.095,300928.5,300929.755,304312.66,8,400,33,,ISIC_0009100.JPG
break,html.Screen,4_32_1,2023-09-16T00:46:53.002Z,,0,,,NaN,,,,,,false,,,,304310.39999997616,304310.1999999881,,304309.8000000119,,304312.66,8,400,,,
break_continue,html.Screen,4_32_2,2023-09-16T00:46:53.002Z,,0,,,NaN,,,,,,false,,,,304310.6999999881,304310.60000002384,,304310.5,,304312.66,8,400,,,
sequence,flow.Sequence,4_32,2023-09-16T00:46:53.002Z,,0,,,3380.845000023837,completion,,,,,false,,,,304310.8000000119,304310.60000002384,300913.095,300928.5,300929.755,304312.66,8,400,,,
trial,html.Screen,4_33_0,2023-09-16T00:46:56.787Z,,0,1,,3782.6400000119465,response,ISIC_0029809.JPG,10,ISIC_7080584.JPG,ISIC_0029809.JPG,false,1,keypress(m),500,308095.60000002384,308095.3000000119,304296.304,304310.89999997616,304312.66,308112.405,8,400,34,,ISIC_7080584.JPG
break,html.Screen,4_33_1,2023-09-16T00:46:56.788Z,,0,,,NaN,,,,,,false,,,,308096.3000000119,308096.10000002384,,308095.8000000119,,308112.405,8,400,,,
break_continue,html.Screen,4_33_2,2023-09-16T00:46:56.788Z,,0,,,NaN,,,,,,false,,,,308096.60000002384,308096.5,,308096.39999997616,,308112.405,8,400,,,
sequence,flow.Sequence,4_33,2023-09-16T00:46:56.788Z,,0,,,3783.8400000000256,completion,,,,,false,,,,308096.6999999881,308096.5,304296.304,304310.8000000119,304312.66,308112.405,8,400,,,
trial,html.Screen,4_34_0,2023-09-16T00:47:00.215Z,,0,1,,3410.395000011893,response,ISIC_0054043.JPG,7,ISIC_0006983.JPG,ISIC_0054043.JPG,false,1,keypress(m),500,311523.10000002384,311522.8000000119,308081.247,308096.8000000119,308112.405,311528.457,8,400,35,,ISIC_0006983.JPG
break,html.Screen,4_34_1,2023-09-16T00:47:00.215Z,,0,,,NaN,,,,,,false,,,,311523.8000000119,311523.60000002384,,311523.3000000119,,311528.457,8,400,,,
break_continue,html.Screen,4_34_2,2023-09-16T00:47:00.216Z,,0,,,NaN,,,,,,false,,,,311524.10000002384,311524.10000002384,,311523.89999997616,,311528.457,8,400,,,
sequence,flow.Sequence,4_34,2023-09-16T00:47:00.216Z,,0,,,3411.695000023814,completion,,,,,false,,,,311524.1999999881,311524.10000002384,308081.247,308096.8000000119,308112.405,311528.457,8,400,,,
trial,html.Screen,4_35_0,2023-09-16T00:47:04.668Z,,0,1,,4448.143000023847,response,ISIC_0030034.JPG,7,ISIC_2219050.JPG,ISIC_0030034.JPG,false,1,keypress(m),500,315976.8000000119,315976.60000002384,311512.081,311524.3000000119,311528.457,315994.603,8,400,36,,ISIC_2219050.JPG
break,html.Screen,4_35_1,2023-09-16T00:47:04.669Z,,0,,,NaN,,,,,,false,,,,315977.6999999881,315977.39999997616,,315977.10000002384,,315994.603,8,400,,,
break_continue,html.Screen,4_35_2,2023-09-16T00:47:04.670Z,,0,,,NaN,,,,,,false,,,,315978,315977.89999997616,,315977.8000000119,,315994.603,8,400,,,
sequence,flow.Sequence,4_35,2023-09-16T00:47:04.670Z,,0,,,4449.442999976163,completion,,,,,false,,,,315978.10000002384,315977.89999997616,311512.081,311524.3000000119,311528.457,315994.603,8,400,,,
trial,html.Screen,4_36_0,2023-09-16T00:47:08.422Z,,0,1,,3735.197000011918,response,ISIC_0027596.JPG,8,ISIC_0281179.JPG,ISIC_0281179.JPG,false,0,keypress(z),500,319730.1999999881,319729.8000000119,315963.786,315978.3000000119,315994.603,319743.867,8,400,37,,ISIC_0027596.JPG
break,html.Screen,4_36_1,2023-09-16T00:47:08.422Z,,0,,,NaN,,,,,,false,,,,319730.89999997616,319730.6999999881,,319730.3000000119,,319743.867,8,400,,,
break_continue,html.Screen,4_36_2,2023-09-16T00:47:08.423Z,,0,,,NaN,,,,,,false,,,,319731.1999999881,319731.10000002384,,319731,,319743.867,8,400,,,
sequence,flow.Sequence,4_36,2023-09-16T00:47:08.423Z,,0,,,3736.497000023839,completion,,,,,false,,,,319731.3000000119,319731.10000002384,315963.786,315978.1999999881,315994.603,319743.867,8,400,,,
trial,html.Screen,4_37_0,2023-09-16T00:47:12.080Z,,0,1,,3644.4330000118935,response,ISIC_0294687.JPG,8,ISIC_7208412.JPG,ISIC_7208412.JPG,false,0,keypress(z),500,323388.60000002384,323388.3000000119,319729.443,319731.39999997616,319743.867,323393.453,8,400,38,,ISIC_0294687.JPG
break,html.Screen,4_37_1,2023-09-16T00:47:12.081Z,,0,,,NaN,,,,,,false,,,,323389.3000000119,323389.10000002384,,323388.8000000119,,323393.453,8,400,,,
break_continue,html.Screen,4_37_2,2023-09-16T00:47:12.081Z,,0,,,NaN,,,,,,false,,,,323389.6999999881,323389.5,,323389.39999997616,,323393.453,8,400,,,
sequence,flow.Sequence,4_37,2023-09-16T00:47:12.081Z,,0,,,3645.6329999999725,completion,,,,,false,,,,323389.8000000119,323389.5,319729.443,319731.39999997616,319743.867,323393.453,8,400,,,
trial,html.Screen,4_38_0,2023-09-16T00:47:15.471Z,,0,1,,3385.5470000000205,response,ISIC_0029575.JPG,10,ISIC_5874357.JPG,ISIC_0029575.JPG,false,1,keypress(m),500,326779.1999999881,326779,323378.022,323389.8000000119,323393.453,326793.214,8,400,39,,ISIC_5874357.JPG
break,html.Screen,4_38_1,2023-09-16T00:47:15.472Z,,0,,,NaN,,,,,,false,,,,326779.89999997616,326779.8000000119,,326779.5,,326793.214,8,400,,,
break_continue,html.Screen,4_38_2,2023-09-16T00:47:15.472Z,,0,,,NaN,,,,,,false,,,,326780.1999999881,326780.1999999881,,326780,,326793.214,8,400,,,
sequence,flow.Sequence,4_38,2023-09-16T00:47:15.472Z,,0,,,3386.7469999880996,completion,,,,,false,,,,326780.3000000119,326780.1999999881,323378.022,323389.8000000119,323393.453,326793.214,8,400,,,
trial,html.Screen,4_39_0,2023-09-16T00:47:18.658Z,,0,1,,3173.286000000022,response,ISIC_0071168.JPG,7,ISIC_8566006.JPG,ISIC_8566006.JPG,false,0,keypress(z),500,329966.8000000119,329966.5,326778.635,326780.39999997616,326793.214,329975.842,8,400,40,,ISIC_0071168.JPG
break,html.Screen,4_39_1,2023-09-16T00:47:18.659Z,,0,,,NaN,,,,,,false,,,,329967.60000002384,329967.3000000119,,329967,,329975.842,8,400,,,
break_continue,html.Screen,4_39_2,2023-09-16T00:47:18.659Z,,0,,,NaN,,,,,,false,,,,329967.8000000119,329967.8000000119,,329967.60000002384,,329975.842,8,400,,,
sequence,flow.Sequence,4_39,2023-09-16T00:47:18.660Z,,0,,,3174.586000011943,completion,,,,,false,,,,329968,329967.8000000119,326778.635,326780.39999997616,326793.214,329975.842,8,400,,,
trial,html.Screen,4_40_0,2023-09-16T00:47:22.937Z,,0,1,,4269.258000023838,response,ISIC_7533216.JPG,6,ISIC_0031877.JPG,ISIC_7533216.JPG,false,1,keypress(m),500,334245.39999997616,334245.10000002384,329960.347,329968.10000002384,329975.842,334259.119,8,400,41,,ISIC_0031877.JPG
break,html.Screen,4_40_1,2023-09-16T00:47:22.938Z,,0,,,NaN,,,,,,false,,,,334246.10000002384,334246,,334245.60000002384,,334259.119,8,400,,,
break_continue,html.Screen,4_40_2,2023-09-16T00:47:22.938Z,,0,,,NaN,,,,,,false,,,,334246.39999997616,334246.3000000119,,334246.1999999881,,334259.119,8,400,,,
sequence,flow.Sequence,4_40,2023-09-16T00:47:22.938Z,,0,,,4270.458000011917,completion,,,,,false,,,,334246.5,334246.3000000119,329960.347,329968,329975.842,334259.119,8,400,,,
trial,html.Screen,4_41_0,2023-09-16T00:47:26.276Z,,0,1,,3325.380999999994,response,ISIC_7044184.JPG,11,ISIC_1102075.JPG,ISIC_7044184.JPG,false,1,keypress(m),500,337584.89999997616,337584.5,334244.545,334246.60000002384,334259.119,337592.08,8,400,42,,ISIC_1102075.JPG
break,html.Screen,4_41_1,2023-09-16T00:47:26.277Z,,0,,,NaN,,,,,,false,,,,337585.60000002384,337585.39999997616,,337585,,337592.08,8,400,,,
break_continue,html.Screen,4_41_2,2023-09-16T00:47:26.277Z,,0,,,NaN,,,,,,false,,,,337585.8000000119,337585.6999999881,,337585.60000002384,,337592.08,8,400,,,
sequence,flow.Sequence,4_41,2023-09-16T00:47:26.278Z,,0,,,3326.580999988073,completion,,,,,false,,,,337585.89999997616,337585.6999999881,334244.545,334246.60000002384,334259.119,337592.08,8,400,,,
trial,html.Screen,4_42_0,2023-09-16T00:47:29.979Z,,0,1,,3695.4199999999837,response,ISIC_3575862.JPG,11,ISIC_0024702.JPG,ISIC_0024702.JPG,false,0,keypress(z),500,341287.8000000119,341287.5,337575.936,337586,337592.08,341291.075,8,400,43,,ISIC_3575862.JPG
break,html.Screen,4_42_1,2023-09-16T00:47:29.980Z,,0,,,NaN,,,,,,false,,,,341288.60000002384,341288.39999997616,,341288.10000002384,,341291.075,8,400,,,
break_continue,html.Screen,4_42_2,2023-09-16T00:47:29.980Z,,0,,,NaN,,,,,,false,,,,341288.89999997616,341288.8000000119,,341288.6999999881,,341291.075,8,400,,,
sequence,flow.Sequence,4_42,2023-09-16T00:47:29.981Z,,0,,,3696.7200000119046,completion,,,,,false,,,,341289,341288.8000000119,337575.936,337586,337592.08,341291.075,8,400,,,
trial,html.Screen,4_43_0,2023-09-16T00:47:34.428Z,,0,1,,4445.02500002383,response,ISIC_0458561.JPG,10,ISIC_0070003.JPG,ISIC_0070003.JPG,false,0,keypress(z),500,345736.5,345736.10000002384,341276.877,341289.10000002384,341291.075,345740.687,8,400,44,,ISIC_0458561.JPG
break,html.Screen,4_43_1,2023-09-16T00:47:34.429Z,,0,,,NaN,,,,,,false,,,,345737.1999999881,345737,,345736.60000002384,,345740.687,8,400,,,
break_continue,html.Screen,4_43_2,2023-09-16T00:47:34.429Z,,0,,,NaN,,,,,,false,,,,345737.60000002384,345737.5,,345737.39999997616,,345740.687,8,400,,,
sequence,flow.Sequence,4_43,2023-09-16T00:47:34.429Z,,0,,,4446.424999999988,completion,,,,,false,,,,345737.6999999881,345737.5,341276.877,341289.10000002384,341291.075,345740.687,8,400,,,
trial,html.Screen,4_44_0,2023-09-16T00:47:38.183Z,,0,1,,3750.6130000119447,response,ISIC_9256438.JPG,6,ISIC_0072382.JPG,ISIC_0072382.JPG,false,0,keypress(z),500,349491.6999999881,349491.3000000119,345726.269,345737.89999997616,345740.687,349506.676,8,400,45,,ISIC_9256438.JPG
break,html.Screen,4_44_1,2023-09-16T00:47:38.184Z,,0,,,NaN,,,,,,false,,,,349492.39999997616,349492.1999999881,,349491.89999997616,,349506.676,8,400,,,
break_continue,html.Screen,4_44_2,2023-09-16T00:47:38.184Z,,0,,,NaN,,,,,,false,,,,349492.8000000119,349492.60000002384,,349492.5,,349506.676,8,400,,,
sequence,flow.Sequence,4_44,2023-09-16T00:47:38.184Z,,0,,,3751.9130000238656,completion,,,,,false,,,,349492.89999997616,349492.60000002384,345726.269,345737.8000000119,345740.687,349506.676,8,400,,,
trial,html.Screen,4_45_0,2023-09-16T00:47:42.630Z,,0,1,,4431.124000011943,response,ISIC_0027431.JPG,8,ISIC_0011949.JPG,ISIC_0011949.JPG,false,0,keypress(z),500,353938.1999999881,353937.8000000119,349490.395,349493,349506.676,353962.267,8,400,46,,ISIC_0027431.JPG
break,html.Screen,4_45_1,2023-09-16T00:47:42.631Z,,0,,,NaN,,,,,,false,,,,353939,353938.89999997616,,353938.39999997616,,353962.267,8,400,,,
break_continue,html.Screen,4_45_2,2023-09-16T00:47:42.631Z,,0,,,NaN,,,,,,false,,,,353939.3000000119,353939.1999999881,,353939.10000002384,,353962.267,8,400,,,
sequence,flow.Sequence,4_45,2023-09-16T00:47:42.631Z,,0,,,4432.523999988101,completion,,,,,false,,,,353939.39999997616,353939.1999999881,349490.395,349493,349506.676,353962.267,8,400,,,
trial,html.Screen,4_46_0,2023-09-16T00:47:48.202Z,,0,1,,5547.533000011928,response,ISIC_0178370.JPG,6,ISIC_1955991.JPG,ISIC_1955991.JPG,false,0,keypress(z),500,359510,359509.8000000119,353924.685,353939.60000002384,353962.267,359521.969,8,400,47,,ISIC_0178370.JPG
break,html.Screen,4_46_1,2023-09-16T00:47:48.202Z,,0,,,NaN,,,,,,false,,,,359510.6999999881,359510.5,,359510.1999999881,,359521.969,8,400,,,
break_continue,html.Screen,4_46_2,2023-09-16T00:47:48.203Z,,0,,,NaN,,,,,,false,,,,359511,359510.89999997616,,359510.8000000119,,359521.969,8,400,,,
sequence,flow.Sequence,4_46,2023-09-16T00:47:48.203Z,,0,,,5548.632999976166,completion,,,,,false,,,,359511.10000002384,359510.89999997616,353924.685,353939.60000002384,353962.267,359521.969,8,400,,,
trial,html.Screen,4_47_0,2023-09-16T00:47:53.349Z,,0,1,,5135.531000000017,response,ISIC_0028773.JPG,6,ISIC_4055361.JPG,ISIC_0028773.JPG,false,1,keypress(m),500,364657.6999999881,364657.5,359505.638,359511.1999999881,359521.969,364671.709,8,400,48,,ISIC_4055361.JPG
break,html.Screen,4_47_1,2023-09-16T00:47:53.350Z,,0,,,NaN,,,,,,false,,,,364658.39999997616,364658.3000000119,,364658,,364671.709,8,400,,,
break_continue,html.Screen,4_47_2,2023-09-16T00:47:53.350Z,,0,,,NaN,,,,,,false,,,,364658.6999999881,364658.6999999881,,364658.60000002384,,364671.709,8,400,,,
sequence,flow.Sequence,4_47,2023-09-16T00:47:53.350Z,,0,,,5136.730999988096,completion,,,,,false,,,,364658.8000000119,364658.6999999881,359505.638,359511.1999999881,359521.969,364671.709,8,400,,,
trial,html.Screen,4_48_0,2023-09-16T00:47:56.986Z,,0,1,,3622.1909999761847,response,ISIC_4015508.JPG,8,ISIC_0033081.JPG,ISIC_0033081.JPG,false,0,keypress(z),500,368294.1999999881,368293.89999997616,364655.095,364659,364671.709,368304.542,8,400,49,,ISIC_4015508.JPG
break,html.Screen,4_48_1,2023-09-16T00:47:56.987Z,,0,,,NaN,,,,,,false,,,,368294.89999997616,368294.6999999881,,368294.39999997616,,368304.542,8,400,,,
break_continue,html.Screen,4_48_2,2023-09-16T00:47:56.987Z,,0,,,NaN,,,,,,false,,,,368295.1999999881,368295.10000002384,,368295,,368304.542,8,400,,,
sequence,flow.Sequence,4_48,2023-09-16T00:47:56.987Z,,0,,,3623.3910000238684,completion,,,,,false,,,,368295.39999997616,368295.10000002384,364655.095,364659,364671.709,368304.542,8,400,,,
trial,html.Screen,4_49_0,2023-09-16T00:48:01.564Z,,0,1,,4567.957999999984,response,ISIC_2991354.JPG,13,ISIC_0059065.JPG,ISIC_0059065.JPG,false,0,keypress(z),500,372872.6999999881,372872.5,368287.915,368295.5,368304.542,372886.864,8,400,50,,ISIC_2991354.JPG
break,html.Screen,4_49_1,2023-09-16T00:48:11.561Z,,0,,,9998.765000000014,timeout,,,,,false,,,,382869.6999999881,382869.219,372871.63,372872.89999997616,372886.864,382885.629,8,400,,,
break_continue,html.Screen,4_49_2,2023-09-16T00:48:19.322Z,,0,,,7734.171000011906,response,,,,,false,continue,keypress(Space),,390630.39999997616,390619.8000000119,382869.219,382869.8000000119,382885.629,390634.958,8,400,,,
sequence,flow.Sequence,4_49,2023-09-16T00:48:19.322Z,,0,,,22315.258000011905,completion,,,,,false,,,,390630.60000002384,390619.8000000119,368287.915,368295.39999997616,368304.542,390634.958,8,400,,,
trial,html.Screen,4_50_0,2023-09-16T00:48:26.983Z,,0,2,,7655.741999988095,response,ISIC_5573566.JPG,12,ISIC_0026558.JPG,ISIC_5573566.JPG,false,1,keypress(m),500,398291,398290.6999999881,390617.222,390630.60000002384,390634.958,398300.231,8,400,1,,ISIC_0026558.JPG
break,html.Screen,4_50_1,2023-09-16T00:48:26.983Z,,0,,,NaN,,,,,,false,,,,398291.8000000119,398291.60000002384,,398291.1999999881,,398300.231,8,400,,,
break_continue,html.Screen,4_50_2,2023-09-16T00:48:26.984Z,,0,,,NaN,,,,,,false,,,,398292.10000002384,398291.89999997616,,398291.89999997616,,398300.231,8,400,,,
sequence,flow.Sequence,4_50,2023-09-16T00:48:26.984Z,,0,,,7656.941999976174,completion,,,,,false,,,,398292.1999999881,398291.89999997616,390617.222,390630.60000002384,390634.958,398300.231,8,400,,,
trial,html.Screen,4_51_0,2023-09-16T00:48:30.637Z,,0,2,,3644.869000023813,response,ISIC_7206167.JPG,7,ISIC_0025243.JPG,ISIC_0025243.JPG,false,0,keypress(z),500,401945.39999997616,401945.10000002384,398278.892,398292.3000000119,398300.231,401949.928,8,400,2,,ISIC_7206167.JPG
break,html.Screen,4_51_1,2023-09-16T00:48:30.638Z,,0,,,NaN,,,,,,false,,,,401946.10000002384,401945.89999997616,,401945.60000002384,,401949.928,8,400,,,
break_continue,html.Screen,4_51_2,2023-09-16T00:48:30.638Z,,0,,,NaN,,,,,,false,,,,401946.39999997616,401946.3000000119,,401946.10000002384,,401949.928,8,400,,,
sequence,flow.Sequence,4_51,2023-09-16T00:48:30.638Z,,0,,,3646.069000011892,completion,,,,,false,,,,401946.5,401946.3000000119,398278.892,398292.3000000119,398300.231,401949.928,8,400,,,
trial,html.Screen,4_52_0,2023-09-16T00:48:35.478Z,,0,2,,4835.971999976144,response,ISIC_6709052.JPG,6,ISIC_8052769.JPG,ISIC_8052769.JPG,false,0,keypress(z),500,406786.3000000119,406785.89999997616,401933.329,401946.60000002384,401949.928,406799.332,8,400,3,,ISIC_6709052.JPG
break,html.Screen,4_52_1,2023-09-16T00:48:35.479Z,,0,,,NaN,,,,,,false,,,,406787,406786.8000000119,,406786.39999997616,,406799.332,8,400,,,
break_continue,html.Screen,4_52_2,2023-09-16T00:48:35.479Z,,0,,,NaN,,,,,,false,,,,406787.1999999881,406787.1999999881,,406787,,406799.332,8,400,,,
sequence,flow.Sequence,4_52,2023-09-16T00:48:35.479Z,,0,,,4837.271999988065,completion,,,,,false,,,,406787.5,406787.1999999881,401933.329,401946.5,401949.928,406799.332,8,400,,,
trial,html.Screen,4_53_0,2023-09-16T00:48:38.641Z,,0,2,,3149.268000023847,response,ISIC_8812621.JPG,12,ISIC_8401332.JPG,ISIC_8812621.JPG,false,1,keypress(m),500,409949,409948.60000002384,406782.555,406787.60000002384,406799.332,409965.655,8,400,4,,ISIC_8401332.JPG
break,html.Screen,4_53_1,2023-09-16T00:48:38.641Z,,0,,,NaN,,,,,,false,,,,409949.6999999881,409949.5,,409949.1999999881,,409965.655,8,400,,,
break_continue,html.Screen,4_53_2,2023-09-16T00:48:38.642Z,,0,,,NaN,,,,,,false,,,,409950,409949.89999997616,,409949.8000000119,,409965.655,8,400,,,
sequence,flow.Sequence,4_53,2023-09-16T00:48:38.642Z,,0,,,3150.5679999761633,completion,,,,,false,,,,409950.1999999881,409949.89999997616,406782.555,406787.60000002384,406799.332,409965.655,8,400,,,
trial,html.Screen,4_54_0,2023-09-16T00:48:42.730Z,,0,2,,4072.445000023814,response,ISIC_4836699.JPG,8,ISIC_4375524.JPG,ISIC_4836699.JPG,false,1,keypress(m),500,414038.39999997616,414038.10000002384,409948.985,409950.3000000119,409965.655,414048.099,8,400,5,,ISIC_4375524.JPG
break,html.Screen,4_54_1,2023-09-16T00:48:42.731Z,,0,,,NaN,,,,,,false,,,,414039,414038.89999997616,,414038.60000002384,,414048.099,8,400,,,
break_continue,html.Screen,4_54_2,2023-09-16T00:48:42.731Z,,0,,,NaN,,,,,,false,,,,414039.3000000119,414039.1999999881,,414039.10000002384,,414048.099,8,400,,,
sequence,flow.Sequence,4_54,2023-09-16T00:48:42.731Z,,0,,,4073.544999988051,completion,,,,,false,,,,414039.5,414039.1999999881,409948.985,409950.1999999881,409965.655,414048.099,8,400,,,
trial,html.Screen,4_55_0,2023-09-16T00:48:51.201Z,,0,2,,8461.100999988092,response,ISIC_1195689.JPG,8,ISIC_6180870.JPG,ISIC_1195689.JPG,false,1,keypress(m),500,422509.5,422509.1999999881,414031.994,414039.60000002384,414048.099,422513.994,8,400,6,,ISIC_6180870.JPG
break,html.Screen,4_55_1,2023-09-16T00:48:51.202Z,,0,,,NaN,,,,,,false,,,,422510.39999997616,422510.10000002384,,422509.6999999881,,422513.994,8,400,,,
break_continue,html.Screen,4_55_2,2023-09-16T00:48:51.202Z,,0,,,NaN,,,,,,false,,,,422510.60000002384,422510.5,,422510.5,,422513.994,8,400,,,
sequence,flow.Sequence,4_55,2023-09-16T00:48:51.202Z,,0,,,8462.401000000013,completion,,,,,false,,,,422510.8000000119,422510.5,414031.994,414039.60000002384,414048.099,422513.994,8,400,,,
trial,html.Screen,4_56_0,2023-09-16T00:48:57.337Z,,0,2,,6131.405999976152,response,ISIC_0010034.JPG,10,ISIC_0002821.JPG,ISIC_0002821.JPG,false,0,keypress(z),500,428645.60000002384,428645.39999997616,422497.219,422510.89999997616,422513.994,428662.914,8,400,7,,ISIC_0010034.JPG
break,html.Screen,4_56_1,2023-09-16T00:48:57.338Z,,0,,,NaN,,,,,,false,,,,428646.3000000119,428646.10000002384,,428645.8000000119,,428662.914,8,400,,,
break_continue,html.Screen,4_56_2,2023-09-16T00:48:57.338Z,,0,,,NaN,,,,,,false,,,,428646.5,428646.5,,428646.39999997616,,428662.914,8,400,,,
sequence,flow.Sequence,4_56,2023-09-16T00:48:57.338Z,,0,,,6132.505999999994,completion,,,,,false,,,,428646.6999999881,428646.5,422497.219,422510.8000000119,422513.994,428662.914,8,400,,,
trial,html.Screen,4_57_0,2023-09-16T00:49:03.454Z,,0,2,,6098.886000011931,response,ISIC_3566243.JPG,6,ISIC_2809019.JPG,ISIC_2809019.JPG,false,0,keypress(z),500,434762.1999999881,434761.8000000119,428629.971,428646.8000000119,428662.914,434778.767,8,400,8,,ISIC_3566243.JPG
break,html.Screen,4_57_1,2023-09-16T00:49:03.455Z,,0,,,NaN,,,,,,false,,,,434763,434762.6999999881,,434762.39999997616,,434778.767,8,400,,,
break_continue,html.Screen,4_57_2,2023-09-16T00:49:03.455Z,,0,,,NaN,,,,,,false,,,,434763.3000000119,434763.1999999881,,434763,,434778.767,8,400,,,
sequence,flow.Sequence,4_57,2023-09-16T00:49:03.455Z,,0,,,6100.285999988089,completion,,,,,false,,,,434763.39999997616,434763.1999999881,428629.971,428646.8000000119,428662.914,434778.767,8,400,,,
trial,html.Screen,4_58_0,2023-09-16T00:49:08.594Z,,0,2,,5123.233000000007,response,ISIC_0060629.JPG,11,ISIC_6687927.JPG,ISIC_0060629.JPG,false,1,keypress(m),500,439902.3000000119,439902,434762.464,434763.5,434778.767,439911.393,8,400,9,,ISIC_6687927.JPG
break,html.Screen,4_58_1,2023-09-16T00:49:08.595Z,,0,,,NaN,,,,,,false,,,,439903.10000002384,439902.89999997616,,439902.5,,439911.393,8,400,,,
break_continue,html.Screen,4_58_2,2023-09-16T00:49:08.595Z,,0,,,NaN,,,,,,false,,,,439903.39999997616,439903.3000000119,,439903.1999999881,,439911.393,8,400,,,
sequence,flow.Sequence,4_58,2023-09-16T00:49:08.595Z,,0,,,5124.533000011928,completion,,,,,false,,,,439903.5,439903.3000000119,434762.464,434763.5,434778.767,439911.393,8,400,,,
trial,html.Screen,4_59_0,2023-09-16T00:49:13.086Z,,0,2,,4483.107000000018,response,ISIC_9084751.JPG,6,ISIC_1348538.JPG,ISIC_9084751.JPG,false,1,keypress(m),500,444394.8000000119,444394.5,439895.19,439903.5,439911.393,444410.818,8,400,10,,ISIC_1348538.JPG
break,html.Screen,4_59_1,2023-09-16T00:49:13.087Z,,0,,,NaN,,,,,,false,,,,444395.39999997616,444395.1999999881,,444395,,444410.818,8,400,,,
break_continue,html.Screen,4_59_2,2023-09-16T00:49:13.087Z,,0,,,NaN,,,,,,false,,,,444395.8000000119,444395.60000002384,,444395.60000002384,,444410.818,8,400,,,
sequence,flow.Sequence,4_59,2023-09-16T00:49:13.088Z,,0,,,4484.20700002386,completion,,,,,false,,,,444396,444395.60000002384,439895.19,439903.5,439911.393,444410.818,8,400,,,
trial,html.Screen,4_60_0,2023-09-16T00:49:17.115Z,,0,2,,4012.7820000238135,response,ISIC_1484525.JPG,9,ISIC_0032750.JPG,ISIC_0032750.JPG,false,0,keypress(z),500,448423.89999997616,448423.60000002384,444394.293,444396.10000002384,444410.818,448427.101,8,400,11,,ISIC_1484525.JPG
break,html.Screen,4_60_1,2023-09-16T00:49:17.116Z,,0,,,NaN,,,,,,false,,,,448424.60000002384,448424.39999997616,,448424.10000002384,,448427.101,8,400,,,
break_continue,html.Screen,4_60_2,2023-09-16T00:49:17.116Z,,0,,,NaN,,,,,,false,,,,448424.89999997616,448424.8000000119,,448424.8000000119,,448427.101,8,400,,,
sequence,flow.Sequence,4_60,2023-09-16T00:49:17.117Z,,0,,,4013.9820000118925,completion,,,,,false,,,,448425,448424.8000000119,444394.293,444396,444410.818,448427.101,8,400,,,
trial,html.Screen,4_61_0,2023-09-16T00:49:22.748Z,,0,2,,5629.499000023818,response,ISIC_0007501.JPG,12,ISIC_0055046.JPG,ISIC_0055046.JPG,false,0,keypress(z),500,454056.89999997616,454056.60000002384,448410.41,448425.10000002384,448427.101,454059.67,8,400,12,,ISIC_0007501.JPG
break,html.Screen,4_61_1,2023-09-16T00:49:22.749Z,,0,,,NaN,,,,,,false,,,,454057.89999997616,454057.60000002384,,454057.1999999881,,454059.67,8,400,,,
break_continue,html.Screen,4_61_2,2023-09-16T00:49:22.750Z,,0,,,NaN,,,,,,false,,,,454058.1999999881,454058.10000002384,,454058,,454059.67,8,400,,,
sequence,flow.Sequence,4_61,2023-09-16T00:49:22.750Z,,0,,,5630.999000023818,completion,,,,,false,,,,454058.1999999881,454058.10000002384,448410.41,448425.10000002384,448427.101,454059.67,8,400,,,
trial,html.Screen,4_62_0,2023-09-16T00:49:26.210Z,,0,2,,3458.2299999761744,response,ISIC_0069996.JPG,5,ISIC_8806180.JPG,ISIC_0069996.JPG,false,1,keypress(m),500,457518.10000002384,457517.89999997616,454043.035,454058.39999997616,454059.67,457526.064,8,400,13,,ISIC_8806180.JPG
break,html.Screen,4_62_1,2023-09-16T00:49:26.211Z,,0,,,NaN,,,,,,false,,,,457519,457518.89999997616,,457518.5,,457526.064,8,400,,,
break_continue,html.Screen,4_62_2,2023-09-16T00:49:26.212Z,,0,,,NaN,,,,,,false,,,,457520.39999997616,457520.3000000119,,457520.10000002384,,457526.064,8,400,,,
sequence,flow.Sequence,4_62,2023-09-16T00:49:26.212Z,,0,,,3460.630000011937,completion,,,,,false,,,,457520.60000002384,457520.3000000119,454043.035,454058.39999997616,454059.67,457526.064,8,400,,,
trial,html.Screen,4_63_0,2023-09-16T00:49:31.805Z,,0,2,,5586.935999999987,response,ISIC_0060559.JPG,5,ISIC_0025379.JPG,ISIC_0060559.JPG,false,1,keypress(m),500,463113.3000000119,463113,457509.215,457520.60000002384,457526.064,463125.039,8,400,14,,ISIC_0025379.JPG
break,html.Screen,4_63_1,2023-09-16T00:49:31.806Z,,0,,,NaN,,,,,,false,,,,463114.10000002384,463113.8000000119,,463113.5,,463125.039,8,400,,,
break_continue,html.Screen,4_63_2,2023-09-16T00:49:31.806Z,,0,,,NaN,,,,,,false,,,,463114.39999997616,463114.39999997616,,463114.3000000119,,463125.039,8,400,,,
sequence,flow.Sequence,4_63,2023-09-16T00:49:31.806Z,,0,,,5588.335999976145,completion,,,,,false,,,,463114.60000002384,463114.39999997616,457509.215,457520.60000002384,457526.064,463125.039,8,400,,,
trial,html.Screen,4_64_0,2023-09-16T00:49:39.014Z,,0,2,,7197.261000011931,response,ISIC_0058823.JPG,10,ISIC_0029803.JPG,ISIC_0058823.JPG,false,1,keypress(m),500,470322.5,470322.3000000119,463108.491,463114.6999999881,463125.039,470347.438,8,400,15,,ISIC_0029803.JPG
break,html.Screen,4_64_1,2023-09-16T00:49:39.015Z,,0,,,NaN,,,,,,false,,,,470323.1999999881,470323.10000002384,,470322.8000000119,,470347.438,8,400,,,
break_continue,html.Screen,4_64_2,2023-09-16T00:49:39.015Z,,0,,,NaN,,,,,,false,,,,470323.60000002384,470323.5,,470323.5,,470347.438,8,400,,,
sequence,flow.Sequence,4_64,2023-09-16T00:49:39.015Z,,0,,,7198.46100000001,completion,,,,,false,,,,470323.6999999881,470323.5,463108.491,463114.60000002384,463125.039,470347.438,8,400,,,
trial,html.Screen,4_65_0,2023-09-16T00:49:43.372Z,,0,2,,4332.761999988055,response,ISIC_9786863.JPG,5,ISIC_0032197.JPG,ISIC_0032197.JPG,false,0,keypress(z),500,474680.39999997616,474680.1999999881,470307.586,470323.8000000119,470347.438,474690.2,8,400,16,,ISIC_9786863.JPG
break,html.Screen,4_65_1,2023-09-16T00:49:43.373Z,,0,,,NaN,,,,,,false,,,,474681.10000002384,474680.89999997616,,474680.60000002384,,474690.2,8,400,,,
break_continue,html.Screen,4_65_2,2023-09-16T00:49:43.373Z,,0,,,NaN,,,,,,false,,,,474681.39999997616,474681.3000000119,,474681.3000000119,,474690.2,8,400,,,
sequence,flow.Sequence,4_65,2023-09-16T00:49:43.373Z,,0,,,4333.862000011897,completion,,,,,false,,,,474681.5,474681.3000000119,470307.586,470323.8000000119,470347.438,474690.2,8,400,,,
trial,html.Screen,4_66_0,2023-09-16T00:49:47.055Z,,0,2,,3672.7999999999884,response,ISIC_0034144.JPG,5,ISIC_8035608.JPG,ISIC_0034144.JPG,false,1,keypress(m),500,478363.3000000119,478363,474673.877,474681.6999999881,474690.2,478373.476,8,400,17,,ISIC_8035608.JPG
break,html.Screen,4_66_1,2023-09-16T00:49:47.056Z,,0,,,NaN,,,,,,false,,,,478364.10000002384,478363.8000000119,,478363.5,,478373.476,8,400,,,
break_continue,html.Screen,4_66_2,2023-09-16T00:49:47.056Z,,0,,,NaN,,,,,,false,,,,478364.5,478364.39999997616,,478364.3000000119,,478373.476,8,400,,,
sequence,flow.Sequence,4_66,2023-09-16T00:49:47.056Z,,0,,,3674.1999999761465,completion,,,,,false,,,,478364.60000002384,478364.39999997616,474673.877,474681.60000002384,474690.2,478373.476,8,400,,,
trial,html.Screen,4_67_0,2023-09-16T00:49:53.510Z,,0,2,,6444.423999976134,response,ISIC_0033923.JPG,6,ISIC_0058594.JPG,ISIC_0033923.JPG,false,1,keypress(m),500,484818.1999999881,484817.89999997616,478356.645,478364.6999999881,478373.476,484822.224,8,400,18,,ISIC_0058594.JPG
break,html.Screen,4_67_1,2023-09-16T00:49:53.511Z,,0,,,NaN,,,,,,false,,,,484819,484818.8000000119,,484818.5,,484822.224,8,400,,,
break_continue,html.Screen,4_67_2,2023-09-16T00:49:53.511Z,,0,,,NaN,,,,,,false,,,,484819.3000000119,484819.1999999881,,484819.10000002384,,484822.224,8,400,,,
sequence,flow.Sequence,4_67,2023-09-16T00:49:53.511Z,,0,,,6445.723999988055,completion,,,,,false,,,,484819.39999997616,484819.1999999881,478356.645,478364.6999999881,478373.476,484822.224,8,400,,,
trial,html.Screen,4_68_0,2023-09-16T00:49:57.216Z,,0,2,,3701.5760000119335,response,ISIC_0004042.JPG,7,ISIC_0032419.JPG,ISIC_0032419.JPG,false,0,keypress(z),500,488524.10000002384,488523.8000000119,484805.836,484819.5,484822.224,488538.354,8,400,19,,ISIC_0004042.JPG
break,html.Screen,4_68_1,2023-09-16T00:49:57.217Z,,0,,,NaN,,,,,,false,,,,488524.89999997616,488524.8000000119,,488524.39999997616,,488538.354,8,400,,,
break_continue,html.Screen,4_68_2,2023-09-16T00:49:57.217Z,,0,,,NaN,,,,,,false,,,,488525.3000000119,488525.1999999881,,488525,,488538.354,8,400,,,
sequence,flow.Sequence,4_68,2023-09-16T00:49:57.217Z,,0,,,3702.9759999880916,completion,,,,,false,,,,488525.39999997616,488525.1999999881,484805.836,484819.5,484822.224,488538.354,8,400,,,
trial,html.Screen,4_69_0,2023-09-16T00:50:02.423Z,,0,2,,5192.845999988087,response,ISIC_1342117.JPG,7,ISIC_0218575.JPG,ISIC_0218575.JPG,false,0,keypress(z),500,493731.5,493731.1999999881,488522.013,488525.5,488538.354,493737.843,8,400,20,,ISIC_1342117.JPG
break,html.Screen,4_69_1,2023-09-16T00:50:02.424Z,,0,,,NaN,,,,,,false,,,,493732.3000000119,493732.10000002384,,493731.6999999881,,493737.843,8,400,,,
break_continue,html.Screen,4_69_2,2023-09-16T00:50:02.424Z,,0,,,NaN,,,,,,false,,,,493732.5,493732.39999997616,,493732.39999997616,,493737.843,8,400,,,
sequence,flow.Sequence,4_69,2023-09-16T00:50:02.424Z,,0,,,5194.045999976166,completion,,,,,false,,,,493732.6999999881,493732.39999997616,488522.013,488525.39999997616,488538.354,493737.843,8,400,,,
trial,html.Screen,4_70_0,2023-09-16T00:50:07.247Z,,0,2,,4817.556999976165,response,ISIC_0013243.JPG,6,ISIC_4019724.JPG,ISIC_0013243.JPG,false,1,keypress(m),500,498555.60000002384,498555.39999997616,493721.379,493732.6999999881,493737.843,498587.018,8,400,21,,ISIC_4019724.JPG
break,html.Screen,4_70_1,2023-09-16T00:50:07.248Z,,0,,,NaN,,,,,,false,,,,498556.1999999881,498556.10000002384,,498555.8000000119,,498587.018,8,400,,,
break_continue,html.Screen,4_70_2,2023-09-16T00:50:07.248Z,,0,,,NaN,,,,,,false,,,,498556.5,498556.5,,498556.3000000119,,498587.018,8,400,,,
sequence,flow.Sequence,4_70,2023-09-16T00:50:07.248Z,,0,,,4818.6570000000065,completion,,,,,false,,,,498556.60000002384,498556.5,493721.379,493732.6999999881,493737.843,498587.018,8,400,,,
trial,html.Screen,4_71_0,2023-09-16T00:50:12.361Z,,0,2,,5081.681999988097,response,ISIC_0011546.JPG,4,ISIC_2253931.JPG,ISIC_0011546.JPG,false,1,keypress(m),500,503669.10000002384,503668.6999999881,498570.675,498556.6999999881,498587.018,503686.578,8,400,22,,ISIC_2253931.JPG
break,html.Screen,4_71_1,2023-09-16T00:50:12.361Z,,0,,,NaN,,,,,,false,,,,503669.8000000119,503669.60000002384,,503669.3000000119,,503686.578,8,400,,,
break_continue,html.Screen,4_71_2,2023-09-16T00:50:12.362Z,,0,,,NaN,,,,,,false,,,,503670.1999999881,503670.10000002384,,503670,,503686.578,8,400,,,
sequence,flow.Sequence,4_71,2023-09-16T00:50:12.362Z,,0,,,5083.08200002386,completion,,,,,false,,,,503670.3000000119,503670.10000002384,498570.675,498556.60000002384,498587.018,503686.578,8,400,,,
trial,html.Screen,4_72_0,2023-09-16T00:50:17.468Z,,0,2,,5089.522000023862,response,ISIC_0000368.JPG,6,ISIC_1251639.JPG,ISIC_0000368.JPG,false,1,keypress(m),500,508776.39999997616,508776.10000002384,503669.786,503670.5,503686.578,508785.735,8,400,23,,ISIC_1251639.JPG
break,html.Screen,4_72_1,2023-09-16T00:50:17.469Z,,0,,,NaN,,,,,,false,,,,508777.1999999881,508777,,508776.6999999881,,508785.735,8,400,,,
break_continue,html.Screen,4_72_2,2023-09-16T00:50:17.469Z,,0,,,NaN,,,,,,false,,,,508777.5,508777.39999997616,,508777.3000000119,,508785.735,8,400,,,
sequence,flow.Sequence,4_72,2023-09-16T00:50:17.469Z,,0,,,5090.821999976179,completion,,,,,false,,,,508777.8000000119,508777.39999997616,503669.786,503670.39999997616,503686.578,508785.735,8,400,,,
trial,html.Screen,4_73_0,2023-09-16T00:50:20.643Z,,0,2,,3164.964999988093,response,ISIC_7415335.JPG,10,ISIC_0046504.JPG,ISIC_0046504.JPG,false,0,keypress(z),500,511951,511950.6999999881,508769.321,508778,508785.735,511975.133,8,400,24,,ISIC_7415335.JPG
break,html.Screen,4_73_1,2023-09-16T00:50:20.643Z,,0,,,NaN,,,,,,false,,,,511951.8000000119,511951.5,,511951.1999999881,,511975.133,8,400,,,
break_continue,html.Screen,4_73_2,2023-09-16T00:50:20.644Z,,0,,,NaN,,,,,,false,,,,511952.10000002384,511952,,511951.89999997616,,511975.133,8,400,,,
sequence,flow.Sequence,4_73,2023-09-16T00:50:20.644Z,,0,,,3166.265000000014,completion,,,,,false,,,,511952.1999999881,511952,508769.321,508777.89999997616,508785.735,511975.133,8,400,,,
trial,html.Screen,4_74_0,2023-09-16T00:50:24.253Z,,0,2,,3585.6670000119484,response,ISIC_7621389.JPG,6,ISIC_3447331.JPG,ISIC_3447331.JPG,false,0,keypress(z),500,515561,515560.8000000119,511948.27,511952.3000000119,511975.133,515568.686,8,400,25,,ISIC_7621389.JPG
break,html.Screen,4_74_1,2023-09-16T00:50:24.253Z,,0,,,NaN,,,,,,false,,,,515561.89999997616,515561.6999999881,,515561.3000000119,,515568.686,8,400,,,
break_continue,html.Screen,4_74_2,2023-09-16T00:50:24.254Z,,0,,,NaN,,,,,,false,,,,515562.1999999881,515562,,515561.89999997616,,515568.686,8,400,,,
sequence,flow.Sequence,4_74,2023-09-16T00:50:24.254Z,,0,,,3586.8670000000275,completion,,,,,false,,,,515562.1999999881,515562,511948.27,511952.3000000119,511975.133,515568.686,8,400,,,
trial,html.Screen,4_75_0,2023-09-16T00:50:28.026Z,,0,2,,3765.814000000013,response,ISIC_0013636.JPG,8,ISIC_6617840.JPG,ISIC_0013636.JPG,false,1,keypress(m),500,519334.8000000119,519334.5,515551.627,515562.39999997616,515568.686,519350.933,8,400,26,,ISIC_6617840.JPG
break,html.Screen,4_75_1,2023-09-16T00:50:28.027Z,,0,,,NaN,,,,,,false,,,,519335.60000002384,519335.39999997616,,519335.10000002384,,519350.933,8,400,,,
break_continue,html.Screen,4_75_2,2023-09-16T00:50:28.028Z,,0,,,NaN,,,,,,false,,,,519336,519335.89999997616,,519335.8000000119,,519350.933,8,400,,,
sequence,flow.Sequence,4_75,2023-09-16T00:50:28.028Z,,0,,,3767.213999976171,completion,,,,,false,,,,519336.10000002384,519335.89999997616,515551.627,515562.3000000119,515568.686,519350.933,8,400,,,
trial,html.Screen,4_76_0,2023-09-16T00:50:32.726Z,,0,2,,4682.76699998806,response,ISIC_0014392.JPG,7,ISIC_8393181.JPG,ISIC_0014392.JPG,false,1,keypress(m),500,524034,524033.6999999881,519334.465,519336.3000000119,519350.933,524050.506,8,400,27,,ISIC_8393181.JPG
break,html.Screen,4_76_1,2023-09-16T00:50:32.726Z,,0,,,NaN,,,,,,false,,,,524034.6999999881,524034.39999997616,,524034.1999999881,,524050.506,8,400,,,
break_continue,html.Screen,4_76_2,2023-09-16T00:50:32.727Z,,0,,,NaN,,,,,,false,,,,524035.10000002384,524035,,524034.89999997616,,524050.506,8,400,,,
sequence,flow.Sequence,4_76,2023-09-16T00:50:32.727Z,,0,,,4684.066999999981,completion,,,,,false,,,,524035.1999999881,524035,519334.465,519336.1999999881,519350.933,524050.506,8,400,,,
trial,html.Screen,4_77_0,2023-09-16T00:50:39.337Z,,0,2,,6594.693999988085,response,ISIC_0430837.JPG,8,ISIC_2741857.JPG,ISIC_0430837.JPG,false,1,keypress(m),500,530645.5,530645.1999999881,524033.916,524035.3000000119,524050.506,530649.678,8,400,28,,ISIC_2741857.JPG
break,html.Screen,4_77_1,2023-09-16T00:50:39.338Z,,0,,,NaN,,,,,,false,,,,530646.1999999881,530646,,530645.6999999881,,530649.678,8,400,,,
break_continue,html.Screen,4_77_2,2023-09-16T00:50:39.338Z,,0,,,NaN,,,,,,false,,,,530646.5,530646.3999999762,,530646.3000000119,,530649.678,8,400,,,
sequence,flow.Sequence,4_77,2023-09-16T00:50:39.338Z,,0,,,6595.893999976164,completion,,,,,false,,,,530646.6999999881,530646.3999999762,524033.916,524035.3000000119,524050.506,530649.678,8,400,,,
trial,html.Screen,4_78_0,2023-09-16T00:50:43.972Z,,0,2,,4630.822000000044,response,ISIC_5179503.JPG,11,ISIC_0056902.JPG,ISIC_0056902.JPG,false,0,keypress(z),500,535280.8000000119,535280.5,530633.052,530646.6999999881,530649.678,535305.588,8,400,29,,ISIC_5179503.JPG
break,html.Screen,4_78_1,2023-09-16T00:50:43.973Z,,0,,,NaN,,,,,,false,,,,535281.5,535281.3000000119,,535281,,535305.588,8,400,,,
break_continue,html.Screen,4_78_2,2023-09-16T00:50:43.973Z,,0,,,NaN,,,,,,false,,,,535281.6999999881,535281.6000000238,,535281.6000000238,,535305.588,8,400,,,
sequence,flow.Sequence,4_78,2023-09-16T00:50:43.973Z,,0,,,4631.922000023886,completion,,,,,false,,,,535281.8999999762,535281.6000000238,530633.052,530646.6999999881,530649.678,535305.588,8,400,,,
trial,html.Screen,4_79_0,2023-09-16T00:50:48.282Z,,0,2,,4284.412000000011,response,ISIC_0034090.JPG,11,ISIC_0026548.JPG,ISIC_0034090.JPG,false,1,keypress(m),500,539590.3000000119,539590,535265.893,535282,535305.588,539598.336,8,400,30,,ISIC_0026548.JPG
break,html.Screen,4_79_1,2023-09-16T00:50:48.283Z,,0,,,NaN,,,,,,false,,,,539591,539590.8999999762,,539590.6000000238,,539598.336,8,400,,,
break_continue,html.Screen,4_79_2,2023-09-16T00:50:48.283Z,,0,,,NaN,,,,,,false,,,,539591.3999999762,539591.3000000119,,539591.1999999881,,539598.336,8,400,,,
sequence,flow.Sequence,4_79,2023-09-16T00:50:48.283Z,,0,,,4285.712000011932,completion,,,,,false,,,,539591.5,539591.3000000119,535265.893,535282,535305.588,539598.336,8,400,,,
trial,html.Screen,4_80_0,2023-09-16T00:50:52.882Z,,0,2,,4591.363999988069,response,ISIC_9611100.JPG,9,ISIC_7306131.JPG,ISIC_9611100.JPG,false,1,keypress(m),500,544190,544189.6999999881,539582.401,539591.6000000238,539598.336,544197.969,8,400,31,,ISIC_7306131.JPG
break,html.Screen,4_80_1,2023-09-16T00:50:52.882Z,,0,,,NaN,,,,,,false,,,,544190.8000000119,544190.6000000238,,544190.1999999881,,544197.969,8,400,,,
break_continue,html.Screen,4_80_2,2023-09-16T00:50:52.883Z,,0,,,NaN,,,,,,false,,,,544191,544190.8999999762,,544190.8999999762,,544197.969,8,400,,,
sequence,flow.Sequence,4_80,2023-09-16T00:50:52.883Z,,0,,,4592.563999976148,completion,,,,,false,,,,544191.1999999881,544190.8999999762,539582.401,539591.5,539598.336,544197.969,8,400,,,
trial,html.Screen,4_81_0,2023-09-16T00:50:56.424Z,,0,2,,3534.33100001188,response,ISIC_9187876.JPG,7,ISIC_0071196.JPG,ISIC_0071196.JPG,false,0,keypress(z),500,547732.6999999881,547732.3000000119,544181.248,544191.3000000119,544197.969,547747.164,8,400,32,,ISIC_9187876.JPG
break,html.Screen,4_81_1,2023-09-16T00:50:56.425Z,,0,,,NaN,,,,,,false,,,,547733.1999999881,547733.1000000238,,547732.8000000119,,547747.164,8,400,,,
break_continue,html.Screen,4_81_2,2023-09-16T00:50:56.425Z,,0,,,NaN,,,,,,false,,,,547733.5,547733.3999999762,,547733.3000000119,,547747.164,8,400,,,
sequence,flow.Sequence,4_81,2023-09-16T00:50:56.425Z,,0,,,3535.430999976117,completion,,,,,false,,,,547733.6000000238,547733.3999999762,544181.248,544191.3000000119,544197.969,547747.164,8,400,,,
trial,html.Screen,4_82_0,2023-09-16T00:51:01.650Z,,0,2,,5211.33600000001,response,ISIC_0370008.JPG,5,ISIC_0028412.JPG,ISIC_0028412.JPG,false,0,keypress(z),500,552958.8000000119,552958.5,547730.711,547733.6000000238,547747.164,552963.387,8,400,33,,ISIC_0370008.JPG
break,html.Screen,4_82_1,2023-09-16T00:51:01.651Z,,0,,,NaN,,,,,,false,,,,552959.6000000238,552959.3999999762,,552959,,552963.387,8,400,,,
break_continue,html.Screen,4_82_2,2023-09-16T00:51:01.651Z,,0,,,NaN,,,,,,false,,,,552960,552959.8999999762,,552959.8000000119,,552963.387,8,400,,,
sequence,flow.Sequence,4_82,2023-09-16T00:51:01.652Z,,0,,,5212.735999976168,completion,,,,,false,,,,552960.1000000238,552959.8999999762,547730.711,547733.6000000238,547747.164,552963.387,8,400,,,
trial,html.Screen,4_83_0,2023-09-16T00:51:05.198Z,,0,2,,3543.312999988091,response,ISIC_2178689.JPG,5,ISIC_4019724.JPG,ISIC_2178689.JPG,false,1,keypress(m),500,556507,556506.6999999881,552946.954,552960.1000000238,552963.387,556512.748,8,400,34,,ISIC_4019724.JPG
break,html.Screen,4_83_1,2023-09-16T00:51:05.199Z,,0,,,NaN,,,,,,false,,,,556507.6000000238,556507.5,,556507.1000000238,,556512.748,8,400,,,
break_continue,html.Screen,4_83_2,2023-09-16T00:51:05.199Z,,0,,,NaN,,,,,,false,,,,556507.8999999762,556507.8000000119,,556507.6999999881,,556512.748,8,400,,,
sequence,flow.Sequence,4_83,2023-09-16T00:51:05.200Z,,0,,,3544.413000011933,completion,,,,,false,,,,556508,556507.8000000119,552946.954,552960.1000000238,552963.387,556512.748,8,400,,,
trial,html.Screen,4_84_0,2023-09-16T00:51:08.633Z,,0,2,,3428.4519999880577,response,ISIC_5247508.JPG,5,ISIC_6208107.JPG,ISIC_5247508.JPG,false,1,keypress(m),500,559941.5,559941.1999999881,556496.215,556508.1999999881,556512.748,559945.897,8,400,35,,ISIC_6208107.JPG
break,html.Screen,4_84_1,2023-09-16T00:51:08.634Z,,0,,,NaN,,,,,,false,,,,559942.3000000119,559942,,559941.6999999881,,559945.897,8,400,,,
break_continue,html.Screen,4_84_2,2023-09-16T00:51:08.634Z,,0,,,NaN,,,,,,false,,,,559942.5,559942.3999999762,,559942.3000000119,,559945.897,8,400,,,
sequence,flow.Sequence,4_84,2023-09-16T00:51:08.634Z,,0,,,3429.6519999761367,completion,,,,,false,,,,559942.6000000238,559942.3999999762,556496.215,556508,556512.748,559945.897,8,400,,,
trial,html.Screen,4_85_0,2023-09-16T00:51:12.686Z,,0,2,,4048.502999976161,response,ISIC_8624186.JPG,7,ISIC_0034243.JPG,ISIC_8624186.JPG,false,1,keypress(m),500,563994.6999999881,563994.3999999762,559929.091,559942.6999999881,559945.897,564012.13,8,400,36,,ISIC_0034243.JPG
break,html.Screen,4_85_1,2023-09-16T00:51:12.687Z,,0,,,NaN,,,,,,false,,,,563995.3999999762,563995.1999999881,,563994.8999999762,,564012.13,8,400,,,
break_continue,html.Screen,4_85_2,2023-09-16T00:51:12.687Z,,0,,,NaN,,,,,,false,,,,563995.8000000119,563995.6000000238,,563995.6000000238,,564012.13,8,400,,,
sequence,flow.Sequence,4_85,2023-09-16T00:51:12.687Z,,0,,,4049.7030000238447,completion,,,,,false,,,,563995.8000000119,563995.6000000238,559929.091,559942.6000000238,559945.897,564012.13,8,400,,,
trial,html.Screen,4_86_0,2023-09-16T00:51:15.976Z,,0,2,,3272.1700000119163,response,ISIC_3106058.JPG,10,ISIC_4023381.JPG,ISIC_3106058.JPG,false,1,keypress(m),500,567284.5,567284.3000000119,563995.268,563995.8999999762,564012.13,567294.636,8,400,37,,ISIC_4023381.JPG
break,html.Screen,4_86_1,2023-09-16T00:51:15.977Z,,0,,,NaN,,,,,,false,,,,567285.1000000238,567285,,567284.6999999881,,567294.636,8,400,,,
break_continue,html.Screen,4_86_2,2023-09-16T00:51:15.977Z,,0,,,NaN,,,,,,false,,,,567285.3999999762,567285.3000000119,,567285.3000000119,,567294.636,8,400,,,
sequence,flow.Sequence,4_86,2023-09-16T00:51:15.977Z,,0,,,3273.1700000119163,completion,,,,,false,,,,567285.6000000238,567285.3000000119,563995.268,563995.8999999762,564012.13,567294.636,8,400,,,
trial,html.Screen,4_87_0,2023-09-16T00:51:19.430Z,,0,2,,3443.2639999761013,response,ISIC_5714411.JPG,6,ISIC_0056330.JPG,ISIC_5714411.JPG,false,1,keypress(m),500,570738.3000000119,570737.8999999762,567278.064,567285.6999999881,567294.636,570744.202,8,400,38,,ISIC_0056330.JPG
break,html.Screen,4_87_1,2023-09-16T00:51:19.431Z,,0,,,NaN,,,,,,false,,,,570739.1999999881,570738.8999999762,,570738.5,,570744.202,8,400,,,
break_continue,html.Screen,4_87_2,2023-09-16T00:51:19.431Z,,0,,,NaN,,,,,,false,,,,570739.6999999881,570739.5,,570739.3000000119,,570744.202,8,400,,,
sequence,flow.Sequence,4_87,2023-09-16T00:51:19.431Z,,0,,,3444.863999999943,completion,,,,,false,,,,570739.8000000119,570739.5,567278.064,567285.6999999881,567294.636,570744.202,8,400,,,
trial,html.Screen,4_88_0,2023-09-16T00:51:22.643Z,,0,2,,3206.9979999880306,response,ISIC_0071783.JPG,6,ISIC_3799267.JPG,ISIC_3799267.JPG,false,0,keypress(z),500,573951.5,573951.1999999881,570727.628,570739.8999999762,570744.202,573977.188,8,400,39,,ISIC_0071783.JPG
break,html.Screen,4_88_1,2023-09-16T00:51:22.644Z,,0,,,NaN,,,,,,false,,,,573952.1000000238,573952,,573951.6999999881,,573977.188,8,400,,,
break_continue,html.Screen,4_88_2,2023-09-16T00:51:22.644Z,,0,,,NaN,,,,,,false,,,,573952.5,573952.3999999762,,573952.3000000119,,573977.188,8,400,,,
sequence,flow.Sequence,4_88,2023-09-16T00:51:22.644Z,,0,,,3208.1979999761097,completion,,,,,false,,,,573952.6000000238,573952.3999999762,570727.628,570739.8999999762,570744.202,573977.188,8,400,,,
trial,html.Screen,4_89_0,2023-09-16T00:51:26.359Z,,0,2,,3689.9120000238763,response,ISIC_0031883.JPG,7,ISIC_0025956.JPG,ISIC_0031883.JPG,false,1,keypress(m),500,577667.3999999762,577667.1000000238,573960.643,573952.6999999881,573977.188,577676.818,8,400,40,,ISIC_0025956.JPG
break,html.Screen,4_89_1,2023-09-16T00:51:26.360Z,,0,,,NaN,,,,,,false,,,,577668.1999999881,577668,,577667.5,,577676.818,8,400,,,
break_continue,html.Screen,4_89_2,2023-09-16T00:51:26.360Z,,0,,,NaN,,,,,,false,,,,577668.5,577668.3999999762,,577668.3000000119,,577676.818,8,400,,,
sequence,flow.Sequence,4_89,2023-09-16T00:51:26.360Z,,0,,,3691.2119999761926,completion,,,,,false,,,,577668.6999999881,577668.3999999762,573960.643,573952.6000000238,573977.188,577676.818,8,400,,,
trial,html.Screen,4_90_0,2023-09-16T00:51:29.294Z,,0,2,,2925.18200000003,response,ISIC_0009298.JPG,6,ISIC_3098750.JPG,ISIC_0009298.JPG,false,1,keypress(m),500,580602.3000000119,580602,577660.31,577668.8000000119,577676.818,580609.562,8,400,41,,ISIC_3098750.JPG
break,html.Screen,4_90_1,2023-09-16T00:51:29.295Z,,0,,,NaN,,,,,,false,,,,580603,580602.8999999762,,580602.5,,580609.562,8,400,,,
break_continue,html.Screen,4_90_2,2023-09-16T00:51:29.295Z,,0,,,NaN,,,,,,false,,,,580603.1999999881,580603.1000000238,,580603.1000000238,,580609.562,8,400,,,
sequence,flow.Sequence,4_90,2023-09-16T00:51:29.295Z,,0,,,2926.2820000238717,completion,,,,,false,,,,580603.3999999762,580603.1000000238,577660.31,577668.8000000119,577676.818,580609.562,8,400,,,
trial,html.Screen,4_91_0,2023-09-16T00:51:32.118Z,,0,2,,2816.0380000238074,response,ISIC_7775535.JPG,11,ISIC_0069248.JPG,ISIC_0069248.JPG,false,0,keypress(z),500,583426,583425.6000000238,580593.102,580603.5,580609.562,583442.809,8,400,42,,ISIC_7775535.JPG
break,html.Screen,4_91_1,2023-09-16T00:51:32.118Z,,0,,,NaN,,,,,,false,,,,583426.6999999881,583426.6000000238,,583426.1999999881,,583442.809,8,400,,,
break_continue,html.Screen,4_91_2,2023-09-16T00:51:32.119Z,,0,,,NaN,,,,,,false,,,,583427,583426.8999999762,,583426.8999999762,,583442.809,8,400,,,
sequence,flow.Sequence,4_91,2023-09-16T00:51:32.119Z,,0,,,2817.3379999761237,completion,,,,,false,,,,583427.1000000238,583426.8999999762,580593.102,580603.3999999762,580609.562,583442.809,8,400,,,
trial,html.Screen,4_92_0,2023-09-16T00:51:36.235Z,,0,2,,4100.09099997615,response,ISIC_0011668.JPG,11,ISIC_0031863.JPG,ISIC_0031863.JPG,false,0,keypress(z),500,587543.1000000238,587542.8999999762,583425.928,583427.3000000119,583442.809,587575.336,8,400,43,,ISIC_0011668.JPG
break,html.Screen,4_92_1,2023-09-16T00:51:36.235Z,,0,,,NaN,,,,,,false,,,,587543.6999999881,587543.5,,587543.1999999881,,587575.336,8,400,,,
break_continue,html.Screen,4_92_2,2023-09-16T00:51:36.235Z,,0,,,NaN,,,,,,false,,,,587543.8999999762,587543.8999999762,,587543.6999999881,,587575.336,8,400,,,
sequence,flow.Sequence,4_92,2023-09-16T00:51:36.236Z,,0,,,4101.09099997615,completion,,,,,false,,,,587544,587543.8999999762,583425.928,583427.1999999881,583442.809,587575.336,8,400,,,
trial,html.Screen,4_93_0,2023-09-16T00:51:39.954Z,,0,2,,3686.9640000119107,response,ISIC_9462979.JPG,8,ISIC_6694724.JPG,ISIC_9462979.JPG,false,1,keypress(m),500,591262.6999999881,591262.3000000119,587558.879,587544,587575.336,591275.052,8,400,44,,ISIC_6694724.JPG
break,html.Screen,4_93_1,2023-09-16T00:51:39.955Z,,0,,,NaN,,,,,,false,,,,591263.5,591263.3000000119,,591262.8999999762,,591275.052,8,400,,,
break_continue,html.Screen,4_93_2,2023-09-16T00:51:39.955Z,,0,,,NaN,,,,,,false,,,,591263.8999999762,591263.6999999881,,591263.6000000238,,591275.052,8,400,,,
sequence,flow.Sequence,4_93,2023-09-16T00:51:39.956Z,,0,,,3688.363999988069,completion,,,,,false,,,,591264,591263.6999999881,587558.879,587544,587575.336,591275.052,8,400,,,
trial,html.Screen,4_94_0,2023-09-16T00:51:43.126Z,,0,2,,3158.647999988054,response,ISIC_0064406.JPG,6,ISIC_0064943.JPG,ISIC_0064943.JPG,false,0,keypress(z),500,594434,594433.6999999881,591258.495,591264.1000000238,591275.052,594441.056,8,400,45,,ISIC_0064406.JPG
break,html.Screen,4_94_1,2023-09-16T00:51:43.126Z,,0,,,NaN,,,,,,false,,,,594434.6000000238,594434.5,,594434.1000000238,,594441.056,8,400,,,
break_continue,html.Screen,4_94_2,2023-09-16T00:51:43.126Z,,0,,,NaN,,,,,,false,,,,594434.8999999762,594434.8999999762,,594434.6999999881,,594441.056,8,400,,,
sequence,flow.Sequence,4_94,2023-09-16T00:51:43.127Z,,0,,,3159.847999976133,completion,,,,,false,,,,594435,594434.8999999762,591258.495,591264,591275.052,594441.056,8,400,,,
trial,html.Screen,4_95_0,2023-09-16T00:51:47.860Z,,0,2,,4727.143999988097,response,ISIC_0064625.JPG,9,ISIC_8588033.JPG,ISIC_0064625.JPG,false,1,keypress(m),500,599168.3999999762,599168.1999999881,594424.535,594435.1000000238,594441.056,599173.795,8,400,46,,ISIC_8588033.JPG
break,html.Screen,4_95_1,2023-09-16T00:51:47.861Z,,0,,,NaN,,,,,,false,,,,599169.1999999881,599169,,599168.6000000238,,599173.795,8,400,,,
break_continue,html.Screen,4_95_2,2023-09-16T00:51:47.861Z,,0,,,NaN,,,,,,false,,,,599169.3999999762,599169.3999999762,,599169.3000000119,,599173.795,8,400,,,
sequence,flow.Sequence,4_95,2023-09-16T00:51:47.861Z,,0,,,4728.343999976176,completion,,,,,false,,,,599169.6000000238,599169.3999999762,594424.535,594435.1000000238,594441.056,599173.795,8,400,,,
trial,html.Screen,4_96_0,2023-09-16T00:51:51.547Z,,0,2,,3681.505000011879,response,ISIC_3947143.JPG,9,ISIC_9943579.JPG,ISIC_3947143.JPG,false,1,keypress(m),500,602855.6000000238,602855.3000000119,599157.438,599169.6000000238,599173.795,602880.796,8,400,47,,ISIC_9943579.JPG
break,html.Screen,4_96_1,2023-09-16T00:51:51.548Z,,0,,,NaN,,,,,,false,,,,602856.3999999762,602856.1999999881,,602855.8000000119,,602880.796,8,400,,,
break_continue,html.Screen,4_96_2,2023-09-16T00:51:51.548Z,,0,,,NaN,,,,,,false,,,,602856.8000000119,602856.6999999881,,602856.5,,602880.796,8,400,,,
sequence,flow.Sequence,4_96,2023-09-16T00:51:51.548Z,,0,,,3682.904999988037,completion,,,,,false,,,,602856.8999999762,602856.6999999881,599157.438,599169.6000000238,599173.795,602880.796,8,400,,,
trial,html.Screen,4_97_0,2023-09-16T00:51:54.641Z,,0,2,,3068.204000000027,response,ISIC_6609379.JPG,5,ISIC_0064633.JPG,ISIC_0064633.JPG,false,0,keypress(z),500,605949.3999999762,605949,602840.099,602856.8999999762,602880.796,605956.665,8,400,48,,ISIC_6609379.JPG
break,html.Screen,4_97_1,2023-09-16T00:51:54.642Z,,0,,,NaN,,,,,,false,,,,605950.1999999881,605949.8999999762,,605949.6000000238,,605956.665,8,400,,,
break_continue,html.Screen,4_97_2,2023-09-16T00:51:54.642Z,,0,,,NaN,,,,,,false,,,,605950.6000000238,605950.3999999762,,605950.3000000119,,605956.665,8,400,,,
sequence,flow.Sequence,4_97,2023-09-16T00:51:54.642Z,,0,,,3069.603999976185,completion,,,,,false,,,,605950.6999999881,605950.3999999762,602840.099,602856.8999999762,602880.796,605956.665,8,400,,,
trial,html.Screen,4_98_0,2023-09-16T00:51:57.257Z,,0,2,,2608.1350000118837,response,ISIC_0056389.JPG,8,ISIC_8719134.JPG,ISIC_0056389.JPG,false,1,keypress(m),500,608565.1000000238,608564.8000000119,605940.045,605950.8000000119,605956.665,608572.764,8,400,49,,ISIC_8719134.JPG
break,html.Screen,4_98_1,2023-09-16T00:51:57.257Z,,0,,,NaN,,,,,,false,,,,608565.8000000119,608565.6000000238,,608565.3000000119,,608572.764,8,400,,,
break_continue,html.Screen,4_98_2,2023-09-16T00:51:57.258Z,,0,,,NaN,,,,,,false,,,,608566.1000000238,608566.1000000238,,608566,,608572.764,8,400,,,
sequence,flow.Sequence,4_98,2023-09-16T00:51:57.258Z,,0,,,2609.4350000238046,completion,,,,,false,,,,608566.3000000119,608566.1000000238,605940.045,605950.6999999881,605956.665,608572.764,8,400,,,
trial,html.Screen,4_99_0,2023-09-16T00:52:00.636Z,,0,2,,3371.8360000238754,response,ISIC_0029913.JPG,10,ISIC_0058186.JPG,ISIC_0029913.JPG,false,1,keypress(m),500,611944.8999999762,611944.6000000238,608556.057,608566.3999999762,608572.764,611955.434,8,400,50,,ISIC_0058186.JPG
break,html.Screen,4_99_1,2023-09-16T00:52:10.630Z,,0,,,9998.668999999994,timeout,,,,,false,,,,621938.6000000238,621937.856,611939.146,611945.1000000238,611955.434,621954.103,8,400,,,
break_continue,html.Screen,4_99_2,2023-09-16T00:52:14.251Z,,0,,,3585.997000023839,response,,,,,false,continue,keypress(Space),,625559.3999999762,625540.1000000238,621937.856,621938.6999999881,621954.103,625570.273,8,400,,,
sequence,flow.Sequence,4_99,2023-09-16T00:52:14.251Z,,0,,,16967.336000023875,completion,,,,,false,,,,625559.6000000238,625540.1000000238,608556.057,608566.3999999762,608572.764,625570.273,8,400,,,
trial,html.Screen,4_100_0,2023-09-16T00:52:18.670Z,,0,3,,4407.827000023797,response,ISIC_0033168.JPG,8,ISIC_0065449.JPG,ISIC_0065449.JPG,false,0,keypress(z),500,629978.3999999762,629978.1000000238,625553.689,625559.6999999881,625570.273,629986.466,8,400,1,,ISIC_0033168.JPG
break,html.Screen,4_100_1,2023-09-16T00:52:18.671Z,,0,,,NaN,,,,,,false,,,,629979.1000000238,629978.8999999762,,629978.6000000238,,629986.466,8,400,,,
break_continue,html.Screen,4_100_2,2023-09-16T00:52:18.671Z,,0,,,NaN,,,,,,false,,,,629979.3000000119,629979.1999999881,,629979.1999999881,,629986.466,8,400,,,
sequence,flow.Sequence,4_100,2023-09-16T00:52:18.671Z,,0,,,4408.926999988034,completion,,,,,false,,,,629979.5,629979.1999999881,625553.689,625559.6000000238,625570.273,629986.466,8,400,,,
trial,html.Screen,4_101_0,2023-09-16T00:52:22.342Z,,0,3,,3663.834000011906,response,ISIC_4966865.JPG,5,ISIC_7301963.JPG,ISIC_4966865.JPG,false,1,keypress(m),500,633650.5,633650.3000000119,629969.704,629979.5,629986.466,633652.621,8,400,2,,ISIC_7301963.JPG
break,html.Screen,4_101_1,2023-09-16T00:52:22.343Z,,0,,,NaN,,,,,,false,,,,633651.3000000119,633651.1000000238,,633650.8000000119,,633652.621,8,400,,,
break_continue,html.Screen,4_101_2,2023-09-16T00:52:22.343Z,,0,,,NaN,,,,,,false,,,,633651.6000000238,633651.5,,633651.3999999762,,633652.621,8,400,,,
sequence,flow.Sequence,4_101,2023-09-16T00:52:22.343Z,,0,,,3665.033999999985,completion,,,,,false,,,,633651.6999999881,633651.5,629969.704,629979.5,629986.466,633652.621,8,400,,,
trial,html.Screen,4_102_0,2023-09-16T00:52:26.411Z,,0,3,,4066.979000023799,response,ISIC_0024686.JPG,7,ISIC_9544832.JPG,ISIC_0024686.JPG,false,1,keypress(m),500,637719.8000000119,637719.6000000238,633636.223,633651.8000000119,633652.621,637735.663,8,400,3,,ISIC_9544832.JPG
break,html.Screen,4_102_1,2023-09-16T00:52:26.412Z,,0,,,NaN,,,,,,false,,,,637720.6000000238,637720.3999999762,,637720,,637735.663,8,400,,,
break_continue,html.Screen,4_102_2,2023-09-16T00:52:26.412Z,,0,,,NaN,,,,,,false,,,,637720.8999999762,637720.6999999881,,637720.6000000238,,637735.663,8,400,,,
sequence,flow.Sequence,4_102,2023-09-16T00:52:26.412Z,,0,,,4068.0789999880362,completion,,,,,false,,,,637720.8999999762,637720.6999999881,633636.223,633651.8000000119,633652.621,637735.663,8,400,,,
trial,html.Screen,4_103_0,2023-09-16T00:52:31.190Z,,0,3,,4762.637000011979,response,ISIC_0031118.JPG,9,ISIC_0063473.JPG,ISIC_0031118.JPG,false,1,keypress(m),500,642498.6000000238,642498.3000000119,637719.043,637721,637735.663,642501.516,8,400,4,,ISIC_0063473.JPG
break,html.Screen,4_103_1,2023-09-16T00:52:31.191Z,,0,,,NaN,,,,,,false,,,,642499.1999999881,642499,,642498.8000000119,,642501.516,8,400,,,
break_continue,html.Screen,4_103_2,2023-09-16T00:52:31.191Z,,0,,,NaN,,,,,,false,,,,642499.5,642499.5,,642499.3000000119,,642501.516,8,400,,,
sequence,flow.Sequence,4_103,2023-09-16T00:52:31.191Z,,0,,,4763.837000000058,completion,,,,,false,,,,642499.6000000238,642499.5,637719.043,637721,637735.663,642501.516,8,400,,,
trial,html.Screen,4_104_0,2023-09-16T00:52:35.122Z,,0,3,,3929.084000023897,response,ISIC_8821700.JPG,8,ISIC_0024781.JPG,ISIC_0024781.JPG,false,0,keypress(z),500,646430.8999999762,646430.6000000238,642485.165,642499.6999999881,642501.516,646434.369,8,400,5,,ISIC_8821700.JPG
break,html.Screen,4_104_1,2023-09-16T00:52:35.123Z,,0,,,NaN,,,,,,false,,,,646431.6000000238,646431.5,,646431.1000000238,,646434.369,8,400,,,
break_continue,html.Screen,4_104_2,2023-09-16T00:52:35.123Z,,0,,,NaN,,,,,,false,,,,646431.8999999762,646431.8000000119,,646431.6999999881,,646434.369,8,400,,,
sequence,flow.Sequence,4_104,2023-09-16T00:52:35.124Z,,0,,,3930.284000011976,completion,,,,,false,,,,646432.1000000238,646431.8000000119,642485.165,642499.6999999881,642501.516,646434.369,8,400,,,
trial,html.Screen,4_105_0,2023-09-16T00:52:38.734Z,,0,3,,3607.431000011973,response,ISIC_0025128.JPG,4,ISIC_8635889.JPG,ISIC_8635889.JPG,false,0,keypress(z),500,650042.1000000238,650041.8000000119,646417.879,646432.1000000238,646434.369,650050.406,8,400,6,,ISIC_0025128.JPG
break,html.Screen,4_105_1,2023-09-16T00:52:38.734Z,,0,,,NaN,,,,,,false,,,,650042.8999999762,650042.6999999881,,650042.1999999881,,650050.406,8,400,,,
break_continue,html.Screen,4_105_2,2023-09-16T00:52:38.735Z,,0,,,NaN,,,,,,false,,,,650043.1999999881,650043.1000000238,,650043.1000000238,,650050.406,8,400,,,
sequence,flow.Sequence,4_105,2023-09-16T00:52:38.735Z,,0,,,3608.731000023894,completion,,,,,false,,,,650043.3000000119,650043.1000000238,646417.879,646432.1000000238,646434.369,650050.406,8,400,,,
trial,html.Screen,4_106_0,2023-09-16T00:52:42.638Z,,0,3,,3895.894000011962,response,ISIC_0182020.JPG,10,ISIC_0966527.JPG,ISIC_0966527.JPG,false,0,keypress(z),500,653946.6000000238,653946.3000000119,650033.741,650043.3999999762,650050.406,653949.979,8,400,7,,ISIC_0182020.JPG
break,html.Screen,4_106_1,2023-09-16T00:52:42.639Z,,0,,,NaN,,,,,,false,,,,653947.5,653947.1999999881,,653946.8999999762,,653949.979,8,400,,,
break_continue,html.Screen,4_106_2,2023-09-16T00:52:42.639Z,,0,,,NaN,,,,,,false,,,,653947.8999999762,653947.6999999881,,653947.6000000238,,653949.979,8,400,,,
sequence,flow.Sequence,4_106,2023-09-16T00:52:42.639Z,,0,,,3897.29399998812,completion,,,,,false,,,,653948,653947.6999999881,650033.741,650043.3999999762,650050.406,653949.979,8,400,,,
trial,html.Screen,4_107_0,2023-09-16T00:52:47.110Z,,0,3,,4468.121000023792,response,ISIC_0009006.JPG,12,ISIC_4163843.JPG,ISIC_0009006.JPG,false,1,keypress(m),500,658418.3999999762,658418.1000000238,653933.36,653948,653949.979,658432.936,8,400,8,,ISIC_4163843.JPG
break,html.Screen,4_107_1,2023-09-16T00:52:47.111Z,,0,,,NaN,,,,,,false,,,,658419.1000000238,658418.8999999762,,658418.6000000238,,658432.936,8,400,,,
break_continue,html.Screen,4_107_2,2023-09-16T00:52:47.111Z,,0,,,NaN,,,,,,false,,,,658419.3000000119,658419.3000000119,,658419.1999999881,,658432.936,8,400,,,
sequence,flow.Sequence,4_107,2023-09-16T00:52:47.111Z,,0,,,4469.321000011871,completion,,,,,false,,,,658419.5,658419.3000000119,653933.36,653948,653949.979,658432.936,8,400,,,
trial,html.Screen,4_108_0,2023-09-16T00:52:50.556Z,,0,3,,3431.564000000013,response,ISIC_0031350.JPG,9,ISIC_3565564.JPG,ISIC_3565564.JPG,false,0,keypress(z),500,661864.8000000119,661864.5,658416.25,658419.6000000238,658432.936,661882.479,8,400,9,,ISIC_0031350.JPG
break,html.Screen,4_108_1,2023-09-16T00:52:50.557Z,,0,,,NaN,,,,,,false,,,,661865.5,661865.3000000119,,661865,,661882.479,8,400,,,
break_continue,html.Screen,4_108_2,2023-09-16T00:52:50.557Z,,0,,,NaN,,,,,,false,,,,661865.8000000119,661865.6999999881,,661865.6000000238,,661882.479,8,400,,,
sequence,flow.Sequence,4_108,2023-09-16T00:52:50.557Z,,0,,,3432.763999988092,completion,,,,,false,,,,661866,661865.6999999881,658416.25,658419.6000000238,658432.936,661882.479,8,400,,,
trial,html.Screen,4_109_0,2023-09-16T00:52:53.782Z,,0,3,,3207.5209999999497,response,ISIC_0028930.JPG,11,ISIC_0060696.JPG,ISIC_0060696.JPG,false,0,keypress(z),500,665090.3999999762,665090,661849.164,661866,661882.479,665098.423,8,400,10,,ISIC_0028930.JPG
break,html.Screen,4_109_1,2023-09-16T00:52:53.783Z,,0,,,NaN,,,,,,false,,,,665091.1000000238,665091,,665090.6000000238,,665098.423,8,400,,,
break_continue,html.Screen,4_109_2,2023-09-16T00:52:53.783Z,,0,,,NaN,,,,,,false,,,,665091.3999999762,665091.3000000119,,665091.1999999881,,665098.423,8,400,,,
sequence,flow.Sequence,4_109,2023-09-16T00:52:53.783Z,,0,,,3208.8210000118706,completion,,,,,false,,,,665091.5,665091.3000000119,661849.164,661866,661882.479,665098.423,8,400,,,
trial,html.Screen,4_110_0,2023-09-16T00:52:57.055Z,,0,3,,3264.8770000119694,response,ISIC_0030725.JPG,7,ISIC_6938608.JPG,ISIC_6938608.JPG,false,0,keypress(z),500,668363.5,668363.3000000119,665082.058,665091.6000000238,665098.423,668381.774,8,400,11,,ISIC_0030725.JPG
break,html.Screen,4_110_1,2023-09-16T00:52:57.056Z,,0,,,NaN,,,,,,false,,,,668364.3000000119,668364.1000000238,,668363.8000000119,,668381.774,8,400,,,
break_continue,html.Screen,4_110_2,2023-09-16T00:52:57.056Z,,0,,,NaN,,,,,,false,,,,668364.5,668364.3999999762,,668364.3999999762,,668381.774,8,400,,,
sequence,flow.Sequence,4_110,2023-09-16T00:52:57.056Z,,0,,,3265.9769999762066,completion,,,,,false,,,,668364.6000000238,668364.3999999762,665082.058,665091.6000000238,665098.423,668381.774,8,400,,,
trial,html.Screen,4_111_0,2023-09-16T00:52:59.844Z,,0,3,,2770.026000011945,response,ISIC_0024865.JPG,10,ISIC_0054527.JPG,ISIC_0054527.JPG,false,0,keypress(z),500,671152.1000000238,671151.8000000119,668364.753,668364.6999999881,668381.774,671164.543,8,400,12,,ISIC_0024865.JPG
break,html.Screen,4_111_1,2023-09-16T00:52:59.844Z,,0,,,NaN,,,,,,false,,,,671152.8000000119,671152.6999999881,,671152.3000000119,,671164.543,8,400,,,
break_continue,html.Screen,4_111_2,2023-09-16T00:52:59.845Z,,0,,,NaN,,,,,,false,,,,671153.1999999881,671153.1000000238,,671152.8999999762,,671164.543,8,400,,,
sequence,flow.Sequence,4_111,2023-09-16T00:52:59.845Z,,0,,,2771.326000023866,completion,,,,,false,,,,671153.3000000119,671153.1000000238,668364.753,668364.6999999881,668381.774,671164.543,8,400,,,
trial,html.Screen,4_112_0,2023-09-16T00:53:02.975Z,,0,3,,3118.8569999762112,response,ISIC_0013052.JPG,11,ISIC_1507583.JPG,ISIC_0013052.JPG,false,1,keypress(m),500,674283.6999999881,674283.3999999762,671148.051,671153.3000000119,671164.543,674297.52,8,400,13,,ISIC_1507583.JPG
break,html.Screen,4_112_1,2023-09-16T00:53:02.976Z,,0,,,NaN,,,,,,false,,,,674284.3999999762,674284.3000000119,,674283.8999999762,,674297.52,8,400,,,
break_continue,html.Screen,4_112_2,2023-09-16T00:53:02.976Z,,0,,,NaN,,,,,,false,,,,674284.8000000119,674284.6999999881,,674284.6000000238,,674297.52,8,400,,,
sequence,flow.Sequence,4_112,2023-09-16T00:53:02.976Z,,0,,,3120.156999988132,completion,,,,,false,,,,674284.8999999762,674284.6999999881,671148.051,671153.3000000119,671164.543,674297.52,8,400,,,
trial,html.Screen,4_113_0,2023-09-16T00:53:06.136Z,,0,3,,3147.1799999880604,response,ISIC_7906421.JPG,9,ISIC_5951430.JPG,ISIC_5951430.JPG,false,0,keypress(z),500,677444.8999999762,677444.6999999881,674280.602,674285,674297.52,677446.914,8,400,14,,ISIC_7906421.JPG
break,html.Screen,4_113_1,2023-09-16T00:53:06.137Z,,0,,,NaN,,,,,,false,,,,677445.8000000119,677445.6000000238,,677445.1999999881,,677446.914,8,400,,,
break_continue,html.Screen,4_113_2,2023-09-16T00:53:06.138Z,,0,,,NaN,,,,,,false,,,,677446.1999999881,677446.1000000238,,677445.8999999762,,677446.914,8,400,,,
sequence,flow.Sequence,4_113,2023-09-16T00:53:06.138Z,,0,,,3148.5800000238232,completion,,,,,false,,,,677446.3000000119,677446.1000000238,674280.602,674284.8999999762,674297.52,677446.914,8,400,,,
trial,html.Screen,4_114_0,2023-09-16T00:53:09.211Z,,0,3,,3072.2859999880893,response,ISIC_7226381.JPG,7,ISIC_0070170.JPG,ISIC_0070170.JPG,false,0,keypress(z),500,680519.5,680519.1999999881,677429.827,677446.3000000119,677446.914,680530.37,8,400,15,,ISIC_7226381.JPG
break,html.Screen,4_114_1,2023-09-16T00:53:09.212Z,,0,,,NaN,,,,,,false,,,,680520.3999999762,680520.1000000238,,680519.6999999881,,680530.37,8,400,,,
break_continue,html.Screen,4_114_2,2023-09-16T00:53:09.212Z,,0,,,NaN,,,,,,false,,,,680520.6999999881,680520.6000000238,,680520.5,,680530.37,8,400,,,
sequence,flow.Sequence,4_114,2023-09-16T00:53:09.212Z,,0,,,3073.686000023852,completion,,,,,false,,,,680520.8000000119,680520.6000000238,677429.827,677446.3000000119,677446.914,680530.37,8,400,,,
trial,html.Screen,4_115_0,2023-09-16T00:53:13.488Z,,0,3,,4266.130000000005,response,ISIC_0032033.JPG,9,ISIC_9161898.JPG,ISIC_9161898.JPG,false,0,keypress(z),500,684796.8000000119,684796.5,680513.156,680520.8999999762,680530.37,684812.578,8,400,16,,ISIC_0032033.JPG
break,html.Screen,4_115_1,2023-09-16T00:53:13.489Z,,0,,,NaN,,,,,,false,,,,684797.6999999881,684797.3999999762,,684797,,684812.578,8,400,,,
break_continue,html.Screen,4_115_2,2023-09-16T00:53:13.489Z,,0,,,NaN,,,,,,false,,,,684797.8999999762,684797.8000000119,,684797.6999999881,,684812.578,8,400,,,
sequence,flow.Sequence,4_115,2023-09-16T00:53:13.490Z,,0,,,4267.430000011926,completion,,,,,false,,,,684798,684797.8000000119,680513.156,680520.8999999762,680530.37,684812.578,8,400,,,
trial,html.Screen,4_116_0,2023-09-16T00:53:18.506Z,,0,3,,5001.4220000000205,response,ISIC_0030072.JPG,12,ISIC_0030443.JPG,ISIC_0030072.JPG,false,1,keypress(m),500,689814.1999999881,689814,684796.137,684798.1000000238,684812.578,689828.696,8,400,17,,ISIC_0030443.JPG
break,html.Screen,4_116_1,2023-09-16T00:53:18.506Z,,0,,,NaN,,,,,,false,,,,689814.8999999762,689814.6999999881,,689814.3000000119,,689828.696,8,400,,,
break_continue,html.Screen,4_116_2,2023-09-16T00:53:18.507Z,,0,,,NaN,,,,,,false,,,,689815.1999999881,689815,,689815,,689828.696,8,400,,,
sequence,flow.Sequence,4_116,2023-09-16T00:53:18.507Z,,0,,,5002.4220000000205,completion,,,,,false,,,,689815.3000000119,689815,684796.137,684798.1000000238,684812.578,689828.696,8,400,,,
trial,html.Screen,4_117_0,2023-09-16T00:53:22.740Z,,0,3,,4219.703999976162,response,ISIC_6520237.JPG,11,ISIC_8579575.JPG,ISIC_8579575.JPG,false,0,keypress(z),500,694048.6999999881,694048.3999999762,689811.895,689815.3999999762,689828.696,694061.272,8,400,18,,ISIC_6520237.JPG
break,html.Screen,4_117_1,2023-09-16T00:53:22.741Z,,0,,,NaN,,,,,,false,,,,694049.3999999762,694049.1999999881,,694048.8999999762,,694061.272,8,400,,,
break_continue,html.Screen,4_117_2,2023-09-16T00:53:22.741Z,,0,,,NaN,,,,,,false,,,,694049.6999999881,694049.6000000238,,694049.5,,694061.272,8,400,,,
sequence,flow.Sequence,4_117,2023-09-16T00:53:22.741Z,,0,,,4220.904000023846,completion,,,,,false,,,,694049.8000000119,694049.6000000238,689811.895,689815.3000000119,689828.696,694061.272,8,400,,,
trial,html.Screen,4_118_0,2023-09-16T00:53:26.156Z,,0,3,,3402.627999976161,response,ISIC_0056092.JPG,11,ISIC_2964397.JPG,ISIC_0056092.JPG,false,1,keypress(m),500,697464.1999999881,697463.8999999762,694044.597,694049.8000000119,694061.272,697477.8,8,400,19,,ISIC_2964397.JPG
break,html.Screen,4_118_1,2023-09-16T00:53:26.157Z,,0,,,NaN,,,,,,false,,,,697464.8999999762,697464.6999999881,,697464.3999999762,,697477.8,8,400,,,
break_continue,html.Screen,4_118_2,2023-09-16T00:53:26.157Z,,0,,,NaN,,,,,,false,,,,697465.3000000119,697465.1000000238,,697465.1000000238,,697477.8,8,400,,,
sequence,flow.Sequence,4_118,2023-09-16T00:53:26.157Z,,0,,,3403.8280000238447,completion,,,,,false,,,,697465.3999999762,697465.1000000238,694044.597,694049.8000000119,694061.272,697477.8,8,400,,,
trial,html.Screen,4_119_0,2023-09-16T00:53:30.386Z,,0,3,,4216.599999976112,response,ISIC_7563949.JPG,8,ISIC_0071988.JPG,ISIC_0071988.JPG,false,0,keypress(z),500,701694.8000000119,701694.3999999762,697461.124,697465.5,697477.8,701710.218,8,400,20,,ISIC_7563949.JPG
break,html.Screen,4_119_1,2023-09-16T00:53:30.387Z,,0,,,NaN,,,,,,false,,,,701695.6000000238,701695.3999999762,,701695,,701710.218,8,400,,,
break_continue,html.Screen,4_119_2,2023-09-16T00:53:30.387Z,,0,,,NaN,,,,,,false,,,,701695.8999999762,701695.8000000119,,701695.6000000238,,701710.218,8,400,,,
sequence,flow.Sequence,4_119,2023-09-16T00:53:30.388Z,,0,,,4218.000000011874,completion,,,,,false,,,,701696,701695.8000000119,697461.124,697465.5,697477.8,701710.218,8,400,,,
trial,html.Screen,4_120_0,2023-09-16T00:53:35.255Z,,0,3,,4852.7820000000065,response,ISIC_6145261.JPG,10,ISIC_0029572.JPG,ISIC_6145261.JPG,false,1,keypress(m),500,706563.3000000119,706563,701693.62,701696.1000000238,701710.218,706576.519,8,400,21,,ISIC_0029572.JPG
break,html.Screen,4_120_1,2023-09-16T00:53:35.256Z,,0,,,NaN,,,,,,false,,,,706564.1000000238,706563.8000000119,,706563.5,,706576.519,8,400,,,
break_continue,html.Screen,4_120_2,2023-09-16T00:53:35.256Z,,0,,,NaN,,,,,,false,,,,706564.3999999762,706564.3000000119,,706564.3000000119,,706576.519,8,400,,,
sequence,flow.Sequence,4_120,2023-09-16T00:53:35.256Z,,0,,,4854.082000011927,completion,,,,,false,,,,706564.6000000238,706564.3000000119,701693.62,701696.1000000238,701710.218,706576.519,8,400,,,
trial,html.Screen,4_121_0,2023-09-16T00:53:39.138Z,,0,3,,3869.880999976187,response,ISIC_7320371.JPG,7,ISIC_4568084.JPG,ISIC_7320371.JPG,false,1,keypress(m),500,710446.8000000119,710446.3999999762,706559.649,706564.6999999881,706576.519,710459.113,8,400,22,,ISIC_4568084.JPG
break,html.Screen,4_121_1,2023-09-16T00:53:39.139Z,,0,,,NaN,,,,,,false,,,,710447.6000000238,710447.3000000119,,710447,,710459.113,8,400,,,
break_continue,html.Screen,4_121_2,2023-09-16T00:53:39.139Z,,0,,,NaN,,,,,,false,,,,710447.8999999762,710447.8000000119,,710447.6999999881,,710459.113,8,400,,,
sequence,flow.Sequence,4_121,2023-09-16T00:53:39.139Z,,0,,,3871.28100001195,completion,,,,,false,,,,710448,710447.8000000119,706559.649,706564.6000000238,706576.519,710459.113,8,400,,,
trial,html.Screen,4_122_0,2023-09-16T00:53:43.563Z,,0,3,,4412.48700002383,response,ISIC_2844539.JPG,11,ISIC_4629662.JPG,ISIC_2844539.JPG,false,1,keypress(m),500,714872,714871.6000000238,710442.375,710448.1000000238,710459.113,714875.299,8,400,23,,ISIC_4629662.JPG
break,html.Screen,4_122_1,2023-09-16T00:53:43.564Z,,0,,,NaN,,,,,,false,,,,714872.6999999881,714872.5,,714872.1000000238,,714875.299,8,400,,,
break_continue,html.Screen,4_122_2,2023-09-16T00:53:43.565Z,,0,,,NaN,,,,,,false,,,,714873.1000000238,714872.8999999762,,714872.8000000119,,714875.299,8,400,,,
sequence,flow.Sequence,4_122,2023-09-16T00:53:43.565Z,,0,,,4413.786999976146,completion,,,,,false,,,,714873.1999999881,714872.8999999762,710442.375,710448.1000000238,710459.113,714875.299,8,400,,,
trial,html.Screen,4_123_0,2023-09-16T00:53:48.341Z,,0,3,,4773.600999976159,response,ISIC_0024236.JPG,7,ISIC_1110583.JPG,ISIC_0024236.JPG,false,1,keypress(m),500,719649.1999999881,719648.8999999762,714858.853,714873.3000000119,714875.299,719658.005,8,400,24,,ISIC_1110583.JPG
break,html.Screen,4_123_1,2023-09-16T00:53:48.341Z,,0,,,NaN,,,,,,false,,,,719649.8999999762,719649.6999999881,,719649.5,,719658.005,8,400,,,
break_continue,html.Screen,4_123_2,2023-09-16T00:53:48.342Z,,0,,,NaN,,,,,,false,,,,719650.1999999881,719650.1000000238,,719650.1000000238,,719658.005,8,400,,,
sequence,flow.Sequence,4_123,2023-09-16T00:53:48.342Z,,0,,,4774.801000023843,completion,,,,,false,,,,719650.3999999762,719650.1000000238,714858.853,714873.3000000119,714875.299,719658.005,8,400,,,
trial,html.Screen,4_124_0,2023-09-16T00:53:53.616Z,,0,3,,5266.095000023837,response,ISIC_0062401.JPG,7,ISIC_0061559.JPG,ISIC_0061559.JPG,false,0,keypress(z),500,724924.3999999762,724924.1000000238,719641.562,719650.5,719658.005,724940.561,8,400,25,,ISIC_0062401.JPG
break,html.Screen,4_124_1,2023-09-16T00:53:53.617Z,,0,,,NaN,,,,,,false,,,,724925.1000000238,724924.8999999762,,724924.6000000238,,724940.561,8,400,,,
break_continue,html.Screen,4_124_2,2023-09-16T00:53:53.617Z,,0,,,NaN,,,,,,false,,,,724925.3999999762,724925.3000000119,,724925.3000000119,,724940.561,8,400,,,
sequence,flow.Sequence,4_124,2023-09-16T00:53:53.617Z,,0,,,5267.295000011916,completion,,,,,false,,,,724925.5,724925.3000000119,719641.562,719650.5,719658.005,724940.561,8,400,,,
trial,html.Screen,4_125_0,2023-09-16T00:53:58.741Z,,0,3,,5108.338999976171,response,ISIC_0011482.JPG,8,ISIC_9978498.JPG,ISIC_9978498.JPG,false,0,keypress(z),500,730049.1000000238,730048.8999999762,724924.193,724925.6000000238,724940.561,730056.538,8,400,26,,ISIC_0011482.JPG
break,html.Screen,4_125_1,2023-09-16T00:53:58.741Z,,0,,,NaN,,,,,,false,,,,730049.8999999762,730049.6000000238,,730049.3000000119,,730056.538,8,400,,,
break_continue,html.Screen,4_125_2,2023-09-16T00:53:58.742Z,,0,,,NaN,,,,,,false,,,,730050.1999999881,730050.1000000238,,730050,,730056.538,8,400,,,
sequence,flow.Sequence,4_125,2023-09-16T00:53:58.742Z,,0,,,5109.539000023855,completion,,,,,false,,,,730050.3000000119,730050.1000000238,724924.193,724925.5,724940.561,730056.538,8,400,,,
