sender,sender_type,sender_id,timestamp,meta,,blockNo,condition,duration,ended_on,img_left,img_reveal,img_right,loser,practice,response,response_action,selection_duration,time_commit,time_end,time_render,time_run,time_show,time_switch,total_blocks,total_trials,trialNo,url,winner
informed_consent,html.Screen,0,2023-09-16T19:17:38.596Z,"{""labjs_version"":""20.2.4"",""labjs_build"":{""flavor"":""production"",""commit"":""f5b4a49f956347addd546a832a3327688c2c0fef""},""location"":""https://run.pavlovia.org/MurrayBennett/melanoma-2afc/?participant=66038&platform=sona"",""userAgent"":""Mozilla/5.0 (Macintosh; Intel Mac OS X 10_15_7) AppleWebKit/605.1.15 (KHTML, like Gecko) Version/16.6 Safari/605.1.15"",""platform"":""MacIntel"",""language"":""en-US"",""locale"":""en-US"",""timeZone"":""America/Chicago"",""timezoneOffset"":300,""screen_width"":1440,""screen_height"":900,""scroll_width"":1197,""scroll_height"":660,""window_innerWidth"":1197,""window_innerHeight"":708,""devicePixelRatio"":2}",,,,5888.000000000001,response,,,,,,consent,click button,,8200,8165.000000000001,2277,2263,2332,8236,,,,"{""participant"":""66038"",""platform"":""sona""}",
Welcome,html.Screen,1,2023-09-16T19:18:11.334Z,,,,uniform,32697,response,,,,,,continue,click button,,40938,40920,8223,8200,8236,40961,,,,,
trial,html.Screen,2_0_0,2023-09-16T19:18:17.072Z,,0,0,,5730,response,ISIC_0063388.JPG,,ISIC_0025593.JPG,ISIC_0025593.JPG,true,0,keypress(z),500,46675.00000000001,46674,40944,40938,40961,46698,1,6,1,,ISIC_0063388.JPG
sequence,flow.Sequence,2_0,2023-09-16T19:18:17.072Z,,0,,,5713,completion,,,,,true,,,,46675.00000000001,46674,40944,40938,40961,46698,1,6,,,
trial,html.Screen,2_1_0,2023-09-16T19:18:23.921Z,,0,0,,6842,response,ISIC_0028178.JPG,,ISIC_1309015.JPG,ISIC_1309015.JPG,true,0,keypress(z),500,53524,53523,46681,46675.00000000001,46698,53551,1,6,2,,ISIC_0028178.JPG
sequence,flow.Sequence,2_1,2023-09-16T19:18:23.921Z,,0,,,6825,completion,,,,,true,,,,53524,53523,46681,46675.00000000001,46698,53551,1,6,,,
trial,html.Screen,2_2_0,2023-09-16T19:18:30.131Z,,0,0,,6199,response,ISIC_3314853.JPG,,ISIC_0031128.JPG,ISIC_0031128.JPG,true,0,keypress(z),500,59734,59734,53535,53524,53551,59771,1,6,3,,ISIC_3314853.JPG
sequence,flow.Sequence,2_2,2023-09-16T19:18:30.132Z,,0,,,6183,completion,,,,,true,,,,59734,59734,53535,53524,53551,59771,1,6,,,
trial,html.Screen,2_3_0,2023-09-16T19:18:34.285Z,,0,0,,4133,response,ISIC_0031612.JPG,,ISIC_8980141.JPG,ISIC_0031612.JPG,true,1,keypress(m),500,63887,63887,59754,59734,59771,63917,1,6,4,,ISIC_8980141.JPG
sequence,flow.Sequence,2_3,2023-09-16T19:18:34.285Z,,0,,,4116,completion,,,,,true,,,,63887,63887,59754,59734,59771,63917,1,6,,,
trial,html.Screen,2_4_0,2023-09-16T19:18:38.836Z,,0,0,,4537,response,ISIC_1197737.JPG,,ISIC_9721604.JPG,ISIC_1197737.JPG,true,1,keypress(m),500,68439,68438,63901,63888,63917,68460,1,6,5,,ISIC_9721604.JPG
sequence,flow.Sequence,2_4,2023-09-16T19:18:38.837Z,,0,,,4521,completion,,,,,true,,,,68439,68438,63901,63888,63917,68460,1,6,,,
trial,html.Screen,2_5_0,2023-09-16T19:18:43.311Z,,0,0,,4470,response,ISIC_0010681.JPG,,ISIC_0025346.JPG,ISIC_0025346.JPG,true,0,keypress(z),500,72913,72913,68443,68439,68460,72948,1,6,6,,ISIC_0010681.JPG
sequence,flow.Sequence,2_5,2023-09-16T19:18:43.311Z,,0,,,4453,completion,,,,,true,,,,72913,72913,68443,68439,68460,72948,1,6,,,
loop,flow.Loop,2,2023-09-16T19:18:43.311Z,,,,,31952,completion,,,,,true,,,,72914,72913,40944,40938,40961,72948,1,6,,,
exp_instructions,html.Screen,3,2023-09-16T19:18:56.685Z,,,,,13343,response,,,,,,continue,keypress(Space),,86287,86275,72932,72914,72948,86319,,,,,
trial,html.Screen,4_0_0,2023-09-16T19:19:01.234Z,,0,1,,4533,response,ISIC_2927673.JPG,14,ISIC_0914168.JPG,ISIC_0914168.JPG,false,0,keypress(z),500,90836,90836,86303,86287,86319,90865,8,400,1,,ISIC_2927673.JPG
break,html.Screen,4_0_1,2023-09-16T19:19:01.235Z,,0,,,NaN,,,,,,false,,,,90837,90837,,90837,,90865,8,400,,,
break_continue,html.Screen,4_0_2,2023-09-16T19:19:01.236Z,,0,,,NaN,,,,,,false,,,,90838.00000000001,90837,,90837,,90865,8,400,,,
sequence,flow.Sequence,4_0,2023-09-16T19:19:01.236Z,,0,,,4518,completion,,,,,false,,,,90838.00000000001,90837,86303,86287,86319,90865,8,400,,,
trial,html.Screen,4_1_0,2023-09-16T19:19:09.143Z,,0,1,,7895,response,ISIC_3856662.JPG,13,ISIC_7210296.JPG,ISIC_3856662.JPG,false,1,keypress(m),500,98745,98744,90849,90838.00000000001,90865,98770,8,400,2,,ISIC_7210296.JPG
break,html.Screen,4_1_1,2023-09-16T19:19:09.144Z,,0,,,NaN,,,,,,false,,,,98746,98745,,98745,,98770,8,400,,,
break_continue,html.Screen,4_1_2,2023-09-16T19:19:09.144Z,,0,,,NaN,,,,,,false,,,,98746,98746,,98746,,98770,8,400,,,
sequence,flow.Sequence,4_1,2023-09-16T19:19:09.144Z,,0,,,7881,completion,,,,,false,,,,98746,98746,90849,90838.00000000001,90865,98770,8,400,,,
trial,html.Screen,4_2_0,2023-09-16T19:19:15.217Z,,0,1,,6066,response,ISIC_0031096.JPG,12,ISIC_0011686.JPG,ISIC_0031096.JPG,false,1,keypress(m),500,104819,104819,98753,98746,98770,104842,8,400,3,,ISIC_0011686.JPG
break,html.Screen,4_2_1,2023-09-16T19:19:15.218Z,,0,,,NaN,,,,,,false,,,,104820.00000000001,104819,,104819,,104842,8,400,,,
break_continue,html.Screen,4_2_2,2023-09-16T19:19:15.218Z,,0,,,NaN,,,,,,false,,,,104820.00000000001,104820.00000000001,,104820.00000000001,,104842,8,400,,,
sequence,flow.Sequence,4_2,2023-09-16T19:19:15.219Z,,0,,,6050.000000000015,completion,,,,,false,,,,104820.00000000001,104820.00000000001,98753,98746,98770,104842,8,400,,,
trial,html.Screen,4_3_0,2023-09-16T19:19:24.258Z,,0,1,,9034.000000000015,response,ISIC_0028501.JPG,0,ISIC_0072004.JPG,ISIC_0072004.JPG,false,0,keypress(z),500,113859.00000000001,113859.00000000001,104825,104820.00000000001,104842,113883,8,400,4,,ISIC_0028501.JPG
break,html.Screen,4_3_1,2023-09-16T19:19:24.259Z,,0,,,NaN,,,,,,false,,,,113860,113860,,113860,,113883,8,400,,,
break_continue,html.Screen,4_3_2,2023-09-16T19:19:24.259Z,,0,,,NaN,,,,,,false,,,,113860,113860,,113860,,113883,8,400,,,
sequence,flow.Sequence,4_3,2023-09-16T19:19:24.259Z,,0,,,9018,completion,,,,,false,,,,113861,113860,104825,104820.00000000001,104842,113883,8,400,,,
trial,html.Screen,4_4_0,2023-09-16T19:19:28.360Z,,0,1,,4095,response,ISIC_0032244.JPG,13,ISIC_4898865.JPG,ISIC_0032244.JPG,false,1,keypress(m),500,117961,117961,113866,113861,113883,117990,8,400,5,,ISIC_4898865.JPG
break,html.Screen,4_4_1,2023-09-16T19:19:28.361Z,,0,,,NaN,,,,,,false,,,,117962,117962,,117961,,117990,8,400,,,
break_continue,html.Screen,4_4_2,2023-09-16T19:19:28.361Z,,0,,,NaN,,,,,,false,,,,117962,117962,,117962,,117990,8,400,,,
sequence,flow.Sequence,4_4,2023-09-16T19:19:28.361Z,,0,,,4079,completion,,,,,false,,,,117962,117962,113866,113861,113883,117990,8,400,,,
trial,html.Screen,4_5_0,2023-09-16T19:19:32.525Z,,0,1,,4153,response,ISIC_5104731.JPG,16,ISIC_0014926.JPG,ISIC_0014926.JPG,false,0,keypress(z),500,122126,122126,117973,117962,117990,122158,8,400,6,,ISIC_5104731.JPG
break,html.Screen,4_5_1,2023-09-16T19:19:32.526Z,,0,,,NaN,,,,,,false,,,,122127.00000000001,122127.00000000001,,122126,,122158,8,400,,,
break_continue,html.Screen,4_5_2,2023-09-16T19:19:32.526Z,,0,,,NaN,,,,,,false,,,,122127.00000000001,122127.00000000001,,122127.00000000001,,122158,8,400,,,
sequence,flow.Sequence,4_5,2023-09-16T19:19:32.526Z,,0,,,4137.000000000015,completion,,,,,false,,,,122127.00000000001,122127.00000000001,117973,117962,117990,122158,8,400,,,
trial,html.Screen,4_6_0,2023-09-16T19:19:36.744Z,,0,1,,4203,response,ISIC_0070092.JPG,13,ISIC_3212050.JPG,ISIC_0070092.JPG,false,1,keypress(m),500,126345,126345,122142,122127.00000000001,122158,126377,8,400,7,,ISIC_3212050.JPG
break,html.Screen,4_6_1,2023-09-16T19:19:36.745Z,,0,,,NaN,,,,,,false,,,,126346,126346,,126345,,126377,8,400,,,
break_continue,html.Screen,4_6_2,2023-09-16T19:19:36.745Z,,0,,,NaN,,,,,,false,,,,126346,126346,,126346,,126377,8,400,,,
sequence,flow.Sequence,4_6,2023-09-16T19:19:36.745Z,,0,,,4188,completion,,,,,false,,,,126346,126346,122142,122127.00000000001,122158,126377,8,400,,,
trial,html.Screen,4_7_0,2023-09-16T19:19:41.241Z,,0,1,,4482.000000000015,response,ISIC_8711854.JPG,15,ISIC_6718969.JPG,ISIC_6718969.JPG,false,0,keypress(z),500,130842.00000000001,130842.00000000001,126360,126346,126377,130878,8,400,8,,ISIC_8711854.JPG
break,html.Screen,4_7_1,2023-09-16T19:19:41.242Z,,0,,,NaN,,,,,,false,,,,130842.99999999999,130842.99999999999,,130842.99999999999,,130878,8,400,,,
break_continue,html.Screen,4_7_2,2023-09-16T19:19:41.243Z,,0,,,NaN,,,,,,false,,,,130842.99999999999,130842.99999999999,,130842.99999999999,,130878,8,400,,,
sequence,flow.Sequence,4_7,2023-09-16T19:19:41.243Z,,0,,,4465.999999999985,completion,,,,,false,,,,130844,130842.99999999999,126360,126346,126377,130878,8,400,,,
trial,html.Screen,4_8_0,2023-09-16T19:19:45.188Z,,0,1,,3927.000000000029,response,ISIC_0002347.JPG,2,ISIC_0638889.JPG,ISIC_0638889.JPG,false,0,keypress(z),500,134789.00000000003,134789.00000000003,130862,130844,130878,134812,8,400,9,,ISIC_0002347.JPG
break,html.Screen,4_8_1,2023-09-16T19:19:45.189Z,,0,,,NaN,,,,,,false,,,,134790,134790,,134789.00000000003,,134812,8,400,,,
break_continue,html.Screen,4_8_2,2023-09-16T19:19:45.189Z,,0,,,NaN,,,,,,false,,,,134790,134790,,134790,,134812,8,400,,,
sequence,flow.Sequence,4_8,2023-09-16T19:19:45.190Z,,0,,,3912,completion,,,,,false,,,,134790,134790,130862,130844,130878,134812,8,400,,,
trial,html.Screen,4_9_0,2023-09-16T19:19:50.615Z,,0,1,,5420,response,ISIC_0067308.JPG,14,ISIC_0033332.JPG,ISIC_0067308.JPG,false,1,keypress(m),500,140215,140215,134795,134791,134812,140246,8,400,10,,ISIC_0033332.JPG
break,html.Screen,4_9_1,2023-09-16T19:19:50.615Z,,0,,,NaN,,,,,,false,,,,140216,140216,,140216,,140246,8,400,,,
break_continue,html.Screen,4_9_2,2023-09-16T19:19:50.616Z,,0,,,NaN,,,,,,false,,,,140216,140216,,140216,,140246,8,400,,,
sequence,flow.Sequence,4_9,2023-09-16T19:19:50.616Z,,0,,,5404,completion,,,,,false,,,,140217,140216,134795,134791,134812,140246,8,400,,,
trial,html.Screen,4_10_0,2023-09-16T19:19:55.125Z,,0,1,,4495,response,ISIC_4846741.JPG,2,ISIC_1988335.JPG,ISIC_1988335.JPG,false,0,keypress(z),500,144725,144725,140230,140217,140246,144746,8,400,11,,ISIC_4846741.JPG
break,html.Screen,4_10_1,2023-09-16T19:19:55.125Z,,0,,,NaN,,,,,,false,,,,144726,144726,,144725,,144746,8,400,,,
break_continue,html.Screen,4_10_2,2023-09-16T19:19:55.125Z,,0,,,NaN,,,,,,false,,,,144726,144726,,144726,,144746,8,400,,,
sequence,flow.Sequence,4_10,2023-09-16T19:19:55.126Z,,0,,,4480,completion,,,,,false,,,,144726,144726,140230,140217,140246,144746,8,400,,,
trial,html.Screen,4_11_0,2023-09-16T19:20:00.266Z,,0,1,,5137,response,ISIC_3401777.JPG,0,ISIC_0031350.JPG,ISIC_0031350.JPG,false,0,keypress(z),500,149867,149867,144730,144726,144746,149900,8,400,12,,ISIC_3401777.JPG
break,html.Screen,4_11_1,2023-09-16T19:20:00.267Z,,0,,,NaN,,,,,,false,,,,149868,149867,,149867,,149900,8,400,,,
break_continue,html.Screen,4_11_2,2023-09-16T19:20:00.267Z,,0,,,NaN,,,,,,false,,,,149868,149868,,149868,,149900,8,400,,,
sequence,flow.Sequence,4_11,2023-09-16T19:20:00.267Z,,0,,,5122,completion,,,,,false,,,,149868,149868,144730,144726,144746,149900,8,400,,,
trial,html.Screen,4_12_0,2023-09-16T19:20:05.623Z,,0,1,,5339,response,ISIC_0070017.JPG,14,ISIC_0032861.JPG,ISIC_0032861.JPG,false,0,keypress(z),500,155224,155224,149885,149868,149900,155248,8,400,13,,ISIC_0070017.JPG
break,html.Screen,4_12_1,2023-09-16T19:20:05.624Z,,0,,,NaN,,,,,,false,,,,155224,155224,,155224,,155248,8,400,,,
break_continue,html.Screen,4_12_2,2023-09-16T19:20:05.624Z,,0,,,NaN,,,,,,false,,,,155225,155225,,155225,,155248,8,400,,,
sequence,flow.Sequence,4_12,2023-09-16T19:20:05.624Z,,0,,,5325,completion,,,,,false,,,,155225,155225,149885,149868,149900,155248,8,400,,,
trial,html.Screen,4_13_0,2023-09-16T19:20:10.024Z,,0,1,,4392,response,ISIC_8733745.JPG,15,ISIC_5768749.JPG,ISIC_5768749.JPG,false,0,keypress(z),500,159624,159623,155231,155225,155248,159648,8,400,14,,ISIC_8733745.JPG
break,html.Screen,4_13_1,2023-09-16T19:20:10.024Z,,0,,,NaN,,,,,,false,,,,159624,159624,,159624,,159648,8,400,,,
break_continue,html.Screen,4_13_2,2023-09-16T19:20:10.024Z,,0,,,NaN,,,,,,false,,,,159625,159625,,159625,,159648,8,400,,,
sequence,flow.Sequence,4_13,2023-09-16T19:20:10.024Z,,0,,,4377,completion,,,,,false,,,,159625,159625,155231,155225,155248,159648,8,400,,,
trial,html.Screen,4_14_0,2023-09-16T19:20:14.038Z,,0,1,,4006,response,ISIC_0027981.JPG,0,ISIC_8814672.JPG,ISIC_0027981.JPG,false,1,keypress(m),500,163639,163638,159632,159625,159648,163666,8,400,15,,ISIC_8814672.JPG
break,html.Screen,4_14_1,2023-09-16T19:20:14.039Z,,0,,,NaN,,,,,,false,,,,163639,163639,,163639,,163666,8,400,,,
break_continue,html.Screen,4_14_2,2023-09-16T19:20:14.040Z,,0,,,NaN,,,,,,false,,,,163640.00000000003,163640.00000000003,,163639,,163666,8,400,,,
sequence,flow.Sequence,4_14,2023-09-16T19:20:14.040Z,,0,,,3992.000000000029,completion,,,,,false,,,,163640.00000000003,163640.00000000003,159632,159625,159648,163666,8,400,,,
trial,html.Screen,4_15_0,2023-09-16T19:20:18.376Z,,0,1,,4328,response,ISIC_1974281.JPG,12,ISIC_0032192.JPG,ISIC_0032192.JPG,false,0,keypress(z),500,167976,167976,163648,163640.00000000003,163666,168001,8,400,16,,ISIC_1974281.JPG
break,html.Screen,4_15_1,2023-09-16T19:20:18.377Z,,0,,,NaN,,,,,,false,,,,167977,167977,,167976,,168001,8,400,,,
break_continue,html.Screen,4_15_2,2023-09-16T19:20:18.377Z,,0,,,NaN,,,,,,false,,,,167977,167977,,167977,,168001,8,400,,,
sequence,flow.Sequence,4_15,2023-09-16T19:20:18.377Z,,0,,,4311,completion,,,,,false,,,,167977,167977,163648,163640.00000000003,163666,168001,8,400,,,
trial,html.Screen,4_16_0,2023-09-16T19:20:22.513Z,,0,1,,4129,response,ISIC_0005360.JPG,3,ISIC_0032858.JPG,ISIC_0032858.JPG,false,0,keypress(z),500,172113,172113,167984,167977,168001,172134,8,400,17,,ISIC_0005360.JPG
break,html.Screen,4_16_1,2023-09-16T19:20:22.514Z,,0,,,NaN,,,,,,false,,,,172114,172113,,172113,,172134,8,400,,,
break_continue,html.Screen,4_16_2,2023-09-16T19:20:22.514Z,,0,,,NaN,,,,,,false,,,,172114,172114,,172114,,172134,8,400,,,
sequence,flow.Sequence,4_16,2023-09-16T19:20:22.514Z,,0,,,4113,completion,,,,,false,,,,172114,172114,167984,167977,168001,172134,8,400,,,
trial,html.Screen,4_17_0,2023-09-16T19:20:28.949Z,,0,1,,6432,response,ISIC_3791309.JPG,3,ISIC_6694724.JPG,ISIC_6694724.JPG,false,0,keypress(z),500,178549,178549,172117,172114,172134,178584,8,400,18,,ISIC_3791309.JPG
break,html.Screen,4_17_1,2023-09-16T19:20:28.950Z,,0,,,NaN,,,,,,false,,,,178550,178550,,178549,,178584,8,400,,,
break_continue,html.Screen,4_17_2,2023-09-16T19:20:28.950Z,,0,,,NaN,,,,,,false,,,,178550,178550,,178550,,178584,8,400,,,
sequence,flow.Sequence,4_17,2023-09-16T19:20:28.950Z,,0,,,6416,completion,,,,,false,,,,178550,178550,172117,172114,172134,178584,8,400,,,
trial,html.Screen,4_18_0,2023-09-16T19:20:34.912Z,,0,1,,5943,response,ISIC_4099428.JPG,2,ISIC_0027081.JPG,ISIC_4099428.JPG,false,1,keypress(m),500,184512,184511,178568,178550,178584,184538,8,400,19,,ISIC_0027081.JPG
break,html.Screen,4_18_1,2023-09-16T19:20:34.913Z,,0,,,NaN,,,,,,false,,,,184512,184512,,184512,,184538,8,400,,,
break_continue,html.Screen,4_18_2,2023-09-16T19:20:34.913Z,,0,,,NaN,,,,,,false,,,,184513,184513,,184512,,184538,8,400,,,
sequence,flow.Sequence,4_18,2023-09-16T19:20:34.913Z,,0,,,5929,completion,,,,,false,,,,184513,184513,178568,178550,178584,184538,8,400,,,
trial,html.Screen,4_19_0,2023-09-16T19:20:38.682Z,,0,1,,3760,response,ISIC_5481211.JPG,17,ISIC_8354042.JPG,ISIC_5481211.JPG,false,1,keypress(m),500,188282,188282,184522,184513,184538,188306,8,400,20,,ISIC_8354042.JPG
break,html.Screen,4_19_1,2023-09-16T19:20:38.683Z,,0,,,NaN,,,,,,false,,,,188283.00000000003,188282,,188282,,188306,8,400,,,
break_continue,html.Screen,4_19_2,2023-09-16T19:20:38.683Z,,0,,,NaN,,,,,,false,,,,188283.00000000003,188283.00000000003,,188283.00000000003,,188306,8,400,,,
sequence,flow.Sequence,4_19,2023-09-16T19:20:38.683Z,,0,,,3745.000000000029,completion,,,,,false,,,,188283.00000000003,188283.00000000003,184522,184513,184538,188306,8,400,,,
trial,html.Screen,4_20_0,2023-09-16T19:20:43.984Z,,0,1,,5294,response,ISIC_0054341.JPG,13,ISIC_2232883.JPG,ISIC_0054341.JPG,false,1,keypress(m),500,193583,193583,188289,188283.00000000003,188306,193606,8,400,21,,ISIC_2232883.JPG
break,html.Screen,4_20_1,2023-09-16T19:20:43.985Z,,0,,,NaN,,,,,,false,,,,193584,193584,,193584,,193606,8,400,,,
break_continue,html.Screen,4_20_2,2023-09-16T19:20:43.985Z,,0,,,NaN,,,,,,false,,,,193585,193584,,193584,,193606,8,400,,,
sequence,flow.Sequence,4_20,2023-09-16T19:20:43.985Z,,0,,,5278,completion,,,,,false,,,,193585,193584,188289,188283.00000000003,188306,193606,8,400,,,
trial,html.Screen,4_21_0,2023-09-16T19:20:51.272Z,,0,1,,7282,response,ISIC_0066889.JPG,10,ISIC_8108099.JPG,ISIC_0066889.JPG,false,1,keypress(m),500,200871,200871,193589,193585,193606,200893,8,400,22,,ISIC_8108099.JPG
break,html.Screen,4_21_1,2023-09-16T19:20:51.273Z,,0,,,NaN,,,,,,false,,,,200872,200872,,200872,,200893,8,400,,,
break_continue,html.Screen,4_21_2,2023-09-16T19:20:51.273Z,,0,,,NaN,,,,,,false,,,,200872,200872,,200872,,200893,8,400,,,
sequence,flow.Sequence,4_21,2023-09-16T19:20:51.273Z,,0,,,7266,completion,,,,,false,,,,200872,200872,193589,193585,193606,200893,8,400,,,
trial,html.Screen,4_22_0,2023-09-16T19:20:55.524Z,,0,1,,4247,response,ISIC_9956400.JPG,16,ISIC_0046664.JPG,ISIC_0046664.JPG,false,0,keypress(z),500,205124,205123,200876,200872,200893,205146,8,400,23,,ISIC_9956400.JPG
break,html.Screen,4_22_1,2023-09-16T19:20:55.525Z,,0,,,NaN,,,,,,false,,,,205124,205124,,205124,,205146,8,400,,,
break_continue,html.Screen,4_22_2,2023-09-16T19:20:55.525Z,,0,,,NaN,,,,,,false,,,,205125,205125,,205124,,205146,8,400,,,
sequence,flow.Sequence,4_22,2023-09-16T19:20:55.525Z,,0,,,4232,completion,,,,,false,,,,205125,205125,200876,200872,200893,205146,8,400,,,
trial,html.Screen,4_23_0,2023-09-16T19:20:59.586Z,,0,1,,4056,response,ISIC_0028415.JPG,3,ISIC_0010587.JPG,ISIC_0028415.JPG,false,1,keypress(m),500,209185,209185,205129,205125,205146,209214,8,400,24,,ISIC_0010587.JPG
break,html.Screen,4_23_1,2023-09-16T19:20:59.587Z,,0,,,NaN,,,,,,false,,,,209186,209186,,209185,,209214,8,400,,,
break_continue,html.Screen,4_23_2,2023-09-16T19:20:59.587Z,,0,,,NaN,,,,,,false,,,,209186,209186,,209186,,209214,8,400,,,
sequence,flow.Sequence,4_23,2023-09-16T19:20:59.587Z,,0,,,4040,completion,,,,,false,,,,209186,209186,205129,205125,205146,209214,8,400,,,
trial,html.Screen,4_24_0,2023-09-16T19:21:03.933Z,,0,1,,4334,response,ISIC_0067727.JPG,13,ISIC_9433388.JPG,ISIC_0067727.JPG,false,1,keypress(m),500,213532,213532,209198,209186,209214,213553,8,400,25,,ISIC_9433388.JPG
break,html.Screen,4_24_1,2023-09-16T19:21:03.934Z,,0,,,NaN,,,,,,false,,,,213533.00000000003,213533.00000000003,,213532,,213553,8,400,,,
break_continue,html.Screen,4_24_2,2023-09-16T19:21:03.934Z,,0,,,NaN,,,,,,false,,,,213533.00000000003,213533.00000000003,,213533.00000000003,,213553,8,400,,,
sequence,flow.Sequence,4_24,2023-09-16T19:21:03.934Z,,0,,,4319.000000000029,completion,,,,,false,,,,213533.00000000003,213533.00000000003,209198,209186,209214,213553,8,400,,,
trial,html.Screen,4_25_0,2023-09-16T19:21:11.333Z,,0,1,,7395,response,ISIC_0026664.JPG,10,ISIC_0053555.JPG,ISIC_0053555.JPG,false,0,keypress(z),500,220931,220931,213536,213533.00000000003,213553,220959,8,400,26,,ISIC_0026664.JPG
break,html.Screen,4_25_1,2023-09-16T19:21:11.333Z,,0,,,NaN,,,,,,false,,,,220932.00000000003,220932.00000000003,,220932.00000000003,,220959,8,400,,,
break_continue,html.Screen,4_25_2,2023-09-16T19:21:11.334Z,,0,,,NaN,,,,,,false,,,,220932.00000000003,220932.00000000003,,220932.00000000003,,220959,8,400,,,
sequence,flow.Sequence,4_25,2023-09-16T19:21:11.334Z,,0,,,7379.000000000029,completion,,,,,false,,,,220932.00000000003,220932.00000000003,213536,213533.00000000003,213553,220959,8,400,,,
trial,html.Screen,4_26_0,2023-09-16T19:21:15.941Z,,0,1,,4598,response,ISIC_4679971.JPG,3,ISIC_8428097.JPG,ISIC_8428097.JPG,false,0,keypress(z),500,225540,225540,220942,220933,220959,225576,8,400,27,,ISIC_4679971.JPG
break,html.Screen,4_26_1,2023-09-16T19:21:15.942Z,,0,,,NaN,,,,,,false,,,,225541,225540,,225540,,225576,8,400,,,
break_continue,html.Screen,4_26_2,2023-09-16T19:21:15.942Z,,0,,,NaN,,,,,,false,,,,225541,225541,,225541,,225576,8,400,,,
sequence,flow.Sequence,4_26,2023-09-16T19:21:15.942Z,,0,,,4582,completion,,,,,false,,,,225541,225541,220942,220933,220959,225576,8,400,,,
trial,html.Screen,4_27_0,2023-09-16T19:21:20.808Z,,0,1,,4847,response,ISIC_3487151.JPG,1,ISIC_0032420.JPG,ISIC_0032420.JPG,false,0,keypress(z),500,230407,230407,225560,225541,225576,230432,8,400,28,,ISIC_3487151.JPG
break,html.Screen,4_27_1,2023-09-16T19:21:20.809Z,,0,,,NaN,,,,,,false,,,,230407,230407,,230407,,230432,8,400,,,
break_continue,html.Screen,4_27_2,2023-09-16T19:21:20.809Z,,0,,,NaN,,,,,,false,,,,230408.00000000003,230408.00000000003,,230408.00000000003,,230432,8,400,,,
sequence,flow.Sequence,4_27,2023-09-16T19:21:20.809Z,,0,,,4832.000000000029,completion,,,,,false,,,,230408.00000000003,230408.00000000003,225560,225541,225576,230432,8,400,,,
trial,html.Screen,4_28_0,2023-09-16T19:21:29.675Z,,0,1,,8857,response,ISIC_0786233.JPG,2,ISIC_4949672.JPG,ISIC_0786233.JPG,false,1,keypress(m),500,239273,239273,230416,230408.00000000003,230432,239309,8,400,29,,ISIC_4949672.JPG
break,html.Screen,4_28_1,2023-09-16T19:21:29.675Z,,0,,,NaN,,,,,,false,,,,239274,239274,,239273,,239309,8,400,,,
break_continue,html.Screen,4_28_2,2023-09-16T19:21:29.676Z,,0,,,NaN,,,,,,false,,,,239274,239274,,239274,,239309,8,400,,,
sequence,flow.Sequence,4_28,2023-09-16T19:21:29.676Z,,0,,,8842,completion,,,,,false,,,,239274,239274,230416,230408.00000000003,230432,239309,8,400,,,
trial,html.Screen,4_29_0,2023-09-16T19:21:37.853Z,,0,1,,8159,response,ISIC_5239856.JPG,13,ISIC_9955163.JPG,ISIC_9955163.JPG,false,0,keypress(z),500,247452,247451,239292,239274,239309,247481,8,400,30,,ISIC_5239856.JPG
break,html.Screen,4_29_1,2023-09-16T19:21:37.854Z,,0,,,NaN,,,,,,false,,,,247452,247452,,247452,,247481,8,400,,,
break_continue,html.Screen,4_29_2,2023-09-16T19:21:37.854Z,,0,,,NaN,,,,,,false,,,,247453,247452,,247452,,247481,8,400,,,
sequence,flow.Sequence,4_29,2023-09-16T19:21:37.854Z,,0,,,8143,completion,,,,,false,,,,247453,247452,239292,239274,239309,247481,8,400,,,
trial,html.Screen,4_30_0,2023-09-16T19:21:42.092Z,,0,1,,4226,response,ISIC_5547318.JPG,13,ISIC_0033782.JPG,ISIC_5547318.JPG,false,1,keypress(m),500,251690,251690,247464,247453,247481,251713,8,400,31,,ISIC_0033782.JPG
break,html.Screen,4_30_1,2023-09-16T19:21:42.092Z,,0,,,NaN,,,,,,false,,,,251690,251690,,251690,,251713,8,400,,,
break_continue,html.Screen,4_30_2,2023-09-16T19:21:42.093Z,,0,,,NaN,,,,,,false,,,,251691,251691,,251691,,251713,8,400,,,
sequence,flow.Sequence,4_30,2023-09-16T19:21:42.093Z,,0,,,4210,completion,,,,,false,,,,251691,251691,247464,247453,247481,251713,8,400,,,
trial,html.Screen,4_31_0,2023-09-16T19:21:46.662Z,,0,1,,4563,response,ISIC_0033668.JPG,15,ISIC_5569568.JPG,ISIC_5569568.JPG,false,0,keypress(z),500,256260,256260,251697,251691,251713,256281,8,400,32,,ISIC_0033668.JPG
break,html.Screen,4_31_1,2023-09-16T19:21:46.662Z,,0,,,NaN,,,,,,false,,,,256260,256260,,256260,,256281,8,400,,,
break_continue,html.Screen,4_31_2,2023-09-16T19:21:46.662Z,,0,,,NaN,,,,,,false,,,,256260,256260,,256260,,256281,8,400,,,
sequence,flow.Sequence,4_31,2023-09-16T19:21:46.663Z,,0,,,4547,completion,,,,,false,,,,256261.00000000003,256260,251697,251691,251713,256281,8,400,,,
trial,html.Screen,4_32_0,2023-09-16T19:21:51.207Z,,0,1,,4540.000000000029,response,ISIC_4129321.JPG,2,ISIC_0011434.JPG,ISIC_0011434.JPG,false,0,keypress(z),500,260804.00000000003,260804.00000000003,256264,256261.00000000003,256281,260830,8,400,33,,ISIC_4129321.JPG
break,html.Screen,4_32_1,2023-09-16T19:21:51.207Z,,0,,,NaN,,,,,,false,,,,260805,260805,,260805,,260830,8,400,,,
break_continue,html.Screen,4_32_2,2023-09-16T19:21:51.207Z,,0,,,NaN,,,,,,false,,,,260805,260805,,260805,,260830,8,400,,,
sequence,flow.Sequence,4_32,2023-09-16T19:21:51.207Z,,0,,,4524,completion,,,,,false,,,,260805,260805,256264,256261.00000000003,256281,260830,8,400,,,
trial,html.Screen,4_33_0,2023-09-16T19:21:55.422Z,,0,1,,4206,response,ISIC_8357679.JPG,12,ISIC_9175856.JPG,ISIC_9175856.JPG,false,0,keypress(z),500,265020,265020,260814,260805,260830,265049,8,400,34,,ISIC_8357679.JPG
break,html.Screen,4_33_1,2023-09-16T19:21:55.422Z,,0,,,NaN,,,,,,false,,,,265020,265020,,265020,,265049,8,400,,,
break_continue,html.Screen,4_33_2,2023-09-16T19:21:55.423Z,,0,,,NaN,,,,,,false,,,,265021,265020,,265020,,265049,8,400,,,
sequence,flow.Sequence,4_33,2023-09-16T19:21:55.423Z,,0,,,4190,completion,,,,,false,,,,265021,265020,260814,260805,260830,265049,8,400,,,
trial,html.Screen,4_34_0,2023-09-16T19:21:59.642Z,,0,1,,4208,response,ISIC_3338629.JPG,0,ISIC_8154363.JPG,ISIC_3338629.JPG,false,1,keypress(m),500,269240,269240,265032,265021,265049,269265,8,400,35,,ISIC_8154363.JPG
break,html.Screen,4_34_1,2023-09-16T19:21:59.643Z,,0,,,NaN,,,,,,false,,,,269241,269241,,269240,,269265,8,400,,,
break_continue,html.Screen,4_34_2,2023-09-16T19:21:59.643Z,,0,,,NaN,,,,,,false,,,,269241,269241,,269241,,269265,8,400,,,
sequence,flow.Sequence,4_34,2023-09-16T19:21:59.643Z,,0,,,4192,completion,,,,,false,,,,269241,269241,265032,265021,265049,269265,8,400,,,
trial,html.Screen,4_35_0,2023-09-16T19:22:05.043Z,,0,1,,5392,response,ISIC_0004558.JPG,14,ISIC_0059427.JPG,ISIC_0059427.JPG,false,0,keypress(z),500,274641,274641,269249,269241,269265,274671,8,400,36,,ISIC_0004558.JPG
break,html.Screen,4_35_1,2023-09-16T19:22:05.044Z,,0,,,NaN,,,,,,false,,,,274642,274641,,274641,,274671,8,400,,,
break_continue,html.Screen,4_35_2,2023-09-16T19:22:05.044Z,,0,,,NaN,,,,,,false,,,,274642,274642,,274642,,274671,8,400,,,
sequence,flow.Sequence,4_35,2023-09-16T19:22:05.044Z,,0,,,5377,completion,,,,,false,,,,274642,274642,269249,269241,269265,274671,8,400,,,
trial,html.Screen,4_36_0,2023-09-16T19:22:11.228Z,,0,1,,6171,response,ISIC_0027674.JPG,12,ISIC_0064006.JPG,ISIC_0027674.JPG,false,1,keypress(m),500,280825,280825,274654,274642,274671,280854,8,400,37,,ISIC_0064006.JPG
break,html.Screen,4_36_1,2023-09-16T19:22:11.229Z,,0,,,NaN,,,,,,false,,,,280826,280826,,280826,,280854,8,400,,,
break_continue,html.Screen,4_36_2,2023-09-16T19:22:11.229Z,,0,,,NaN,,,,,,false,,,,280826,280826,,280826,,280854,8,400,,,
sequence,flow.Sequence,4_36,2023-09-16T19:22:11.229Z,,0,,,6155,completion,,,,,false,,,,280826,280826,274654,274642,274671,280854,8,400,,,
trial,html.Screen,4_37_0,2023-09-16T19:22:15.835Z,,0,1,,4594,response,ISIC_0028666.JPG,15,ISIC_2598575.JPG,ISIC_0028666.JPG,false,1,keypress(m),500,285432,285432,280838,280826,280854,285456,8,400,38,,ISIC_2598575.JPG
break,html.Screen,4_37_1,2023-09-16T19:22:15.836Z,,0,,,NaN,,,,,,false,,,,285433,285433,,285432,,285456,8,400,,,
break_continue,html.Screen,4_37_2,2023-09-16T19:22:15.836Z,,0,,,NaN,,,,,,false,,,,285433,285433,,285433,,285456,8,400,,,
sequence,flow.Sequence,4_37,2023-09-16T19:22:15.836Z,,0,,,4579,completion,,,,,false,,,,285433,285433,280838,280826,280854,285456,8,400,,,
trial,html.Screen,4_38_0,2023-09-16T19:22:22.234Z,,0,1,,6392,response,ISIC_3653492.JPG,3,ISIC_0027879.JPG,ISIC_0027879.JPG,false,0,keypress(z),500,291831,291831,285439,285433,285456,291861,8,400,39,,ISIC_3653492.JPG
break,html.Screen,4_38_1,2023-09-16T19:22:22.234Z,,0,,,NaN,,,,,,false,,,,291832,291831,,291831,,291861,8,400,,,
break_continue,html.Screen,4_38_2,2023-09-16T19:22:22.235Z,,0,,,NaN,,,,,,false,,,,291832,291832,,291832,,291861,8,400,,,
sequence,flow.Sequence,4_38,2023-09-16T19:22:22.235Z,,0,,,6376,completion,,,,,false,,,,291832,291832,285439,285433,285456,291861,8,400,,,
trial,html.Screen,4_39_0,2023-09-16T19:22:27.432Z,,0,1,,5184,response,ISIC_0055731.JPG,0,ISIC_0028326.JPG,ISIC_0028326.JPG,false,0,keypress(z),500,297029,297029,291845,291832,291861,297063,8,400,40,,ISIC_0055731.JPG
break,html.Screen,4_39_1,2023-09-16T19:22:27.433Z,,0,,,NaN,,,,,,false,,,,297030.00000000006,297030.00000000006,,297030.00000000006,,297063,8,400,,,
break_continue,html.Screen,4_39_2,2023-09-16T19:22:27.433Z,,0,,,NaN,,,,,,false,,,,297030.00000000006,297030.00000000006,,297030.00000000006,,297063,8,400,,,
sequence,flow.Sequence,4_39,2023-09-16T19:22:27.433Z,,0,,,5169.000000000058,completion,,,,,false,,,,297030.00000000006,297030.00000000006,291845,291832,291861,297063,8,400,,,
trial,html.Screen,4_40_0,2023-09-16T19:22:31.985Z,,0,1,,4534,response,ISIC_2732573.JPG,2,ISIC_0033589.JPG,ISIC_0033589.JPG,false,0,keypress(z),500,301582,301581,297047,297030.00000000006,297063,301613,8,400,41,,ISIC_2732573.JPG
break,html.Screen,4_40_1,2023-09-16T19:22:31.985Z,,0,,,NaN,,,,,,false,,,,301582,301582,,301582,,301613,8,400,,,
break_continue,html.Screen,4_40_2,2023-09-16T19:22:31.985Z,,0,,,NaN,,,,,,false,,,,301582,301582,,301582,,301613,8,400,,,
sequence,flow.Sequence,4_40,2023-09-16T19:22:31.985Z,,0,,,4519,completion,,,,,false,,,,301582,301582,297047,297030.00000000006,297063,301613,8,400,,,
trial,html.Screen,4_41_0,2023-09-16T19:22:37.555Z,,0,1,,5555,response,ISIC_7579316.JPG,13,ISIC_0028136.JPG,ISIC_7579316.JPG,false,1,keypress(m),500,307152,307152,301597,301582,301613,307180,8,400,42,,ISIC_0028136.JPG
break,html.Screen,4_41_1,2023-09-16T19:22:37.556Z,,0,,,NaN,,,,,,false,,,,307152,307152,,307152,,307180,8,400,,,
break_continue,html.Screen,4_41_2,2023-09-16T19:22:37.556Z,,0,,,NaN,,,,,,false,,,,307153,307153,,307152,,307180,8,400,,,
sequence,flow.Sequence,4_41,2023-09-16T19:22:37.556Z,,0,,,5540,completion,,,,,false,,,,307153,307153,301597,301582,301613,307180,8,400,,,
trial,html.Screen,4_42_0,2023-09-16T19:22:42.030Z,,0,1,,4464.000000000058,response,ISIC_0029397.JPG,5,ISIC_4298624.JPG,ISIC_0029397.JPG,false,1,keypress(m),500,311626.00000000006,311626.00000000006,307162,307153,307180,311646,8,400,43,,ISIC_4298624.JPG
break,html.Screen,4_42_1,2023-09-16T19:22:42.030Z,,0,,,NaN,,,,,,false,,,,311627,311627,,311626.00000000006,,311646,8,400,,,
break_continue,html.Screen,4_42_2,2023-09-16T19:22:42.030Z,,0,,,NaN,,,,,,false,,,,311627,311627,,311627,,311646,8,400,,,
sequence,flow.Sequence,4_42,2023-09-16T19:22:42.031Z,,0,,,4447,completion,,,,,false,,,,311627,311627,307162,307153,307180,311646,8,400,,,
trial,html.Screen,4_43_0,2023-09-16T19:22:51.407Z,,0,1,,9374,response,ISIC_0067077.JPG,0,ISIC_0068000.JPG,ISIC_0067077.JPG,false,1,keypress(m),500,321003,321003,311629,311627,311646,321026,8,400,44,,ISIC_0068000.JPG
break,html.Screen,4_43_1,2023-09-16T19:22:51.408Z,,0,,,NaN,,,,,,false,,,,321004,321004,,321004,,321026,8,400,,,
break_continue,html.Screen,4_43_2,2023-09-16T19:22:51.408Z,,0,,,NaN,,,,,,false,,,,321004,321004,,321004,,321026,8,400,,,
sequence,flow.Sequence,4_43,2023-09-16T19:22:51.408Z,,0,,,9358,completion,,,,,false,,,,321004,321004,311629,311627,311646,321026,8,400,,,
trial,html.Screen,4_44_0,2023-09-16T19:23:00.713Z,,0,1,,9299,response,ISIC_0033585.JPG,14,ISIC_6176182.JPG,ISIC_0033585.JPG,false,1,keypress(m),500,330309,330309,321010,321004,321026,330335,8,400,45,,ISIC_6176182.JPG
break,html.Screen,4_44_1,2023-09-16T19:23:00.713Z,,0,,,NaN,,,,,,false,,,,330310,330309,,330309,,330335,8,400,,,
break_continue,html.Screen,4_44_2,2023-09-16T19:23:00.713Z,,0,,,NaN,,,,,,false,,,,330310,330310,,330310,,330335,8,400,,,
sequence,flow.Sequence,4_44,2023-09-16T19:23:00.714Z,,0,,,9284,completion,,,,,false,,,,330310,330310,321010,321004,321026,330335,8,400,,,
trial,html.Screen,4_45_0,2023-09-16T19:23:05.287Z,,0,1,,4565,response,ISIC_0032762.JPG,15,ISIC_9106601.JPG,ISIC_9106601.JPG,false,0,keypress(z),500,334883,334883,330318,330310,330335,334919,8,400,46,,ISIC_0032762.JPG
break,html.Screen,4_45_1,2023-09-16T19:23:05.287Z,,0,,,NaN,,,,,,false,,,,334883,334883,,334883,,334919,8,400,,,
break_continue,html.Screen,4_45_2,2023-09-16T19:23:05.288Z,,0,,,NaN,,,,,,false,,,,334884,334884,,334884,,334919,8,400,,,
sequence,flow.Sequence,4_45,2023-09-16T19:23:05.288Z,,0,,,4549,completion,,,,,false,,,,334884,334884,330318,330310,330335,334919,8,400,,,
trial,html.Screen,4_46_0,2023-09-16T19:23:15.167Z,,0,1,,9860.000000000058,response,ISIC_8814672.JPG,15,ISIC_0007760.JPG,ISIC_0007760.JPG,false,0,keypress(z),500,344763.00000000006,344763.00000000006,334903,334884,334919,344791,8,400,47,,ISIC_8814672.JPG
break,html.Screen,4_46_1,2023-09-16T19:23:15.167Z,,0,,,NaN,,,,,,false,,,,344763.00000000006,344763.00000000006,,344763.00000000006,,344791,8,400,,,
break_continue,html.Screen,4_46_2,2023-09-16T19:23:15.168Z,,0,,,NaN,,,,,,false,,,,344763.00000000006,344763.00000000006,,344763.00000000006,,344791,8,400,,,
sequence,flow.Sequence,4_46,2023-09-16T19:23:15.168Z,,0,,,9844.000000000058,completion,,,,,false,,,,344764,344763.00000000006,334903,334884,334919,344791,8,400,,,
trial,html.Screen,4_47_0,2023-09-16T19:23:19.816Z,,0,1,,4637.000000000058,response,ISIC_7870290.JPG,7,ISIC_0069633.JPG,ISIC_7870290.JPG,false,1,keypress(m),500,349412.00000000006,349412.00000000006,344775,344764,344791,349442,8,400,48,,ISIC_0069633.JPG
break,html.Screen,4_47_1,2023-09-16T19:23:19.817Z,,0,,,NaN,,,,,,false,,,,349413,349413,,349412.00000000006,,349442,8,400,,,
break_continue,html.Screen,4_47_2,2023-09-16T19:23:19.817Z,,0,,,NaN,,,,,,false,,,,349413,349413,,349413,,349442,8,400,,,
sequence,flow.Sequence,4_47,2023-09-16T19:23:19.817Z,,0,,,4622,completion,,,,,false,,,,349413,349413,344775,344764,344791,349442,8,400,,,
trial,html.Screen,4_48_0,2023-09-16T19:23:24.227Z,,0,1,,4398,response,ISIC_0004794.JPG,0,ISIC_0054073.JPG,ISIC_0054073.JPG,false,0,keypress(z),500,353823,353823,349425,349413,349442,353845,8,400,49,,ISIC_0004794.JPG
break,html.Screen,4_48_1,2023-09-16T19:23:24.228Z,,0,,,NaN,,,,,,false,,,,353824,353823,,353823,,353845,8,400,,,
break_continue,html.Screen,4_48_2,2023-09-16T19:23:24.228Z,,0,,,NaN,,,,,,false,,,,353824,353824,,353824,,353845,8,400,,,
sequence,flow.Sequence,4_48,2023-09-16T19:23:24.228Z,,0,,,4382,completion,,,,,false,,,,353824,353824,349425,349413,349442,353845,8,400,,,
trial,html.Screen,4_49_0,2023-09-16T19:23:28.966Z,,0,1,,4733.000000000058,response,ISIC_8684147.JPG,12,ISIC_0056364.JPG,ISIC_0056364.JPG,false,0,keypress(z),500,358561.00000000006,358561.00000000006,353828,353824,353845,358596,8,400,50,,ISIC_8684147.JPG
break,html.Screen,4_49_1,2023-09-16T19:23:38.977Z,,0,,,9992,timeout,,,,,false,,,,368572,368572,358579,358561.00000000006,358596,368588,8,400,,,
break_continue,html.Screen,4_49_2,2023-09-16T19:23:42.317Z,,0,,,3321,response,,,,,false,continue,keypress(Space),,371913,371893,368572,368572,368588,371938,8,400,,,
sequence,flow.Sequence,4_49,2023-09-16T19:23:42.318Z,,0,,,18048,completion,,,,,false,,,,371913,371893,353828,353824,353845,371938,8,400,,,
trial,html.Screen,4_50_0,2023-09-16T19:23:48.077Z,,0,2,,5751,response,ISIC_3446357.JPG,14,ISIC_0072173.JPG,ISIC_3446357.JPG,false,1,keypress(m),500,377672,377672,371921,371913,371938,377704,8,400,1,,ISIC_0072173.JPG
break,html.Screen,4_50_1,2023-09-16T19:23:48.078Z,,0,,,NaN,,,,,,false,,,,377673,377673,,377672,,377704,8,400,,,
break_continue,html.Screen,4_50_2,2023-09-16T19:23:48.078Z,,0,,,NaN,,,,,,false,,,,377673,377673,,377673,,377704,8,400,,,
sequence,flow.Sequence,4_50,2023-09-16T19:23:48.078Z,,0,,,5735,completion,,,,,false,,,,377673,377673,371921,371913,371938,377704,8,400,,,
trial,html.Screen,4_51_0,2023-09-16T19:23:52.062Z,,0,2,,3969,response,ISIC_0002745.JPG,8,ISIC_0072021.JPG,ISIC_0072021.JPG,false,0,keypress(z),500,381657,381657,377688,377673,377704,381681,8,400,2,,ISIC_0002745.JPG
break,html.Screen,4_51_1,2023-09-16T19:23:52.063Z,,0,,,NaN,,,,,,false,,,,381658,381658,,381657,,381681,8,400,,,
break_continue,html.Screen,4_51_2,2023-09-16T19:23:52.063Z,,0,,,NaN,,,,,,false,,,,381658,381658,,381658,,381681,8,400,,,
sequence,flow.Sequence,4_51,2023-09-16T19:23:52.063Z,,0,,,3954,completion,,,,,false,,,,381658,381658,377688,377673,377704,381681,8,400,,,
trial,html.Screen,4_52_0,2023-09-16T19:23:56.278Z,,0,2,,4209,response,ISIC_6704623.JPG,4,ISIC_0011176.JPG,ISIC_0011176.JPG,false,0,keypress(z),500,385873,385873,381664,381658,381681,385897,8,400,3,,ISIC_6704623.JPG
break,html.Screen,4_52_1,2023-09-16T19:23:56.279Z,,0,,,NaN,,,,,,false,,,,385874,385873,,385873,,385897,8,400,,,
break_continue,html.Screen,4_52_2,2023-09-16T19:23:56.279Z,,0,,,NaN,,,,,,false,,,,385874,385874,,385874,,385897,8,400,,,
sequence,flow.Sequence,4_52,2023-09-16T19:23:56.279Z,,0,,,4193,completion,,,,,false,,,,385874,385874,381664,381658,381681,385897,8,400,,,
trial,html.Screen,4_53_0,2023-09-16T19:24:02.324Z,,0,2,,6038,response,ISIC_0001140.JPG,12,ISIC_5048124.JPG,ISIC_0001140.JPG,false,1,keypress(m),500,391919,391918,385880,385874,385897,391947,8,400,4,,ISIC_5048124.JPG
break,html.Screen,4_53_1,2023-09-16T19:24:02.324Z,,0,,,NaN,,,,,,false,,,,391919,391919,,391919,,391947,8,400,,,
break_continue,html.Screen,4_53_2,2023-09-16T19:24:02.325Z,,0,,,NaN,,,,,,false,,,,391919,391919,,391919,,391947,8,400,,,
sequence,flow.Sequence,4_53,2023-09-16T19:24:02.325Z,,0,,,6022,completion,,,,,false,,,,391919,391919,385880,385874,385897,391947,8,400,,,
trial,html.Screen,4_54_0,2023-09-16T19:24:07.995Z,,0,2,,5660.000000000058,response,ISIC_0068166.JPG,0,ISIC_0010770.JPG,ISIC_0068166.JPG,false,1,keypress(m),500,397590.00000000006,397590.00000000006,391930,391919,391947,397619,8,400,5,,ISIC_0010770.JPG
break,html.Screen,4_54_1,2023-09-16T19:24:07.996Z,,0,,,NaN,,,,,,false,,,,397591,397591,,397590.00000000006,,397619,8,400,,,
break_continue,html.Screen,4_54_2,2023-09-16T19:24:07.996Z,,0,,,NaN,,,,,,false,,,,397591,397591,,397591,,397619,8,400,,,
sequence,flow.Sequence,4_54,2023-09-16T19:24:07.996Z,,0,,,5644,completion,,,,,false,,,,397591,397591,391930,391919,391947,397619,8,400,,,
trial,html.Screen,4_55_0,2023-09-16T19:24:13.046Z,,0,2,,5038,response,ISIC_1484525.JPG,0,ISIC_1254469.JPG,ISIC_1484525.JPG,false,1,keypress(m),500,402641,402641,397603,397591,397619,402662,8,400,6,,ISIC_1254469.JPG
break,html.Screen,4_55_1,2023-09-16T19:24:13.047Z,,0,,,NaN,,,,,,false,,,,402641,402641,,402641,,402662,8,400,,,
break_continue,html.Screen,4_55_2,2023-09-16T19:24:13.047Z,,0,,,NaN,,,,,,false,,,,402642,402642,,402641,,402662,8,400,,,
sequence,flow.Sequence,4_55,2023-09-16T19:24:13.047Z,,0,,,5023,completion,,,,,false,,,,402642,402642,397603,397591,397619,402662,8,400,,,
trial,html.Screen,4_56_0,2023-09-16T19:24:17.894Z,,0,2,,4842,response,ISIC_0455743.JPG,1,ISIC_0015166.JPG,ISIC_0015166.JPG,false,0,keypress(z),500,407489.00000000006,407488,402646,402642,402662,407513,8,400,7,,ISIC_0455743.JPG
break,html.Screen,4_56_1,2023-09-16T19:24:17.895Z,,0,,,NaN,,,,,,false,,,,407489.00000000006,407489.00000000006,,407489.00000000006,,407513,8,400,,,
break_continue,html.Screen,4_56_2,2023-09-16T19:24:17.895Z,,0,,,NaN,,,,,,false,,,,407489.00000000006,407489.00000000006,,407489.00000000006,,407513,8,400,,,
sequence,flow.Sequence,4_56,2023-09-16T19:24:17.895Z,,0,,,4827.000000000058,completion,,,,,false,,,,407489.00000000006,407489.00000000006,402646,402642,402662,407513,8,400,,,
trial,html.Screen,4_57_0,2023-09-16T19:24:22.476Z,,0,2,,4573,response,ISIC_0063369.JPG,16,ISIC_0057496.JPG,ISIC_0063369.JPG,false,1,keypress(m),500,412070,412070,407497,407489.00000000006,407513,412096,8,400,8,,ISIC_0057496.JPG
break,html.Screen,4_57_1,2023-09-16T19:24:22.476Z,,0,,,NaN,,,,,,false,,,,412070,412070,,412070,,412096,8,400,,,
break_continue,html.Screen,4_57_2,2023-09-16T19:24:22.476Z,,0,,,NaN,,,,,,false,,,,412071,412070,,412070,,412096,8,400,,,
sequence,flow.Sequence,4_57,2023-09-16T19:24:22.476Z,,0,,,4557,completion,,,,,false,,,,412071,412070,407497,407489.00000000006,407513,412096,8,400,,,
trial,html.Screen,4_58_0,2023-09-16T19:24:27.398Z,,0,2,,4912,response,ISIC_0031397.JPG,13,ISIC_0033804.JPG,ISIC_0031397.JPG,false,1,keypress(m),500,416993,416993,412081,412071,412096,417017,8,400,9,,ISIC_0033804.JPG
break,html.Screen,4_58_1,2023-09-16T19:24:27.399Z,,0,,,NaN,,,,,,false,,,,416993,416993,,416993,,417017,8,400,,,
break_continue,html.Screen,4_58_2,2023-09-16T19:24:27.399Z,,0,,,NaN,,,,,,false,,,,416993,416993,,416993,,417017,8,400,,,
sequence,flow.Sequence,4_58,2023-09-16T19:24:27.399Z,,0,,,4897,completion,,,,,false,,,,416994,416993,412081,412071,412096,417017,8,400,,,
trial,html.Screen,4_59_0,2023-09-16T19:24:32.233Z,,0,2,,4827,response,ISIC_3368468.JPG,15,ISIC_9067033.JPG,ISIC_9067033.JPG,false,0,keypress(z),500,421827,421827,417000,416994,417017,421851,8,400,10,,ISIC_3368468.JPG
break,html.Screen,4_59_1,2023-09-16T19:24:32.233Z,,0,,,NaN,,,,,,false,,,,421828.00000000006,421827,,421827,,421851,8,400,,,
break_continue,html.Screen,4_59_2,2023-09-16T19:24:32.234Z,,0,,,NaN,,,,,,false,,,,421828.00000000006,421828.00000000006,,421828.00000000006,,421851,8,400,,,
sequence,flow.Sequence,4_59,2023-09-16T19:24:32.234Z,,0,,,4811.000000000058,completion,,,,,false,,,,421828.00000000006,421828.00000000006,417000,416994,417017,421851,8,400,,,
trial,html.Screen,4_60_0,2023-09-16T19:24:41.737Z,,0,2,,9497,response,ISIC_8521610.JPG,15,ISIC_8612828.JPG,ISIC_8521610.JPG,false,1,keypress(m),500,431331,431331,421834,421828.00000000006,421851,431361,8,400,11,,ISIC_8612828.JPG
break,html.Screen,4_60_1,2023-09-16T19:24:41.738Z,,0,,,NaN,,,,,,false,,,,431331,431331,,431331,,431361,8,400,,,
break_continue,html.Screen,4_60_2,2023-09-16T19:24:41.738Z,,0,,,NaN,,,,,,false,,,,431332,431332,,431332,,431361,8,400,,,
sequence,flow.Sequence,4_60,2023-09-16T19:24:41.738Z,,0,,,9481,completion,,,,,false,,,,431332,431332,421834,421828.00000000006,421851,431361,8,400,,,
trial,html.Screen,4_61_0,2023-09-16T19:24:46.187Z,,0,2,,4437,response,ISIC_0638857.JPG,13,ISIC_0013497.JPG,ISIC_0013497.JPG,false,0,keypress(z),500,435781,435781,431344,431332,431361,435813,8,400,12,,ISIC_0638857.JPG
break,html.Screen,4_61_1,2023-09-16T19:24:46.188Z,,0,,,NaN,,,,,,false,,,,435781,435781,,435781,,435813,8,400,,,
break_continue,html.Screen,4_61_2,2023-09-16T19:24:46.188Z,,0,,,NaN,,,,,,false,,,,435782,435782,,435782,,435813,8,400,,,
sequence,flow.Sequence,4_61,2023-09-16T19:24:46.188Z,,0,,,4421,completion,,,,,false,,,,435782,435782,431344,431332,431361,435813,8,400,,,
trial,html.Screen,4_62_0,2023-09-16T19:24:50.267Z,,0,2,,4062,response,ISIC_0357043.JPG,1,ISIC_7575246.JPG,ISIC_0357043.JPG,false,1,keypress(m),500,439860,439860,435798,435782,435813,439898,8,400,13,,ISIC_7575246.JPG
break,html.Screen,4_62_1,2023-09-16T19:24:50.267Z,,0,,,NaN,,,,,,false,,,,439861,439861,,439860,,439898,8,400,,,
break_continue,html.Screen,4_62_2,2023-09-16T19:24:50.268Z,,0,,,NaN,,,,,,false,,,,439861,439861,,439861,,439898,8,400,,,
sequence,flow.Sequence,4_62,2023-09-16T19:24:50.268Z,,0,,,4048,completion,,,,,false,,,,439861,439861,435798,435782,435813,439898,8,400,,,
trial,html.Screen,4_63_0,2023-09-16T19:24:54.845Z,,0,2,,4559,response,ISIC_0026909.JPG,13,ISIC_9741917.JPG,ISIC_9741917.JPG,false,0,keypress(z),500,444439,444439,439880,439861,439898,444464,8,400,14,,ISIC_0026909.JPG
break,html.Screen,4_63_1,2023-09-16T19:24:54.846Z,,0,,,NaN,,,,,,false,,,,444439,444439,,444439,,444464,8,400,,,
break_continue,html.Screen,4_63_2,2023-09-16T19:24:54.846Z,,0,,,NaN,,,,,,false,,,,444439,444439,,444439,,444464,8,400,,,
sequence,flow.Sequence,4_63,2023-09-16T19:24:54.846Z,,0,,,4541,completion,,,,,false,,,,444440,444439,439880,439861,439898,444464,8,400,,,
trial,html.Screen,4_64_0,2023-09-16T19:24:58.775Z,,0,2,,3922,response,ISIC_0063496.JPG,3,ISIC_5718805.JPG,ISIC_0063496.JPG,false,1,keypress(m),500,448369,448369,444447,444440,444464,448399,8,400,15,,ISIC_5718805.JPG
break,html.Screen,4_64_1,2023-09-16T19:24:58.776Z,,0,,,NaN,,,,,,false,,,,448369,448369,,448369,,448399,8,400,,,
break_continue,html.Screen,4_64_2,2023-09-16T19:24:58.776Z,,0,,,NaN,,,,,,false,,,,448370,448370,,448370,,448399,8,400,,,
sequence,flow.Sequence,4_64,2023-09-16T19:24:58.776Z,,0,,,3906,completion,,,,,false,,,,448370,448370,444447,444440,444464,448399,8,400,,,
trial,html.Screen,4_65_0,2023-09-16T19:25:04.358Z,,0,2,,5570,response,ISIC_0001141.JPG,3,ISIC_5457229.JPG,ISIC_0001141.JPG,false,1,keypress(m),500,453951,453951,448381,448370,448399,453981,8,400,16,,ISIC_5457229.JPG
break,html.Screen,4_65_1,2023-09-16T19:25:04.359Z,,0,,,NaN,,,,,,false,,,,453952,453952,,453951,,453981,8,400,,,
break_continue,html.Screen,4_65_2,2023-09-16T19:25:04.359Z,,0,,,NaN,,,,,,false,,,,453952,453952,,453952,,453981,8,400,,,
sequence,flow.Sequence,4_65,2023-09-16T19:25:04.359Z,,0,,,5553,completion,,,,,false,,,,453952,453952,448381,448370,448399,453981,8,400,,,
trial,html.Screen,4_66_0,2023-09-16T19:25:10.509Z,,0,2,,6137.000000000058,response,ISIC_0066401.JPG,6,ISIC_1241817.JPG,ISIC_0066401.JPG,false,1,keypress(m),500,460102.00000000006,460102.00000000006,453965,453952,453981,460131,8,400,17,,ISIC_1241817.JPG
break,html.Screen,4_66_1,2023-09-16T19:25:10.510Z,,0,,,NaN,,,,,,false,,,,460103,460103,,460103,,460131,8,400,,,
break_continue,html.Screen,4_66_2,2023-09-16T19:25:10.510Z,,0,,,NaN,,,,,,false,,,,460103,460103,,460103,,460131,8,400,,,
sequence,flow.Sequence,4_66,2023-09-16T19:25:10.510Z,,0,,,6122,completion,,,,,false,,,,460103,460103,453965,453952,453981,460131,8,400,,,
trial,html.Screen,4_67_0,2023-09-16T19:25:14.502Z,,0,2,,3980,response,ISIC_1269461.JPG,0,ISIC_0062456.JPG,ISIC_0062456.JPG,false,0,keypress(z),500,464095,464095,460115,460104,460131,464128,8,400,18,,ISIC_1269461.JPG
break,html.Screen,4_67_1,2023-09-16T19:25:14.503Z,,0,,,NaN,,,,,,false,,,,464096,464096,,464096,,464128,8,400,,,
break_continue,html.Screen,4_67_2,2023-09-16T19:25:14.503Z,,0,,,NaN,,,,,,false,,,,464096,464096,,464096,,464128,8,400,,,
sequence,flow.Sequence,4_67,2023-09-16T19:25:14.503Z,,0,,,3965,completion,,,,,false,,,,464096,464096,460115,460104,460131,464128,8,400,,,
trial,html.Screen,4_68_0,2023-09-16T19:25:19.232Z,,0,2,,4714,response,ISIC_7545340.JPG,2,ISIC_2513018.JPG,ISIC_2513018.JPG,false,0,keypress(z),500,468825,468825,464111,464096,464128,468850,8,400,19,,ISIC_7545340.JPG
break,html.Screen,4_68_1,2023-09-16T19:25:19.233Z,,0,,,NaN,,,,,,false,,,,468826,468826,,468825,,468850,8,400,,,
break_continue,html.Screen,4_68_2,2023-09-16T19:25:19.233Z,,0,,,NaN,,,,,,false,,,,468826,468826,,468826,,468850,8,400,,,
sequence,flow.Sequence,4_68,2023-09-16T19:25:19.233Z,,0,,,4698,completion,,,,,false,,,,468826,468826,464111,464096,464128,468850,8,400,,,
trial,html.Screen,4_69_0,2023-09-16T19:25:25.878Z,,0,2,,6639,response,ISIC_1372928.JPG,11,ISIC_0033729.JPG,ISIC_1372928.JPG,false,1,keypress(m),500,475471,475471,468832,468826,468850,475500,8,400,20,,ISIC_0033729.JPG
break,html.Screen,4_69_1,2023-09-16T19:25:25.879Z,,0,,,NaN,,,,,,false,,,,475471,475471,,475471,,475500,8,400,,,
break_continue,html.Screen,4_69_2,2023-09-16T19:25:25.879Z,,0,,,NaN,,,,,,false,,,,475472.00000000006,475472.00000000006,,475472.00000000006,,475500,8,400,,,
sequence,flow.Sequence,4_69,2023-09-16T19:25:25.879Z,,0,,,6622.000000000058,completion,,,,,false,,,,475472.00000000006,475472.00000000006,468832,468826,468850,475500,8,400,,,
trial,html.Screen,4_70_0,2023-09-16T19:25:37.391Z,,0,2,,11512,timeout,ISIC_0033966.JPG,1,ISIC_0060222.JPG,ISIC_0060222.JPG,false,,,500,486983,486983,475484,475472.00000000006,475500,487012,8,400,21,,ISIC_0033966.JPG
break,html.Screen,4_70_1,2023-09-16T19:25:37.391Z,,0,,,NaN,,,,,,false,,,,486984.00000000006,486984.00000000006,,486983,,487012,8,400,,,
break_continue,html.Screen,4_70_2,2023-09-16T19:25:37.392Z,,0,,,NaN,,,,,,false,,,,486984.00000000006,486984.00000000006,,486984.00000000006,,487012,8,400,,,
sequence,flow.Sequence,4_70,2023-09-16T19:25:37.392Z,,0,,,11484.000000000058,completion,,,,,false,,,,486984.00000000006,486984.00000000006,475484,475472.00000000006,475500,487012,8,400,,,
trial,html.Screen,4_71_0,2023-09-16T19:25:43.023Z,,0,2,,5616,response,ISIC_4720306.JPG,14,ISIC_7747998.JPG,ISIC_4720306.JPG,false,1,keypress(m),500,492615,492615,486999,486984.00000000006,487012,492640,8,400,22,,ISIC_7747998.JPG
break,html.Screen,4_71_1,2023-09-16T19:25:43.023Z,,0,,,NaN,,,,,,false,,,,492616,492615,,492615,,492640,8,400,,,
break_continue,html.Screen,4_71_2,2023-09-16T19:25:43.023Z,,0,,,NaN,,,,,,false,,,,492616,492616,,492616,,492640,8,400,,,
sequence,flow.Sequence,4_71,2023-09-16T19:25:43.024Z,,0,,,5604,completion,,,,,false,,,,492616,492616,486999,486984.00000000006,487012,492640,8,400,,,
trial,html.Screen,4_72_0,2023-09-16T19:25:48.289Z,,0,2,,5258,response,ISIC_0032988.JPG,0,ISIC_0000517.JPG,ISIC_0032988.JPG,false,1,keypress(m),500,497882,497881,492623,492616,492640,497907,8,400,23,,ISIC_0000517.JPG
break,html.Screen,4_72_1,2023-09-16T19:25:48.290Z,,0,,,NaN,,,,,,false,,,,497882,497882,,497882,,497907,8,400,,,
break_continue,html.Screen,4_72_2,2023-09-16T19:25:48.290Z,,0,,,NaN,,,,,,false,,,,497882,497882,,497882,,497907,8,400,,,
sequence,flow.Sequence,4_72,2023-09-16T19:25:48.290Z,,0,,,5242,completion,,,,,false,,,,497882,497882,492623,492616,492640,497907,8,400,,,
trial,html.Screen,4_73_0,2023-09-16T19:25:52.073Z,,0,2,,3774,response,ISIC_0065774.JPG,1,ISIC_8266094.JPG,ISIC_0065774.JPG,false,1,keypress(m),500,501665,501665,497891,497882,497907,501691,8,400,24,,ISIC_8266094.JPG
break,html.Screen,4_73_1,2023-09-16T19:25:52.074Z,,0,,,NaN,,,,,,false,,,,501666,501666,,501665,,501691,8,400,,,
break_continue,html.Screen,4_73_2,2023-09-16T19:25:52.074Z,,0,,,NaN,,,,,,false,,,,501666,501666,,501666,,501691,8,400,,,
sequence,flow.Sequence,4_73,2023-09-16T19:25:52.074Z,,0,,,3759,completion,,,,,false,,,,501666,501666,497891,497882,497907,501691,8,400,,,
trial,html.Screen,4_74_0,2023-09-16T19:25:56.591Z,,0,2,,4507,response,ISIC_5787312.JPG,14,ISIC_0650126.JPG,ISIC_0650126.JPG,false,0,keypress(z),500,506183,506182,501675,501666,501691,506210,8,400,25,,ISIC_5787312.JPG
break,html.Screen,4_74_1,2023-09-16T19:25:56.591Z,,0,,,NaN,,,,,,false,,,,506183,506183,,506183,,506210,8,400,,,
break_continue,html.Screen,4_74_2,2023-09-16T19:25:56.591Z,,0,,,NaN,,,,,,false,,,,506183,506183,,506183,,506210,8,400,,,
sequence,flow.Sequence,4_74,2023-09-16T19:25:56.591Z,,0,,,4492,completion,,,,,false,,,,506184,506183,501675,501666,501691,506210,8,400,,,
trial,html.Screen,4_75_0,2023-09-16T19:26:00.708Z,,0,2,,4107,response,ISIC_0063745.JPG,16,ISIC_0034256.JPG,ISIC_0034256.JPG,false,0,keypress(z),500,510300,510300,506193,506184,506210,510332,8,400,26,,ISIC_0063745.JPG
break,html.Screen,4_75_1,2023-09-16T19:26:00.709Z,,0,,,NaN,,,,,,false,,,,510301,510300,,510300,,510332,8,400,,,
break_continue,html.Screen,4_75_2,2023-09-16T19:26:00.709Z,,0,,,NaN,,,,,,false,,,,510301,510301,,510301,,510332,8,400,,,
sequence,flow.Sequence,4_75,2023-09-16T19:26:00.709Z,,0,,,4091,completion,,,,,false,,,,510301,510301,506193,506184,506210,510332,8,400,,,
trial,html.Screen,4_76_0,2023-09-16T19:26:07.090Z,,0,2,,6367,response,ISIC_5483119.JPG,16,ISIC_0653633.JPG,ISIC_0653633.JPG,false,0,keypress(z),500,516682,516682,510315,510301,510332,516715,8,400,27,,ISIC_5483119.JPG
break,html.Screen,4_76_1,2023-09-16T19:26:07.091Z,,0,,,NaN,,,,,,false,,,,516683,516683,,516682,,516715,8,400,,,
break_continue,html.Screen,4_76_2,2023-09-16T19:26:07.091Z,,0,,,NaN,,,,,,false,,,,516683,516683,,516683,,516715,8,400,,,
sequence,flow.Sequence,4_76,2023-09-16T19:26:07.091Z,,0,,,6351,completion,,,,,false,,,,516683,516683,510315,510301,510332,516715,8,400,,,
trial,html.Screen,4_77_0,2023-09-16T19:26:13.060Z,,0,2,,5954.000000000058,response,ISIC_2384274.JPG,4,ISIC_0007740.JPG,ISIC_2384274.JPG,false,1,keypress(m),500,522652.00000000006,522651.00000000006,516697,516683,516715,522688,8,400,28,,ISIC_0007740.JPG
break,html.Screen,4_77_1,2023-09-16T19:26:13.061Z,,0,,,NaN,,,,,,false,,,,522652.00000000006,522652.00000000006,,522652.00000000006,,522688,8,400,,,
break_continue,html.Screen,4_77_2,2023-09-16T19:26:13.061Z,,0,,,NaN,,,,,,false,,,,522652.00000000006,522652.00000000006,,522652.00000000006,,522688,8,400,,,
sequence,flow.Sequence,4_77,2023-09-16T19:26:13.061Z,,0,,,5937.000000000058,completion,,,,,false,,,,522653,522652.00000000006,516697,516683,516715,522688,8,400,,,
trial,html.Screen,4_78_0,2023-09-16T19:26:18.099Z,,0,2,,5019,response,ISIC_0033876.JPG,13,ISIC_0064102.JPG,ISIC_0064102.JPG,false,0,keypress(z),500,527690,527690,522671,522653,522688,527713,8,400,29,,ISIC_0033876.JPG
break,html.Screen,4_78_1,2023-09-16T19:26:18.099Z,,0,,,NaN,,,,,,false,,,,527691,527691,,527690,,527713,8,400,,,
break_continue,html.Screen,4_78_2,2023-09-16T19:26:18.099Z,,0,,,NaN,,,,,,false,,,,527691,527691,,527691,,527713,8,400,,,
sequence,flow.Sequence,4_78,2023-09-16T19:26:18.099Z,,0,,,5003,completion,,,,,false,,,,527691,527691,522671,522653,522688,527713,8,400,,,
trial,html.Screen,4_79_0,2023-09-16T19:26:24.044Z,,0,2,,5939,response,ISIC_0010591.JPG,12,ISIC_5666345.JPG,ISIC_0010591.JPG,false,1,keypress(m),500,533635,533635,527696,527691,527713,533671,8,400,30,,ISIC_5666345.JPG
break,html.Screen,4_79_1,2023-09-16T19:26:24.045Z,,0,,,NaN,,,,,,false,,,,533636,533636,,533636,,533671,8,400,,,
break_continue,html.Screen,4_79_2,2023-09-16T19:26:24.045Z,,0,,,NaN,,,,,,false,,,,533636,533636,,533636,,533671,8,400,,,
sequence,flow.Sequence,4_79,2023-09-16T19:26:24.045Z,,0,,,5923,completion,,,,,false,,,,533636,533636,527696,527691,527713,533671,8,400,,,
trial,html.Screen,4_80_0,2023-09-16T19:26:29.550Z,,0,2,,5486,response,ISIC_0061625.JPG,6,ISIC_5111521.JPG,ISIC_5111521.JPG,false,0,keypress(z),500,539141,539141,533655,533636,533671,539171,8,400,31,,ISIC_0061625.JPG
break,html.Screen,4_80_1,2023-09-16T19:26:29.551Z,,0,,,NaN,,,,,,false,,,,539142,539142,,539141,,539171,8,400,,,
break_continue,html.Screen,4_80_2,2023-09-16T19:26:29.551Z,,0,,,NaN,,,,,,false,,,,539142,539142,,539142,,539171,8,400,,,
sequence,flow.Sequence,4_80,2023-09-16T19:26:29.551Z,,0,,,5471,completion,,,,,false,,,,539142,539142,533655,533636,533671,539171,8,400,,,
trial,html.Screen,4_81_0,2023-09-16T19:26:33.320Z,,0,2,,3756,response,ISIC_0033196.JPG,1,ISIC_9887341.JPG,ISIC_0033196.JPG,false,1,keypress(m),500,542912,542911,539155,539142,539171,542941,8,400,32,,ISIC_9887341.JPG
break,html.Screen,4_81_1,2023-09-16T19:26:33.321Z,,0,,,NaN,,,,,,false,,,,542912,542912,,542912,,542941,8,400,,,
break_continue,html.Screen,4_81_2,2023-09-16T19:26:33.321Z,,0,,,NaN,,,,,,false,,,,542913,542912,,542912,,542941,8,400,,,
sequence,flow.Sequence,4_81,2023-09-16T19:26:33.321Z,,0,,,3741,completion,,,,,false,,,,542913,542912,539155,539142,539171,542941,8,400,,,
trial,html.Screen,4_82_0,2023-09-16T19:26:38.545Z,,0,2,,5212,response,ISIC_0028379.JPG,14,ISIC_9470020.JPG,ISIC_0028379.JPG,false,1,keypress(m),500,548136,548136,542924,542913,542941,548163,8,400,33,,ISIC_9470020.JPG
break,html.Screen,4_82_1,2023-09-16T19:26:38.546Z,,0,,,NaN,,,,,,false,,,,548137,548137,,548137,,548163,8,400,,,
break_continue,html.Screen,4_82_2,2023-09-16T19:26:38.546Z,,0,,,NaN,,,,,,false,,,,548137,548137,,548137,,548163,8,400,,,
sequence,flow.Sequence,4_82,2023-09-16T19:26:38.546Z,,0,,,5196,completion,,,,,false,,,,548137,548137,542924,542913,542941,548163,8,400,,,
trial,html.Screen,4_83_0,2023-09-16T19:26:42.796Z,,0,2,,4241,response,ISIC_7260013.JPG,13,ISIC_1154109.JPG,ISIC_1154109.JPG,false,0,keypress(z),500,552387,552387,548146,548137,548163,552414,8,400,34,,ISIC_7260013.JPG
break,html.Screen,4_83_1,2023-09-16T19:26:42.797Z,,0,,,NaN,,,,,,false,,,,552388,552388,,552387,,552414,8,400,,,
break_continue,html.Screen,4_83_2,2023-09-16T19:26:42.797Z,,0,,,NaN,,,,,,false,,,,552388,552388,,552388,,552414,8,400,,,
sequence,flow.Sequence,4_83,2023-09-16T19:26:42.797Z,,0,,,4225,completion,,,,,false,,,,552388,552388,548146,548137,548163,552414,8,400,,,
trial,html.Screen,4_84_0,2023-09-16T19:26:47.707Z,,0,2,,4900,response,ISIC_0011315.JPG,7,ISIC_0787229.JPG,ISIC_0011315.JPG,false,1,keypress(m),500,557298,557297,552397,552388,552414,557331,8,400,35,,ISIC_0787229.JPG
break,html.Screen,4_84_1,2023-09-16T19:26:47.707Z,,0,,,NaN,,,,,,false,,,,557298,557298,,557298,,557331,8,400,,,
break_continue,html.Screen,4_84_2,2023-09-16T19:26:47.708Z,,0,,,NaN,,,,,,false,,,,557298,557298,,557298,,557331,8,400,,,
sequence,flow.Sequence,4_84,2023-09-16T19:26:47.708Z,,0,,,4884,completion,,,,,false,,,,557298,557298,552397,552388,552414,557331,8,400,,,
trial,html.Screen,4_85_0,2023-09-16T19:26:51.818Z,,0,2,,4093,response,ISIC_0065823.JPG,4,ISIC_7141361.JPG,ISIC_0065823.JPG,false,1,keypress(m),500,561408,561408,557315,557299,557331,561434,8,400,36,,ISIC_7141361.JPG
break,html.Screen,4_85_1,2023-09-16T19:26:51.818Z,,0,,,NaN,,,,,,false,,,,561409,561409,,561408,,561434,8,400,,,
break_continue,html.Screen,4_85_2,2023-09-16T19:26:51.818Z,,0,,,NaN,,,,,,false,,,,561409,561409,,561409,,561434,8,400,,,
sequence,flow.Sequence,4_85,2023-09-16T19:26:51.818Z,,0,,,4078,completion,,,,,false,,,,561409,561409,557315,557299,557331,561434,8,400,,,
trial,html.Screen,4_86_0,2023-09-16T19:26:55.556Z,,0,2,,3730,response,ISIC_0030541.JPG,13,ISIC_0032917.JPG,ISIC_0032917.JPG,false,0,keypress(z),500,565147,565147,561417,561409,561434,565168,8,400,37,,ISIC_0030541.JPG
break,html.Screen,4_86_1,2023-09-16T19:26:55.557Z,,0,,,NaN,,,,,,false,,,,565147,565147,,565147,,565168,8,400,,,
break_continue,html.Screen,4_86_2,2023-09-16T19:26:55.557Z,,0,,,NaN,,,,,,false,,,,565148,565148,,565148,,565168,8,400,,,
sequence,flow.Sequence,4_86,2023-09-16T19:26:55.557Z,,0,,,3714,completion,,,,,false,,,,565148,565148,561417,561409,561434,565168,8,400,,,
trial,html.Screen,4_87_0,2023-09-16T19:26:59.409Z,,0,2,,3849,response,ISIC_0011848.JPG,14,ISIC_5409902.JPG,ISIC_0011848.JPG,false,1,keypress(m),500,569000,569000,565151,565148,565168,569036,8,400,38,,ISIC_5409902.JPG
break,html.Screen,4_87_1,2023-09-16T19:26:59.410Z,,0,,,NaN,,,,,,false,,,,569001,569000,,569000,,569036,8,400,,,
break_continue,html.Screen,4_87_2,2023-09-16T19:26:59.410Z,,0,,,NaN,,,,,,false,,,,569001,569001,,569001,,569036,8,400,,,
sequence,flow.Sequence,4_87,2023-09-16T19:26:59.410Z,,0,,,3833,completion,,,,,false,,,,569001,569001,565151,565148,565168,569036,8,400,,,
trial,html.Screen,4_88_0,2023-09-16T19:27:04.127Z,,0,2,,4699,response,ISIC_0010372.JPG,14,ISIC_0056534.JPG,ISIC_0010372.JPG,false,1,keypress(m),500,573718,573718,569019,569001,569036,573742,8,400,39,,ISIC_0056534.JPG
break,html.Screen,4_88_1,2023-09-16T19:27:04.128Z,,0,,,NaN,,,,,,false,,,,573718,573718,,573718,,573742,8,400,,,
break_continue,html.Screen,4_88_2,2023-09-16T19:27:04.128Z,,0,,,NaN,,,,,,false,,,,573719,573719,,573719,,573742,8,400,,,
sequence,flow.Sequence,4_88,2023-09-16T19:27:04.128Z,,0,,,4683,completion,,,,,false,,,,573719,573719,569019,569001,569036,573742,8,400,,,
trial,html.Screen,4_89_0,2023-09-16T19:27:11.123Z,,0,2,,6989,response,ISIC_0010468.JPG,0,ISIC_0028207.JPG,ISIC_0028207.JPG,false,0,keypress(z),500,580714,580714,573725,573719,573742,580744,8,400,40,,ISIC_0010468.JPG
break,html.Screen,4_89_1,2023-09-16T19:27:11.124Z,,0,,,NaN,,,,,,false,,,,580715,580714,,580714,,580744,8,400,,,
break_continue,html.Screen,4_89_2,2023-09-16T19:27:11.124Z,,0,,,NaN,,,,,,false,,,,580715,580715,,580715,,580744,8,400,,,
sequence,flow.Sequence,4_89,2023-09-16T19:27:11.125Z,,0,,,6973,completion,,,,,false,,,,580715,580715,573725,573719,573742,580744,8,400,,,
trial,html.Screen,4_90_0,2023-09-16T19:27:15.038Z,,0,2,,3900,response,ISIC_0063151.JPG,15,ISIC_0914251.JPG,ISIC_0063151.JPG,false,1,keypress(m),500,584629,584628,580728,580715,580744,584661,8,400,41,,ISIC_0914251.JPG
break,html.Screen,4_90_1,2023-09-16T19:27:15.039Z,,0,,,NaN,,,,,,false,,,,584629,584629,,584629,,584661,8,400,,,
break_continue,html.Screen,4_90_2,2023-09-16T19:27:15.039Z,,0,,,NaN,,,,,,false,,,,584629,584629,,584629,,584661,8,400,,,
sequence,flow.Sequence,4_90,2023-09-16T19:27:15.039Z,,0,,,3885,completion,,,,,false,,,,584630,584629,580728,580715,580744,584661,8,400,,,
trial,html.Screen,4_91_0,2023-09-16T19:27:20.702Z,,0,2,,5647,response,ISIC_8901133.JPG,5,ISIC_1782911.JPG,ISIC_1782911.JPG,false,0,keypress(z),500,590292,590292,584645,584630,584661,590328,8,400,42,,ISIC_8901133.JPG
break,html.Screen,4_91_1,2023-09-16T19:27:20.703Z,,0,,,NaN,,,,,,false,,,,590293,590293,,590292,,590328,8,400,,,
break_continue,html.Screen,4_91_2,2023-09-16T19:27:20.703Z,,0,,,NaN,,,,,,false,,,,590293,590293,,590293,,590328,8,400,,,
sequence,flow.Sequence,4_91,2023-09-16T19:27:20.703Z,,0,,,5632,completion,,,,,false,,,,590293,590293,584645,584630,584661,590328,8,400,,,
trial,html.Screen,4_92_0,2023-09-16T19:27:24.833Z,,0,2,,4112,response,ISIC_0060525.JPG,14,ISIC_5510604.JPG,ISIC_0060525.JPG,false,1,keypress(m),500,594423,594423,590311,590293,590328,594445,8,400,43,,ISIC_5510604.JPG
break,html.Screen,4_92_1,2023-09-16T19:27:24.834Z,,0,,,NaN,,,,,,false,,,,594424,594424,,594423,,594445,8,400,,,
break_continue,html.Screen,4_92_2,2023-09-16T19:27:24.834Z,,0,,,NaN,,,,,,false,,,,594424,594424,,594424,,594445,8,400,,,
sequence,flow.Sequence,4_92,2023-09-16T19:27:24.834Z,,0,,,4096,completion,,,,,false,,,,594424,594424,590311,590293,590328,594445,8,400,,,
trial,html.Screen,4_93_0,2023-09-16T19:27:30.512Z,,0,2,,5673,response,ISIC_9219356.JPG,0,ISIC_8663971.JPG,ISIC_9219356.JPG,false,1,keypress(m),500,600101,600101,594428,594424,594445,600128,8,400,44,,ISIC_8663971.JPG
break,html.Screen,4_93_1,2023-09-16T19:27:30.512Z,,0,,,NaN,,,,,,false,,,,600102,600102,,600101,,600128,8,400,,,
break_continue,html.Screen,4_93_2,2023-09-16T19:27:30.512Z,,0,,,NaN,,,,,,false,,,,600102,600102,,600102,,600128,8,400,,,
sequence,flow.Sequence,4_93,2023-09-16T19:27:30.512Z,,0,,,5657,completion,,,,,false,,,,600102,600102,594428,594424,594445,600128,8,400,,,
trial,html.Screen,4_94_0,2023-09-16T19:27:35.121Z,,0,2,,4597.000000000116,response,ISIC_0032873.JPG,15,ISIC_9194220.JPG,ISIC_0032873.JPG,false,1,keypress(m),500,604711,604709.0000000001,600112,600102,600128,604741,8,400,45,,ISIC_9194220.JPG
break,html.Screen,4_94_1,2023-09-16T19:27:35.121Z,,0,,,NaN,,,,,,false,,,,604711,604711,,604711,,604741,8,400,,,
break_continue,html.Screen,4_94_2,2023-09-16T19:27:35.122Z,,0,,,NaN,,,,,,false,,,,604711,604711,,604711,,604741,8,400,,,
sequence,flow.Sequence,4_94,2023-09-16T19:27:35.122Z,,0,,,4583,completion,,,,,false,,,,604711,604711,600112,600102,600128,604741,8,400,,,
trial,html.Screen,4_95_0,2023-09-16T19:27:39.519Z,,0,2,,4384,response,ISIC_9385996.JPG,0,ISIC_0015264.JPG,ISIC_0015264.JPG,false,0,keypress(z),500,609109,609109,604725,604711,604741,609131,8,400,46,,ISIC_9385996.JPG
break,html.Screen,4_95_1,2023-09-16T19:27:39.520Z,,0,,,NaN,,,,,,false,,,,609109,609109,,609109,,609131,8,400,,,
break_continue,html.Screen,4_95_2,2023-09-16T19:27:39.520Z,,0,,,NaN,,,,,,false,,,,609110,609110,,609109,,609131,8,400,,,
sequence,flow.Sequence,4_95,2023-09-16T19:27:39.520Z,,0,,,4369,completion,,,,,false,,,,609110,609110,604725,604711,604741,609131,8,400,,,
trial,html.Screen,4_96_0,2023-09-16T19:27:44.893Z,,0,2,,5368,response,ISIC_0028022.JPG,1,ISIC_1312827.JPG,ISIC_0028022.JPG,false,1,keypress(m),500,614482,614482,609114,609110,609131,614520,8,400,47,,ISIC_1312827.JPG
break,html.Screen,4_96_1,2023-09-16T19:27:44.893Z,,0,,,NaN,,,,,,false,,,,614483.0000000001,614483.0000000001,,614482,,614520,8,400,,,
break_continue,html.Screen,4_96_2,2023-09-16T19:27:44.894Z,,0,,,NaN,,,,,,false,,,,614483.0000000001,614483.0000000001,,614483.0000000001,,614520,8,400,,,
sequence,flow.Sequence,4_96,2023-09-16T19:27:44.894Z,,0,,,5352.000000000116,completion,,,,,false,,,,614483.0000000001,614483.0000000001,609114,609110,609131,614520,8,400,,,
trial,html.Screen,4_97_0,2023-09-16T19:27:50.198Z,,0,2,,5285,response,ISIC_0055013.JPG,13,ISIC_0026407.JPG,ISIC_0055013.JPG,false,1,keypress(m),500,619787,619787,614502,614483.0000000001,614520,619818,8,400,48,,ISIC_0026407.JPG
break,html.Screen,4_97_1,2023-09-16T19:27:50.198Z,,0,,,NaN,,,,,,false,,,,619788,619787,,619787,,619818,8,400,,,
break_continue,html.Screen,4_97_2,2023-09-16T19:27:50.199Z,,0,,,NaN,,,,,,false,,,,619788,619788,,619788,,619818,8,400,,,
sequence,flow.Sequence,4_97,2023-09-16T19:27:50.199Z,,0,,,5268,completion,,,,,false,,,,619788,619788,614502,614483.0000000001,614520,619818,8,400,,,
trial,html.Screen,4_98_0,2023-09-16T19:27:54.555Z,,0,2,,4340,response,ISIC_8791744.JPG,1,ISIC_8847321.JPG,ISIC_8847321.JPG,false,0,keypress(z),500,624144,624142,619802,619788,619818,624172,8,400,49,,ISIC_8791744.JPG
break,html.Screen,4_98_1,2023-09-16T19:27:54.555Z,,0,,,NaN,,,,,,false,,,,624145,624144,,624144,,624172,8,400,,,
break_continue,html.Screen,4_98_2,2023-09-16T19:27:54.555Z,,0,,,NaN,,,,,,false,,,,624145,624145,,624145,,624172,8,400,,,
sequence,flow.Sequence,4_98,2023-09-16T19:27:54.556Z,,0,,,4327,completion,,,,,false,,,,624145,624145,619802,619788,619818,624172,8,400,,,
trial,html.Screen,4_99_0,2023-09-16T19:28:03.085Z,,0,2,,8518,response,ISIC_0030780.JPG,12,ISIC_0696303.JPG,ISIC_0030780.JPG,false,1,keypress(m),500,632674,632673,624155,624145,624172,632711,8,400,50,,ISIC_0696303.JPG
break,html.Screen,4_99_1,2023-09-16T19:28:13.114Z,,0,,,10007,timeout,,,,,false,,,,642703,642702,632694,632674,632711,642718,8,400,,,
break_continue,html.Screen,4_99_2,2023-09-16T19:28:14.364Z,,0,,,1223.0000000001164,response,,,,,false,continue,keypress(Space),,643953,643925.0000000001,642702,642703,642718,643986,8,400,,,
sequence,flow.Sequence,4_99,2023-09-16T19:28:14.364Z,,0,,,19753.000000000116,completion,,,,,false,,,,643953,643925.0000000001,624155,624145,624172,643986,8,400,,,
trial,html.Screen,4_100_0,2023-09-16T19:28:20.338Z,,0,3,,5959,response,ISIC_3485482.JPG,3,ISIC_0067695.JPG,ISIC_0067695.JPG,false,0,keypress(z),500,649927,649927,643968,643953,643986,649951,8,400,1,,ISIC_3485482.JPG
break,html.Screen,4_100_1,2023-09-16T19:28:20.339Z,,0,,,NaN,,,,,,false,,,,649927,649927,,649927,,649951,8,400,,,
break_continue,html.Screen,4_100_2,2023-09-16T19:28:20.339Z,,0,,,NaN,,,,,,false,,,,649928,649928,,649927,,649951,8,400,,,
sequence,flow.Sequence,4_100,2023-09-16T19:28:20.339Z,,0,,,5942,completion,,,,,false,,,,649928,649928,643968,643953,643986,649951,8,400,,,
trial,html.Screen,4_101_0,2023-09-16T19:28:24.335Z,,0,3,,3990,response,ISIC_0034042.JPG,4,ISIC_5979807.JPG,ISIC_0034042.JPG,false,1,keypress(m),500,653924,653924,649934,649928,649951,653956,8,400,2,,ISIC_5979807.JPG
break,html.Screen,4_101_1,2023-09-16T19:28:24.336Z,,0,,,NaN,,,,,,false,,,,653925.0000000001,653924,,653924,,653956,8,400,,,
break_continue,html.Screen,4_101_2,2023-09-16T19:28:24.336Z,,0,,,NaN,,,,,,false,,,,653925.0000000001,653925.0000000001,,653925.0000000001,,653956,8,400,,,
sequence,flow.Sequence,4_101,2023-09-16T19:28:24.336Z,,0,,,3974.0000000001164,completion,,,,,false,,,,653925.0000000001,653925.0000000001,649934,649928,649951,653956,8,400,,,
trial,html.Screen,4_102_0,2023-09-16T19:28:28.355Z,,0,3,,4004,response,ISIC_5718805.JPG,2,ISIC_9923630.JPG,ISIC_9923630.JPG,false,0,keypress(z),500,657944,657944,653940,653925.0000000001,653956,657974,8,400,3,,ISIC_5718805.JPG
break,html.Screen,4_102_1,2023-09-16T19:28:28.356Z,,0,,,NaN,,,,,,false,,,,657945,657944,,657944,,657974,8,400,,,
break_continue,html.Screen,4_102_2,2023-09-16T19:28:28.356Z,,0,,,NaN,,,,,,false,,,,657945,657945,,657945,,657974,8,400,,,
sequence,flow.Sequence,4_102,2023-09-16T19:28:28.356Z,,0,,,3989,completion,,,,,false,,,,657945,657945,653940,653925.0000000001,653956,657974,8,400,,,
trial,html.Screen,4_103_0,2023-09-16T19:28:33.537Z,,0,3,,5170,response,ISIC_0010034.JPG,2,ISIC_8048162.JPG,ISIC_0010034.JPG,false,1,keypress(m),500,663126,663126,657956,657945,657974,663158,8,400,4,,ISIC_8048162.JPG
break,html.Screen,4_103_1,2023-09-16T19:28:33.538Z,,0,,,NaN,,,,,,false,,,,663127.0000000001,663126,,663126,,663158,8,400,,,
break_continue,html.Screen,4_103_2,2023-09-16T19:28:33.538Z,,0,,,NaN,,,,,,false,,,,663127.0000000001,663127.0000000001,,663127.0000000001,,663158,8,400,,,
sequence,flow.Sequence,4_103,2023-09-16T19:28:33.539Z,,0,,,5153.000000000116,completion,,,,,false,,,,663127.0000000001,663127.0000000001,657956,657945,657974,663158,8,400,,,
trial,html.Screen,4_104_0,2023-09-16T19:28:39.135Z,,0,3,,5581.000000000116,response,ISIC_0013459.JPG,7,ISIC_7572137.JPG,ISIC_7572137.JPG,false,0,keypress(z),500,668724,668723.0000000001,663142,663127.0000000001,663158,668758,8,400,5,,ISIC_0013459.JPG
break,html.Screen,4_104_1,2023-09-16T19:28:39.136Z,,0,,,NaN,,,,,,false,,,,668724,668724,,668724,,668758,8,400,,,
break_continue,html.Screen,4_104_2,2023-09-16T19:28:39.136Z,,0,,,NaN,,,,,,false,,,,668724,668724,,668724,,668758,8,400,,,
sequence,flow.Sequence,4_104,2023-09-16T19:28:39.136Z,,0,,,5566,completion,,,,,false,,,,668724,668724,663142,663127.0000000001,663158,668758,8,400,,,
trial,html.Screen,4_105_0,2023-09-16T19:28:44.949Z,,0,3,,5794,response,ISIC_5147292.JPG,14,ISIC_2698722.JPG,ISIC_5147292.JPG,false,1,keypress(m),500,674537,674537,668743,668725,668758,674566,8,400,6,,ISIC_2698722.JPG
break,html.Screen,4_105_1,2023-09-16T19:28:44.950Z,,0,,,NaN,,,,,,false,,,,674538,674538,,674537,,674566,8,400,,,
break_continue,html.Screen,4_105_2,2023-09-16T19:28:44.950Z,,0,,,NaN,,,,,,false,,,,674538,674538,,674538,,674566,8,400,,,
sequence,flow.Sequence,4_105,2023-09-16T19:28:44.950Z,,0,,,5780,completion,,,,,false,,,,674538,674538,668743,668725,668758,674566,8,400,,,
trial,html.Screen,4_106_0,2023-09-16T19:28:51.599Z,,0,3,,6637,response,ISIC_1790808.JPG,0,ISIC_0033444.JPG,ISIC_1790808.JPG,false,1,keypress(m),500,681187,681186,674549,674538,674566,681217,8,400,7,,ISIC_0033444.JPG
break,html.Screen,4_106_1,2023-09-16T19:28:51.599Z,,0,,,NaN,,,,,,false,,,,681187,681187,,681187,,681217,8,400,,,
break_continue,html.Screen,4_106_2,2023-09-16T19:28:51.600Z,,0,,,NaN,,,,,,false,,,,681188,681187,,681187,,681217,8,400,,,
sequence,flow.Sequence,4_106,2023-09-16T19:28:51.600Z,,0,,,6621,completion,,,,,false,,,,681188,681187,674549,674538,674566,681217,8,400,,,
trial,html.Screen,4_107_0,2023-09-16T19:28:57.485Z,,0,3,,5871,response,ISIC_0032149.JPG,8,ISIC_0070752.JPG,ISIC_0032149.JPG,false,1,keypress(m),500,687072,687072,681201,681188,681217,687101,8,400,8,,ISIC_0070752.JPG
break,html.Screen,4_107_1,2023-09-16T19:28:57.485Z,,0,,,NaN,,,,,,false,,,,687073,687073,,687073,,687101,8,400,,,
break_continue,html.Screen,4_107_2,2023-09-16T19:28:57.486Z,,0,,,NaN,,,,,,false,,,,687073,687073,,687073,,687101,8,400,,,
sequence,flow.Sequence,4_107,2023-09-16T19:28:57.486Z,,0,,,5856,completion,,,,,false,,,,687073,687073,681201,681188,681217,687101,8,400,,,
trial,html.Screen,4_108_0,2023-09-16T19:29:02.001Z,,0,3,,4503,response,ISIC_2177748.JPG,3,ISIC_0058022.JPG,ISIC_0058022.JPG,false,0,keypress(z),500,691589,691588,687085,687073,687101,691624,8,400,9,,ISIC_2177748.JPG
break,html.Screen,4_108_1,2023-09-16T19:29:02.001Z,,0,,,NaN,,,,,,false,,,,691589,691589,,691589,,691624,8,400,,,
break_continue,html.Screen,4_108_2,2023-09-16T19:29:02.002Z,,0,,,NaN,,,,,,false,,,,691589,691589,,691589,,691624,8,400,,,
sequence,flow.Sequence,4_108,2023-09-16T19:29:02.002Z,,0,,,4488,completion,,,,,false,,,,691589,691589,687085,687073,687101,691624,8,400,,,
trial,html.Screen,4_109_0,2023-09-16T19:29:06.711Z,,0,3,,4690,response,ISIC_7295035.JPG,0,ISIC_7520843.JPG,ISIC_7520843.JPG,false,0,keypress(z),500,696298,696298,691608,691590,691624,696333,8,400,10,,ISIC_7295035.JPG
break,html.Screen,4_109_1,2023-09-16T19:29:06.711Z,,0,,,NaN,,,,,,false,,,,696299,696299,,696298,,696333,8,400,,,
break_continue,html.Screen,4_109_2,2023-09-16T19:29:06.712Z,,0,,,NaN,,,,,,false,,,,696299,696299,,696299,,696333,8,400,,,
sequence,flow.Sequence,4_109,2023-09-16T19:29:06.712Z,,0,,,4675,completion,,,,,false,,,,696299,696299,691608,691590,691624,696333,8,400,,,
trial,html.Screen,4_110_0,2023-09-16T19:29:10.791Z,,0,3,,4064,response,ISIC_2151856.JPG,3,ISIC_0032716.JPG,ISIC_0032716.JPG,false,0,keypress(z),500,700379,700379,696315,696299,696333,700416,8,400,11,,ISIC_2151856.JPG
break,html.Screen,4_110_1,2023-09-16T19:29:10.792Z,,0,,,NaN,,,,,,false,,,,700379,700379,,700379,,700416,8,400,,,
break_continue,html.Screen,4_110_2,2023-09-16T19:29:10.792Z,,0,,,NaN,,,,,,false,,,,700380,700380,,700380,,700416,8,400,,,
sequence,flow.Sequence,4_110,2023-09-16T19:29:10.792Z,,0,,,4047,completion,,,,,false,,,,700380,700380,696315,696299,696333,700416,8,400,,,
trial,html.Screen,4_111_0,2023-09-16T19:29:15.839Z,,0,3,,5027,response,ISIC_0064393.JPG,3,ISIC_1525284.JPG,ISIC_0064393.JPG,false,1,keypress(m),500,705426,705426,700399,700380,700416,705455,8,400,12,,ISIC_1525284.JPG
break,html.Screen,4_111_1,2023-09-16T19:29:15.840Z,,0,,,NaN,,,,,,false,,,,705427,705427,,705426,,705455,8,400,,,
break_continue,html.Screen,4_111_2,2023-09-16T19:29:15.840Z,,0,,,NaN,,,,,,false,,,,705427,705427,,705427,,705455,8,400,,,
sequence,flow.Sequence,4_111,2023-09-16T19:29:15.840Z,,0,,,5011,completion,,,,,false,,,,705427,705427,700399,700380,700416,705455,8,400,,,
trial,html.Screen,4_112_0,2023-09-16T19:29:21.153Z,,0,3,,5302,response,ISIC_0296580.JPG,15,ISIC_8897947.JPG,ISIC_8897947.JPG,false,0,keypress(z),500,710740,710740,705438,705427,705455,710768,8,400,13,,ISIC_0296580.JPG
break,html.Screen,4_112_1,2023-09-16T19:29:21.154Z,,0,,,NaN,,,,,,false,,,,710741,710741,,710740,,710768,8,400,,,
break_continue,html.Screen,4_112_2,2023-09-16T19:29:21.154Z,,0,,,NaN,,,,,,false,,,,710741,710741,,710741,,710768,8,400,,,
sequence,flow.Sequence,4_112,2023-09-16T19:29:21.154Z,,0,,,5286,completion,,,,,false,,,,710741,710741,705438,705427,705455,710768,8,400,,,
trial,html.Screen,4_113_0,2023-09-16T19:29:26.116Z,,0,3,,4951,response,ISIC_0031752.JPG,3,ISIC_0030519.JPG,ISIC_0031752.JPG,false,1,keypress(m),500,715703,715703,710752,710741,710768,715735,8,400,14,,ISIC_0030519.JPG
break,html.Screen,4_113_1,2023-09-16T19:29:26.116Z,,0,,,NaN,,,,,,false,,,,715703,715703,,715703,,715735,8,400,,,
break_continue,html.Screen,4_113_2,2023-09-16T19:29:26.117Z,,0,,,NaN,,,,,,false,,,,715704.0000000001,715704.0000000001,,715703,,715735,8,400,,,
sequence,flow.Sequence,4_113,2023-09-16T19:29:26.117Z,,0,,,4936.000000000116,completion,,,,,false,,,,715704.0000000001,715704.0000000001,710752,710741,710768,715735,8,400,,,
trial,html.Screen,4_114_0,2023-09-16T19:29:30.373Z,,0,3,,4241,response,ISIC_4653503.JPG,1,ISIC_0010785.JPG,ISIC_0010785.JPG,false,0,keypress(z),500,719960,719960,715719,715704.0000000001,715735,719991,8,400,15,,ISIC_4653503.JPG
break,html.Screen,4_114_1,2023-09-16T19:29:30.374Z,,0,,,NaN,,,,,,false,,,,719961,719960,,719960,,719991,8,400,,,
break_continue,html.Screen,4_114_2,2023-09-16T19:29:30.374Z,,0,,,NaN,,,,,,false,,,,719961,719961,,719961,,719991,8,400,,,
sequence,flow.Sequence,4_114,2023-09-16T19:29:30.374Z,,0,,,4226,completion,,,,,false,,,,719961,719961,715719,715704.0000000001,715735,719991,8,400,,,
trial,html.Screen,4_115_0,2023-09-16T19:29:35.221Z,,0,3,,4835,response,ISIC_0021713.JPG,15,ISIC_0653706.JPG,ISIC_0021713.JPG,false,1,keypress(m),500,724808,724808,719973,719961,719991,724828,8,400,16,,ISIC_0653706.JPG
break,html.Screen,4_115_1,2023-09-16T19:29:35.222Z,,0,,,NaN,,,,,,false,,,,724808,724808,,724808,,724828,8,400,,,
break_continue,html.Screen,4_115_2,2023-09-16T19:29:35.222Z,,0,,,NaN,,,,,,false,,,,724809,724809,,724808,,724828,8,400,,,
sequence,flow.Sequence,4_115,2023-09-16T19:29:35.222Z,,0,,,4818,completion,,,,,false,,,,724809,724809,719973,719961,719991,724828,8,400,,,
trial,html.Screen,4_116_0,2023-09-16T19:29:39.313Z,,0,3,,4087,response,ISIC_6759173.JPG,14,ISIC_0063234.JPG,ISIC_0063234.JPG,false,0,keypress(z),500,728899,728899,724812,724809,724828,728928,8,400,17,,ISIC_6759173.JPG
break,html.Screen,4_116_1,2023-09-16T19:29:39.313Z,,0,,,NaN,,,,,,false,,,,728900,728899,,728899,,728928,8,400,,,
break_continue,html.Screen,4_116_2,2023-09-16T19:29:39.313Z,,0,,,NaN,,,,,,false,,,,728900,728900,,728900,,728928,8,400,,,
sequence,flow.Sequence,4_116,2023-09-16T19:29:39.314Z,,0,,,4072,completion,,,,,false,,,,728900,728900,724812,724809,724828,728928,8,400,,,
trial,html.Screen,4_117_0,2023-09-16T19:29:43.872Z,,0,3,,4547,response,ISIC_0210282.JPG,0,ISIC_5221917.JPG,ISIC_0210282.JPG,false,1,keypress(m),500,733458,733458,728911,728900,728928,733494,8,400,18,,ISIC_5221917.JPG
break,html.Screen,4_117_1,2023-09-16T19:29:43.873Z,,0,,,NaN,,,,,,false,,,,733459.0000000001,733459.0000000001,,733458,,733494,8,400,,,
break_continue,html.Screen,4_117_2,2023-09-16T19:29:43.873Z,,0,,,NaN,,,,,,false,,,,733459.0000000001,733459.0000000001,,733459.0000000001,,733494,8,400,,,
sequence,flow.Sequence,4_117,2023-09-16T19:29:43.873Z,,0,,,4531.000000000116,completion,,,,,false,,,,733459.0000000001,733459.0000000001,728911,728900,728928,733494,8,400,,,
trial,html.Screen,4_118_0,2023-09-16T19:29:48.603Z,,0,3,,4712,response,ISIC_0010752.JPG,1,ISIC_8708106.JPG,ISIC_8708106.JPG,false,0,keypress(z),500,738189,738189,733477,733459.0000000001,733494,738225,8,400,19,,ISIC_0010752.JPG
break,html.Screen,4_118_1,2023-09-16T19:29:48.603Z,,0,,,NaN,,,,,,false,,,,738189,738189,,738189,,738225,8,400,,,
break_continue,html.Screen,4_118_2,2023-09-16T19:29:48.604Z,,0,,,NaN,,,,,,false,,,,738190,738190,,738190,,738225,8,400,,,
sequence,flow.Sequence,4_118,2023-09-16T19:29:48.604Z,,0,,,4696,completion,,,,,false,,,,738190,738190,733477,733459.0000000001,733494,738225,8,400,,,
trial,html.Screen,4_119_0,2023-09-16T19:29:54.650Z,,0,3,,6027,response,ISIC_0002745.JPG,10,ISIC_4728968.JPG,ISIC_4728968.JPG,false,0,keypress(z),500,744236,744235,738208,738190,738225,744259,8,400,20,,ISIC_0002745.JPG
break,html.Screen,4_119_1,2023-09-16T19:29:54.650Z,,0,,,NaN,,,,,,false,,,,744236,744236,,744236,,744259,8,400,,,
break_continue,html.Screen,4_119_2,2023-09-16T19:29:54.650Z,,0,,,NaN,,,,,,false,,,,744236,744236,,744236,,744259,8,400,,,
sequence,flow.Sequence,4_119,2023-09-16T19:29:54.650Z,,0,,,6011,completion,,,,,false,,,,744236,744236,738208,738190,738225,744259,8,400,,,
trial,html.Screen,4_120_0,2023-09-16T19:30:00.195Z,,0,3,,5537,response,ISIC_5149162.JPG,6,ISIC_9076021.JPG,ISIC_9076021.JPG,false,0,keypress(z),500,749781.0000000001,749780,744243,744236,744259,749802,8,400,21,,ISIC_5149162.JPG
break,html.Screen,4_120_1,2023-09-16T19:30:00.195Z,,0,,,NaN,,,,,,false,,,,749781.0000000001,749781.0000000001,,749781.0000000001,,749802,8,400,,,
break_continue,html.Screen,4_120_2,2023-09-16T19:30:00.196Z,,0,,,NaN,,,,,,false,,,,749781.0000000001,749781.0000000001,,749781.0000000001,,749802,8,400,,,
sequence,flow.Sequence,4_120,2023-09-16T19:30:00.196Z,,0,,,5522.000000000116,completion,,,,,false,,,,749781.0000000001,749781.0000000001,744243,744236,744259,749802,8,400,,,
trial,html.Screen,4_121_0,2023-09-16T19:30:05.742Z,,0,3,,5542,response,ISIC_0056192.JPG,3,ISIC_8637134.JPG,ISIC_0056192.JPG,false,1,keypress(m),500,755327,755327,749785,749782,749802,755364,8,400,22,,ISIC_8637134.JPG
break,html.Screen,4_121_1,2023-09-16T19:30:05.743Z,,0,,,NaN,,,,,,false,,,,755328,755328,,755328,,755364,8,400,,,
break_continue,html.Screen,4_121_2,2023-09-16T19:30:05.743Z,,0,,,NaN,,,,,,false,,,,755328,755328,,755328,,755364,8,400,,,
sequence,flow.Sequence,4_121,2023-09-16T19:30:05.743Z,,0,,,5526,completion,,,,,false,,,,755328,755328,749785,749781.0000000001,749802,755364,8,400,,,
trial,html.Screen,4_122_0,2023-09-16T19:30:09.603Z,,0,3,,3841,response,ISIC_7666224.JPG,8,ISIC_6052860.JPG,ISIC_6052860.JPG,false,0,keypress(z),500,759189,759188,755347,755328,755364,759219,8,400,23,,ISIC_7666224.JPG
break,html.Screen,4_122_1,2023-09-16T19:30:09.604Z,,0,,,NaN,,,,,,false,,,,759189,759189,,759189,,759219,8,400,,,
break_continue,html.Screen,4_122_2,2023-09-16T19:30:09.604Z,,0,,,NaN,,,,,,false,,,,759189,759189,,759189,,759219,8,400,,,
sequence,flow.Sequence,4_122,2023-09-16T19:30:09.604Z,,0,,,3825,completion,,,,,false,,,,759189,759189,755347,755328,755364,759219,8,400,,,
trial,html.Screen,4_123_0,2023-09-16T19:30:15.651Z,,0,3,,6033,response,ISIC_0071771.JPG,1,ISIC_0011209.JPG,ISIC_0071771.JPG,false,1,keypress(m),500,765236,765236,759203,759190,759219,765258,8,400,24,,ISIC_0011209.JPG
break,html.Screen,4_123_1,2023-09-16T19:30:15.652Z,,0,,,NaN,,,,,,false,,,,765237,765237,,765236,,765258,8,400,,,
break_continue,html.Screen,4_123_2,2023-09-16T19:30:15.652Z,,0,,,NaN,,,,,,false,,,,765237,765237,,765237,,765258,8,400,,,
sequence,flow.Sequence,4_123,2023-09-16T19:30:15.652Z,,0,,,6018,completion,,,,,false,,,,765237,765237,759203,759189,759219,765258,8,400,,,
trial,html.Screen,4_124_0,2023-09-16T19:30:21.099Z,,0,3,,5442,response,ISIC_0010476.JPG,3,ISIC_5916208.JPG,ISIC_5916208.JPG,false,0,keypress(z),500,770684,770684,765242,765237,765258,770708,8,400,25,,ISIC_0010476.JPG
break,html.Screen,4_124_1,2023-09-16T19:30:21.100Z,,0,,,NaN,,,,,,false,,,,770685.0000000001,770685.0000000001,,770684,,770708,8,400,,,
break_continue,html.Screen,4_124_2,2023-09-16T19:30:21.100Z,,0,,,NaN,,,,,,false,,,,770685.0000000001,770685.0000000001,,770685.0000000001,,770708,8,400,,,
sequence,flow.Sequence,4_124,2023-09-16T19:30:21.100Z,,0,,,5427.000000000116,completion,,,,,false,,,,770685.0000000001,770685.0000000001,765242,765237,765258,770708,8,400,,,
trial,html.Screen,4_125_0,2023-09-16T19:30:25.136Z,,0,3,,4029,response,ISIC_4728589.JPG,2,ISIC_0027590.JPG,ISIC_0027590.JPG,false,0,keypress(z),500,774721,774721,770692,770685.0000000001,770708,774743,8,400,26,,ISIC_4728589.JPG
break,html.Screen,4_125_1,2023-09-16T19:30:25.137Z,,0,,,NaN,,,,,,false,,,,774722,774722,,774721,,774743,8,400,,,
break_continue,html.Screen,4_125_2,2023-09-16T19:30:25.137Z,,0,,,NaN,,,,,,false,,,,774722,774722,,774722,,774743,8,400,,,
sequence,flow.Sequence,4_125,2023-09-16T19:30:25.137Z,,0,,,4014,completion,,,,,false,,,,774722,774722,770692,770685.0000000001,770708,774743,8,400,,,
trial,html.Screen,4_126_0,2023-09-16T19:30:32.363Z,,0,3,,7222,response,ISIC_5813642.JPG,8,ISIC_0010124.JPG,ISIC_5813642.JPG,false,1,keypress(m),500,781948,781948,774726,774722,774743,781969,8,400,27,,ISIC_0010124.JPG
break,html.Screen,4_126_1,2023-09-16T19:30:32.364Z,,0,,,NaN,,,,,,false,,,,781949.0000000001,781948,,781948,,781969,8,400,,,
break_continue,html.Screen,4_126_2,2023-09-16T19:30:32.364Z,,0,,,NaN,,,,,,false,,,,781949.0000000001,781949.0000000001,,781949.0000000001,,781969,8,400,,,
sequence,flow.Sequence,4_126,2023-09-16T19:30:32.364Z,,0,,,7206.000000000116,completion,,,,,false,,,,781949.0000000001,781949.0000000001,774726,774722,774743,781969,8,400,,,
trial,html.Screen,4_127_0,2023-09-16T19:30:38.602Z,,0,3,,6234,response,ISIC_4847584.JPG,0,ISIC_0061491.JPG,ISIC_0061491.JPG,false,0,keypress(z),500,788187,788187,781953,781949.0000000001,781969,788220,8,400,28,,ISIC_4847584.JPG
break,html.Screen,4_127_1,2023-09-16T19:30:38.603Z,,0,,,NaN,,,,,,false,,,,788187,788187,,788187,,788220,8,400,,,
break_continue,html.Screen,4_127_2,2023-09-16T19:30:38.603Z,,0,,,NaN,,,,,,false,,,,788188,788188,,788187,,788220,8,400,,,
sequence,flow.Sequence,4_127,2023-09-16T19:30:38.603Z,,0,,,6219,completion,,,,,false,,,,788188,788188,781953,781949.0000000001,781969,788220,8,400,,,
trial,html.Screen,4_128_0,2023-09-16T19:30:45.329Z,,0,3,,6709,response,ISIC_1681964.JPG,0,ISIC_0065469.JPG,ISIC_0065469.JPG,false,0,keypress(z),500,794913,794913,788204,788188,788220,794938,8,400,29,,ISIC_1681964.JPG
break,html.Screen,4_128_1,2023-09-16T19:30:45.329Z,,0,,,NaN,,,,,,false,,,,794914,794913,,794913,,794938,8,400,,,
break_continue,html.Screen,4_128_2,2023-09-16T19:30:45.330Z,,0,,,NaN,,,,,,false,,,,794914,794914,,794914,,794938,8,400,,,
sequence,flow.Sequence,4_128,2023-09-16T19:30:45.330Z,,0,,,6694,completion,,,,,false,,,,794914,794914,788204,788188,788220,794938,8,400,,,
trial,html.Screen,4_129_0,2023-09-16T19:30:49.766Z,,0,3,,4429,response,ISIC_9449365.JPG,0,ISIC_4730066.JPG,ISIC_9449365.JPG,false,1,keypress(m),500,799350,799350,794921,794914,794938,799372,8,400,30,,ISIC_4730066.JPG
break,html.Screen,4_129_1,2023-09-16T19:30:49.767Z,,0,,,NaN,,,,,,false,,,,799351,799351,,799351,,799372,8,400,,,
break_continue,html.Screen,4_129_2,2023-09-16T19:30:49.767Z,,0,,,NaN,,,,,,false,,,,799351,799351,,799351,,799372,8,400,,,
sequence,flow.Sequence,4_129,2023-09-16T19:30:49.767Z,,0,,,4413,completion,,,,,false,,,,799351,799351,794921,794914,794938,799372,8,400,,,
trial,html.Screen,4_130_0,2023-09-16T19:30:57.696Z,,0,3,,7923,response,ISIC_2809019.JPG,0,ISIC_0011703.JPG,ISIC_0011703.JPG,false,0,keypress(z),500,807280,807279,799356,799351,799372,807310,8,400,31,,ISIC_2809019.JPG
break,html.Screen,4_130_1,2023-09-16T19:30:57.696Z,,0,,,NaN,,,,,,false,,,,807280,807280,,807280,,807310,8,400,,,
break_continue,html.Screen,4_130_2,2023-09-16T19:30:57.697Z,,0,,,NaN,,,,,,false,,,,807280,807280,,807280,,807310,8,400,,,
sequence,flow.Sequence,4_130,2023-09-16T19:30:57.697Z,,0,,,7908,completion,,,,,false,,,,807281.0000000001,807280,799356,799351,799372,807310,8,400,,,
trial,html.Screen,4_131_0,2023-09-16T19:31:02.353Z,,0,3,,4643,response,ISIC_0000431.JPG,0,ISIC_5248948.JPG,ISIC_0000431.JPG,false,1,keypress(m),500,811937,811937,807294,807281.0000000001,807310,811967,8,400,32,,ISIC_5248948.JPG
break,html.Screen,4_131_1,2023-09-16T19:31:02.354Z,,0,,,NaN,,,,,,false,,,,811937,811937,,811937,,811967,8,400,,,
break_continue,html.Screen,4_131_2,2023-09-16T19:31:02.354Z,,0,,,NaN,,,,,,false,,,,811938,811938,,811937,,811967,8,400,,,
sequence,flow.Sequence,4_131,2023-09-16T19:31:02.354Z,,0,,,4628,completion,,,,,false,,,,811938,811938,807294,807281.0000000001,807310,811967,8,400,,,
trial,html.Screen,4_132_0,2023-09-16T19:31:06.972Z,,0,3,,4605.000000000116,response,ISIC_0028465.JPG,5,ISIC_7764987.JPG,ISIC_0028465.JPG,false,1,keypress(m),500,816555.0000000001,816555.0000000001,811950,811938,811967,816585,8,400,33,,ISIC_7764987.JPG
break,html.Screen,4_132_1,2023-09-16T19:31:06.972Z,,0,,,NaN,,,,,,false,,,,816556,816556,,816555.0000000001,,816585,8,400,,,
break_continue,html.Screen,4_132_2,2023-09-16T19:31:06.973Z,,0,,,NaN,,,,,,false,,,,816556,816556,,816556,,816585,8,400,,,
sequence,flow.Sequence,4_132,2023-09-16T19:31:06.973Z,,0,,,4589,completion,,,,,false,,,,816556,816556,811950,811938,811967,816585,8,400,,,
trial,html.Screen,4_133_0,2023-09-16T19:31:12.411Z,,0,3,,5427,response,ISIC_0030889.JPG,0,ISIC_0025018.JPG,ISIC_0030889.JPG,false,1,keypress(m),500,821995,821995,816568,816556,816585,822014,8,400,34,,ISIC_0025018.JPG
break,html.Screen,4_133_1,2023-09-16T19:31:12.412Z,,0,,,NaN,,,,,,false,,,,821995,821995,,821995,,822014,8,400,,,
break_continue,html.Screen,4_133_2,2023-09-16T19:31:12.412Z,,0,,,NaN,,,,,,false,,,,821996,821995,,821995,,822014,8,400,,,
sequence,flow.Sequence,4_133,2023-09-16T19:31:12.412Z,,0,,,5410,completion,,,,,false,,,,821996,821995,816568,816556,816585,822014,8,400,,,
trial,html.Screen,4_134_0,2023-09-16T19:31:19.244Z,,0,3,,6829,response,ISIC_3571523.JPG,0,ISIC_6532137.JPG,ISIC_3571523.JPG,false,1,keypress(m),500,828827,828827,821998,821996,822014,828851,8,400,35,,ISIC_6532137.JPG
break,html.Screen,4_134_1,2023-09-16T19:31:19.245Z,,0,,,NaN,,,,,,false,,,,828828,828828,,828828,,828851,8,400,,,
break_continue,html.Screen,4_134_2,2023-09-16T19:31:19.245Z,,0,,,NaN,,,,,,false,,,,828828,828828,,828828,,828851,8,400,,,
sequence,flow.Sequence,4_134,2023-09-16T19:31:19.245Z,,0,,,6814,completion,,,,,false,,,,828828,828828,821998,821996,822014,828851,8,400,,,
trial,html.Screen,4_135_0,2023-09-16T19:31:24.383Z,,0,3,,5130,response,ISIC_1323743.JPG,4,ISIC_0033492.JPG,ISIC_0033492.JPG,false,0,keypress(z),500,833966,833965,828835,828828,828851,834003,8,400,36,,ISIC_1323743.JPG
break,html.Screen,4_135_1,2023-09-16T19:31:24.383Z,,0,,,NaN,,,,,,false,,,,833966,833966,,833966,,834003,8,400,,,
break_continue,html.Screen,4_135_2,2023-09-16T19:31:24.383Z,,0,,,NaN,,,,,,false,,,,833966,833966,,833966,,834003,8,400,,,
sequence,flow.Sequence,4_135,2023-09-16T19:31:24.383Z,,0,,,5115,completion,,,,,false,,,,833967,833966,828835,828828,828851,834003,8,400,,,
trial,html.Screen,4_136_0,2023-09-16T19:31:32.460Z,,0,3,,8056,response,ISIC_8310944.JPG,13,ISIC_0062525.JPG,ISIC_0062525.JPG,false,0,keypress(z),500,842043,842042,833986,833967,834003,842074,8,400,37,,ISIC_8310944.JPG
break,html.Screen,4_136_1,2023-09-16T19:31:32.461Z,,0,,,NaN,,,,,,false,,,,842043,842043,,842043,,842074,8,400,,,
break_continue,html.Screen,4_136_2,2023-09-16T19:31:32.461Z,,0,,,NaN,,,,,,false,,,,842044,842044,,842044,,842074,8,400,,,
sequence,flow.Sequence,4_136,2023-09-16T19:31:32.461Z,,0,,,8041,completion,,,,,false,,,,842044,842044,833986,833967,834003,842074,8,400,,,
trial,html.Screen,4_137_0,2023-09-16T19:31:37.231Z,,0,3,,4755,response,ISIC_5647697.JPG,0,ISIC_8591425.JPG,ISIC_5647697.JPG,false,1,keypress(m),500,846813,846813,842058,842044,842074,846843,8,400,38,,ISIC_8591425.JPG
break,html.Screen,4_137_1,2023-09-16T19:31:37.231Z,,0,,,NaN,,,,,,false,,,,846814,846814,,846814,,846843,8,400,,,
break_continue,html.Screen,4_137_2,2023-09-16T19:31:37.232Z,,0,,,NaN,,,,,,false,,,,846814,846814,,846814,,846843,8,400,,,
sequence,flow.Sequence,4_137,2023-09-16T19:31:37.232Z,,0,,,4740,completion,,,,,false,,,,846814,846814,842058,842044,842074,846843,8,400,,,
trial,html.Screen,4_138_0,2023-09-16T19:31:41.508Z,,0,3,,4264,response,ISIC_6875745.JPG,12,ISIC_0640806.JPG,ISIC_6875745.JPG,false,1,keypress(m),500,851091,851091,846827,846814,846843,851127,8,400,39,,ISIC_0640806.JPG
break,html.Screen,4_138_1,2023-09-16T19:31:41.509Z,,0,,,NaN,,,,,,false,,,,851091,851091,,851091,,851127,8,400,,,
break_continue,html.Screen,4_138_2,2023-09-16T19:31:41.509Z,,0,,,NaN,,,,,,false,,,,851092,851091,,851091,,851127,8,400,,,
sequence,flow.Sequence,4_138,2023-09-16T19:31:41.509Z,,0,,,4248,completion,,,,,false,,,,851092,851091,846827,846814,846843,851127,8,400,,,
trial,html.Screen,4_139_0,2023-09-16T19:31:47.066Z,,0,3,,5538,response,ISIC_2910705.JPG,2,ISIC_6260969.JPG,ISIC_6260969.JPG,false,0,keypress(z),500,856648,856648,851110,851092,851127,856676,8,400,40,,ISIC_2910705.JPG
break,html.Screen,4_139_1,2023-09-16T19:31:47.066Z,,0,,,NaN,,,,,,false,,,,856648,856648,,856648,,856676,8,400,,,
break_continue,html.Screen,4_139_2,2023-09-16T19:31:47.066Z,,0,,,NaN,,,,,,false,,,,856649,856649,,856649,,856676,8,400,,,
sequence,flow.Sequence,4_139,2023-09-16T19:31:47.066Z,,0,,,5522,completion,,,,,false,,,,856649,856649,851110,851092,851127,856676,8,400,,,
trial,html.Screen,4_140_0,2023-09-16T19:31:53.011Z,,0,3,,5934.000000000116,response,ISIC_1124434.JPG,13,ISIC_4220326.JPG,ISIC_1124434.JPG,false,1,keypress(m),500,862593.0000000001,862593.0000000001,856659,856649,856676,862626,8,400,41,,ISIC_4220326.JPG
break,html.Screen,4_140_1,2023-09-16T19:31:53.011Z,,0,,,NaN,,,,,,false,,,,862594,862593.0000000001,,862593.0000000001,,862626,8,400,,,
break_continue,html.Screen,4_140_2,2023-09-16T19:31:53.012Z,,0,,,NaN,,,,,,false,,,,862594,862594,,862594,,862626,8,400,,,
sequence,flow.Sequence,4_140,2023-09-16T19:31:53.012Z,,0,,,5918,completion,,,,,false,,,,862594,862594,856659,856649,856676,862626,8,400,,,
trial,html.Screen,4_141_0,2023-09-16T19:31:57.336Z,,0,3,,4309,response,ISIC_1927858.JPG,15,ISIC_0010503.JPG,ISIC_0010503.JPG,false,0,keypress(z),500,866918,866918,862609,862594,862626,866938,8,400,42,,ISIC_1927858.JPG
break,html.Screen,4_141_1,2023-09-16T19:31:57.336Z,,0,,,NaN,,,,,,false,,,,866918,866918,,866918,,866938,8,400,,,
break_continue,html.Screen,4_141_2,2023-09-16T19:31:57.337Z,,0,,,NaN,,,,,,false,,,,866919,866919,,866918,,866938,8,400,,,
sequence,flow.Sequence,4_141,2023-09-16T19:31:57.337Z,,0,,,4293,completion,,,,,false,,,,866919,866919,862609,862594,862626,866938,8,400,,,
trial,html.Screen,4_142_0,2023-09-16T19:32:01.276Z,,0,3,,3936.0000000001164,response,ISIC_9101055.JPG,2,ISIC_0000144.JPG,ISIC_0000144.JPG,false,0,keypress(z),500,870858.0000000001,870858.0000000001,866922,866919,866938,870881,8,400,43,,ISIC_9101055.JPG
break,html.Screen,4_142_1,2023-09-16T19:32:01.277Z,,0,,,NaN,,,,,,false,,,,870859,870859,,870858.0000000001,,870881,8,400,,,
break_continue,html.Screen,4_142_2,2023-09-16T19:32:01.277Z,,0,,,NaN,,,,,,false,,,,870859,870859,,870859,,870881,8,400,,,
sequence,flow.Sequence,4_142,2023-09-16T19:32:01.277Z,,0,,,3921,completion,,,,,false,,,,870859,870859,866922,866919,866938,870881,8,400,,,
trial,html.Screen,4_143_0,2023-09-16T19:32:06.062Z,,0,3,,4780,response,ISIC_0070313.JPG,4,ISIC_2583592.JPG,ISIC_0070313.JPG,false,1,keypress(m),500,875644,875644,870864,870859,870881,875681,8,400,44,,ISIC_2583592.JPG
break,html.Screen,4_143_1,2023-09-16T19:32:06.063Z,,0,,,NaN,,,,,,false,,,,875645,875645,,875644,,875681,8,400,,,
break_continue,html.Screen,4_143_2,2023-09-16T19:32:06.063Z,,0,,,NaN,,,,,,false,,,,875645,875645,,875645,,875681,8,400,,,
sequence,flow.Sequence,4_143,2023-09-16T19:32:06.063Z,,0,,,4764,completion,,,,,false,,,,875645,875645,870864,870859,870881,875681,8,400,,,
trial,html.Screen,4_144_0,2023-09-16T19:32:10.580Z,,0,3,,4498,response,ISIC_8353090.JPG,0,ISIC_4482610.JPG,ISIC_4482610.JPG,false,0,keypress(z),500,880162,880162,875664,875645,875681,880197,8,400,45,,ISIC_8353090.JPG
break,html.Screen,4_144_1,2023-09-16T19:32:10.581Z,,0,,,NaN,,,,,,false,,,,880163,880163,,880162,,880197,8,400,,,
break_continue,html.Screen,4_144_2,2023-09-16T19:32:10.581Z,,0,,,NaN,,,,,,false,,,,880163,880163,,880163,,880197,8,400,,,
sequence,flow.Sequence,4_144,2023-09-16T19:32:10.581Z,,0,,,4482,completion,,,,,false,,,,880163,880163,875664,875645,875681,880197,8,400,,,
trial,html.Screen,4_145_0,2023-09-16T19:32:14.759Z,,0,3,,4159,response,ISIC_2910705.JPG,0,ISIC_6208222.JPG,ISIC_6208222.JPG,false,0,keypress(z),500,884341,884340,880181,880163,880197,884365,8,400,46,,ISIC_2910705.JPG
break,html.Screen,4_145_1,2023-09-16T19:32:14.760Z,,0,,,NaN,,,,,,false,,,,884341,884341,,884341,,884365,8,400,,,
break_continue,html.Screen,4_145_2,2023-09-16T19:32:14.760Z,,0,,,NaN,,,,,,false,,,,884341,884341,,884341,,884365,8,400,,,
sequence,flow.Sequence,4_145,2023-09-16T19:32:14.760Z,,0,,,4144,completion,,,,,false,,,,884341,884341,880181,880163,880197,884365,8,400,,,
trial,html.Screen,4_146_0,2023-09-16T19:32:19.831Z,,0,3,,5064,response,ISIC_0010049.JPG,15,ISIC_0070974.JPG,ISIC_0070974.JPG,false,0,keypress(z),500,889412,889412,884348,884342,884365,889449,8,400,47,,ISIC_0010049.JPG
break,html.Screen,4_146_1,2023-09-16T19:32:19.831Z,,0,,,NaN,,,,,,false,,,,889413,889412,,889412,,889449,8,400,,,
break_continue,html.Screen,4_146_2,2023-09-16T19:32:19.831Z,,0,,,NaN,,,,,,false,,,,889413,889413,,889413,,889449,8,400,,,
sequence,flow.Sequence,4_146,2023-09-16T19:32:19.832Z,,0,,,5048,completion,,,,,false,,,,889413,889413,884348,884342,884365,889449,8,400,,,
trial,html.Screen,4_147_0,2023-09-16T19:32:23.944Z,,0,3,,4094.0000000001164,response,ISIC_6763221.JPG,1,ISIC_0024702.JPG,ISIC_0024702.JPG,false,0,keypress(z),500,893526.0000000001,893526.0000000001,889432,889413,889449,893547,8,400,48,,ISIC_6763221.JPG
break,html.Screen,4_147_1,2023-09-16T19:32:23.945Z,,0,,,NaN,,,,,,false,,,,893526.0000000001,893526.0000000001,,893526.0000000001,,893547,8,400,,,
break_continue,html.Screen,4_147_2,2023-09-16T19:32:23.945Z,,0,,,NaN,,,,,,false,,,,893527,893527,,893526.0000000001,,893547,8,400,,,
sequence,flow.Sequence,4_147,2023-09-16T19:32:23.945Z,,0,,,4078,completion,,,,,false,,,,893527,893527,889432,889413,889449,893547,8,400,,,
trial,html.Screen,4_148_0,2023-09-16T19:32:32.112Z,,0,3,,8163,response,ISIC_5910975.JPG,7,ISIC_0001578.JPG,ISIC_5910975.JPG,false,1,keypress(m),500,901693,901693,893530,893527,893547,901719,8,400,49,,ISIC_0001578.JPG
break,html.Screen,4_148_1,2023-09-16T19:32:32.112Z,,0,,,NaN,,,,,,false,,,,901693,901693,,901693,,901719,8,400,,,
break_continue,html.Screen,4_148_2,2023-09-16T19:32:32.113Z,,0,,,NaN,,,,,,false,,,,901694.0000000001,901694.0000000001,,901694.0000000001,,901719,8,400,,,
sequence,flow.Sequence,4_148,2023-09-16T19:32:32.113Z,,0,,,8147.000000000116,completion,,,,,false,,,,901694.0000000001,901694.0000000001,893530,893527,893547,901719,8,400,,,
trial,html.Screen,4_149_0,2023-09-16T19:32:37.564Z,,0,3,,5443,response,ISIC_0059357.JPG,13,ISIC_7787118.JPG,ISIC_0059357.JPG,false,1,keypress(m),500,907145,907145,901702,901694.0000000001,901719,907167,8,400,50,,ISIC_7787118.JPG
break,html.Screen,4_149_1,2023-09-16T19:32:47.563Z,,0,,,9993,timeout,,,,,false,,,,917144,917143,907151,907145,907167,917160,8,400,,,
break_continue,html.Screen,4_149_2,2023-09-16T19:33:05.532Z,,0,,,17931.000000000116,response,,,,,false,continue,keypress(Space),,935112,935074.0000000001,917143,917144,917160,935146,8,400,,,
sequence,flow.Sequence,4_149,2023-09-16T19:33:05.532Z,,0,,,33355.00000000012,completion,,,,,false,,,,935112,935074.0000000001,901702,901694.0000000001,901719,935146,8,400,,,
trial,html.Screen,4_150_0,2023-09-16T19:33:11.069Z,,0,4,,5519,response,ISIC_0065658.JPG,14,ISIC_0014114.JPG,ISIC_0065658.JPG,false,1,keypress(m),500,940649,940649,935130,935112,935146,940686,8,400,1,,ISIC_0014114.JPG
break,html.Screen,4_150_1,2023-09-16T19:33:11.070Z,,0,,,NaN,,,,,,false,,,,940650,940649,,940649,,940686,8,400,,,
break_continue,html.Screen,4_150_2,2023-09-16T19:33:11.070Z,,0,,,NaN,,,,,,false,,,,940650,940650,,940650,,940686,8,400,,,
sequence,flow.Sequence,4_150,2023-09-16T19:33:11.070Z,,0,,,5504,completion,,,,,false,,,,940650,940650,935130,935112,935146,940686,8,400,,,
trial,html.Screen,4_151_0,2023-09-16T19:33:16.432Z,,0,4,,5342,response,ISIC_0025357.JPG,15,ISIC_0061320.JPG,ISIC_0061320.JPG,false,0,keypress(z),500,946012,946011,940669,940650,940686,946036,8,400,2,,ISIC_0025357.JPG
break,html.Screen,4_151_1,2023-09-16T19:33:16.432Z,,0,,,NaN,,,,,,false,,,,946012,946012,,946012,,946036,8,400,,,
break_continue,html.Screen,4_151_2,2023-09-16T19:33:16.433Z,,0,,,NaN,,,,,,false,,,,946012,946012,,946012,,946036,8,400,,,
sequence,flow.Sequence,4_151,2023-09-16T19:33:16.433Z,,0,,,5326,completion,,,,,false,,,,946012,946012,940669,940650,940686,946036,8,400,,,
trial,html.Screen,4_152_0,2023-09-16T19:33:20.192Z,,0,4,,3752.0000000001164,response,ISIC_3012778.JPG,13,ISIC_2999018.JPG,ISIC_2999018.JPG,false,0,keypress(z),500,949772,949771.0000000001,946019,946013,946036,949803,8,400,3,,ISIC_3012778.JPG
break,html.Screen,4_152_1,2023-09-16T19:33:20.193Z,,0,,,NaN,,,,,,false,,,,949772,949772,,949772,,949803,8,400,,,
break_continue,html.Screen,4_152_2,2023-09-16T19:33:20.193Z,,0,,,NaN,,,,,,false,,,,949772,949772,,949772,,949803,8,400,,,
sequence,flow.Sequence,4_152,2023-09-16T19:33:20.193Z,,0,,,3736,completion,,,,,false,,,,949772,949772,946019,946012,946036,949803,8,400,,,
trial,html.Screen,4_153_0,2023-09-16T19:33:24.185Z,,0,4,,3978,response,ISIC_4646228.JPG,15,ISIC_0063961.JPG,ISIC_0063961.JPG,false,0,keypress(z),500,953765,953765,949787,949772,949803,953788,8,400,4,,ISIC_4646228.JPG
break,html.Screen,4_153_1,2023-09-16T19:33:24.186Z,,0,,,NaN,,,,,,false,,,,953765,953765,,953765,,953788,8,400,,,
break_continue,html.Screen,4_153_2,2023-09-16T19:33:24.186Z,,0,,,NaN,,,,,,false,,,,953766.0000000001,953765,,953765,,953788,8,400,,,
sequence,flow.Sequence,4_153,2023-09-16T19:33:24.186Z,,0,,,3962,completion,,,,,false,,,,953766.0000000001,953765,949787,949772,949803,953788,8,400,,,
trial,html.Screen,4_154_0,2023-09-16T19:33:30.585Z,,0,4,,6393,response,ISIC_0066314.JPG,0,ISIC_4086323.JPG,ISIC_0066314.JPG,false,1,keypress(m),500,960165,960164,953771,953766.0000000001,953788,960189,8,400,5,,ISIC_4086323.JPG
break,html.Screen,4_154_1,2023-09-16T19:33:30.586Z,,0,,,NaN,,,,,,false,,,,960165,960165,,960165,,960189,8,400,,,
break_continue,html.Screen,4_154_2,2023-09-16T19:33:30.586Z,,0,,,NaN,,,,,,false,,,,960165,960165,,960165,,960189,8,400,,,
sequence,flow.Sequence,4_154,2023-09-16T19:33:30.586Z,,0,,,6377,completion,,,,,false,,,,960165,960165,953771,953766.0000000001,953788,960189,8,400,,,
trial,html.Screen,4_155_0,2023-09-16T19:33:34.874Z,,0,4,,4281,response,ISIC_0026531.JPG,1,ISIC_8310944.JPG,ISIC_0026531.JPG,false,1,keypress(m),500,964453,964453,960172,960166,960189,964489,8,400,6,,ISIC_8310944.JPG
break,html.Screen,4_155_1,2023-09-16T19:33:34.875Z,,0,,,NaN,,,,,,false,,,,964454.0000000001,964454.0000000001,,964453,,964489,8,400,,,
break_continue,html.Screen,4_155_2,2023-09-16T19:33:34.875Z,,0,,,NaN,,,,,,false,,,,964454.0000000001,964454.0000000001,,964454.0000000001,,964489,8,400,,,
sequence,flow.Sequence,4_155,2023-09-16T19:33:34.875Z,,0,,,4265.000000000116,completion,,,,,false,,,,964454.0000000001,964454.0000000001,960172,960166,960189,964489,8,400,,,
trial,html.Screen,4_156_0,2023-09-16T19:33:40.168Z,,0,4,,5274.000000000116,response,ISIC_5049365.JPG,16,ISIC_0004955.JPG,ISIC_5049365.JPG,false,1,keypress(m),500,969747.0000000001,969747.0000000001,964473,964454.0000000001,964489,969770,8,400,7,,ISIC_0004955.JPG
break,html.Screen,4_156_1,2023-09-16T19:33:40.169Z,,0,,,NaN,,,,,,false,,,,969748,969748,,969747.0000000001,,969770,8,400,,,
break_continue,html.Screen,4_156_2,2023-09-16T19:33:40.169Z,,0,,,NaN,,,,,,false,,,,969748,969748,,969748,,969770,8,400,,,
sequence,flow.Sequence,4_156,2023-09-16T19:33:40.169Z,,0,,,5259,completion,,,,,false,,,,969748,969748,964473,964454.0000000001,964489,969770,8,400,,,
