sender,sender_type,sender_id,timestamp,meta,,blockNo,condition,duration,ended_on,img_left,img_reveal,img_right,loser,practice,response,response_action,selection_duration,time_commit,time_end,time_render,time_run,time_show,time_switch,total_blocks,total_trials,trialNo,url,winner
informed_consent,html.Screen,0,2023-09-18T00:52:51.256Z,"{""labjs_version"":""20.2.4"",""labjs_build"":{""flavor"":""production"",""commit"":""f5b4a49f956347addd546a832a3327688c2c0fef""},""location"":""https://run.pavlovia.org/MurrayBennett/melanoma-2afc/?participant=67283&platform=sona"",""userAgent"":""Mozilla/5.0 (Macintosh; Intel Mac OS X 10_15_7) AppleWebKit/537.36 (KHTML, like Gecko) Chrome/116.0.0.0 Safari/537.36 Edg/116.0.1938.54"",""platform"":""MacIntel"",""language"":""en-US"",""locale"":""en-US"",""timeZone"":""America/Chicago"",""timezoneOffset"":300,""screen_width"":1512,""screen_height"":982,""scroll_width"":1512,""scroll_height"":818,""window_innerWidth"":1512,""window_innerHeight"":866,""devicePixelRatio"":2}",,,,4948.073999952316,response,,,,,,consent,click button,,8242.5,8238.799999952316,3140.732,3293.1999999284744,3290.726,8257.589,,,,"{""participant"":""67283"",""platform"":""sona""}",
Welcome,html.Screen,1,2023-09-18T00:52:52.336Z,,,,irregular,1060.911,response,,,,,,continue,click button,,9322.5,9318.5,8240.923,8242.599999904633,8257.589,9324.213,,,,,
trial,html.Screen,2_0_0,2023-09-18T00:53:03.833Z,,0,0,,11508.394,timeout,ISIC_0061792.JPG,,ISIC_4679428.JPG,,true,,,500,20819.899999976158,20819.399999976158,9315.88,9322.699999928474,9324.213,20832.607,1,6,1,,
sequence,flow.Sequence,2_0,2023-09-18T00:53:03.833Z,,0,,,11495.186999976158,completion,,,,,true,,,,20820.5,20819.399999976158,9315.88,9322.699999928474,9324.213,20832.607,1,6,,,
trial,html.Screen,2_1_0,2023-09-18T00:53:14.295Z,,0,0,,10448.592999928474,response,ISIC_5199497.JPG,,ISIC_0776486.JPG,ISIC_5199497.JPG,true,1,keypress(m),500,31281.599999904633,31281.199999928474,20824.274,20820.599999904633,20832.607,31286.754,1,6,2,,ISIC_0776486.JPG
sequence,flow.Sequence,2_1,2023-09-18T00:53:14.295Z,,0,,,10448.592999928474,completion,,,,,true,,,,31282.099999904633,31281.199999928474,20824.274,20820.5,20832.607,31286.754,1,6,,,
trial,html.Screen,2_2_0,2023-09-18T00:53:22.586Z,,0,0,,8285.746,response,ISIC_2556187.JPG,,ISIC_8575776.JPG,ISIC_8575776.JPG,true,0,keypress(z),500,39573.09999990463,39572.5,31278.421,31282.299999952316,31286.754,39578.089,1,6,3,,ISIC_2556187.JPG
sequence,flow.Sequence,2_2,2023-09-18T00:53:22.586Z,,0,,,8285.746,completion,,,,,true,,,,39573.59999990463,39572.5,31278.421,31282.199999928474,31286.754,39578.089,1,6,,,
trial,html.Screen,2_3_0,2023-09-18T00:53:25.592Z,,0,0,,3000.411,response,ISIC_8141769.JPG,,ISIC_9238366.JPG,ISIC_9238366.JPG,true,0,keypress(z),500,42579,42578.5,39569.756,39573.89999997616,39578.089,42582.542,1,6,4,,ISIC_8141769.JPG
sequence,flow.Sequence,2_3,2023-09-18T00:53:25.592Z,,0,,,3000.411,completion,,,,,true,,,,42579.5,42578.5,39569.756,39573.799999952316,39578.089,42582.542,1,6,,,
trial,html.Screen,2_4_0,2023-09-18T00:53:31.590Z,,0,0,,5994.057999904631,response,ISIC_9959593.JPG,,ISIC_8949026.JPG,ISIC_8949026.JPG,true,0,keypress(z),500,48577.09999990463,48576.59999990463,42574.209,42579.699999928474,42582.542,48582.302,1,6,5,,ISIC_9959593.JPG
sequence,flow.Sequence,2_4,2023-09-18T00:53:31.590Z,,0,,,5994.057999904631,completion,,,,,true,,,,48577.59999990463,48576.59999990463,42574.209,42579.59999990463,42582.542,48582.302,1,6,,,
trial,html.Screen,2_5_0,2023-09-18T00:53:34.557Z,,0,0,,2961.497999952313,response,ISIC_0460240.JPG,,ISIC_0010479.JPG,ISIC_0460240.JPG,true,1,keypress(m),500,51544.39999997616,51543.799999952316,48573.969,48577.799999952316,48582.302,51548.85,1,6,6,,ISIC_0010479.JPG
sequence,flow.Sequence,2_5,2023-09-18T00:53:34.557Z,,0,,,2961.497999952313,completion,,,,,true,,,,51544.799999952316,51543.799999952316,48573.969,48577.699999928474,48582.302,51548.85,1,6,,,
loop,flow.Loop,2,2023-09-18T00:53:34.558Z,,,,,42219.58699995231,completion,,,,,true,,,,51545.09999990463,51543.799999952316,9315.88,9322.599999904633,9324.213,51548.85,1,6,,,
exp_instructions,html.Screen,3,2023-09-18T00:53:37.703Z,,,,,3135.249999904634,response,,,,,,continue,keypress(Space),,54690.09999990463,54684.09999990463,51540.517,51545.199999928474,51548.85,54694.969,,,,,
trial,html.Screen,4_0_0,2023-09-18T00:53:41.947Z,,0,1,,4239.031000000003,response,ISIC_7141153.JPG,5,ISIC_8287726.JPG,ISIC_8287726.JPG,false,0,keypress(z),500,58934.5,58934,54686.636,54690.39999997616,54694.969,58936.466,8,400,1,,ISIC_7141153.JPG
break,html.Screen,4_0_1,2023-09-18T00:53:41.948Z,,0,,,NaN,,,,,,false,,,,58935.799999952316,58935.5,,58934.699999928474,,58936.466,8,400,,,
break_continue,html.Screen,4_0_2,2023-09-18T00:53:41.949Z,,0,,,NaN,,,,,,false,,,,58936.299999952316,58936.09999990463,,58935.89999997616,,58936.466,8,400,,,
sequence,flow.Sequence,4_0,2023-09-18T00:53:41.949Z,,0,,,4241.130999904635,completion,,,,,false,,,,58936.5,58936.09999990463,54686.636,54690.39999997616,54694.969,58936.466,8,400,,,
trial,html.Screen,4_1_0,2023-09-18T00:53:47.085Z,,0,1,,5136.133999904632,response,ISIC_2948811.JPG,15,ISIC_3646670.JPG,ISIC_2948811.JPG,false,1,keypress(m),500,64073,64072.59999990463,58928.133,58936.59999990463,58936.466,64078.4,8,400,2,,ISIC_3646670.JPG
break,html.Screen,4_1_1,2023-09-18T00:53:47.087Z,,0,,,NaN,,,,,,false,,,,64074.09999990463,64073.799999952316,,64073.299999952316,,64078.4,8,400,,,
break_continue,html.Screen,4_1_2,2023-09-18T00:53:47.087Z,,0,,,NaN,,,,,,false,,,,64074.5,64074.299999952316,,64074.199999928474,,64078.4,8,400,,,
sequence,flow.Sequence,4_1,2023-09-18T00:53:47.087Z,,0,,,5137.833999952316,completion,,,,,false,,,,64074.59999990463,64074.299999952316,58928.133,58936.5,58936.466,64078.4,8,400,,,
trial,html.Screen,4_2_0,2023-09-18T00:53:50.035Z,,0,1,,2943.299999928473,response,ISIC_3161477.JPG,8,ISIC_0064120.JPG,ISIC_3161477.JPG,false,1,keypress(m),500,67022.19999992847,67021.69999992847,64070.067,64074.799999952316,64078.4,67028.282,8,400,3,,ISIC_0064120.JPG
break,html.Screen,4_2_1,2023-09-18T00:53:50.036Z,,0,,,NaN,,,,,,false,,,,67023.29999995232,67023,,67022.5,,67028.282,8,400,,,
break_continue,html.Screen,4_2_2,2023-09-18T00:53:50.036Z,,0,,,NaN,,,,,,false,,,,67023.59999990463,67023.39999997616,,67023.39999997616,,67028.282,8,400,,,
sequence,flow.Sequence,4_2,2023-09-18T00:53:50.036Z,,0,,,2944.9999999761567,completion,,,,,false,,,,67023.69999992847,67023.39999997616,64070.067,64074.699999928474,64078.4,67028.282,8,400,,,
trial,html.Screen,4_3_0,2023-09-18T00:53:53.880Z,,0,1,,3838.917999928468,response,ISIC_0014219.JPG,8,ISIC_2847555.JPG,ISIC_2847555.JPG,false,0,keypress(z),500,70867.69999992847,70867.19999992847,67019.949,67023.89999997616,67028.282,70869.795,8,400,4,,ISIC_0014219.JPG
break,html.Screen,4_3_1,2023-09-18T00:53:53.881Z,,0,,,NaN,,,,,,false,,,,70868.79999995232,70868.59999990463,,70868,,70869.795,8,400,,,
break_continue,html.Screen,4_3_2,2023-09-18T00:53:53.882Z,,0,,,NaN,,,,,,false,,,,70869.09999990463,70869.09999990463,,70869,,70869.795,8,400,,,
sequence,flow.Sequence,4_3,2023-09-18T00:53:53.882Z,,0,,,3840.817999904626,completion,,,,,false,,,,70869.29999995232,70869.09999990463,67019.949,67023.89999997616,67028.282,70869.795,8,400,,,
trial,html.Screen,4_4_0,2023-09-18T00:53:57.334Z,,0,1,,3451.904999928476,response,ISIC_0065943.JPG,8,ISIC_5174685.JPG,ISIC_5174685.JPG,false,0,keypress(z),500,74322,74321.69999992847,70861.462,70869.39999997616,70869.795,74324.228,8,400,5,,ISIC_0065943.JPG
break,html.Screen,4_4_1,2023-09-18T00:53:57.335Z,,0,,,NaN,,,,,,false,,,,74322.69999992847,74322.5,,74322.09999990463,,74324.228,8,400,,,
break_continue,html.Screen,4_4_2,2023-09-18T00:53:57.335Z,,0,,,NaN,,,,,,false,,,,74322.79999995232,74322.79999995232,,74322.79999995232,,74324.228,8,400,,,
sequence,flow.Sequence,4_4,2023-09-18T00:53:57.335Z,,0,,,3453.004999952318,completion,,,,,false,,,,74323,74322.79999995232,70861.462,70869.39999997616,70869.795,74324.228,8,400,,,
trial,html.Screen,4_5_0,2023-09-18T00:54:00.540Z,,0,1,,3203.5719999523135,response,ISIC_0032921.JPG,21,ISIC_0000522.JPG,ISIC_0000522.JPG,false,0,keypress(z),500,77528,77527.79999995232,74315.895,74323,74324.228,77532.433,8,400,6,,ISIC_0032921.JPG
break,html.Screen,4_5_1,2023-09-18T00:54:00.541Z,,0,,,NaN,,,,,,false,,,,77529,77528.79999995232,,77528.29999995232,,77532.433,8,400,,,
break_continue,html.Screen,4_5_2,2023-09-18T00:54:00.542Z,,0,,,NaN,,,,,,false,,,,77529.29999995232,77529.19999992847,,77529.09999990463,,77532.433,8,400,,,
sequence,flow.Sequence,4_5,2023-09-18T00:54:00.542Z,,0,,,3204.9719999284716,completion,,,,,false,,,,77529.39999997616,77529.19999992847,74315.895,74323,74324.228,77532.433,8,400,,,
trial,html.Screen,4_6_0,2023-09-18T00:54:03.341Z,,0,1,,2796.166999904628,response,ISIC_1097830.JPG,8,ISIC_0026982.JPG,ISIC_1097830.JPG,false,1,keypress(m),500,80328.89999997616,80328.59999990463,77524.1,77529.5,77532.433,80332.321,8,400,7,,ISIC_0026982.JPG
break,html.Screen,4_6_1,2023-09-18T00:54:03.342Z,,0,,,NaN,,,,,,false,,,,80329.89999997616,80329.69999992847,,80329.19999992847,,80332.321,8,400,,,
break_continue,html.Screen,4_6_2,2023-09-18T00:54:03.343Z,,0,,,NaN,,,,,,false,,,,80330.29999995232,80330.19999992847,,80330.09999990463,,80332.321,8,400,,,
sequence,flow.Sequence,4_6,2023-09-18T00:54:03.343Z,,0,,,2797.76699992847,completion,,,,,false,,,,80330.59999990463,80330.19999992847,77524.1,77529.5,77532.433,80332.321,8,400,,,
trial,html.Screen,4_7_0,2023-09-18T00:54:06.549Z,,0,1,,3203.578999976162,response,ISIC_6298726.JPG,6,ISIC_0072422.JPG,ISIC_6298726.JPG,false,1,keypress(m),500,83536.39999997616,83535.89999997616,80323.988,80330.69999992847,80332.321,83540.526,8,400,8,,ISIC_0072422.JPG
break,html.Screen,4_7_1,2023-09-18T00:54:06.550Z,,0,,,NaN,,,,,,false,,,,83537.39999997616,83537.09999990463,,83536.69999992847,,83540.526,8,400,,,
break_continue,html.Screen,4_7_2,2023-09-18T00:54:06.550Z,,0,,,NaN,,,,,,false,,,,83537.79999995232,83537.59999990463,,83537.5,,83540.526,8,400,,,
sequence,flow.Sequence,4_7,2023-09-18T00:54:06.550Z,,0,,,3205.2789999046363,completion,,,,,false,,,,83538,83537.59999990463,80323.988,80330.59999990463,80332.321,83540.526,8,400,,,
trial,html.Screen,4_8_0,2023-09-18T00:54:13.020Z,,0,1,,6467.073999904635,response,ISIC_0065283.JPG,9,ISIC_0026745.JPG,ISIC_0026745.JPG,false,0,keypress(z),500,90008,90007.59999990463,83532.193,83539.29999995232,83540.526,90015.674,8,400,9,,ISIC_0065283.JPG
break,html.Screen,4_8_1,2023-09-18T00:54:13.021Z,,0,,,NaN,,,,,,false,,,,90009.09999990463,90008.79999995232,,90008.29999995232,,90015.674,8,400,,,
break_continue,html.Screen,4_8_2,2023-09-18T00:54:13.022Z,,0,,,NaN,,,,,,false,,,,90009.39999997616,90009.29999995232,,90009.19999992847,,90015.674,8,400,,,
sequence,flow.Sequence,4_8,2023-09-18T00:54:13.022Z,,0,,,6468.773999952318,completion,,,,,false,,,,90009.59999990463,90009.29999995232,83532.193,83539.19999992847,83540.526,90015.674,8,400,,,
trial,html.Screen,4_9_0,2023-09-18T00:54:15.922Z,,0,1,,2894.225999976159,response,ISIC_0028306.JPG,8,ISIC_0053541.JPG,ISIC_0028306.JPG,false,1,keypress(m),500,92910.29999995232,92909.89999997616,90007.341,90009.69999992847,90015.674,92915.558,8,400,10,,ISIC_0053541.JPG
break,html.Screen,4_9_1,2023-09-18T00:54:15.924Z,,0,,,NaN,,,,,,false,,,,92911.29999995232,92911.09999990463,,92910.59999990463,,92915.558,8,400,,,
break_continue,html.Screen,4_9_2,2023-09-18T00:54:15.924Z,,0,,,NaN,,,,,,false,,,,92911.69999992847,92911.59999990463,,92911.5,,92915.558,8,400,,,
sequence,flow.Sequence,4_9,2023-09-18T00:54:15.924Z,,0,,,2895.9259999046335,completion,,,,,false,,,,92911.89999997616,92911.59999990463,90007.341,90009.69999992847,90015.674,92915.558,8,400,,,
trial,html.Screen,4_10_0,2023-09-18T00:54:19.370Z,,0,1,,3442.041999904628,response,ISIC_5520533.JPG,8,ISIC_0065039.JPG,ISIC_0065039.JPG,false,0,keypress(z),500,96357.89999997616,96357.59999990463,92907.225,92912,92915.558,96361.652,8,400,11,,ISIC_5520533.JPG
break,html.Screen,4_10_1,2023-09-18T00:54:19.371Z,,0,,,NaN,,,,,,false,,,,96358.89999997616,96358.69999992847,,96358.19999992847,,96361.652,8,400,,,
break_continue,html.Screen,4_10_2,2023-09-18T00:54:19.371Z,,0,,,NaN,,,,,,false,,,,96359.29999995232,96359.19999992847,,96359,,96361.652,8,400,,,
sequence,flow.Sequence,4_10,2023-09-18T00:54:19.372Z,,0,,,3443.64199992847,completion,,,,,false,,,,96359.5,96359.19999992847,92907.225,92911.89999997616,92915.558,96361.652,8,400,,,
trial,html.Screen,4_11_0,2023-09-18T00:54:22.737Z,,0,1,,3363.347999999998,response,ISIC_0056271.JPG,8,ISIC_1023354.JPG,ISIC_1023354.JPG,false,0,keypress(z),500,99725.39999997616,99725,96353.319,96359.5,96361.652,99728.184,8,400,12,,ISIC_0056271.JPG
break,html.Screen,4_11_1,2023-09-18T00:54:22.738Z,,0,,,NaN,,,,,,false,,,,99726.29999995232,99726.09999990463,,99725.59999990463,,99728.184,8,400,,,
break_continue,html.Screen,4_11_2,2023-09-18T00:54:22.739Z,,0,,,NaN,,,,,,false,,,,99726.69999992847,99726.59999990463,,99726.5,,99728.184,8,400,,,
sequence,flow.Sequence,4_11,2023-09-18T00:54:22.739Z,,0,,,3364.9479999046307,completion,,,,,false,,,,99726.89999997616,99726.59999990463,96353.319,96359.5,96361.652,99728.184,8,400,,,
trial,html.Screen,4_12_0,2023-09-18T00:54:26.269Z,,0,1,,3528.4159999046387,response,ISIC_0028248.JPG,27,ISIC_0027600.JPG,ISIC_0027600.JPG,false,0,keypress(z),500,103257,103256.59999990463,99719.851,99727,99728.184,103261.376,8,400,13,,ISIC_0028248.JPG
break,html.Screen,4_12_1,2023-09-18T00:54:26.270Z,,0,,,NaN,,,,,,false,,,,103258,103257.69999992847,,103257.19999992847,,103261.376,8,400,,,
break_continue,html.Screen,4_12_2,2023-09-18T00:54:26.270Z,,0,,,NaN,,,,,,false,,,,103258.29999995232,103258.19999992847,,103258.09999990463,,103261.376,8,400,,,
sequence,flow.Sequence,4_12,2023-09-18T00:54:26.271Z,,0,,,3530.0159999284806,completion,,,,,false,,,,103258.5,103258.19999992847,99719.851,99727,99728.184,103261.376,8,400,,,
trial,html.Screen,4_13_0,2023-09-18T00:54:31.492Z,,0,1,,5218.523999976154,response,ISIC_0006116.JPG,8,ISIC_0027502.JPG,ISIC_0027502.JPG,false,0,keypress(z),500,108480.19999992847,108479.89999997616,103253.043,103258.59999990463,103261.376,108486.573,8,400,14,,ISIC_0006116.JPG
break,html.Screen,4_13_1,2023-09-18T00:54:31.493Z,,0,,,NaN,,,,,,false,,,,108481.09999990463,108480.89999997616,,108480.39999997616,,108486.573,8,400,,,
break_continue,html.Screen,4_13_2,2023-09-18T00:54:31.493Z,,0,,,NaN,,,,,,false,,,,108481.39999997616,108481.29999995232,,108481.19999992847,,108486.573,8,400,,,
sequence,flow.Sequence,4_13,2023-09-18T00:54:31.494Z,,0,,,5219.923999952312,completion,,,,,false,,,,108481.5,108481.29999995232,103253.043,103258.5,103261.376,108486.573,8,400,,,
trial,html.Screen,4_14_0,2023-09-18T00:54:36.874Z,,0,1,,5375.326999976154,response,ISIC_0054239.JPG,6,ISIC_7629589.JPG,ISIC_7629589.JPG,false,0,keypress(z),500,113862.19999992847,113861.89999997616,108478.24,108481.69999992847,108486.573,113869.691,8,400,15,,ISIC_0054239.JPG
break,html.Screen,4_14_1,2023-09-18T00:54:36.875Z,,0,,,NaN,,,,,,false,,,,113863,113862.89999997616,,113862.39999997616,,113869.691,8,400,,,
break_continue,html.Screen,4_14_2,2023-09-18T00:54:36.875Z,,0,,,NaN,,,,,,false,,,,113863.19999992847,113863.09999990463,,113863.09999990463,,113869.691,8,400,,,
sequence,flow.Sequence,4_14,2023-09-18T00:54:36.875Z,,0,,,5376.526999904629,completion,,,,,false,,,,113863.29999995232,113863.09999990463,108478.24,108481.59999990463,108486.573,113869.691,8,400,,,
trial,html.Screen,4_15_0,2023-09-18T00:54:40.288Z,,0,1,,3406.5089999284683,response,ISIC_6383486.JPG,8,ISIC_5583159.JPG,ISIC_5583159.JPG,false,0,keypress(z),500,117276.59999990463,117276.19999992847,113861.358,113863.29999995232,113869.691,117278.285,8,400,16,,ISIC_6383486.JPG
break,html.Screen,4_15_1,2023-09-18T00:54:40.290Z,,0,,,NaN,,,,,,false,,,,117277.59999990463,117277.29999995232,,117276.89999997616,,117278.285,8,400,,,
break_continue,html.Screen,4_15_2,2023-09-18T00:54:40.290Z,,0,,,NaN,,,,,,false,,,,117278,117277.79999995232,,117277.69999992847,,117278.285,8,400,,,
sequence,flow.Sequence,4_15,2023-09-18T00:54:40.290Z,,0,,,3408.10899995231,completion,,,,,false,,,,117278.09999990463,117277.79999995232,113861.358,113863.29999995232,113869.691,117278.285,8,400,,,
trial,html.Screen,4_16_0,2023-09-18T00:54:43.783Z,,0,1,,3492.2149999999965,response,ISIC_8733345.JPG,26,ISIC_8709211.JPG,ISIC_8733345.JPG,false,1,keypress(m),500,120771,120770.5,117269.952,117278.19999992847,117278.285,120778.145,8,400,17,,ISIC_8709211.JPG
break,html.Screen,4_16_1,2023-09-18T00:54:43.784Z,,0,,,NaN,,,,,,false,,,,120772,120771.69999992847,,120771.29999995232,,120778.145,8,400,,,
break_continue,html.Screen,4_16_2,2023-09-18T00:54:43.784Z,,0,,,NaN,,,,,,false,,,,120772.39999997616,120772.19999992847,,120772.09999990463,,120778.145,8,400,,,
sequence,flow.Sequence,4_16,2023-09-18T00:54:43.784Z,,0,,,3493.914999928471,completion,,,,,false,,,,120772.39999997616,120772.19999992847,117269.952,117278.19999992847,117278.285,120778.145,8,400,,,
trial,html.Screen,4_17_0,2023-09-18T00:54:48.221Z,,0,1,,4430.4549999046285,response,ISIC_0021052.JPG,7,ISIC_8484660.JPG,ISIC_0021052.JPG,false,1,keypress(m),500,125209.09999990463,125208.59999990463,120769.812,120772.59999990463,120778.145,125211.301,8,400,18,,ISIC_8484660.JPG
break,html.Screen,4_17_1,2023-09-18T00:54:48.222Z,,0,,,NaN,,,,,,false,,,,125210.09999990463,125209.89999997616,,125209.39999997616,,125211.301,8,400,,,
break_continue,html.Screen,4_17_2,2023-09-18T00:54:48.222Z,,0,,,NaN,,,,,,false,,,,125210.5,125210.39999997616,,125210.19999992847,,125211.301,8,400,,,
sequence,flow.Sequence,4_17,2023-09-18T00:54:48.222Z,,0,,,4432.254999976154,completion,,,,,false,,,,125210.59999990463,125210.39999997616,120769.812,120772.5,120778.145,125211.301,8,400,,,
trial,html.Screen,4_18_0,2023-09-18T00:54:52.914Z,,0,1,,4690.598999976151,response,ISIC_0634107.JPG,10,ISIC_0071678.JPG,ISIC_0634107.JPG,false,1,keypress(m),500,129902.19999992847,129901.89999997616,125202.968,125210.69999992847,125211.301,129907.353,8,400,19,,ISIC_0071678.JPG
break,html.Screen,4_18_1,2023-09-18T00:54:52.915Z,,0,,,NaN,,,,,,false,,,,129903,129902.79999995232,,129902.39999997616,,129907.353,8,400,,,
break_continue,html.Screen,4_18_2,2023-09-18T00:54:52.915Z,,0,,,NaN,,,,,,false,,,,129903.09999990463,129903.09999990463,,129903.09999990463,,129907.353,8,400,,,
sequence,flow.Sequence,4_18,2023-09-18T00:54:52.915Z,,0,,,4691.798999904626,completion,,,,,false,,,,129903.19999992847,129903.09999990463,125202.968,125210.69999992847,125211.301,129907.353,8,400,,,
trial,html.Screen,4_19_0,2023-09-18T00:54:58.197Z,,0,1,,5277.74699990463,response,ISIC_0010262.JPG,7,ISIC_0000660.JPG,ISIC_0000660.JPG,false,0,keypress(z),500,135185.5,135185.09999990463,129899.02,129903.29999995232,129907.353,135198.808,8,400,20,,ISIC_0010262.JPG
break,html.Screen,4_19_1,2023-09-18T00:54:58.198Z,,0,,,NaN,,,,,,false,,,,135186.5,135186.29999995232,,135185.79999995232,,135198.808,8,400,,,
break_continue,html.Screen,4_19_2,2023-09-18T00:54:58.199Z,,0,,,NaN,,,,,,false,,,,135186.79999995232,135186.69999992847,,135186.59999990463,,135198.808,8,400,,,
sequence,flow.Sequence,4_19,2023-09-18T00:54:58.199Z,,0,,,5279.346999928472,completion,,,,,false,,,,135187,135186.69999992847,129899.02,129903.29999995232,129907.353,135198.808,8,400,,,
trial,html.Screen,4_20_0,2023-09-18T00:55:01.225Z,,0,1,,3014.591999976168,response,ISIC_0054280.JPG,8,ISIC_0060975.JPG,ISIC_0054280.JPG,false,1,keypress(m),500,138213.69999992847,138213.39999997616,135190.475,135187.09999990463,135198.808,138219.945,8,400,21,,ISIC_0060975.JPG
break,html.Screen,4_20_1,2023-09-18T00:55:01.226Z,,0,,,NaN,,,,,,false,,,,138214.79999995232,138214.59999990463,,138214.09999990463,,138219.945,8,400,,,
break_continue,html.Screen,4_20_2,2023-09-18T00:55:01.227Z,,0,,,NaN,,,,,,false,,,,138215.09999990463,138215,,138214.89999997616,,138219.945,8,400,,,
sequence,flow.Sequence,4_20,2023-09-18T00:55:01.227Z,,0,,,3016.19200000001,completion,,,,,false,,,,138215.29999995232,138215,135190.475,135187.09999990463,135198.808,138219.945,8,400,,,
trial,html.Screen,4_21_0,2023-09-18T00:55:04.705Z,,0,1,,3472.954999976151,response,ISIC_7642591.JPG,31,ISIC_4084359.JPG,ISIC_4084359.JPG,false,0,keypress(z),500,141693.29999995232,141692.89999997616,138211.612,138215.39999997616,138219.945,141694.806,8,400,22,,ISIC_7642591.JPG
break,html.Screen,4_21_1,2023-09-18T00:55:04.706Z,,0,,,NaN,,,,,,false,,,,141694.39999997616,141694.19999992847,,141693.59999990463,,141694.806,8,400,,,
break_continue,html.Screen,4_21_2,2023-09-18T00:55:04.706Z,,0,,,NaN,,,,,,false,,,,141694.79999995232,141694.69999992847,,141694.5,,141694.806,8,400,,,
sequence,flow.Sequence,4_21,2023-09-18T00:55:04.707Z,,0,,,3474.7549999284674,completion,,,,,false,,,,141694.89999997616,141694.69999992847,138211.612,138215.39999997616,138219.945,141694.806,8,400,,,
trial,html.Screen,4_22_0,2023-09-18T00:55:07.656Z,,0,1,,2948.993999952305,response,ISIC_8835545.JPG,8,ISIC_0033233.JPG,ISIC_8835545.JPG,false,1,keypress(m),500,144644.29999995232,144643.79999995232,141686.473,141695.09999990463,141694.806,144653.021,8,400,23,,ISIC_0033233.JPG
break,html.Screen,4_22_1,2023-09-18T00:55:07.657Z,,0,,,NaN,,,,,,false,,,,144645.19999992847,144645,,144644.5,,144653.021,8,400,,,
break_continue,html.Screen,4_22_2,2023-09-18T00:55:07.657Z,,0,,,NaN,,,,,,false,,,,144645.59999990463,144645.5,,144645.39999997616,,144653.021,8,400,,,
sequence,flow.Sequence,4_22,2023-09-18T00:55:07.657Z,,0,,,2950.6939999999886,completion,,,,,false,,,,144645.79999995232,144645.5,141686.473,141695,141694.806,144653.021,8,400,,,
trial,html.Screen,4_23_0,2023-09-18T00:55:11.284Z,,0,1,,3619.5789999046247,response,ISIC_0011862.JPG,6,ISIC_0029078.JPG,ISIC_0011862.JPG,false,1,keypress(m),500,148272.79999995232,148272.59999990463,144644.688,144645.89999997616,144653.021,148278.337,8,400,24,,ISIC_0029078.JPG
break,html.Screen,4_23_1,2023-09-18T00:55:11.285Z,,0,,,NaN,,,,,,false,,,,148273.59999990463,148273.5,,148273,,148278.337,8,400,,,
break_continue,html.Screen,4_23_2,2023-09-18T00:55:11.285Z,,0,,,NaN,,,,,,false,,,,148273.79999995232,148273.69999992847,,148273.59999990463,,148278.337,8,400,,,
sequence,flow.Sequence,4_23,2023-09-18T00:55:11.285Z,,0,,,3620.6789999284665,completion,,,,,false,,,,148273.89999997616,148273.69999992847,144644.688,144645.79999995232,144653.021,148278.337,8,400,,,
trial,html.Screen,4_24_0,2023-09-18T00:55:14.199Z,,0,1,,2908.862999928475,response,ISIC_2741583.JPG,8,ISIC_0060326.JPG,ISIC_2741583.JPG,false,1,keypress(m),500,151187.59999990463,151187.19999992847,148270.004,148274,148278.337,151194.887,8,400,25,,ISIC_0060326.JPG
break,html.Screen,4_24_1,2023-09-18T00:55:14.200Z,,0,,,NaN,,,,,,false,,,,151188.69999992847,151188.5,,151188,,151194.887,8,400,,,
break_continue,html.Screen,4_24_2,2023-09-18T00:55:14.201Z,,0,,,NaN,,,,,,false,,,,151189,151189,,151188.89999997616,,151194.887,8,400,,,
sequence,flow.Sequence,4_24,2023-09-18T00:55:14.201Z,,0,,,2910.6630000000005,completion,,,,,false,,,,151189.19999992847,151189,148270.004,148274,148278.337,151194.887,8,400,,,
trial,html.Screen,4_25_0,2023-09-18T00:55:17.453Z,,0,1,,3246.5129999761702,response,ISIC_6487809.JPG,8,ISIC_0058035.JPG,ISIC_0058035.JPG,false,0,keypress(z),500,154441.69999992847,154441.39999997616,151186.554,151189.39999997616,151194.887,154444.757,8,400,26,,ISIC_6487809.JPG
break,html.Screen,4_25_1,2023-09-18T00:55:17.454Z,,0,,,NaN,,,,,,false,,,,154442.5,154442.29999995232,,154441.89999997616,,154444.757,8,400,,,
break_continue,html.Screen,4_25_2,2023-09-18T00:55:17.454Z,,0,,,NaN,,,,,,false,,,,154442.59999990463,154442.59999990463,,154442.5,,154444.757,8,400,,,
sequence,flow.Sequence,4_25,2023-09-18T00:55:17.454Z,,0,,,3247.7129999046447,completion,,,,,false,,,,154442.79999995232,154442.59999990463,151186.554,151189.39999997616,151194.887,154444.757,8,400,,,
trial,html.Screen,4_26_0,2023-09-18T00:55:21.356Z,,0,1,,3899.7429999999877,response,ISIC_2673511.JPG,7,ISIC_5586765.JPG,ISIC_2673511.JPG,false,1,keypress(m),500,158344.79999995232,158344.5,154436.424,154442.79999995232,154444.757,158349.162,8,400,27,,ISIC_5586765.JPG
break,html.Screen,4_26_1,2023-09-18T00:55:21.357Z,,0,,,NaN,,,,,,false,,,,158345.79999995232,158345.59999990463,,158345.09999990463,,158349.162,8,400,,,
break_continue,html.Screen,4_26_2,2023-09-18T00:55:21.358Z,,0,,,NaN,,,,,,false,,,,158346.09999990463,158346,,158345.89999997616,,158349.162,8,400,,,
sequence,flow.Sequence,4_26,2023-09-18T00:55:21.358Z,,0,,,3901.2429999999877,completion,,,,,false,,,,158346.19999992847,158346,154436.424,154442.79999995232,154444.757,158349.162,8,400,,,
trial,html.Screen,4_27_0,2023-09-18T00:55:24.380Z,,0,1,,3019.337999999989,response,ISIC_8885809.JPG,28,ISIC_7284399.JPG,ISIC_8885809.JPG,false,1,keypress(m),500,161368.89999997616,161368.5,158340.829,158346.39999997616,158349.162,161374.041,8,400,28,,ISIC_7284399.JPG
break,html.Screen,4_27_1,2023-09-18T00:55:24.381Z,,0,,,NaN,,,,,,false,,,,161369.79999995232,161369.69999992847,,161369.09999990463,,161374.041,8,400,,,
break_continue,html.Screen,4_27_2,2023-09-18T00:55:24.382Z,,0,,,NaN,,,,,,false,,,,161370.29999995232,161370.09999990463,,161370,,161374.041,8,400,,,
sequence,flow.Sequence,4_27,2023-09-18T00:55:24.382Z,,0,,,3020.9379999046214,completion,,,,,false,,,,161370.29999995232,161370.09999990463,158340.829,158346.39999997616,158349.162,161374.041,8,400,,,
trial,html.Screen,4_28_0,2023-09-18T00:55:28.484Z,,0,1,,4098.358999976161,response,ISIC_0000168.JPG,6,ISIC_0003281.JPG,ISIC_0003281.JPG,false,0,keypress(z),500,165472.79999995232,165472.39999997616,161365.708,161370.59999990463,161374.041,165473.877,8,400,29,,ISIC_0000168.JPG
break,html.Screen,4_28_1,2023-09-18T00:55:28.485Z,,0,,,NaN,,,,,,false,,,,165473.89999997616,165473.69999992847,,165473.19999992847,,165473.877,8,400,,,
break_continue,html.Screen,4_28_2,2023-09-18T00:55:28.486Z,,0,,,NaN,,,,,,false,,,,165474.29999995232,165474.19999992847,,165474.09999990463,,165473.877,8,400,,,
sequence,flow.Sequence,4_28,2023-09-18T00:55:28.486Z,,0,,,4100.158999928477,completion,,,,,false,,,,165474.5,165474.19999992847,161365.708,161370.5,161374.041,165473.877,8,400,,,
trial,html.Screen,4_29_0,2023-09-18T00:55:31.468Z,,0,1,,2982.6229999999923,response,ISIC_0030032.JPG,9,ISIC_1484659.JPG,ISIC_0030032.JPG,false,1,keypress(m),500,168456.79999995232,168456.5,165465.544,165474.69999992847,165473.877,168465.818,8,400,30,,ISIC_1484659.JPG
break,html.Screen,4_29_1,2023-09-18T00:55:31.469Z,,0,,,NaN,,,,,,false,,,,168457.79999995232,168457.69999992847,,168457.09999990463,,168465.818,8,400,,,
break_continue,html.Screen,4_29_2,2023-09-18T00:55:31.470Z,,0,,,NaN,,,,,,false,,,,168458.19999992847,168458.09999990463,,168457.89999997616,,168465.818,8,400,,,
sequence,flow.Sequence,4_29,2023-09-18T00:55:31.470Z,,0,,,2984.222999904625,completion,,,,,false,,,,168458.29999995232,168458.09999990463,165465.544,165474.59999990463,165473.877,168465.818,8,400,,,
trial,html.Screen,4_30_0,2023-09-18T00:55:35.966Z,,0,1,,4488.381999928475,response,ISIC_0025015.JPG,5,ISIC_0061164.JPG,ISIC_0025015.JPG,false,1,keypress(m),500,172954.59999990463,172954.19999992847,168457.485,168458.5,168465.818,172957.305,8,400,31,,ISIC_0061164.JPG
break,html.Screen,4_30_1,2023-09-18T00:55:35.967Z,,0,,,NaN,,,,,,false,,,,172955.69999992847,172955.5,,172954.89999997616,,172957.305,8,400,,,
break_continue,html.Screen,4_30_2,2023-09-18T00:55:35.967Z,,0,,,NaN,,,,,,false,,,,172956.09999990463,172955.89999997616,,172955.79999995232,,172957.305,8,400,,,
sequence,flow.Sequence,4_30,2023-09-18T00:55:35.968Z,,0,,,4490.081999976159,completion,,,,,false,,,,172956.19999992847,172955.89999997616,168457.485,168458.39999997616,168465.818,172957.305,8,400,,,
trial,html.Screen,4_31_0,2023-09-18T00:55:39.606Z,,0,1,,3636.4949999523233,response,ISIC_2456538.JPG,25,ISIC_0024631.JPG,ISIC_2456538.JPG,false,1,keypress(m),500,176594.19999992847,176593.79999995232,172948.972,172956.39999997616,172957.305,176598.826,8,400,32,,ISIC_0024631.JPG
break,html.Screen,4_31_1,2023-09-18T00:55:39.607Z,,0,,,NaN,,,,,,false,,,,176595.29999995232,176595,,176594.59999990463,,176598.826,8,400,,,
break_continue,html.Screen,4_31_2,2023-09-18T00:55:39.607Z,,0,,,NaN,,,,,,false,,,,176595.59999990463,176595.5,,176595.39999997616,,176598.826,8,400,,,
sequence,flow.Sequence,4_31,2023-09-18T00:55:39.607Z,,0,,,3638.195000000007,completion,,,,,false,,,,176595.79999995232,176595.5,172948.972,172956.29999995232,172957.305,176598.826,8,400,,,
trial,html.Screen,4_32_0,2023-09-18T00:55:42.412Z,,0,1,,2801.573999976157,response,ISIC_0025579.JPG,7,ISIC_0068886.JPG,ISIC_0025579.JPG,false,1,keypress(m),500,179400.79999995232,179400.39999997616,176590.493,176595.89999997616,176598.826,179407.443,8,400,33,,ISIC_0068886.JPG
break,html.Screen,4_32_1,2023-09-18T00:55:42.413Z,,0,,,NaN,,,,,,false,,,,179401.79999995232,179401.69999992847,,179401.09999990463,,179407.443,8,400,,,
break_continue,html.Screen,4_32_2,2023-09-18T00:55:42.413Z,,0,,,NaN,,,,,,false,,,,179402.19999992847,179402.09999990463,,179401.89999997616,,179407.443,8,400,,,
sequence,flow.Sequence,4_32,2023-09-18T00:55:42.414Z,,0,,,2803.2739999046316,completion,,,,,false,,,,179402.29999995232,179402.09999990463,176590.493,176595.89999997616,176598.826,179407.443,8,400,,,
trial,html.Screen,4_33_0,2023-09-18T00:55:45.776Z,,0,1,,3357.256999928475,response,ISIC_0026544.JPG,8,ISIC_1850388.JPG,ISIC_1850388.JPG,false,0,keypress(z),500,182765,182764.69999992847,179399.11,179402.5,179407.443,182765.642,8,400,34,,ISIC_0026544.JPG
break,html.Screen,4_33_1,2023-09-18T00:55:45.777Z,,0,,,NaN,,,,,,false,,,,182765.79999995232,182765.59999990463,,182765.19999992847,,182765.642,8,400,,,
break_continue,html.Screen,4_33_2,2023-09-18T00:55:45.777Z,,0,,,NaN,,,,,,false,,,,182766,182765.89999997616,,182765.79999995232,,182765.642,8,400,,,
sequence,flow.Sequence,4_33,2023-09-18T00:55:45.777Z,,0,,,3358.456999976159,completion,,,,,false,,,,182766,182765.89999997616,179399.11,179402.39999997616,179407.443,182765.642,8,400,,,
trial,html.Screen,4_34_0,2023-09-18T00:55:50.149Z,,0,1,,4371.757999976166,response,ISIC_4074537.JPG,8,ISIC_9470876.JPG,ISIC_4074537.JPG,false,1,keypress(m),500,187137.69999992847,187137.39999997616,182757.309,182766.19999992847,182765.642,187140.467,8,400,35,,ISIC_9470876.JPG
break,html.Screen,4_34_1,2023-09-18T00:55:50.150Z,,0,,,NaN,,,,,,false,,,,187138.79999995232,187138.59999990463,,187138.09999990463,,187140.467,8,400,,,
break_continue,html.Screen,4_34_2,2023-09-18T00:55:50.150Z,,0,,,NaN,,,,,,false,,,,187139.09999990463,187139,,187138.89999997616,,187140.467,8,400,,,
sequence,flow.Sequence,4_34,2023-09-18T00:55:50.150Z,,0,,,4373.358000000007,completion,,,,,false,,,,187139.29999995232,187139,182757.309,182766.09999990463,182765.642,187140.467,8,400,,,
trial,html.Screen,4_35_0,2023-09-18T00:55:53.164Z,,0,1,,3011.832999952312,response,ISIC_9723646.JPG,4,ISIC_0000490.JPG,ISIC_0000490.JPG,false,0,keypress(z),500,190152.79999995232,190152.29999995232,187132.134,187139.5,187140.467,190157.402,8,400,36,,ISIC_9723646.JPG
break,html.Screen,4_35_1,2023-09-18T00:55:53.165Z,,0,,,NaN,,,,,,false,,,,190153.79999995232,190153.5,,190153.09999990463,,190157.402,8,400,,,
break_continue,html.Screen,4_35_2,2023-09-18T00:55:53.165Z,,0,,,NaN,,,,,,false,,,,190154.09999990463,190154.09999990463,,190153.89999997616,,190157.402,8,400,,,
sequence,flow.Sequence,4_35,2023-09-18T00:55:53.165Z,,0,,,3013.6329999046284,completion,,,,,false,,,,190154.39999997616,190154.09999990463,187132.134,187139.5,187140.467,190157.402,8,400,,,
trial,html.Screen,4_36_0,2023-09-18T00:55:57.728Z,,0,1,,4559.297999928473,response,ISIC_5992826.JPG,6,ISIC_2202486.JPG,ISIC_2202486.JPG,false,0,keypress(z),500,194717.09999990463,194716.69999992847,190149.069,190154.5,190157.402,194723.886,8,400,37,,ISIC_5992826.JPG
break,html.Screen,4_36_1,2023-09-18T00:55:57.729Z,,0,,,NaN,,,,,,false,,,,194718.09999990463,194717.89999997616,,194717.29999995232,,194723.886,8,400,,,
break_continue,html.Screen,4_36_2,2023-09-18T00:55:57.730Z,,0,,,NaN,,,,,,false,,,,194718.5,194718.29999995232,,194718.19999992847,,194723.886,8,400,,,
sequence,flow.Sequence,4_36,2023-09-18T00:55:57.730Z,,0,,,4560.897999952314,completion,,,,,false,,,,194718.69999992847,194718.29999995232,190149.069,190154.39999997616,190157.402,194723.886,8,400,,,
trial,html.Screen,4_37_0,2023-09-18T00:56:00.983Z,,0,1,,3247.713999904634,response,ISIC_0010631.JPG,8,ISIC_8428097.JPG,ISIC_0010631.JPG,false,1,keypress(m),500,197972,197971.59999990463,194715.553,194718.79999995232,194723.886,197973.756,8,400,38,,ISIC_8428097.JPG
break,html.Screen,4_37_1,2023-09-18T00:56:00.984Z,,0,,,NaN,,,,,,false,,,,197973,197972.79999995232,,197972.29999995232,,197973.756,8,400,,,
break_continue,html.Screen,4_37_2,2023-09-18T00:56:00.984Z,,0,,,NaN,,,,,,false,,,,197973.29999995232,197973.19999992847,,197973.09999990463,,197973.756,8,400,,,
sequence,flow.Sequence,4_37,2023-09-18T00:56:00.985Z,,0,,,3249.313999928476,completion,,,,,false,,,,197973.5,197973.19999992847,194715.553,194718.69999992847,194723.886,197973.756,8,400,,,
trial,html.Screen,4_38_0,2023-09-18T00:56:04.334Z,,0,1,,3348.744000000006,response,ISIC_6635699.JPG,7,ISIC_4868926.JPG,ISIC_4868926.JPG,false,0,keypress(z),500,201322.89999997616,201322.5,197965.423,197973.69999992847,197973.756,201324.05,8,400,39,,ISIC_6635699.JPG
break,html.Screen,4_38_1,2023-09-18T00:56:04.335Z,,0,,,NaN,,,,,,false,,,,201323.89999997616,201323.59999990463,,201323.19999992847,,201324.05,8,400,,,
break_continue,html.Screen,4_38_2,2023-09-18T00:56:04.335Z,,0,,,NaN,,,,,,false,,,,201324.19999992847,201324.19999992847,,201324.09999990463,,201324.05,8,400,,,
sequence,flow.Sequence,4_38,2023-09-18T00:56:04.335Z,,0,,,3350.4439999284805,completion,,,,,false,,,,201324.5,201324.19999992847,197965.423,197973.59999990463,197973.756,201324.05,8,400,,,
trial,html.Screen,4_39_0,2023-09-18T00:56:07.058Z,,0,1,,2722.549999904644,response,ISIC_7798403.JPG,8,ISIC_0034140.JPG,ISIC_7798403.JPG,false,1,keypress(m),500,204047,204046.59999990463,201315.717,201324.5,201324.05,204048.941,8,400,40,,ISIC_0034140.JPG
break,html.Screen,4_39_1,2023-09-18T00:56:07.059Z,,0,,,NaN,,,,,,false,,,,204048,204047.79999995232,,204047.19999992847,,204048.941,8,400,,,
break_continue,html.Screen,4_39_2,2023-09-18T00:56:07.059Z,,0,,,NaN,,,,,,false,,,,204048.39999997616,204048.29999995232,,204048.09999990463,,204048.941,8,400,,,
sequence,flow.Sequence,4_39,2023-09-18T00:56:07.060Z,,0,,,2724.249999952328,completion,,,,,false,,,,204048.5,204048.29999995232,201315.717,201324.5,201324.05,204048.941,8,400,,,
trial,html.Screen,4_40_0,2023-09-18T00:56:11.222Z,,0,1,,4161.858999952325,response,ISIC_5442834.JPG,9,ISIC_0347984.JPG,ISIC_5442834.JPG,false,1,keypress(m),500,208211.19999992847,208210.79999995232,204040.608,204048.69999992847,204048.941,208215.441,8,400,41,,ISIC_0347984.JPG
break,html.Screen,4_40_1,2023-09-18T00:56:11.223Z,,0,,,NaN,,,,,,false,,,,208212.29999995232,208212.09999990463,,208211.5,,208215.441,8,400,,,
break_continue,html.Screen,4_40_2,2023-09-18T00:56:11.224Z,,0,,,NaN,,,,,,false,,,,208212.59999990463,208212.5,,208212.39999997616,,208215.441,8,400,,,
sequence,flow.Sequence,4_40,2023-09-18T00:56:11.224Z,,0,,,4163.559000000008,completion,,,,,false,,,,208212.79999995232,208212.5,204040.608,204048.59999990463,204048.941,208215.441,8,400,,,
trial,html.Screen,4_41_0,2023-09-18T00:56:14.667Z,,0,1,,3440.3589999523247,response,ISIC_0011398.JPG,7,ISIC_0011730.JPG,ISIC_0011398.JPG,false,1,keypress(m),500,211656.19999992847,211655.79999995232,208207.108,208212.89999997616,208215.441,211657.367,8,400,42,,ISIC_0011730.JPG
break,html.Screen,4_41_1,2023-09-18T00:56:14.668Z,,0,,,NaN,,,,,,false,,,,211657.19999992847,211656.89999997616,,211656.5,,211657.367,8,400,,,
break_continue,html.Screen,4_41_2,2023-09-18T00:56:14.668Z,,0,,,NaN,,,,,,false,,,,211657.5,211657.39999997616,,211657.29999995232,,211657.367,8,400,,,
sequence,flow.Sequence,4_41,2023-09-18T00:56:14.669Z,,0,,,3441.9589999761665,completion,,,,,false,,,,211657.69999992847,211657.39999997616,208207.108,208212.89999997616,208215.441,211657.367,8,400,,,
trial,html.Screen,4_42_0,2023-09-18T00:56:17.570Z,,0,1,,2900.932999952318,response,ISIC_5550263.JPG,26,ISIC_0210998.JPG,ISIC_0210998.JPG,false,0,keypress(z),500,214558.59999990463,214558.29999995232,211649.034,211657.79999995232,211657.367,214565.584,8,400,43,,ISIC_5550263.JPG
break,html.Screen,4_42_1,2023-09-18T00:56:17.571Z,,0,,,NaN,,,,,,false,,,,214559.69999992847,214559.5,,214559,,214565.584,8,400,,,
break_continue,html.Screen,4_42_2,2023-09-18T00:56:17.571Z,,0,,,NaN,,,,,,false,,,,214560,214560,,214559.89999997616,,214565.584,8,400,,,
sequence,flow.Sequence,4_42,2023-09-18T00:56:17.571Z,,0,,,2902.6330000000016,completion,,,,,false,,,,214560.09999990463,214560,211649.034,211657.79999995232,211657.367,214565.584,8,400,,,
trial,html.Screen,4_43_0,2023-09-18T00:56:20.471Z,,0,1,,2894.51599990463,response,ISIC_0000040.JPG,6,ISIC_0061606.JPG,ISIC_0000040.JPG,false,1,keypress(m),500,217460.5,217460.09999990463,214557.251,214560.19999992847,214565.584,217465.468,8,400,44,,ISIC_0061606.JPG
break,html.Screen,4_43_1,2023-09-18T00:56:20.472Z,,0,,,NaN,,,,,,false,,,,217461.5,217461.39999997616,,217460.79999995232,,217465.468,8,400,,,
break_continue,html.Screen,4_43_2,2023-09-18T00:56:20.473Z,,0,,,NaN,,,,,,false,,,,217461.89999997616,217461.89999997616,,217461.69999992847,,217465.468,8,400,,,
sequence,flow.Sequence,4_43,2023-09-18T00:56:20.473Z,,0,,,2896.3159999761556,completion,,,,,false,,,,217462.09999990463,217461.89999997616,214557.251,214560.19999992847,214565.584,217465.468,8,400,,,
trial,html.Screen,4_44_0,2023-09-18T00:56:24.700Z,,0,1,,4223.331999952323,response,ISIC_8140072.JPG,5,ISIC_0005681.JPG,ISIC_0005681.JPG,false,0,keypress(z),500,221689.19999992847,221688.79999995232,217457.135,217462.29999995232,217465.468,221690.772,8,400,45,,ISIC_8140072.JPG
break,html.Screen,4_44_1,2023-09-18T00:56:24.701Z,,0,,,NaN,,,,,,false,,,,221690.09999990463,221689.89999997616,,221689.5,,221690.772,8,400,,,
break_continue,html.Screen,4_44_2,2023-09-18T00:56:24.701Z,,0,,,NaN,,,,,,false,,,,221690.5,221690.29999995232,,221690.29999995232,,221690.772,8,400,,,
sequence,flow.Sequence,4_44,2023-09-18T00:56:24.701Z,,0,,,4224.831999952323,completion,,,,,false,,,,221690.59999990463,221690.29999995232,217457.135,217462.19999992847,217465.468,221690.772,8,400,,,
trial,html.Screen,4_45_0,2023-09-18T00:56:27.425Z,,0,1,,2723.027999952319,response,ISIC_0071434.JPG,7,ISIC_2876105.JPG,ISIC_2876105.JPG,false,0,keypress(z),500,224414.29999995232,224413.79999995232,221682.439,221690.69999992847,221690.772,224423.996,8,400,46,,ISIC_0071434.JPG
break,html.Screen,4_45_1,2023-09-18T00:56:27.426Z,,0,,,NaN,,,,,,false,,,,224415.19999992847,224415,,224414.59999990463,,224423.996,8,400,,,
break_continue,html.Screen,4_45_2,2023-09-18T00:56:27.426Z,,0,,,NaN,,,,,,false,,,,224415.59999990463,224415.5,,224415.39999997616,,224423.996,8,400,,,
sequence,flow.Sequence,4_45,2023-09-18T00:56:27.427Z,,0,,,2724.728000000003,completion,,,,,false,,,,224415.79999995232,224415.5,221682.439,221690.69999992847,221690.772,224423.996,8,400,,,
trial,html.Screen,4_46_0,2023-09-18T00:56:30.389Z,,0,1,,2954.3039999523025,response,ISIC_0200153.JPG,7,ISIC_2519121.JPG,ISIC_0200153.JPG,false,1,keypress(m),500,227378.69999992847,227378.29999995232,224415.663,224415.89999997616,224423.996,227390.544,8,400,47,,ISIC_2519121.JPG
break,html.Screen,4_46_1,2023-09-18T00:56:30.390Z,,0,,,NaN,,,,,,false,,,,227379.39999997616,227379.19999992847,,227378.89999997616,,227390.544,8,400,,,
break_continue,html.Screen,4_46_2,2023-09-18T00:56:30.390Z,,0,,,NaN,,,,,,false,,,,227379.59999990463,227379.5,,227379.39999997616,,227390.544,8,400,,,
sequence,flow.Sequence,4_46,2023-09-18T00:56:30.390Z,,0,,,2955.5039999999863,completion,,,,,false,,,,227379.69999992847,227379.5,224415.663,224415.89999997616,224423.996,227390.544,8,400,,,
trial,html.Screen,4_47_0,2023-09-18T00:56:33.948Z,,0,1,,3546.055999904638,response,ISIC_0030080.JPG,8,ISIC_9332795.JPG,ISIC_9332795.JPG,false,0,keypress(z),500,230937.09999990463,230936.59999990463,227382.211,227379.69999992847,227390.544,230940.402,8,400,48,,ISIC_0030080.JPG
break,html.Screen,4_47_1,2023-09-18T00:56:33.949Z,,0,,,NaN,,,,,,false,,,,230938,230937.79999995232,,230937.39999997616,,230940.402,8,400,,,
break_continue,html.Screen,4_47_2,2023-09-18T00:56:33.949Z,,0,,,NaN,,,,,,false,,,,230938.39999997616,230938.39999997616,,230938.19999992847,,230940.402,8,400,,,
sequence,flow.Sequence,4_47,2023-09-18T00:56:33.949Z,,0,,,3547.8559999761637,completion,,,,,false,,,,230938.69999992847,230938.39999997616,227382.211,227379.69999992847,227390.544,230940.402,8,400,,,
trial,html.Screen,4_48_0,2023-09-18T00:56:38.845Z,,0,1,,4893.097999999998,response,ISIC_3909039.JPG,6,ISIC_0210998.JPG,ISIC_0210998.JPG,false,0,keypress(z),500,235833.89999997616,235833.5,230932.069,230938.79999995232,230940.402,235840.613,8,400,49,,ISIC_3909039.JPG
break,html.Screen,4_48_1,2023-09-18T00:56:38.845Z,,0,,,NaN,,,,,,false,,,,235834.69999992847,235834.5,,235834.09999990463,,235840.613,8,400,,,
break_continue,html.Screen,4_48_2,2023-09-18T00:56:38.846Z,,0,,,NaN,,,,,,false,,,,235834.89999997616,235834.69999992847,,235834.69999992847,,235840.613,8,400,,,
sequence,flow.Sequence,4_48,2023-09-18T00:56:38.846Z,,0,,,4894.297999928473,completion,,,,,false,,,,235835,235834.69999992847,230932.069,230938.69999992847,230940.402,235840.613,8,400,,,
trial,html.Screen,4_49_0,2023-09-18T00:56:41.600Z,,0,1,,2748.0869999284623,response,ISIC_0033180.JPG,6,ISIC_0030824.JPG,ISIC_0033180.JPG,false,1,keypress(m),500,238589.09999990463,238588.69999992847,235832.28,235835,235840.613,238590.503,8,400,50,,ISIC_0030824.JPG
break,html.Screen,4_49_1,2023-09-18T00:56:51.595Z,,0,,,9999.991999999998,timeout,,,,,false,,,,248584.5,248582.162,238582.17,238589.29999995232,238590.503,248590.495,8,400,,,
break_continue,html.Screen,4_49_2,2023-09-18T00:56:52.842Z,,0,,,1229.304999952321,response,,,,,false,continue,keypress(Space),,249831.19999992847,249819.79999995232,248582.162,248584.69999992847,248590.495,249832.112,8,400,,,
sequence,flow.Sequence,4_49,2023-09-18T00:56:52.842Z,,0,,,13979.186999952304,completion,,,,,false,,,,249831.29999995232,249819.79999995232,235832.28,235835,235840.613,249832.112,8,400,,,
trial,html.Screen,4_50_0,2023-09-18T00:56:57.492Z,,0,2,,4648.587999928481,response,ISIC_0065590.JPG,6,ISIC_0030156.JPG,ISIC_0030156.JPG,false,0,keypress(z),500,254481.09999990463,254480.69999992847,249823.779,249831.5,249832.112,254486.574,8,400,1,,ISIC_0065590.JPG
break,html.Screen,4_50_1,2023-09-18T00:56:57.493Z,,0,,,NaN,,,,,,false,,,,254482.19999992847,254482,,254481.5,,254486.574,8,400,,,
break_continue,html.Screen,4_50_2,2023-09-18T00:56:57.493Z,,0,,,NaN,,,,,,false,,,,254482.59999990463,254482.39999997616,,254482.29999995232,,254486.574,8,400,,,
sequence,flow.Sequence,4_50,2023-09-18T00:56:57.493Z,,0,,,4650.287999976164,completion,,,,,false,,,,254482.79999995232,254482.39999997616,249823.779,249831.39999997616,249832.112,254486.574,8,400,,,
trial,html.Screen,4_51_0,2023-09-18T00:57:00.453Z,,0,2,,2955.725999952323,response,ISIC_0030703.JPG,8,ISIC_9291926.JPG,ISIC_9291926.JPG,false,0,keypress(z),500,257442.69999992847,257442.29999995232,254478.241,254482.89999997616,254486.574,257444.789,8,400,2,,ISIC_0030703.JPG
break,html.Screen,4_51_1,2023-09-18T00:57:00.454Z,,0,,,NaN,,,,,,false,,,,257443.79999995232,257443.5,,257443.09999990463,,257444.789,8,400,,,
break_continue,html.Screen,4_51_2,2023-09-18T00:57:00.455Z,,0,,,NaN,,,,,,false,,,,257444.39999997616,257444.19999992847,,257444.09999990463,,257444.789,8,400,,,
sequence,flow.Sequence,4_51,2023-09-18T00:57:00.455Z,,0,,,2957.625999928481,completion,,,,,false,,,,257444.59999990463,257444.19999992847,254478.241,254482.89999997616,254486.574,257444.789,8,400,,,
trial,html.Screen,4_52_0,2023-09-18T00:57:04.029Z,,0,2,,3573.1109999761684,response,ISIC_0000287.JPG,8,ISIC_9881460.JPG,ISIC_0000287.JPG,false,1,keypress(m),500,261018.29999995232,261017.89999997616,257436.456,257444.69999992847,257444.789,261019.646,8,400,3,,ISIC_9881460.JPG
break,html.Screen,4_52_1,2023-09-18T00:57:04.030Z,,0,,,NaN,,,,,,false,,,,261019.29999995232,261019.09999990463,,261018.59999990463,,261019.646,8,400,,,
break_continue,html.Screen,4_52_2,2023-09-18T00:57:04.030Z,,0,,,NaN,,,,,,false,,,,261019.69999992847,261019.59999990463,,261019.5,,261019.646,8,400,,,
sequence,flow.Sequence,4_52,2023-09-18T00:57:04.030Z,,0,,,3574.810999904643,completion,,,,,false,,,,261020,261019.59999990463,257436.456,257444.59999990463,257444.789,261019.646,8,400,,,
trial,html.Screen,4_53_0,2023-09-18T00:57:07.106Z,,0,2,,3075.0539999284665,response,ISIC_0063568.JPG,10,ISIC_0054053.JPG,ISIC_0054053.JPG,false,0,keypress(z),500,264095.1999999285,264094.6999999285,261011.313,261020.09999990463,261019.646,264102.856,8,400,4,,ISIC_0063568.JPG
break,html.Screen,4_53_1,2023-09-18T00:57:07.107Z,,0,,,NaN,,,,,,false,,,,264096.1999999285,264095.89999997616,,264095.39999997616,,264102.856,8,400,,,
break_continue,html.Screen,4_53_2,2023-09-18T00:57:07.107Z,,0,,,NaN,,,,,,false,,,,264096.59999990463,264096.39999997616,,264096.2999999523,,264102.856,8,400,,,
sequence,flow.Sequence,4_53,2023-09-18T00:57:07.107Z,,0,,,3076.75399997615,completion,,,,,false,,,,264096.6999999285,264096.39999997616,261011.313,261020.09999990463,261019.646,264102.856,8,400,,,
trial,html.Screen,4_54_0,2023-09-18T00:57:10.663Z,,0,2,,3549.143999999971,response,ISIC_4086323.JPG,5,ISIC_2394181.JPG,ISIC_4086323.JPG,false,1,keypress(m),500,267652.39999997616,267652,264094.523,264096.89999997616,264102.856,267657.276,8,400,5,,ISIC_2394181.JPG
break,html.Screen,4_54_1,2023-09-18T00:57:10.663Z,,0,,,NaN,,,,,,false,,,,267653.09999990463,267653,,267652.5,,267657.276,8,400,,,
break_continue,html.Screen,4_54_2,2023-09-18T00:57:10.664Z,,0,,,NaN,,,,,,false,,,,267653.2999999523,267653.2999999523,,267653.2999999523,,267657.276,8,400,,,
sequence,flow.Sequence,4_54,2023-09-18T00:57:10.664Z,,0,,,3550.4439999522874,completion,,,,,false,,,,267653.39999997616,267653.2999999523,264094.523,264096.7999999523,264102.856,267657.276,8,400,,,
trial,html.Screen,4_55_0,2023-09-18T00:57:13.732Z,,0,2,,3064.1239999761456,response,ISIC_7519627.JPG,12,ISIC_0000393.JPG,ISIC_7519627.JPG,false,1,keypress(m),500,270721.7999999523,270721.39999997616,267648.943,267653.59999990463,267657.276,270723.82,8,400,6,,ISIC_0000393.JPG
break,html.Screen,4_55_1,2023-09-18T00:57:13.733Z,,0,,,NaN,,,,,,false,,,,270722.7999999523,270722.59999990463,,270722.09999990463,,270723.82,8,400,,,
break_continue,html.Screen,4_55_2,2023-09-18T00:57:13.733Z,,0,,,NaN,,,,,,false,,,,270723.1999999285,270723.09999990463,,270723,,270723.82,8,400,,,
sequence,flow.Sequence,4_55,2023-09-18T00:57:13.734Z,,0,,,3065.82399990462,completion,,,,,false,,,,270723.39999997616,270723.09999990463,267648.943,267653.5,267657.276,270723.82,8,400,,,
trial,html.Screen,4_56_0,2023-09-18T00:57:17.909Z,,0,2,,4174.579999976151,response,ISIC_2136533.JPG,8,ISIC_8211214.JPG,ISIC_2136533.JPG,false,1,keypress(m),500,274898.7999999523,274898.39999997616,270715.487,270723.5,270723.82,274903.211,8,400,7,,ISIC_8211214.JPG
break,html.Screen,4_56_1,2023-09-18T00:57:17.910Z,,0,,,NaN,,,,,,false,,,,274899.89999997616,274899.59999990463,,274899,,274903.211,8,400,,,
break_continue,html.Screen,4_56_2,2023-09-18T00:57:17.910Z,,0,,,NaN,,,,,,false,,,,274900.1999999285,274900.09999990463,,274900,,274903.211,8,400,,,
sequence,flow.Sequence,4_56,2023-09-18T00:57:17.911Z,,0,,,4176.279999904626,completion,,,,,false,,,,274900.2999999523,274900.09999990463,270715.487,270723.5,270723.82,274903.211,8,400,,,
trial,html.Screen,4_57_0,2023-09-18T00:57:22.499Z,,0,2,,4585.488999928464,response,ISIC_2379908.JPG,24,ISIC_6145261.JPG,ISIC_6145261.JPG,false,0,keypress(z),500,279489,279488.6999999285,274894.878,274900.5,274903.211,279494.694,8,400,8,,ISIC_2379908.JPG
break,html.Screen,4_57_1,2023-09-18T00:57:22.500Z,,0,,,NaN,,,,,,false,,,,279489.6999999285,279489.5,,279489.1999999285,,279494.694,8,400,,,
break_continue,html.Screen,4_57_2,2023-09-18T00:57:22.500Z,,0,,,NaN,,,,,,false,,,,279489.89999997616,279489.89999997616,,279489.7999999523,,279494.694,8,400,,,
sequence,flow.Sequence,4_57,2023-09-18T00:57:22.500Z,,0,,,4586.688999976148,completion,,,,,false,,,,279490,279489.89999997616,274894.878,274900.5,274903.211,279494.694,8,400,,,
trial,html.Screen,4_58_0,2023-09-18T00:57:26.339Z,,0,2,,3833.7059999761404,response,ISIC_0072441.JPG,8,ISIC_0340453.JPG,ISIC_0340453.JPG,false,0,keypress(z),500,283328.7999999523,283328.39999997616,279486.361,279490,279494.694,283336.207,8,400,9,,ISIC_0072441.JPG
break,html.Screen,4_58_1,2023-09-18T00:57:26.340Z,,0,,,NaN,,,,,,false,,,,283329.89999997616,283329.59999990463,,283329.09999990463,,283336.207,8,400,,,
break_continue,html.Screen,4_58_2,2023-09-18T00:57:26.340Z,,0,,,NaN,,,,,,false,,,,283330.2999999523,283330.1999999285,,283330,,283336.207,8,400,,,
sequence,flow.Sequence,4_58,2023-09-18T00:57:26.341Z,,0,,,3835.5059999284567,completion,,,,,false,,,,283330.5,283330.1999999285,279486.361,279490,279494.694,283336.207,8,400,,,
trial,html.Screen,4_59_0,2023-09-18T00:57:30.297Z,,0,2,,3950.3929999046377,response,ISIC_0010971.JPG,21,ISIC_4620425.JPG,ISIC_4620425.JPG,false,0,keypress(z),500,287287.09999990463,287286.59999990463,283327.874,283330.59999990463,283336.207,287290.612,8,400,10,,ISIC_0010971.JPG
break,html.Screen,4_59_1,2023-09-18T00:57:30.298Z,,0,,,NaN,,,,,,false,,,,287288.1999999285,287288,,287287.5,,287290.612,8,400,,,
break_continue,html.Screen,4_59_2,2023-09-18T00:57:30.299Z,,0,,,NaN,,,,,,false,,,,287288.6999999285,287288.5,,287288.39999997616,,287290.612,8,400,,,
sequence,flow.Sequence,4_59,2023-09-18T00:57:30.299Z,,0,,,3952.293000000005,completion,,,,,false,,,,287288.7999999523,287288.5,283327.874,283330.5,283336.207,287290.612,8,400,,,
trial,html.Screen,4_60_0,2023-09-18T00:57:33.184Z,,0,2,,2882.887999999977,response,ISIC_8357415.JPG,4,ISIC_7755875.JPG,ISIC_8357415.JPG,false,1,keypress(m),500,290173.7999999523,290173.5,287282.279,287288.89999997616,287290.612,290182.163,8,400,11,,ISIC_7755875.JPG
break,html.Screen,4_60_1,2023-09-18T00:57:33.185Z,,0,,,NaN,,,,,,false,,,,290174.5,290174.39999997616,,290174,,290182.163,8,400,,,
break_continue,html.Screen,4_60_2,2023-09-18T00:57:33.185Z,,0,,,NaN,,,,,,false,,,,290174.6999999285,290174.59999990463,,290174.59999990463,,290182.163,8,400,,,
sequence,flow.Sequence,4_60,2023-09-18T00:57:33.185Z,,0,,,2883.9879999046098,completion,,,,,false,,,,290174.6999999285,290174.59999990463,287282.279,287288.89999997616,287290.612,290182.163,8,400,,,
trial,html.Screen,4_61_0,2023-09-18T00:57:36.020Z,,0,2,,2827.636999952316,response,ISIC_0033530.JPG,9,ISIC_0032590.JPG,ISIC_0033530.JPG,false,1,keypress(m),500,293010.1999999285,293009.7999999523,290173.83,290174.7999999523,290182.163,293015.383,8,400,12,,ISIC_0032590.JPG
break,html.Screen,4_61_1,2023-09-18T00:57:36.021Z,,0,,,NaN,,,,,,false,,,,293011.1999999285,293011,,293010.59999990463,,293015.383,8,400,,,
break_continue,html.Screen,4_61_2,2023-09-18T00:57:36.022Z,,0,,,NaN,,,,,,false,,,,293011.59999990463,293011.5,,293011.39999997616,,293015.383,8,400,,,
sequence,flow.Sequence,4_61,2023-09-18T00:57:36.022Z,,0,,,2829.3369999999995,completion,,,,,false,,,,293011.7999999523,293011.5,290173.83,290174.7999999523,290182.163,293015.383,8,400,,,
trial,html.Screen,4_62_0,2023-09-18T00:57:40.763Z,,0,2,,4737.1170000000275,response,ISIC_0062864.JPG,7,ISIC_0011704.JPG,ISIC_0011704.JPG,false,0,keypress(z),500,297752.89999997616,297752.5,293007.05,293011.89999997616,293015.383,297757.262,8,400,13,,ISIC_0062864.JPG
break,html.Screen,4_62_1,2023-09-18T00:57:40.764Z,,0,,,NaN,,,,,,false,,,,297753.6999999285,297753.59999990463,,297753.1999999285,,297757.262,8,400,,,
break_continue,html.Screen,4_62_2,2023-09-18T00:57:40.764Z,,0,,,NaN,,,,,,false,,,,297753.89999997616,297753.7999999523,,297753.7999999523,,297757.262,8,400,,,
sequence,flow.Sequence,4_62,2023-09-18T00:57:40.764Z,,0,,,4738.416999952344,completion,,,,,false,,,,297754,297753.7999999523,293007.05,293011.89999997616,293015.383,297757.262,8,400,,,
trial,html.Screen,4_63_0,2023-09-18T00:57:44.417Z,,0,2,,3649.0379999523284,response,ISIC_0034156.JPG,5,ISIC_2124213.JPG,ISIC_2124213.JPG,false,0,keypress(z),500,301406.6999999285,301406.2999999523,297748.929,297754.09999990463,297757.262,301415.449,8,400,14,,ISIC_0034156.JPG
break,html.Screen,4_63_1,2023-09-18T00:57:44.418Z,,0,,,NaN,,,,,,false,,,,301407.6999999285,301407.5,,301407,,301415.449,8,400,,,
break_continue,html.Screen,4_63_2,2023-09-18T00:57:44.418Z,,0,,,NaN,,,,,,false,,,,301408.09999990463,301408,,301407.89999997616,,301415.449,8,400,,,
sequence,flow.Sequence,4_63,2023-09-18T00:57:44.418Z,,0,,,3650.738000000012,completion,,,,,false,,,,301408.2999999523,301408,297748.929,297754.09999990463,297757.262,301415.449,8,400,,,
trial,html.Screen,4_64_0,2023-09-18T00:57:49.083Z,,0,2,,4657.450999976136,response,ISIC_0013731.JPG,1,ISIC_8979275.JPG,ISIC_8979275.JPG,false,0,keypress(z),500,306073.2999999523,306072.89999997616,301407.116,301408.39999997616,301415.449,306074.029,8,400,15,,ISIC_0013731.JPG
break,html.Screen,4_64_1,2023-09-18T00:57:49.084Z,,0,,,NaN,,,,,,false,,,,306074.1999999285,306073.89999997616,,306073.5,,306074.029,8,400,,,
break_continue,html.Screen,4_64_2,2023-09-18T00:57:49.084Z,,0,,,NaN,,,,,,false,,,,306074.39999997616,306074.2999999523,,306074.1999999285,,306074.029,8,400,,,
sequence,flow.Sequence,4_64,2023-09-18T00:57:49.084Z,,0,,,4658.850999952294,completion,,,,,false,,,,306074.5,306074.2999999523,301407.116,301408.39999997616,301415.449,306074.029,8,400,,,
trial,html.Screen,4_65_0,2023-09-18T00:57:52.418Z,,0,2,,3333.670999928494,response,ISIC_0046571.JPG,7,ISIC_0024567.JPG,ISIC_0024567.JPG,false,0,keypress(z),500,309408.09999990463,309407.6999999285,306065.696,306074.6999999285,306074.029,309415.562,8,400,16,,ISIC_0046571.JPG
break,html.Screen,4_65_1,2023-09-18T00:57:52.419Z,,0,,,NaN,,,,,,false,,,,309408.7999999523,309408.6999999285,,309408.1999999285,,309415.562,8,400,,,
break_continue,html.Screen,4_65_2,2023-09-18T00:57:52.419Z,,0,,,NaN,,,,,,false,,,,309409,309408.89999997616,,309408.89999997616,,309415.562,8,400,,,
sequence,flow.Sequence,4_65,2023-09-18T00:57:52.419Z,,0,,,3334.8709999761777,completion,,,,,false,,,,309409.09999990463,309408.89999997616,306065.696,306074.59999990463,306074.029,309415.562,8,400,,,
trial,html.Screen,4_66_0,2023-09-18T00:57:56.278Z,,0,2,,3852.5379999046563,response,ISIC_0937261.JPG,16,ISIC_0012706.JPG,ISIC_0937261.JPG,false,1,keypress(m),500,313268.5,313268.09999990463,309407.229,309409.09999990463,309415.562,313273.741,8,400,17,,ISIC_0012706.JPG
break,html.Screen,4_66_1,2023-09-18T00:57:56.279Z,,0,,,NaN,,,,,,false,,,,313269.39999997616,313269.1999999285,,313268.6999999285,,313273.741,8,400,,,
break_continue,html.Screen,4_66_2,2023-09-18T00:57:56.279Z,,0,,,NaN,,,,,,false,,,,313269.59999990463,313269.5,,313269.5,,313273.741,8,400,,,
sequence,flow.Sequence,4_66,2023-09-18T00:57:56.280Z,,0,,,3853.9380000000237,completion,,,,,false,,,,313269.7999999523,313269.5,309407.229,309409.09999990463,309415.562,313273.741,8,400,,,
trial,html.Screen,4_67_0,2023-09-18T00:57:59.082Z,,0,2,,2798.25900000002,response,ISIC_0011863.JPG,9,ISIC_0068176.JPG,ISIC_0011863.JPG,false,1,keypress(m),500,316072.2999999523,316072,313265.408,313269.7999999523,313273.741,316082.363,8,400,18,,ISIC_0068176.JPG
break,html.Screen,4_67_1,2023-09-18T00:57:59.083Z,,0,,,NaN,,,,,,false,,,,316073.2999999523,316073.09999990463,,316072.6999999285,,316082.363,8,400,,,
break_continue,html.Screen,4_67_2,2023-09-18T00:57:59.083Z,,0,,,NaN,,,,,,false,,,,316073.6999999285,316073.5,,316073.39999997616,,316082.363,8,400,,,
sequence,flow.Sequence,4_67,2023-09-18T00:57:59.084Z,,0,,,2799.75900000002,completion,,,,,false,,,,316073.89999997616,316073.5,313265.408,313269.7999999523,313273.741,316082.363,8,400,,,
trial,html.Screen,4_68_0,2023-09-18T00:58:03.328Z,,0,2,,4235.7369999046205,response,ISIC_9445196.JPG,8,ISIC_9881460.JPG,ISIC_9445196.JPG,false,1,keypress(m),500,320318.59999990463,320318.09999990463,316074.03,316073.89999997616,316082.363,320323.86,8,400,19,,ISIC_9881460.JPG
break,html.Screen,4_68_1,2023-09-18T00:58:03.329Z,,0,,,NaN,,,,,,false,,,,320319.59999990463,320319.5,,320319,,320323.86,8,400,,,
break_continue,html.Screen,4_68_2,2023-09-18T00:58:03.330Z,,0,,,NaN,,,,,,false,,,,320320.09999990463,320319.89999997616,,320319.7999999523,,320323.86,8,400,,,
sequence,flow.Sequence,4_68,2023-09-18T00:58:03.330Z,,0,,,4237.536999976146,completion,,,,,false,,,,320320.2999999523,320319.89999997616,316074.03,316073.89999997616,316082.363,320323.86,8,400,,,
trial,html.Screen,4_69_0,2023-09-18T00:58:06.620Z,,0,2,,3285.7399999046465,response,ISIC_0025061.JPG,5,ISIC_0054395.JPG,ISIC_0025061.JPG,false,1,keypress(m),500,323609.89999997616,323609.59999990463,320315.527,320320.39999997616,320323.86,323615.395,8,400,20,,ISIC_0054395.JPG
break,html.Screen,4_69_1,2023-09-18T00:58:06.621Z,,0,,,NaN,,,,,,false,,,,323611,323610.7999999523,,323610.1999999285,,323615.395,8,400,,,
break_continue,html.Screen,4_69_2,2023-09-18T00:58:06.621Z,,0,,,NaN,,,,,,false,,,,323611.2999999523,323611.1999999285,,323611.09999990463,,323615.395,8,400,,,
sequence,flow.Sequence,4_69,2023-09-18T00:58:06.621Z,,0,,,3287.3399999284884,completion,,,,,false,,,,323611.5,323611.1999999285,320315.527,320320.39999997616,320323.86,323615.395,8,400,,,
trial,html.Screen,4_70_0,2023-09-18T00:58:10.066Z,,0,2,,3440.304999928456,response,ISIC_0029290.JPG,3,ISIC_0046900.JPG,ISIC_0029290.JPG,false,1,keypress(m),500,327056,327055.6999999285,323607.062,323611.59999990463,323615.395,327061.48,8,400,21,,ISIC_0046900.JPG
break,html.Screen,4_70_1,2023-09-18T00:58:10.067Z,,0,,,NaN,,,,,,false,,,,327057.09999990463,327057,,327056.39999997616,,327061.48,8,400,,,
break_continue,html.Screen,4_70_2,2023-09-18T00:58:10.067Z,,0,,,NaN,,,,,,false,,,,327057.5,327057.39999997616,,327057.2999999523,,327061.48,8,400,,,
sequence,flow.Sequence,4_70,2023-09-18T00:58:10.067Z,,0,,,3442.0049999761395,completion,,,,,false,,,,327057.6999999285,327057.39999997616,323607.062,323611.59999990463,323615.395,327061.48,8,400,,,
trial,html.Screen,4_71_0,2023-09-18T00:58:13.545Z,,0,2,,3473.319999952335,response,ISIC_0026890.JPG,9,ISIC_0059987.JPG,ISIC_0026890.JPG,false,1,keypress(m),500,330535.1999999285,330534.7999999523,327053.147,327057.7999999523,327061.48,330536.341,8,400,22,,ISIC_0059987.JPG
break,html.Screen,4_71_1,2023-09-18T00:58:13.546Z,,0,,,NaN,,,,,,false,,,,330536.1999999285,330536,,330535.5,,330536.341,8,400,,,
break_continue,html.Screen,4_71_2,2023-09-18T00:58:13.546Z,,0,,,NaN,,,,,,false,,,,330536.59999990463,330536.5,,330536.39999997616,,330536.341,8,400,,,
sequence,flow.Sequence,4_71,2023-09-18T00:58:13.546Z,,0,,,3475.0200000000186,completion,,,,,false,,,,330536.7999999523,330536.5,327053.147,327057.6999999285,327061.48,330536.341,8,400,,,
trial,html.Screen,4_72_0,2023-09-18T00:58:16.388Z,,0,2,,2841.4589999523014,response,ISIC_0032197.JPG,8,ISIC_0031363.JPG,ISIC_0031363.JPG,false,0,keypress(z),500,333378.1999999285,333377.7999999523,330528.008,330536.89999997616,330536.341,333386.227,8,400,23,,ISIC_0032197.JPG
break,html.Screen,4_72_1,2023-09-18T00:58:16.389Z,,0,,,NaN,,,,,,false,,,,333379.1999999285,333379,,333378.5,,333386.227,8,400,,,
break_continue,html.Screen,4_72_2,2023-09-18T00:58:16.389Z,,0,,,NaN,,,,,,false,,,,333379.59999990463,333379.39999997616,,333379.39999997616,,333386.227,8,400,,,
sequence,flow.Sequence,4_72,2023-09-18T00:58:16.389Z,,0,,,2843.0589999761432,completion,,,,,false,,,,333379.6999999285,333379.39999997616,330528.008,330536.89999997616,330536.341,333386.227,8,400,,,
trial,html.Screen,4_73_0,2023-09-18T00:58:19.417Z,,0,2,,3020.572999952303,response,ISIC_1585370.JPG,8,ISIC_0055404.JPG,ISIC_1585370.JPG,false,1,keypress(m),500,336407.1999999285,336406.7999999523,333377.894,333379.7999999523,333386.227,336411.106,8,400,24,,ISIC_0055404.JPG
break,html.Screen,4_73_1,2023-09-18T00:58:19.418Z,,0,,,NaN,,,,,,false,,,,336408.1999999285,336408,,336407.5,,336411.106,8,400,,,
break_continue,html.Screen,4_73_2,2023-09-18T00:58:19.418Z,,0,,,NaN,,,,,,false,,,,336408.5,336408.39999997616,,336408.39999997616,,336411.106,8,400,,,
sequence,flow.Sequence,4_73,2023-09-18T00:58:19.418Z,,0,,,3022.1729999761446,completion,,,,,false,,,,336408.6999999285,336408.39999997616,333377.894,333379.7999999523,333386.227,336411.106,8,400,,,
trial,html.Screen,4_74_0,2023-09-18T00:58:23.486Z,,0,2,,4064.5939999284456,response,ISIC_1922084.JPG,16,ISIC_4887995.JPG,ISIC_4887995.JPG,false,0,keypress(z),500,340476,340475.6999999285,336402.773,336408.89999997616,336411.106,340486.355,8,400,25,,ISIC_1922084.JPG
break,html.Screen,4_74_1,2023-09-18T00:58:23.486Z,,0,,,NaN,,,,,,false,,,,340476.6999999285,340476.5,,340476.1999999285,,340486.355,8,400,,,
break_continue,html.Screen,4_74_2,2023-09-18T00:58:23.486Z,,0,,,NaN,,,,,,false,,,,340476.89999997616,340476.89999997616,,340476.7999999523,,340486.355,8,400,,,
sequence,flow.Sequence,4_74,2023-09-18T00:58:23.487Z,,0,,,4065.7939999761293,completion,,,,,false,,,,340477,340476.89999997616,336402.773,336408.7999999523,336411.106,340486.355,8,400,,,
trial,html.Screen,4_75_0,2023-09-18T00:58:26.498Z,,0,2,,3002.1450000000186,response,ISIC_0015298.JPG,7,ISIC_5585279.JPG,ISIC_5585279.JPG,false,0,keypress(z),500,343488.7999999523,343488.5,340478.022,340477.09999990463,340486.355,343494.568,8,400,26,,ISIC_0015298.JPG
break,html.Screen,4_75_1,2023-09-18T00:58:26.499Z,,0,,,NaN,,,,,,false,,,,343489.5,343489.39999997616,,343489,,343494.568,8,400,,,
break_continue,html.Screen,4_75_2,2023-09-18T00:58:26.499Z,,0,,,NaN,,,,,,false,,,,343489.6999999285,343489.6999999285,,343489.59999990463,,343494.568,8,400,,,
sequence,flow.Sequence,4_75,2023-09-18T00:58:26.499Z,,0,,,3003.344999928493,completion,,,,,false,,,,343489.6999999285,343489.6999999285,340478.022,340477.09999990463,340486.355,343494.568,8,400,,,
trial,html.Screen,4_76_0,2023-09-18T00:58:30.809Z,,0,2,,4304.731999952288,response,ISIC_0058877.JPG,14,ISIC_0027867.JPG,ISIC_0027867.JPG,false,0,keypress(z),500,347799.7999999523,347799.2999999523,343486.235,343489.7999999523,343494.568,347807.319,8,400,27,,ISIC_0058877.JPG
break,html.Screen,4_76_1,2023-09-18T00:58:30.810Z,,0,,,NaN,,,,,,false,,,,347800.89999997616,347800.59999990463,,347800.09999990463,,347807.319,8,400,,,
break_continue,html.Screen,4_76_2,2023-09-18T00:58:30.811Z,,0,,,NaN,,,,,,false,,,,347801.2999999523,347801.1999999285,,347801,,347807.319,8,400,,,
sequence,flow.Sequence,4_76,2023-09-18T00:58:30.811Z,,0,,,4306.631999928446,completion,,,,,false,,,,347801.5,347801.1999999285,343486.235,343489.7999999523,343494.568,347807.319,8,400,,,
trial,html.Screen,4_77_0,2023-09-18T00:58:34.608Z,,0,2,,3791.0809999761404,response,ISIC_0028025.JPG,8,ISIC_4190900.JPG,ISIC_0028025.JPG,false,1,keypress(m),500,351598.7999999523,351598.39999997616,347798.986,347801.59999990463,347807.319,351607.167,8,400,28,,ISIC_4190900.JPG
break,html.Screen,4_77_1,2023-09-18T00:58:34.609Z,,0,,,NaN,,,,,,false,,,,351599.7999999523,351599.59999990463,,351599.09999990463,,351607.167,8,400,,,
break_continue,html.Screen,4_77_2,2023-09-18T00:58:34.610Z,,0,,,NaN,,,,,,false,,,,351600.2999999523,351600.09999990463,,351600,,351607.167,8,400,,,
sequence,flow.Sequence,4_77,2023-09-18T00:58:34.610Z,,0,,,3792.780999904615,completion,,,,,false,,,,351600.39999997616,351600.09999990463,347798.986,347801.59999990463,347807.319,351607.167,8,400,,,
trial,html.Screen,4_78_0,2023-09-18T00:58:39.866Z,,0,2,,5249.332999999984,response,ISIC_9590080.JPG,3,ISIC_4118762.JPG,ISIC_4118762.JPG,false,0,keypress(z),500,356856.89999997616,356856.5,351598.834,351600.5,351607.167,356865.29,8,400,29,,ISIC_9590080.JPG
break,html.Screen,4_78_1,2023-09-18T00:58:39.867Z,,0,,,NaN,,,,,,false,,,,356857.89999997616,356857.6999999285,,356857.1999999285,,356865.29,8,400,,,
break_continue,html.Screen,4_78_2,2023-09-18T00:58:39.867Z,,0,,,NaN,,,,,,false,,,,356858.09999990463,356858,,356858,,356865.29,8,400,,,
sequence,flow.Sequence,4_78,2023-09-18T00:58:39.868Z,,0,,,5250.832999999984,completion,,,,,false,,,,356858.1999999285,356858,351598.834,351600.39999997616,351607.167,356865.29,8,400,,,
trial,html.Screen,4_79_0,2023-09-18T00:58:44.590Z,,0,2,,4715.009999952337,response,ISIC_0032509.JPG,7,ISIC_7292983.JPG,ISIC_7292983.JPG,false,0,keypress(z),500,361580.6999999285,361580.2999999523,356856.957,356858.1999999285,356865.29,361594.671,8,400,30,,ISIC_0032509.JPG
break,html.Screen,4_79_1,2023-09-18T00:58:44.591Z,,0,,,NaN,,,,,,false,,,,361581.5,361581.39999997616,,361581,,361594.671,8,400,,,
break_continue,html.Screen,4_79_2,2023-09-18T00:58:44.591Z,,0,,,NaN,,,,,,false,,,,361581.7999999523,361581.7999999523,,361581.6999999285,,361594.671,8,400,,,
sequence,flow.Sequence,4_79,2023-09-18T00:58:44.591Z,,0,,,4716.509999952337,completion,,,,,false,,,,361582,361581.7999999523,356856.957,356858.1999999285,356865.29,361594.671,8,400,,,
trial,html.Screen,4_80_0,2023-09-18T00:58:49.076Z,,0,2,,4471.628999952343,response,ISIC_0028906.JPG,8,ISIC_0012395.JPG,ISIC_0028906.JPG,false,1,keypress(m),500,366066.39999997616,366066.2999999523,361586.338,361582.09999990463,361594.671,366069.492,8,400,31,,ISIC_0012395.JPG
break,html.Screen,4_80_1,2023-09-18T00:58:49.076Z,,0,,,NaN,,,,,,false,,,,366066.7999999523,366066.6999999285,,366066.59999990463,,366069.492,8,400,,,
break_continue,html.Screen,4_80_2,2023-09-18T00:58:49.076Z,,0,,,NaN,,,,,,false,,,,366066.89999997616,366066.89999997616,,366066.7999999523,,366069.492,8,400,,,
sequence,flow.Sequence,4_80,2023-09-18T00:58:49.076Z,,0,,,4472.228999976185,completion,,,,,false,,,,366067,366066.89999997616,361586.338,361582.09999990463,361594.671,366069.492,8,400,,,
trial,html.Screen,4_81_0,2023-09-18T00:58:52.922Z,,0,2,,3843.0079999999725,response,ISIC_3942075.JPG,27,ISIC_8684147.JPG,ISIC_8684147.JPG,false,0,keypress(z),500,369912.89999997616,369912.5,366061.159,366067.09999990463,366069.492,369919.79,8,400,32,,ISIC_3942075.JPG
break,html.Screen,4_81_1,2023-09-18T00:58:52.923Z,,0,,,NaN,,,,,,false,,,,369913.89999997616,369913.7999999523,,369913.2999999523,,369919.79,8,400,,,
break_continue,html.Screen,4_81_2,2023-09-18T00:58:52.924Z,,0,,,NaN,,,,,,false,,,,369914.2999999523,369914.2999999523,,369914.09999990463,,369919.79,8,400,,,
sequence,flow.Sequence,4_81,2023-09-18T00:58:52.924Z,,0,,,3844.807999952289,completion,,,,,false,,,,369914.5,369914.2999999523,366061.159,366067,366069.492,369919.79,8,400,,,
trial,html.Screen,4_82_0,2023-09-18T00:58:58.673Z,,0,2,,5743.710000000021,response,ISIC_0060586.JPG,9,ISIC_1161370.JPG,ISIC_0060586.JPG,false,1,keypress(m),500,375663.89999997616,375663.5,369911.457,369914.59999990463,369919.79,375669.56,8,400,33,,ISIC_1161370.JPG
break,html.Screen,4_82_1,2023-09-18T00:58:58.674Z,,0,,,NaN,,,,,,false,,,,375665,375664.7999999523,,375664.1999999285,,375669.56,8,400,,,
break_continue,html.Screen,4_82_2,2023-09-18T00:58:58.674Z,,0,,,NaN,,,,,,false,,,,375665.39999997616,375665.1999999285,,375665.09999990463,,375669.56,8,400,,,
sequence,flow.Sequence,4_82,2023-09-18T00:58:58.675Z,,0,,,5745.409999928495,completion,,,,,false,,,,375665.5,375665.1999999285,369911.457,369914.5,369919.79,375669.56,8,400,,,
trial,html.Screen,4_83_0,2023-09-18T00:59:02.137Z,,0,2,,3457.4400000000023,response,ISIC_9348399.JPG,7,ISIC_5504286.JPG,ISIC_5504286.JPG,false,0,keypress(z),500,379127.5,379127,375661.227,375665.59999990463,375669.56,379136.088,8,400,34,,ISIC_9348399.JPG
break,html.Screen,4_83_1,2023-09-18T00:59:02.138Z,,0,,,NaN,,,,,,false,,,,379128.5,379128.1999999285,,379127.6999999285,,379136.088,8,400,,,
break_continue,html.Screen,4_83_2,2023-09-18T00:59:02.138Z,,0,,,NaN,,,,,,false,,,,379128.89999997616,379128.7999999523,,379128.6999999285,,379136.088,8,400,,,
sequence,flow.Sequence,4_83,2023-09-18T00:59:02.138Z,,0,,,3459.2399999523186,completion,,,,,false,,,,379129.09999990463,379128.7999999523,375661.227,375665.59999990463,375669.56,379136.088,8,400,,,
trial,html.Screen,4_84_0,2023-09-18T00:59:06.508Z,,0,2,,4362.611999928486,response,ISIC_0026155.JPG,14,ISIC_8249854.JPG,ISIC_8249854.JPG,false,0,keypress(z),500,383499.09999990463,383498.6999999285,379127.755,379129.2999999523,379136.088,383507.157,8,400,35,,ISIC_0026155.JPG
break,html.Screen,4_84_1,2023-09-18T00:59:06.509Z,,0,,,NaN,,,,,,false,,,,383500.09999990463,383499.89999997616,,383499.39999997616,,383507.157,8,400,,,
break_continue,html.Screen,4_84_2,2023-09-18T00:59:06.510Z,,0,,,NaN,,,,,,false,,,,383500.5,383500.39999997616,,383500.2999999523,,383507.157,8,400,,,
sequence,flow.Sequence,4_84,2023-09-18T00:59:06.510Z,,0,,,4364.311999976169,completion,,,,,false,,,,383500.6999999285,383500.39999997616,379127.755,379129.1999999285,379136.088,383507.157,8,400,,,
trial,html.Screen,4_85_0,2023-09-18T00:59:11.939Z,,0,2,,5422.442999904626,response,ISIC_6699854.JPG,8,ISIC_0056811.JPG,ISIC_0056811.JPG,false,0,keypress(z),500,388930,388929.59999990463,383498.824,383500.7999999523,383507.157,388931.94,8,400,36,,ISIC_6699854.JPG
break,html.Screen,4_85_1,2023-09-18T00:59:11.940Z,,0,,,NaN,,,,,,false,,,,388931,388930.7999999523,,388930.1999999285,,388931.94,8,400,,,
break_continue,html.Screen,4_85_2,2023-09-18T00:59:11.940Z,,0,,,NaN,,,,,,false,,,,388931.39999997616,388931.2999999523,,388931.09999990463,,388931.94,8,400,,,
sequence,flow.Sequence,4_85,2023-09-18T00:59:11.941Z,,0,,,5424.14299995231,completion,,,,,false,,,,388931.5,388931.2999999523,383498.824,383500.7999999523,383507.157,388931.94,8,400,,,
trial,html.Screen,4_86_0,2023-09-18T00:59:17.528Z,,0,2,,5586.15999990463,response,ISIC_5005253.JPG,8,ISIC_0946787.JPG,ISIC_5005253.JPG,false,1,keypress(m),500,394518.5,394518.09999990463,388923.607,388931.6999999285,388931.94,394523.774,8,400,37,,ISIC_0946787.JPG
break,html.Screen,4_86_1,2023-09-18T00:59:17.528Z,,0,,,NaN,,,,,,false,,,,394519.39999997616,394519.1999999285,,394518.6999999285,,394523.774,8,400,,,
break_continue,html.Screen,4_86_2,2023-09-18T00:59:17.529Z,,0,,,NaN,,,,,,false,,,,394519.6999999285,394519.59999990463,,394519.5,,394523.774,8,400,,,
sequence,flow.Sequence,4_86,2023-09-18T00:59:17.529Z,,0,,,5587.65999990463,completion,,,,,false,,,,394519.7999999523,394519.59999990463,388923.607,388931.59999990463,388931.94,394523.774,8,400,,,
trial,html.Screen,4_87_0,2023-09-18T00:59:23.571Z,,0,2,,6037.625999976182,response,ISIC_0010321.JPG,5,ISIC_0024565.JPG,ISIC_0010321.JPG,false,1,keypress(m),500,400561.7999999523,400561.39999997616,394515.441,394519.89999997616,394523.774,400565.594,8,400,38,,ISIC_0024565.JPG
break,html.Screen,4_87_1,2023-09-18T00:59:23.572Z,,0,,,NaN,,,,,,false,,,,400562.7999999523,400562.59999990463,,400562.09999990463,,400565.594,8,400,,,
break_continue,html.Screen,4_87_2,2023-09-18T00:59:23.572Z,,0,,,NaN,,,,,,false,,,,400563.1999999285,400563,,400563,,400565.594,8,400,,,
sequence,flow.Sequence,4_87,2023-09-18T00:59:23.572Z,,0,,,6039.226000000024,completion,,,,,false,,,,400563.2999999523,400563,394515.441,394519.89999997616,394523.774,400565.594,8,400,,,
trial,html.Screen,4_88_0,2023-09-18T00:59:28.745Z,,0,2,,5170.406000000017,response,ISIC_1260545.JPG,8,ISIC_0030519.JPG,ISIC_0030519.JPG,false,0,keypress(z),500,405736.5,405736,400557.261,400563.5,400565.594,405740.387,8,400,39,,ISIC_1260545.JPG
break,html.Screen,4_88_1,2023-09-18T00:59:28.746Z,,0,,,NaN,,,,,,false,,,,405737.5,405737.1999999285,,405736.7999999523,,405740.387,8,400,,,
break_continue,html.Screen,4_88_2,2023-09-18T00:59:28.747Z,,0,,,NaN,,,,,,false,,,,405737.89999997616,405737.6999999285,,405737.6999999285,,405740.387,8,400,,,
sequence,flow.Sequence,4_88,2023-09-18T00:59:28.747Z,,0,,,5172.105999928492,completion,,,,,false,,,,405738,405737.6999999285,400557.261,400563.5,400565.594,405740.387,8,400,,,
trial,html.Screen,4_89_0,2023-09-18T00:59:34.112Z,,0,2,,5362.3129999284865,response,ISIC_0872145.JPG,8,ISIC_0033759.JPG,ISIC_0033759.JPG,false,0,keypress(z),500,411103.1999999285,411102.6999999285,405732.054,405738.1999999285,405740.387,411111.409,8,400,40,,ISIC_0872145.JPG
break,html.Screen,4_89_1,2023-09-18T00:59:34.113Z,,0,,,NaN,,,,,,false,,,,411104.2999999523,411104,,411103.5,,411111.409,8,400,,,
break_continue,html.Screen,4_89_2,2023-09-18T00:59:34.113Z,,0,,,NaN,,,,,,false,,,,411104.59999990463,411104.39999997616,,411104.2999999523,,411111.409,8,400,,,
sequence,flow.Sequence,4_89,2023-09-18T00:59:34.114Z,,0,,,5364.01299997617,completion,,,,,false,,,,411104.6999999285,411104.39999997616,405732.054,405738.09999990463,405740.387,411111.409,8,400,,,
trial,html.Screen,4_90_0,2023-09-18T00:59:37.095Z,,0,2,,2974.591000000015,response,ISIC_0063872.JPG,5,ISIC_7517082.JPG,ISIC_7517082.JPG,false,0,keypress(z),500,414086.39999997616,414086,411103.076,411104.7999999523,411111.409,414094.623,8,400,41,,ISIC_0063872.JPG
break,html.Screen,4_90_1,2023-09-18T00:59:37.096Z,,0,,,NaN,,,,,,false,,,,414087.09999990463,414087,,414086.5,,414094.623,8,400,,,
break_continue,html.Screen,4_90_2,2023-09-18T00:59:37.096Z,,0,,,NaN,,,,,,false,,,,414087.2999999523,414087.1999999285,,414087.1999999285,,414094.623,8,400,,,
sequence,flow.Sequence,4_90,2023-09-18T00:59:37.096Z,,0,,,2975.7909999284893,completion,,,,,false,,,,414087.39999997616,414087.1999999285,411103.076,411104.7999999523,411111.409,414094.623,8,400,,,
trial,html.Screen,4_91_0,2023-09-18T00:59:39.810Z,,0,2,,2706.2769999761367,response,ISIC_0059082.JPG,5,ISIC_1412843.JPG,ISIC_1412843.JPG,false,0,keypress(z),500,416801.2999999523,416800.89999997616,414086.29,414087.39999997616,414094.623,416802.848,8,400,42,,ISIC_0059082.JPG
break,html.Screen,4_91_1,2023-09-18T00:59:39.811Z,,0,,,NaN,,,,,,false,,,,416802.09999990463,416802,,416801.5,,416802.848,8,400,,,
break_continue,html.Screen,4_91_2,2023-09-18T00:59:39.811Z,,0,,,NaN,,,,,,false,,,,416802.39999997616,416802.39999997616,,416802.2999999523,,416802.848,8,400,,,
sequence,flow.Sequence,4_91,2023-09-18T00:59:39.811Z,,0,,,2707.7769999761367,completion,,,,,false,,,,416802.59999990463,416802.39999997616,414086.29,414087.39999997616,414094.623,416802.848,8,400,,,
trial,html.Screen,4_92_0,2023-09-18T00:59:43.626Z,,0,2,,3814.3519999284763,response,ISIC_4679971.JPG,8,ISIC_5485661.JPG,ISIC_4679971.JPG,false,1,keypress(m),500,420617.6999999285,420617.1999999285,416794.515,416802.6999999285,416802.848,420619.362,8,400,43,,ISIC_5485661.JPG
break,html.Screen,4_92_1,2023-09-18T00:59:43.627Z,,0,,,NaN,,,,,,false,,,,420618.6999999285,420618.5,,420618,,420619.362,8,400,,,
break_continue,html.Screen,4_92_2,2023-09-18T00:59:43.628Z,,0,,,NaN,,,,,,false,,,,420619.09999990463,420619,,420618.89999997616,,420619.362,8,400,,,
sequence,flow.Sequence,4_92,2023-09-18T00:59:43.628Z,,0,,,3816.152000000002,completion,,,,,false,,,,420619.1999999285,420619,416794.515,416802.6999999285,416802.848,420619.362,8,400,,,
trial,html.Screen,4_93_0,2023-09-18T00:59:47.178Z,,0,2,,3549.137999999977,response,ISIC_0024261.JPG,12,ISIC_2183722.JPG,ISIC_2183722.JPG,false,0,keypress(z),500,424169,424168.5,420611.029,420619.2999999523,420619.362,424173.789,8,400,44,,ISIC_0024261.JPG
break,html.Screen,4_93_1,2023-09-18T00:59:47.179Z,,0,,,NaN,,,,,,false,,,,424170,424169.6999999285,,424169.2999999523,,424173.789,8,400,,,
break_continue,html.Screen,4_93_2,2023-09-18T00:59:47.179Z,,0,,,NaN,,,,,,false,,,,424170.2999999523,424170.1999999285,,424170,,424173.789,8,400,,,
sequence,flow.Sequence,4_93,2023-09-18T00:59:47.179Z,,0,,,3550.8379999284516,completion,,,,,false,,,,424170.5,424170.1999999285,420611.029,420619.2999999523,420619.362,424173.789,8,400,,,
trial,html.Screen,4_94_0,2023-09-18T00:59:50.970Z,,0,2,,3787.1109999761684,response,ISIC_0005769.JPG,8,ISIC_9011718.JPG,ISIC_0005769.JPG,false,1,keypress(m),500,427961.1999999285,427960.89999997616,424165.456,424170.59999990463,424173.789,427965.304,8,400,45,,ISIC_9011718.JPG
break,html.Screen,4_94_1,2023-09-18T00:59:50.971Z,,0,,,NaN,,,,,,false,,,,427962.09999990463,427961.89999997616,,427961.5,,427965.304,8,400,,,
break_continue,html.Screen,4_94_2,2023-09-18T00:59:50.971Z,,0,,,NaN,,,,,,false,,,,427962.39999997616,427962.2999999523,,427962.1999999285,,427965.304,8,400,,,
sequence,flow.Sequence,4_94,2023-09-18T00:59:50.971Z,,0,,,3788.5109999523265,completion,,,,,false,,,,427962.5,427962.2999999523,424165.456,424170.5,424173.789,427965.304,8,400,,,
trial,html.Screen,4_95_0,2023-09-18T00:59:53.904Z,,0,2,,2929.3959999284707,response,ISIC_7839741.JPG,17,ISIC_0011434.JPG,ISIC_7839741.JPG,false,1,keypress(m),500,430895.1999999285,430894.6999999285,427956.971,427962.59999990463,427965.304,430898.52,8,400,46,,ISIC_0011434.JPG
break,html.Screen,4_95_1,2023-09-18T00:59:53.905Z,,0,,,NaN,,,,,,false,,,,430896.1999999285,430896,,430895.5,,430898.52,8,400,,,
break_continue,html.Screen,4_95_2,2023-09-18T00:59:53.905Z,,0,,,NaN,,,,,,false,,,,430896.5,430896.39999997616,,430896.39999997616,,430898.52,8,400,,,
sequence,flow.Sequence,4_95,2023-09-18T00:59:53.905Z,,0,,,2931.0959999761544,completion,,,,,false,,,,430896.6999999285,430896.39999997616,427956.971,427962.59999990463,427965.304,430898.52,8,400,,,
trial,html.Screen,4_96_0,2023-09-18T00:59:57.027Z,,0,2,,3119.9799999999814,response,ISIC_0011753.JPG,6,ISIC_6945634.JPG,ISIC_6945634.JPG,false,0,keypress(z),500,434019,434018.5,430890.187,430896.7999999523,430898.52,434032.128,8,400,47,,ISIC_0011753.JPG
break,html.Screen,4_96_1,2023-09-18T00:59:57.028Z,,0,,,NaN,,,,,,false,,,,434019.89999997616,434019.6999999285,,434019.2999999523,,434032.128,8,400,,,
break_continue,html.Screen,4_96_2,2023-09-18T00:59:57.029Z,,0,,,NaN,,,,,,false,,,,434020.1999999285,434020.1999999285,,434020.09999990463,,434032.128,8,400,,,
sequence,flow.Sequence,4_96,2023-09-18T00:59:57.029Z,,0,,,3121.679999928456,completion,,,,,false,,,,434020.5,434020.1999999285,430890.187,430896.7999999523,430898.52,434032.128,8,400,,,
trial,html.Screen,4_97_0,2023-09-18T00:59:59.881Z,,0,2,,2839.4719999046065,response,ISIC_0060656.JPG,25,ISIC_1612350.JPG,ISIC_1612350.JPG,false,0,keypress(z),500,436872.09999990463,436871.59999990463,434023.795,434020.59999990463,434032.128,436873.681,8,400,48,,ISIC_0060656.JPG
break,html.Screen,4_97_1,2023-09-18T00:59:59.882Z,,0,,,NaN,,,,,,false,,,,436873.09999990463,436872.89999997616,,436872.2999999523,,436873.681,8,400,,,
break_continue,html.Screen,4_97_2,2023-09-18T00:59:59.882Z,,0,,,NaN,,,,,,false,,,,436873.39999997616,436873.39999997616,,436873.1999999285,,436873.681,8,400,,,
sequence,flow.Sequence,4_97,2023-09-18T00:59:59.882Z,,0,,,2841.271999976132,completion,,,,,false,,,,436873.59999990463,436873.39999997616,434023.795,434020.5,434032.128,436873.681,8,400,,,
trial,html.Screen,4_98_0,2023-09-18T01:00:03.312Z,,0,2,,3429.618999952334,response,ISIC_0064478.JPG,9,ISIC_8642938.JPG,ISIC_8642938.JPG,false,0,keypress(z),500,440303.59999990463,440303.2999999523,436865.348,436873.6999999285,436873.681,440306.877,8,400,49,,ISIC_0064478.JPG
break,html.Screen,4_98_1,2023-09-18T01:00:03.313Z,,0,,,NaN,,,,,,false,,,,440304.59999990463,440304.5,,440303.89999997616,,440306.877,8,400,,,
break_continue,html.Screen,4_98_2,2023-09-18T01:00:03.313Z,,0,,,NaN,,,,,,false,,,,440304.89999997616,440304.7999999523,,440304.7999999523,,440306.877,8,400,,,
sequence,flow.Sequence,4_98,2023-09-18T01:00:03.314Z,,0,,,3431.118999952334,completion,,,,,false,,,,440305.1999999285,440304.7999999523,436865.348,436873.6999999285,436873.681,440306.877,8,400,,,
trial,html.Screen,4_99_0,2023-09-18T01:00:06.409Z,,0,2,,3093.5229999761796,response,ISIC_0011238.JPG,3,ISIC_0062234.JPG,ISIC_0011238.JPG,false,1,keypress(m),500,443400.89999997616,443400.39999997616,440298.544,440305.2999999523,440306.877,443402.988,8,400,50,,ISIC_0062234.JPG
break,html.Screen,4_99_1,2023-09-18T01:00:16.405Z,,0,,,9999.997999999963,timeout,,,,,false,,,,453396.7999999523,453394.653,443394.655,443401.09999990463,443402.988,453402.986,8,400,,,
break_continue,html.Screen,4_99_2,2023-09-18T01:00:17.278Z,,0,,,849.9139999761828,response,,,,,false,continue,keypress(Space),,454269.89999997616,454252.89999997616,453394.653,453396.89999997616,453402.986,454277.951,8,400,,,
sequence,flow.Sequence,4_99,2023-09-18T01:00:17.278Z,,0,,,13946.02299997618,completion,,,,,false,,,,454270.09999990463,454252.89999997616,440298.544,440305.1999999285,440306.877,454277.951,8,400,,,
trial,html.Screen,4_100_0,2023-09-18T01:00:20.355Z,,0,3,,3068.448999976157,response,ISIC_0010995.JPG,7,ISIC_0005062.JPG,ISIC_0005062.JPG,false,0,keypress(z),500,457346.59999990463,457346.39999997616,454269.618,454270.1999999285,454277.951,457352.828,8,400,1,,ISIC_0010995.JPG
break,html.Screen,4_100_1,2023-09-18T01:00:20.355Z,,0,,,NaN,,,,,,false,,,,457347.09999990463,457347,,457346.7999999523,,457352.828,8,400,,,
break_continue,html.Screen,4_100_2,2023-09-18T01:00:20.355Z,,0,,,NaN,,,,,,false,,,,457347.1999999285,457347.1999999285,,457347.1999999285,,457352.828,8,400,,,
sequence,flow.Sequence,4_100,2023-09-18T01:00:20.356Z,,0,,,3069.2489999284735,completion,,,,,false,,,,457347.2999999523,457347.1999999285,454269.618,454270.1999999285,454277.951,457352.828,8,400,,,
trial,html.Screen,4_101_0,2023-09-18T01:00:24.342Z,,0,3,,3980.371999928495,response,ISIC_6017985.JPG,8,ISIC_1862691.JPG,ISIC_6017985.JPG,false,1,keypress(m),500,461333.6999999285,461333.1999999285,457344.495,457347.2999999523,457352.828,461336.002,8,400,2,,ISIC_1862691.JPG
break,html.Screen,4_101_1,2023-09-18T01:00:24.343Z,,0,,,NaN,,,,,,false,,,,461334.6999999285,461334.39999997616,,461333.89999997616,,461336.002,8,400,,,
break_continue,html.Screen,4_101_2,2023-09-18T01:00:24.343Z,,0,,,NaN,,,,,,false,,,,461335,461335,,461334.89999997616,,461336.002,8,400,,,
sequence,flow.Sequence,4_101,2023-09-18T01:00:24.343Z,,0,,,3982.1720000000205,completion,,,,,false,,,,461335.1999999285,461335,457344.495,457347.2999999523,457352.828,461336.002,8,400,,,
trial,html.Screen,4_102_0,2023-09-18T01:00:27.181Z,,0,3,,2835.8979999761796,response,ISIC_8041078.JPG,8,ISIC_0024756.JPG,ISIC_8041078.JPG,false,1,keypress(m),500,464172.2999999523,464171.89999997616,461327.669,461335.39999997616,461336.002,464173.778,8,400,3,,ISIC_0024756.JPG
break,html.Screen,4_102_1,2023-09-18T01:00:27.182Z,,0,,,NaN,,,,,,false,,,,464173.5,464173.2999999523,,464172.6999999285,,464173.778,8,400,,,
break_continue,html.Screen,4_102_2,2023-09-18T01:00:27.182Z,,0,,,NaN,,,,,,false,,,,464173.89999997616,464173.6999999285,,464173.59999990463,,464173.778,8,400,,,
sequence,flow.Sequence,4_102,2023-09-18T01:00:27.182Z,,0,,,2837.697999928496,completion,,,,,false,,,,464174.09999990463,464173.6999999285,461327.669,461335.2999999523,461336.002,464173.778,8,400,,,
trial,html.Screen,4_103_0,2023-09-18T01:00:30.852Z,,0,3,,3669.121999976167,response,ISIC_6732560.JPG,8,ISIC_7833008.JPG,ISIC_6732560.JPG,false,1,keypress(m),500,467843.2999999523,467842.89999997616,464165.445,464174.1999999285,464173.778,467848.631,8,400,4,,ISIC_7833008.JPG
break,html.Screen,4_103_1,2023-09-18T01:00:30.853Z,,0,,,NaN,,,,,,false,,,,467844.2999999523,467844.09999990463,,467843.59999990463,,467848.631,8,400,,,
break_continue,html.Screen,4_103_2,2023-09-18T01:00:30.853Z,,0,,,NaN,,,,,,false,,,,467844.6999999285,467844.59999990463,,467844.5,,467848.631,8,400,,,
sequence,flow.Sequence,4_103,2023-09-18T01:00:30.853Z,,0,,,3670.8219999046414,completion,,,,,false,,,,467844.89999997616,467844.59999990463,464165.445,464174.1999999285,464173.778,467848.631,8,400,,,
trial,html.Screen,4_104_0,2023-09-18T01:00:35.058Z,,0,3,,4200.668999952322,response,ISIC_3916064.JPG,8,ISIC_6069236.JPG,ISIC_6069236.JPG,false,0,keypress(z),500,472049.7999999523,472049.2999999523,467840.298,467845,467848.631,472057.18,8,400,5,,ISIC_3916064.JPG
break,html.Screen,4_104_1,2023-09-18T01:00:35.059Z,,0,,,NaN,,,,,,false,,,,472050.89999997616,472050.6999999285,,472050.09999990463,,472057.18,8,400,,,
break_continue,html.Screen,4_104_2,2023-09-18T01:00:35.059Z,,0,,,NaN,,,,,,false,,,,472051.2999999523,472051.09999990463,,472051,,472057.18,8,400,,,
sequence,flow.Sequence,4_104,2023-09-18T01:00:35.060Z,,0,,,4202.468999904639,completion,,,,,false,,,,472051.5,472051.09999990463,467840.298,467845,467848.631,472057.18,8,400,,,
trial,html.Screen,4_105_0,2023-09-18T01:00:38.242Z,,0,3,,3176.219999976165,response,ISIC_0059547.JPG,2,ISIC_0034052.JPG,ISIC_0034052.JPG,false,0,keypress(z),500,475233.7999999523,475233.39999997616,472048.847,472051.59999990463,472057.18,475240.386,8,400,6,,ISIC_0059547.JPG
break,html.Screen,4_105_1,2023-09-18T01:00:38.243Z,,0,,,NaN,,,,,,false,,,,475234.89999997616,475234.6999999285,,475234.09999990463,,475240.386,8,400,,,
break_continue,html.Screen,4_105_2,2023-09-18T01:00:38.243Z,,0,,,NaN,,,,,,false,,,,475235.1999999285,475235.09999990463,,475235,,475240.386,8,400,,,
sequence,flow.Sequence,4_105,2023-09-18T01:00:38.244Z,,0,,,3177.9199999046396,completion,,,,,false,,,,475235.39999997616,475235.09999990463,472048.847,472051.5,472057.18,475240.386,8,400,,,
trial,html.Screen,4_106_0,2023-09-18T01:00:41.544Z,,0,3,,3295.4139999523177,response,ISIC_7349440.JPG,8,ISIC_0951519.JPG,ISIC_0951519.JPG,false,0,keypress(z),500,478536.1999999285,478535.7999999523,475232.053,475235.59999990463,475240.386,478540.254,8,400,7,,ISIC_7349440.JPG
break,html.Screen,4_106_1,2023-09-18T01:00:41.545Z,,0,,,NaN,,,,,,false,,,,478537.2999999523,478537,,478536.5,,478540.254,8,400,,,
break_continue,html.Screen,4_106_2,2023-09-18T01:00:41.546Z,,0,,,NaN,,,,,,false,,,,478537.59999990463,478537.39999997616,,478537.39999997616,,478540.254,8,400,,,
sequence,flow.Sequence,4_106,2023-09-18T01:00:41.546Z,,0,,,3297.0139999761595,completion,,,,,false,,,,478537.7999999523,478537.39999997616,475232.053,475235.5,475240.386,478540.254,8,400,,,
trial,html.Screen,4_107_0,2023-09-18T01:00:46.177Z,,0,3,,4628.145999976143,response,ISIC_0016114.JPG,25,ISIC_4590810.JPG,ISIC_4590810.JPG,false,0,keypress(z),500,483168.7999999523,483168.39999997616,478531.921,478537.89999997616,478540.254,483177.977,8,400,8,,ISIC_0016114.JPG
break,html.Screen,4_107_1,2023-09-18T01:00:46.178Z,,0,,,NaN,,,,,,false,,,,483169.89999997616,483169.59999990463,,483169.09999990463,,483177.977,8,400,,,
break_continue,html.Screen,4_107_2,2023-09-18T01:00:46.178Z,,0,,,NaN,,,,,,false,,,,483170.1999999285,483170.09999990463,,483170,,483177.977,8,400,,,
sequence,flow.Sequence,4_107,2023-09-18T01:00:46.178Z,,0,,,4629.845999904617,completion,,,,,false,,,,483170.39999997616,483170.09999990463,478531.921,478537.89999997616,478540.254,483177.977,8,400,,,
trial,html.Screen,4_108_0,2023-09-18T01:00:50.263Z,,0,3,,4076.5229999999865,response,ISIC_4533833.JPG,8,ISIC_0030596.JPG,ISIC_4533833.JPG,false,1,keypress(m),500,487255,487254.5,483169.644,483170.5,483177.977,487261.147,8,400,9,,ISIC_0030596.JPG
break,html.Screen,4_108_1,2023-09-18T01:00:50.264Z,,0,,,NaN,,,,,,false,,,,487256.09999990463,487255.89999997616,,487255.39999997616,,487261.147,8,400,,,
break_continue,html.Screen,4_108_2,2023-09-18T01:00:50.265Z,,0,,,NaN,,,,,,false,,,,487256.59999990463,487256.39999997616,,487256.2999999523,,487261.147,8,400,,,
sequence,flow.Sequence,4_108,2023-09-18T01:00:50.265Z,,0,,,4078.4229999761446,completion,,,,,false,,,,487256.7999999523,487256.39999997616,483169.644,483170.5,483177.977,487261.147,8,400,,,
trial,html.Screen,4_109_0,2023-09-18T01:00:53.179Z,,0,3,,2909.052999928477,response,ISIC_0011509.JPG,3,ISIC_9791275.JPG,ISIC_9791275.JPG,false,0,keypress(z),500,490170.5,490170.1999999285,487252.814,487256.89999997616,487261.147,490177.697,8,400,10,,ISIC_0011509.JPG
break,html.Screen,4_109_1,2023-09-18T01:00:53.180Z,,0,,,NaN,,,,,,false,,,,490171.6999999285,490171.39999997616,,490170.89999997616,,490177.697,8,400,,,
break_continue,html.Screen,4_109_2,2023-09-18T01:00:53.180Z,,0,,,NaN,,,,,,false,,,,490172,490171.89999997616,,490171.7999999523,,490177.697,8,400,,,
sequence,flow.Sequence,4_109,2023-09-18T01:00:53.180Z,,0,,,2910.752999976161,completion,,,,,false,,,,490172.1999999285,490171.89999997616,487252.814,487256.7999999523,487261.147,490177.697,8,400,,,
trial,html.Screen,4_110_0,2023-09-18T01:00:56.865Z,,0,3,,3679.2029999761726,response,ISIC_0026993.JPG,7,ISIC_8127323.JPG,ISIC_8127323.JPG,false,0,keypress(z),500,493857.39999997616,493856.89999997616,490169.364,490172.2999999523,490177.697,493861.318,8,400,11,,ISIC_0026993.JPG
break,html.Screen,4_110_1,2023-09-18T01:00:56.866Z,,0,,,NaN,,,,,,false,,,,493858.5,493858.2999999523,,493857.7999999523,,493861.318,8,400,,,
break_continue,html.Screen,4_110_2,2023-09-18T01:00:56.867Z,,0,,,NaN,,,,,,false,,,,493858.89999997616,493858.6999999285,,493858.59999990463,,493861.318,8,400,,,
sequence,flow.Sequence,4_110,2023-09-18T01:00:56.867Z,,0,,,3681.002999928489,completion,,,,,false,,,,493859.09999990463,493858.6999999285,490169.364,490172.2999999523,490177.697,493861.318,8,400,,,
trial,html.Screen,4_111_0,2023-09-18T01:00:59.560Z,,0,3,,2690.0819999761297,response,ISIC_0028173.JPG,5,ISIC_3459981.JPG,ISIC_3459981.JPG,false,0,keypress(z),500,496551.89999997616,496551.39999997616,493852.985,493859.1999999285,493861.318,496552.877,8,400,12,,ISIC_0028173.JPG
break,html.Screen,4_111_1,2023-09-18T01:00:59.561Z,,0,,,NaN,,,,,,false,,,,496553,496552.6999999285,,496552.1999999285,,496552.877,8,400,,,
break_continue,html.Screen,4_111_2,2023-09-18T01:00:59.561Z,,0,,,NaN,,,,,,false,,,,496553.39999997616,496553.1999999285,,496553.09999990463,,496552.877,8,400,,,
sequence,flow.Sequence,4_111,2023-09-18T01:00:59.561Z,,0,,,2691.881999928446,completion,,,,,false,,,,496553.59999990463,496553.1999999285,493852.985,493859.09999990463,493861.318,496552.877,8,400,,,
trial,html.Screen,4_112_0,2023-09-18T01:01:03.581Z,,0,3,,4019.5229999761796,response,ISIC_5754233.JPG,8,ISIC_0656395.JPG,ISIC_5754233.JPG,false,1,keypress(m),500,500572.89999997616,500572.39999997616,496544.544,496553.6999999285,496552.877,500577.716,8,400,13,,ISIC_0656395.JPG
break,html.Screen,4_112_1,2023-09-18T01:01:03.582Z,,0,,,NaN,,,,,,false,,,,500574.09999990463,500573.6999999285,,500573.1999999285,,500577.716,8,400,,,
break_continue,html.Screen,4_112_2,2023-09-18T01:01:03.582Z,,0,,,NaN,,,,,,false,,,,500574.5,500574.39999997616,,500574.1999999285,,500577.716,8,400,,,
sequence,flow.Sequence,4_112,2023-09-18T01:01:03.582Z,,0,,,4021.5229999761796,completion,,,,,false,,,,500574.59999990463,500574.39999997616,496544.544,496553.59999990463,496552.877,500577.716,8,400,,,
trial,html.Screen,4_113_0,2023-09-18T01:01:07.287Z,,0,3,,3700.8839999046177,response,ISIC_7582818.JPG,9,ISIC_0028341.JPG,ISIC_0028341.JPG,false,0,keypress(z),500,504278.89999997616,504278.59999990463,500569.383,500574.6999999285,500577.716,504282.149,8,400,14,,ISIC_7582818.JPG
break,html.Screen,4_113_1,2023-09-18T01:01:07.288Z,,0,,,NaN,,,,,,false,,,,504279.6999999285,504279.59999990463,,504279.09999990463,,504282.149,8,400,,,
break_continue,html.Screen,4_113_2,2023-09-18T01:01:07.288Z,,0,,,NaN,,,,,,false,,,,504280,504279.89999997616,,504279.7999999523,,504282.149,8,400,,,
sequence,flow.Sequence,4_113,2023-09-18T01:01:07.288Z,,0,,,3702.1839999761432,completion,,,,,false,,,,504280.09999990463,504279.89999997616,500569.383,500574.6999999285,500577.716,504282.149,8,400,,,
trial,html.Screen,4_114_0,2023-09-18T01:01:10.075Z,,0,3,,2784.6509999523405,response,ISIC_3253098.JPG,8,ISIC_0070387.JPG,ISIC_3253098.JPG,false,1,keypress(m),500,507067.1999999285,507066.7999999523,504273.816,504280.1999999285,504282.149,507073.704,8,400,15,,ISIC_0070387.JPG
break,html.Screen,4_114_1,2023-09-18T01:01:10.076Z,,0,,,NaN,,,,,,false,,,,507068,507067.7999999523,,507067.39999997616,,507073.704,8,400,,,
break_continue,html.Screen,4_114_2,2023-09-18T01:01:10.076Z,,0,,,NaN,,,,,,false,,,,507068.09999990463,507068.09999990463,,507068.09999990463,,507073.704,8,400,,,
sequence,flow.Sequence,4_114,2023-09-18T01:01:10.076Z,,0,,,2785.950999904657,completion,,,,,false,,,,507068.2999999523,507068.09999990463,504273.816,504280.1999999285,504282.149,507073.704,8,400,,,
trial,html.Screen,4_115_0,2023-09-18T01:01:13.345Z,,0,3,,3262.9959999284474,response,ISIC_8025644.JPG,9,ISIC_1074939.JPG,ISIC_8025644.JPG,false,1,keypress(m),500,510337.09999990463,510336.6999999285,507065.371,507068.2999999523,507073.704,510340.24,8,400,16,,ISIC_1074939.JPG
break,html.Screen,4_115_1,2023-09-18T01:01:13.346Z,,0,,,NaN,,,,,,false,,,,510338.09999990463,510337.7999999523,,510337.39999997616,,510340.24,8,400,,,
break_continue,html.Screen,4_115_2,2023-09-18T01:01:13.346Z,,0,,,NaN,,,,,,false,,,,510338.5,510338.2999999523,,510338.1999999285,,510340.24,8,400,,,
sequence,flow.Sequence,4_115,2023-09-18T01:01:13.346Z,,0,,,3264.5959999522893,completion,,,,,false,,,,510338.59999990463,510338.2999999523,507065.371,507068.2999999523,507073.704,510340.24,8,400,,,
trial,html.Screen,4_116_0,2023-09-18T01:01:17.730Z,,0,3,,4381.459999928484,response,ISIC_0057244.JPG,7,ISIC_2772217.JPG,ISIC_2772217.JPG,false,0,keypress(z),500,514722,514721.6999999285,510331.907,510338.7999999523,510340.24,514727.97,8,400,17,,ISIC_0057244.JPG
break,html.Screen,4_116_1,2023-09-18T01:01:17.730Z,,0,,,NaN,,,,,,false,,,,514722.7999999523,514722.59999990463,,514722.1999999285,,514727.97,8,400,,,
break_continue,html.Screen,4_116_2,2023-09-18T01:01:17.731Z,,0,,,NaN,,,,,,false,,,,514723,514723,,514722.89999997616,,514727.97,8,400,,,
sequence,flow.Sequence,4_116,2023-09-18T01:01:17.731Z,,0,,,4382.760000000009,completion,,,,,false,,,,514723.1999999285,514723,510331.907,510338.6999999285,510340.24,514727.97,8,400,,,
trial,html.Screen,4_117_0,2023-09-18T01:01:22.328Z,,0,3,,4591.829999952344,response,ISIC_7287540.JPG,8,ISIC_7844565.JPG,ISIC_7844565.JPG,false,0,keypress(z),500,519320.09999990463,519319.7999999523,514719.637,514723.2999999523,514727.97,519327.786,8,400,18,,ISIC_7287540.JPG
break,html.Screen,4_117_1,2023-09-18T01:01:22.329Z,,0,,,NaN,,,,,,false,,,,519321.2999999523,519321.09999990463,,519320.5,,519327.786,8,400,,,
break_continue,html.Screen,4_117_2,2023-09-18T01:01:22.329Z,,0,,,NaN,,,,,,false,,,,519321.59999990463,519321.5,,519321.39999997616,,519327.786,8,400,,,
sequence,flow.Sequence,4_117,2023-09-18T01:01:22.329Z,,0,,,4593.530000000028,completion,,,,,false,,,,519321.59999990463,519321.5,514719.637,514723.1999999285,514727.97,519327.786,8,400,,,
trial,html.Screen,4_118_0,2023-09-18T01:01:27.675Z,,0,3,,5339.613999976136,response,ISIC_6674653.JPG,13,ISIC_4396553.JPG,ISIC_6674653.JPG,false,1,keypress(m),500,524667.7999999523,524667.3999999762,519319.453,519321.6999999285,519327.786,524682.131,8,400,19,,ISIC_4396553.JPG
break,html.Screen,4_118_1,2023-09-18T01:01:27.676Z,,0,,,NaN,,,,,,false,,,,524668.7999999523,524668.5999999046,,524668,,524682.131,8,400,,,
break_continue,html.Screen,4_118_2,2023-09-18T01:01:27.677Z,,0,,,NaN,,,,,,false,,,,524669.1999999285,524669,,524669,,524682.131,8,400,,,
sequence,flow.Sequence,4_118,2023-09-18T01:01:27.677Z,,0,,,5341.213999999978,completion,,,,,false,,,,524669.3999999762,524669,519319.453,519321.6999999285,519327.786,524682.131,8,400,,,
trial,html.Screen,4_119_0,2023-09-18T01:01:30.530Z,,0,3,,2839.5689999284223,response,ISIC_3751090.JPG,8,ISIC_0065128.JPG,ISIC_3751090.JPG,false,1,keypress(m),500,527522.0999999046,527521.6999999285,524673.798,524669.5,524682.131,527523.684,8,400,20,,ISIC_0065128.JPG
break,html.Screen,4_119_1,2023-09-18T01:01:30.531Z,,0,,,NaN,,,,,,false,,,,527523.1999999285,527523,,527522.5,,527523.684,8,400,,,
break_continue,html.Screen,4_119_2,2023-09-18T01:01:30.531Z,,0,,,NaN,,,,,,false,,,,527523.5999999046,527523.5,,527523.2999999523,,527523.684,8,400,,,
sequence,flow.Sequence,4_119,2023-09-18T01:01:30.531Z,,0,,,2841.368999999948,completion,,,,,false,,,,527523.7999999523,527523.5,524673.798,524669.5,524682.131,527523.684,8,400,,,
trial,html.Screen,4_120_0,2023-09-18T01:01:33.304Z,,0,3,,2772.615999952308,response,ISIC_0011799.JPG,9,ISIC_8409024.JPG,ISIC_8409024.JPG,false,0,keypress(z),500,530296.7999999523,530296.2999999523,527515.351,527523.8999999762,527523.684,530298.573,8,400,21,,ISIC_0011799.JPG
break,html.Screen,4_120_1,2023-09-18T01:01:33.305Z,,0,,,NaN,,,,,,false,,,,530297.8999999762,530297.5999999046,,530297,,530298.573,8,400,,,
break_continue,html.Screen,4_120_2,2023-09-18T01:01:33.306Z,,0,,,NaN,,,,,,false,,,,530298.1999999285,530298.0999999046,,530297.8999999762,,530298.573,8,400,,,
sequence,flow.Sequence,4_120,2023-09-18T01:01:33.306Z,,0,,,2774.415999904624,completion,,,,,false,,,,530298.3999999762,530298.0999999046,527515.351,527523.8999999762,527523.684,530298.573,8,400,,,
trial,html.Screen,4_121_0,2023-09-18T01:01:39.373Z,,0,3,,6066.6269999285,response,ISIC_0073043.JPG,7,ISIC_0010965.JPG,ISIC_0010965.JPG,false,0,keypress(z),500,536365.5,536365.1999999285,530290.24,530298.5,530298.573,536369.567,8,400,22,,ISIC_0073043.JPG
break,html.Screen,4_121_1,2023-09-18T01:01:39.374Z,,0,,,NaN,,,,,,false,,,,536366.2999999523,536366.0999999046,,536365.7999999523,,536369.567,8,400,,,
break_continue,html.Screen,4_121_2,2023-09-18T01:01:39.374Z,,0,,,NaN,,,,,,false,,,,536366.5,536366.5,,536366.3999999762,,536369.567,8,400,,,
sequence,flow.Sequence,4_121,2023-09-18T01:01:39.374Z,,0,,,6067.927000000025,completion,,,,,false,,,,536366.5999999046,536366.5,530290.24,530298.5,530298.573,536369.567,8,400,,,
trial,html.Screen,4_122_0,2023-09-18T01:01:42.516Z,,0,3,,3138.0329999045935,response,ISIC_6777714.JPG,6,ISIC_0010958.JPG,ISIC_6777714.JPG,false,1,keypress(m),500,539508.1999999285,539507.5999999046,536361.234,536366.5999999046,536369.567,539511.108,8,400,23,,ISIC_0010958.JPG
break,html.Screen,4_122_1,2023-09-18T01:01:42.517Z,,0,,,NaN,,,,,,false,,,,539509.2999999523,539509,,539508.5999999046,,539511.108,8,400,,,
break_continue,html.Screen,4_122_2,2023-09-18T01:01:42.517Z,,0,,,NaN,,,,,,false,,,,539509.5,539509.3999999762,,539509.2999999523,,539511.108,8,400,,,
sequence,flow.Sequence,4_122,2023-09-18T01:01:42.517Z,,0,,,3139.832999976119,completion,,,,,false,,,,539509.5999999046,539509.3999999762,536361.234,536366.5999999046,536369.567,539511.108,8,400,,,
trial,html.Screen,4_123_0,2023-09-18T01:01:45.112Z,,0,3,,2593.591999928467,response,ISIC_0032872.JPG,14,ISIC_6673956.JPG,ISIC_6673956.JPG,false,0,keypress(z),500,542105,542104.6999999285,539502.775,539509.7999999523,539511.108,542111.004,8,400,24,,ISIC_0032872.JPG
break,html.Screen,4_123_1,2023-09-18T01:01:45.114Z,,0,,,NaN,,,,,,false,,,,542106.0999999046,542105.8999999762,,542105.3999999762,,542111.004,8,400,,,
break_continue,html.Screen,4_123_2,2023-09-18T01:01:45.114Z,,0,,,NaN,,,,,,false,,,,542106.5,542106.2999999523,,542106.2999999523,,542111.004,8,400,,,
sequence,flow.Sequence,4_123,2023-09-18T01:01:45.114Z,,0,,,2595.191999952309,completion,,,,,false,,,,542106.6999999285,542106.2999999523,539502.775,539509.7999999523,539511.108,542111.004,8,400,,,
trial,html.Screen,4_124_0,2023-09-18T01:01:48.507Z,,0,3,,3387.795999952359,response,ISIC_0031744.JPG,6,ISIC_0026500.JPG,ISIC_0031744.JPG,false,1,keypress(m),500,545499.1999999285,545498.7999999523,542102.671,542106.6999999285,542111.004,545502.942,8,400,25,,ISIC_0026500.JPG
break,html.Screen,4_124_1,2023-09-18T01:01:48.508Z,,0,,,NaN,,,,,,false,,,,545500.1999999285,545500,,545499.5,,545502.942,8,400,,,
break_continue,html.Screen,4_124_2,2023-09-18T01:01:48.508Z,,0,,,NaN,,,,,,false,,,,545500.5999999046,545500.5,,545500.2999999523,,545502.942,8,400,,,
sequence,flow.Sequence,4_124,2023-09-18T01:01:48.508Z,,0,,,3389.496000000043,completion,,,,,false,,,,545500.6999999285,545500.5,542102.671,542106.6999999285,542111.004,545502.942,8,400,,,
trial,html.Screen,4_125_0,2023-09-18T01:01:51.464Z,,0,3,,2953.557999999961,response,ISIC_4368650.JPG,26,ISIC_0070046.JPG,ISIC_4368650.JPG,false,1,keypress(m),500,548456.8999999762,548456.5,545494.609,545500.8999999762,545502.942,548461.157,8,400,26,,ISIC_0070046.JPG
break,html.Screen,4_125_1,2023-09-18T01:01:51.465Z,,0,,,NaN,,,,,,false,,,,548457.8999999762,548457.5999999046,,548457.0999999046,,548461.157,8,400,,,
break_continue,html.Screen,4_125_2,2023-09-18T01:01:51.465Z,,0,,,NaN,,,,,,false,,,,548458.0999999046,548458,,548457.8999999762,,548461.157,8,400,,,
sequence,flow.Sequence,4_125,2023-09-18T01:01:51.466Z,,0,,,2955.057999999961,completion,,,,,false,,,,548458.1999999285,548458,545494.609,545500.7999999523,545502.942,548461.157,8,400,,,
