sender,sender_type,sender_id,timestamp,meta,,blockNo,condition,duration,ended_on,img_left,img_reveal,img_right,loser,practice,response,response_action,selection_duration,time_commit,time_end,time_render,time_run,time_show,time_switch,total_blocks,total_trials,trialNo,url,winner
informed_consent,html.Screen,0,2023-10-31T02:50:00.805Z,"{""labjs_version"":""20.2.4"",""labjs_build"":{""flavor"":""production"",""commit"":""f5b4a49f956347addd546a832a3327688c2c0fef""},""location"":""https://run.pavlovia.org/MurrayBennett/melanoma-2afc/?participant=66714&platform=sona"",""userAgent"":""Mozilla/5.0 (Windows NT 10.0; Win64; x64) AppleWebKit/537.36 (KHTML, like Gecko) Chrome/118.0.0.0 Safari/537.36 Edg/118.0.2088.46"",""platform"":""Win32"",""language"":""en-US"",""locale"":""en-US"",""timeZone"":""America/Chicago"",""timezoneOffset"":300,""screen_width"":1280,""screen_height"":720,""scroll_width"":1272,""scroll_height"":594,""window_innerWidth"":1272,""window_innerHeight"":594,""devicePixelRatio"":1.5}",,,,4053.377,response,,,,,,consent,click button,,6558.700000047684,6556.5,2486.435,2488.2999999523163,2503.123,6586.264,,,,"{""participant"":""66714"",""platform"":""sona""}",
Welcome,html.Screen,1,2023-10-31T02:50:03.530Z,,,,asymmetry,2695.6360000953673,response,,,,,,continue,click button,,9283.700000047684,9281.900000095367,6569.512,6558.799999952316,6586.264,9286.055,,,,,
trial,html.Screen,2_0_0,2023-10-31T02:50:09.709Z,,0,0,,6176.244999952316,response,ISIC_6997061.JPG,,ISIC_0069348.JPG,ISIC_6997061.JPG,true,1,keypress(m),500,15462.600000143051,15462.299999952316,9269.891,9283.799999952316,9286.055,15469.254,1,6,1,,ISIC_0069348.JPG
sequence,flow.Sequence,2_0,2023-10-31T02:50:09.709Z,,0,,,6176.244999952316,completion,,,,,true,,,,15462.799999952316,15462.299999952316,9269.891,9283.799999952316,9286.055,15469.254,1,6,,,
trial,html.Screen,2_1_0,2023-10-31T02:50:17.023Z,,0,0,,7307.0459999523155,response,ISIC_0009529.JPG,,ISIC_0057368.JPG,ISIC_0009529.JPG,true,1,keypress(m),500,22776.400000095367,22776.299999952316,15452.985,15462.900000095367,15469.254,22785.427,1,6,2,,ISIC_0057368.JPG
sequence,flow.Sequence,2_1,2023-10-31T02:50:17.023Z,,0,,,7307.0459999523155,completion,,,,,true,,,,22776.5,22776.299999952316,15452.985,15462.900000095367,15469.254,22785.427,1,6,,,
trial,html.Screen,2_2_0,2023-10-31T02:50:24.561Z,,0,0,,7528.6730001430515,response,ISIC_9758671.JPG,,ISIC_0064954.JPG,ISIC_0064954.JPG,true,0,keypress(z),500,30314.299999952316,30314.10000014305,22769.056,22776.60000014305,22785.427,30318.523,1,6,3,,ISIC_9758671.JPG
sequence,flow.Sequence,2_2,2023-10-31T02:50:24.561Z,,0,,,7528.6730001430515,completion,,,,,true,,,,30314.60000014305,30314.10000014305,22769.056,22776.60000014305,22785.427,30318.523,1,6,,,
trial,html.Screen,2_3_0,2023-10-31T02:50:28.147Z,,0,0,,3582.1770000476827,response,ISIC_0000080.JPG,,ISIC_0005785.JPG,ISIC_0005785.JPG,true,0,keypress(z),500,33901,33900.700000047684,30302.045,30314.799999952316,30318.523,33918.517,1,6,4,,ISIC_0000080.JPG
sequence,flow.Sequence,2_3,2023-10-31T02:50:28.148Z,,0,,,3582.1770000476827,completion,,,,,true,,,,33901.40000009537,33900.700000047684,30302.045,30314.700000047684,30318.523,33918.517,1,6,,,
trial,html.Screen,2_4_0,2023-10-31T02:50:32.085Z,,0,0,,3920.2829999523165,response,ISIC_5390060.JPG,,ISIC_7944028.JPG,ISIC_7944028.JPG,true,0,keypress(z),500,37839,37838.799999952316,33901.636,33901.60000014305,33918.517,37851.741,1,6,5,,ISIC_5390060.JPG
sequence,flow.Sequence,2_4,2023-10-31T02:50:32.086Z,,0,,,3920.2829999523165,completion,,,,,true,,,,37839.40000009537,37838.799999952316,33901.636,33901.60000014305,33918.517,37851.741,1,6,,,
trial,html.Screen,2_5_0,2023-10-31T02:50:35.832Z,,0,0,,3733.758999999998,response,ISIC_0794216.JPG,,ISIC_0010188.JPG,ISIC_0794216.JPG,true,1,keypress(m),500,41585.700000047684,41585.5,37835.318,37839.40000009537,37851.741,41601.198,1,6,6,,ISIC_0010188.JPG
sequence,flow.Sequence,2_5,2023-10-31T02:50:35.832Z,,0,,,3733.758999999998,completion,,,,,true,,,,41585.90000009537,41585.5,37835.318,37839.40000009537,37851.741,41601.198,1,6,,,
loop,flow.Loop,2,2023-10-31T02:50:35.833Z,,,,,32299.445,completion,,,,,true,,,,41586.200000047684,41585.5,9269.891,9283.799999952316,9286.055,41601.198,1,6,,,
exp_instructions,html.Screen,3,2023-10-31T02:50:41.150Z,,,,,5301.4020001430545,response,,,,,,continue,keypress(Space),,46903.299999952316,46902.60000014305,41584.982,41586.200000047684,41601.198,46917.865,,,,,
trial,html.Screen,4_0_0,2023-10-31T02:50:44.881Z,,0,1,,3717.0350000953695,response,ISIC_0053541.JPG,6,ISIC_0032473.JPG,ISIC_0032473.JPG,false,0,keypress(z),500,50635.10000014305,50634.90000009537,46901.309,46903.5,46917.865,50650.999,8,400,1,,ISIC_0053541.JPG
break,html.Screen,4_0_1,2023-10-31T02:50:44.882Z,,0,,,NaN,,,,,,false,,,,50636.10000014305,50635.90000009537,,50635.200000047684,,50650.999,8,400,,,
break_continue,html.Screen,4_0_2,2023-10-31T02:50:44.883Z,,0,,,NaN,,,,,,false,,,,50636.5,50636.40000009537,,50636.299999952316,,50650.999,8,400,,,
sequence,flow.Sequence,4_0,2023-10-31T02:50:44.883Z,,0,,,3718.5350000953695,completion,,,,,false,,,,50636.700000047684,50636.40000009537,46901.309,46903.5,46917.865,50650.999,8,400,,,
trial,html.Screen,4_1_0,2023-10-31T02:50:47.622Z,,0,1,,2723.901000095364,response,ISIC_0061583.JPG,5,ISIC_7161069.JPG,ISIC_7161069.JPG,false,0,keypress(z),500,53375.200000047684,53374.90000009537,50634.153,50636.700000047684,50650.999,53384.003,8,400,2,,ISIC_0061583.JPG
break,html.Screen,4_1_1,2023-10-31T02:50:47.622Z,,0,,,NaN,,,,,,false,,,,53375.90000009537,53375.799999952316,,53375.40000009537,,53384.003,8,400,,,
break_continue,html.Screen,4_1_2,2023-10-31T02:50:47.623Z,,0,,,NaN,,,,,,false,,,,53376.299999952316,53376.10000014305,,53376.10000014305,,53384.003,8,400,,,
sequence,flow.Sequence,4_1,2023-10-31T02:50:47.623Z,,0,,,2725.1010001430477,completion,,,,,false,,,,53376.5,53376.10000014305,50634.153,50636.700000047684,50650.999,53384.003,8,400,,,
trial,html.Screen,4_2_0,2023-10-31T02:50:50.777Z,,0,1,,3146.1970000476867,response,ISIC_0056660.JPG,4,ISIC_4978697.JPG,ISIC_4978697.JPG,false,0,keypress(z),500,56530.5,56530.200000047684,53367.5,53376.5,53384.003,56533.958,8,400,3,,ISIC_0056660.JPG
break,html.Screen,4_2_1,2023-10-31T02:50:50.778Z,,0,,,NaN,,,,,,false,,,,56531.200000047684,56531.10000014305,,56530.60000014305,,56533.958,8,400,,,
break_continue,html.Screen,4_2_2,2023-10-31T02:50:50.778Z,,0,,,NaN,,,,,,false,,,,56531.60000014305,56531.40000009537,,56531.40000009537,,56533.958,8,400,,,
sequence,flow.Sequence,4_2,2023-10-31T02:50:50.778Z,,0,,,3147.3970000953705,completion,,,,,false,,,,56531.700000047684,56531.40000009537,53367.5,53376.5,53384.003,56533.958,8,400,,,
trial,html.Screen,4_3_0,2023-10-31T02:50:54.460Z,,0,1,,3679.0420000000013,response,ISIC_9996128.JPG,5,ISIC_6180870.JPG,ISIC_6180870.JPG,false,0,keypress(z),500,60213.200000047684,60213,56517.568,56531.90000009537,56533.958,60217.127,8,400,4,,ISIC_9996128.JPG
break,html.Screen,4_3_1,2023-10-31T02:50:54.460Z,,0,,,NaN,,,,,,false,,,,60214,60213.90000009537,,60213.5,,60217.127,8,400,,,
break_continue,html.Screen,4_3_2,2023-10-31T02:50:54.462Z,,0,,,NaN,,,,,,false,,,,60215.200000047684,60215.200000047684,,60215,,60217.127,8,400,,,
sequence,flow.Sequence,4_3,2023-10-31T02:50:54.462Z,,0,,,3681.242000047685,completion,,,,,false,,,,60215.40000009537,60215.200000047684,56517.568,56531.90000009537,56533.958,60217.127,8,400,,,
trial,html.Screen,4_4_0,2023-10-31T02:50:57.232Z,,0,1,,2768.672999952316,response,ISIC_5354827.JPG,4,ISIC_0027742.JPG,ISIC_5354827.JPG,false,1,keypress(m),500,62985.799999952316,62985.799999952316,60200.239,60215.5,60217.127,63000.416,8,400,5,,ISIC_0027742.JPG
break,html.Screen,4_4_1,2023-10-31T02:50:57.232Z,,0,,,NaN,,,,,,false,,,,62986.200000047684,62986.10000014305,,62985.90000009537,,63000.416,8,400,,,
break_continue,html.Screen,4_4_2,2023-10-31T02:50:57.232Z,,0,,,NaN,,,,,,false,,,,62986.200000047684,62986.200000047684,,62986.200000047684,,63000.416,8,400,,,
sequence,flow.Sequence,4_4,2023-10-31T02:50:57.233Z,,0,,,2769.0730000476833,completion,,,,,false,,,,62986.200000047684,62986.200000047684,60200.239,60215.40000009537,60217.127,63000.416,8,400,,,
trial,html.Screen,4_5_0,2023-10-31T02:51:00.642Z,,0,1,,3395.48400009537,response,ISIC_0029225.JPG,5,ISIC_0034172.JPG,ISIC_0034172.JPG,false,0,keypress(z),500,66396.10000014305,66395.90000009537,62983.78,62986.40000009537,63000.416,66416.764,8,400,6,,ISIC_0029225.JPG
break,html.Screen,4_5_1,2023-10-31T02:51:00.643Z,,0,,,NaN,,,,,,false,,,,66396.90000009537,66396.70000004768,,66396.29999995232,,66416.764,8,400,,,
break_continue,html.Screen,4_5_2,2023-10-31T02:51:00.643Z,,0,,,NaN,,,,,,false,,,,66397.10000014305,66397,,66396.90000009537,,66416.764,8,400,,,
sequence,flow.Sequence,4_5,2023-10-31T02:51:00.643Z,,0,,,3396.5840000000026,completion,,,,,false,,,,66397.20000004768,66397,62983.78,62986.299999952316,63000.416,66416.764,8,400,,,
trial,html.Screen,4_6_0,2023-10-31T02:51:04.678Z,,0,1,,4014.936000047688,response,ISIC_0030985.JPG,5,ISIC_0010788.JPG,ISIC_0010788.JPG,false,0,keypress(z),500,70431.90000009537,70431.70000004768,66400.232,66397.29999995232,66416.764,70450.147,8,400,7,,ISIC_0030985.JPG
break,html.Screen,4_6_1,2023-10-31T02:51:04.679Z,,0,,,NaN,,,,,,false,,,,70432.70000004768,70432.5,,70432.10000014305,,70450.147,8,400,,,
break_continue,html.Screen,4_6_2,2023-10-31T02:51:04.679Z,,0,,,NaN,,,,,,false,,,,70433.10000014305,70432.90000009537,,70432.79999995232,,70450.147,8,400,,,
sequence,flow.Sequence,4_6,2023-10-31T02:51:04.679Z,,0,,,4016.136000095372,completion,,,,,false,,,,70433.20000004768,70432.90000009537,66400.232,66397.29999995232,66416.764,70450.147,8,400,,,
trial,html.Screen,4_7_0,2023-10-31T02:51:08.554Z,,0,1,,3857.353000000003,response,ISIC_2332127.JPG,5,ISIC_0024292.JPG,ISIC_0024292.JPG,false,0,keypress(z),500,74307.70000004768,74307.5,70416.977,70433.29999995232,70450.147,74316.382,8,400,8,,ISIC_2332127.JPG
break,html.Screen,4_7_1,2023-10-31T02:51:08.555Z,,0,,,NaN,,,,,,false,,,,74308.60000014305,74308.40000009537,,74307.90000009537,,74316.382,8,400,,,
break_continue,html.Screen,4_7_2,2023-10-31T02:51:08.555Z,,0,,,NaN,,,,,,false,,,,74308.90000009537,74308.90000009537,,74308.79999995232,,74316.382,8,400,,,
sequence,flow.Sequence,4_7,2023-10-31T02:51:08.555Z,,0,,,3858.75300009537,completion,,,,,false,,,,74309.10000014305,74308.90000009537,70416.977,70433.20000004768,70450.147,74316.382,8,400,,,
trial,html.Screen,4_8_0,2023-10-31T02:51:12.126Z,,0,1,,3562.9179999523185,response,ISIC_5240648.JPG,5,ISIC_0014164.JPG,ISIC_5240648.JPG,false,1,keypress(m),500,77879.5,77879.29999995232,74300.045,74309.29999995232,74316.382,77882.941,8,400,9,,ISIC_0014164.JPG
break,html.Screen,4_8_1,2023-10-31T02:51:12.127Z,,0,,,NaN,,,,,,false,,,,77880.40000009537,77880.20000004768,,77879.70000004768,,77882.941,8,400,,,
break_continue,html.Screen,4_8_2,2023-10-31T02:51:12.127Z,,0,,,NaN,,,,,,false,,,,77880.70000004768,77880.60000014305,,77880.5,,77882.941,8,400,,,
sequence,flow.Sequence,4_8,2023-10-31T02:51:12.127Z,,0,,,3564.2180001430534,completion,,,,,false,,,,77880.79999995232,77880.60000014305,74300.045,74309.29999995232,74316.382,77882.941,8,400,,,
trial,html.Screen,4_9_0,2023-10-31T02:51:15.730Z,,0,1,,3600.35899995231,response,ISIC_2642873.JPG,4,ISIC_6280523.JPG,ISIC_6280523.JPG,false,0,keypress(z),500,81483.5,81483.29999995232,77866.173,77880.90000009537,77882.941,81499.499,8,400,10,,ISIC_2642873.JPG
break,html.Screen,4_9_1,2023-10-31T02:51:15.731Z,,0,,,NaN,,,,,,false,,,,81484.40000009537,81484.20000004768,,81483.70000004768,,81499.499,8,400,,,
break_continue,html.Screen,4_9_2,2023-10-31T02:51:15.731Z,,0,,,NaN,,,,,,false,,,,81484.70000004768,81484.60000014305,,81484.40000009537,,81499.499,8,400,,,
sequence,flow.Sequence,4_9,2023-10-31T02:51:15.731Z,,0,,,3601.659000143045,completion,,,,,false,,,,81484.79999995232,81484.60000014305,77866.173,77880.90000009537,77882.941,81499.499,8,400,,,
trial,html.Screen,4_10_0,2023-10-31T02:51:18.677Z,,0,1,,2931.501000000004,response,ISIC_0028326.JPG,5,ISIC_8539990.JPG,ISIC_0028326.JPG,false,1,keypress(m),500,84431.20000004768,84431,81483.212,81484.90000009537,81499.499,84449.297,8,400,11,,ISIC_8539990.JPG
break,html.Screen,4_10_1,2023-10-31T02:51:18.678Z,,0,,,NaN,,,,,,false,,,,84431.90000009537,84431.79999995232,,84431.29999995232,,84449.297,8,400,,,
break_continue,html.Screen,4_10_2,2023-10-31T02:51:18.678Z,,0,,,NaN,,,,,,false,,,,84432.20000004768,84432.10000014305,,84432.10000014305,,84449.297,8,400,,,
sequence,flow.Sequence,4_10,2023-10-31T02:51:18.679Z,,0,,,2932.601000143055,completion,,,,,false,,,,84432.29999995232,84432.10000014305,81483.212,81484.79999995232,81499.499,84449.297,8,400,,,
trial,html.Screen,4_11_0,2023-10-31T02:51:22.329Z,,0,1,,3632.803000143045,response,ISIC_7740023.JPG,5,ISIC_0026882.JPG,ISIC_0026882.JPG,false,0,keypress(z),500,88082.29999995232,88082.10000014305,84416.009,84432.40000009537,84449.297,88099.149,8,400,12,,ISIC_7740023.JPG
break,html.Screen,4_11_1,2023-10-31T02:51:22.329Z,,0,,,NaN,,,,,,false,,,,88083,88082.90000009537,,88082.5,,88099.149,8,400,,,
break_continue,html.Screen,4_11_2,2023-10-31T02:51:22.330Z,,0,,,NaN,,,,,,false,,,,88083.40000009537,88083.20000004768,,88083.10000014305,,88099.149,8,400,,,
sequence,flow.Sequence,4_11,2023-10-31T02:51:22.330Z,,0,,,3633.903000047678,completion,,,,,false,,,,88083.40000009537,88083.20000004768,84416.009,84432.40000009537,84449.297,88099.149,8,400,,,
trial,html.Screen,4_12_0,2023-10-31T02:51:25.067Z,,0,1,,2721.6509999523114,response,ISIC_0064124.JPG,5,ISIC_0032858.JPG,ISIC_0064124.JPG,false,1,keypress(m),500,90821,90820.79999995232,88082.59,88083.5,88099.149,90832.41,8,400,13,,ISIC_0032858.JPG
break,html.Screen,4_12_1,2023-10-31T02:51:25.068Z,,0,,,NaN,,,,,,false,,,,90821.70000004768,90821.60000014305,,90821.20000004768,,90832.41,8,400,,,
break_continue,html.Screen,4_12_2,2023-10-31T02:51:25.068Z,,0,,,NaN,,,,,,false,,,,90822,90822,,90821.90000009537,,90832.41,8,400,,,
sequence,flow.Sequence,4_12,2023-10-31T02:51:25.068Z,,0,,,2722.850999999995,completion,,,,,false,,,,90822.10000014305,90822,88082.59,88083.5,88099.149,90832.41,8,400,,,
trial,html.Screen,4_13_0,2023-10-31T02:51:28.366Z,,0,1,,3287.29000004768,response,ISIC_0067857.JPG,5,ISIC_0062389.JPG,ISIC_0062389.JPG,false,0,keypress(z),500,94119.90000009537,94119.70000004768,90815.335,90822.20000004768,90832.41,94132.145,8,400,14,,ISIC_0067857.JPG
break,html.Screen,4_13_1,2023-10-31T02:51:28.367Z,,0,,,NaN,,,,,,false,,,,94120.70000004768,94120.5,,94120.10000014305,,94132.145,8,400,,,
break_continue,html.Screen,4_13_2,2023-10-31T02:51:28.367Z,,0,,,NaN,,,,,,false,,,,94121,94120.90000009537,,94120.79999995232,,94132.145,8,400,,,
sequence,flow.Sequence,4_13,2023-10-31T02:51:28.367Z,,0,,,3288.490000095364,completion,,,,,false,,,,94121.10000014305,94120.90000009537,90815.335,90822.20000004768,90832.41,94132.145,8,400,,,
trial,html.Screen,4_14_0,2023-10-31T02:51:31.074Z,,0,1,,2695.455000143047,response,ISIC_0028874.JPG,5,ISIC_0010982.JPG,ISIC_0028874.JPG,false,1,keypress(m),500,96827.79999995232,96827.60000014305,94115.826,94121.29999995232,94132.145,96831.816,8,400,15,,ISIC_0010982.JPG
break,html.Screen,4_14_1,2023-10-31T02:51:31.075Z,,0,,,NaN,,,,,,false,,,,96828.60000014305,96828.5,,96828,,96831.816,8,400,,,
break_continue,html.Screen,4_14_2,2023-10-31T02:51:31.075Z,,0,,,NaN,,,,,,false,,,,96828.90000009537,96828.79999995232,,96828.70000004768,,96831.816,8,400,,,
sequence,flow.Sequence,4_14,2023-10-31T02:51:31.075Z,,0,,,2696.654999952312,completion,,,,,false,,,,96829,96828.79999995232,94115.826,94121.20000004768,94132.145,96831.816,8,400,,,
trial,html.Screen,4_15_0,2023-10-31T02:51:33.942Z,,0,1,,2863.784000143045,response,ISIC_0065013.JPG,5,ISIC_0057199.JPG,ISIC_0065013.JPG,false,1,keypress(m),500,99695.79999995232,99695.60000014305,96815.014,96829.10000014305,96831.816,99698.564,8,400,16,,ISIC_0057199.JPG
break,html.Screen,4_15_1,2023-10-31T02:51:33.943Z,,0,,,NaN,,,,,,false,,,,99696.5,99696.40000009537,,99696,,99698.564,8,400,,,
break_continue,html.Screen,4_15_2,2023-10-31T02:51:33.943Z,,0,,,NaN,,,,,,false,,,,99696.79999995232,99696.79999995232,,99696.60000014305,,99698.564,8,400,,,
sequence,flow.Sequence,4_15,2023-10-31T02:51:33.943Z,,0,,,2864.98399995231,completion,,,,,false,,,,99697,99696.79999995232,96815.014,96829.10000014305,96831.816,99698.564,8,400,,,
trial,html.Screen,4_16_0,2023-10-31T02:51:37.337Z,,0,1,,3392.235999952318,response,ISIC_3495799.JPG,5,ISIC_0953675.JPG,ISIC_0953675.JPG,false,0,keypress(z),500,103091.10000014305,103090.79999995232,99682.136,99697.10000014305,99698.564,103098.258,8,400,17,,ISIC_3495799.JPG
break,html.Screen,4_16_1,2023-10-31T02:51:37.338Z,,0,,,NaN,,,,,,false,,,,103091.79999995232,103091.70000004768,,103091.20000004768,,103098.258,8,400,,,
break_continue,html.Screen,4_16_2,2023-10-31T02:51:37.338Z,,0,,,NaN,,,,,,false,,,,103092.20000004768,103092.10000014305,,103091.90000009537,,103098.258,8,400,,,
sequence,flow.Sequence,4_16,2023-10-31T02:51:37.339Z,,0,,,3393.5360001430527,completion,,,,,false,,,,103092.29999995232,103092.10000014305,99682.136,99697.10000014305,99698.564,103098.258,8,400,,,
trial,html.Screen,4_17_0,2023-10-31T02:51:41.612Z,,0,1,,4267.8420001430495,response,ISIC_8389650.JPG,5,ISIC_3556980.JPG,ISIC_3556980.JPG,false,0,keypress(z),500,107366.29999995232,107366.10000014305,103081.566,103092.5,103098.258,107381.583,8,400,18,,ISIC_8389650.JPG
break,html.Screen,4_17_1,2023-10-31T02:51:41.613Z,,0,,,NaN,,,,,,false,,,,107366.5,107366.40000009537,,107366.29999995232,,107381.583,8,400,,,
break_continue,html.Screen,4_17_2,2023-10-31T02:51:41.613Z,,0,,,NaN,,,,,,false,,,,107366.60000014305,107366.60000014305,,107366.60000014305,,107381.583,8,400,,,
sequence,flow.Sequence,4_17,2023-10-31T02:51:41.613Z,,0,,,4268.3420001430495,completion,,,,,false,,,,107366.60000014305,107366.60000014305,103081.566,103092.40000009537,103098.258,107381.583,8,400,,,
trial,html.Screen,4_18_0,2023-10-31T02:51:44.991Z,,0,1,,3362.617000047685,response,ISIC_6683370.JPG,5,ISIC_4801737.JPG,ISIC_6683370.JPG,false,1,keypress(m),500,110744.29999995232,110744.20000004768,107365.179,107366.70000004768,107381.583,110748.055,8,400,19,,ISIC_4801737.JPG
break,html.Screen,4_18_1,2023-10-31T02:51:44.992Z,,0,,,NaN,,,,,,false,,,,110745.29999995232,110745.10000014305,,110744.5,,110748.055,8,400,,,
break_continue,html.Screen,4_18_2,2023-10-31T02:51:44.992Z,,0,,,NaN,,,,,,false,,,,110745.60000014305,110745.60000014305,,110745.40000009537,,110748.055,8,400,,,
sequence,flow.Sequence,4_18,2023-10-31T02:51:44.992Z,,0,,,3364.0170001430524,completion,,,,,false,,,,110745.79999995232,110745.60000014305,107365.179,107366.70000004768,107381.583,110748.055,8,400,,,
trial,html.Screen,4_19_0,2023-10-31T02:51:47.650Z,,0,1,,2655.2449999523233,response,ISIC_7670304.JPG,4,ISIC_0033233.JPG,ISIC_0033233.JPG,false,0,keypress(z),500,113403.5,113403.29999995232,110731.665,110745.90000009537,110748.055,113414.665,8,400,20,,ISIC_7670304.JPG
break,html.Screen,4_19_1,2023-10-31T02:51:47.651Z,,0,,,NaN,,,,,,false,,,,113404.29999995232,113404.10000014305,,113403.70000004768,,113414.665,8,400,,,
break_continue,html.Screen,4_19_2,2023-10-31T02:51:47.651Z,,0,,,NaN,,,,,,false,,,,113404.60000014305,113404.5,,113404.40000009537,,113414.665,8,400,,,
sequence,flow.Sequence,4_19,2023-10-31T02:51:47.651Z,,0,,,2656.445000000007,completion,,,,,false,,,,113404.79999995232,113404.5,110731.665,110745.90000009537,110748.055,113414.665,8,400,,,
trial,html.Screen,4_20_0,2023-10-31T02:51:51.206Z,,0,1,,3544.9350001430576,response,ISIC_6155981.JPG,4,ISIC_5679942.JPG,ISIC_5679942.JPG,false,0,keypress(z),500,116959.79999995232,116959.60000014305,113398.112,113404.79999995232,113414.665,116964.378,8,400,21,,ISIC_6155981.JPG
break,html.Screen,4_20_1,2023-10-31T02:51:51.207Z,,0,,,NaN,,,,,,false,,,,116960.60000014305,116960.40000009537,,116959.90000009537,,116964.378,8,400,,,
break_continue,html.Screen,4_20_2,2023-10-31T02:51:51.207Z,,0,,,NaN,,,,,,false,,,,116960.79999995232,116960.79999995232,,116960.70000004768,,116964.378,8,400,,,
sequence,flow.Sequence,4_20,2023-10-31T02:51:51.207Z,,0,,,3546.1349999523227,completion,,,,,false,,,,116961,116960.79999995232,113398.112,113404.79999995232,113414.665,116964.378,8,400,,,
trial,html.Screen,4_21_0,2023-10-31T02:51:54.537Z,,0,1,,3326.5220000953705,response,ISIC_2129020.JPG,5,ISIC_0008630.JPG,ISIC_2129020.JPG,false,1,keypress(m),500,120291.10000014305,120290.90000009537,116947.667,116961.10000014305,116964.378,120297.466,8,400,22,,ISIC_0008630.JPG
break,html.Screen,4_21_1,2023-10-31T02:51:54.538Z,,0,,,NaN,,,,,,false,,,,120291.79999995232,120291.70000004768,,120291.29999995232,,120297.466,8,400,,,
break_continue,html.Screen,4_21_2,2023-10-31T02:51:54.538Z,,0,,,NaN,,,,,,false,,,,120292.29999995232,120292.10000014305,,120292,,120297.466,8,400,,,
sequence,flow.Sequence,4_21,2023-10-31T02:51:54.539Z,,0,,,3327.722000143054,completion,,,,,false,,,,120292.40000009537,120292.10000014305,116947.667,116961,116964.378,120297.466,8,400,,,
trial,html.Screen,4_22_0,2023-10-31T02:51:57.597Z,,0,1,,3053.333999952316,response,ISIC_0028175.JPG,5,ISIC_0014684.JPG,ISIC_0028175.JPG,false,1,keypress(m),500,123351,123350.79999995232,120281.341,120292.5,120297.466,123380.682,8,400,23,,ISIC_0014684.JPG
break,html.Screen,4_22_1,2023-10-31T02:51:57.598Z,,0,,,NaN,,,,,,false,,,,123351.70000004768,123351.60000014305,,123351.20000004768,,123380.682,8,400,,,
break_continue,html.Screen,4_22_2,2023-10-31T02:51:57.598Z,,0,,,NaN,,,,,,false,,,,123352,123352,,123351.79999995232,,123380.682,8,400,,,
sequence,flow.Sequence,4_22,2023-10-31T02:51:57.598Z,,0,,,3054.5339999999997,completion,,,,,false,,,,123352.10000014305,123352,120281.341,120292.5,120297.466,123380.682,8,400,,,
trial,html.Screen,4_23_0,2023-10-31T02:52:00.354Z,,0,1,,2726.518000047683,response,ISIC_0032861.JPG,6,ISIC_1932064.JPG,ISIC_1932064.JPG,false,0,keypress(z),500,126107.40000009537,126107.20000004768,123364.001,123352.20000004768,123380.682,126113.881,8,400,24,,ISIC_0032861.JPG
break,html.Screen,4_23_1,2023-10-31T02:52:00.354Z,,0,,,NaN,,,,,,false,,,,126108.10000014305,126107.90000009537,,126107.60000014305,,126113.881,8,400,,,
break_continue,html.Screen,4_23_2,2023-10-31T02:52:00.355Z,,0,,,NaN,,,,,,false,,,,126108.29999995232,126108.29999995232,,126108.20000004768,,126113.881,8,400,,,
sequence,flow.Sequence,4_23,2023-10-31T02:52:00.355Z,,0,,,2727.6179999523156,completion,,,,,false,,,,126108.5,126108.29999995232,123364.001,123352.20000004768,123380.682,126113.881,8,400,,,
trial,html.Screen,4_24_0,2023-10-31T02:52:03.909Z,,0,1,,3548.4189999523223,response,ISIC_0504730.JPG,6,ISIC_0071132.JPG,ISIC_0071132.JPG,false,0,keypress(z),500,129662.5,129662.29999995232,126097.62,126108.60000014305,126113.881,129680.512,8,400,25,,ISIC_0504730.JPG
break,html.Screen,4_24_1,2023-10-31T02:52:03.909Z,,0,,,NaN,,,,,,false,,,,129663.29999995232,129663.20000004768,,129662.70000004768,,129680.512,8,400,,,
break_continue,html.Screen,4_24_2,2023-10-31T02:52:03.910Z,,0,,,NaN,,,,,,false,,,,129663.60000014305,129663.5,,129663.40000009537,,129680.512,8,400,,,
sequence,flow.Sequence,4_24,2023-10-31T02:52:03.910Z,,0,,,3549.619000000006,completion,,,,,false,,,,129663.70000004768,129663.5,126097.62,126108.5,126113.881,129680.512,8,400,,,
trial,html.Screen,4_25_0,2023-10-31T02:52:09.271Z,,0,1,,5344.588000143049,response,ISIC_6978997.JPG,4,ISIC_4451735.JPG,ISIC_6978997.JPG,false,1,keypress(m),500,135025.20000004768,135025.10000014305,129647.174,129663.79999995232,129680.512,135030.02,8,400,26,,ISIC_4451735.JPG
break,html.Screen,4_25_1,2023-10-31T02:52:09.272Z,,0,,,NaN,,,,,,false,,,,135025.90000009537,135025.70000004768,,135025.40000009537,,135030.02,8,400,,,
break_continue,html.Screen,4_25_2,2023-10-31T02:52:09.272Z,,0,,,NaN,,,,,,false,,,,135026.10000014305,135026.10000014305,,135026,,135030.02,8,400,,,
sequence,flow.Sequence,4_25,2023-10-31T02:52:09.272Z,,0,,,5345.588000143049,completion,,,,,false,,,,135026.20000004768,135026.10000014305,129647.174,129663.79999995232,129680.512,135030.02,8,400,,,
trial,html.Screen,4_26_0,2023-10-31T02:52:13.530Z,,0,1,,4253.880000095378,response,ISIC_1396767.JPG,4,ISIC_0682543.JPG,ISIC_0682543.JPG,false,0,keypress(z),500,139284.10000014305,139283.90000009537,135013.327,135026.29999995232,135030.02,139296.556,8,400,27,,ISIC_1396767.JPG
break,html.Screen,4_26_1,2023-10-31T02:52:13.531Z,,0,,,NaN,,,,,,false,,,,139284.90000009537,139284.70000004768,,139284.29999995232,,139296.556,8,400,,,
break_continue,html.Screen,4_26_2,2023-10-31T02:52:13.531Z,,0,,,NaN,,,,,,false,,,,139285.29999995232,139285.20000004768,,139285,,139296.556,8,400,,,
sequence,flow.Sequence,4_26,2023-10-31T02:52:13.532Z,,0,,,4255.180000047694,completion,,,,,false,,,,139285.29999995232,139285.20000004768,135013.327,135026.29999995232,135030.02,139296.556,8,400,,,
trial,html.Screen,4_27_0,2023-10-31T02:52:17.151Z,,0,1,,3607.743999952305,response,ISIC_2206284.JPG,5,ISIC_5333058.JPG,ISIC_2206284.JPG,false,1,keypress(m),500,142904.60000014305,142904.29999995232,139280.563,139285.5,139296.556,142913.128,8,400,28,,ISIC_5333058.JPG
break,html.Screen,4_27_1,2023-10-31T02:52:17.151Z,,0,,,NaN,,,,,,false,,,,142905.29999995232,142905.10000014305,,142904.70000004768,,142913.128,8,400,,,
break_continue,html.Screen,4_27_2,2023-10-31T02:52:17.152Z,,0,,,NaN,,,,,,false,,,,142905.60000014305,142905.5,,142905.29999995232,,142913.128,8,400,,,
sequence,flow.Sequence,4_27,2023-10-31T02:52:17.153Z,,0,,,3608.9439999999886,completion,,,,,false,,,,142906.60000014305,142905.5,139280.563,139285.40000009537,139296.556,142913.128,8,400,,,
trial,html.Screen,4_28_0,2023-10-31T02:52:22.195Z,,0,1,,5035.671999952319,response,ISIC_0071208.JPG,6,ISIC_2799447.JPG,ISIC_2799447.JPG,false,0,keypress(z),500,147949,147948.79999995232,142896.465,142906.70000004768,142913.128,147963.028,8,400,29,,ISIC_0071208.JPG
break,html.Screen,4_28_1,2023-10-31T02:52:22.196Z,,0,,,NaN,,,,,,false,,,,147949.90000009537,147949.70000004768,,147949.29999995232,,147963.028,8,400,,,
break_continue,html.Screen,4_28_2,2023-10-31T02:52:22.196Z,,0,,,NaN,,,,,,false,,,,147950.29999995232,147950.10000014305,,147950,,147963.028,8,400,,,
sequence,flow.Sequence,4_28,2023-10-31T02:52:22.197Z,,0,,,5036.972000143054,completion,,,,,false,,,,147950.40000009537,147950.10000014305,142896.465,142906.70000004768,142913.128,147963.028,8,400,,,
trial,html.Screen,4_29_0,2023-10-31T02:52:25.574Z,,0,1,,3364.6720000476926,response,ISIC_5573566.JPG,5,ISIC_0066564.JPG,ISIC_5573566.JPG,false,1,keypress(m),500,151328,151327.70000004768,147946.531,147950.40000009537,147963.028,151347.224,8,400,30,,ISIC_0066564.JPG
break,html.Screen,4_29_1,2023-10-31T02:52:25.575Z,,0,,,NaN,,,,,,false,,,,151328.70000004768,151328.5,,151328.20000004768,,151347.224,8,400,,,
break_continue,html.Screen,4_29_2,2023-10-31T02:52:25.575Z,,0,,,NaN,,,,,,false,,,,151329,151328.90000009537,,151328.79999995232,,151347.224,8,400,,,
sequence,flow.Sequence,4_29,2023-10-31T02:52:25.575Z,,0,,,3365.8720000953763,completion,,,,,false,,,,151329.10000014305,151328.90000009537,147946.531,147950.40000009537,147963.028,151347.224,8,400,,,
trial,html.Screen,4_30_0,2023-10-31T02:52:29.849Z,,0,1,,4255.876000143064,response,ISIC_0257447.JPG,5,ISIC_0062709.JPG,ISIC_0257447.JPG,false,1,keypress(m),500,155603.20000004768,155603.10000014305,151313.08,151329.20000004768,151347.224,155612.553,8,400,31,,ISIC_0062709.JPG
break,html.Screen,4_30_1,2023-10-31T02:52:29.850Z,,0,,,NaN,,,,,,false,,,,155604,155603.90000009537,,155603.40000009537,,155612.553,8,400,,,
break_continue,html.Screen,4_30_2,2023-10-31T02:52:29.851Z,,0,,,NaN,,,,,,false,,,,155604.29999995232,155604.29999995232,,155604.20000004768,,155612.553,8,400,,,
sequence,flow.Sequence,4_30,2023-10-31T02:52:29.851Z,,0,,,4257.075999952329,completion,,,,,false,,,,155604.5,155604.29999995232,151313.08,151329.10000014305,151347.224,155612.553,8,400,,,
trial,html.Screen,4_31_0,2023-10-31T02:52:33.213Z,,0,1,,3353.9469999999856,response,ISIC_9590080.JPG,5,ISIC_2253931.JPG,ISIC_2253931.JPG,false,0,keypress(z),500,158966.79999995232,158966.5,155595.81,155604.60000014305,155612.553,158979.292,8,400,32,,ISIC_9590080.JPG
break,html.Screen,4_31_1,2023-10-31T02:52:33.214Z,,0,,,NaN,,,,,,false,,,,158967.5,158967.40000009537,,158966.90000009537,,158979.292,8,400,,,
break_continue,html.Screen,4_31_2,2023-10-31T02:52:33.214Z,,0,,,NaN,,,,,,false,,,,158967.90000009537,158967.79999995232,,158967.70000004768,,158979.292,8,400,,,
sequence,flow.Sequence,4_31,2023-10-31T02:52:33.214Z,,0,,,3355.246999952302,completion,,,,,false,,,,158968,158967.79999995232,155595.81,155604.60000014305,155612.553,158979.292,8,400,,,
trial,html.Screen,4_32_0,2023-10-31T02:52:38.753Z,,0,1,,5526.308000143064,response,ISIC_0067564.JPG,4,ISIC_0064877.JPG,ISIC_0067564.JPG,false,1,keypress(m),500,164506.70000004768,164505.60000014305,158962.655,158968.10000014305,158979.292,164511.98,8,400,33,,ISIC_0064877.JPG
break,html.Screen,4_32_1,2023-10-31T02:52:38.754Z,,0,,,NaN,,,,,,false,,,,164507.60000014305,164507.40000009537,,164507,,164511.98,8,400,,,
break_continue,html.Screen,4_32_2,2023-10-31T02:52:38.754Z,,0,,,NaN,,,,,,false,,,,164507.79999995232,164507.70000004768,,164507.60000014305,,164511.98,8,400,,,
sequence,flow.Sequence,4_32,2023-10-31T02:52:38.754Z,,0,,,5528.408000047697,completion,,,,,false,,,,164507.90000009537,164507.70000004768,158962.655,158968.10000014305,158979.292,164511.98,8,400,,,
trial,html.Screen,4_33_0,2023-10-31T02:52:41.812Z,,0,1,,3053.420000095357,response,ISIC_0032094.JPG,4,ISIC_9175856.JPG,ISIC_9175856.JPG,false,0,keypress(z),500,167565.60000014305,167565.40000009537,164495.593,164508.10000014305,164511.98,167578.888,8,400,34,,ISIC_0032094.JPG
break,html.Screen,4_33_1,2023-10-31T02:52:41.813Z,,0,,,NaN,,,,,,false,,,,167566.29999995232,167566.20000004768,,167565.70000004768,,167578.888,8,400,,,
break_continue,html.Screen,4_33_2,2023-10-31T02:52:41.813Z,,0,,,NaN,,,,,,false,,,,167566.60000014305,167566.5,,167566.40000009537,,167578.888,8,400,,,
sequence,flow.Sequence,4_33,2023-10-31T02:52:41.813Z,,0,,,3054.5199999999895,completion,,,,,false,,,,167566.70000004768,167566.5,164495.593,164508,164511.98,167578.888,8,400,,,
trial,html.Screen,4_34_0,2023-10-31T02:52:44.855Z,,0,1,,3030.1119999999937,response,ISIC_6383486.JPG,4,ISIC_0000179.JPG,ISIC_6383486.JPG,false,1,keypress(m),500,170609.20000004768,170609,167562.169,167566.79999995232,167578.888,170611.826,8,400,35,,ISIC_0000179.JPG
break,html.Screen,4_34_1,2023-10-31T02:52:44.856Z,,0,,,NaN,,,,,,false,,,,170609.90000009537,170609.79999995232,,170609.40000009537,,170611.826,8,400,,,
break_continue,html.Screen,4_34_2,2023-10-31T02:52:44.856Z,,0,,,NaN,,,,,,false,,,,170610.29999995232,170610.10000014305,,170610,,170611.826,8,400,,,
sequence,flow.Sequence,4_34,2023-10-31T02:52:44.857Z,,0,,,3031.212000143045,completion,,,,,false,,,,170610.29999995232,170610.10000014305,167562.169,167566.79999995232,167578.888,170611.826,8,400,,,
trial,html.Screen,4_35_0,2023-10-31T02:52:47.530Z,,0,1,,2672.173999999999,response,ISIC_0060589.JPG,5,ISIC_8922893.JPG,ISIC_8922893.JPG,false,0,keypress(z),500,173284.29999995232,173284,170595.293,170610.40000009537,170611.826,173294.965,8,400,36,,ISIC_0060589.JPG
break,html.Screen,4_35_1,2023-10-31T02:52:47.531Z,,0,,,NaN,,,,,,false,,,,173285.10000014305,173284.90000009537,,173284.40000009537,,173294.965,8,400,,,
break_continue,html.Screen,4_35_2,2023-10-31T02:52:47.532Z,,0,,,NaN,,,,,,false,,,,173285.40000009537,173285.29999995232,,173285.20000004768,,173294.965,8,400,,,
sequence,flow.Sequence,4_35,2023-10-31T02:52:47.532Z,,0,,,2673.4739999523154,completion,,,,,false,,,,173285.60000014305,173285.29999995232,170595.293,170610.40000009537,170611.826,173294.965,8,400,,,
trial,html.Screen,4_36_0,2023-10-31T02:52:50.253Z,,0,1,,2712.0350000000035,response,ISIC_0027432.JPG,5,ISIC_0031104.JPG,ISIC_0027432.JPG,false,1,keypress(m),500,176007.10000014305,176007,173278.291,173285.70000004768,173294.965,176011.583,8,400,37,,ISIC_0031104.JPG
break,html.Screen,4_36_1,2023-10-31T02:52:50.254Z,,0,,,NaN,,,,,,false,,,,176007.5,176007.5,,176007.10000014305,,176011.583,8,400,,,
break_continue,html.Screen,4_36_2,2023-10-31T02:52:50.254Z,,0,,,NaN,,,,,,false,,,,176007.70000004768,176007.70000004768,,176007.60000014305,,176011.583,8,400,,,
sequence,flow.Sequence,4_36,2023-10-31T02:52:50.254Z,,0,,,2712.735000047687,completion,,,,,false,,,,176007.79999995232,176007.70000004768,173278.291,173285.70000004768,173294.965,176011.583,8,400,,,
trial,html.Screen,4_37_0,2023-10-31T02:52:53.247Z,,0,1,,2989.017000143038,response,ISIC_1819358.JPG,5,ISIC_5281762.JPG,ISIC_5281762.JPG,false,0,keypress(z),500,179000.90000009537,179000.60000014305,175995.024,176007.79999995232,176011.583,179011.608,8,400,38,,ISIC_1819358.JPG
break,html.Screen,4_37_1,2023-10-31T02:52:53.248Z,,0,,,NaN,,,,,,false,,,,179001.60000014305,179001.5,,179001,,179011.608,8,400,,,
break_continue,html.Screen,4_37_2,2023-10-31T02:52:53.248Z,,0,,,NaN,,,,,,false,,,,179001.90000009537,179001.79999995232,,179001.70000004768,,179011.608,8,400,,,
sequence,flow.Sequence,4_37,2023-10-31T02:52:53.248Z,,0,,,2990.216999952303,completion,,,,,false,,,,179002.10000014305,179001.79999995232,175995.024,176007.79999995232,176011.583,179011.608,8,400,,,
trial,html.Screen,4_38_0,2023-10-31T02:52:56.098Z,,0,1,,2840.29200009536,response,ISIC_0032396.JPG,5,ISIC_1308649.JPG,ISIC_1308649.JPG,false,0,keypress(z),500,181852.10000014305,181851.90000009537,178994.882,179002.20000004768,179011.608,181861.215,8,400,39,,ISIC_0032396.JPG
break,html.Screen,4_38_1,2023-10-31T02:52:56.099Z,,0,,,NaN,,,,,,false,,,,181852.79999995232,181852.70000004768,,181852.20000004768,,181861.215,8,400,,,
break_continue,html.Screen,4_38_2,2023-10-31T02:52:56.099Z,,0,,,NaN,,,,,,false,,,,181853.10000014305,181853.10000014305,,181853,,181861.215,8,400,,,
sequence,flow.Sequence,4_38,2023-10-31T02:52:56.099Z,,0,,,2841.4920001430437,completion,,,,,false,,,,181853.20000004768,181853.10000014305,178994.882,179002.20000004768,179011.608,181861.215,8,400,,,
trial,html.Screen,4_39_0,2023-10-31T02:52:58.885Z,,0,1,,2777.7850000000035,response,ISIC_5909451.JPG,5,ISIC_0054973.JPG,ISIC_5909451.JPG,false,1,keypress(m),500,184639.10000014305,184639,181844.897,181853.29999995232,181861.215,184644.363,8,400,40,,ISIC_0054973.JPG
break,html.Screen,4_39_1,2023-10-31T02:52:58.886Z,,0,,,NaN,,,,,,false,,,,184639.5,184639.5,,184639.29999995232,,184644.363,8,400,,,
break_continue,html.Screen,4_39_2,2023-10-31T02:52:58.886Z,,0,,,NaN,,,,,,false,,,,184639.70000004768,184639.60000014305,,184639.60000014305,,184644.363,8,400,,,
sequence,flow.Sequence,4_39,2023-10-31T02:52:58.886Z,,0,,,2778.3850001430546,completion,,,,,false,,,,184639.70000004768,184639.60000014305,181844.897,181853.29999995232,181861.215,184644.363,8,400,,,
trial,html.Screen,4_40_0,2023-10-31T02:53:01.480Z,,0,1,,2588.8370000476716,response,ISIC_0054528.JPG,7,ISIC_0008945.JPG,ISIC_0008945.JPG,false,0,keypress(z),500,187233.40000009537,187233.20000004768,184627.941,184639.79999995232,184644.363,187244.252,8,400,41,,ISIC_0054528.JPG
break,html.Screen,4_40_1,2023-10-31T02:53:01.480Z,,0,,,NaN,,,,,,false,,,,187234.20000004768,187234,,187233.5,,187244.252,8,400,,,
break_continue,html.Screen,4_40_2,2023-10-31T02:53:01.481Z,,0,,,NaN,,,,,,false,,,,187234.5,187234.40000009537,,187234.29999995232,,187244.252,8,400,,,
sequence,flow.Sequence,4_40,2023-10-31T02:53:01.481Z,,0,,,2590.0370000953553,completion,,,,,false,,,,187234.60000014305,187234.40000009537,184627.941,184639.79999995232,184644.363,187244.252,8,400,,,
trial,html.Screen,4_41_0,2023-10-31T02:53:04.411Z,,0,1,,2920.3480001430435,response,ISIC_0030087.JPG,4,ISIC_9947369.JPG,ISIC_9947369.JPG,false,0,keypress(z),500,190164.79999995232,190164.60000014305,187227.927,187234.79999995232,187244.252,190177.506,8,400,42,,ISIC_0030087.JPG
break,html.Screen,4_41_1,2023-10-31T02:53:04.412Z,,0,,,NaN,,,,,,false,,,,190165.5,190165.40000009537,,190165,,190177.506,8,400,,,
break_continue,html.Screen,4_41_2,2023-10-31T02:53:04.412Z,,0,,,NaN,,,,,,false,,,,190165.79999995232,190165.79999995232,,190165.70000004768,,190177.506,8,400,,,
sequence,flow.Sequence,4_41,2023-10-31T02:53:04.412Z,,0,,,2921.5479999523086,completion,,,,,false,,,,190166,190165.79999995232,187227.927,187234.79999995232,187244.252,190177.506,8,400,,,
trial,html.Screen,4_42_0,2023-10-31T02:53:07.582Z,,0,1,,3157.6940000476898,response,ISIC_0009006.JPG,4,ISIC_1961064.JPG,ISIC_0009006.JPG,false,1,keypress(m),500,193335.5,193335.20000004768,190161.326,190166.10000014305,190177.506,193344.107,8,400,43,,ISIC_1961064.JPG
break,html.Screen,4_42_1,2023-10-31T02:53:07.582Z,,0,,,NaN,,,,,,false,,,,193336.20000004768,193336,,193335.70000004768,,193344.107,8,400,,,
break_continue,html.Screen,4_42_2,2023-10-31T02:53:07.583Z,,0,,,NaN,,,,,,false,,,,193336.5,193336.5,,193336.29999995232,,193344.107,8,400,,,
sequence,flow.Sequence,4_42,2023-10-31T02:53:07.583Z,,0,,,3158.994000000006,completion,,,,,false,,,,193336.70000004768,193336.5,190161.326,190166.10000014305,190177.506,193344.107,8,400,,,
trial,html.Screen,4_43_0,2023-10-31T02:53:10.817Z,,0,1,,3226.192999952327,response,ISIC_0033968.JPG,5,ISIC_0010316.JPG,ISIC_0010316.JPG,false,0,keypress(z),500,196570.60000014305,196570.29999995232,193327.599,193336.79999995232,193344.107,196577.214,8,400,44,,ISIC_0033968.JPG
break,html.Screen,4_43_1,2023-10-31T02:53:10.817Z,,0,,,NaN,,,,,,false,,,,196571.29999995232,196571.20000004768,,196570.70000004768,,196577.214,8,400,,,
break_continue,html.Screen,4_43_2,2023-10-31T02:53:10.818Z,,0,,,NaN,,,,,,false,,,,196571.70000004768,196571.60000014305,,196571.40000009537,,196577.214,8,400,,,
sequence,flow.Sequence,4_43,2023-10-31T02:53:10.818Z,,0,,,3227.493000143062,completion,,,,,false,,,,196571.79999995232,196571.60000014305,193327.599,193336.79999995232,193344.107,196577.214,8,400,,,
trial,html.Screen,4_44_0,2023-10-31T02:53:13.476Z,,0,1,,2652.386000143044,response,ISIC_7696538.JPG,4,ISIC_7587513.JPG,ISIC_7587513.JPG,false,0,keypress(z),500,199229.90000009537,199229.60000014305,196561.12,196572,196577.214,199244.033,8,400,45,,ISIC_7696538.JPG
break,html.Screen,4_44_1,2023-10-31T02:53:13.477Z,,0,,,NaN,,,,,,false,,,,199230.70000004768,199230.5,,199230,,199244.033,8,400,,,
break_continue,html.Screen,4_44_2,2023-10-31T02:53:13.477Z,,0,,,NaN,,,,,,false,,,,199231,199230.90000009537,,199230.79999995232,,199244.033,8,400,,,
sequence,flow.Sequence,4_44,2023-10-31T02:53:13.477Z,,0,,,2653.68600009536,completion,,,,,false,,,,199231.20000004768,199230.90000009537,196561.12,196572,196577.214,199244.033,8,400,,,
trial,html.Screen,4_45_0,2023-10-31T02:53:16.136Z,,0,1,,2645.5670001430553,response,ISIC_4787403.JPG,5,ISIC_0000040.JPG,ISIC_4787403.JPG,false,1,keypress(m),500,201889.90000009537,201889.60000014305,199227.402,199231.29999995232,199244.033,201893.637,8,400,46,,ISIC_0000040.JPG
break,html.Screen,4_45_1,2023-10-31T02:53:16.137Z,,0,,,NaN,,,,,,false,,,,201890.70000004768,201890.5,,201890,,201893.637,8,400,,,
break_continue,html.Screen,4_45_2,2023-10-31T02:53:16.137Z,,0,,,NaN,,,,,,false,,,,201891,201890.90000009537,,201890.79999995232,,201893.637,8,400,,,
sequence,flow.Sequence,4_45,2023-10-31T02:53:16.137Z,,0,,,2646.8670000953716,completion,,,,,false,,,,201891.10000014305,201890.90000009537,199227.402,199231.29999995232,199244.033,201893.637,8,400,,,
trial,html.Screen,4_46_0,2023-10-31T02:53:19.371Z,,0,1,,3231.2630000953795,response,ISIC_7923008.JPG,4,ISIC_0222299.JPG,ISIC_7923008.JPG,false,1,keypress(m),500,205125.10000014305,205124.90000009537,201877.259,201891.20000004768,201893.637,205144.2,8,400,47,,ISIC_0222299.JPG
break,html.Screen,4_46_1,2023-10-31T02:53:19.372Z,,0,,,NaN,,,,,,false,,,,205125.79999995232,205125.70000004768,,205125.29999995232,,205144.2,8,400,,,
break_continue,html.Screen,4_46_2,2023-10-31T02:53:19.372Z,,0,,,NaN,,,,,,false,,,,205126.20000004768,205126.10000014305,,205125.90000009537,,205144.2,8,400,,,
sequence,flow.Sequence,4_46,2023-10-31T02:53:19.372Z,,0,,,3232.4630001430633,completion,,,,,false,,,,205126.29999995232,205126.10000014305,201877.259,201891.20000004768,201893.637,205144.2,8,400,,,
trial,html.Screen,4_47_0,2023-10-31T02:53:22.158Z,,0,1,,2767.7999999999884,response,ISIC_0072173.JPG,5,ISIC_5994007.JPG,ISIC_5994007.JPG,false,0,keypress(z),500,207912.29999995232,207912,205110.348,205126.40000009537,205144.2,207926.813,8,400,48,,ISIC_0072173.JPG
break,html.Screen,4_47_1,2023-10-31T02:53:22.159Z,,0,,,NaN,,,,,,false,,,,207913.10000014305,207912.90000009537,,207912.5,,207926.813,8,400,,,
break_continue,html.Screen,4_47_2,2023-10-31T02:53:22.160Z,,0,,,NaN,,,,,,false,,,,207913.40000009537,207913.29999995232,,207913.20000004768,,207926.813,8,400,,,
sequence,flow.Sequence,4_47,2023-10-31T02:53:22.160Z,,0,,,2769.0999999523046,completion,,,,,false,,,,207913.5,207913.29999995232,205110.348,205126.29999995232,205144.2,207926.813,8,400,,,
trial,html.Screen,4_48_0,2023-10-31T02:53:24.739Z,,0,1,,2565.387000047689,response,ISIC_0033845.JPG,6,ISIC_7397447.JPG,ISIC_7397447.JPG,false,0,keypress(z),500,210492.40000009537,210492.20000004768,207910.661,207913.60000014305,207926.813,210511.127,8,400,49,,ISIC_0033845.JPG
break,html.Screen,4_48_1,2023-10-31T02:53:24.739Z,,0,,,NaN,,,,,,false,,,,210492.79999995232,210492.70000004768,,210492.5,,210511.127,8,400,,,
break_continue,html.Screen,4_48_2,2023-10-31T02:53:24.739Z,,0,,,NaN,,,,,,false,,,,210492.90000009537,210492.79999995232,,210492.79999995232,,210511.127,8,400,,,
sequence,flow.Sequence,4_48,2023-10-31T02:53:24.739Z,,0,,,2565.9869999523216,completion,,,,,false,,,,210492.90000009537,210492.79999995232,207910.661,207913.60000014305,207926.813,210511.127,8,400,,,
trial,html.Screen,4_49_0,2023-10-31T02:53:27.301Z,,0,1,,2543.573000047676,response,ISIC_8562820.JPG,5,ISIC_0011488.JPG,ISIC_8562820.JPG,false,1,keypress(m),500,213054.90000009537,213054.70000004768,210476.902,210492.90000009537,210511.127,213059.746,8,400,50,,ISIC_0011488.JPG
break,html.Screen,4_49_1,2023-10-31T02:53:37.290Z,,0,,,9999.666999999987,timeout,,,,,false,,,,223044,223042.895,213043.241,213055.10000014305,213059.746,223059.413,8,400,,,
break_continue,html.Screen,4_49_2,2023-10-31T02:53:38.801Z,,0,,,1487.487000095367,response,,,,,false,continue,keypress(Space),,224554.60000014305,224546.90000009537,223042.895,223044.10000014305,223059.413,224559.198,8,400,,,
sequence,flow.Sequence,4_49,2023-10-31T02:53:38.801Z,,0,,,14035.77300009536,completion,,,,,false,,,,224554.70000004768,224546.90000009537,210476.902,210492.90000009537,210511.127,224559.198,8,400,,,
trial,html.Screen,4_50_0,2023-10-31T02:53:41.922Z,,0,2,,3117.0020000476798,response,ISIC_0069633.JPG,5,ISIC_0024792.JPG,ISIC_0069633.JPG,false,1,keypress(m),500,227676.29999995232,227676.20000004768,224542.896,224554.79999995232,224559.198,227692.737,8,400,1,,ISIC_0024792.JPG
break,html.Screen,4_50_1,2023-10-31T02:53:41.923Z,,0,,,NaN,,,,,,false,,,,227677.10000014305,227677,,227676.5,,227692.737,8,400,,,
break_continue,html.Screen,4_50_2,2023-10-31T02:53:41.924Z,,0,,,NaN,,,,,,false,,,,227677.5,227677.40000009537,,227677.29999995232,,227692.737,8,400,,,
sequence,flow.Sequence,4_50,2023-10-31T02:53:41.924Z,,0,,,3118.2020000953635,completion,,,,,false,,,,227677.60000014305,227677.40000009537,224542.896,224554.70000004768,224559.198,227692.737,8,400,,,
trial,html.Screen,4_51_0,2023-10-31T02:53:46.118Z,,0,2,,4178.663000095374,response,ISIC_0056740.JPG,5,ISIC_4658487.JPG,ISIC_4658487.JPG,false,0,keypress(z),500,231871.70000004768,231871.40000009537,227675.761,227677.70000004768,227692.737,231875.472,8,400,2,,ISIC_0056740.JPG
break,html.Screen,4_51_1,2023-10-31T02:53:46.119Z,,0,,,NaN,,,,,,false,,,,231872.40000009537,231872.20000004768,,231871.90000009537,,231875.472,8,400,,,
break_continue,html.Screen,4_51_2,2023-10-31T02:53:46.119Z,,0,,,NaN,,,,,,false,,,,231872.70000004768,231872.60000014305,,231872.5,,231875.472,8,400,,,
sequence,flow.Sequence,4_51,2023-10-31T02:53:46.119Z,,0,,,4179.863000143057,completion,,,,,false,,,,231872.90000009537,231872.60000014305,227675.761,227677.70000004768,227692.737,231875.472,8,400,,,
trial,html.Screen,4_52_0,2023-10-31T02:53:48.793Z,,0,2,,2671.228000047675,response,ISIC_3933658.JPG,4,ISIC_3274493.JPG,ISIC_3933658.JPG,false,1,keypress(m),500,234547,234546.70000004768,231859.007,231873.10000014305,231875.472,234558.872,8,400,3,,ISIC_3274493.JPG
break,html.Screen,4_52_1,2023-10-31T02:53:48.794Z,,0,,,NaN,,,,,,false,,,,234547.70000004768,234547.60000014305,,234547.10000014305,,234558.872,8,400,,,
break_continue,html.Screen,4_52_2,2023-10-31T02:53:48.794Z,,0,,,NaN,,,,,,false,,,,234548.10000014305,234547.90000009537,,234547.90000009537,,234558.872,8,400,,,
sequence,flow.Sequence,4_52,2023-10-31T02:53:48.794Z,,0,,,2672.4280000953586,completion,,,,,false,,,,234548.20000004768,234547.90000009537,231859.007,231873,231875.472,234558.872,8,400,,,
trial,html.Screen,4_53_0,2023-10-31T02:53:51.037Z,,0,2,,2231.4279999523133,response,ISIC_3501997.JPG,5,ISIC_0013778.JPG,ISIC_0013778.JPG,false,0,keypress(z),500,236790.5,236790.29999995232,234542.137,234548.29999995232,234558.872,236809.234,8,400,4,,ISIC_3501997.JPG
break,html.Screen,4_53_1,2023-10-31T02:53:51.037Z,,0,,,NaN,,,,,,false,,,,236791.29999995232,236791.10000014305,,236790.70000004768,,236809.234,8,400,,,
break_continue,html.Screen,4_53_2,2023-10-31T02:53:51.038Z,,0,,,NaN,,,,,,false,,,,236791.60000014305,236791.5,,236791.40000009537,,236809.234,8,400,,,
sequence,flow.Sequence,4_53,2023-10-31T02:53:51.038Z,,0,,,2232.627999999997,completion,,,,,false,,,,236791.79999995232,236791.5,234542.137,234548.20000004768,234558.872,236809.234,8,400,,,
trial,html.Screen,4_54_0,2023-10-31T02:53:53.711Z,,0,2,,2655.6660000953707,response,ISIC_0024702.JPG,5,ISIC_7017547.JPG,ISIC_7017547.JPG,false,0,keypress(z),500,239465.10000014305,239464.90000009537,236775.599,236791.79999995232,236809.234,239475.221,8,400,5,,ISIC_0024702.JPG
break,html.Screen,4_54_1,2023-10-31T02:53:53.711Z,,0,,,NaN,,,,,,false,,,,239465.40000009537,239465.29999995232,,239465.10000014305,,239475.221,8,400,,,
break_continue,html.Screen,4_54_2,2023-10-31T02:53:53.712Z,,0,,,NaN,,,,,,false,,,,239465.60000014305,239465.5,,239465.40000009537,,239475.221,8,400,,,
sequence,flow.Sequence,4_54,2023-10-31T02:53:53.712Z,,0,,,2656.2660000000033,completion,,,,,false,,,,239465.70000004768,239465.5,236775.599,236791.79999995232,236809.234,239475.221,8,400,,,
trial,html.Screen,4_55_0,2023-10-31T02:53:57.602Z,,0,2,,3880.578999952326,response,ISIC_1655513.JPG,6,ISIC_4201891.JPG,ISIC_1655513.JPG,false,1,keypress(m),500,243356,243355.79999995232,239458.55,239465.79999995232,239475.221,243376.402,8,400,6,,ISIC_4201891.JPG
break,html.Screen,4_55_1,2023-10-31T02:53:57.603Z,,0,,,NaN,,,,,,false,,,,243356.79999995232,243356.60000014305,,243356.20000004768,,243376.402,8,400,,,
break_continue,html.Screen,4_55_2,2023-10-31T02:53:57.604Z,,0,,,NaN,,,,,,false,,,,243357.20000004768,243357.10000014305,,243356.90000009537,,243376.402,8,400,,,
sequence,flow.Sequence,4_55,2023-10-31T02:53:57.604Z,,0,,,3881.8790001430607,completion,,,,,false,,,,243357.40000009537,243357.10000014305,239458.55,239465.79999995232,239475.221,243376.402,8,400,,,
trial,html.Screen,4_56_0,2023-10-31T02:54:09.754Z,,0,2,,46512.93300000002,timeout,ISIC_0031545.JPG,5,ISIC_0061566.JPG,,false,,,500,255507.5,255507.29999995232,243341.598,243357.5,243376.402,289889.335,8,400,7,,
break,html.Screen,4_56_1,2023-10-31T02:54:09.754Z,,0,,,NaN,,,,,,false,,,,255508.10000014305,255508,,255507.60000014305,,289889.335,8,400,,,
break_continue,html.Screen,4_56_2,2023-10-31T02:54:09.755Z,,0,,,NaN,,,,,,false,,,,255508.29999995232,255508.29999995232,,255508.20000004768,,289889.335,8,400,,,
sequence,flow.Sequence,4_56,2023-10-31T02:54:09.755Z,,0,,,12131.897999952314,completion,,,,,false,,,,255508.40000009537,255508.29999995232,243341.598,243357.40000009537,243376.402,289889.335,8,400,,,
trial,html.Screen,4_57_0,2023-10-31T02:54:46.235Z,,0,2,,2099.664999999979,response,ISIC_0000387.JPG,495,ISIC_0034237.JPG,ISIC_0000387.JPG,false,1,keypress(m),500,291989.2000000477,291989,289872.629,255508.40000009537,289889.335,292006.132,8,400,8,,ISIC_0034237.JPG
break,html.Screen,4_57_1,2023-10-31T02:54:46.236Z,,0,,,NaN,,,,,,false,,,,291990,291989.7999999523,,291989.40000009537,,292006.132,8,400,,,
break_continue,html.Screen,4_57_2,2023-10-31T02:54:46.237Z,,0,,,NaN,,,,,,false,,,,291990.2000000477,291990.2000000477,,291990.10000014305,,292006.132,8,400,,,
sequence,flow.Sequence,4_57,2023-10-31T02:54:46.237Z,,0,,,2100.8650000476628,completion,,,,,false,,,,291990.40000009537,291990.2000000477,289872.629,255508.40000009537,289889.335,292006.132,8,400,,,
trial,html.Screen,4_58_0,2023-10-31T02:54:50.814Z,,0,2,,4561.5680000477005,response,ISIC_6697013.JPG,6,ISIC_0034053.JPG,ISIC_6697013.JPG,false,1,keypress(m),500,296568,296567.7000000477,291989.515,291990.5,292006.132,296572.379,8,400,9,,ISIC_0034053.JPG
break,html.Screen,4_58_1,2023-10-31T02:54:50.815Z,,0,,,NaN,,,,,,false,,,,296568.7999999523,296568.60000014305,,296568.2000000477,,296572.379,8,400,,,
break_continue,html.Screen,4_58_2,2023-10-31T02:54:50.815Z,,0,,,NaN,,,,,,false,,,,296569.10000014305,296569,,296568.90000009537,,296572.379,8,400,,,
sequence,flow.Sequence,4_58,2023-10-31T02:54:50.816Z,,0,,,4562.868000000017,completion,,,,,false,,,,296569.2999999523,296569,291989.515,291990.40000009537,292006.132,296572.379,8,400,,,
trial,html.Screen,4_59_0,2023-10-31T02:55:01.170Z,,0,2,,10350.821000047668,response,ISIC_0030541.JPG,5,ISIC_4137545.JPG,ISIC_4137545.JPG,false,0,keypress(z),500,306923.40000009537,306923.2000000477,296555.83,296569.2999999523,296572.379,306938.815,8,400,10,,ISIC_0030541.JPG
break,html.Screen,4_59_1,2023-10-31T02:55:01.170Z,,0,,,NaN,,,,,,false,,,,306924.2999999523,306924.10000014305,,306923.60000014305,,306938.815,8,400,,,
break_continue,html.Screen,4_59_2,2023-10-31T02:55:01.171Z,,0,,,NaN,,,,,,false,,,,306924.60000014305,306924.5,,306924.40000009537,,306938.815,8,400,,,
sequence,flow.Sequence,4_59,2023-10-31T02:55:01.172Z,,0,,,10352.120999999985,completion,,,,,false,,,,306925.90000009537,306924.5,296555.83,296569.2999999523,296572.379,306938.815,8,400,,,
trial,html.Screen,4_60_0,2023-10-31T02:55:04.422Z,,0,2,,3236.785000143049,response,ISIC_9987485.JPG,5,ISIC_0026993.JPG,ISIC_9987485.JPG,false,1,keypress(m),500,310175.90000009537,310175.60000014305,306922.162,306926.10000014305,306938.815,310188.534,8,400,11,,ISIC_0026993.JPG
break,html.Screen,4_60_1,2023-10-31T02:55:04.423Z,,0,,,NaN,,,,,,false,,,,310176.60000014305,310176.5,,310176.10000014305,,310188.534,8,400,,,
break_continue,html.Screen,4_60_2,2023-10-31T02:55:04.423Z,,0,,,NaN,,,,,,false,,,,310176.90000009537,310176.7999999523,,310176.7999999523,,310188.534,8,400,,,
sequence,flow.Sequence,4_60,2023-10-31T02:55:04.423Z,,0,,,3237.984999952314,completion,,,,,false,,,,310177,310176.7999999523,306922.162,306926.10000014305,306938.815,310188.534,8,400,,,
trial,html.Screen,4_61_0,2023-10-31T02:55:07.768Z,,0,2,,3333.3660000953823,response,ISIC_1375476.JPG,5,ISIC_0033068.JPG,ISIC_0033068.JPG,false,0,keypress(z),500,313522.10000014305,313521.90000009537,310172.026,310177.2000000477,310188.534,313538.325,8,400,12,,ISIC_1375476.JPG
break,html.Screen,4_61_1,2023-10-31T02:55:07.769Z,,0,,,NaN,,,,,,false,,,,313522.7999999523,313522.7000000477,,313522.2999999523,,313538.325,8,400,,,
break_continue,html.Screen,4_61_2,2023-10-31T02:55:07.769Z,,0,,,NaN,,,,,,false,,,,313523.10000014305,313523,,313522.90000009537,,313538.325,8,400,,,
sequence,flow.Sequence,4_61,2023-10-31T02:55:07.769Z,,0,,,3334.466000000015,completion,,,,,false,,,,313523.2000000477,313523,310172.026,310177.2000000477,310188.534,313538.325,8,400,,,
trial,html.Screen,4_62_0,2023-10-31T02:55:10.940Z,,0,2,,3155.2750001430395,response,ISIC_0011933.JPG,5,ISIC_0178370.JPG,ISIC_0011933.JPG,false,1,keypress(m),500,316693.7999999523,316693.60000014305,313521.363,313523.2999999523,313538.325,316704.827,8,400,13,,ISIC_0178370.JPG
break,html.Screen,4_62_1,2023-10-31T02:55:10.941Z,,0,,,NaN,,,,,,false,,,,316694.40000009537,316694.2999999523,,316693.90000009537,,316704.827,8,400,,,
break_continue,html.Screen,4_62_2,2023-10-31T02:55:10.941Z,,0,,,NaN,,,,,,false,,,,316694.60000014305,316694.60000014305,,316694.5,,316704.827,8,400,,,
sequence,flow.Sequence,4_62,2023-10-31T02:55:10.941Z,,0,,,3156.2750001430395,completion,,,,,false,,,,316694.7999999523,316694.60000014305,313521.363,313523.2999999523,313538.325,316704.827,8,400,,,
trial,html.Screen,4_63_0,2023-10-31T02:55:13.807Z,,0,2,,2855.273000143061,response,ISIC_9049170.JPG,4,ISIC_0025379.JPG,ISIC_0025379.JPG,false,0,keypress(z),500,319560.2999999523,319560.10000014305,316688.492,316694.90000009537,316704.827,319571.38,8,400,14,,ISIC_9049170.JPG
break,html.Screen,4_63_1,2023-10-31T02:55:13.807Z,,0,,,NaN,,,,,,false,,,,319561.2000000477,319561,,319560.5,,319571.38,8,400,,,
break_continue,html.Screen,4_63_2,2023-10-31T02:55:13.808Z,,0,,,NaN,,,,,,false,,,,319561.5,319561.40000009537,,319561.2000000477,,319571.38,8,400,,,
sequence,flow.Sequence,4_63,2023-10-31T02:55:13.808Z,,0,,,2856.573000095377,completion,,,,,false,,,,319561.60000014305,319561.40000009537,316688.492,316694.90000009537,316704.827,319571.38,8,400,,,
trial,html.Screen,4_64_0,2023-10-31T02:55:16.707Z,,0,2,,2888.820000047679,response,ISIC_8630818.JPG,6,ISIC_1881133.JPG,ISIC_1881133.JPG,false,0,keypress(z),500,322460.2999999523,322460.2000000477,319554.928,319561.7000000477,319571.38,322471.098,8,400,15,,ISIC_8630818.JPG
break,html.Screen,4_64_1,2023-10-31T02:55:16.707Z,,0,,,NaN,,,,,,false,,,,322460.60000014305,322460.60000014305,,322460.40000009537,,322471.098,8,400,,,
break_continue,html.Screen,4_64_2,2023-10-31T02:55:16.707Z,,0,,,NaN,,,,,,false,,,,322460.7000000477,322460.7000000477,,322460.7000000477,,322471.098,8,400,,,
sequence,flow.Sequence,4_64,2023-10-31T02:55:16.707Z,,0,,,2889.320000047679,completion,,,,,false,,,,322460.7000000477,322460.7000000477,319554.928,319561.7000000477,319571.38,322471.098,8,400,,,
trial,html.Screen,4_65_0,2023-10-31T02:55:19.284Z,,0,2,,2566.902000000002,response,ISIC_0032812.JPG,4,ISIC_0000518.JPG,ISIC_0032812.JPG,false,1,keypress(m),500,325038.2999999523,325038,322454.919,322460.7999999523,322471.098,325054.57,8,400,16,,ISIC_0000518.JPG
break,html.Screen,4_65_1,2023-10-31T02:55:19.285Z,,0,,,NaN,,,,,,false,,,,325039,325038.90000009537,,325038.40000009537,,325054.57,8,400,,,
break_continue,html.Screen,4_65_2,2023-10-31T02:55:19.286Z,,0,,,NaN,,,,,,false,,,,325039.2999999523,325039.2000000477,,325039.10000014305,,325054.57,8,400,,,
sequence,flow.Sequence,4_65,2023-10-31T02:55:19.286Z,,0,,,2568.1020000476856,completion,,,,,false,,,,325039.40000009537,325039.2000000477,322454.919,322460.7999999523,322471.098,325054.57,8,400,,,
trial,html.Screen,4_66_0,2023-10-31T02:55:24.119Z,,0,2,,4818.33000009536,response,ISIC_0011534.JPG,5,ISIC_0028528.JPG,ISIC_0011534.JPG,false,1,keypress(m),500,329873.2000000477,329872.90000009537,325037.631,325039.5,325054.57,329887.489,8,400,17,,ISIC_0028528.JPG
break,html.Screen,4_66_1,2023-10-31T02:55:24.120Z,,0,,,NaN,,,,,,false,,,,329874.2000000477,329873.90000009537,,329873.40000009537,,329887.489,8,400,,,
break_continue,html.Screen,4_66_2,2023-10-31T02:55:24.121Z,,0,,,NaN,,,,,,false,,,,329874.60000014305,329874.5,,329874.40000009537,,329887.489,8,400,,,
sequence,flow.Sequence,4_66,2023-10-31T02:55:24.121Z,,0,,,4819.929999999993,completion,,,,,false,,,,329874.7999999523,329874.5,325037.631,325039.5,325054.57,329887.489,8,400,,,
trial,html.Screen,4_67_0,2023-10-31T02:55:27.340Z,,0,2,,3205.810999952315,response,ISIC_0005879.JPG,5,ISIC_0030447.JPG,ISIC_0005879.JPG,false,1,keypress(m),500,333093.60000014305,333093.2999999523,329871.107,329874.90000009537,329887.489,333104.057,8,400,18,,ISIC_0030447.JPG
break,html.Screen,4_67_1,2023-10-31T02:55:27.341Z,,0,,,NaN,,,,,,false,,,,333094.40000009537,333094.2000000477,,333093.7999999523,,333104.057,8,400,,,
break_continue,html.Screen,4_67_2,2023-10-31T02:55:27.341Z,,0,,,NaN,,,,,,false,,,,333094.90000009537,333094.7000000477,,333094.60000014305,,333104.057,8,400,,,
sequence,flow.Sequence,4_67,2023-10-31T02:55:27.341Z,,0,,,3207.2110000476823,completion,,,,,false,,,,333094.90000009537,333094.7000000477,329871.107,329874.90000009537,329887.489,333104.057,8,400,,,
trial,html.Screen,4_68_0,2023-10-31T02:55:30.368Z,,0,2,,3017.5430001430796,response,ISIC_5568525.JPG,6,ISIC_2259861.JPG,ISIC_5568525.JPG,false,1,keypress(m),500,336121.90000009537,336121.60000014305,333087.638,333095.10000014305,333104.057,336137.523,8,400,19,,ISIC_2259861.JPG
break,html.Screen,4_68_1,2023-10-31T02:55:30.369Z,,0,,,NaN,,,,,,false,,,,336122.7000000477,336122.60000014305,,336122.10000014305,,336137.523,8,400,,,
break_continue,html.Screen,4_68_2,2023-10-31T02:55:30.369Z,,0,,,NaN,,,,,,false,,,,336123,336122.90000009537,,336122.7999999523,,336137.523,8,400,,,
sequence,flow.Sequence,4_68,2023-10-31T02:55:30.369Z,,0,,,3018.843000095396,completion,,,,,false,,,,336123.2000000477,336122.90000009537,333087.638,333095,333104.057,336137.523,8,400,,,
trial,html.Screen,4_69_0,2023-10-31T02:55:33.252Z,,0,2,,2868.4770000000135,response,ISIC_0066429.JPG,4,ISIC_6523459.JPG,ISIC_6523459.JPG,false,0,keypress(z),500,339006.2999999523,339006,336120.65,336123.2000000477,336137.523,339020.597,8,400,20,,ISIC_0066429.JPG
break,html.Screen,4_69_1,2023-10-31T02:55:33.253Z,,0,,,NaN,,,,,,false,,,,339007,339006.7999999523,,339006.40000009537,,339020.597,8,400,,,
break_continue,html.Screen,4_69_2,2023-10-31T02:55:33.254Z,,0,,,NaN,,,,,,false,,,,339007.2999999523,339007.2000000477,,339007.10000014305,,339020.597,8,400,,,
sequence,flow.Sequence,4_69,2023-10-31T02:55:33.254Z,,0,,,2869.677000047697,completion,,,,,false,,,,339007.5,339007.2000000477,336120.65,336123.2000000477,336137.523,339020.597,8,400,,,
trial,html.Screen,4_70_0,2023-10-31T02:55:36.392Z,,0,2,,3124.5030001430423,response,ISIC_0034253.JPG,5,ISIC_0033496.JPG,ISIC_0033496.JPG,false,0,keypress(z),500,342145.2999999523,342145.10000014305,339003.773,339007.60000014305,339020.597,342153.626,8,400,21,,ISIC_0034253.JPG
break,html.Screen,4_70_1,2023-10-31T02:55:36.392Z,,0,,,NaN,,,,,,false,,,,342146.2000000477,342146.10000014305,,342145.60000014305,,342153.626,8,400,,,
break_continue,html.Screen,4_70_2,2023-10-31T02:55:36.393Z,,0,,,NaN,,,,,,false,,,,342146.5,342146.40000009537,,342146.40000009537,,342153.626,8,400,,,
sequence,flow.Sequence,4_70,2023-10-31T02:55:36.393Z,,0,,,3125.8030000953586,completion,,,,,false,,,,342146.60000014305,342146.40000009537,339003.773,339007.60000014305,339020.597,342153.626,8,400,,,
trial,html.Screen,4_71_0,2023-10-31T02:55:39.706Z,,0,2,,3306.274000095378,response,ISIC_0053734.JPG,5,ISIC_2007034.JPG,ISIC_2007034.JPG,false,0,keypress(z),500,345459.90000009537,345459.90000009537,342137.071,342146.7000000477,342153.626,345470.01,8,400,22,,ISIC_0053734.JPG
break,html.Screen,4_71_1,2023-10-31T02:55:39.706Z,,0,,,NaN,,,,,,false,,,,345460.2999999523,345460.2000000477,,345460,,345470.01,8,400,,,
break_continue,html.Screen,4_71_2,2023-10-31T02:55:39.707Z,,0,,,NaN,,,,,,false,,,,345460.40000009537,345460.40000009537,,345460.40000009537,,345470.01,8,400,,,
sequence,flow.Sequence,4_71,2023-10-31T02:55:39.707Z,,0,,,3306.774000095378,completion,,,,,false,,,,345460.40000009537,345460.40000009537,342137.071,342146.7000000477,342153.626,345470.01,8,400,,,
trial,html.Screen,4_72_0,2023-10-31T02:55:42.412Z,,0,2,,2695.390000095358,response,ISIC_7761711.JPG,5,ISIC_0026832.JPG,ISIC_0026832.JPG,false,0,keypress(z),500,348165.60000014305,348165.40000009537,345453.587,345460.5,345470.01,348170.012,8,400,23,,ISIC_7761711.JPG
break,html.Screen,4_72_1,2023-10-31T02:55:42.413Z,,0,,,NaN,,,,,,false,,,,348166.2999999523,348166.2000000477,,348165.7999999523,,348170.012,8,400,,,
break_continue,html.Screen,4_72_2,2023-10-31T02:55:42.413Z,,0,,,NaN,,,,,,false,,,,348166.7000000477,348166.5,,348166.40000009537,,348170.012,8,400,,,
sequence,flow.Sequence,4_72,2023-10-31T02:55:42.413Z,,0,,,2696.4899999999907,completion,,,,,false,,,,348166.7999999523,348166.5,345453.587,345460.5,345470.01,348170.012,8,400,,,
trial,html.Screen,4_73_0,2023-10-31T02:55:45.039Z,,0,2,,2622.188000047696,response,ISIC_0001148.JPG,5,ISIC_8173531.JPG,ISIC_8173531.JPG,false,0,keypress(z),500,350792.5,350792.2000000477,348153.315,348166.90000009537,348170.012,350803.323,8,400,24,,ISIC_0001148.JPG
break,html.Screen,4_73_1,2023-10-31T02:55:45.039Z,,0,,,NaN,,,,,,false,,,,350793.2000000477,350793,,350792.60000014305,,350803.323,8,400,,,
break_continue,html.Screen,4_73_2,2023-10-31T02:55:45.040Z,,0,,,NaN,,,,,,false,,,,350793.5,350793.40000009537,,350793.2999999523,,350803.323,8,400,,,
sequence,flow.Sequence,4_73,2023-10-31T02:55:45.040Z,,0,,,2623.3880000953795,completion,,,,,false,,,,350793.7000000477,350793.40000009537,348153.315,348166.90000009537,348170.012,350803.323,8,400,,,
trial,html.Screen,4_74_0,2023-10-31T02:55:47.858Z,,0,2,,2808.677000000025,response,ISIC_0013244.JPG,5,ISIC_5508076.JPG,ISIC_0013244.JPG,false,1,keypress(m),500,353612.2000000477,353612,350786.552,350793.7000000477,350803.323,353619.685,8,400,25,,ISIC_5508076.JPG
break,html.Screen,4_74_1,2023-10-31T02:55:47.859Z,,0,,,NaN,,,,,,false,,,,353612.90000009537,353612.7999999523,,353612.40000009537,,353619.685,8,400,,,
break_continue,html.Screen,4_74_2,2023-10-31T02:55:47.859Z,,0,,,NaN,,,,,,false,,,,353613.2000000477,353613.10000014305,,353612.90000009537,,353619.685,8,400,,,
sequence,flow.Sequence,4_74,2023-10-31T02:55:47.859Z,,0,,,2809.7770001430763,completion,,,,,false,,,,353613.2000000477,353613.10000014305,350786.552,350793.7000000477,350803.323,353619.685,8,400,,,
trial,html.Screen,4_75_0,2023-10-31T02:55:50.406Z,,0,2,,2539.6149999523186,response,ISIC_3900049.JPG,4,ISIC_0007884.JPG,ISIC_0007884.JPG,false,0,keypress(z),500,356159.60000014305,356159.2999999523,353603.44,353613.2999999523,353619.685,356169.702,8,400,26,,ISIC_3900049.JPG
break,html.Screen,4_75_1,2023-10-31T02:55:50.406Z,,0,,,NaN,,,,,,false,,,,356160.2000000477,356160.10000014305,,356159.7000000477,,356169.702,8,400,,,
break_continue,html.Screen,4_75_2,2023-10-31T02:55:50.407Z,,0,,,NaN,,,,,,false,,,,356160.60000014305,356160.5,,356160.40000009537,,356169.702,8,400,,,
sequence,flow.Sequence,4_75,2023-10-31T02:55:50.407Z,,0,,,2540.8150000000023,completion,,,,,false,,,,356160.7000000477,356160.5,353603.44,353613.2999999523,353619.685,356169.702,8,400,,,
trial,html.Screen,4_76_0,2023-10-31T02:55:53.017Z,,0,2,,2600.698000095377,response,ISIC_0012057.JPG,4,ISIC_4756979.JPG,ISIC_4756979.JPG,false,0,keypress(z),500,358770.7000000477,358770.40000009537,356153.353,356160.7999999523,356169.702,358786.405,8,400,27,,ISIC_0012057.JPG
break,html.Screen,4_76_1,2023-10-31T02:55:53.018Z,,0,,,NaN,,,,,,false,,,,358771.60000014305,358771.5,,358770.90000009537,,358786.405,8,400,,,
break_continue,html.Screen,4_76_2,2023-10-31T02:55:53.018Z,,0,,,NaN,,,,,,false,,,,358772,358771.90000009537,,358771.7999999523,,358786.405,8,400,,,
sequence,flow.Sequence,4_76,2023-10-31T02:55:53.018Z,,0,,,2602.198000095377,completion,,,,,false,,,,358772.10000014305,358771.90000009537,356153.353,356160.7999999523,356169.702,358786.405,8,400,,,
trial,html.Screen,4_77_0,2023-10-31T02:55:55.964Z,,0,2,,2931.094999999972,response,ISIC_0032975.JPG,4,ISIC_0054988.JPG,ISIC_0032975.JPG,false,1,keypress(m),500,361717.7000000477,361717.5,358769.798,358772.2000000477,358786.405,361736.534,8,400,28,,ISIC_0054988.JPG
break,html.Screen,4_77_1,2023-10-31T02:55:55.964Z,,0,,,NaN,,,,,,false,,,,361718.10000014305,361718.10000014305,,361717.7000000477,,361736.534,8,400,,,
break_continue,html.Screen,4_77_2,2023-10-31T02:55:55.965Z,,0,,,NaN,,,,,,false,,,,361718.2999999523,361718.2999999523,,361718.10000014305,,361736.534,8,400,,,
sequence,flow.Sequence,4_77,2023-10-31T02:55:55.965Z,,0,,,2931.8949999522883,completion,,,,,false,,,,361718.40000009537,361718.2999999523,358769.798,358772.2000000477,358786.405,361736.534,8,400,,,
trial,html.Screen,4_78_0,2023-10-31T02:55:58.510Z,,0,2,,2526.8660000953823,response,ISIC_8388593.JPG,4,ISIC_0003539.JPG,ISIC_0003539.JPG,false,0,keypress(z),500,364263.60000014305,364263.40000009537,361702.437,361718.40000009537,361736.534,364269.219,8,400,29,,ISIC_8388593.JPG
break,html.Screen,4_78_1,2023-10-31T02:55:58.511Z,,0,,,NaN,,,,,,false,,,,364264.40000009537,364264.2000000477,,364263.7999999523,,364269.219,8,400,,,
break_continue,html.Screen,4_78_2,2023-10-31T02:55:58.511Z,,0,,,NaN,,,,,,false,,,,364264.7000000477,364264.5,,364264.5,,364269.219,8,400,,,
sequence,flow.Sequence,4_78,2023-10-31T02:55:58.511Z,,0,,,2527.966000000015,completion,,,,,false,,,,364264.7999999523,364264.5,361702.437,361718.40000009537,361736.534,364269.219,8,400,,,
trial,html.Screen,4_79_0,2023-10-31T02:56:01.121Z,,0,2,,2605.5809999523335,response,ISIC_5150200.JPG,4,ISIC_1211506.JPG,ISIC_1211506.JPG,false,0,keypress(z),500,366875.10000014305,366874.7999999523,364252.558,364264.90000009537,364269.219,366885.836,8,400,30,,ISIC_5150200.JPG
break,html.Screen,4_79_1,2023-10-31T02:56:01.122Z,,0,,,NaN,,,,,,false,,,,366875.7999999523,366875.7000000477,,366875.2999999523,,366885.836,8,400,,,
break_continue,html.Screen,4_79_2,2023-10-31T02:56:01.123Z,,0,,,NaN,,,,,,false,,,,366876.10000014305,366876.10000014305,,366876,,366885.836,8,400,,,
sequence,flow.Sequence,4_79,2023-10-31T02:56:01.123Z,,0,,,2606.8810001430684,completion,,,,,false,,,,366876.2999999523,366876.10000014305,364252.558,364264.90000009537,364269.219,366885.836,8,400,,,
trial,html.Screen,4_80_0,2023-10-31T02:56:03.814Z,,0,2,,2681.264000143041,response,ISIC_0060559.JPG,5,ISIC_4981135.JPG,ISIC_4981135.JPG,false,0,keypress(z),500,369567.2999999523,369567.10000014305,366868.934,366876.40000009537,366885.836,369586.962,8,400,31,,ISIC_0060559.JPG
break,html.Screen,4_80_1,2023-10-31T02:56:03.814Z,,0,,,NaN,,,,,,false,,,,369568.10000014305,369568,,369567.5,,369586.962,8,400,,,
break_continue,html.Screen,4_80_2,2023-10-31T02:56:03.815Z,,0,,,NaN,,,,,,false,,,,369568.5,369568.40000009537,,369568.2000000477,,369586.962,8,400,,,
sequence,flow.Sequence,4_80,2023-10-31T02:56:03.815Z,,0,,,2682.564000095357,completion,,,,,false,,,,369568.7000000477,369568.40000009537,366868.934,366876.40000009537,366885.836,369586.962,8,400,,,
trial,html.Screen,4_81_0,2023-10-31T02:56:06.393Z,,0,2,,2558.938000095368,response,ISIC_4629662.JPG,5,ISIC_0009955.JPG,ISIC_0009955.JPG,false,0,keypress(z),500,372146.10000014305,372145.90000009537,369552.694,369568.7999999523,369586.962,372152.198,8,400,32,,ISIC_4629662.JPG
break,html.Screen,4_81_1,2023-10-31T02:56:06.393Z,,0,,,NaN,,,,,,false,,,,372147,372146.7999999523,,372146.2999999523,,372152.198,8,400,,,
break_continue,html.Screen,4_81_2,2023-10-31T02:56:06.394Z,,0,,,NaN,,,,,,false,,,,372147.2999999523,372147.2000000477,,372147.10000014305,,372152.198,8,400,,,
sequence,flow.Sequence,4_81,2023-10-31T02:56:06.394Z,,0,,,2560.238000047684,completion,,,,,false,,,,372147.5,372147.2000000477,369552.694,369568.7000000477,369586.962,372152.198,8,400,,,
trial,html.Screen,4_82_0,2023-10-31T02:56:10.284Z,,0,2,,3884.802000000025,response,ISIC_4363398.JPG,5,ISIC_7776719.JPG,ISIC_7776719.JPG,false,0,keypress(z),500,376037.2000000477,376037,372135.954,372147.60000014305,372152.198,376052.05,8,400,33,,ISIC_4363398.JPG
break,html.Screen,4_82_1,2023-10-31T02:56:10.284Z,,0,,,NaN,,,,,,false,,,,376038,376037.7999999523,,376037.40000009537,,376052.05,8,400,,,
break_continue,html.Screen,4_82_2,2023-10-31T02:56:10.285Z,,0,,,NaN,,,,,,false,,,,376038.2000000477,376038.2000000477,,376038.10000014305,,376052.05,8,400,,,
sequence,flow.Sequence,4_82,2023-10-31T02:56:10.285Z,,0,,,3886.002000047709,completion,,,,,false,,,,376038.40000009537,376038.2000000477,372135.954,372147.60000014305,372152.198,376052.05,8,400,,,
trial,html.Screen,4_83_0,2023-10-31T02:56:13.727Z,,0,2,,3428.350000095379,response,ISIC_1978947.JPG,6,ISIC_0430356.JPG,ISIC_1978947.JPG,false,1,keypress(m),500,379480.60000014305,379480.40000009537,376035.556,376038.5,376052.05,379501.832,8,400,34,,ISIC_0430356.JPG
break,html.Screen,4_83_1,2023-10-31T02:56:13.728Z,,0,,,NaN,,,,,,false,,,,379481.2999999523,379481.2000000477,,379480.7000000477,,379501.832,8,400,,,
break_continue,html.Screen,4_83_2,2023-10-31T02:56:13.728Z,,0,,,NaN,,,,,,false,,,,379481.60000014305,379481.5,,379481.40000009537,,379501.832,8,400,,,
sequence,flow.Sequence,4_83,2023-10-31T02:56:13.728Z,,0,,,3429.4500000000116,completion,,,,,false,,,,379481.7999999523,379481.5,376035.556,376038.5,376052.05,379501.832,8,400,,,
trial,html.Screen,4_84_0,2023-10-31T02:56:16.387Z,,0,2,,2638.368000047689,response,ISIC_7097931.JPG,4,ISIC_0032845.JPG,ISIC_7097931.JPG,false,1,keypress(m),500,382140.40000009537,382140.2000000477,379485.252,379481.7999999523,379501.832,382168.38,8,400,35,,ISIC_0032845.JPG
break,html.Screen,4_84_1,2023-10-31T02:56:16.387Z,,0,,,NaN,,,,,,false,,,,382141.10000014305,382140.90000009537,,382140.5,,382168.38,8,400,,,
break_continue,html.Screen,4_84_2,2023-10-31T02:56:16.388Z,,0,,,NaN,,,,,,false,,,,382141.2999999523,382141.2999999523,,382141.2000000477,,382168.38,8,400,,,
sequence,flow.Sequence,4_84,2023-10-31T02:56:16.388Z,,0,,,2639.4679999523214,completion,,,,,false,,,,382141.40000009537,382141.2999999523,379485.252,379481.7999999523,379501.832,382168.38,8,400,,,
trial,html.Screen,4_85_0,2023-10-31T02:56:19.430Z,,0,2,,3014.7200001430465,response,ISIC_9538004.JPG,6,ISIC_0006744.JPG,ISIC_0006744.JPG,false,0,keypress(z),500,385183.2999999523,385183.10000014305,382151.81,382141.5,382168.38,385201.602,8,400,36,,ISIC_9538004.JPG
break,html.Screen,4_85_1,2023-10-31T02:56:19.431Z,,0,,,NaN,,,,,,false,,,,385184.2999999523,385184,,385183.5,,385201.602,8,400,,,
break_continue,html.Screen,4_85_2,2023-10-31T02:56:19.431Z,,0,,,NaN,,,,,,false,,,,385184.60000014305,385184.40000009537,,385184.2999999523,,385201.602,8,400,,,
sequence,flow.Sequence,4_85,2023-10-31T02:56:19.431Z,,0,,,3016.020000095363,completion,,,,,false,,,,385184.7000000477,385184.40000009537,382151.81,382141.5,382168.38,385201.602,8,400,,,
trial,html.Screen,4_86_0,2023-10-31T02:56:22.137Z,,0,2,,2688.697999952303,response,ISIC_1135213.JPG,5,ISIC_2398511.JPG,ISIC_1135213.JPG,false,1,keypress(m),500,387890.5,387890.2999999523,385168.427,385184.7999999523,385201.602,387901.73,8,400,37,,ISIC_2398511.JPG
break,html.Screen,4_86_1,2023-10-31T02:56:22.138Z,,0,,,NaN,,,,,,false,,,,387891.2999999523,387891.10000014305,,387890.7000000477,,387901.73,8,400,,,
break_continue,html.Screen,4_86_2,2023-10-31T02:56:22.138Z,,0,,,NaN,,,,,,false,,,,387891.60000014305,387891.40000009537,,387891.40000009537,,387901.73,8,400,,,
sequence,flow.Sequence,4_86,2023-10-31T02:56:22.138Z,,0,,,2689.798000095354,completion,,,,,false,,,,387891.7999999523,387891.40000009537,385168.427,385184.7999999523,385201.602,387901.73,8,400,,,
trial,html.Screen,4_87_0,2023-10-31T02:56:25.437Z,,0,2,,3288.4700000477023,response,ISIC_6709052.JPG,5,ISIC_0027537.JPG,ISIC_0027537.JPG,false,0,keypress(z),500,391190.5,391190.2000000477,387885.453,387891.90000009537,387901.73,391201.351,8,400,38,,ISIC_6709052.JPG
break,html.Screen,4_87_1,2023-10-31T02:56:25.438Z,,0,,,NaN,,,,,,false,,,,391191.2999999523,391191.2000000477,,391190.7000000477,,391201.351,8,400,,,
break_continue,html.Screen,4_87_2,2023-10-31T02:56:25.438Z,,0,,,NaN,,,,,,false,,,,391191.7000000477,391191.5,,391191.40000009537,,391201.351,8,400,,,
sequence,flow.Sequence,4_87,2023-10-31T02:56:25.438Z,,0,,,3289.7700000000186,completion,,,,,false,,,,391191.7000000477,391191.5,387885.453,387891.90000009537,387901.73,391201.351,8,400,,,
trial,html.Screen,4_88_0,2023-10-31T02:56:28.016Z,,0,2,,2567.648999999976,response,ISIC_2784686.JPG,4,ISIC_0001103.JPG,ISIC_2784686.JPG,false,1,keypress(m),500,393769.2000000477,393769,391184.794,391191.90000009537,391201.351,393784.516,8,400,39,,ISIC_0001103.JPG
break,html.Screen,4_88_1,2023-10-31T02:56:28.016Z,,0,,,NaN,,,,,,false,,,,393769.90000009537,393769.7999999523,,393769.40000009537,,393784.516,8,400,,,
break_continue,html.Screen,4_88_2,2023-10-31T02:56:28.017Z,,0,,,NaN,,,,,,false,,,,393770.2999999523,393770.2000000477,,393770.10000014305,,393784.516,8,400,,,
sequence,flow.Sequence,4_88,2023-10-31T02:56:28.017Z,,0,,,2568.8490000476595,completion,,,,,false,,,,393770.5,393770.2000000477,391184.794,391191.90000009537,391201.351,393784.516,8,400,,,
trial,html.Screen,4_89_0,2023-10-31T02:56:30.530Z,,0,2,,2499.084000143048,response,ISIC_5203791.JPG,4,ISIC_0056292.JPG,ISIC_0056292.JPG,false,0,keypress(z),500,396283.7999999523,396283.60000014305,393768.239,393770.60000014305,393784.516,396317.693,8,400,40,,ISIC_5203791.JPG
break,html.Screen,4_89_1,2023-10-31T02:56:30.531Z,,0,,,NaN,,,,,,false,,,,396284.5,396284.40000009537,,396284,,396317.693,8,400,,,
break_continue,html.Screen,4_89_2,2023-10-31T02:56:30.531Z,,0,,,NaN,,,,,,false,,,,396284.7999999523,396284.7999999523,,396284.60000014305,,396317.693,8,400,,,
sequence,flow.Sequence,4_89,2023-10-31T02:56:30.531Z,,0,,,2500.283999952313,completion,,,,,false,,,,396285,396284.7999999523,393768.239,393770.5,393784.516,396317.693,8,400,,,
trial,html.Screen,4_90_0,2023-10-31T02:56:33.093Z,,0,2,,2528.707000095339,response,ISIC_6792899.JPG,4,ISIC_0032440.JPG,ISIC_0032440.JPG,false,0,keypress(z),500,398846.7000000477,398846.40000009537,396301.373,396285.10000014305,396317.693,398850.997,8,400,41,,ISIC_6792899.JPG
break,html.Screen,4_90_1,2023-10-31T02:56:33.094Z,,0,,,NaN,,,,,,false,,,,398847.5,398847.2999999523,,398846.7999999523,,398850.997,8,400,,,
break_continue,html.Screen,4_90_2,2023-10-31T02:56:33.094Z,,0,,,NaN,,,,,,false,,,,398847.7999999523,398847.60000014305,,398847.5,,398850.997,8,400,,,
sequence,flow.Sequence,4_90,2023-10-31T02:56:33.094Z,,0,,,2529.9070001430227,completion,,,,,false,,,,398847.90000009537,398847.60000014305,396301.373,396285.10000014305,396317.693,398850.997,8,400,,,
trial,html.Screen,4_91_0,2023-10-31T02:56:35.657Z,,0,2,,2559.003000000026,response,ISIC_7244604.JPG,4,ISIC_0013141.JPG,ISIC_7244604.JPG,false,1,keypress(m),500,401410.2000000477,401410,398834.585,398848,398850.997,401417.514,8,400,42,,ISIC_0013141.JPG
break,html.Screen,4_91_1,2023-10-31T02:56:35.657Z,,0,,,NaN,,,,,,false,,,,401410.90000009537,401410.7999999523,,401410.2999999523,,401417.514,8,400,,,
break_continue,html.Screen,4_91_2,2023-10-31T02:56:35.658Z,,0,,,NaN,,,,,,false,,,,401411.2999999523,401411.2000000477,,401411.10000014305,,401417.514,8,400,,,
sequence,flow.Sequence,4_91,2023-10-31T02:56:35.658Z,,0,,,2560.20300004771,completion,,,,,false,,,,401411.40000009537,401411.2000000477,398834.585,398848,398850.997,401417.514,8,400,,,
trial,html.Screen,4_92_0,2023-10-31T02:56:38.252Z,,0,2,,2588.2859999522916,response,ISIC_0068234.JPG,5,ISIC_0000024.JPG,ISIC_0000024.JPG,false,0,keypress(z),500,404005.90000009537,404005.7999999523,401400.873,401411.5,401417.514,404017.557,8,400,43,,ISIC_0068234.JPG
break,html.Screen,4_92_1,2023-10-31T02:56:38.253Z,,0,,,NaN,,,,,,false,,,,404006.7999999523,404006.7000000477,,404006.10000014305,,404017.557,8,400,,,
break_continue,html.Screen,4_92_2,2023-10-31T02:56:38.253Z,,0,,,NaN,,,,,,false,,,,404007.10000014305,404007,,404006.90000009537,,404017.557,8,400,,,
sequence,flow.Sequence,4_92,2023-10-31T02:56:38.254Z,,0,,,2589.4859999999753,completion,,,,,false,,,,404007.2000000477,404007,401400.873,401411.5,401417.514,404017.557,8,400,,,
trial,html.Screen,4_93_0,2023-10-31T02:56:40.816Z,,0,2,,2551.4430000000284,response,ISIC_0032617.JPG,6,ISIC_0005062.JPG,ISIC_0005062.JPG,false,0,keypress(z),500,406569.2999999523,406569,404001.142,404007.2000000477,404017.557,406583.951,8,400,44,,ISIC_0032617.JPG
break,html.Screen,4_93_1,2023-10-31T02:56:40.816Z,,0,,,NaN,,,,,,false,,,,406570.10000014305,406569.90000009537,,406569.40000009537,,406583.951,8,400,,,
break_continue,html.Screen,4_93_2,2023-10-31T02:56:40.817Z,,0,,,NaN,,,,,,false,,,,406570.2999999523,406570.2999999523,,406570.2000000477,,406583.951,8,400,,,
sequence,flow.Sequence,4_93,2023-10-31T02:56:40.817Z,,0,,,2552.7429999523447,completion,,,,,false,,,,406570.5,406570.2999999523,404001.142,404007.2000000477,404017.557,406583.951,8,400,,,
trial,html.Screen,4_94_0,2023-10-31T02:56:43.555Z,,0,2,,2724.4490000953665,response,ISIC_0074311.JPG,6,ISIC_4139260.JPG,ISIC_0074311.JPG,false,1,keypress(m),500,409308.7999999523,409308.40000009537,406567.595,406570.60000014305,406583.951,409316.943,8,400,45,,ISIC_4139260.JPG
break,html.Screen,4_94_1,2023-10-31T02:56:43.556Z,,0,,,NaN,,,,,,false,,,,409309.60000014305,409309.40000009537,,409309,,409316.943,8,400,,,
break_continue,html.Screen,4_94_2,2023-10-31T02:56:43.556Z,,0,,,NaN,,,,,,false,,,,409309.90000009537,409309.90000009537,,409309.7999999523,,409316.943,8,400,,,
sequence,flow.Sequence,4_94,2023-10-31T02:56:43.556Z,,0,,,2725.9490000953665,completion,,,,,false,,,,409310.10000014305,409309.90000009537,406567.595,406570.60000014305,406583.951,409316.943,8,400,,,
trial,html.Screen,4_95_0,2023-10-31T02:56:46.806Z,,0,2,,3242.7570000476553,response,ISIC_5835765.JPG,6,ISIC_2768150.JPG,ISIC_5835765.JPG,false,1,keypress(m),500,412560,412559.7000000477,409300.724,409310.2000000477,409316.943,412567.033,8,400,46,,ISIC_2768150.JPG
break,html.Screen,4_95_1,2023-10-31T02:56:46.807Z,,0,,,NaN,,,,,,false,,,,412560.7000000477,412560.5,,412560.10000014305,,412567.033,8,400,,,
break_continue,html.Screen,4_95_2,2023-10-31T02:56:46.808Z,,0,,,NaN,,,,,,false,,,,412561.10000014305,412561,,412560.7999999523,,412567.033,8,400,,,
sequence,flow.Sequence,4_95,2023-10-31T02:56:46.808Z,,0,,,3244.0569999999716,completion,,,,,false,,,,412561.2999999523,412561,409300.724,409310.10000014305,409316.943,412567.033,8,400,,,
trial,html.Screen,4_96_0,2023-10-31T02:56:49.337Z,,0,2,,2523.467000000004,response,ISIC_2577938.JPG,5,ISIC_6973257.JPG,ISIC_2577938.JPG,false,1,keypress(m),500,415090.60000014305,415090.5,412550.615,412561.40000009537,412567.033,415100.241,8,400,47,,ISIC_6973257.JPG
break,html.Screen,4_96_1,2023-10-31T02:56:49.337Z,,0,,,NaN,,,,,,false,,,,415091,415091,,415090.7999999523,,415100.241,8,400,,,
break_continue,html.Screen,4_96_2,2023-10-31T02:56:49.338Z,,0,,,NaN,,,,,,false,,,,415091.2999999523,415091.2000000477,,415091.10000014305,,415100.241,8,400,,,
sequence,flow.Sequence,4_96,2023-10-31T02:56:49.338Z,,0,,,2524.167000047688,completion,,,,,false,,,,415091.2999999523,415091.2000000477,412550.615,412561.40000009537,412567.033,415100.241,8,400,,,
trial,html.Screen,4_97_0,2023-10-31T02:56:51.883Z,,0,2,,2536.1590000953875,response,ISIC_0000174.JPG,4,ISIC_0027721.JPG,ISIC_0027721.JPG,false,0,keypress(z),500,417636.60000014305,417636.40000009537,415083.9,415091.40000009537,415100.241,417650.208,8,400,48,,ISIC_0000174.JPG
break,html.Screen,4_97_1,2023-10-31T02:56:51.884Z,,0,,,NaN,,,,,,false,,,,417637.2999999523,417637.2000000477,,417636.7999999523,,417650.208,8,400,,,
break_continue,html.Screen,4_97_2,2023-10-31T02:56:51.884Z,,0,,,NaN,,,,,,false,,,,417637.7000000477,417637.60000014305,,417637.40000009537,,417650.208,8,400,,,
sequence,flow.Sequence,4_97,2023-10-31T02:56:51.884Z,,0,,,2537.359000143071,completion,,,,,false,,,,417637.7999999523,417637.60000014305,415083.9,415091.40000009537,415100.241,417650.208,8,400,,,
trial,html.Screen,4_98_0,2023-10-31T02:56:55.038Z,,0,2,,3141.591999952332,response,ISIC_4252887.JPG,5,ISIC_0912291.JPG,ISIC_4252887.JPG,false,1,keypress(m),500,420792,420791.7999999523,417633.998,417638,417650.208,420799.871,8,400,49,,ISIC_0912291.JPG
break,html.Screen,4_98_1,2023-10-31T02:56:55.039Z,,0,,,NaN,,,,,,false,,,,420792.90000009537,420792.7000000477,,420792.2999999523,,420799.871,8,400,,,
break_continue,html.Screen,4_98_2,2023-10-31T02:56:55.040Z,,0,,,NaN,,,,,,false,,,,420793.2000000477,420793.10000014305,,420792.90000009537,,420799.871,8,400,,,
sequence,flow.Sequence,4_98,2023-10-31T02:56:55.040Z,,0,,,3142.892000143067,completion,,,,,false,,,,420793.5,420793.10000014305,417633.998,417637.7999999523,417650.208,420799.871,8,400,,,
trial,html.Screen,4_99_0,2023-10-31T02:56:57.585Z,,0,2,,2539.1290000000154,response,ISIC_4652186.JPG,5,ISIC_0055440.JPG,ISIC_4652186.JPG,false,1,keypress(m),500,423339.2999999523,423339,420783.308,420793.60000014305,420799.871,423349.71,8,400,50,,ISIC_0055440.JPG
break,html.Screen,4_99_1,2023-10-31T02:57:07.580Z,,0,,,9999.882999999973,timeout,,,,,false,,,,433333.7999999523,433332.889,423333.236,423339.5,423349.71,433349.593,8,400,,,
break_continue,html.Screen,4_99_2,2023-10-31T02:57:09.314Z,,0,,,1709.7069999523228,response,,,,,false,continue,keypress(Space),,435068.10000014305,435059.2999999523,433332.889,433333.90000009537,433349.593,435082.73,8,400,,,
sequence,flow.Sequence,4_99,2023-10-31T02:57:09.314Z,,0,,,14259.428999952332,completion,,,,,false,,,,435068.10000014305,435059.2999999523,420783.308,420793.5,420799.871,435082.73,8,400,,,
trial,html.Screen,4_100_0,2023-10-31T02:57:12.580Z,,0,3,,3250.670000095386,response,ISIC_9021685.JPG,5,ISIC_0069274.JPG,ISIC_0069274.JPG,false,0,keypress(z),500,438333.60000014305,438333.40000009537,435065.988,435068.2000000477,435082.73,438349.15,8,400,1,,ISIC_9021685.JPG
break,html.Screen,4_100_1,2023-10-31T02:57:12.580Z,,0,,,NaN,,,,,,false,,,,438334.2999999523,438334.2000000477,,438333.7000000477,,438349.15,8,400,,,
break_continue,html.Screen,4_100_2,2023-10-31T02:57:12.581Z,,0,,,NaN,,,,,,false,,,,438334.60000014305,438334.5,,438334.5,,438349.15,8,400,,,
sequence,flow.Sequence,4_100,2023-10-31T02:57:12.581Z,,0,,,3251.7700000000186,completion,,,,,false,,,,438334.7999999523,438334.5,435065.988,435068.10000014305,435082.73,438349.15,8,400,,,
trial,html.Screen,4_101_0,2023-10-31T02:57:15.206Z,,0,3,,2610.649999952293,response,ISIC_0070784.JPG,6,ISIC_4728167.JPG,ISIC_4728167.JPG,false,0,keypress(z),500,440960,440959.7999999523,438332.724,438334.7999999523,438349.15,440965.629,8,400,2,,ISIC_0070784.JPG
break,html.Screen,4_101_1,2023-10-31T02:57:15.207Z,,0,,,NaN,,,,,,false,,,,440960.7999999523,440960.60000014305,,440960.2000000477,,440965.629,8,400,,,
break_continue,html.Screen,4_101_2,2023-10-31T02:57:15.207Z,,0,,,NaN,,,,,,false,,,,440961,440960.90000009537,,440960.7999999523,,440965.629,8,400,,,
sequence,flow.Sequence,4_101,2023-10-31T02:57:15.207Z,,0,,,2611.750000095344,completion,,,,,false,,,,440961.10000014305,440960.90000009537,438332.724,438334.7999999523,438349.15,440965.629,8,400,,,
trial,html.Screen,4_102_0,2023-10-31T02:57:18.442Z,,0,3,,3229.5710000476683,response,ISIC_0055924.JPG,5,ISIC_8851038.JPG,ISIC_8851038.JPG,false,0,keypress(z),500,444195.5,444195.2000000477,440948.867,440961.2000000477,440965.629,444198.801,8,400,3,,ISIC_0055924.JPG
break,html.Screen,4_102_1,2023-10-31T02:57:18.442Z,,0,,,NaN,,,,,,false,,,,444196.2999999523,444196.10000014305,,444195.7000000477,,444198.801,8,400,,,
break_continue,html.Screen,4_102_2,2023-10-31T02:57:18.443Z,,0,,,NaN,,,,,,false,,,,444196.60000014305,444196.40000009537,,444196.2999999523,,444198.801,8,400,,,
sequence,flow.Sequence,4_102,2023-10-31T02:57:18.443Z,,0,,,3230.771000095352,completion,,,,,false,,,,444196.7999999523,444196.40000009537,440948.867,440961.2000000477,440965.629,444198.801,8,400,,,
trial,html.Screen,4_103_0,2023-10-31T02:57:21.197Z,,0,3,,2751.899000047706,response,ISIC_0004686.JPG,4,ISIC_9241599.JPG,ISIC_0004686.JPG,false,1,keypress(m),500,446951,446950.7000000477,444182.125,444196.7999999523,444198.801,446965.501,8,400,4,,ISIC_9241599.JPG
break,html.Screen,4_103_1,2023-10-31T02:57:21.198Z,,0,,,NaN,,,,,,false,,,,446951.7999999523,446951.60000014305,,446951.10000014305,,446965.501,8,400,,,
break_continue,html.Screen,4_103_2,2023-10-31T02:57:21.198Z,,0,,,NaN,,,,,,false,,,,446952,446951.90000009537,,446951.7999999523,,446965.501,8,400,,,
sequence,flow.Sequence,4_103,2023-10-31T02:57:21.198Z,,0,,,2753.09900009539,completion,,,,,false,,,,446952.2000000477,446951.90000009537,444182.125,444196.7999999523,444198.801,446965.501,8,400,,,
trial,html.Screen,4_104_0,2023-10-31T02:57:24.192Z,,0,3,,2980.298999952327,response,ISIC_0061829.JPG,5,ISIC_1720840.JPG,ISIC_1720840.JPG,false,0,keypress(z),500,449945.90000009537,449945.7999999523,446948.85,446952.2000000477,446965.501,449948.436,8,400,5,,ISIC_0061829.JPG
break,html.Screen,4_104_1,2023-10-31T02:57:24.193Z,,0,,,NaN,,,,,,false,,,,449946.40000009537,449946.2999999523,,449946.10000014305,,449948.436,8,400,,,
break_continue,html.Screen,4_104_2,2023-10-31T02:57:24.193Z,,0,,,NaN,,,,,,false,,,,449946.60000014305,449946.5,,449946.5,,449948.436,8,400,,,
sequence,flow.Sequence,4_104,2023-10-31T02:57:24.193Z,,0,,,2980.9990000000107,completion,,,,,false,,,,449946.7000000477,449946.5,446948.85,446952.2000000477,446965.501,449948.436,8,400,,,
trial,html.Screen,4_105_0,2023-10-31T02:57:27.075Z,,0,3,,2880.4640000953805,response,ISIC_7136995.JPG,5,ISIC_7404937.JPG,ISIC_7404937.JPG,false,0,keypress(z),500,452829.2000000477,452828.90000009537,449931.896,449946.7000000477,449948.436,452831.686,8,400,6,,ISIC_7136995.JPG
break,html.Screen,4_105_1,2023-10-31T02:57:27.076Z,,0,,,NaN,,,,,,false,,,,452830,452829.7999999523,,452829.2999999523,,452831.686,8,400,,,
break_continue,html.Screen,4_105_2,2023-10-31T02:57:27.077Z,,0,,,NaN,,,,,,false,,,,452830.40000009537,452830.2999999523,,452830.2000000477,,452831.686,8,400,,,
sequence,flow.Sequence,4_105,2023-10-31T02:57:27.077Z,,0,,,2881.8639999523293,completion,,,,,false,,,,452830.5,452830.2999999523,449931.896,449946.7000000477,449948.436,452831.686,8,400,,,
trial,html.Screen,4_106_0,2023-10-31T02:57:30.518Z,,0,3,,3440.314000000013,response,ISIC_0961235.JPG,6,ISIC_2647643.JPG,ISIC_2647643.JPG,false,0,keypress(z),500,456272.2000000477,456272,452815.128,452830.7000000477,452831.686,456281.54,8,400,7,,ISIC_0961235.JPG
break,html.Screen,4_106_1,2023-10-31T02:57:30.519Z,,0,,,NaN,,,,,,false,,,,456273,456272.90000009537,,456272.40000009537,,456281.54,8,400,,,
break_continue,html.Screen,4_106_2,2023-10-31T02:57:30.519Z,,0,,,NaN,,,,,,false,,,,456273.2999999523,456273.2000000477,,456273.2000000477,,456281.54,8,400,,,
sequence,flow.Sequence,4_106,2023-10-31T02:57:30.521Z,,0,,,3441.5140000476968,completion,,,,,false,,,,456274.7999999523,456273.2000000477,452815.128,452830.60000014305,452831.686,456281.54,8,400,,,
trial,html.Screen,4_107_0,2023-10-31T02:57:33.980Z,,0,3,,3451.8600000953884,response,ISIC_0060978.JPG,5,ISIC_0029995.JPG,ISIC_0060978.JPG,false,1,keypress(m),500,459733.60000014305,459733.40000009537,456264.972,456275.10000014305,456281.54,459748.108,8,400,8,,ISIC_0029995.JPG
break,html.Screen,4_107_1,2023-10-31T02:57:33.980Z,,0,,,NaN,,,,,,false,,,,459734.2999999523,459734.10000014305,,459733.7000000477,,459748.108,8,400,,,
break_continue,html.Screen,4_107_2,2023-10-31T02:57:33.981Z,,0,,,NaN,,,,,,false,,,,459734.60000014305,459734.5,,459734.5,,459748.108,8,400,,,
sequence,flow.Sequence,4_107,2023-10-31T02:57:33.981Z,,0,,,3452.960000000021,completion,,,,,false,,,,459734.7000000477,459734.5,456264.972,456275.10000014305,456281.54,459748.108,8,400,,,
trial,html.Screen,4_108_0,2023-10-31T02:57:36.528Z,,0,3,,2533.29200009536,response,ISIC_2341875.JPG,5,ISIC_0222117.JPG,ISIC_0222117.JPG,false,0,keypress(z),500,462281.60000014305,462281.40000009537,459731.458,459734.90000009537,459748.108,462298.09,8,400,9,,ISIC_2341875.JPG
break,html.Screen,4_108_1,2023-10-31T02:57:36.529Z,,0,,,NaN,,,,,,false,,,,462282.40000009537,462282.2000000477,,462281.7999999523,,462298.09,8,400,,,
break_continue,html.Screen,4_108_2,2023-10-31T02:57:36.529Z,,0,,,NaN,,,,,,false,,,,462282.7000000477,462282.60000014305,,462282.5,,462298.09,8,400,,,
sequence,flow.Sequence,4_108,2023-10-31T02:57:36.529Z,,0,,,2534.4920001430437,completion,,,,,false,,,,462282.90000009537,462282.60000014305,459731.458,459734.7999999523,459748.108,462298.09,8,400,,,
trial,html.Screen,4_109_0,2023-10-31T02:57:39.410Z,,0,3,,2865.7099999522907,response,ISIC_9819223.JPG,5,ISIC_6448654.JPG,ISIC_9819223.JPG,false,1,keypress(m),500,465164.10000014305,465163.7999999523,462281.51,462283,462298.09,465181.173,8,400,10,,ISIC_6448654.JPG
break,html.Screen,4_109_1,2023-10-31T02:57:39.411Z,,0,,,NaN,,,,,,false,,,,465165.10000014305,465164.90000009537,,465164.2000000477,,465181.173,8,400,,,
break_continue,html.Screen,4_109_2,2023-10-31T02:57:39.412Z,,0,,,NaN,,,,,,false,,,,465165.5,465165.2999999523,,465165.2000000477,,465181.173,8,400,,,
sequence,flow.Sequence,4_109,2023-10-31T02:57:39.412Z,,0,,,2867.2099999522907,completion,,,,,false,,,,465165.60000014305,465165.2999999523,462281.51,462283,462298.09,465181.173,8,400,,,
trial,html.Screen,4_110_0,2023-10-31T02:57:41.782Z,,0,3,,2354.2270000953577,response,ISIC_0030943.JPG,5,ISIC_6168754.JPG,ISIC_6168754.JPG,false,0,keypress(z),500,467535.7000000477,467535.40000009537,465164.568,465165.7000000477,465181.173,467547.946,8,400,11,,ISIC_0030943.JPG
break,html.Screen,4_110_1,2023-10-31T02:57:41.783Z,,0,,,NaN,,,,,,false,,,,467536.40000009537,467536.2000000477,,467535.90000009537,,467547.946,8,400,,,
break_continue,html.Screen,4_110_2,2023-10-31T02:57:41.783Z,,0,,,NaN,,,,,,false,,,,467536.7000000477,467536.60000014305,,467536.60000014305,,467547.946,8,400,,,
sequence,flow.Sequence,4_110,2023-10-31T02:57:41.783Z,,0,,,2355.4270001430414,completion,,,,,false,,,,467536.7999999523,467536.60000014305,465164.568,465165.7000000477,465181.173,467547.946,8,400,,,
trial,html.Screen,4_111_0,2023-10-31T02:57:44.250Z,,0,3,,2455.2540000476874,response,ISIC_0066678.JPG,4,ISIC_5642824.JPG,ISIC_5642824.JPG,false,0,keypress(z),500,470003.40000009537,470003.2000000477,467531.315,467536.90000009537,467547.946,470014.251,8,400,12,,ISIC_0066678.JPG
break,html.Screen,4_111_1,2023-10-31T02:57:44.250Z,,0,,,NaN,,,,,,false,,,,470004.10000014305,470004.10000014305,,470003.60000014305,,470014.251,8,400,,,
break_continue,html.Screen,4_111_2,2023-10-31T02:57:44.251Z,,0,,,NaN,,,,,,false,,,,470004.5,470004.2999999523,,470004.2000000477,,470014.251,8,400,,,
sequence,flow.Sequence,4_111,2023-10-31T02:57:44.251Z,,0,,,2456.35399995232,completion,,,,,false,,,,470004.5,470004.2999999523,467531.315,467536.90000009537,467547.946,470014.251,8,400,,,
trial,html.Screen,4_112_0,2023-10-31T02:57:46.876Z,,0,3,,2615.349000143062,response,ISIC_7658729.JPG,5,ISIC_0054312.JPG,ISIC_7658729.JPG,false,1,keypress(m),500,472629.7999999523,472629.60000014305,469997.614,470004.60000014305,470014.251,472647.889,8,400,13,,ISIC_0054312.JPG
break,html.Screen,4_112_1,2023-10-31T02:57:46.876Z,,0,,,NaN,,,,,,false,,,,472630.10000014305,472630,,472629.7999999523,,472647.889,8,400,,,
break_continue,html.Screen,4_112_2,2023-10-31T02:57:46.876Z,,0,,,NaN,,,,,,false,,,,472630.10000014305,472630.10000014305,,472630.10000014305,,472647.889,8,400,,,
sequence,flow.Sequence,4_112,2023-10-31T02:57:46.876Z,,0,,,2615.849000143062,completion,,,,,false,,,,472630.2000000477,472630.10000014305,469997.614,470004.60000014305,470014.251,472647.889,8,400,,,
trial,html.Screen,4_113_0,2023-10-31T02:57:49.278Z,,0,3,,2383.7110001430265,response,ISIC_7428248.JPG,6,ISIC_7562175.JPG,ISIC_7562175.JPG,false,0,keypress(z),500,475031.90000009537,475031.60000014305,472614.136,472630.2999999523,472647.889,475047.328,8,400,14,,ISIC_7428248.JPG
break,html.Screen,4_113_1,2023-10-31T02:57:49.279Z,,0,,,NaN,,,,,,false,,,,475032.7000000477,475032.5,,475032.10000014305,,475047.328,8,400,,,
break_continue,html.Screen,4_113_2,2023-10-31T02:57:49.279Z,,0,,,NaN,,,,,,false,,,,475033,475032.7999999523,,475032.7999999523,,475047.328,8,400,,,
sequence,flow.Sequence,4_113,2023-10-31T02:57:49.279Z,,0,,,2384.9109999522916,completion,,,,,false,,,,475033,475032.7999999523,472614.136,472630.2999999523,472647.889,475047.328,8,400,,,
trial,html.Screen,4_114_0,2023-10-31T02:57:51.793Z,,0,3,,2499.072000095388,response,ISIC_0014092.JPG,5,ISIC_0028396.JPG,ISIC_0014092.JPG,false,1,keypress(m),500,477546.60000014305,477546.40000009537,475030.749,475033.2000000477,475047.328,477563.886,8,400,15,,ISIC_0028396.JPG
break,html.Screen,4_114_1,2023-10-31T02:57:51.794Z,,0,,,NaN,,,,,,false,,,,477547.40000009537,477547.2999999523,,477546.7000000477,,477563.886,8,400,,,
break_continue,html.Screen,4_114_2,2023-10-31T02:57:51.794Z,,0,,,NaN,,,,,,false,,,,477547.7000000477,477547.60000014305,,477547.40000009537,,477563.886,8,400,,,
sequence,flow.Sequence,4_114,2023-10-31T02:57:51.794Z,,0,,,2500.2720001430716,completion,,,,,false,,,,477547.7999999523,477547.60000014305,475030.749,475033.10000014305,475047.328,477563.886,8,400,,,
trial,html.Screen,4_115_0,2023-10-31T02:57:54.308Z,,0,3,,2497.514000095369,response,ISIC_0025277.JPG,4,ISIC_4307626.JPG,ISIC_4307626.JPG,false,0,keypress(z),500,480061.60000014305,480061.40000009537,477547.243,477548,477563.886,480063.813,8,400,16,,ISIC_0025277.JPG
break,html.Screen,4_115_1,2023-10-31T02:57:54.309Z,,0,,,NaN,,,,,,false,,,,480062.40000009537,480062.2000000477,,480061.7999999523,,480063.813,8,400,,,
break_continue,html.Screen,4_115_2,2023-10-31T02:57:54.309Z,,0,,,NaN,,,,,,false,,,,480062.7000000477,480062.60000014305,,480062.5,,480063.813,8,400,,,
sequence,flow.Sequence,4_115,2023-10-31T02:57:54.309Z,,0,,,2498.7140001430525,completion,,,,,false,,,,480062.7999999523,480062.60000014305,477547.243,477547.90000009537,477563.886,480063.813,8,400,,,
trial,html.Screen,4_116_0,2023-10-31T02:57:56.920Z,,0,3,,2609.38700004766,response,ISIC_0061231.JPG,4,ISIC_0027804.JPG,ISIC_0027804.JPG,false,0,keypress(z),500,482673.40000009537,482673.2000000477,480047.259,480063,480063.813,482696.98,8,400,17,,ISIC_0061231.JPG
break,html.Screen,4_116_1,2023-10-31T02:57:56.920Z,,0,,,NaN,,,,,,false,,,,482674.2000000477,482674,,482673.7000000477,,482696.98,8,400,,,
break_continue,html.Screen,4_116_2,2023-10-31T02:57:56.921Z,,0,,,NaN,,,,,,false,,,,482674.40000009537,482674.40000009537,,482674.2999999523,,482696.98,8,400,,,
sequence,flow.Sequence,4_116,2023-10-31T02:57:56.921Z,,0,,,2610.5870000953437,completion,,,,,false,,,,482674.60000014305,482674.40000009537,480047.259,480062.90000009537,480063.813,482696.98,8,400,,,
trial,html.Screen,4_117_0,2023-10-31T02:57:59.595Z,,0,3,,2651.319999952335,response,ISIC_0070992.JPG,5,ISIC_6253295.JPG,ISIC_6253295.JPG,false,0,keypress(z),500,485348.5,485348.2999999523,482680.354,482674.7000000477,482696.98,485363.668,8,400,18,,ISIC_0070992.JPG
break,html.Screen,4_117_1,2023-10-31T02:57:59.595Z,,0,,,NaN,,,,,,false,,,,485349.10000014305,485349,,485348.60000014305,,485363.668,8,400,,,
break_continue,html.Screen,4_117_2,2023-10-31T02:57:59.596Z,,0,,,NaN,,,,,,false,,,,485349.2999999523,485349.2999999523,,485349.2000000477,,485363.668,8,400,,,
sequence,flow.Sequence,4_117,2023-10-31T02:57:59.596Z,,0,,,2652.319999952335,completion,,,,,false,,,,485349.5,485349.2999999523,482680.354,482674.60000014305,482696.98,485363.668,8,400,,,
trial,html.Screen,4_118_0,2023-10-31T02:58:03.277Z,,0,3,,3667.0320000476786,response,ISIC_0029942.JPG,5,ISIC_1223648.JPG,ISIC_0029942.JPG,false,1,keypress(m),500,489030.90000009537,489030.7000000477,485346.998,485349.60000014305,485363.668,489046.705,8,400,19,,ISIC_1223648.JPG
break,html.Screen,4_118_1,2023-10-31T02:58:03.278Z,,0,,,NaN,,,,,,false,,,,489031.7000000477,489031.5,,489031.10000014305,,489046.705,8,400,,,
break_continue,html.Screen,4_118_2,2023-10-31T02:58:03.278Z,,0,,,NaN,,,,,,false,,,,489032.10000014305,489031.90000009537,,489031.90000009537,,489046.705,8,400,,,
sequence,flow.Sequence,4_118,2023-10-31T02:58:03.278Z,,0,,,3668.2320000953623,completion,,,,,false,,,,489032.2999999523,489031.90000009537,485346.998,485349.60000014305,485363.668,489046.705,8,400,,,
trial,html.Screen,4_119_0,2023-10-31T02:58:06.912Z,,0,3,,3619.0949999523,response,ISIC_5948901.JPG,6,ISIC_9353514.JPG,ISIC_5948901.JPG,false,1,keypress(m),500,492666,492665.7999999523,489030.023,489032.40000009537,489046.705,492696.646,8,400,20,,ISIC_9353514.JPG
break,html.Screen,4_119_1,2023-10-31T02:58:06.913Z,,0,,,NaN,,,,,,false,,,,492666.7000000477,492666.60000014305,,492666.2000000477,,492696.646,8,400,,,
break_continue,html.Screen,4_119_2,2023-10-31T02:58:06.913Z,,0,,,NaN,,,,,,false,,,,492667.10000014305,492666.90000009537,,492666.90000009537,,492696.646,8,400,,,
sequence,flow.Sequence,4_119,2023-10-31T02:58:06.913Z,,0,,,3620.195000095351,completion,,,,,false,,,,492667.2000000477,492666.90000009537,489030.023,489032.2999999523,489046.705,492696.646,8,400,,,
trial,html.Screen,4_120_0,2023-10-31T02:58:09.491Z,,0,3,,2547.554000047676,response,ISIC_4374554.JPG,5,ISIC_0005762.JPG,ISIC_0005762.JPG,false,0,keypress(z),500,495244.2999999523,495244.2000000477,492679.817,492667.2000000477,492696.646,495263.148,8,400,21,,ISIC_4374554.JPG
break,html.Screen,4_120_1,2023-10-31T02:58:09.491Z,,0,,,NaN,,,,,,false,,,,495245.10000014305,495244.90000009537,,495244.60000014305,,495263.148,8,400,,,
break_continue,html.Screen,4_120_2,2023-10-31T02:58:09.492Z,,0,,,NaN,,,,,,false,,,,495245.2999999523,495245.2999999523,,495245.2000000477,,495263.148,8,400,,,
sequence,flow.Sequence,4_120,2023-10-31T02:58:09.492Z,,0,,,2548.6539999523084,completion,,,,,false,,,,495245.40000009537,495245.2999999523,492679.817,492667.2000000477,492696.646,495263.148,8,400,,,
trial,html.Screen,4_121_0,2023-10-31T02:58:12.070Z,,0,3,,2560.052000047697,response,ISIC_4296456.JPG,5,ISIC_6125652.JPG,ISIC_4296456.JPG,false,1,keypress(m),500,497823.40000009537,497823.2000000477,495246.423,495245.5,495263.148,497829.629,8,400,22,,ISIC_6125652.JPG
break,html.Screen,4_121_1,2023-10-31T02:58:12.070Z,,0,,,NaN,,,,,,false,,,,497824.2000000477,497824.10000014305,,497823.60000014305,,497829.629,8,400,,,
break_continue,html.Screen,4_121_2,2023-10-31T02:58:12.071Z,,0,,,NaN,,,,,,false,,,,497824.7000000477,497824.5,,497824.40000009537,,497829.629,8,400,,,
sequence,flow.Sequence,4_121,2023-10-31T02:58:12.071Z,,0,,,2561.3520000000135,completion,,,,,false,,,,497824.7999999523,497824.5,495246.423,495245.5,495263.148,497829.629,8,400,,,
trial,html.Screen,4_122_0,2023-10-31T02:58:14.793Z,,0,3,,2717.271000095352,response,ISIC_5599298.JPG,5,ISIC_9987485.JPG,ISIC_9987485.JPG,false,0,keypress(z),500,500547.10000014305,500546.90000009537,497813.005,497825,497829.629,500562.93,8,400,23,,ISIC_5599298.JPG
break,html.Screen,4_122_1,2023-10-31T02:58:14.794Z,,0,,,NaN,,,,,,false,,,,500547.7999999523,500547.60000014305,,500547.2999999523,,500562.93,8,400,,,
break_continue,html.Screen,4_122_2,2023-10-31T02:58:14.794Z,,0,,,NaN,,,,,,false,,,,500548.2000000477,500548.10000014305,,500548,,500562.93,8,400,,,
sequence,flow.Sequence,4_122,2023-10-31T02:58:14.795Z,,0,,,2718.471000143036,completion,,,,,false,,,,500548.40000009537,500548.10000014305,497813.005,497824.90000009537,497829.629,500562.93,8,400,,,
trial,html.Screen,4_123_0,2023-10-31T02:58:17.421Z,,0,3,,2611.4700000953744,response,ISIC_6460137.JPG,5,ISIC_9323095.JPG,ISIC_6460137.JPG,false,1,keypress(m),500,503174.60000014305,503174.40000009537,500546.121,500548.60000014305,500562.93,503179.316,8,400,24,,ISIC_9323095.JPG
break,html.Screen,4_123_1,2023-10-31T02:58:17.422Z,,0,,,NaN,,,,,,false,,,,503175.2999999523,503175.10000014305,,503174.7999999523,,503179.316,8,400,,,
break_continue,html.Screen,4_123_2,2023-10-31T02:58:17.422Z,,0,,,NaN,,,,,,false,,,,503175.7000000477,503175.60000014305,,503175.40000009537,,503179.316,8,400,,,
sequence,flow.Sequence,4_123,2023-10-31T02:58:17.422Z,,0,,,2612.670000143058,completion,,,,,false,,,,503175.7999999523,503175.60000014305,500546.121,500548.40000009537,500562.93,503179.316,8,400,,,
trial,html.Screen,4_124_0,2023-10-31T02:58:20.784Z,,0,3,,3357.884000047692,response,ISIC_0071169.JPG,4,ISIC_9407690.JPG,ISIC_9407690.JPG,false,0,keypress(z),500,506537.5,506537.2000000477,503162.81,503176,503179.316,506545.874,8,400,25,,ISIC_0071169.JPG
break,html.Screen,4_124_1,2023-10-31T02:58:20.784Z,,0,,,NaN,,,,,,false,,,,506538.2999999523,506538.10000014305,,506537.60000014305,,506545.874,8,400,,,
break_continue,html.Screen,4_124_2,2023-10-31T02:58:20.785Z,,0,,,NaN,,,,,,false,,,,506538.5,506538.40000009537,,506538.2999999523,,506545.874,8,400,,,
sequence,flow.Sequence,4_124,2023-10-31T02:58:20.785Z,,0,,,3359.084000095376,completion,,,,,false,,,,506538.60000014305,506538.40000009537,503162.81,503176,503179.316,506545.874,8,400,,,
trial,html.Screen,4_125_0,2023-10-31T02:58:23.427Z,,0,3,,2634.6259999999893,response,ISIC_4789784.JPG,5,ISIC_5964676.JPG,ISIC_4789784.JPG,false,1,keypress(m),500,509180.7999999523,509180.5,506529.303,506538.7999999523,506545.874,509195.812,8,400,26,,ISIC_5964676.JPG
