sender,sender_type,sender_id,timestamp,meta,,blockNo,condition,duration,ended_on,img_left,img_reveal,img_right,loser,practice,response,response_action,selection_duration,time_commit,time_end,time_render,time_run,time_show,time_switch,total_blocks,total_trials,trialNo,url,winner
informed_consent,html.Screen,0,2023-05-01T17:37:28.245Z,"{""labjs_version"":""20.2.4"",""labjs_build"":{""flavor"":""production"",""commit"":""f5b4a49f956347addd546a832a3327688c2c0fef""},""location"":""https://run.pavlovia.org/MurrayBennett/melanoma-2afc/?participant=64601"",""userAgent"":""Mozilla/5.0 (Macintosh; Intel Mac OS X 10_15_7) AppleWebKit/537.36 (KHTML, like Gecko) Chrome/112.0.0.0 Safari/537.36"",""platform"":""MacIntel"",""language"":""en-US"",""locale"":""en-US"",""timeZone"":""America/Chicago"",""timezoneOffset"":300,""screen_width"":1440,""screen_height"":900,""scroll_width"":1440,""scroll_height"":657,""window_innerWidth"":1440,""window_innerHeight"":705,""devicePixelRatio"":2}",,,,365903.20899999404,response,,,,,,continue,click button,,368856.7999999821,368849.59999999404,2929.725,2928.699999988079,2946.391,368863.482,,,,"{""participant"":""64601""}",
Welcome,html.Screen,1,2023-05-01T17:38:02.049Z,,,,irregular,33795.41800000594,response,,,,,,continue,click button,,402661.7999999821,402658.90000000596,368846.816,368857.1999999881,368863.482,402662.13,,,,,
trial,html.Screen,2_0_0,2023-05-01T17:38:06.601Z,,0,0,,4550.369999999995,response,ISIC_0061792.JPG,,ISIC_4679428.JPG,ISIC_4679428.JPG,true,0,keypress(z),500,407213.1999999881,407212.5,402645.464,402662.1999999881,402662.13,407230.142,1,6,1,,ISIC_0061792.JPG
sequence,flow.Sequence,2_0,2023-05-01T17:38:06.601Z,,0,,,4550.369999999995,completion,,,,,true,,,,407213.7999999821,407212.5,402645.464,402662.09999999404,402662.13,407230.142,1,6,,,
trial,html.Screen,2_1_0,2023-05-01T17:38:10.598Z,,0,0,,3980.157999982126,response,ISIC_0776486.JPG,,ISIC_5199497.JPG,ISIC_5199497.JPG,true,0,keypress(z),500,411210.90000000596,411210.2999999821,407213.476,407214,407230.142,411213.316,1,6,2,,ISIC_0776486.JPG
sequence,flow.Sequence,2_1,2023-05-01T17:38:10.599Z,,0,,,3980.157999982126,completion,,,,,true,,,,411211.40000000596,411210.2999999821,407213.476,407213.90000000596,407230.142,411213.316,1,6,,,
trial,html.Screen,2_2_0,2023-05-01T17:38:17.894Z,,0,0,,7292.983999982127,response,ISIC_2556187.JPG,,ISIC_8575776.JPG,ISIC_8575776.JPG,true,0,keypress(z),500,418506.90000000596,418506.2999999821,411196.65,411211.59999999404,411213.316,418513.024,1,6,3,,ISIC_2556187.JPG
sequence,flow.Sequence,2_2,2023-05-01T17:38:17.895Z,,0,,,7292.983999982127,completion,,,,,true,,,,418507.2999999821,418506.2999999821,411196.65,411211.40000000596,411213.316,418513.024,1,6,,,
trial,html.Screen,2_3_0,2023-05-01T17:38:22.381Z,,0,0,,4480.675999988103,response,ISIC_8141769.JPG,,ISIC_9238366.JPG,ISIC_9238366.JPG,true,0,keypress(z),500,422993.90000000596,422993.6999999881,418496.358,418507.59999999404,418513.024,422996.178,1,6,4,,ISIC_8141769.JPG
sequence,flow.Sequence,2_3,2023-05-01T17:38:22.381Z,,0,,,4480.675999988103,completion,,,,,true,,,,422994.09999999404,422993.6999999881,418496.358,418507.5,418513.024,422996.178,1,6,,,
trial,html.Screen,2_4_0,2023-05-01T17:38:26.078Z,,0,0,,3693.722000005946,response,ISIC_8949026.JPG,,ISIC_9959593.JPG,ISIC_8949026.JPG,true,1,keypress(m),500,426690.59999999404,426689.90000000596,422979.512,422994.1999999881,422996.178,426696.867,1,6,5,,ISIC_9959593.JPG
sequence,flow.Sequence,2_4,2023-05-01T17:38:26.078Z,,0,,,3693.722000005946,completion,,,,,true,,,,426691,426689.90000000596,422979.512,422994.1999999881,422996.178,426696.867,1,6,,,
trial,html.Screen,2_5_0,2023-05-01T17:38:28.984Z,,0,0,,2899.033000005933,response,ISIC_0010479.JPG,,ISIC_0460240.JPG,ISIC_0460240.JPG,true,0,keypress(z),500,429596.59999999404,429595.90000000596,426680.201,426691.2999999821,426696.867,429613.417,1,6,6,,ISIC_0010479.JPG
sequence,flow.Sequence,2_5,2023-05-01T17:38:28.984Z,,0,,,2899.033000005933,completion,,,,,true,,,,429597.09999999404,429595.90000000596,426680.201,426691.1999999881,426696.867,429613.417,1,6,,,
loop,flow.Loop,2,2023-05-01T17:38:28.985Z,,,,,26933.770000005956,completion,,,,,true,,,,429597.2999999821,429595.90000000596,402645.464,402662,402662.13,429613.417,1,6,,,
exp_instructions,html.Screen,3,2023-05-01T17:38:39.361Z,,,,,10354.582999999984,response,,,,,,continue,keypress(Space),,439973.6999999881,439968,429596.751,429597.5,429613.417,439979.669,,,,,
trial,html.Screen,4_0_0,2023-05-01T17:38:43.800Z,,0,1,,4432.930999994045,response,ISIC_0014559.JPG,,ISIC_4548632.JPG,ISIC_4548632.JPG,false,0,keypress(z),500,444413.09999999404,444412.59999999404,439963.003,439974.09999999404,439979.669,444430.186,6,300,1,,ISIC_0014559.JPG
break,html.Screen,4_0_1,2023-05-01T17:38:43.802Z,,0,,,NaN,,,,,,false,,,,444415.09999999404,444414.6999999881,,444413.40000000596,,444430.186,6,300,,,
break_continue,html.Screen,4_0_2,2023-05-01T17:38:43.803Z,,0,,,NaN,,,,,,false,,,,444415.5,444415.40000000596,,444415.2999999821,,444430.186,6,300,,,
sequence,flow.Sequence,4_0,2023-05-01T17:38:43.803Z,,0,,,4435.731000005966,completion,,,,,false,,,,444415.59999999404,444415.40000000596,439963.003,439974,439979.669,444430.186,6,300,,,
trial,html.Screen,4_1_0,2023-05-01T17:38:49.206Z,,0,1,,5388.413999994053,response,ISIC_0027411.JPG,,ISIC_8705622.JPG,ISIC_8705622.JPG,false,0,keypress(z),500,449819.1999999881,449818.59999999404,444413.52,444415.6999999881,444430.186,449829.97,6,300,2,,ISIC_0027411.JPG
break,html.Screen,4_1_1,2023-05-01T17:38:49.208Z,,0,,,NaN,,,,,,false,,,,449820.7999999821,449820.40000000596,,449819.5,,449829.97,6,300,,,
break_continue,html.Screen,4_1_2,2023-05-01T17:38:49.208Z,,0,,,NaN,,,,,,false,,,,449821.2999999821,449821.1999999881,,449820.90000000596,,449829.97,6,300,,,
sequence,flow.Sequence,4_1,2023-05-01T17:38:49.208Z,,0,,,5391.013999988092,completion,,,,,false,,,,449821.40000000596,449821.1999999881,444413.52,444415.6999999881,444430.186,449829.97,6,300,,,
trial,html.Screen,4_2_0,2023-05-01T17:38:52.944Z,,0,1,,3726.1299999940675,response,ISIC_0029998.JPG,,ISIC_1194944.JPG,ISIC_1194944.JPG,false,0,keypress(z),500,453556.6999999881,453556.09999999404,449813.304,449821.59999999404,449829.97,453563.586,6,300,3,,ISIC_0029998.JPG
break,html.Screen,4_2_1,2023-05-01T17:38:52.945Z,,0,,,NaN,,,,,,false,,,,453558.2999999821,453558,,453557,,453563.586,6,300,,,
break_continue,html.Screen,4_2_2,2023-05-01T17:38:52.946Z,,0,,,NaN,,,,,,false,,,,453558.7999999821,453558.6999999881,,453558.40000000596,,453563.586,6,300,,,
sequence,flow.Sequence,4_2,2023-05-01T17:38:52.946Z,,0,,,3728.729999988107,completion,,,,,false,,,,453558.90000000596,453558.6999999881,449813.304,449821.59999999404,449829.97,453563.586,6,300,,,
trial,html.Screen,4_3_0,2023-05-01T17:38:55.733Z,,0,1,,2782.113999988069,response,ISIC_8436492.JPG,,ISIC_0001157.JPG,ISIC_8436492.JPG,false,1,keypress(m),500,456346.1999999881,456345.6999999881,453546.92,453559.09999999404,453563.586,456363.474,6,300,4,,ISIC_0001157.JPG
break,html.Screen,4_3_1,2023-05-01T17:38:55.735Z,,0,,,NaN,,,,,,false,,,,456347.6999999881,456347.40000000596,,456346.5,,456363.474,6,300,,,
break_continue,html.Screen,4_3_2,2023-05-01T17:38:55.735Z,,0,,,NaN,,,,,,false,,,,456348,456348,,456347.7999999821,,456363.474,6,300,,,
sequence,flow.Sequence,4_3,2023-05-01T17:38:55.735Z,,0,,,2784.4139999999898,completion,,,,,false,,,,456348.1999999881,456348,453546.92,453559.09999999404,453563.586,456363.474,6,300,,,
trial,html.Screen,4_4_0,2023-05-01T17:38:59.294Z,,0,1,,3543.0260000000126,response,ISIC_0027964.JPG,,ISIC_5087951.JPG,ISIC_5087951.JPG,false,0,keypress(z),500,459906.90000000596,459906.5,456346.808,456348.2999999821,456363.474,459913.332,6,300,5,,ISIC_0027964.JPG
break,html.Screen,4_4_1,2023-05-01T17:38:59.295Z,,0,,,NaN,,,,,,false,,,,459908.40000000596,459908.09999999404,,459907.09999999404,,459913.332,6,300,,,
break_continue,html.Screen,4_4_2,2023-05-01T17:38:59.296Z,,0,,,NaN,,,,,,false,,,,459909,459908.7999999821,,459908.59999999404,,459913.332,6,300,,,
sequence,flow.Sequence,4_4,2023-05-01T17:38:59.296Z,,0,,,3545.325999982131,completion,,,,,false,,,,459909.09999999404,459908.7999999821,456346.808,456348.1999999881,456363.474,459913.332,6,300,,,
trial,html.Screen,4_5_0,2023-05-01T17:39:06.334Z,,0,1,,7032.967999982124,response,ISIC_1166678.JPG,,ISIC_0033534.JPG,ISIC_0033534.JPG,false,0,keypress(z),500,466946.7999999821,466946.2999999821,459896.666,459909.2999999821,459913.332,466963.463,6,300,6,,ISIC_1166678.JPG
break,html.Screen,4_5_1,2023-05-01T17:39:06.335Z,,0,,,NaN,,,,,,false,,,,466948.5,466948.09999999404,,466947.09999999404,,466963.463,6,300,,,
break_continue,html.Screen,4_5_2,2023-05-01T17:39:06.336Z,,0,,,NaN,,,,,,false,,,,466948.90000000596,466948.6999999881,,466948.59999999404,,466963.463,6,300,,,
sequence,flow.Sequence,4_5,2023-05-01T17:39:06.336Z,,0,,,7035.367999988084,completion,,,,,false,,,,466949,466948.6999999881,459896.666,459909.1999999881,459913.332,466963.463,6,300,,,
trial,html.Screen,4_6_0,2023-05-01T17:39:09.485Z,,0,1,,3134.4370000059716,response,ISIC_1177153.JPG,,ISIC_3389695.JPG,ISIC_3389695.JPG,false,0,keypress(z),500,470098.40000000596,470097.90000000596,466946.797,466949.2999999821,466963.463,470113.337,6,300,7,,ISIC_1177153.JPG
break,html.Screen,4_6_1,2023-05-01T17:39:09.487Z,,0,,,NaN,,,,,,false,,,,470100.1999999881,470099.90000000596,,470098.7999999821,,470113.337,6,300,,,
break_continue,html.Screen,4_6_2,2023-05-01T17:39:09.488Z,,0,,,NaN,,,,,,false,,,,470100.6999999881,470100.5,,470100.40000000596,,470113.337,6,300,,,
sequence,flow.Sequence,4_6,2023-05-01T17:39:09.488Z,,0,,,3137.037000000011,completion,,,,,false,,,,470100.7999999821,470100.5,466946.797,466949.09999999404,466963.463,470113.337,6,300,,,
trial,html.Screen,4_7_0,2023-05-01T17:39:12.253Z,,0,1,,2752.6630000000005,response,ISIC_0663941.JPG,,ISIC_9765760.JPG,ISIC_0663941.JPG,false,1,keypress(m),500,472866.40000000596,472866,470096.671,470101,470113.337,472880.315,6,300,8,,ISIC_9765760.JPG
break,html.Screen,4_7_1,2023-05-01T17:39:12.255Z,,0,,,NaN,,,,,,false,,,,472868,472867.6999999881,,472866.7999999821,,472880.315,6,300,,,
break_continue,html.Screen,4_7_2,2023-05-01T17:39:12.255Z,,0,,,NaN,,,,,,false,,,,472868.59999999404,472868.40000000596,,472868.1999999881,,472880.315,6,300,,,
sequence,flow.Sequence,4_7,2023-05-01T17:39:12.256Z,,0,,,2755.063000005961,completion,,,,,false,,,,472868.6999999881,472868.40000000596,470096.671,470101,470113.337,472880.315,6,300,,,
trial,html.Screen,4_8_0,2023-05-01T17:39:15.294Z,,0,1,,3026.085000005958,response,ISIC_6208708.JPG,,ISIC_8483458.JPG,ISIC_8483458.JPG,false,0,keypress(z),500,475906.90000000596,475906.40000000596,472863.649,472868.7999999821,472880.315,475913.527,6,300,9,,ISIC_6208708.JPG
break,html.Screen,4_8_1,2023-05-01T17:39:15.295Z,,0,,,NaN,,,,,,false,,,,475908.5,475908.1999999881,,475907.2999999821,,475913.527,6,300,,,
break_continue,html.Screen,4_8_2,2023-05-01T17:39:15.296Z,,0,,,NaN,,,,,,false,,,,475909.2999999821,475909.09999999404,,475908.6999999881,,475913.527,6,300,,,
sequence,flow.Sequence,4_8,2023-05-01T17:39:15.296Z,,0,,,3028.784999994037,completion,,,,,false,,,,475909.59999999404,475909.09999999404,472863.649,472868.7999999821,472880.315,475913.527,6,300,,,
trial,html.Screen,4_9_0,2023-05-01T17:39:19.832Z,,0,1,,4530.873000005959,response,ISIC_0008619.JPG,,ISIC_0871853.JPG,ISIC_0871853.JPG,false,0,keypress(z),500,480444.7999999821,480444.40000000596,475896.861,475909.7999999821,475913.527,480446.679,6,300,10,,ISIC_0008619.JPG
break,html.Screen,4_9_1,2023-05-01T17:39:19.833Z,,0,,,NaN,,,,,,false,,,,480446.40000000596,480446.09999999404,,480445.09999999404,,480446.679,6,300,,,
break_continue,html.Screen,4_9_2,2023-05-01T17:39:19.834Z,,0,,,NaN,,,,,,false,,,,480446.7999999821,480446.7999999821,,480446.5,,480446.679,6,300,,,
sequence,flow.Sequence,4_9,2023-05-01T17:39:19.834Z,,0,,,4533.272999982117,completion,,,,,false,,,,480447,480446.7999999821,475896.861,475909.6999999881,475913.527,480446.679,6,300,,,
trial,html.Screen,4_10_0,2023-05-01T17:39:24.038Z,,0,1,,4203.520999988075,response,ISIC_4045781.JPG,,ISIC_8190708.JPG,ISIC_8190708.JPG,false,0,keypress(z),500,484650.7999999821,484650.1999999881,480430.013,480447.1999999881,480446.679,484663.596,6,300,11,,ISIC_4045781.JPG
break,html.Screen,4_10_1,2023-05-01T17:39:24.039Z,,0,,,NaN,,,,,,false,,,,484652.5,484652.09999999404,,484651,,484663.596,6,300,,,
break_continue,html.Screen,4_10_2,2023-05-01T17:39:24.040Z,,0,,,NaN,,,,,,false,,,,484652.90000000596,484652.7999999821,,484652.59999999404,,484663.596,6,300,,,
sequence,flow.Sequence,4_10,2023-05-01T17:39:24.040Z,,0,,,4206.120999982115,completion,,,,,false,,,,484653.09999999404,484652.7999999821,480430.013,480447.1999999881,480446.679,484663.596,6,300,,,
trial,html.Screen,4_11_0,2023-05-01T17:39:27.702Z,,0,1,,3650.804000005941,response,ISIC_8579575.JPG,,ISIC_7563949.JPG,ISIC_7563949.JPG,false,0,keypress(z),500,488314.7999999821,488314.40000000596,484646.93,484653.1999999881,484663.596,488330.116,6,300,12,,ISIC_8579575.JPG
break,html.Screen,4_11_1,2023-05-01T17:39:27.703Z,,0,,,NaN,,,,,,false,,,,488316.40000000596,488316.09999999404,,488315.09999999404,,488330.116,6,300,,,
break_continue,html.Screen,4_11_2,2023-05-01T17:39:27.704Z,,0,,,NaN,,,,,,false,,,,488316.90000000596,488316.7999999821,,488316.59999999404,,488330.116,6,300,,,
sequence,flow.Sequence,4_11,2023-05-01T17:39:27.704Z,,0,,,3653.203999982099,completion,,,,,false,,,,488317.09999999404,488316.7999999821,484646.93,484653.1999999881,484663.596,488330.116,6,300,,,
trial,html.Screen,4_12_0,2023-05-01T17:39:32.334Z,,0,1,,4616.48399999406,response,ISIC_5029636.JPG,,ISIC_0010379.JPG,ISIC_5029636.JPG,false,1,keypress(m),500,492947.09999999404,492946.59999999404,488313.45,488317.1999999881,488330.116,492963.693,6,300,13,,ISIC_0010379.JPG
break,html.Screen,4_12_1,2023-05-01T17:39:32.335Z,,0,,,NaN,,,,,,false,,,,492948.59999999404,492948.2999999821,,492947.2999999821,,492963.693,6,300,,,
break_continue,html.Screen,4_12_2,2023-05-01T17:39:32.336Z,,0,,,NaN,,,,,,false,,,,492949.09999999404,492948.90000000596,,492948.6999999881,,492963.693,6,300,,,
sequence,flow.Sequence,4_12,2023-05-01T17:39:32.336Z,,0,,,4618.7840000059805,completion,,,,,false,,,,492949.1999999881,492948.90000000596,488313.45,488317.09999999404,488330.116,492963.693,6,300,,,
trial,html.Screen,4_13_0,2023-05-01T17:39:35.654Z,,0,1,,3303.3069999999716,response,ISIC_3070206.JPG,,ISIC_3058627.JPG,ISIC_3058627.JPG,false,0,keypress(z),500,496267.2999999821,496267,492947.027,492949.40000000596,492963.693,496280.227,6,300,14,,ISIC_3070206.JPG
break,html.Screen,4_13_1,2023-05-01T17:39:35.655Z,,0,,,NaN,,,,,,false,,,,496268.59999999404,496268.40000000596,,496267.59999999404,,496280.227,6,300,,,
break_continue,html.Screen,4_13_2,2023-05-01T17:39:35.656Z,,0,,,NaN,,,,,,false,,,,496269,496268.90000000596,,496268.7999999821,,496280.227,6,300,,,
sequence,flow.Sequence,4_13,2023-05-01T17:39:35.656Z,,0,,,3305.207000005932,completion,,,,,false,,,,496269.09999999404,496268.90000000596,492947.027,492949.40000000596,492963.693,496280.227,6,300,,,
trial,html.Screen,4_14_0,2023-05-01T17:39:38.653Z,,0,1,,2986.173000005947,response,ISIC_6384927.JPG,,ISIC_0057898.JPG,ISIC_6384927.JPG,false,1,keypress(m),500,499266.90000000596,499266.40000000596,496263.561,496269.1999999881,496280.227,499280.107,6,300,15,,ISIC_0057898.JPG
break,html.Screen,4_14_1,2023-05-01T17:39:38.655Z,,0,,,NaN,,,,,,false,,,,499268.5,499268.1999999881,,499267.1999999881,,499280.107,6,300,,,
break_continue,html.Screen,4_14_2,2023-05-01T17:39:38.656Z,,0,,,NaN,,,,,,false,,,,499268.90000000596,499268.7999999821,,499268.59999999404,,499280.107,6,300,,,
sequence,flow.Sequence,4_14,2023-05-01T17:39:38.656Z,,0,,,2988.572999982105,completion,,,,,false,,,,499269.09999999404,499268.7999999821,496263.561,496269.09999999404,496280.227,499280.107,6,300,,,
trial,html.Screen,4_15_0,2023-05-01T17:39:41.645Z,,0,1,,2978.1929999821004,response,ISIC_1566931.JPG,,ISIC_4320200.JPG,ISIC_4320200.JPG,false,0,keypress(z),500,502258.7999999821,502258.2999999821,499263.441,499269.1999999881,499280.107,502263.321,6,300,16,,ISIC_1566931.JPG
break,html.Screen,4_15_1,2023-05-01T17:39:41.647Z,,0,,,NaN,,,,,,false,,,,502260.40000000596,502260.1999999881,,502259.09999999404,,502263.321,6,300,,,
break_continue,html.Screen,4_15_2,2023-05-01T17:39:41.647Z,,0,,,NaN,,,,,,false,,,,502260.7999999821,502260.6999999881,,502260.59999999404,,502263.321,6,300,,,
sequence,flow.Sequence,4_15,2023-05-01T17:39:41.648Z,,0,,,2980.592999988061,completion,,,,,false,,,,502260.90000000596,502260.6999999881,499263.441,499269.1999999881,499280.107,502263.321,6,300,,,
trial,html.Screen,4_16_0,2023-05-01T17:39:44.909Z,,0,1,,3258.878999988083,response,ISIC_0065748.JPG,,ISIC_0068259.JPG,ISIC_0068259.JPG,false,0,keypress(z),500,505522.5,505522.1999999881,502246.655,502261,502263.321,505530.315,6,300,17,,ISIC_0065748.JPG
break,html.Screen,4_16_1,2023-05-01T17:39:44.910Z,,0,,,NaN,,,,,,false,,,,505523.5,505523.2999999821,,505522.6999999881,,505530.315,6,300,,,
break_continue,html.Screen,4_16_2,2023-05-01T17:39:44.910Z,,0,,,NaN,,,,,,false,,,,505523.90000000596,505523.7999999821,,505523.6999999881,,505530.315,6,300,,,
sequence,flow.Sequence,4_16,2023-05-01T17:39:44.911Z,,0,,,3260.4789999821223,completion,,,,,false,,,,505524,505523.7999999821,502246.655,502261,502263.321,505530.315,6,300,,,
trial,html.Screen,4_17_0,2023-05-01T17:39:48.060Z,,0,1,,3142.8849999880767,response,ISIC_0033966.JPG,,ISIC_6801680.JPG,ISIC_6801680.JPG,false,0,keypress(z),500,508673.59999999404,508673.1999999881,505513.649,505524.09999999404,505530.315,508680.189,6,300,18,,ISIC_0033966.JPG
break,html.Screen,4_17_1,2023-05-01T17:39:48.062Z,,0,,,NaN,,,,,,false,,,,508675.1999999881,508675,,508674,,508680.189,6,300,,,
break_continue,html.Screen,4_17_2,2023-05-01T17:39:48.062Z,,0,,,NaN,,,,,,false,,,,508675.7999999821,508675.59999999404,,508675.40000000596,,508680.189,6,300,,,
sequence,flow.Sequence,4_17,2023-05-01T17:39:48.062Z,,0,,,3145.284999994037,completion,,,,,false,,,,508676,508675.59999999404,505513.649,505524.09999999404,505530.315,508680.189,6,300,,,
trial,html.Screen,4_18_0,2023-05-01T17:39:54.366Z,,0,1,,6298.4109999940265,response,ISIC_0055136.JPG,,ISIC_7131359.JPG,ISIC_0055136.JPG,false,1,keypress(m),500,514979.1999999881,514978.59999999404,508663.523,508676.09999999404,508680.189,514980.402,6,300,19,,ISIC_7131359.JPG
break,html.Screen,4_18_1,2023-05-01T17:39:54.367Z,,0,,,NaN,,,,,,false,,,,514980.59999999404,514980.40000000596,,514979.40000000596,,514980.402,6,300,,,
break_continue,html.Screen,4_18_2,2023-05-01T17:39:54.367Z,,0,,,NaN,,,,,,false,,,,514980.90000000596,514980.90000000596,,514980.7999999821,,514980.402,6,300,,,
sequence,flow.Sequence,4_18,2023-05-01T17:39:54.368Z,,0,,,6300.711000005947,completion,,,,,false,,,,514981.09999999404,514980.90000000596,508663.523,508676,508680.189,514980.402,6,300,,,
trial,html.Screen,4_19_0,2023-05-01T17:39:58.076Z,,0,1,,3709.1979999940377,response,ISIC_9935444.JPG,,ISIC_0054673.JPG,ISIC_9935444.JPG,false,1,keypress(m),500,518690,518689.59999999404,514963.736,514981.1999999881,514980.402,518696.92,6,300,20,,ISIC_0054673.JPG
break,html.Screen,4_19_1,2023-05-01T17:39:58.078Z,,0,,,NaN,,,,,,false,,,,518691.59999999404,518691.2999999821,,518690.2999999821,,518696.92,6,300,,,
break_continue,html.Screen,4_19_2,2023-05-01T17:39:58.078Z,,0,,,NaN,,,,,,false,,,,518691.90000000596,518691.7999999821,,518691.6999999881,,518696.92,6,300,,,
sequence,flow.Sequence,4_19,2023-05-01T17:39:58.078Z,,0,,,3711.3979999821167,completion,,,,,false,,,,518692.09999999404,518691.7999999821,514963.736,514981.1999999881,514980.402,518696.92,6,300,,,
trial,html.Screen,4_20_0,2023-05-01T17:40:01.302Z,,0,1,,3217.7799999880954,response,ISIC_0011064.JPG,,ISIC_0046316.JPG,ISIC_0011064.JPG,false,1,keypress(m),500,521915.2999999821,521914.6999999881,518680.254,518692.09999999404,518696.92,521930.124,6,300,21,,ISIC_0046316.JPG
break,html.Screen,4_20_1,2023-05-01T17:40:01.303Z,,0,,,NaN,,,,,,false,,,,521916.90000000596,521916.59999999404,,521915.59999999404,,521930.124,6,300,,,
break_continue,html.Screen,4_20_2,2023-05-01T17:40:01.304Z,,0,,,NaN,,,,,,false,,,,521917.40000000596,521917.2999999821,,521917.09999999404,,521930.124,6,300,,,
sequence,flow.Sequence,4_20,2023-05-01T17:40:01.304Z,,0,,,3220.379999982135,completion,,,,,false,,,,521917.5,521917.2999999821,518680.254,518692.09999999404,518696.92,521930.124,6,300,,,
trial,html.Screen,4_21_0,2023-05-01T17:40:04.301Z,,0,1,,2983.7760000059498,response,ISIC_0011641.JPG,,ISIC_3727059.JPG,ISIC_3727059.JPG,false,0,keypress(z),500,524914.2999999821,524913.900000006,521913.458,521917.7999999821,521930.124,524930.004,6,300,22,,ISIC_0011641.JPG
break,html.Screen,4_21_1,2023-05-01T17:40:04.302Z,,0,,,NaN,,,,,,false,,,,524915.5,524915.2999999821,,524914.599999994,,524930.004,6,300,,,
break_continue,html.Screen,4_21_2,2023-05-01T17:40:04.302Z,,0,,,NaN,,,,,,false,,,,524915.900000006,524915.7999999821,,524915.599999994,,524930.004,6,300,,,
sequence,flow.Sequence,4_21,2023-05-01T17:40:04.302Z,,0,,,2985.675999982108,completion,,,,,false,,,,524915.900000006,524915.7999999821,521913.458,521917.6999999881,521930.124,524930.004,6,300,,,
trial,html.Screen,4_22_0,2023-05-01T17:40:07.319Z,,0,1,,3002.0959999940824,response,ISIC_0025589.JPG,,ISIC_5005869.JPG,ISIC_0025589.JPG,false,1,keypress(m),500,527932.5,527932.099999994,524913.338,524916,524930.004,527946.979,6,300,23,,ISIC_5005869.JPG
break,html.Screen,4_22_1,2023-05-01T17:40:07.320Z,,0,,,NaN,,,,,,false,,,,527934,527933.6999999881,,527932.7999999821,,527946.979,6,300,,,
break_continue,html.Screen,4_22_2,2023-05-01T17:40:07.321Z,,0,,,NaN,,,,,,false,,,,527934.5,527934.2999999821,,527934.1999999881,,527946.979,6,300,,,
sequence,flow.Sequence,4_22,2023-05-01T17:40:07.321Z,,0,,,3004.2959999821614,completion,,,,,false,,,,527934.6999999881,527934.2999999821,524913.338,524916,524930.004,527946.979,6,300,,,
trial,html.Screen,4_23_0,2023-05-01T17:40:09.934Z,,0,1,,2599.8209999820683,response,ISIC_3043475.JPG,,ISIC_0065204.JPG,ISIC_3043475.JPG,false,1,keypress(m),500,530547.1999999881,530546.7999999821,527930.313,527934.7999999821,527946.979,530563.541,6,300,24,,ISIC_0065204.JPG
break,html.Screen,4_23_1,2023-05-01T17:40:09.935Z,,0,,,NaN,,,,,,false,,,,530548.900000006,530548.599999994,,530547.599999994,,530563.541,6,300,,,
break_continue,html.Screen,4_23_2,2023-05-01T17:40:09.936Z,,0,,,NaN,,,,,,false,,,,530549.400000006,530549.1999999881,,530549.099999994,,530563.541,6,300,,,
sequence,flow.Sequence,4_23,2023-05-01T17:40:09.936Z,,0,,,2602.220999988029,completion,,,,,false,,,,530549.5,530549.1999999881,527930.313,527934.7999999821,527946.979,530563.541,6,300,,,
trial,html.Screen,4_24_0,2023-05-01T17:40:13.597Z,,0,1,,3646.7589999821503,response,ISIC_7945429.JPG,,ISIC_0009893.JPG,ISIC_0009893.JPG,false,0,keypress(z),500,534210.7999999821,534210.2999999821,530546.875,530549.599999994,530563.541,534213.395,6,300,25,,ISIC_7945429.JPG
break,html.Screen,4_24_1,2023-05-01T17:40:13.599Z,,0,,,NaN,,,,,,false,,,,534212.400000006,534212.099999994,,534211.099999994,,534213.395,6,300,,,
break_continue,html.Screen,4_24_2,2023-05-01T17:40:13.599Z,,0,,,NaN,,,,,,false,,,,534212.7999999821,534212.6999999881,,534212.599999994,,534213.395,6,300,,,
sequence,flow.Sequence,4_24,2023-05-01T17:40:13.599Z,,0,,,3649.1589999881107,completion,,,,,false,,,,534213,534212.6999999881,530546.875,530549.599999994,530563.541,534213.395,6,300,,,
trial,html.Screen,4_25_0,2023-05-01T17:40:20.726Z,,0,1,,7125.604999999981,response,ISIC_4208361.JPG,,ISIC_0031611.JPG,ISIC_0031611.JPG,false,0,keypress(z),500,541339.5,541339,534196.729,534213.099999994,534213.395,541346.862,6,300,26,,ISIC_4208361.JPG
break,html.Screen,4_25_1,2023-05-01T17:40:20.727Z,,0,,,NaN,,,,,,false,,,,541341.1999999881,541340.7999999821,,541339.7999999821,,541346.862,6,300,,,
break_continue,html.Screen,4_25_2,2023-05-01T17:40:20.728Z,,0,,,NaN,,,,,,false,,,,541341.599999994,541341.400000006,,541341.1999999881,,541346.862,6,300,,,
sequence,flow.Sequence,4_25,2023-05-01T17:40:20.728Z,,0,,,7128.005000005942,completion,,,,,false,,,,541341.7999999821,541341.400000006,534196.729,534213.099999994,534213.395,541346.862,6,300,,,
trial,html.Screen,4_26_0,2023-05-01T17:40:26.021Z,,0,1,,5287.538000005996,response,ISIC_0071778.JPG,,ISIC_3416107.JPG,ISIC_3416107.JPG,false,0,keypress(z),500,546634.7999999821,546634.400000006,541330.196,541341.900000006,541346.862,546647.084,6,300,27,,ISIC_0071778.JPG
break,html.Screen,4_26_1,2023-05-01T17:40:26.023Z,,0,,,NaN,,,,,,false,,,,546636.400000006,546636.099999994,,546635.099999994,,546647.084,6,300,,,
break_continue,html.Screen,4_26_2,2023-05-01T17:40:26.023Z,,0,,,NaN,,,,,,false,,,,546636.900000006,546636.7999999821,,546636.5,,546647.084,6,300,,,
sequence,flow.Sequence,4_26,2023-05-01T17:40:26.023Z,,0,,,5289.937999982154,completion,,,,,false,,,,546637,546636.7999999821,541330.196,541341.900000006,541346.862,546647.084,6,300,,,
trial,html.Screen,4_27_0,2023-05-01T17:40:28.878Z,,0,1,,2844.4159999999683,response,ISIC_0012672.JPG,,ISIC_0032783.JPG,ISIC_0012672.JPG,false,1,keypress(m),500,549492,549491.5,546630.418,546637.1999999881,546647.084,549496.97,6,300,28,,ISIC_0032783.JPG
break,html.Screen,4_27_1,2023-05-01T17:40:28.880Z,,0,,,NaN,,,,,,false,,,,549493.599999994,549493.400000006,,549492.400000006,,549496.97,6,300,,,
break_continue,html.Screen,4_27_2,2023-05-01T17:40:28.880Z,,0,,,NaN,,,,,,false,,,,549493.900000006,549493.7999999821,,549493.7999999821,,549496.97,6,300,,,
sequence,flow.Sequence,4_27,2023-05-01T17:40:28.880Z,,0,,,2846.715999982087,completion,,,,,false,,,,549494,549493.7999999821,546630.418,546637.099999994,546647.084,549496.97,6,300,,,
trial,html.Screen,4_28_0,2023-05-01T17:40:31.655Z,,0,1,,2771.1299999940675,response,ISIC_0604532.JPG,,ISIC_4001990.JPG,ISIC_4001990.JPG,false,0,keypress(z),500,552268.599999994,552268.099999994,549480.304,549494.1999999881,549496.97,552280.192,6,300,29,,ISIC_0604532.JPG
break,html.Screen,4_28_1,2023-05-01T17:40:31.656Z,,0,,,NaN,,,,,,false,,,,552270.2999999821,552270,,552268.900000006,,552280.192,6,300,,,
break_continue,html.Screen,4_28_2,2023-05-01T17:40:31.657Z,,0,,,NaN,,,,,,false,,,,552270.6999999881,552270.5,,552270.5,,552280.192,6,300,,,
sequence,flow.Sequence,4_28,2023-05-01T17:40:31.657Z,,0,,,2773.530000000028,completion,,,,,false,,,,552270.7999999821,552270.5,549480.304,549494.1999999881,549496.97,552280.192,6,300,,,
trial,html.Screen,4_29_0,2023-05-01T17:40:34.301Z,,0,1,,2633.807999999961,response,ISIC_0032921.JPG,,ISIC_0029316.JPG,ISIC_0032921.JPG,false,1,keypress(m),500,554914.5,554914,552263.526,552270.7999999821,552280.192,554930.086,6,300,30,,ISIC_0029316.JPG
break,html.Screen,4_29_1,2023-05-01T17:40:34.302Z,,0,,,NaN,,,,,,false,,,,554916,554915.7999999821,,554914.7999999821,,554930.086,6,300,,,
break_continue,html.Screen,4_29_2,2023-05-01T17:40:34.303Z,,0,,,NaN,,,,,,false,,,,554916.5,554916.2999999821,,554916.1999999881,,554930.086,6,300,,,
sequence,flow.Sequence,4_29,2023-05-01T17:40:34.303Z,,0,,,2636.1079999820795,completion,,,,,false,,,,554916.6999999881,554916.2999999821,552263.526,552270.7999999821,552280.192,554930.086,6,300,,,
trial,html.Screen,4_30_0,2023-05-01T17:40:37.366Z,,0,1,,3049.9139999999898,response,ISIC_0046394.JPG,,ISIC_0015079.JPG,ISIC_0015079.JPG,false,0,keypress(z),500,557980.400000006,557980,554913.42,554916.7999999821,554930.086,557997.06,6,300,31,,ISIC_0046394.JPG
break,html.Screen,4_30_1,2023-05-01T17:40:37.368Z,,0,,,NaN,,,,,,false,,,,557981.6999999881,557981.5,,557980.6999999881,,557997.06,6,300,,,
break_continue,html.Screen,4_30_2,2023-05-01T17:40:37.368Z,,0,,,NaN,,,,,,false,,,,557982.2999999821,557982.099999994,,557981.900000006,,557997.06,6,300,,,
sequence,flow.Sequence,4_30,2023-05-01T17:40:37.369Z,,0,,,3052.0139999940293,completion,,,,,false,,,,557982.5,557982.099999994,554913.42,554916.7999999821,554930.086,557997.06,6,300,,,
trial,html.Screen,4_31_0,2023-05-01T17:40:40.980Z,,0,1,,3596.639999988023,response,ISIC_0003201.JPG,,ISIC_9337870.JPG,ISIC_0003201.JPG,false,1,keypress(m),500,561594.1999999881,561593.6999999881,557980.394,557982.6999999881,557997.06,561596.916,6,300,32,,ISIC_9337870.JPG
break,html.Screen,4_31_1,2023-05-01T17:40:40.982Z,,0,,,NaN,,,,,,false,,,,561595.5,561595.1999999881,,561594.400000006,,561596.916,6,300,,,
break_continue,html.Screen,4_31_2,2023-05-01T17:40:40.982Z,,0,,,NaN,,,,,,false,,,,561595.7999999821,561595.6999999881,,561595.599999994,,561596.916,6,300,,,
sequence,flow.Sequence,4_31,2023-05-01T17:40:40.982Z,,0,,,3598.639999988023,completion,,,,,false,,,,561596,561595.6999999881,557980.394,557982.599999994,557997.06,561596.916,6,300,,,
trial,html.Screen,4_32_0,2023-05-01T17:40:43.598Z,,0,1,,2614.683999994071,response,ISIC_0072559.JPG,,ISIC_5583159.JPG,ISIC_5583159.JPG,false,0,keypress(z),500,564212,564211.599999994,561580.25,561596,561596.916,564213.478,6,300,33,,ISIC_0072559.JPG
break,html.Screen,4_32_1,2023-05-01T17:40:43.600Z,,0,,,NaN,,,,,,false,,,,564213.599999994,564213.2999999821,,564212.2999999821,,564213.478,6,300,,,
break_continue,html.Screen,4_32_2,2023-05-01T17:40:43.600Z,,0,,,NaN,,,,,,false,,,,564214,564213.900000006,,564213.6999999881,,564213.478,6,300,,,
sequence,flow.Sequence,4_32,2023-05-01T17:40:43.600Z,,0,,,2616.984000005992,completion,,,,,false,,,,564214.1999999881,564213.900000006,561580.25,561596,561596.916,564213.478,6,300,,,
trial,html.Screen,4_33_0,2023-05-01T17:40:46.470Z,,0,1,,2870.321999982116,response,ISIC_0025391.JPG,,ISIC_7945429.JPG,ISIC_7945429.JPG,false,0,keypress(z),500,567084.1999999881,567083.7999999821,564196.812,564214.400000006,564213.478,567097.108,6,300,34,,ISIC_0025391.JPG
break,html.Screen,4_33_1,2023-05-01T17:40:46.472Z,,0,,,NaN,,,,,,false,,,,567086,567085.599999994,,567084.5,,567097.108,6,300,,,
break_continue,html.Screen,4_33_2,2023-05-01T17:40:46.472Z,,0,,,NaN,,,,,,false,,,,567086.400000006,567086.2999999821,,567086.099999994,,567097.108,6,300,,,
sequence,flow.Sequence,4_33,2023-05-01T17:40:46.473Z,,0,,,2872.821999982116,completion,,,,,false,,,,567086.599999994,567086.2999999821,564196.812,564214.2999999821,564213.478,567097.108,6,300,,,
trial,html.Screen,4_34_0,2023-05-01T17:40:49.525Z,,0,1,,3041.292000005953,response,ISIC_0032121.JPG,,ISIC_3123711.JPG,ISIC_3123711.JPG,false,0,keypress(z),500,570138.900000006,570138.400000006,567080.442,567086.6999999881,567097.108,570146.986,6,300,35,,ISIC_0032121.JPG
break,html.Screen,4_34_1,2023-05-01T17:40:49.526Z,,0,,,NaN,,,,,,false,,,,570140.5,570140.1999999881,,570139.1999999881,,570146.986,6,300,,,
break_continue,html.Screen,4_34_2,2023-05-01T17:40:49.527Z,,0,,,NaN,,,,,,false,,,,570140.900000006,570140.7999999821,,570140.599999994,,570146.986,6,300,,,
sequence,flow.Sequence,4_34,2023-05-01T17:40:49.527Z,,0,,,3043.691999982111,completion,,,,,false,,,,570141.099999994,570140.7999999821,567080.442,567086.6999999881,567097.108,570146.986,6,300,,,
trial,html.Screen,4_35_0,2023-05-01T17:40:52.221Z,,0,1,,2687.5139999999665,response,ISIC_8263741.JPG,,ISIC_0032070.JPG,ISIC_8263741.JPG,false,1,keypress(m),500,572835,572834.5,570130.32,570141.1999999881,570146.986,572846.878,6,300,36,,ISIC_0032070.JPG
break,html.Screen,4_35_1,2023-05-01T17:40:52.222Z,,0,,,NaN,,,,,,false,,,,572836.5,572836.1999999881,,572835.2999999821,,572846.878,6,300,,,
break_continue,html.Screen,4_35_2,2023-05-01T17:40:52.223Z,,0,,,NaN,,,,,,false,,,,572837,572836.900000006,,572836.6999999881,,572846.878,6,300,,,
sequence,flow.Sequence,4_35,2023-05-01T17:40:52.223Z,,0,,,2689.914000005927,completion,,,,,false,,,,572837.1999999881,572836.900000006,570130.32,570141.1999999881,570146.986,572846.878,6,300,,,
trial,html.Screen,4_36_0,2023-05-01T17:40:55.078Z,,0,1,,2844.321999988053,response,ISIC_0000375.JPG,,ISIC_4084359.JPG,ISIC_4084359.JPG,false,0,keypress(z),500,575691.599999994,575691.1999999881,572830.212,572837.400000006,572846.878,575696.764,6,300,37,,ISIC_0000375.JPG
break,html.Screen,4_36_1,2023-05-01T17:40:55.079Z,,0,,,NaN,,,,,,false,,,,575693.400000006,575692.900000006,,575691.900000006,,575696.764,6,300,,,
break_continue,html.Screen,4_36_2,2023-05-01T17:40:55.080Z,,0,,,NaN,,,,,,false,,,,575693.7999999821,575693.6999999881,,575693.599999994,,575696.764,6,300,,,
sequence,flow.Sequence,4_36,2023-05-01T17:40:55.080Z,,0,,,2846.821999988053,completion,,,,,false,,,,575694,575693.6999999881,572830.212,572837.1999999881,572846.878,575696.764,6,300,,,
trial,html.Screen,4_37_0,2023-05-01T17:40:57.742Z,,0,1,,2658.835999994073,response,ISIC_5391758.JPG,,ISIC_3770380.JPG,ISIC_3770380.JPG,false,0,keypress(z),500,578356,578355.599999994,575680.098,575694.1999999881,575696.764,578363.736,6,300,38,,ISIC_5391758.JPG
break,html.Screen,4_37_1,2023-05-01T17:40:57.744Z,,0,,,NaN,,,,,,false,,,,578357.6999999881,578357.400000006,,578356.400000006,,578363.736,6,300,,,
break_continue,html.Screen,4_37_2,2023-05-01T17:40:57.744Z,,0,,,NaN,,,,,,false,,,,578358.1999999881,578358,,578357.7999999821,,578363.736,6,300,,,
sequence,flow.Sequence,4_37,2023-05-01T17:40:57.744Z,,0,,,2661.2360000000335,completion,,,,,false,,,,578358.400000006,578358,575680.098,575694.099999994,575696.764,578363.736,6,300,,,
trial,html.Screen,4_38_0,2023-05-01T17:41:01.124Z,,0,1,,3373.4639999880455,response,ISIC_9401187.JPG,,ISIC_0029761.JPG,ISIC_9401187.JPG,false,1,keypress(m),500,581737.6999999881,581737.1999999881,578347.07,578358.5,578363.736,581746.934,6,300,39,,ISIC_0029761.JPG
break,html.Screen,4_38_1,2023-05-01T17:41:01.125Z,,0,,,NaN,,,,,,false,,,,581739.2999999821,581738.900000006,,581737.900000006,,581746.934,6,300,,,
break_continue,html.Screen,4_38_2,2023-05-01T17:41:01.126Z,,0,,,NaN,,,,,,false,,,,581739.6999999881,581739.599999994,,581739.400000006,,581746.934,6,300,,,
sequence,flow.Sequence,4_38,2023-05-01T17:41:01.126Z,,0,,,3375.863999994006,completion,,,,,false,,,,581739.900000006,581739.599999994,578347.07,578358.400000006,578363.736,581746.934,6,300,,,
trial,html.Screen,4_39_0,2023-05-01T17:41:03.935Z,,0,1,,2801.2659999880707,response,ISIC_7340112.JPG,,ISIC_5092834.JPG,ISIC_7340112.JPG,false,1,keypress(m),500,584548.6999999881,584548.1999999881,581730.268,581740.099999994,581746.934,584563.488,6,300,40,,ISIC_5092834.JPG
break,html.Screen,4_39_1,2023-05-01T17:41:03.936Z,,0,,,NaN,,,,,,false,,,,584550.400000006,584550.1999999881,,584549.1999999881,,584563.488,6,300,,,
break_continue,html.Screen,4_39_2,2023-05-01T17:41:03.937Z,,0,,,NaN,,,,,,false,,,,584551,584550.7999999821,,584550.599999994,,584563.488,6,300,,,
sequence,flow.Sequence,4_39,2023-05-01T17:41:03.937Z,,0,,,2803.86599998211,completion,,,,,false,,,,584551.1999999881,584550.7999999821,581730.268,581740,581746.934,584563.488,6,300,,,
trial,html.Screen,4_40_0,2023-05-01T17:41:06.701Z,,0,1,,2751.1119999940274,response,ISIC_5789263.JPG,,ISIC_0027024.JPG,ISIC_5789263.JPG,false,1,keypress(m),500,587315.099999994,587314.599999994,584546.822,584551.2999999821,584563.488,587330.461,6,300,41,,ISIC_0027024.JPG
break,html.Screen,4_40_1,2023-05-01T17:41:06.703Z,,0,,,NaN,,,,,,false,,,,587316.6999999881,587316.400000006,,587315.400000006,,587330.461,6,300,,,
break_continue,html.Screen,4_40_2,2023-05-01T17:41:06.703Z,,0,,,NaN,,,,,,false,,,,587317.099999994,587317,,587316.7999999821,,587330.461,6,300,,,
sequence,flow.Sequence,4_40,2023-05-01T17:41:06.703Z,,0,,,2753.511999999988,completion,,,,,false,,,,587317.2999999821,587317,584546.822,584551.1999999881,584563.488,587330.461,6,300,,,
trial,html.Screen,4_41_0,2023-05-01T17:41:10.054Z,,0,1,,3337.6389999940293,response,ISIC_2470790.JPG,,ISIC_0032845.JPG,ISIC_0032845.JPG,false,0,keypress(z),500,590668.5,590668.099999994,587313.795,587317.400000006,587330.461,590680.327,6,300,42,,ISIC_2470790.JPG
break,html.Screen,4_41_1,2023-05-01T17:41:10.056Z,,0,,,NaN,,,,,,false,,,,590670.099999994,590669.7999999821,,590668.7999999821,,590680.327,6,300,,,
break_continue,html.Screen,4_41_2,2023-05-01T17:41:10.056Z,,0,,,NaN,,,,,,false,,,,590670.5,590670.400000006,,590670.2999999821,,590680.327,6,300,,,
sequence,flow.Sequence,4_41,2023-05-01T17:41:10.057Z,,0,,,3339.93900000595,completion,,,,,false,,,,590670.6999999881,590670.400000006,587313.795,587317.400000006,587330.461,590680.327,6,300,,,
trial,html.Screen,4_42_0,2023-05-01T17:41:13.283Z,,0,1,,3216.6729999999516,response,ISIC_4398011.JPG,,ISIC_0001743.JPG,ISIC_0001743.JPG,false,0,keypress(z),500,593897.599999994,593897,590663.661,590670.7999999821,590680.327,593913.531,6,300,43,,ISIC_4398011.JPG
break,html.Screen,4_42_1,2023-05-01T17:41:13.285Z,,0,,,NaN,,,,,,false,,,,593899.1999999881,593898.900000006,,593897.7999999821,,593913.531,6,300,,,
break_continue,html.Screen,4_42_2,2023-05-01T17:41:13.286Z,,0,,,NaN,,,,,,false,,,,593899.6999999881,593899.599999994,,593899.400000006,,593913.531,6,300,,,
sequence,flow.Sequence,4_42,2023-05-01T17:41:13.286Z,,0,,,3219.272999993991,completion,,,,,false,,,,593899.900000006,593899.599999994,590663.661,590670.7999999821,590680.327,593913.531,6,300,,,
trial,html.Screen,4_43_0,2023-05-01T17:41:16.388Z,,0,1,,3088.469000000041,response,ISIC_1696845.JPG,,ISIC_6737771.JPG,ISIC_6737771.JPG,false,0,keypress(z),500,597002.5,597002,593896.865,593900.099999994,593913.531,597013.407,6,300,44,,ISIC_1696845.JPG
break,html.Screen,4_43_1,2023-05-01T17:41:16.390Z,,0,,,NaN,,,,,,false,,,,597004,597003.7999999821,,597002.6999999881,,597013.407,6,300,,,
break_continue,html.Screen,4_43_2,2023-05-01T17:41:16.390Z,,0,,,NaN,,,,,,false,,,,597004.5,597004.400000006,,597004.099999994,,597013.407,6,300,,,
sequence,flow.Sequence,4_43,2023-05-01T17:41:16.390Z,,0,,,3090.8690000060014,completion,,,,,false,,,,597004.599999994,597004.400000006,593896.865,593900.099999994,593913.531,597013.407,6,300,,,
trial,html.Screen,4_44_0,2023-05-01T17:41:19.950Z,,0,1,,3550.5929999999935,response,ISIC_0065469.JPG,,ISIC_4614129.JPG,ISIC_4614129.JPG,false,0,keypress(z),500,600564.400000006,600564,596996.741,597004.7999999821,597013.407,600580.334,6,300,45,,ISIC_0065469.JPG
break,html.Screen,4_44_1,2023-05-01T17:41:19.952Z,,0,,,NaN,,,,,,false,,,,600566.1999999881,600565.7999999821,,600564.6999999881,,600580.334,6,300,,,
break_continue,html.Screen,4_44_2,2023-05-01T17:41:19.952Z,,0,,,NaN,,,,,,false,,,,600566.599999994,600566.5,,600566.2999999821,,600580.334,6,300,,,
sequence,flow.Sequence,4_44,2023-05-01T17:41:19.952Z,,0,,,3553.0929999999935,completion,,,,,false,,,,600566.7999999821,600566.5,596996.741,597004.7999999821,597013.407,600580.334,6,300,,,
trial,html.Screen,4_45_0,2023-05-01T17:41:23.332Z,,0,1,,3365.465999982087,response,ISIC_9626777.JPG,,ISIC_0011315.JPG,ISIC_9626777.JPG,false,1,keypress(m),500,603946.099999994,603945.7999999821,600563.668,600566.900000006,600580.334,603963.532,6,300,46,,ISIC_0011315.JPG
break,html.Screen,4_45_1,2023-05-01T17:41:23.333Z,,0,,,NaN,,,,,,false,,,,603947.1999999881,603946.900000006,,603946.2999999821,,603963.532,6,300,,,
break_continue,html.Screen,4_45_2,2023-05-01T17:41:23.333Z,,0,,,NaN,,,,,,false,,,,603947.5,603947.5,,603947.2999999821,,603963.532,6,300,,,
sequence,flow.Sequence,4_45,2023-05-01T17:41:23.333Z,,0,,,3367.1659999999683,completion,,,,,false,,,,603947.6999999881,603947.5,600563.668,600566.7999999821,600580.334,603963.532,6,300,,,
trial,html.Screen,4_46_0,2023-05-01T17:41:26.957Z,,0,1,,3606.9679999999935,response,ISIC_8799674.JPG,,ISIC_0033405.JPG,ISIC_8799674.JPG,false,1,keypress(m),500,607570.900000006,607570.5,603946.866,603947.7999999821,603963.532,607580.471,6,300,47,,ISIC_0033405.JPG
break,html.Screen,4_46_1,2023-05-01T17:41:26.958Z,,0,,,NaN,,,,,,false,,,,607572.5,607572.1999999881,,607571.1999999881,,607580.471,6,300,,,
break_continue,html.Screen,4_46_2,2023-05-01T17:41:26.959Z,,0,,,NaN,,,,,,false,,,,607572.900000006,607572.7999999821,,607572.599999994,,607580.471,6,300,,,
sequence,flow.Sequence,4_46,2023-05-01T17:41:26.959Z,,0,,,3609.267999982112,completion,,,,,false,,,,607573.099999994,607572.7999999821,603946.866,603947.7999999821,603963.532,607580.471,6,300,,,
trial,html.Screen,4_47_0,2023-05-01T17:41:29.708Z,,0,1,,2741.828999982099,response,ISIC_0055513.JPG,,ISIC_6293107.JPG,ISIC_6293107.JPG,false,0,keypress(z),500,610322.599999994,610322.2999999821,607563.805,607573.2999999821,607580.471,610330.361,6,300,48,,ISIC_0055513.JPG
break,html.Screen,4_47_1,2023-05-01T17:41:29.710Z,,0,,,NaN,,,,,,false,,,,610324,610323.6999999881,,610322.7999999821,,610330.361,6,300,,,
break_continue,html.Screen,4_47_2,2023-05-01T17:41:29.710Z,,0,,,NaN,,,,,,false,,,,610324.5,610324.400000006,,610324.099999994,,610330.361,6,300,,,
sequence,flow.Sequence,4_47,2023-05-01T17:41:29.710Z,,0,,,2743.929000005941,completion,,,,,false,,,,610324.6999999881,610324.400000006,607563.805,607573.1999999881,607580.471,610330.361,6,300,,,
trial,html.Screen,4_48_0,2023-05-01T17:41:32.371Z,,0,1,,2654.738999994006,response,ISIC_8651053.JPG,,ISIC_0056501.JPG,ISIC_8651053.JPG,false,1,keypress(m),500,612985.5,612985.099999994,610313.695,610324.7999999821,610330.361,612996.921,6,300,49,,ISIC_0056501.JPG
break,html.Screen,4_48_1,2023-05-01T17:41:32.373Z,,0,,,NaN,,,,,,false,,,,612986.900000006,612986.6999999881,,612985.6999999881,,612996.921,6,300,,,
break_continue,html.Screen,4_48_2,2023-05-01T17:41:32.373Z,,0,,,NaN,,,,,,false,,,,612987.400000006,612987.2999999821,,612987.099999994,,612996.921,6,300,,,
sequence,flow.Sequence,4_48,2023-05-01T17:41:32.373Z,,0,,,2656.938999982085,completion,,,,,false,,,,612987.5,612987.2999999821,610313.695,610324.7999999821,610330.361,612996.921,6,300,,,
trial,html.Screen,4_49_0,2023-05-01T17:41:35.892Z,,0,1,,3509.3789999821456,response,ISIC_0032847.JPG,,ISIC_1847556.JPG,ISIC_0032847.JPG,false,1,keypress(m),500,616506.900000006,616506.2999999821,612980.255,612987.6999999881,612996.921,616513.447,6,300,50,,ISIC_1847556.JPG
break,html.Screen,4_49_1,2023-05-01T17:41:40.886Z,,0,,,4999.79999999993,timeout,,,,,false,,,,621500.2999999821,621496.581,616496.781,616507.1999999881,616513.447,621513.247,6,300,,,
break_continue,html.Screen,4_49_2,2023-05-01T17:41:42.952Z,,0,,,2041.253000000026,response,,,,,false,continue,keypress(Space),,623566.2999999821,623554.5,621496.581,621500.2999999821,621513.247,623579.831,6,300,,,
sequence,flow.Sequence,4_49,2023-05-01T17:41:42.952Z,,0,,,10557.579000000027,completion,,,,,false,,,,623566.6999999881,623554.5,612980.255,612987.6999999881,612996.921,623579.831,6,300,,,
trial,html.Screen,4_50_0,2023-05-01T17:41:48.204Z,,0,2,,5238.668999999994,response,ISIC_0021442.JPG,,ISIC_8171432.JPG,ISIC_8171432.JPG,false,0,keypress(z),500,628819,628818.5,623563.165,623566.900000006,623579.831,628830.494,6,300,1,,ISIC_0021442.JPG
break,html.Screen,4_50_1,2023-05-01T17:41:48.206Z,,0,,,NaN,,,,,,false,,,,628820.599999994,628820.2999999821,,628819.2999999821,,628830.494,6,300,,,
break_continue,html.Screen,4_50_2,2023-05-01T17:41:48.207Z,,0,,,NaN,,,,,,false,,,,628821.099999994,628820.900000006,,628820.6999999881,,628830.494,6,300,,,
sequence,flow.Sequence,4_50,2023-05-01T17:41:48.207Z,,0,,,5241.069000005955,completion,,,,,false,,,,628821.2999999821,628820.900000006,623563.165,623566.7999999821,623579.831,628830.494,6,300,,,
trial,html.Screen,4_51_0,2023-05-01T17:41:51.116Z,,0,2,,2899.9060000060126,response,ISIC_8043299.JPG,,ISIC_0028341.JPG,ISIC_8043299.JPG,false,1,keypress(m),500,631730.900000006,631730.400000006,628813.828,628821.400000006,628830.494,631747.044,6,300,2,,ISIC_0028341.JPG
break,html.Screen,4_51_1,2023-05-01T17:41:51.118Z,,0,,,NaN,,,,,,false,,,,631732.400000006,631732.1999999881,,631731.1999999881,,631747.044,6,300,,,
break_continue,html.Screen,4_51_2,2023-05-01T17:41:51.118Z,,0,,,NaN,,,,,,false,,,,631732.6999999881,631732.6999999881,,631732.5,,631747.044,6,300,,,
sequence,flow.Sequence,4_51,2023-05-01T17:41:51.118Z,,0,,,2902.205999988131,completion,,,,,false,,,,631732.7999999821,631732.6999999881,628813.828,628821.2999999821,628830.494,631747.044,6,300,,,
trial,html.Screen,4_52_0,2023-05-01T17:41:53.956Z,,0,2,,2823.555999994045,response,ISIC_0032750.JPG,,ISIC_9295267.JPG,ISIC_9295267.JPG,false,0,keypress(z),500,634571,634570.599999994,631730.378,631732.900000006,631747.044,634580.264,6,300,3,,ISIC_0032750.JPG
break,html.Screen,4_52_1,2023-05-01T17:41:53.958Z,,0,,,NaN,,,,,,false,,,,634572.7999999821,634572.400000006,,634571.5,,634580.264,6,300,,,
break_continue,html.Screen,4_52_2,2023-05-01T17:41:53.959Z,,0,,,NaN,,,,,,false,,,,634573.2999999821,634573.1999999881,,634573,,634580.264,6,300,,,
sequence,flow.Sequence,4_52,2023-05-01T17:41:53.959Z,,0,,,2826.1559999880847,completion,,,,,false,,,,634573.5,634573.1999999881,631730.378,631732.7999999821,631747.044,634580.264,6,300,,,
trial,html.Screen,4_53_0,2023-05-01T17:41:56.980Z,,0,2,,3014.136000005994,response,ISIC_0000463.JPG,,ISIC_0031501.JPG,ISIC_0031501.JPG,false,0,keypress(z),500,637594.7999999821,637594.400000006,634563.598,634573.599999994,634580.264,637596.81,6,300,4,,ISIC_0000463.JPG
break,html.Screen,4_53_1,2023-05-01T17:41:56.982Z,,0,,,NaN,,,,,,false,,,,637596.5,637596.099999994,,637595.1999999881,,637596.81,6,300,,,
break_continue,html.Screen,4_53_2,2023-05-01T17:41:56.982Z,,0,,,NaN,,,,,,false,,,,637596.900000006,637596.7999999821,,637596.599999994,,637596.81,6,300,,,
sequence,flow.Sequence,4_53,2023-05-01T17:41:56.983Z,,0,,,3016.535999982152,completion,,,,,false,,,,637597.1999999881,637596.7999999821,634563.598,634573.599999994,634580.264,637596.81,6,300,,,
trial,html.Screen,4_54_0,2023-05-01T17:41:59.740Z,,0,2,,2757.5900000059046,response,ISIC_0011520.JPG,,ISIC_1578399.JPG,ISIC_1578399.JPG,false,0,keypress(z),500,640354.900000006,640354.400000006,637580.144,637597.400000006,637596.81,640363.772,6,300,5,,ISIC_0011520.JPG
break,html.Screen,4_54_1,2023-05-01T17:41:59.742Z,,0,,,NaN,,,,,,false,,,,640356.400000006,640356.1999999881,,640355.1999999881,,640363.772,6,300,,,
break_continue,html.Screen,4_54_2,2023-05-01T17:41:59.742Z,,0,,,NaN,,,,,,false,,,,640356.6999999881,640356.6999999881,,640356.599999994,,640363.772,6,300,,,
sequence,flow.Sequence,4_54,2023-05-01T17:41:59.742Z,,0,,,2759.889999988023,completion,,,,,false,,,,640356.900000006,640356.6999999881,637580.144,637597.2999999821,637596.81,640363.772,6,300,,,
trial,html.Screen,4_55_0,2023-05-01T17:42:03.347Z,,0,2,,3597.228000000003,response,ISIC_7131973.JPG,,ISIC_0006158.JPG,ISIC_0006158.JPG,false,0,keypress(z),500,643961.5,643961,640347.106,640357,640363.772,643963.628,6,300,6,,ISIC_7131973.JPG
break,html.Screen,4_55_1,2023-05-01T17:42:03.348Z,,0,,,NaN,,,,,,false,,,,643963.099999994,643962.7999999821,,643961.900000006,,643963.628,6,300,,,
break_continue,html.Screen,4_55_2,2023-05-01T17:42:03.349Z,,0,,,NaN,,,,,,false,,,,643963.6999999881,643963.5,,643963.1999999881,,643963.628,6,300,,,
sequence,flow.Sequence,4_55,2023-05-01T17:42:03.349Z,,0,,,3599.728000000003,completion,,,,,false,,,,643963.7999999821,643963.5,640347.106,640356.900000006,640363.772,643963.628,6,300,,,
trial,html.Screen,4_56_0,2023-05-01T17:42:08.197Z,,0,2,,4847.772000005934,response,ISIC_0070110.JPG,,ISIC_1372928.JPG,ISIC_1372928.JPG,false,0,keypress(z),500,648811.900000006,648811.400000006,643946.962,643964,643963.628,648830.1,6,300,7,,ISIC_0070110.JPG
break,html.Screen,4_56_1,2023-05-01T17:42:08.199Z,,0,,,NaN,,,,,,false,,,,648813.5,648813.2999999821,,648812.1999999881,,648830.1,6,300,,,
break_continue,html.Screen,4_56_2,2023-05-01T17:42:08.199Z,,0,,,NaN,,,,,,false,,,,648814,648813.7999999821,,648813.599999994,,648830.1,6,300,,,
sequence,flow.Sequence,4_56,2023-05-01T17:42:08.199Z,,0,,,4850.1719999820925,completion,,,,,false,,,,648814.099999994,648813.7999999821,643946.962,643963.900000006,643963.628,648830.1,6,300,,,
trial,html.Screen,4_57_0,2023-05-01T17:42:10.947Z,,0,2,,2731.4000000000233,response,ISIC_7013005.JPG,,ISIC_0033843.JPG,ISIC_7013005.JPG,false,1,keypress(m),500,651561.900000006,651561.5,648813.434,648814.2999999821,648830.1,651563.747,6,300,8,,ISIC_0033843.JPG
break,html.Screen,4_57_1,2023-05-01T17:42:10.948Z,,0,,,NaN,,,,,,false,,,,651563,651562.7999999821,,651562.099999994,,651563.747,6,300,,,
break_continue,html.Screen,4_57_2,2023-05-01T17:42:10.949Z,,0,,,NaN,,,,,,false,,,,651563.400000006,651563.2999999821,,651563.099999994,,651563.747,6,300,,,
sequence,flow.Sequence,4_57,2023-05-01T17:42:10.949Z,,0,,,2733.199999982142,completion,,,,,false,,,,651563.599999994,651563.2999999821,648813.434,648814.1999999881,648830.1,651563.747,6,300,,,
trial,html.Screen,4_58_0,2023-05-01T17:42:15.332Z,,0,2,,4382.452999988105,response,ISIC_0026611.JPG,,ISIC_9482842.JPG,ISIC_0026611.JPG,false,1,keypress(m),500,655946.6999999881,655946.1999999881,651547.081,651563.6999999881,651563.747,655963.571,6,300,9,,ISIC_9482842.JPG
break,html.Screen,4_58_1,2023-05-01T17:42:15.334Z,,0,,,NaN,,,,,,false,,,,655948.599999994,655947.7999999821,,655947,,655963.571,6,300,,,
break_continue,html.Screen,4_58_2,2023-05-01T17:42:15.334Z,,0,,,NaN,,,,,,false,,,,655949,655948.900000006,,655948.6999999881,,655963.571,6,300,,,
sequence,flow.Sequence,4_58,2023-05-01T17:42:15.334Z,,0,,,4385.1530000059865,completion,,,,,false,,,,655949.1999999881,655948.900000006,651547.081,651563.599999994,651563.747,655963.571,6,300,,,
trial,html.Screen,4_59_0,2023-05-01T17:42:19.004Z,,0,2,,3654.9290000000037,response,ISIC_0057495.JPG,,ISIC_2733043.JPG,ISIC_0057495.JPG,false,1,keypress(m),500,659618.900000006,659618.5,655946.905,655949.2999999821,655963.571,659630.515,6,300,10,,ISIC_2733043.JPG
break,html.Screen,4_59_1,2023-05-01T17:42:19.006Z,,0,,,NaN,,,,,,false,,,,659620.5,659620.1999999881,,659619.2999999821,,659630.515,6,300,,,
break_continue,html.Screen,4_59_2,2023-05-01T17:42:19.006Z,,0,,,NaN,,,,,,false,,,,659621,659620.7999999821,,659620.6999999881,,659630.515,6,300,,,
sequence,flow.Sequence,4_59,2023-05-01T17:42:19.006Z,,0,,,3657.2289999821223,completion,,,,,false,,,,659621.1999999881,659620.7999999821,655946.905,655949.2999999821,655963.571,659630.515,6,300,,,
trial,html.Screen,4_60_0,2023-05-01T17:42:23.205Z,,0,2,,4188.3850000059465,response,ISIC_9756117.JPG,,ISIC_9000234.JPG,ISIC_9000234.JPG,false,0,keypress(z),500,663819.400000006,663818.900000006,659613.849,659621.2999999821,659630.515,663830.347,6,300,11,,ISIC_9756117.JPG
break,html.Screen,4_60_1,2023-05-01T17:42:23.206Z,,0,,,NaN,,,,,,false,,,,663821,663820.7999999821,,663819.7999999821,,663830.347,6,300,,,
break_continue,html.Screen,4_60_2,2023-05-01T17:42:23.207Z,,0,,,NaN,,,,,,false,,,,663821.2999999821,663821.2999999821,,663821.099999994,,663830.347,6,300,,,
sequence,flow.Sequence,4_60,2023-05-01T17:42:23.207Z,,0,,,4190.784999982105,completion,,,,,false,,,,663821.5,663821.2999999821,659613.849,659621.2999999821,659630.515,663830.347,6,300,,,
trial,html.Screen,4_61_0,2023-05-01T17:42:25.971Z,,0,2,,2755.1530000000494,response,ISIC_4249893.JPG,,ISIC_0031499.JPG,ISIC_4249893.JPG,false,1,keypress(m),500,666586,666585.5,663813.681,663821.599999994,663830.347,666596.903,6,300,12,,ISIC_0031499.JPG
break,html.Screen,4_61_1,2023-05-01T17:42:25.973Z,,0,,,NaN,,,,,,false,,,,666587.599999994,666587.2999999821,,666586.2999999821,,666596.903,6,300,,,
break_continue,html.Screen,4_61_2,2023-05-01T17:42:25.973Z,,0,,,NaN,,,,,,false,,,,666588.1999999881,666588,,666587.7999999821,,666596.903,6,300,,,
sequence,flow.Sequence,4_61,2023-05-01T17:42:25.973Z,,0,,,2757.6530000000494,completion,,,,,false,,,,666588.400000006,666588,663813.681,663821.599999994,663830.347,666596.903,6,300,,,
trial,html.Screen,4_62_0,2023-05-01T17:42:29.388Z,,0,2,,3405.3969999820692,response,ISIC_0032810.JPG,,ISIC_3306135.JPG,ISIC_3306135.JPG,false,0,keypress(z),500,670002.900000006,670002.2999999821,666580.237,666588.5,666596.903,670013.84,6,300,13,,ISIC_0032810.JPG
break,html.Screen,4_62_1,2023-05-01T17:42:29.389Z,,0,,,NaN,,,,,,false,,,,670004.400000006,670004.099999994,,670003.099999994,,670013.84,6,300,,,
break_continue,html.Screen,4_62_2,2023-05-01T17:42:29.390Z,,0,,,NaN,,,,,,false,,,,670004.7999999821,670004.6999999881,,670004.599999994,,670013.84,6,300,,,
sequence,flow.Sequence,4_62,2023-05-01T17:42:29.390Z,,0,,,3407.7969999880297,completion,,,,,false,,,,670005,670004.6999999881,666580.237,666588.400000006,666596.903,670013.84,6,300,,,
trial,html.Screen,4_63_0,2023-05-01T17:42:32.379Z,,0,2,,2979.959999982151,response,ISIC_1520897.JPG,,ISIC_7507286.JPG,ISIC_7507286.JPG,false,0,keypress(z),500,672994.1999999881,672993.7999999821,669997.174,670005.099999994,670013.84,672997.054,6,300,14,,ISIC_1520897.JPG
break,html.Screen,4_63_1,2023-05-01T17:42:32.381Z,,0,,,NaN,,,,,,false,,,,672995.900000006,672995.599999994,,672994.599999994,,672997.054,6,300,,,
break_continue,html.Screen,4_63_2,2023-05-01T17:42:32.381Z,,0,,,NaN,,,,,,false,,,,672996.2999999821,672996.1999999881,,672996,,672997.054,6,300,,,
sequence,flow.Sequence,4_63,2023-05-01T17:42:32.382Z,,0,,,2982.3599999881117,completion,,,,,false,,,,672996.5,672996.1999999881,669997.174,670005,670013.84,672997.054,6,300,,,
trial,html.Screen,4_64_0,2023-05-01T17:42:36.293Z,,0,2,,3910.745999982115,response,ISIC_0032656.JPG,,ISIC_3157046.JPG,ISIC_3157046.JPG,false,0,keypress(z),500,676908.2999999821,676907.7999999821,672980.388,672996.599999994,672997.054,676913.564,6,300,15,,ISIC_0032656.JPG
break,html.Screen,4_64_1,2023-05-01T17:42:36.295Z,,0,,,NaN,,,,,,false,,,,676910,676909.6999999881,,676908.599999994,,676913.564,6,300,,,
break_continue,html.Screen,4_64_2,2023-05-01T17:42:36.296Z,,0,,,NaN,,,,,,false,,,,676910.599999994,676910.5,,676910.2999999821,,676913.564,6,300,,,
sequence,flow.Sequence,4_64,2023-05-01T17:42:36.296Z,,0,,,3913.4459999999963,completion,,,,,false,,,,676910.7999999821,676910.5,672980.388,672996.599999994,672997.054,676913.564,6,300,,,
trial,html.Screen,4_65_0,2023-05-01T17:42:39.268Z,,0,2,,2968.8360000059474,response,ISIC_2739449.JPG,,ISIC_0028405.JPG,ISIC_0028405.JPG,false,0,keypress(z),500,679882.900000006,679882.400000006,676896.898,676911,676913.564,679896.778,6,300,16,,ISIC_2739449.JPG
break,html.Screen,4_65_1,2023-05-01T17:42:39.270Z,,0,,,NaN,,,,,,false,,,,679884.5,679884.1999999881,,679883.2999999821,,679896.778,6,300,,,
break_continue,html.Screen,4_65_2,2023-05-01T17:42:39.270Z,,0,,,NaN,,,,,,false,,,,679885,679884.900000006,,679884.599999994,,679896.778,6,300,,,
sequence,flow.Sequence,4_65,2023-05-01T17:42:39.270Z,,0,,,2971.3360000059474,completion,,,,,false,,,,679885.099999994,679884.900000006,676896.898,676910.900000006,676913.564,679896.778,6,300,,,
trial,html.Screen,4_66_0,2023-05-01T17:42:42.428Z,,0,2,,3145.622000005911,response,ISIC_1043267.JPG,,ISIC_0062709.JPG,ISIC_1043267.JPG,false,1,keypress(m),500,683043,683042.400000006,679880.112,679885.1999999881,679896.778,683047.073,6,300,17,,ISIC_0062709.JPG
break,html.Screen,4_66_1,2023-05-01T17:42:42.430Z,,0,,,NaN,,,,,,false,,,,683044.599999994,683044.2999999821,,683043.2999999821,,683047.073,6,300,,,
break_continue,html.Screen,4_66_2,2023-05-01T17:42:42.430Z,,0,,,NaN,,,,,,false,,,,683045.099999994,683044.900000006,,683044.7999999821,,683047.073,6,300,,,
sequence,flow.Sequence,4_66,2023-05-01T17:42:42.430Z,,0,,,3148.122000005911,completion,,,,,false,,,,683045.2999999821,683044.900000006,679880.112,679885.099999994,679896.778,683047.073,6,300,,,
trial,html.Screen,4_67_0,2023-05-01T17:42:51.573Z,,0,2,,9140.126999988104,response,ISIC_0069475.JPG,,ISIC_0062048.JPG,ISIC_0069475.JPG,false,1,keypress(m),500,692187.6999999881,692187.1999999881,683030.407,683045.400000006,683047.073,692197.186,6,300,18,,ISIC_0062048.JPG
break,html.Screen,4_67_1,2023-05-01T17:42:51.574Z,,0,,,NaN,,,,,,false,,,,692189.2999999821,692188.900000006,,692188,,692197.186,6,300,,,
break_continue,html.Screen,4_67_2,2023-05-01T17:42:51.575Z,,0,,,NaN,,,,,,false,,,,692189.7999999821,692189.599999994,,692189.5,,692197.186,6,300,,,
sequence,flow.Sequence,4_67,2023-05-01T17:42:51.575Z,,0,,,9142.526999994065,completion,,,,,false,,,,692190,692189.599999994,683030.407,683045.400000006,683047.073,692197.186,6,300,,,
trial,html.Screen,4_68_0,2023-05-01T17:42:54.507Z,,0,2,,2924.314000000013,response,ISIC_0014809.JPG,,ISIC_7596681.JPG,ISIC_7596681.JPG,false,0,keypress(z),500,695122,695121.5,692180.52,692190.099999994,692197.186,695130.402,6,300,19,,ISIC_0014809.JPG
break,html.Screen,4_68_1,2023-05-01T17:42:54.509Z,,0,,,NaN,,,,,,false,,,,695123.900000006,695123.599999994,,695122.2999999821,,695130.402,6,300,,,
break_continue,html.Screen,4_68_2,2023-05-01T17:42:54.509Z,,0,,,NaN,,,,,,false,,,,695124.599999994,695124.400000006,,695124.099999994,,695130.402,6,300,,,
sequence,flow.Sequence,4_68,2023-05-01T17:42:54.510Z,,0,,,2927.2140000059735,completion,,,,,false,,,,695124.7999999821,695124.400000006,692180.52,692190.099999994,692197.186,695130.402,6,300,,,
trial,html.Screen,4_69_0,2023-05-01T17:42:57.211Z,,0,2,,2695.6979999940377,response,ISIC_0003111.JPG,,ISIC_6496765.JPG,ISIC_0003111.JPG,false,1,keypress(m),500,697826.599999994,697826.099999994,695113.736,695124.900000006,695130.402,697830.294,6,300,20,,ISIC_6496765.JPG
break,html.Screen,4_69_1,2023-05-01T17:42:57.213Z,,0,,,NaN,,,,,,false,,,,697828.099999994,697827.6999999881,,697826.7999999821,,697830.294,6,300,,,
break_continue,html.Screen,4_69_2,2023-05-01T17:42:57.213Z,,0,,,NaN,,,,,,false,,,,697828.5,697828.2999999821,,697828.1999999881,,697830.294,6,300,,,
sequence,flow.Sequence,4_69,2023-05-01T17:42:57.214Z,,0,,,2697.8979999821167,completion,,,,,false,,,,697828.6999999881,697828.2999999821,695113.736,695124.900000006,695130.402,697830.294,6,300,,,
trial,html.Screen,4_70_0,2023-05-01T17:42:59.925Z,,0,2,,2709.505999982124,response,ISIC_0206758.JPG,,ISIC_4411889.JPG,ISIC_0206758.JPG,false,1,keypress(m),500,700540.1999999881,700539.7999999821,697813.628,697828.7999999821,697830.294,700546.852,6,300,21,,ISIC_4411889.JPG
break,html.Screen,4_70_1,2023-05-01T17:42:59.927Z,,0,,,NaN,,,,,,false,,,,700541.900000006,700541.5,,700540.599999994,,700546.852,6,300,,,
break_continue,html.Screen,4_70_2,2023-05-01T17:42:59.927Z,,0,,,NaN,,,,,,false,,,,700542.2999999821,700542.1999999881,,700542,,700546.852,6,300,,,
sequence,flow.Sequence,4_70,2023-05-01T17:42:59.927Z,,0,,,2711.9059999880847,completion,,,,,false,,,,700542.400000006,700542.1999999881,697813.628,697828.7999999821,697830.294,700546.852,6,300,,,
trial,html.Screen,4_71_0,2023-05-01T17:43:02.876Z,,0,2,,2943.6480000000447,response,ISIC_9354604.JPG,,ISIC_8691327.JPG,ISIC_9354604.JPG,false,1,keypress(m),500,703490.7999999821,703490.5,700530.186,700542.5,700546.852,703497.159,6,300,22,,ISIC_8691327.JPG
break,html.Screen,4_71_1,2023-05-01T17:43:02.877Z,,0,,,NaN,,,,,,false,,,,703492.099999994,703492,,703491.099999994,,703497.159,6,300,,,
break_continue,html.Screen,4_71_2,2023-05-01T17:43:02.877Z,,0,,,NaN,,,,,,false,,,,703492.5,703492.400000006,,703492.1999999881,,703497.159,6,300,,,
sequence,flow.Sequence,4_71,2023-05-01T17:43:02.877Z,,0,,,2945.548000006005,completion,,,,,false,,,,703492.599999994,703492.400000006,700530.186,700542.400000006,700546.852,703497.159,6,300,,,
trial,html.Screen,4_72_0,2023-05-01T17:43:05.557Z,,0,2,,2674.841000000015,response,ISIC_0064463.JPG,,ISIC_0000523.JPG,ISIC_0000523.JPG,false,0,keypress(z),500,706172.5,706172,703480.493,703492.6999999881,703497.159,706180.385,6,300,23,,ISIC_0064463.JPG
break,html.Screen,4_72_1,2023-05-01T17:43:05.559Z,,0,,,NaN,,,,,,false,,,,706174,706173.7999999821,,706172.7999999821,,706180.385,6,300,,,
break_continue,html.Screen,4_72_2,2023-05-01T17:43:05.559Z,,0,,,NaN,,,,,,false,,,,706174.599999994,706174.400000006,,706174.1999999881,,706180.385,6,300,,,
sequence,flow.Sequence,4_72,2023-05-01T17:43:05.560Z,,0,,,2677.2410000059754,completion,,,,,false,,,,706174.7999999821,706174.400000006,703480.493,703492.599999994,703497.159,706180.385,6,300,,,
trial,html.Screen,4_73_0,2023-05-01T17:43:08.322Z,,0,2,,2756.9149999821093,response,ISIC_1795529.JPG,,ISIC_0058418.JPG,ISIC_1795529.JPG,false,1,keypress(m),500,708937.6999999881,708937.2999999821,706163.719,706174.900000006,706180.385,708946.941,6,300,24,,ISIC_0058418.JPG
break,html.Screen,4_73_1,2023-05-01T17:43:08.324Z,,0,,,NaN,,,,,,false,,,,708938.900000006,708938.599999994,,708937.900000006,,708946.941,6,300,,,
break_continue,html.Screen,4_73_2,2023-05-01T17:43:08.324Z,,0,,,NaN,,,,,,false,,,,708939.099999994,708939.099999994,,708939,,708946.941,6,300,,,
sequence,flow.Sequence,4_73,2023-05-01T17:43:08.324Z,,0,,,2758.71499999403,completion,,,,,false,,,,708939.1999999881,708939.099999994,706163.719,706174.7999999821,706180.385,708946.941,6,300,,,
trial,html.Screen,4_74_0,2023-05-01T17:43:14.068Z,,0,2,,5735.459000005969,response,ISIC_0031785.JPG,,ISIC_1519891.JPG,ISIC_1519891.JPG,false,0,keypress(z),500,714682.900000006,714682.400000006,708930.275,708939.1999999881,708946.941,714697.212,6,300,25,,ISIC_0031785.JPG
break,html.Screen,4_74_1,2023-05-01T17:43:14.069Z,,0,,,NaN,,,,,,false,,,,714684.1999999881,714684,,714683.1999999881,,714697.212,6,300,,,
break_continue,html.Screen,4_74_2,2023-05-01T17:43:14.069Z,,0,,,NaN,,,,,,false,,,,714684.599999994,714684.599999994,,714684.400000006,,714697.212,6,300,,,
sequence,flow.Sequence,4_74,2023-05-01T17:43:14.069Z,,0,,,5737.658999994048,completion,,,,,false,,,,714684.6999999881,714684.599999994,708930.275,708939.1999999881,708946.941,714697.212,6,300,,,
trial,html.Screen,4_75_0,2023-05-01T17:43:16.860Z,,0,2,,2777.1880000059027,response,ISIC_0055241.JPG,,ISIC_8942967.JPG,ISIC_8942967.JPG,false,0,keypress(z),500,717474.900000006,717474.400000006,714680.546,714684.900000006,714697.212,717480.434,6,300,26,,ISIC_0055241.JPG
break,html.Screen,4_75_1,2023-05-01T17:43:16.861Z,,0,,,NaN,,,,,,false,,,,717476.5,717476.1999999881,,717475.099999994,,717480.434,6,300,,,
break_continue,html.Screen,4_75_2,2023-05-01T17:43:16.862Z,,0,,,NaN,,,,,,false,,,,717476.900000006,717476.7999999821,,717476.599999994,,717480.434,6,300,,,
sequence,flow.Sequence,4_75,2023-05-01T17:43:16.862Z,,0,,,2779.587999982061,completion,,,,,false,,,,717477.099999994,717476.7999999821,714680.546,714684.7999999821,714697.212,717480.434,6,300,,,
trial,html.Screen,4_76_0,2023-05-01T17:43:20.706Z,,0,2,,3840.665999994031,response,ISIC_0002675.JPG,,ISIC_0025001.JPG,ISIC_0025001.JPG,false,0,keypress(z),500,721321.5,721321.099999994,717463.768,717477.1999999881,717480.434,721330.28,6,300,27,,ISIC_0002675.JPG
break,html.Screen,4_76_1,2023-05-01T17:43:20.707Z,,0,,,NaN,,,,,,false,,,,721322.599999994,721322.400000006,,721321.6999999881,,721330.28,6,300,,,
break_continue,html.Screen,4_76_2,2023-05-01T17:43:20.708Z,,0,,,NaN,,,,,,false,,,,721322.900000006,721322.7999999821,,721322.6999999881,,721330.28,6,300,,,
sequence,flow.Sequence,4_76,2023-05-01T17:43:20.708Z,,0,,,3842.36599998211,completion,,,,,false,,,,721323.099999994,721322.7999999821,717463.768,717477.1999999881,717480.434,721330.28,6,300,,,
trial,html.Screen,4_77_0,2023-05-01T17:43:23.467Z,,0,2,,2751.719999999972,response,ISIC_5415749.JPG,,ISIC_0056247.JPG,ISIC_0056247.JPG,false,0,keypress(z),500,724082.599999994,724082,721313.614,721323.2999999821,721330.28,724096.836,6,300,28,,ISIC_5415749.JPG
break,html.Screen,4_77_1,2023-05-01T17:43:23.469Z,,0,,,NaN,,,,,,false,,,,724084.099999994,724083.900000006,,724082.900000006,,724096.836,6,300,,,
break_continue,html.Screen,4_77_2,2023-05-01T17:43:23.469Z,,0,,,NaN,,,,,,false,,,,724084.599999994,724084.5,,724084.2999999821,,724096.836,6,300,,,
sequence,flow.Sequence,4_77,2023-05-01T17:43:23.469Z,,0,,,2754.219999999972,completion,,,,,false,,,,724084.7999999821,724084.5,721313.614,721323.1999999881,721330.28,724096.836,6,300,,,
trial,html.Screen,4_78_0,2023-05-01T17:43:28.707Z,,0,2,,5225.56400000595,response,ISIC_0028156.JPG,,ISIC_0029459.JPG,ISIC_0028156.JPG,false,1,keypress(m),500,729322.900000006,729322.400000006,724080.17,724084.900000006,724096.836,729330.386,6,300,29,,ISIC_0029459.JPG
break,html.Screen,4_78_1,2023-05-01T17:43:28.709Z,,0,,,NaN,,,,,,false,,,,729324.5,729324.1999999881,,729323.1999999881,,729330.386,6,300,,,
break_continue,html.Screen,4_78_2,2023-05-01T17:43:28.710Z,,0,,,NaN,,,,,,false,,,,729325,729324.7999999821,,729324.599999994,,729330.386,6,300,,,
sequence,flow.Sequence,4_78,2023-05-01T17:43:28.710Z,,0,,,5227.963999982108,completion,,,,,false,,,,729325.1999999881,729324.7999999821,724080.17,724084.900000006,724096.836,729330.386,6,300,,,
trial,html.Screen,4_79_0,2023-05-01T17:43:31.699Z,,0,2,,2983.7139999939827,response,ISIC_0054651.JPG,,ISIC_0060719.JPG,ISIC_0060719.JPG,false,0,keypress(z),500,732314.5,732314.099999994,729313.72,729325.2999999821,729330.386,732330.266,6,300,30,,ISIC_0054651.JPG
break,html.Screen,4_79_1,2023-05-01T17:43:31.701Z,,0,,,NaN,,,,,,false,,,,732316.1999999881,732315.900000006,,732314.7999999821,,732330.266,6,300,,,
break_continue,html.Screen,4_79_2,2023-05-01T17:43:31.701Z,,0,,,NaN,,,,,,false,,,,732316.6999999881,732316.599999994,,732316.400000006,,732330.266,6,300,,,
sequence,flow.Sequence,4_79,2023-05-01T17:43:31.701Z,,0,,,2986.2139999939827,completion,,,,,false,,,,732316.900000006,732316.599999994,729313.72,729325.1999999881,729330.386,732330.266,6,300,,,
trial,html.Screen,4_80_0,2023-05-01T17:43:36.754Z,,0,2,,5039.3339999940945,response,ISIC_4734111.JPG,,ISIC_0069274.JPG,ISIC_0069274.JPG,false,0,keypress(z),500,737369.900000006,737369.599999994,732313.6,732317,732330.266,737380.561,6,300,31,,ISIC_4734111.JPG
break,html.Screen,4_80_1,2023-05-01T17:43:36.756Z,,0,,,NaN,,,,,,false,,,,737371,737370.7999999821,,737370,,737380.561,6,300,,,
break_continue,html.Screen,4_80_2,2023-05-01T17:43:36.756Z,,0,,,NaN,,,,,,false,,,,737371.1999999881,737371.1999999881,,737371.099999994,,737380.561,6,300,,,
sequence,flow.Sequence,4_80,2023-05-01T17:43:36.756Z,,0,,,5040.933999988134,completion,,,,,false,,,,737371.2999999821,737371.1999999881,732313.6,732317,732330.266,737380.561,6,300,,,
trial,html.Screen,4_81_0,2023-05-01T17:43:40.587Z,,0,2,,3821.8390000059735,response,ISIC_2183722.JPG,,ISIC_0010098.JPG,ISIC_2183722.JPG,false,1,keypress(m),500,741202.900000006,741202.400000006,737363.895,737371.400000006,737380.561,741213.741,6,300,32,,ISIC_0010098.JPG
break,html.Screen,4_81_1,2023-05-01T17:43:40.589Z,,0,,,NaN,,,,,,false,,,,741204.2999999821,741203.900000006,,741203.099999994,,741213.741,6,300,,,
break_continue,html.Screen,4_81_2,2023-05-01T17:43:40.589Z,,0,,,NaN,,,,,,false,,,,741204.7999999821,741204.599999994,,741204.400000006,,741213.741,6,300,,,
sequence,flow.Sequence,4_81,2023-05-01T17:43:40.589Z,,0,,,3824.0389999940526,completion,,,,,false,,,,741204.900000006,741204.599999994,737363.895,737371.2999999821,737380.561,741213.741,6,300,,,
trial,html.Screen,4_82_0,2023-05-01T17:43:44.550Z,,0,2,,3950.8589999940014,response,ISIC_8979540.JPG,,ISIC_0013842.JPG,ISIC_0013842.JPG,false,0,keypress(z),500,745165.099999994,745164.599999994,741197.075,741205.099999994,741213.741,745180.249,6,300,33,,ISIC_8979540.JPG
break,html.Screen,4_82_1,2023-05-01T17:43:44.551Z,,0,,,NaN,,,,,,false,,,,745166.6999999881,745166.400000006,,745165.400000006,,745180.249,6,300,,,
break_continue,html.Screen,4_82_2,2023-05-01T17:43:44.552Z,,0,,,NaN,,,,,,false,,,,745167.2999999821,745167.099999994,,745166.7999999821,,745180.249,6,300,,,
sequence,flow.Sequence,4_82,2023-05-01T17:43:44.552Z,,0,,,3953.3589999940014,completion,,,,,false,,,,745167.400000006,745167.099999994,741197.075,741205.099999994,741213.741,745180.249,6,300,,,
trial,html.Screen,4_83_0,2023-05-01T17:43:47.499Z,,0,2,,2934.350999994087,response,ISIC_0071457.JPG,,ISIC_5323725.JPG,ISIC_5323725.JPG,false,0,keypress(z),500,748115,748114.599999994,745163.583,745167.5,745180.249,748130.58,6,300,34,,ISIC_0071457.JPG
break,html.Screen,4_83_1,2023-05-01T17:43:47.500Z,,0,,,NaN,,,,,,false,,,,748116,748115.7999999821,,748115.1999999881,,748130.58,6,300,,,
break_continue,html.Screen,4_83_2,2023-05-01T17:43:47.501Z,,0,,,NaN,,,,,,false,,,,748116.2999999821,748116.1999999881,,748116.099999994,,748130.58,6,300,,,
sequence,flow.Sequence,4_83,2023-05-01T17:43:47.501Z,,0,,,2935.9509999881266,completion,,,,,false,,,,748116.400000006,748116.1999999881,745163.583,745167.5,745180.249,748130.58,6,300,,,
trial,html.Screen,4_84_0,2023-05-01T17:43:50.357Z,,0,2,,2841.619999988121,response,ISIC_0033016.JPG,,ISIC_0062058.JPG,ISIC_0033016.JPG,false,1,keypress(m),500,750972.599999994,750972.1999999881,748113.914,748116.5,748130.58,750980.466,6,300,35,,ISIC_0062058.JPG
break,html.Screen,4_84_1,2023-05-01T17:43:50.359Z,,0,,,NaN,,,,,,false,,,,750974.099999994,750973.7999999821,,750972.900000006,,750980.466,6,300,,,
break_continue,html.Screen,4_84_2,2023-05-01T17:43:50.359Z,,0,,,NaN,,,,,,false,,,,750974.5,750974.5,,750974.2999999821,,750980.466,6,300,,,
sequence,flow.Sequence,4_84,2023-05-01T17:43:50.359Z,,0,,,2843.920000000042,completion,,,,,false,,,,750974.7999999821,750974.5,748113.914,748116.5,748130.58,750980.466,6,300,,,
trial,html.Screen,4_85_0,2023-05-01T17:43:52.939Z,,0,2,,2574.1339999940246,response,ISIC_0067667.JPG,,ISIC_0024781.JPG,ISIC_0024781.JPG,false,0,keypress(z),500,753555,753554.599999994,750963.8,750974.900000006,750980.466,753563.696,6,300,36,,ISIC_0067667.JPG
break,html.Screen,4_85_1,2023-05-01T17:43:52.940Z,,0,,,NaN,,,,,,false,,,,753556.1999999881,753555.900000006,,753555.2999999821,,753563.696,6,300,,,
break_continue,html.Screen,4_85_2,2023-05-01T17:43:52.941Z,,0,,,NaN,,,,,,false,,,,753556.5,753556.2999999821,,753556.1999999881,,753563.696,6,300,,,
sequence,flow.Sequence,4_85,2023-05-01T17:43:52.941Z,,0,,,2575.8339999821037,completion,,,,,false,,,,753556.599999994,753556.2999999821,750963.8,750974.7999999821,750980.466,753563.696,6,300,,,
trial,html.Screen,4_86_0,2023-05-01T17:43:56.091Z,,0,2,,3142.704000005964,response,ISIC_3267196.JPG,,ISIC_0979974.JPG,ISIC_3267196.JPG,false,1,keypress(m),500,756706.6999999881,756706.400000006,753547.03,753556.6999999881,753563.696,756713.57,6,300,37,,ISIC_0979974.JPG
break,html.Screen,4_86_1,2023-05-01T17:43:56.092Z,,0,,,NaN,,,,,,false,,,,756707.7999999821,756707.599999994,,756707,,756713.57,6,300,,,
break_continue,html.Screen,4_86_2,2023-05-01T17:43:56.093Z,,0,,,NaN,,,,,,false,,,,756708.2999999821,756708.1999999881,,756708.099999994,,756713.57,6,300,,,
sequence,flow.Sequence,4_86,2023-05-01T17:43:56.093Z,,0,,,3144.503999988083,completion,,,,,false,,,,756708.400000006,756708.1999999881,753547.03,753556.599999994,753563.696,756713.57,6,300,,,
trial,html.Screen,4_87_0,2023-05-01T17:43:58.724Z,,0,2,,2625.5299999940908,response,ISIC_2086540.JPG,,ISIC_3994250.JPG,ISIC_3994250.JPG,false,0,keypress(z),500,759339.400000006,759339.099999994,756696.904,756708.400000006,756713.57,759347.198,6,300,38,,ISIC_2086540.JPG
break,html.Screen,4_87_1,2023-05-01T17:43:58.725Z,,0,,,NaN,,,,,,false,,,,759340.5,759340.2999999821,,759339.6999999881,,759347.198,6,300,,,
break_continue,html.Screen,4_87_2,2023-05-01T17:43:58.725Z,,0,,,NaN,,,,,,false,,,,759340.900000006,759340.7999999821,,759340.6999999881,,759347.198,6,300,,,
sequence,flow.Sequence,4_87,2023-05-01T17:43:58.725Z,,0,,,2627.22999998217,completion,,,,,false,,,,759340.900000006,759340.7999999821,756696.904,756708.400000006,756713.57,759347.198,6,300,,,
trial,html.Screen,4_88_0,2023-05-01T17:44:01.459Z,,0,2,,2727.001999988104,response,ISIC_2569851.JPG,,ISIC_0011488.JPG,ISIC_2569851.JPG,false,1,keypress(m),500,762074.7999999821,762074.1999999881,759330.532,759341.099999994,759347.198,762080.422,6,300,39,,ISIC_0011488.JPG
break,html.Screen,4_88_1,2023-05-01T17:44:01.461Z,,0,,,NaN,,,,,,false,,,,762076.400000006,762076.099999994,,762075.099999994,,762080.422,6,300,,,
break_continue,html.Screen,4_88_2,2023-05-01T17:44:01.461Z,,0,,,NaN,,,,,,false,,,,762076.7999999821,762076.6999999881,,762076.5,,762080.422,6,300,,,
sequence,flow.Sequence,4_88,2023-05-01T17:44:01.461Z,,0,,,2729.501999988104,completion,,,,,false,,,,762077.099999994,762076.6999999881,759330.532,759341,759347.198,762080.422,6,300,,,
trial,html.Screen,4_89_0,2023-05-01T17:44:04.331Z,,0,2,,2866.2779999880586,response,ISIC_5679004.JPG,,ISIC_1396573.JPG,ISIC_1396573.JPG,false,0,keypress(z),500,764947,764946.6999999881,762063.756,762077.2999999821,762080.422,764963.64,6,300,40,,ISIC_5679004.JPG
break,html.Screen,4_89_1,2023-05-01T17:44:04.332Z,,0,,,NaN,,,,,,false,,,,764948,764947.7999999821,,764947.1999999881,,764963.64,6,300,,,
break_continue,html.Screen,4_89_2,2023-05-01T17:44:04.333Z,,0,,,NaN,,,,,,false,,,,764948.2999999821,764948.1999999881,,764948.099999994,,764963.64,6,300,,,
sequence,flow.Sequence,4_89,2023-05-01T17:44:04.333Z,,0,,,2867.7779999880586,completion,,,,,false,,,,764948.2999999821,764948.1999999881,762063.756,762077.1999999881,762080.422,764963.64,6,300,,,
trial,html.Screen,4_90_0,2023-05-01T17:44:07.540Z,,0,2,,3192.059999988065,response,ISIC_0053763.JPG,,ISIC_9241599.JPG,ISIC_9241599.JPG,false,0,keypress(z),500,768156.2999999821,768155.6999999881,764946.974,764948.400000006,764963.64,768163.512,6,300,41,,ISIC_0053763.JPG
break,html.Screen,4_90_1,2023-05-01T17:44:07.542Z,,0,,,NaN,,,,,,false,,,,768157.7999999821,768157.5,,768156.5,,768163.512,6,300,,,
break_continue,html.Screen,4_90_2,2023-05-01T17:44:07.543Z,,0,,,NaN,,,,,,false,,,,768158.400000006,768158.1999999881,,768158,,768163.512,6,300,,,
sequence,flow.Sequence,4_90,2023-05-01T17:44:07.543Z,,0,,,3194.559999988065,completion,,,,,false,,,,768158.599999994,768158.1999999881,764946.974,764948.400000006,764963.64,768163.512,6,300,,,
trial,html.Screen,4_91_0,2023-05-01T17:44:10.107Z,,0,2,,2558.687999988091,response,ISIC_1009042.JPG,,ISIC_0026943.JPG,ISIC_0026943.JPG,false,0,keypress(z),500,770722.6999999881,770722.1999999881,768146.846,768158.6999999881,768163.512,770730.51,6,300,42,,ISIC_1009042.JPG
break,html.Screen,4_91_1,2023-05-01T17:44:10.108Z,,0,,,NaN,,,,,,false,,,,770724.1999999881,770723.900000006,,770723,,770730.51,6,300,,,
break_continue,html.Screen,4_91_2,2023-05-01T17:44:10.109Z,,0,,,NaN,,,,,,false,,,,770724.6999999881,770724.599999994,,770724.400000006,,770730.51,6,300,,,
sequence,flow.Sequence,4_91,2023-05-01T17:44:10.109Z,,0,,,2561.0879999940516,completion,,,,,false,,,,770724.900000006,770724.599999994,768146.846,768158.6999999881,768163.512,770730.51,6,300,,,
trial,html.Screen,4_92_0,2023-05-01T17:44:14.293Z,,0,2,,4177.289999982109,response,ISIC_2279679.JPG,,ISIC_3338629.JPG,ISIC_2279679.JPG,false,1,keypress(m),500,774908.400000006,774907.7999999821,770713.844,770724.900000006,770730.51,774913.676,6,300,43,,ISIC_3338629.JPG
break,html.Screen,4_92_1,2023-05-01T17:44:14.294Z,,0,,,NaN,,,,,,false,,,,774910,774909.6999999881,,774908.6999999881,,774913.676,6,300,,,
break_continue,html.Screen,4_92_2,2023-05-01T17:44:14.295Z,,0,,,NaN,,,,,,false,,,,774910.5,774910.400000006,,774910.1999999881,,774913.676,6,300,,,
sequence,flow.Sequence,4_92,2023-05-01T17:44:14.295Z,,0,,,4179.890000005951,completion,,,,,false,,,,774910.599999994,774910.400000006,770713.844,770724.900000006,770730.51,774913.676,6,300,,,
trial,html.Screen,4_93_0,2023-05-01T17:44:17.307Z,,0,2,,3008.724000005983,response,ISIC_0058828.JPG,,ISIC_0633835.JPG,ISIC_0633835.JPG,false,0,keypress(z),500,777922.7999999821,777922.400000006,774897.01,774910.7999999821,774913.676,777930.222,6,300,44,,ISIC_0058828.JPG
break,html.Screen,4_93_1,2023-05-01T17:44:17.308Z,,0,,,NaN,,,,,,false,,,,777924.2999999821,777924,,777923.099999994,,777930.222,6,300,,,
break_continue,html.Screen,4_93_2,2023-05-01T17:44:17.309Z,,0,,,NaN,,,,,,false,,,,777924.6999999881,777924.599999994,,777924.400000006,,777930.222,6,300,,,
sequence,flow.Sequence,4_93,2023-05-01T17:44:17.309Z,,0,,,3010.923999994062,completion,,,,,false,,,,777925,777924.599999994,774897.01,774910.6999999881,774913.676,777930.222,6,300,,,
trial,html.Screen,4_94_0,2023-05-01T17:44:22.922Z,,0,2,,5607.67800000601,response,ISIC_0884550.JPG,,ISIC_6544382.JPG,ISIC_0884550.JPG,false,1,keypress(m),500,783538.400000006,783537.900000006,777913.556,777925.099999994,777930.222,783547.097,6,300,45,,ISIC_6544382.JPG
break,html.Screen,4_94_1,2023-05-01T17:44:22.924Z,,0,,,NaN,,,,,,false,,,,783539.900000006,783539.599999994,,783538.599999994,,783547.097,6,300,,,
break_continue,html.Screen,4_94_2,2023-05-01T17:44:22.924Z,,0,,,NaN,,,,,,false,,,,783540.400000006,783540.2999999821,,783540,,783547.097,6,300,,,
sequence,flow.Sequence,4_94,2023-05-01T17:44:22.925Z,,0,,,5610.077999982168,completion,,,,,false,,,,783540.5,783540.2999999821,777913.556,777925,777930.222,783547.097,6,300,,,
trial,html.Screen,4_95_0,2023-05-01T17:44:25.674Z,,0,2,,2742.30300000601,response,ISIC_0029198.JPG,,ISIC_3967213.JPG,ISIC_3967213.JPG,false,0,keypress(z),500,786289.900000006,786289.400000006,783530.431,783540.6999999881,783547.097,786296.987,6,300,46,,ISIC_0029198.JPG
break,html.Screen,4_95_1,2023-05-01T17:44:25.676Z,,0,,,NaN,,,,,,false,,,,786291.400000006,786291.1999999881,,786290.1999999881,,786296.987,6,300,,,
break_continue,html.Screen,4_95_2,2023-05-01T17:44:25.676Z,,0,,,NaN,,,,,,false,,,,786292,786291.7999999821,,786291.599999994,,786296.987,6,300,,,
sequence,flow.Sequence,4_95,2023-05-01T17:44:25.676Z,,0,,,2744.702999982168,completion,,,,,false,,,,786292.099999994,786291.7999999821,783530.431,783540.6999999881,783547.097,786296.987,6,300,,,
trial,html.Screen,4_96_0,2023-05-01T17:44:29.365Z,,0,2,,3683.0130000000354,response,ISIC_0070927.JPG,,ISIC_0030856.JPG,ISIC_0030856.JPG,false,0,keypress(z),500,789980.5,789980,786280.321,786292.2999999821,786296.987,789997.27,6,300,47,,ISIC_0070927.JPG
break,html.Screen,4_96_1,2023-05-01T17:44:29.366Z,,0,,,NaN,,,,,,false,,,,789982.099999994,789981.7999999821,,789980.7999999821,,789997.27,6,300,,,
break_continue,html.Screen,4_96_2,2023-05-01T17:44:29.366Z,,0,,,NaN,,,,,,false,,,,789982.5,789982.400000006,,789982.2999999821,,789997.27,6,300,,,
sequence,flow.Sequence,4_96,2023-05-01T17:44:29.367Z,,0,,,3685.413000005996,completion,,,,,false,,,,789982.5,789982.400000006,786280.321,786292.1999999881,786296.987,789997.27,6,300,,,
trial,html.Screen,4_97_0,2023-05-01T17:44:32.219Z,,0,2,,2837.2299999999814,response,ISIC_6062657.JPG,,ISIC_0032492.JPG,ISIC_6062657.JPG,false,1,keypress(m),500,792834.900000006,792834.5,789980.604,789982.6999999881,789997.27,792847.156,6,300,48,,ISIC_0032492.JPG
break,html.Screen,4_97_1,2023-05-01T17:44:32.220Z,,0,,,NaN,,,,,,false,,,,792836.400000006,792836.1999999881,,792835.1999999881,,792847.156,6,300,,,
break_continue,html.Screen,4_97_2,2023-05-01T17:44:32.221Z,,0,,,NaN,,,,,,false,,,,792837,792836.7999999821,,792836.599999994,,792847.156,6,300,,,
sequence,flow.Sequence,4_97,2023-05-01T17:44:32.221Z,,0,,,2839.5299999821,completion,,,,,false,,,,792837.099999994,792836.7999999821,789980.604,789982.599999994,789997.27,792847.156,6,300,,,
trial,html.Screen,4_98_0,2023-05-01T17:44:36.010Z,,0,2,,3778.54399998812,response,ISIC_5296963.JPG,,ISIC_9760652.JPG,ISIC_5296963.JPG,false,1,keypress(m),500,796626.099999994,796625.6999999881,792830.49,792837.2999999821,792847.156,796630.338,6,300,49,,ISIC_9760652.JPG
break,html.Screen,4_98_1,2023-05-01T17:44:36.012Z,,0,,,NaN,,,,,,false,,,,796627.6999999881,796627.400000006,,796626.5,,796630.338,6,300,,,
break_continue,html.Screen,4_98_2,2023-05-01T17:44:36.012Z,,0,,,NaN,,,,,,false,,,,796628.2999999821,796628,,796627.900000006,,796630.338,6,300,,,
sequence,flow.Sequence,4_98,2023-05-01T17:44:36.012Z,,0,,,3780.844000000041,completion,,,,,false,,,,796628.400000006,796628,792830.49,792837.1999999881,792847.156,796630.338,6,300,,,
trial,html.Screen,4_99_0,2023-05-01T17:44:38.883Z,,0,2,,2868.0620000059716,response,ISIC_2969968.JPG,,ISIC_0001151.JPG,ISIC_2969968.JPG,false,1,keypress(m),500,799498.7999999821,799498.400000006,796613.672,796628.599999994,796630.338,799513.556,6,300,50,,ISIC_0001151.JPG
break,html.Screen,4_99_1,2023-05-01T17:44:43.884Z,,0,,,5000.209000000032,timeout,,,,,false,,,,804499.7999999821,804497.099,799496.89,799499.099999994,799513.556,804513.765,6,300,,,
break_continue,html.Screen,4_99_2,2023-05-01T17:44:45.355Z,,0,,,1438.1350000059465,response,,,,,false,continue,keypress(Space),,805970.7999999821,805951.900000006,804497.099,804500.099999994,804513.765,805980.373,6,300,,,
sequence,flow.Sequence,4_99,2023-05-01T17:44:45.355Z,,0,,,9321.562000005972,completion,,,,,false,,,,805971,805951.900000006,796613.672,796628.5,796630.338,805980.373,6,300,,,
trial,html.Screen,4_100_0,2023-05-01T17:44:49.162Z,,0,3,,3797.527000005939,response,ISIC_0064836.JPG,,ISIC_3281565.JPG,ISIC_0064836.JPG,false,1,keypress(m),500,809778.400000006,809777.900000006,805963.707,805971.099999994,805980.373,809780.221,6,300,1,,ISIC_3281565.JPG
break,html.Screen,4_100_1,2023-05-01T17:44:49.164Z,,0,,,NaN,,,,,,false,,,,809780,809779.599999994,,809778.6999999881,,809780.221,6,300,,,
break_continue,html.Screen,4_100_2,2023-05-01T17:44:49.164Z,,0,,,NaN,,,,,,false,,,,809780.400000006,809780.1999999881,,809780,,809780.221,6,300,,,
sequence,flow.Sequence,4_100,2023-05-01T17:44:49.164Z,,0,,,3799.8269999880577,completion,,,,,false,,,,809780.599999994,809780.1999999881,805963.707,805971.099999994,805980.373,809780.221,6,300,,,
trial,html.Screen,4_101_0,2023-05-01T17:44:52.340Z,,0,3,,3175.578999982099,response,ISIC_0034107.JPG,,ISIC_1185006.JPG,ISIC_0034107.JPG,false,1,keypress(m),500,812956.1999999881,812955.7999999821,809763.555,809780.6999999881,809780.221,812963.85,6,300,2,,ISIC_1185006.JPG
break,html.Screen,4_101_1,2023-05-01T17:44:52.342Z,,0,,,NaN,,,,,,false,,,,812957.7999999821,812957.400000006,,812956.5,,812963.85,6,300,,,
break_continue,html.Screen,4_101_2,2023-05-01T17:44:52.342Z,,0,,,NaN,,,,,,false,,,,812958.099999994,812958,,812957.900000006,,812963.85,6,300,,,
sequence,flow.Sequence,4_101,2023-05-01T17:44:52.342Z,,0,,,3177.7789999999804,completion,,,,,false,,,,812958.1999999881,812958,809763.555,809780.599999994,809780.221,812963.85,6,300,,,
trial,html.Screen,4_102_0,2023-05-01T17:44:55.163Z,,0,3,,2814.5500000059837,response,ISIC_0032762.JPG,,ISIC_0058224.JPG,ISIC_0032762.JPG,false,1,keypress(m),500,815778.900000006,815778.400000006,812947.184,812958.2999999821,812963.85,815780.404,6,300,3,,ISIC_0058224.JPG
break,html.Screen,4_102_1,2023-05-01T17:44:55.164Z,,0,,,NaN,,,,,,false,,,,815780.599999994,815780.2999999821,,815779.1999999881,,815780.404,6,300,,,
break_continue,html.Screen,4_102_2,2023-05-01T17:44:55.165Z,,0,,,NaN,,,,,,false,,,,815781,815780.900000006,,815780.6999999881,,815780.404,6,300,,,
sequence,flow.Sequence,4_102,2023-05-01T17:44:55.165Z,,0,,,2817.0500000059837,completion,,,,,false,,,,815781.1999999881,815780.900000006,812947.184,812958.1999999881,812963.85,815780.404,6,300,,,
trial,html.Screen,4_103_0,2023-05-01T17:44:57.835Z,,0,3,,2669.99600000598,response,ISIC_0028420.JPG,,ISIC_0026738.JPG,ISIC_0028420.JPG,false,1,keypress(m),500,818450.7999999821,818450.400000006,815763.738,815781.2999999821,815780.404,818463.63,6,300,4,,ISIC_0026738.JPG
break,html.Screen,4_103_1,2023-05-01T17:44:57.836Z,,0,,,NaN,,,,,,false,,,,818452.400000006,818452.099999994,,818451.099999994,,818463.63,6,300,,,
break_continue,html.Screen,4_103_2,2023-05-01T17:44:57.837Z,,0,,,NaN,,,,,,false,,,,818452.900000006,818452.6999999881,,818452.5,,818463.63,6,300,,,
sequence,flow.Sequence,4_103,2023-05-01T17:44:57.837Z,,0,,,2672.2959999880986,completion,,,,,false,,,,818453,818452.6999999881,815763.738,815781.2999999821,815780.404,818463.63,6,300,,,
trial,html.Screen,4_104_0,2023-05-01T17:45:00.453Z,,0,3,,2604.8699999999953,response,ISIC_6507412.JPG,,ISIC_3251773.JPG,ISIC_6507412.JPG,false,1,keypress(m),500,821068.900000006,821068.5,818446.964,818453.1999999881,818463.63,821080.598,6,300,5,,ISIC_3251773.JPG
break,html.Screen,4_104_1,2023-05-01T17:45:00.454Z,,0,,,NaN,,,,,,false,,,,821070.599999994,821070.1999999881,,821069.1999999881,,821080.598,6,300,,,
break_continue,html.Screen,4_104_2,2023-05-01T17:45:00.455Z,,0,,,NaN,,,,,,false,,,,821071.099999994,821070.900000006,,821070.6999999881,,821080.598,6,300,,,
sequence,flow.Sequence,4_104,2023-05-01T17:45:00.455Z,,0,,,2607.270000005956,completion,,,,,false,,,,821071.2999999821,821070.900000006,818446.964,818453.099999994,818463.63,821080.598,6,300,,,
trial,html.Screen,4_105_0,2023-05-01T17:45:03.603Z,,0,3,,3137.8020000059623,response,ISIC_0033166.JPG,,ISIC_3073339.JPG,ISIC_0033166.JPG,false,1,keypress(m),500,824218.7999999821,824218.400000006,821063.932,821071.5,821080.598,824230.472,6,300,6,,ISIC_3073339.JPG
break,html.Screen,4_105_1,2023-05-01T17:45:03.604Z,,0,,,NaN,,,,,,false,,,,824220.5,824220.1999999881,,824219.099999994,,824230.472,6,300,,,
break_continue,html.Screen,4_105_2,2023-05-01T17:45:03.605Z,,0,,,NaN,,,,,,false,,,,824220.900000006,824220.7999999821,,824220.599999994,,824230.472,6,300,,,
sequence,flow.Sequence,4_105,2023-05-01T17:45:03.605Z,,0,,,3140.2019999821205,completion,,,,,false,,,,824221.1999999881,824220.7999999821,821063.932,821071.400000006,821080.598,824230.472,6,300,,,
trial,html.Screen,4_106_0,2023-05-01T17:45:07.323Z,,0,3,,3708.0280000000494,response,ISIC_7264251.JPG,,ISIC_0055450.JPG,ISIC_7264251.JPG,false,1,keypress(m),500,827939.099999994,827938.5,824213.806,824221.2999999821,824230.472,827946.99,6,300,7,,ISIC_0055450.JPG
break,html.Screen,4_106_1,2023-05-01T17:45:07.324Z,,0,,,NaN,,,,,,false,,,,827940.6999999881,827940.400000006,,827939.400000006,,827946.99,6,300,,,
break_continue,html.Screen,4_106_2,2023-05-01T17:45:07.325Z,,0,,,NaN,,,,,,false,,,,827941.1999999881,827941,,827940.900000006,,827946.99,6,300,,,
sequence,flow.Sequence,4_106,2023-05-01T17:45:07.325Z,,0,,,3710.5280000000494,completion,,,,,false,,,,827941.2999999821,827941,824213.806,824221.2999999821,824230.472,827946.99,6,300,,,
trial,html.Screen,4_107_0,2023-05-01T17:45:10.507Z,,0,3,,3175.41000000597,response,ISIC_0010540.JPG,,ISIC_2376758.JPG,ISIC_2376758.JPG,false,0,keypress(z),500,831122.900000006,831122.400000006,827930.324,827941.5,827946.99,831130.638,6,300,8,,ISIC_0010540.JPG
break,html.Screen,4_107_1,2023-05-01T17:45:10.508Z,,0,,,NaN,,,,,,false,,,,831124.400000006,831124.099999994,,831123.1999999881,,831130.638,6,300,,,
break_continue,html.Screen,4_107_2,2023-05-01T17:45:10.509Z,,0,,,NaN,,,,,,false,,,,831124.900000006,831124.7999999821,,831124.599999994,,831130.638,6,300,,,
sequence,flow.Sequence,4_107,2023-05-01T17:45:10.509Z,,0,,,3177.809999982128,completion,,,,,false,,,,831125.099999994,831124.7999999821,827930.324,827941.400000006,827946.99,831130.638,6,300,,,
trial,html.Screen,4_108_0,2023-05-01T17:45:13.482Z,,0,3,,2967.3619999999646,response,ISIC_3791309.JPG,,ISIC_0060403.JPG,ISIC_3791309.JPG,false,1,keypress(m),500,834098.1999999881,834098,831113.972,831125.1999999881,831130.638,834113.852,6,300,9,,ISIC_0060403.JPG
break,html.Screen,4_108_1,2023-05-01T17:45:13.483Z,,0,,,NaN,,,,,,false,,,,834099.2999999821,834099.1999999881,,834098.5,,834113.852,6,300,,,
break_continue,html.Screen,4_108_2,2023-05-01T17:45:13.483Z,,0,,,NaN,,,,,,false,,,,834099.599999994,834099.5,,834099.400000006,,834113.852,6,300,,,
sequence,flow.Sequence,4_108,2023-05-01T17:45:13.483Z,,0,,,2968.8619999999646,completion,,,,,false,,,,834099.6999999881,834099.5,831113.972,831125.1999999881,831130.638,834113.852,6,300,,,
trial,html.Screen,4_109_0,2023-05-01T17:45:16.435Z,,0,3,,2936.7479999940842,response,ISIC_4724660.JPG,,ISIC_0779920.JPG,ISIC_4724660.JPG,false,1,keypress(m),500,837050.900000006,837050.599999994,834097.186,834099.900000006,834113.852,837063.734,6,300,10,,ISIC_0779920.JPG
break,html.Screen,4_109_1,2023-05-01T17:45:16.436Z,,0,,,NaN,,,,,,false,,,,837052,837051.7999999821,,837051.099999994,,837063.734,6,300,,,
break_continue,html.Screen,4_109_2,2023-05-01T17:45:16.436Z,,0,,,NaN,,,,,,false,,,,837052.2999999821,837052.1999999881,,837052.099999994,,837063.734,6,300,,,
sequence,flow.Sequence,4_109,2023-05-01T17:45:16.436Z,,0,,,2938.347999988124,completion,,,,,false,,,,837052.5,837052.1999999881,834097.186,834099.7999999821,834113.852,837063.734,6,300,,,
trial,html.Screen,4_110_0,2023-05-01T17:45:19.122Z,,0,3,,2674.465999988024,response,ISIC_3352962.JPG,,ISIC_0059181.JPG,ISIC_3352962.JPG,false,1,keypress(m),500,839738.599999994,839738.1999999881,837047.068,837052.5,837063.734,839746.96,6,300,11,,ISIC_0059181.JPG
break,html.Screen,4_110_1,2023-05-01T17:45:19.124Z,,0,,,NaN,,,,,,false,,,,839740.1999999881,839739.900000006,,839739,,839746.96,6,300,,,
break_continue,html.Screen,4_110_2,2023-05-01T17:45:19.124Z,,0,,,NaN,,,,,,false,,,,839740.599999994,839740.400000006,,839740.2999999821,,839746.96,6,300,,,
sequence,flow.Sequence,4_110,2023-05-01T17:45:19.124Z,,0,,,2676.6660000059055,completion,,,,,false,,,,839740.7999999821,839740.400000006,837047.068,837052.5,837063.734,839746.96,6,300,,,
trial,html.Screen,4_111_0,2023-05-01T17:45:21.770Z,,0,3,,2639.4400000059977,response,ISIC_9465061.JPG,,ISIC_0192490.JPG,ISIC_0192490.JPG,false,0,keypress(z),500,842386.900000006,842386.400000006,839730.294,839741,839746.96,842397.262,6,300,12,,ISIC_9465061.JPG
break,html.Screen,4_111_1,2023-05-01T17:45:21.772Z,,0,,,NaN,,,,,,false,,,,842388.400000006,842388.099999994,,842387.1999999881,,842397.262,6,300,,,
break_continue,html.Screen,4_111_2,2023-05-01T17:45:21.772Z,,0,,,NaN,,,,,,false,,,,842388.7999999821,842388.6999999881,,842388.5,,842397.262,6,300,,,
sequence,flow.Sequence,4_111,2023-05-01T17:45:21.773Z,,0,,,2641.7399999881163,completion,,,,,false,,,,842389,842388.6999999881,839730.294,839740.900000006,839746.96,842397.262,6,300,,,
trial,html.Screen,4_112_0,2023-05-01T17:45:24.868Z,,0,3,,3086.937999988091,response,ISIC_0032204.JPG,,ISIC_3409824.JPG,ISIC_0032204.JPG,false,1,keypress(m),500,845484.599999994,845484.1999999881,842380.596,842389.1999999881,842397.262,845497.138,6,300,13,,ISIC_3409824.JPG
break,html.Screen,4_112_1,2023-05-01T17:45:24.870Z,,0,,,NaN,,,,,,false,,,,845486.1999999881,845485.7999999821,,845485,,845497.138,6,300,,,
break_continue,html.Screen,4_112_2,2023-05-01T17:45:24.870Z,,0,,,NaN,,,,,,false,,,,845486.6999999881,845486.599999994,,845486.400000006,,845497.138,6,300,,,
sequence,flow.Sequence,4_112,2023-05-01T17:45:24.870Z,,0,,,3089.3379999940516,completion,,,,,false,,,,845486.7999999821,845486.599999994,842380.596,842389.099999994,842397.262,845497.138,6,300,,,
trial,html.Screen,4_113_0,2023-05-01T17:45:28.066Z,,0,3,,3185.161999982083,response,ISIC_0012048.JPG,,ISIC_1337726.JPG,ISIC_1337726.JPG,false,0,keypress(z),500,848682.7999999821,848682.2999999821,845480.472,845487,845497.138,848697.01,6,300,14,,ISIC_0012048.JPG
break,html.Screen,4_113_1,2023-05-01T17:45:28.068Z,,0,,,NaN,,,,,,false,,,,848684.400000006,848684,,848683,,848697.01,6,300,,,
break_continue,html.Screen,4_113_2,2023-05-01T17:45:28.068Z,,0,,,NaN,,,,,,false,,,,848684.900000006,848684.6999999881,,848684.5,,848697.01,6,300,,,
sequence,flow.Sequence,4_113,2023-05-01T17:45:28.069Z,,0,,,3187.5619999880437,completion,,,,,false,,,,848685,848684.6999999881,845480.472,845486.900000006,845497.138,848697.01,6,300,,,
trial,html.Screen,4_114_0,2023-05-01T17:45:32.834Z,,0,3,,4753.18999998807,response,ISIC_9978107.JPG,,ISIC_0061371.JPG,ISIC_9978107.JPG,false,1,keypress(m),500,853450.7999999821,853450.1999999881,848680.344,848685.099999994,848697.01,853463.971,6,300,15,,ISIC_0061371.JPG
break,html.Screen,4_114_1,2023-05-01T17:45:32.836Z,,0,,,NaN,,,,,,false,,,,853452.2999999821,853452,,853451.099999994,,853463.971,6,300,,,
break_continue,html.Screen,4_114_2,2023-05-01T17:45:32.836Z,,0,,,NaN,,,,,,false,,,,853452.7999999821,853452.6999999881,,853452.5,,853463.971,6,300,,,
sequence,flow.Sequence,4_114,2023-05-01T17:45:32.837Z,,0,,,4755.68999998807,completion,,,,,false,,,,853453,853452.6999999881,848680.344,848685.099999994,848697.01,853463.971,6,300,,,
trial,html.Screen,4_115_0,2023-05-01T17:45:35.977Z,,0,3,,3129.62899999402,response,ISIC_0072294.JPG,,ISIC_4933735.JPG,ISIC_0072294.JPG,false,1,keypress(m),500,856594,856593.599999994,853447.305,853453.1999999881,853463.971,856597.179,6,300,16,,ISIC_4933735.JPG
break,html.Screen,4_115_1,2023-05-01T17:45:35.979Z,,0,,,NaN,,,,,,false,,,,856595.599999994,856595.1999999881,,856594.2999999821,,856597.179,6,300,,,
break_continue,html.Screen,4_115_2,2023-05-01T17:45:35.979Z,,0,,,NaN,,,,,,false,,,,856596,856595.900000006,,856595.6999999881,,856597.179,6,300,,,
sequence,flow.Sequence,4_115,2023-05-01T17:45:35.980Z,,0,,,3131.929000005941,completion,,,,,false,,,,856596.1999999881,856595.900000006,853447.305,853453.099999994,853463.971,856597.179,6,300,,,
trial,html.Screen,4_116_0,2023-05-01T17:45:38.682Z,,0,3,,2700.620999982115,response,ISIC_0011645.JPG,,ISIC_0027221.JPG,ISIC_0027221.JPG,false,0,keypress(z),500,859298.2999999821,859297.7999999821,856580.513,856596.2999999821,856597.179,859313.737,6,300,17,,ISIC_0011645.JPG
break,html.Screen,4_116_1,2023-05-01T17:45:38.683Z,,0,,,NaN,,,,,,false,,,,859299.7999999821,859299.5,,859298.5,,859313.737,6,300,,,
break_continue,html.Screen,4_116_2,2023-05-01T17:45:38.684Z,,0,,,NaN,,,,,,false,,,,859300.2999999821,859300.099999994,,859299.900000006,,859313.737,6,300,,,
sequence,flow.Sequence,4_116,2023-05-01T17:45:38.684Z,,0,,,2702.920999994036,completion,,,,,false,,,,859300.400000006,859300.099999994,856580.513,856596.1999999881,856597.179,859313.737,6,300,,,
trial,html.Screen,4_117_0,2023-05-01T17:45:41.386Z,,0,3,,2688.163000005996,response,ISIC_0070588.JPG,,ISIC_7066723.JPG,ISIC_7066723.JPG,false,0,keypress(z),500,862002.400000006,862001.900000006,859297.071,859300.599999994,859313.737,862013.629,6,300,18,,ISIC_0070588.JPG
break,html.Screen,4_117_1,2023-05-01T17:45:41.387Z,,0,,,NaN,,,,,,false,,,,862004,862003.6999999881,,862002.599999994,,862013.629,6,300,,,
break_continue,html.Screen,4_117_2,2023-05-01T17:45:41.388Z,,0,,,NaN,,,,,,false,,,,862004.5,862004.2999999821,,862004.099999994,,862013.629,6,300,,,
sequence,flow.Sequence,4_117,2023-05-01T17:45:41.388Z,,0,,,2690.562999982154,completion,,,,,false,,,,862004.599999994,862004.2999999821,859297.071,859300.599999994,859313.737,862013.629,6,300,,,
trial,html.Screen,4_118_0,2023-05-01T17:45:45.458Z,,0,3,,4060.7710000060033,response,ISIC_6271913.JPG,,ISIC_2598575.JPG,ISIC_6271913.JPG,false,1,keypress(m),500,866074.6999999881,866074.400000006,861996.963,862004.7999999821,862013.629,866080.55,6,300,19,,ISIC_2598575.JPG
break,html.Screen,4_118_1,2023-05-01T17:45:45.460Z,,0,,,NaN,,,,,,false,,,,866076.400000006,866076.099999994,,866075.099999994,,866080.55,6,300,,,
break_continue,html.Screen,4_118_2,2023-05-01T17:45:45.460Z,,0,,,NaN,,,,,,false,,,,866076.900000006,866076.7999999821,,866076.5,,866080.55,6,300,,,
sequence,flow.Sequence,4_118,2023-05-01T17:45:45.460Z,,0,,,4063.1709999821614,completion,,,,,false,,,,866077.099999994,866076.7999999821,861996.963,862004.7999999821,862013.629,866080.55,6,300,,,
trial,html.Screen,4_119_0,2023-05-01T17:45:48.106Z,,0,3,,2641.850000005914,response,ISIC_0026692.JPG,,ISIC_7785723.JPG,ISIC_7785723.JPG,false,0,keypress(z),500,868722.7999999821,868722.400000006,866063.884,866077.1999999881,866080.55,868730.444,6,300,20,,ISIC_0026692.JPG
break,html.Screen,4_119_1,2023-05-01T17:45:48.108Z,,0,,,NaN,,,,,,false,,,,868724.400000006,868724.099999994,,868723.1999999881,,868730.444,6,300,,,
break_continue,html.Screen,4_119_2,2023-05-01T17:45:48.108Z,,0,,,NaN,,,,,,false,,,,868724.900000006,868724.7999999821,,868724.599999994,,868730.444,6,300,,,
sequence,flow.Sequence,4_119,2023-05-01T17:45:48.108Z,,0,,,2644.249999982072,completion,,,,,false,,,,868725.099999994,868724.7999999821,866063.884,866077.099999994,866080.55,868730.444,6,300,,,
trial,html.Screen,4_120_0,2023-05-01T17:45:51.514Z,,0,3,,3399.855999982101,response,ISIC_9114539.JPG,,ISIC_0030969.JPG,ISIC_0030969.JPG,false,0,keypress(z),500,872130.7999999821,872130.2999999821,868713.778,868725.2999999821,868730.444,872146.974,6,300,21,,ISIC_9114539.JPG
break,html.Screen,4_120_1,2023-05-01T17:45:51.516Z,,0,,,NaN,,,,,,false,,,,872132.2999999821,872132,,872131,,872146.974,6,300,,,
break_continue,html.Screen,4_120_2,2023-05-01T17:45:51.516Z,,0,,,NaN,,,,,,false,,,,872132.7999999821,872132.599999994,,872132.5,,872146.974,6,300,,,
sequence,flow.Sequence,4_120,2023-05-01T17:45:51.516Z,,0,,,3402.155999994022,completion,,,,,false,,,,872132.900000006,872132.599999994,868713.778,868725.1999999881,868730.444,872146.974,6,300,,,
trial,html.Screen,4_121_0,2023-05-01T17:45:54.420Z,,0,3,,2889.325999982073,response,ISIC_8257549.JPG,,ISIC_1784255.JPG,ISIC_8257549.JPG,false,1,keypress(m),500,875036.6999999881,875036.2999999821,872130.308,872133.099999994,872146.974,875047.254,6,300,22,,ISIC_1784255.JPG
break,html.Screen,4_121_1,2023-05-01T17:45:54.422Z,,0,,,NaN,,,,,,false,,,,875038.400000006,875038.099999994,,875037.099999994,,875047.254,6,300,,,
break_continue,html.Screen,4_121_2,2023-05-01T17:45:54.422Z,,0,,,NaN,,,,,,false,,,,875038.7999999821,875038.599999994,,875038.400000006,,875047.254,6,300,,,
sequence,flow.Sequence,4_121,2023-05-01T17:45:54.422Z,,0,,,2891.625999993994,completion,,,,,false,,,,875039,875038.599999994,872130.308,872133,872146.974,875047.254,6,300,,,
trial,html.Screen,4_122_0,2023-05-01T17:45:57.042Z,,0,3,,2610.945999988122,response,ISIC_7961365.JPG,,ISIC_0000434.JPG,ISIC_7961365.JPG,false,1,keypress(m),500,877658.599999994,877658.1999999881,875030.588,875039.099999994,875047.254,877663.816,6,300,23,,ISIC_0000434.JPG
break,html.Screen,4_122_1,2023-05-01T17:45:57.043Z,,0,,,NaN,,,,,,false,,,,877660.1999999881,877659.900000006,,877658.900000006,,877663.816,6,300,,,
break_continue,html.Screen,4_122_2,2023-05-01T17:45:57.044Z,,0,,,NaN,,,,,,false,,,,877660.6999999881,877660.6999999881,,877660.400000006,,877663.816,6,300,,,
sequence,flow.Sequence,4_122,2023-05-01T17:45:57.044Z,,0,,,2613.445999988122,completion,,,,,false,,,,877660.900000006,877660.6999999881,875030.588,875039,875047.254,877663.816,6,300,,,
trial,html.Screen,4_123_0,2023-05-01T17:45:59.698Z,,0,3,,2650.6840000000084,response,ISIC_1118894.JPG,,ISIC_5390932.JPG,ISIC_5390932.JPG,false,0,keypress(z),500,880314.7999999821,880314.5,877647.15,877661,877663.816,880330.376,6,300,24,,ISIC_1118894.JPG
break,html.Screen,4_123_1,2023-05-01T17:45:59.699Z,,0,,,NaN,,,,,,false,,,,880315.7999999821,880315.6999999881,,880315,,880330.376,6,300,,,
break_continue,html.Screen,4_123_2,2023-05-01T17:45:59.699Z,,0,,,NaN,,,,,,false,,,,880316.099999994,880316.099999994,,880316,,880330.376,6,300,,,
sequence,flow.Sequence,4_123,2023-05-01T17:45:59.699Z,,0,,,2652.283999994048,completion,,,,,false,,,,880316.1999999881,880316.099999994,877647.15,877661,877663.816,880330.376,6,300,,,
trial,html.Screen,4_124_0,2023-05-01T17:46:04.138Z,,0,3,,4424.024000005913,response,ISIC_1071355.JPG,,ISIC_0026185.JPG,ISIC_0026185.JPG,false,0,keypress(z),500,884755,884754.400000006,880313.71,880316.2999999821,880330.376,884763.984,6,300,25,,ISIC_1071355.JPG
break,html.Screen,4_124_1,2023-05-01T17:46:04.140Z,,0,,,NaN,,,,,,false,,,,884756.599999994,884756.1999999881,,884755.1999999881,,884763.984,6,300,,,
break_continue,html.Screen,4_124_2,2023-05-01T17:46:04.140Z,,0,,,NaN,,,,,,false,,,,884757,884756.900000006,,884756.6999999881,,884763.984,6,300,,,
sequence,flow.Sequence,4_124,2023-05-01T17:46:04.140Z,,0,,,4426.524000005913,completion,,,,,false,,,,884757.1999999881,884756.900000006,880313.71,880316.1999999881,880330.376,884763.984,6,300,,,
trial,html.Screen,4_125_0,2023-05-01T17:46:06.714Z,,0,3,,2566.3159999820637,response,ISIC_1565767.JPG,,ISIC_1264725.JPG,ISIC_1264725.JPG,false,0,keypress(z),500,887330.7999999821,887330.2999999821,884747.318,884757.2999999821,884763.984,887347.214,6,300,26,,ISIC_1565767.JPG
break,html.Screen,4_125_1,2023-05-01T17:46:06.716Z,,0,,,NaN,,,,,,false,,,,887332.400000006,887332,,887331.099999994,,887347.214,6,300,,,
break_continue,html.Screen,4_125_2,2023-05-01T17:46:06.716Z,,0,,,NaN,,,,,,false,,,,887332.7999999821,887332.6999999881,,887332.5,,887347.214,6,300,,,
sequence,flow.Sequence,4_125,2023-05-01T17:46:06.716Z,,0,,,2568.715999988024,completion,,,,,false,,,,887333,887332.6999999881,884747.318,884757.2999999821,884763.984,887347.214,6,300,,,
trial,html.Screen,4_126_0,2023-05-01T17:46:10.330Z,,0,3,,3599.5859999820823,response,ISIC_5434229.JPG,,ISIC_0016085.JPG,ISIC_5434229.JPG,false,1,keypress(m),500,890947.2999999821,890946.7999999821,887330.548,887333.099999994,887347.214,890963.736,6,300,27,,ISIC_0016085.JPG
break,html.Screen,4_126_1,2023-05-01T17:46:10.332Z,,0,,,NaN,,,,,,false,,,,890948.900000006,890948.5,,890947.599999994,,890963.736,6,300,,,
break_continue,html.Screen,4_126_2,2023-05-01T17:46:10.333Z,,0,,,NaN,,,,,,false,,,,890949.400000006,890949.1999999881,,890949,,890963.736,6,300,,,
sequence,flow.Sequence,4_126,2023-05-01T17:46:10.333Z,,0,,,3601.9859999880427,completion,,,,,false,,,,890949.5,890949.1999999881,887330.548,887333.099999994,887347.214,890963.736,6,300,,,
