sender,sender_type,sender_id,timestamp,meta,,blockNo,condition,duration,ended_on,img_left,img_reveal,img_right,loser,practice,response,response_action,selection_duration,time_commit,time_end,time_render,time_run,time_show,time_switch,total_blocks,total_trials,trialNo,url,winner
informed_consent,html.Screen,0,2023-05-03T18:27:19.021Z,"{""labjs_version"":""20.2.4"",""labjs_build"":{""flavor"":""production"",""commit"":""f5b4a49f956347addd546a832a3327688c2c0fef""},""location"":""https://run.pavlovia.org/MurrayBennett/melanoma-2afc/?participant=64989"",""userAgent"":""Mozilla/5.0 (Macintosh; Intel Mac OS X 10_15_7) AppleWebKit/605.1.15 (KHTML, like Gecko) Version/15.1 Safari/605.1.15"",""platform"":""MacIntel"",""language"":""en-US"",""locale"":""en-US"",""timeZone"":""America/Chicago"",""timezoneOffset"":300,""screen_width"":1440,""screen_height"":900,""scroll_width"":1440,""scroll_height"":772,""window_innerWidth"":1440,""window_innerHeight"":820,""devicePixelRatio"":2}",,,,2720,response,,,,,,consent,click button,,9374,9366,6646,2166,6714,9414,,,,"{""participant"":""64989""}",
Welcome,html.Screen,1,2023-05-03T18:27:20.388Z,,,,regular,1343.0000000000018,response,,,,,,continue,click button,,10741,10732.000000000002,9389,9375,9414,10798,,,,,
trial,html.Screen,2_0_0,2023-05-03T18:27:31.489Z,,0,0,,11078,response,ISIC_0061792.JPG,,ISIC_4679428.JPG,ISIC_0061792.JPG,true,1,keypress(m),500,21843,21842,10764,10742,10798,21898,1,6,1,,ISIC_4679428.JPG
sequence,flow.Sequence,2_0,2023-05-03T18:27:31.490Z,,0,,,11044,completion,,,,,true,,,,21844,21842,10764,10742,10798,21898,1,6,,,
trial,html.Screen,2_1_0,2023-05-03T18:27:37.237Z,,0,0,,5725,response,ISIC_0776486.JPG,,ISIC_5199497.JPG,ISIC_0776486.JPG,true,1,keypress(m),500,27591,27590,21865,21844,21898,27648,1,6,2,,ISIC_5199497.JPG
sequence,flow.Sequence,2_1,2023-05-03T18:27:37.238Z,,0,,,5692,completion,,,,,true,,,,27591,27590,21865,21844,21898,27648,1,6,,,
trial,html.Screen,2_2_0,2023-05-03T18:27:43.650Z,,0,0,,6388,response,ISIC_2556187.JPG,,ISIC_8575776.JPG,ISIC_2556187.JPG,true,1,keypress(m),500,34004,34003,27615,27592.000000000004,27648,34048,1,6,3,,ISIC_8575776.JPG
sequence,flow.Sequence,2_2,2023-05-03T18:27:43.650Z,,0,,,6355,completion,,,,,true,,,,34004,34003,27615,27592.000000000004,27648,34048,1,6,,,
trial,html.Screen,2_3_0,2023-05-03T18:27:48.446Z,,0,0,,4785,response,ISIC_8141769.JPG,,ISIC_9238366.JPG,ISIC_8141769.JPG,true,1,keypress(m),500,38800.00000000001,38799,34014,34004,34048,38848,1,6,4,,ISIC_9238366.JPG
sequence,flow.Sequence,2_3,2023-05-03T18:27:48.447Z,,0,,,4751,completion,,,,,true,,,,38800.00000000001,38799,34014,34004,34048,38848,1,6,,,
trial,html.Screen,2_4_0,2023-05-03T18:27:59.962Z,,0,0,,11533,timeout,ISIC_8949026.JPG,,ISIC_9959593.JPG,,true,,,500,50316,50316,38815,38801,38848,50381,1,6,5,,
sequence,flow.Sequence,2_4,2023-05-03T18:27:59.963Z,,0,,,11468,completion,,,,,true,,,,50317,50316,38815,38801,38848,50381,1,6,,,
trial,html.Screen,2_5_0,2023-05-03T18:28:04.433Z,,0,0,,4438,response,ISIC_0010479.JPG,,ISIC_0460240.JPG,ISIC_0010479.JPG,true,1,keypress(m),500,54787,54787,50349,50317,50381,54849,1,6,6,,ISIC_0460240.JPG
sequence,flow.Sequence,2_5,2023-05-03T18:28:04.434Z,,0,,,4406,completion,,,,,true,,,,54788.00000000001,54787,50349,50317,50381,54849,1,6,,,
loop,flow.Loop,2,2023-05-03T18:28:04.434Z,,,,,43989,completion,,,,,true,,,,54788.00000000001,54787,10764,10741,10798,54849,1,6,,,
exp_instructions,html.Screen,3,2023-05-03T18:28:08.925Z,,,,,4449,response,,,,,,continue,keypress(Space),,59279,59264,54815,54789,54849,59332,,,,,
trial,html.Screen,4_0_0,2023-05-03T18:28:14.809Z,,0,1,,5865,response,ISIC_9122215.JPG,,ISIC_0016131.JPG,ISIC_0016131.JPG,false,0,keypress(z),500,65164,65163,59298,59280,59332,65216,8,400,1,,ISIC_9122215.JPG
break,html.Screen,4_0_1,2023-05-03T18:28:14.810Z,,0,,,NaN,,,,,,false,,,,65165.00000000001,65165.00000000001,,65164,,65216,8,400,,,
break_continue,html.Screen,4_0_2,2023-05-03T18:28:14.811Z,,0,,,NaN,,,,,,false,,,,65166,65165.00000000001,,65165.00000000001,,65216,8,400,,,
sequence,flow.Sequence,4_0,2023-05-03T18:28:14.811Z,,0,,,5833.000000000007,completion,,,,,false,,,,65166,65165.00000000001,59298,59280,59332,65216,8,400,,,
trial,html.Screen,4_1_0,2023-05-03T18:28:21.419Z,,0,1,,6591,response,ISIC_0000087.JPG,,ISIC_8569205.JPG,ISIC_8569205.JPG,false,0,keypress(z),500,71774,71773,65182,65166,65216,71832,8,400,2,,ISIC_0000087.JPG
break,html.Screen,4_1_1,2023-05-03T18:28:21.421Z,,0,,,NaN,,,,,,false,,,,71775,71775,,71774,,71832,8,400,,,
break_continue,html.Screen,4_1_2,2023-05-03T18:28:21.421Z,,0,,,NaN,,,,,,false,,,,71776,71776,,71775,,71832,8,400,,,
sequence,flow.Sequence,4_1,2023-05-03T18:28:21.421Z,,0,,,6560,completion,,,,,false,,,,71776,71776,65182,65166,65216,71832,8,400,,,
trial,html.Screen,4_2_0,2023-05-03T18:28:26.013Z,,0,1,,4568,response,ISIC_3963183.JPG,,ISIC_7413786.JPG,ISIC_3963183.JPG,false,1,keypress(m),500,76368,76367,71799,71776,71832,76416,8,400,3,,ISIC_7413786.JPG
break,html.Screen,4_2_1,2023-05-03T18:28:26.014Z,,0,,,NaN,,,,,,false,,,,76369,76369,,76368,,76416,8,400,,,
break_continue,html.Screen,4_2_2,2023-05-03T18:28:26.015Z,,0,,,NaN,,,,,,false,,,,76369,76369,,76369,,76416,8,400,,,
sequence,flow.Sequence,4_2,2023-05-03T18:28:26.015Z,,0,,,4537,completion,,,,,false,,,,76370,76369,71799,71776,71832,76416,8,400,,,
trial,html.Screen,4_3_0,2023-05-03T18:28:30.104Z,,0,1,,4075,response,ISIC_0000801.JPG,,ISIC_1693572.JPG,ISIC_1693572.JPG,false,0,keypress(z),500,80459,80458,76383,76370,76416,80516,8,400,4,,ISIC_0000801.JPG
break,html.Screen,4_3_1,2023-05-03T18:28:30.105Z,,0,,,NaN,,,,,,false,,,,80460.00000000001,80460.00000000001,,80460.00000000001,,80516,8,400,,,
break_continue,html.Screen,4_3_2,2023-05-03T18:28:30.106Z,,0,,,NaN,,,,,,false,,,,80461,80461,,80461,,80516,8,400,,,
sequence,flow.Sequence,4_3,2023-05-03T18:28:30.106Z,,0,,,4045,completion,,,,,false,,,,80461,80461,76383,76370,76416,80516,8,400,,,
trial,html.Screen,4_4_0,2023-05-03T18:28:36.432Z,,0,1,,6303,response,ISIC_1388297.JPG,,ISIC_2940684.JPG,ISIC_2940684.JPG,false,0,keypress(z),500,86787,86786,80483,80461,80516,86833,8,400,5,,ISIC_1388297.JPG
break,html.Screen,4_4_1,2023-05-03T18:28:36.433Z,,0,,,NaN,,,,,,false,,,,86788,86788,,86787,,86833,8,400,,,
break_continue,html.Screen,4_4_2,2023-05-03T18:28:36.434Z,,0,,,NaN,,,,,,false,,,,86789,86789,,86789,,86833,8,400,,,
sequence,flow.Sequence,4_4,2023-05-03T18:28:36.434Z,,0,,,6273,completion,,,,,false,,,,86789,86789,80483,80461,80516,86833,8,400,,,
trial,html.Screen,4_5_0,2023-05-03T18:28:40.420Z,,0,1,,3975,response,ISIC_0033044.JPG,,ISIC_0929483.JPG,ISIC_0929483.JPG,false,0,keypress(z),500,90775,90775,86800,86789,86833,90833,8,400,6,,ISIC_0033044.JPG
break,html.Screen,4_5_1,2023-05-03T18:28:40.421Z,,0,,,NaN,,,,,,false,,,,90776,90776,,90776,,90833,8,400,,,
break_continue,html.Screen,4_5_2,2023-05-03T18:28:40.422Z,,0,,,NaN,,,,,,false,,,,90777,90777,,90777,,90833,8,400,,,
sequence,flow.Sequence,4_5,2023-05-03T18:28:40.422Z,,0,,,3944,completion,,,,,false,,,,90777,90777,86800,86789,86833,90833,8,400,,,
trial,html.Screen,4_6_0,2023-05-03T18:28:44.815Z,,0,1,,4371,response,ISIC_0054459.JPG,,ISIC_1962844.JPG,ISIC_0054459.JPG,false,1,keypress(m),500,95171,95170,90799,90777,90833,95215,8,400,7,,ISIC_1962844.JPG
break,html.Screen,4_6_1,2023-05-03T18:28:44.817Z,,0,,,NaN,,,,,,false,,,,95172,95172,,95171,,95215,8,400,,,
break_continue,html.Screen,4_6_2,2023-05-03T18:28:44.817Z,,0,,,NaN,,,,,,false,,,,95172,95172,,95172,,95215,8,400,,,
sequence,flow.Sequence,4_6,2023-05-03T18:28:44.818Z,,0,,,4339,completion,,,,,false,,,,95173,95172,90799,90777,90833,95215,8,400,,,
trial,html.Screen,4_7_0,2023-05-03T18:28:48.550Z,,0,1,,3722,response,ISIC_9425937.JPG,,ISIC_4715386.JPG,ISIC_4715386.JPG,false,0,keypress(z),500,98906,98905,95183,95173,95215,98949,8,400,8,,ISIC_9425937.JPG
break,html.Screen,4_7_1,2023-05-03T18:28:48.552Z,,0,,,NaN,,,,,,false,,,,98907,98907,,98906,,98949,8,400,,,
break_continue,html.Screen,4_7_2,2023-05-03T18:28:48.552Z,,0,,,NaN,,,,,,false,,,,98908,98907,,98907,,98949,8,400,,,
sequence,flow.Sequence,4_7,2023-05-03T18:28:48.552Z,,0,,,3692,completion,,,,,false,,,,98908,98907,95183,95173,95215,98949,8,400,,,
trial,html.Screen,4_8_0,2023-05-03T18:28:52.421Z,,0,1,,3859,response,ISIC_0010546.JPG,,ISIC_4692454.JPG,ISIC_0010546.JPG,false,1,keypress(m),500,102777,102776,98917,98908,98949,102833,8,400,9,,ISIC_4692454.JPG
break,html.Screen,4_8_1,2023-05-03T18:28:52.422Z,,0,,,NaN,,,,,,false,,,,102778,102778,,102777,,102833,8,400,,,
break_continue,html.Screen,4_8_2,2023-05-03T18:28:52.423Z,,0,,,NaN,,,,,,false,,,,102778,102778,,102778,,102833,8,400,,,
sequence,flow.Sequence,4_8,2023-05-03T18:28:52.423Z,,0,,,3829,completion,,,,,false,,,,102778,102778,98917,98908,98949,102833,8,400,,,
trial,html.Screen,4_9_0,2023-05-03T18:28:59.654Z,,0,1,,7209,response,ISIC_0033217.JPG,,ISIC_0006850.JPG,ISIC_0006850.JPG,false,0,keypress(z),500,110010,110009,102800,102779,102833,110067,8,400,10,,ISIC_0033217.JPG
break,html.Screen,4_9_1,2023-05-03T18:28:59.655Z,,0,,,NaN,,,,,,false,,,,110011,110010,,110010,,110067,8,400,,,
break_continue,html.Screen,4_9_2,2023-05-03T18:28:59.655Z,,0,,,NaN,,,,,,false,,,,110011,110011,,110011,,110067,8,400,,,
sequence,flow.Sequence,4_9,2023-05-03T18:28:59.655Z,,0,,,7178,completion,,,,,false,,,,110011,110011,102800,102779,102833,110067,8,400,,,
trial,html.Screen,4_10_0,2023-05-03T18:29:03.710Z,,0,1,,4032,response,ISIC_0011256.JPG,,ISIC_4623351.JPG,ISIC_4623351.JPG,false,0,keypress(z),500,114065,114065,110033,110011,110067,114117,8,400,11,,ISIC_0011256.JPG
break,html.Screen,4_10_1,2023-05-03T18:29:03.711Z,,0,,,NaN,,,,,,false,,,,114066,114066,,114066,,114117,8,400,,,
break_continue,html.Screen,4_10_2,2023-05-03T18:29:03.711Z,,0,,,NaN,,,,,,false,,,,114067,114067,,114066,,114117,8,400,,,
sequence,flow.Sequence,4_10,2023-05-03T18:29:03.711Z,,0,,,4000,completion,,,,,false,,,,114067,114067,110033,110011,110067,114117,8,400,,,
trial,html.Screen,4_11_0,2023-05-03T18:29:07.728Z,,0,1,,3999,response,ISIC_1081430.JPG,,ISIC_5850699.JPG,ISIC_1081430.JPG,false,1,keypress(m),500,118084,118083,114084,114067,114117,118134,8,400,12,,ISIC_5850699.JPG
break,html.Screen,4_11_1,2023-05-03T18:29:07.729Z,,0,,,NaN,,,,,,false,,,,118085.00000000001,118085.00000000001,,118085.00000000001,,118134,8,400,,,
break_continue,html.Screen,4_11_2,2023-05-03T18:29:07.730Z,,0,,,NaN,,,,,,false,,,,118086,118086,,118085.00000000001,,118134,8,400,,,
sequence,flow.Sequence,4_11,2023-05-03T18:29:07.730Z,,0,,,3969,completion,,,,,false,,,,118086,118086,114084,114067,114117,118134,8,400,,,
trial,html.Screen,4_12_0,2023-05-03T18:29:11.625Z,,0,1,,3881.0000000000146,response,ISIC_0027712.JPG,,ISIC_0014061.JPG,ISIC_0014061.JPG,false,0,keypress(z),500,121981.00000000001,121981.00000000001,118100,118086,118134,122034,8,400,13,,ISIC_0027712.JPG
break,html.Screen,4_12_1,2023-05-03T18:29:11.627Z,,0,,,NaN,,,,,,false,,,,121982,121982,,121982,,122034,8,400,,,
break_continue,html.Screen,4_12_2,2023-05-03T18:29:11.627Z,,0,,,NaN,,,,,,false,,,,121983,121983,,121983,,122034,8,400,,,
sequence,flow.Sequence,4_12,2023-05-03T18:29:11.627Z,,0,,,3849,completion,,,,,false,,,,121983,121983,118100,118086,118134,122034,8,400,,,
trial,html.Screen,4_13_0,2023-05-03T18:29:16.172Z,,0,1,,4528,response,ISIC_0033573.JPG,,ISIC_0064822.JPG,ISIC_0064822.JPG,false,0,keypress(z),500,126528,126528,122000,121983,122034,126583,8,400,14,,ISIC_0033573.JPG
break,html.Screen,4_13_1,2023-05-03T18:29:16.173Z,,0,,,NaN,,,,,,false,,,,126529,126529,,126529,,126583,8,400,,,
break_continue,html.Screen,4_13_2,2023-05-03T18:29:16.174Z,,0,,,NaN,,,,,,false,,,,126530,126530,,126530,,126583,8,400,,,
sequence,flow.Sequence,4_13,2023-05-03T18:29:16.174Z,,0,,,4496,completion,,,,,false,,,,126530,126530,122000,121983,122034,126583,8,400,,,
trial,html.Screen,4_14_0,2023-05-03T18:29:21.795Z,,0,1,,5600,response,ISIC_0060749.JPG,,ISIC_0081584.JPG,ISIC_0081584.JPG,false,0,keypress(z),500,132151,132151,126551,126530,126583,132201,8,400,15,,ISIC_0060749.JPG
break,html.Screen,4_14_1,2023-05-03T18:29:21.796Z,,0,,,NaN,,,,,,false,,,,132153,132152.00000000003,,132152.00000000003,,132201,8,400,,,
break_continue,html.Screen,4_14_2,2023-05-03T18:29:21.797Z,,0,,,NaN,,,,,,false,,,,132153,132153,,132153,,132201,8,400,,,
sequence,flow.Sequence,4_14,2023-05-03T18:29:21.797Z,,0,,,5570,completion,,,,,false,,,,132153,132153,126551,126530,126583,132201,8,400,,,
trial,html.Screen,4_15_0,2023-05-03T18:29:25.607Z,,0,1,,3796,response,ISIC_0543351.JPG,,ISIC_0067094.JPG,ISIC_0067094.JPG,false,0,keypress(z),500,135963,135963,132167,132154,132201,136018,8,400,16,,ISIC_0543351.JPG
break,html.Screen,4_15_1,2023-05-03T18:29:25.608Z,,0,,,NaN,,,,,,false,,,,135964,135964,,135964,,136018,8,400,,,
break_continue,html.Screen,4_15_2,2023-05-03T18:29:25.609Z,,0,,,NaN,,,,,,false,,,,135965,135965,,135965,,136018,8,400,,,
sequence,flow.Sequence,4_15,2023-05-03T18:29:25.609Z,,0,,,3764,completion,,,,,false,,,,135965,135965,132167,132153,132201,136018,8,400,,,
trial,html.Screen,4_16_0,2023-05-03T18:29:29.541Z,,0,1,,3913,response,ISIC_0010803.JPG,,ISIC_0028031.JPG,ISIC_0028031.JPG,false,0,keypress(z),500,139897,139897,135984,135966,136018,139951,8,400,17,,ISIC_0010803.JPG
break,html.Screen,4_16_1,2023-05-03T18:29:29.542Z,,0,,,NaN,,,,,,false,,,,139898,139898,,139898,,139951,8,400,,,
break_continue,html.Screen,4_16_2,2023-05-03T18:29:29.543Z,,0,,,NaN,,,,,,false,,,,139899,139899,,139899,,139951,8,400,,,
sequence,flow.Sequence,4_16,2023-05-03T18:29:29.543Z,,0,,,3881,completion,,,,,false,,,,139899,139899,135984,135966,136018,139951,8,400,,,
trial,html.Screen,4_17_0,2023-05-03T18:29:34.414Z,,0,1,,4852,response,ISIC_5960765.JPG,,ISIC_5156491.JPG,ISIC_5156491.JPG,false,0,keypress(z),500,144771.00000000003,144770,139918,139899,139951,144818,8,400,18,,ISIC_5960765.JPG
break,html.Screen,4_17_1,2023-05-03T18:29:34.415Z,,0,,,NaN,,,,,,false,,,,144772,144771.00000000003,,144771.00000000003,,144818,8,400,,,
break_continue,html.Screen,4_17_2,2023-05-03T18:29:34.416Z,,0,,,NaN,,,,,,false,,,,144772,144772,,144772,,144818,8,400,,,
sequence,flow.Sequence,4_17,2023-05-03T18:29:34.416Z,,0,,,4821,completion,,,,,false,,,,144772,144772,139918,139899,139951,144818,8,400,,,
trial,html.Screen,4_18_0,2023-05-03T18:29:38.235Z,,0,1,,3807,response,ISIC_6966230.JPG,,ISIC_0010007.JPG,ISIC_0010007.JPG,false,0,keypress(z),500,148592,148591,144784,144772,144818,148651,8,400,19,,ISIC_6966230.JPG
break,html.Screen,4_18_1,2023-05-03T18:29:38.236Z,,0,,,NaN,,,,,,false,,,,148593,148593,,148592,,148651,8,400,,,
break_continue,html.Screen,4_18_2,2023-05-03T18:29:38.237Z,,0,,,NaN,,,,,,false,,,,148593,148593,,148593,,148651,8,400,,,
sequence,flow.Sequence,4_18,2023-05-03T18:29:38.237Z,,0,,,3775,completion,,,,,false,,,,148593,148593,144784,144772,144818,148651,8,400,,,
trial,html.Screen,4_19_0,2023-05-03T18:29:42.208Z,,0,1,,3946,response,ISIC_0062978.JPG,,ISIC_2771979.JPG,ISIC_0062978.JPG,false,1,keypress(m),500,152565,152564,148618,148593,148651,152617,8,400,20,,ISIC_2771979.JPG
break,html.Screen,4_19_1,2023-05-03T18:29:42.209Z,,0,,,NaN,,,,,,false,,,,152566,152566,,152565,,152617,8,400,,,
break_continue,html.Screen,4_19_2,2023-05-03T18:29:42.210Z,,0,,,NaN,,,,,,false,,,,152566,152566,,152566,,152617,8,400,,,
sequence,flow.Sequence,4_19,2023-05-03T18:29:42.210Z,,0,,,3915,completion,,,,,false,,,,152566,152566,148618,148593,148651,152617,8,400,,,
trial,html.Screen,4_20_0,2023-05-03T18:29:46.383Z,,0,1,,4154,response,ISIC_0783513.JPG,,ISIC_6038490.JPG,ISIC_6038490.JPG,false,0,keypress(z),500,156740,156739,152585,152567,152617,156785,8,400,21,,ISIC_0783513.JPG
break,html.Screen,4_20_1,2023-05-03T18:29:46.384Z,,0,,,NaN,,,,,,false,,,,156741,156741,,156740,,156785,8,400,,,
break_continue,html.Screen,4_20_2,2023-05-03T18:29:46.384Z,,0,,,NaN,,,,,,false,,,,156741,156741,,156741,,156785,8,400,,,
sequence,flow.Sequence,4_20,2023-05-03T18:29:46.385Z,,0,,,4124,completion,,,,,false,,,,156741,156741,152585,152566,152617,156785,8,400,,,
trial,html.Screen,4_21_0,2023-05-03T18:29:50.376Z,,0,1,,3981,response,ISIC_9655520.JPG,,ISIC_2801008.JPG,ISIC_9655520.JPG,false,1,keypress(m),500,160733,160732,156751,156742,156785,160785,8,400,22,,ISIC_2801008.JPG
break,html.Screen,4_21_1,2023-05-03T18:29:50.377Z,,0,,,NaN,,,,,,false,,,,160733,160733,,160733,,160785,8,400,,,
break_continue,html.Screen,4_21_2,2023-05-03T18:29:50.377Z,,0,,,NaN,,,,,,false,,,,160734,160734,,160734,,160785,8,400,,,
sequence,flow.Sequence,4_21,2023-05-03T18:29:50.377Z,,0,,,3949,completion,,,,,false,,,,160734,160734,156751,156741,156785,160785,8,400,,,
trial,html.Screen,4_22_0,2023-05-03T18:29:54.550Z,,0,1,,4155,response,ISIC_0908367.JPG,,ISIC_2704046.JPG,ISIC_0908367.JPG,false,1,keypress(m),500,164907,164906,160751,160734,160785,164951,8,400,23,,ISIC_2704046.JPG
break,html.Screen,4_22_1,2023-05-03T18:29:54.551Z,,0,,,NaN,,,,,,false,,,,164908.00000000003,164908.00000000003,,164907,,164951,8,400,,,
break_continue,html.Screen,4_22_2,2023-05-03T18:29:54.552Z,,0,,,NaN,,,,,,false,,,,164908.00000000003,164908.00000000003,,164908.00000000003,,164951,8,400,,,
sequence,flow.Sequence,4_22,2023-05-03T18:29:54.552Z,,0,,,4123.000000000029,completion,,,,,false,,,,164909,164908.00000000003,160751,160734,160785,164951,8,400,,,
trial,html.Screen,4_23_0,2023-05-03T18:29:58.844Z,,0,1,,4282.000000000029,response,ISIC_0031477.JPG,,ISIC_0055265.JPG,ISIC_0055265.JPG,false,0,keypress(z),500,169201,169200.00000000003,164918,164909,164951,169252,8,400,24,,ISIC_0031477.JPG
break,html.Screen,4_23_1,2023-05-03T18:29:58.845Z,,0,,,NaN,,,,,,false,,,,169202,169202,,169201,,169252,8,400,,,
break_continue,html.Screen,4_23_2,2023-05-03T18:29:58.846Z,,0,,,NaN,,,,,,false,,,,169203,169202,,169202,,169252,8,400,,,
sequence,flow.Sequence,4_23,2023-05-03T18:29:58.846Z,,0,,,4251,completion,,,,,false,,,,169203,169202,164918,164909,164951,169252,8,400,,,
trial,html.Screen,4_24_0,2023-05-03T18:30:02.564Z,,0,1,,3702.000000000029,response,ISIC_0071069.JPG,,ISIC_1604845.JPG,ISIC_0071069.JPG,false,1,keypress(m),500,172921,172920.00000000003,169218,169203,169252,172968,8,400,25,,ISIC_1604845.JPG
break,html.Screen,4_24_1,2023-05-03T18:30:02.565Z,,0,,,NaN,,,,,,false,,,,172922,172922,,172921,,172968,8,400,,,
break_continue,html.Screen,4_24_2,2023-05-03T18:30:02.566Z,,0,,,NaN,,,,,,false,,,,172923,172923,,172922,,172968,8,400,,,
sequence,flow.Sequence,4_24,2023-05-03T18:30:02.566Z,,0,,,3671,completion,,,,,false,,,,172923,172923,169218,169203,169252,172968,8,400,,,
trial,html.Screen,4_25_0,2023-05-03T18:30:06.064Z,,0,1,,3486,response,ISIC_0026483.JPG,,ISIC_7984646.JPG,ISIC_0026483.JPG,false,1,keypress(m),500,176422,176421,172935,172923,172968,176468,8,400,26,,ISIC_7984646.JPG
break,html.Screen,4_25_1,2023-05-03T18:30:06.065Z,,0,,,NaN,,,,,,false,,,,176423,176422,,176422,,176468,8,400,,,
break_continue,html.Screen,4_25_2,2023-05-03T18:30:06.066Z,,0,,,NaN,,,,,,false,,,,176423,176423,,176423,,176468,8,400,,,
sequence,flow.Sequence,4_25,2023-05-03T18:30:06.066Z,,0,,,3455,completion,,,,,false,,,,176423,176423,172935,172923,172968,176468,8,400,,,
trial,html.Screen,4_26_0,2023-05-03T18:30:09.731Z,,0,1,,3653,response,ISIC_7124160.JPG,,ISIC_3428523.JPG,ISIC_7124160.JPG,false,1,keypress(m),500,180088,180088,176435,176423,176468,180135,8,400,27,,ISIC_3428523.JPG
break,html.Screen,4_26_1,2023-05-03T18:30:09.732Z,,0,,,NaN,,,,,,false,,,,180089,180089,,180088,,180135,8,400,,,
break_continue,html.Screen,4_26_2,2023-05-03T18:30:09.732Z,,0,,,NaN,,,,,,false,,,,180089,180089,,180089,,180135,8,400,,,
sequence,flow.Sequence,4_26,2023-05-03T18:30:09.732Z,,0,,,3621,completion,,,,,false,,,,180090,180089,176435,176423,176468,180135,8,400,,,
trial,html.Screen,4_27_0,2023-05-03T18:30:13.719Z,,0,1,,3974,response,ISIC_0056723.JPG,,ISIC_3147084.JPG,ISIC_0056723.JPG,false,1,keypress(m),500,184076,184076,180102,180090,180135,184135,8,400,28,,ISIC_3147084.JPG
break,html.Screen,4_27_1,2023-05-03T18:30:13.720Z,,0,,,NaN,,,,,,false,,,,184077,184077,,184077,,184135,8,400,,,
break_continue,html.Screen,4_27_2,2023-05-03T18:30:13.720Z,,0,,,NaN,,,,,,false,,,,184078,184078,,184077,,184135,8,400,,,
sequence,flow.Sequence,4_27,2023-05-03T18:30:13.721Z,,0,,,3943,completion,,,,,false,,,,184078,184078,180102,180090,180135,184135,8,400,,,
trial,html.Screen,4_28_0,2023-05-03T18:30:17.497Z,,0,1,,3752,response,ISIC_4151356.JPG,,ISIC_4345000.JPG,ISIC_4345000.JPG,false,0,keypress(z),500,187855,187854,184102,184078,184135,187901,8,400,29,,ISIC_4151356.JPG
break,html.Screen,4_28_1,2023-05-03T18:30:17.499Z,,0,,,NaN,,,,,,false,,,,187856,187856,,187855,,187901,8,400,,,
break_continue,html.Screen,4_28_2,2023-05-03T18:30:17.499Z,,0,,,NaN,,,,,,false,,,,187856,187856,,187856,,187901,8,400,,,
sequence,flow.Sequence,4_28,2023-05-03T18:30:17.499Z,,0,,,3721,completion,,,,,false,,,,187856,187856,184102,184078,184135,187901,8,400,,,
trial,html.Screen,4_29_0,2023-05-03T18:30:21.295Z,,0,1,,3783.000000000029,response,ISIC_0068217.JPG,,ISIC_0033320.JPG,ISIC_0033320.JPG,false,0,keypress(z),500,191653,191652.00000000003,187869,187857,187901,191701,8,400,30,,ISIC_0068217.JPG
break,html.Screen,4_29_1,2023-05-03T18:30:21.296Z,,0,,,NaN,,,,,,false,,,,191654,191653,,191653,,191701,8,400,,,
break_continue,html.Screen,4_29_2,2023-05-03T18:30:21.296Z,,0,,,NaN,,,,,,false,,,,191654,191654,,191654,,191701,8,400,,,
sequence,flow.Sequence,4_29,2023-05-03T18:30:21.297Z,,0,,,3753,completion,,,,,false,,,,191654,191654,187869,187857,187901,191701,8,400,,,
trial,html.Screen,4_30_0,2023-05-03T18:30:25.085Z,,0,1,,3773,response,ISIC_0033074.JPG,,ISIC_0012678.JPG,ISIC_0033074.JPG,false,1,keypress(m),500,195442,195442,191669,191654,191701,195502,8,400,31,,ISIC_0012678.JPG
break,html.Screen,4_30_1,2023-05-03T18:30:25.086Z,,0,,,NaN,,,,,,false,,,,195443,195443,,195443,,195502,8,400,,,
break_continue,html.Screen,4_30_2,2023-05-03T18:30:25.086Z,,0,,,NaN,,,,,,false,,,,195444.00000000003,195444.00000000003,,195443,,195502,8,400,,,
sequence,flow.Sequence,4_30,2023-05-03T18:30:25.086Z,,0,,,3743.000000000029,completion,,,,,false,,,,195444.00000000003,195444.00000000003,191669,191654,191701,195502,8,400,,,
trial,html.Screen,4_31_0,2023-05-03T18:30:28.780Z,,0,1,,3668,response,ISIC_0024284.JPG,,ISIC_0012672.JPG,ISIC_0024284.JPG,false,1,keypress(m),500,199138,199137,195469,195444.00000000003,195502,199185,8,400,32,,ISIC_0012672.JPG
break,html.Screen,4_31_1,2023-05-03T18:30:28.781Z,,0,,,NaN,,,,,,false,,,,199139,199139,,199138,,199185,8,400,,,
break_continue,html.Screen,4_31_2,2023-05-03T18:30:28.782Z,,0,,,NaN,,,,,,false,,,,199139,199139,,199139,,199185,8,400,,,
sequence,flow.Sequence,4_31,2023-05-03T18:30:28.782Z,,0,,,3637,completion,,,,,false,,,,199139,199139,195469,195444.00000000003,195502,199185,8,400,,,
trial,html.Screen,4_32_0,2023-05-03T18:30:32.469Z,,0,1,,3674,response,ISIC_1543770.JPG,,ISIC_0069411.JPG,ISIC_0069411.JPG,false,0,keypress(z),500,202826,202826,199152,199140.00000000003,199185,202885,8,400,33,,ISIC_1543770.JPG
break,html.Screen,4_32_1,2023-05-03T18:30:32.469Z,,0,,,NaN,,,,,,false,,,,202827,202827,,202827,,202885,8,400,,,
break_continue,html.Screen,4_32_2,2023-05-03T18:30:32.470Z,,0,,,NaN,,,,,,false,,,,202827,202827,,202827,,202885,8,400,,,
sequence,flow.Sequence,4_32,2023-05-03T18:30:32.470Z,,0,,,3642,completion,,,,,false,,,,202827,202827,199152,199139,199185,202885,8,400,,,
trial,html.Screen,4_33_0,2023-05-03T18:30:36.357Z,,0,1,,3862,response,ISIC_6561111.JPG,,ISIC_9874512.JPG,ISIC_6561111.JPG,false,1,keypress(m),500,206715,206714,202852,202828,202885,206769,8,400,34,,ISIC_9874512.JPG
break,html.Screen,4_33_1,2023-05-03T18:30:36.358Z,,0,,,NaN,,,,,,false,,,,206716,206715,,206715,,206769,8,400,,,
break_continue,html.Screen,4_33_2,2023-05-03T18:30:36.358Z,,0,,,NaN,,,,,,false,,,,206716,206716,,206716,,206769,8,400,,,
sequence,flow.Sequence,4_33,2023-05-03T18:30:36.358Z,,0,,,3831,completion,,,,,false,,,,206716,206716,202852,202828,202885,206769,8,400,,,
trial,html.Screen,4_34_0,2023-05-03T18:30:40.384Z,,0,1,,4006,response,ISIC_0032701.JPG,,ISIC_1122023.JPG,ISIC_1122023.JPG,false,0,keypress(z),500,210742,210742,206736,206716,206769,210803,8,400,35,,ISIC_0032701.JPG
break,html.Screen,4_34_1,2023-05-03T18:30:40.386Z,,0,,,NaN,,,,,,false,,,,210744,210743,,210743,,210803,8,400,,,
break_continue,html.Screen,4_34_2,2023-05-03T18:30:40.386Z,,0,,,NaN,,,,,,false,,,,210744,210744,,210744,,210803,8,400,,,
sequence,flow.Sequence,4_34,2023-05-03T18:30:40.386Z,,0,,,3975,completion,,,,,false,,,,210744,210744,206736,206716,206769,210803,8,400,,,
trial,html.Screen,4_35_0,2023-05-03T18:30:44.474Z,,0,1,,4062.000000000029,response,ISIC_0013865.JPG,,ISIC_8382969.JPG,ISIC_0013865.JPG,false,1,keypress(m),500,214832,214831.00000000003,210769,210744,210803,214886,8,400,36,,ISIC_8382969.JPG
break,html.Screen,4_35_1,2023-05-03T18:30:44.475Z,,0,,,NaN,,,,,,false,,,,214833,214833,,214832,,214886,8,400,,,
break_continue,html.Screen,4_35_2,2023-05-03T18:30:44.476Z,,0,,,NaN,,,,,,false,,,,214834,214833,,214833,,214886,8,400,,,
sequence,flow.Sequence,4_35,2023-05-03T18:30:44.476Z,,0,,,4030,completion,,,,,false,,,,214834,214833,210769,210744,210803,214886,8,400,,,
trial,html.Screen,4_36_0,2023-05-03T18:30:48.215Z,,0,1,,3720,response,ISIC_8907232.JPG,,ISIC_0028597.JPG,ISIC_8907232.JPG,false,1,keypress(m),500,218574,218573,214853,214834,214886,218618,8,400,37,,ISIC_0028597.JPG
break,html.Screen,4_36_1,2023-05-03T18:30:48.217Z,,0,,,NaN,,,,,,false,,,,218575.00000000003,218575.00000000003,,218574,,218618,8,400,,,
break_continue,html.Screen,4_36_2,2023-05-03T18:30:48.217Z,,0,,,NaN,,,,,,false,,,,218575.00000000003,218575.00000000003,,218575.00000000003,,218618,8,400,,,
sequence,flow.Sequence,4_36,2023-05-03T18:30:48.217Z,,0,,,3689.000000000029,completion,,,,,false,,,,218576,218575.00000000003,214853,214834,214886,218618,8,400,,,
trial,html.Screen,4_37_0,2023-05-03T18:30:51.978Z,,0,1,,3749,response,ISIC_5220698.JPG,,ISIC_0012840.JPG,ISIC_0012840.JPG,false,0,keypress(z),500,222336,222335,218586,218576,218618,222386,8,400,38,,ISIC_5220698.JPG
break,html.Screen,4_37_1,2023-05-03T18:30:51.979Z,,0,,,NaN,,,,,,false,,,,222337.00000000003,222337.00000000003,,222336,,222386,8,400,,,
break_continue,html.Screen,4_37_2,2023-05-03T18:30:51.980Z,,0,,,NaN,,,,,,false,,,,222338,222338,,222337.00000000003,,222386,8,400,,,
sequence,flow.Sequence,4_37,2023-05-03T18:30:51.980Z,,0,,,3720,completion,,,,,false,,,,222338,222338,218586,218576,218618,222386,8,400,,,
trial,html.Screen,4_38_0,2023-05-03T18:30:55.910Z,,0,1,,3914,response,ISIC_0032516.JPG,,ISIC_0177304.JPG,ISIC_0032516.JPG,false,1,keypress(m),500,226268,226267,222353,222338,222386,226320,8,400,39,,ISIC_0177304.JPG
break,html.Screen,4_38_1,2023-05-03T18:30:55.911Z,,0,,,NaN,,,,,,false,,,,226269,226269,,226268,,226320,8,400,,,
break_continue,html.Screen,4_38_2,2023-05-03T18:30:55.911Z,,0,,,NaN,,,,,,false,,,,226269,226269,,226269,,226320,8,400,,,
sequence,flow.Sequence,4_38,2023-05-03T18:30:55.911Z,,0,,,3883,completion,,,,,false,,,,226269,226269,222353,222338,222386,226320,8,400,,,
trial,html.Screen,4_39_0,2023-05-03T18:30:59.740Z,,0,1,,3812,response,ISIC_9626777.JPG,,ISIC_5415749.JPG,ISIC_5415749.JPG,false,0,keypress(z),500,230098,230098,226286,226270,226320,230153,8,400,40,,ISIC_9626777.JPG
break,html.Screen,4_39_1,2023-05-03T18:30:59.740Z,,0,,,NaN,,,,,,false,,,,230099.00000000003,230099.00000000003,,230098,,230153,8,400,,,
break_continue,html.Screen,4_39_2,2023-05-03T18:30:59.741Z,,0,,,NaN,,,,,,false,,,,230099.00000000003,230099.00000000003,,230099.00000000003,,230153,8,400,,,
sequence,flow.Sequence,4_39,2023-05-03T18:30:59.741Z,,0,,,3779.000000000029,completion,,,,,false,,,,230099.00000000003,230099.00000000003,226286,226269,226320,230153,8,400,,,
trial,html.Screen,4_40_0,2023-05-03T18:31:03.431Z,,0,1,,3669,response,ISIC_5559165.JPG,,ISIC_0806140.JPG,ISIC_0806140.JPG,false,0,keypress(z),500,233789.00000000003,233788,230119,230099.00000000003,230153,233836,8,400,41,,ISIC_5559165.JPG
break,html.Screen,4_40_1,2023-05-03T18:31:03.431Z,,0,,,NaN,,,,,,false,,,,233790,233790,,233789.00000000003,,233836,8,400,,,
break_continue,html.Screen,4_40_2,2023-05-03T18:31:03.432Z,,0,,,NaN,,,,,,false,,,,233790,233790,,233790,,233836,8,400,,,
sequence,flow.Sequence,4_40,2023-05-03T18:31:03.432Z,,0,,,3637,completion,,,,,false,,,,233791,233790,230119,230099.00000000003,230153,233836,8,400,,,
trial,html.Screen,4_41_0,2023-05-03T18:31:07.186Z,,0,1,,3741,response,ISIC_8766254.JPG,,ISIC_0014129.JPG,ISIC_0014129.JPG,false,0,keypress(z),500,237544,237544,233803,233791,233836,237603,8,400,42,,ISIC_8766254.JPG
break,html.Screen,4_41_1,2023-05-03T18:31:07.187Z,,0,,,NaN,,,,,,false,,,,237545.00000000003,237545.00000000003,,237545.00000000003,,237603,8,400,,,
break_continue,html.Screen,4_41_2,2023-05-03T18:31:07.187Z,,0,,,NaN,,,,,,false,,,,237546,237545.00000000003,,237545.00000000003,,237603,8,400,,,
sequence,flow.Sequence,4_41,2023-05-03T18:31:07.187Z,,0,,,3709.000000000029,completion,,,,,false,,,,237546,237545.00000000003,233803,233791,233836,237603,8,400,,,
trial,html.Screen,4_42_0,2023-05-03T18:31:10.682Z,,0,1,,3471,response,ISIC_4582670.JPG,,ISIC_0014160.JPG,ISIC_4582670.JPG,false,1,keypress(m),500,241041,241041,237570,237546,237603,241087,8,400,43,,ISIC_0014160.JPG
break,html.Screen,4_42_1,2023-05-03T18:31:10.683Z,,0,,,NaN,,,,,,false,,,,241042,241042,,241041,,241087,8,400,,,
break_continue,html.Screen,4_42_2,2023-05-03T18:31:10.684Z,,0,,,NaN,,,,,,false,,,,241042,241042,,241042,,241087,8,400,,,
sequence,flow.Sequence,4_42,2023-05-03T18:31:10.684Z,,0,,,3439,completion,,,,,false,,,,241043,241042,237570,237546,237603,241087,8,400,,,
trial,html.Screen,4_43_0,2023-05-03T18:31:14.225Z,,0,1,,3531,response,ISIC_0024244.JPG,,ISIC_0002295.JPG,ISIC_0002295.JPG,false,0,keypress(z),500,244584,244584,241053,241043,241087,244637,8,400,44,,ISIC_0024244.JPG
break,html.Screen,4_43_1,2023-05-03T18:31:14.226Z,,0,,,NaN,,,,,,false,,,,244585,244585,,244584,,244637,8,400,,,
break_continue,html.Screen,4_43_2,2023-05-03T18:31:14.227Z,,0,,,NaN,,,,,,false,,,,244586,244585,,244585,,244637,8,400,,,
sequence,flow.Sequence,4_43,2023-05-03T18:31:14.227Z,,0,,,3498,completion,,,,,false,,,,244586,244585,241053,241043,241087,244637,8,400,,,
trial,html.Screen,4_44_0,2023-05-03T18:31:17.691Z,,0,1,,3446,response,ISIC_9760968.JPG,,ISIC_9921747.JPG,ISIC_9760968.JPG,false,1,keypress(m),500,248050,248049,244603,244586,244637,248104,8,400,45,,ISIC_9921747.JPG
break,html.Screen,4_44_1,2023-05-03T18:31:17.692Z,,0,,,NaN,,,,,,false,,,,248051.00000000003,248051.00000000003,,248050,,248104,8,400,,,
break_continue,html.Screen,4_44_2,2023-05-03T18:31:17.693Z,,0,,,NaN,,,,,,false,,,,248052,248052,,248051.00000000003,,248104,8,400,,,
sequence,flow.Sequence,4_44,2023-05-03T18:31:17.693Z,,0,,,3415,completion,,,,,false,,,,248052,248052,244603,244586,244637,248104,8,400,,,
trial,html.Screen,4_45_0,2023-05-03T18:31:21.144Z,,0,1,,3432,response,ISIC_0002162.JPG,,ISIC_0029843.JPG,ISIC_0029843.JPG,false,0,keypress(z),500,251503,251502,248070,248052,248104,251554,8,400,46,,ISIC_0002162.JPG
break,html.Screen,4_45_1,2023-05-03T18:31:21.145Z,,0,,,NaN,,,,,,false,,,,251504.00000000003,251504.00000000003,,251503,,251554,8,400,,,
break_continue,html.Screen,4_45_2,2023-05-03T18:31:21.145Z,,0,,,NaN,,,,,,false,,,,251504.00000000003,251504.00000000003,,251504.00000000003,,251554,8,400,,,
sequence,flow.Sequence,4_45,2023-05-03T18:31:21.146Z,,0,,,3400.000000000029,completion,,,,,false,,,,251505,251504.00000000003,248070,248052,248104,251554,8,400,,,
trial,html.Screen,4_46_0,2023-05-03T18:31:24.718Z,,0,1,,3557,response,ISIC_4699989.JPG,,ISIC_0014088.JPG,ISIC_0014088.JPG,false,0,keypress(z),500,255077,255077,251520,251505,251554,255137,8,400,47,,ISIC_4699989.JPG
break,html.Screen,4_46_1,2023-05-03T18:31:24.719Z,,0,,,NaN,,,,,,false,,,,255078,255078,,255077,,255137,8,400,,,
break_continue,html.Screen,4_46_2,2023-05-03T18:31:24.719Z,,0,,,NaN,,,,,,false,,,,255078,255078,,255078,,255137,8,400,,,
sequence,flow.Sequence,4_46,2023-05-03T18:31:24.719Z,,0,,,3524,completion,,,,,false,,,,255078,255078,251520,251505,251554,255137,8,400,,,
trial,html.Screen,4_47_0,2023-05-03T18:31:28.630Z,,0,1,,3884,response,ISIC_0055314.JPG,,ISIC_4964478.JPG,ISIC_0055314.JPG,false,1,keypress(m),500,258989.00000000003,258988,255104,255079,255137,259037,8,400,48,,ISIC_4964478.JPG
break,html.Screen,4_47_1,2023-05-03T18:31:28.631Z,,0,,,NaN,,,,,,false,,,,258990,258990,,258989.00000000003,,259037,8,400,,,
break_continue,html.Screen,4_47_2,2023-05-03T18:31:28.631Z,,0,,,NaN,,,,,,false,,,,258990,258990,,258990,,259037,8,400,,,
sequence,flow.Sequence,4_47,2023-05-03T18:31:28.632Z,,0,,,3853,completion,,,,,false,,,,258991,258990,255104,255078,255137,259037,8,400,,,
trial,html.Screen,4_48_0,2023-05-03T18:31:32.627Z,,0,1,,3983,response,ISIC_4369035.JPG,,ISIC_2309744.JPG,ISIC_2309744.JPG,false,0,keypress(z),500,262986,262986,259003,258991,259037,263037,8,400,49,,ISIC_4369035.JPG
break,html.Screen,4_48_1,2023-05-03T18:31:32.628Z,,0,,,NaN,,,,,,false,,,,262987,262987,,262987,,263037,8,400,,,
break_continue,html.Screen,4_48_2,2023-05-03T18:31:32.629Z,,0,,,NaN,,,,,,false,,,,262988,262988,,262988,,263037,8,400,,,
sequence,flow.Sequence,4_48,2023-05-03T18:31:32.629Z,,0,,,3951,completion,,,,,false,,,,262988,262988,259003,258991,259037,263037,8,400,,,
trial,html.Screen,4_49_0,2023-05-03T18:31:36.523Z,,0,1,,3878,response,ISIC_0034166.JPG,,ISIC_0032954.JPG,ISIC_0034166.JPG,false,1,keypress(m),500,266882,266882,263004,262988,263037,266937,8,400,50,,ISIC_0032954.JPG
break,html.Screen,4_49_1,2023-05-03T18:31:41.562Z,,0,,,5017,timeout,,,,,false,,,,271921,271921,266904,266883,266937,271954,8,400,,,
break_continue,html.Screen,4_49_2,2023-05-03T18:31:52.382Z,,0,,,10811,response,,,,,false,continue,keypress(Space),,282742,282732,271921,271922,271954,282788,8,400,,,
sequence,flow.Sequence,4_49,2023-05-03T18:31:52.383Z,,0,,,19695,completion,,,,,false,,,,282742,282732,263004,262988,263037,282788,8,400,,,
trial,html.Screen,4_50_0,2023-05-03T18:31:56.144Z,,0,2,,3748,response,ISIC_0010690.JPG,,ISIC_8435105.JPG,ISIC_0010690.JPG,false,1,keypress(m),500,286504,286503,282755,282742,282788,286555,8,400,1,,ISIC_8435105.JPG
break,html.Screen,4_50_1,2023-05-03T18:31:56.146Z,,0,,,NaN,,,,,,false,,,,286505,286505,,286505,,286555,8,400,,,
break_continue,html.Screen,4_50_2,2023-05-03T18:31:56.146Z,,0,,,NaN,,,,,,false,,,,286506,286506,,286506,,286555,8,400,,,
sequence,flow.Sequence,4_50,2023-05-03T18:31:56.146Z,,0,,,3718,completion,,,,,false,,,,286506,286506,282755,282742,282788,286555,8,400,,,
trial,html.Screen,4_51_0,2023-05-03T18:31:59.473Z,,0,2,,3311,response,ISIC_0834745.JPG,,ISIC_0057716.JPG,ISIC_0834745.JPG,false,1,keypress(m),500,289833,289832,286521,286506,286555,289888,8,400,2,,ISIC_0057716.JPG
break,html.Screen,4_51_1,2023-05-03T18:31:59.474Z,,0,,,NaN,,,,,,false,,,,289834,289833,,289833,,289888,8,400,,,
break_continue,html.Screen,4_51_2,2023-05-03T18:31:59.474Z,,0,,,NaN,,,,,,false,,,,289834,289834,,289834,,289888,8,400,,,
sequence,flow.Sequence,4_51,2023-05-03T18:31:59.474Z,,0,,,3279,completion,,,,,false,,,,289834,289834,286521,286506,286555,289888,8,400,,,
trial,html.Screen,4_52_0,2023-05-03T18:32:02.968Z,,0,2,,3472,response,ISIC_0185547.JPG,,ISIC_0010194.JPG,ISIC_0185547.JPG,false,1,keypress(m),500,293328.00000000006,293327,289855,289834,289888,293388,8,400,3,,ISIC_0010194.JPG
break,html.Screen,4_52_1,2023-05-03T18:32:02.969Z,,0,,,NaN,,,,,,false,,,,293329,293329,,293328.00000000006,,293388,8,400,,,
break_continue,html.Screen,4_52_2,2023-05-03T18:32:02.969Z,,0,,,NaN,,,,,,false,,,,293329,293329,,293329,,293388,8,400,,,
sequence,flow.Sequence,4_52,2023-05-03T18:32:02.969Z,,0,,,3441,completion,,,,,false,,,,293329,293329,289855,289834,289888,293388,8,400,,,
trial,html.Screen,4_53_0,2023-05-03T18:32:06.210Z,,0,2,,3215,response,ISIC_0033756.JPG,,ISIC_4623351.JPG,ISIC_0033756.JPG,false,1,keypress(m),500,296570,296570,293355,293330,293388,296622,8,400,4,,ISIC_4623351.JPG
break,html.Screen,4_53_1,2023-05-03T18:32:06.211Z,,0,,,NaN,,,,,,false,,,,296571,296571,,296570,,296622,8,400,,,
break_continue,html.Screen,4_53_2,2023-05-03T18:32:06.211Z,,0,,,NaN,,,,,,false,,,,296571,296571,,296571,,296622,8,400,,,
sequence,flow.Sequence,4_53,2023-05-03T18:32:06.212Z,,0,,,3183,completion,,,,,false,,,,296572,296571,293355,293329,293388,296622,8,400,,,
trial,html.Screen,4_54_0,2023-05-03T18:32:09.848Z,,0,2,,3619,response,ISIC_2776906.JPG,,ISIC_4303228.JPG,ISIC_2776906.JPG,false,1,keypress(m),500,300208,300207,296588,296572,296622,300255,8,400,5,,ISIC_4303228.JPG
break,html.Screen,4_54_1,2023-05-03T18:32:09.848Z,,0,,,NaN,,,,,,false,,,,300209,300208,,300208,,300255,8,400,,,
break_continue,html.Screen,4_54_2,2023-05-03T18:32:09.849Z,,0,,,NaN,,,,,,false,,,,300209,300209,,300209,,300255,8,400,,,
sequence,flow.Sequence,4_54,2023-05-03T18:32:09.849Z,,0,,,3587,completion,,,,,false,,,,300209,300209,296588,296572,296622,300255,8,400,,,
trial,html.Screen,4_55_0,2023-05-03T18:32:13.090Z,,0,2,,3229,response,ISIC_6128108.JPG,,ISIC_0000504.JPG,ISIC_6128108.JPG,false,1,keypress(m),500,303450,303450,300221,300209,300255,303505,8,400,6,,ISIC_0000504.JPG
break,html.Screen,4_55_1,2023-05-03T18:32:13.091Z,,0,,,NaN,,,,,,false,,,,303452,303451,,303451,,303505,8,400,,,
break_continue,html.Screen,4_55_2,2023-05-03T18:32:13.092Z,,0,,,NaN,,,,,,false,,,,303452,303452,,303452,,303505,8,400,,,
sequence,flow.Sequence,4_55,2023-05-03T18:32:13.092Z,,0,,,3197,completion,,,,,false,,,,303452,303452,300221,300209,300255,303505,8,400,,,
trial,html.Screen,4_56_0,2023-05-03T18:32:17.844Z,,0,2,,4732,response,ISIC_0010671.JPG,,ISIC_9544059.JPG,ISIC_0010671.JPG,false,1,keypress(m),500,308205,308204,303472,303452,303505,308255,8,400,7,,ISIC_9544059.JPG
break,html.Screen,4_56_1,2023-05-03T18:32:17.845Z,,0,,,NaN,,,,,,false,,,,308206,308205,,308205,,308255,8,400,,,
break_continue,html.Screen,4_56_2,2023-05-03T18:32:17.846Z,,0,,,NaN,,,,,,false,,,,308206,308206,,308206,,308255,8,400,,,
sequence,flow.Sequence,4_56,2023-05-03T18:32:17.846Z,,0,,,4701,completion,,,,,false,,,,308206,308206,303472,303452,303505,308255,8,400,,,
trial,html.Screen,4_57_0,2023-05-03T18:32:24.819Z,,0,2,,6957.000000000058,response,ISIC_1440063.JPG,,ISIC_0067338.JPG,ISIC_1440063.JPG,false,1,keypress(m),500,315179.00000000006,315179.00000000006,308222,308207,308255,315238,8,400,8,,ISIC_0067338.JPG
break,html.Screen,4_57_1,2023-05-03T18:32:24.820Z,,0,,,NaN,,,,,,false,,,,315180,315180,,315180,,315238,8,400,,,
break_continue,html.Screen,4_57_2,2023-05-03T18:32:24.820Z,,0,,,NaN,,,,,,false,,,,315181,315181,,315181,,315238,8,400,,,
sequence,flow.Sequence,4_57,2023-05-03T18:32:24.821Z,,0,,,6926,completion,,,,,false,,,,315181,315181,308222,308206,308255,315238,8,400,,,
trial,html.Screen,4_58_0,2023-05-03T18:32:29.874Z,,0,2,,5030,response,ISIC_0032750.JPG,,ISIC_0026239.JPG,ISIC_0032750.JPG,false,1,keypress(m),500,320235,320235,315205,315181,315238,320289,8,400,9,,ISIC_0026239.JPG
break,html.Screen,4_58_1,2023-05-03T18:32:29.875Z,,0,,,NaN,,,,,,false,,,,320235,320235,,320235,,320289,8,400,,,
break_continue,html.Screen,4_58_2,2023-05-03T18:32:29.875Z,,0,,,NaN,,,,,,false,,,,320235,320235,,320235,,320289,8,400,,,
sequence,flow.Sequence,4_58,2023-05-03T18:32:29.875Z,,0,,,4997,completion,,,,,false,,,,320236,320235,315205,315181,315238,320289,8,400,,,
trial,html.Screen,4_59_0,2023-05-03T18:32:33.247Z,,0,2,,3352,response,ISIC_7508320.JPG,,ISIC_1566931.JPG,ISIC_7508320.JPG,false,1,keypress(m),500,323607,323607,320255,320236,320289,323655,8,400,10,,ISIC_1566931.JPG
break,html.Screen,4_59_1,2023-05-03T18:32:33.248Z,,0,,,NaN,,,,,,false,,,,323609,323608,,323608,,323655,8,400,,,
break_continue,html.Screen,4_59_2,2023-05-03T18:32:33.249Z,,0,,,NaN,,,,,,false,,,,323609,323609,,323609,,323655,8,400,,,
sequence,flow.Sequence,4_59,2023-05-03T18:32:33.249Z,,0,,,3320,completion,,,,,false,,,,323609,323609,320255,320236,320289,323655,8,400,,,
trial,html.Screen,4_60_0,2023-05-03T18:32:36.429Z,,0,2,,3167,response,ISIC_4314089.JPG,,ISIC_0010592.JPG,ISIC_4314089.JPG,false,1,keypress(m),500,326790,326789,323622,323610,323655,326839,8,400,11,,ISIC_0010592.JPG
break,html.Screen,4_60_1,2023-05-03T18:32:36.430Z,,0,,,NaN,,,,,,false,,,,326791,326790,,326790,,326839,8,400,,,
break_continue,html.Screen,4_60_2,2023-05-03T18:32:36.430Z,,0,,,NaN,,,,,,false,,,,326791,326791,,326791,,326839,8,400,,,
sequence,flow.Sequence,4_60,2023-05-03T18:32:36.431Z,,0,,,3136,completion,,,,,false,,,,326791,326791,323622,323610,323655,326839,8,400,,,
trial,html.Screen,4_61_0,2023-05-03T18:32:39.762Z,,0,2,,3318,response,ISIC_0056979.JPG,,ISIC_0029209.JPG,ISIC_0056979.JPG,false,1,keypress(m),500,330123,330123,326805,326791,326839,330172,8,400,12,,ISIC_0029209.JPG
break,html.Screen,4_61_1,2023-05-03T18:32:39.764Z,,0,,,NaN,,,,,,false,,,,330124,330124,,330123,,330172,8,400,,,
break_continue,html.Screen,4_61_2,2023-05-03T18:32:39.764Z,,0,,,NaN,,,,,,false,,,,330125,330124,,330124,,330172,8,400,,,
sequence,flow.Sequence,4_61,2023-05-03T18:32:39.764Z,,0,,,3285,completion,,,,,false,,,,330125,330124,326805,326791,326839,330172,8,400,,,
trial,html.Screen,4_62_0,2023-05-03T18:32:43.197Z,,0,2,,3418,response,ISIC_2142639.JPG,,ISIC_0199116.JPG,ISIC_2142639.JPG,false,1,keypress(m),500,333558,333557,330139,330125,330172,333605,8,400,13,,ISIC_0199116.JPG
break,html.Screen,4_62_1,2023-05-03T18:32:43.198Z,,0,,,NaN,,,,,,false,,,,333559,333559,,333558,,333605,8,400,,,
break_continue,html.Screen,4_62_2,2023-05-03T18:32:43.198Z,,0,,,NaN,,,,,,false,,,,333559,333559,,333559,,333605,8,400,,,
sequence,flow.Sequence,4_62,2023-05-03T18:32:43.199Z,,0,,,3387,completion,,,,,false,,,,333559,333559,330139,330125,330172,333605,8,400,,,
trial,html.Screen,4_63_0,2023-05-03T18:32:46.654Z,,0,2,,3443,response,ISIC_4343552.JPG,,ISIC_3996796.JPG,ISIC_4343552.JPG,false,1,keypress(m),500,337015,337015,333572,333560,333605,337072,8,400,14,,ISIC_3996796.JPG
break,html.Screen,4_63_1,2023-05-03T18:32:46.655Z,,0,,,NaN,,,,,,false,,,,337016,337016,,337015,,337072,8,400,,,
break_continue,html.Screen,4_63_2,2023-05-03T18:32:46.655Z,,0,,,NaN,,,,,,false,,,,337016,337016,,337016,,337072,8,400,,,
sequence,flow.Sequence,4_63,2023-05-03T18:32:46.656Z,,0,,,3411,completion,,,,,false,,,,337017,337016,333572,333560,333605,337072,8,400,,,
trial,html.Screen,4_64_0,2023-05-03T18:32:49.853Z,,0,2,,3174,response,ISIC_4131697.JPG,,ISIC_1057521.JPG,ISIC_4131697.JPG,false,1,keypress(m),500,340213,340213,337039,337017,337072,340272,8,400,15,,ISIC_1057521.JPG
break,html.Screen,4_64_1,2023-05-03T18:32:49.854Z,,0,,,NaN,,,,,,false,,,,340215.00000000006,340214,,340214,,340272,8,400,,,
break_continue,html.Screen,4_64_2,2023-05-03T18:32:49.854Z,,0,,,NaN,,,,,,false,,,,340215.00000000006,340215.00000000006,,340215.00000000006,,340272,8,400,,,
sequence,flow.Sequence,4_64,2023-05-03T18:32:49.854Z,,0,,,3143.000000000058,completion,,,,,false,,,,340215.00000000006,340215.00000000006,337039,337017,337072,340272,8,400,,,
trial,html.Screen,4_65_0,2023-05-03T18:32:53.235Z,,0,2,,3356,response,ISIC_4730066.JPG,,ISIC_2924968.JPG,ISIC_4730066.JPG,false,1,keypress(m),500,343596,343595,340239,340215.00000000006,340272,343656,8,400,16,,ISIC_2924968.JPG
break,html.Screen,4_65_1,2023-05-03T18:32:53.236Z,,0,,,NaN,,,,,,false,,,,343597,343597,,343596,,343656,8,400,,,
break_continue,html.Screen,4_65_2,2023-05-03T18:32:53.236Z,,0,,,NaN,,,,,,false,,,,343597,343597,,343597,,343656,8,400,,,
sequence,flow.Sequence,4_65,2023-05-03T18:32:53.236Z,,0,,,3325,completion,,,,,false,,,,343598,343597,340239,340215.00000000006,340272,343656,8,400,,,
trial,html.Screen,4_66_0,2023-05-03T18:32:58.092Z,,0,2,,4830.000000000058,response,ISIC_0010382.JPG,,ISIC_9130157.JPG,ISIC_0010382.JPG,false,1,keypress(m),500,348453.00000000006,348453.00000000006,343623,343598,343656,348506,8,400,17,,ISIC_9130157.JPG
break,html.Screen,4_66_1,2023-05-03T18:32:58.093Z,,0,,,NaN,,,,,,false,,,,348454,348454,,348453.00000000006,,348506,8,400,,,
break_continue,html.Screen,4_66_2,2023-05-03T18:32:58.093Z,,0,,,NaN,,,,,,false,,,,348454,348454,,348454,,348506,8,400,,,
sequence,flow.Sequence,4_66,2023-05-03T18:32:58.093Z,,0,,,4798,completion,,,,,false,,,,348455,348454,343623,343598,343656,348506,8,400,,,
trial,html.Screen,4_67_0,2023-05-03T18:33:01.397Z,,0,2,,3285,response,ISIC_8052769.JPG,,ISIC_7803163.JPG,ISIC_8052769.JPG,false,1,keypress(m),500,351759,351758,348473,348455,348506,351806,8,400,18,,ISIC_7803163.JPG
break,html.Screen,4_67_1,2023-05-03T18:33:01.398Z,,0,,,NaN,,,,,,false,,,,351760,351759,,351759,,351806,8,400,,,
break_continue,html.Screen,4_67_2,2023-05-03T18:33:01.399Z,,0,,,NaN,,,,,,false,,,,351760,351760,,351760,,351806,8,400,,,
sequence,flow.Sequence,4_67,2023-05-03T18:33:01.399Z,,0,,,3254,completion,,,,,false,,,,351760,351760,348473,348455,348506,351806,8,400,,,
trial,html.Screen,4_68_0,2023-05-03T18:33:04.620Z,,0,2,,3209,response,ISIC_0060716.JPG,,ISIC_3401777.JPG,ISIC_0060716.JPG,false,1,keypress(m),500,354981,354981,351772,351760,351806,355040,8,400,19,,ISIC_3401777.JPG
break,html.Screen,4_68_1,2023-05-03T18:33:04.621Z,,0,,,NaN,,,,,,false,,,,354982,354982,,354981,,355040,8,400,,,
break_continue,html.Screen,4_68_2,2023-05-03T18:33:04.621Z,,0,,,NaN,,,,,,false,,,,354983,354982,,354982,,355040,8,400,,,
sequence,flow.Sequence,4_68,2023-05-03T18:33:04.621Z,,0,,,3176,completion,,,,,false,,,,354983,354982,351772,351760,351806,355040,8,400,,,
trial,html.Screen,4_69_0,2023-05-03T18:33:07.916Z,,0,2,,3271,response,ISIC_0033374.JPG,,ISIC_0024779.JPG,ISIC_0033374.JPG,false,1,keypress(m),500,358277,358277,355006,354983,355040,358323,8,400,20,,ISIC_0024779.JPG
break,html.Screen,4_69_1,2023-05-03T18:33:07.917Z,,0,,,NaN,,,,,,false,,,,358278,358278,,358278,,358323,8,400,,,
break_continue,html.Screen,4_69_2,2023-05-03T18:33:07.917Z,,0,,,NaN,,,,,,false,,,,358279,358279,,358278,,358323,8,400,,,
sequence,flow.Sequence,4_69,2023-05-03T18:33:07.917Z,,0,,,3239,completion,,,,,false,,,,358279,358279,355006,354983,355040,358323,8,400,,,
trial,html.Screen,4_70_0,2023-05-03T18:33:11.398Z,,0,2,,3469,response,ISIC_3597812.JPG,,ISIC_9088073.JPG,ISIC_3597812.JPG,false,1,keypress(m),500,361759,361759,358290,358279,358323,361805,8,400,21,,ISIC_9088073.JPG
break,html.Screen,4_70_1,2023-05-03T18:33:11.399Z,,0,,,NaN,,,,,,false,,,,361760,361760,,361760,,361805,8,400,,,
break_continue,html.Screen,4_70_2,2023-05-03T18:33:11.399Z,,0,,,NaN,,,,,,false,,,,361761,361761,,361760,,361805,8,400,,,
sequence,flow.Sequence,4_70,2023-05-03T18:33:11.399Z,,0,,,3438,completion,,,,,false,,,,361761,361761,358290,358279,358323,361805,8,400,,,
trial,html.Screen,4_71_0,2023-05-03T18:33:14.797Z,,0,2,,3385,response,ISIC_9969907.JPG,,ISIC_2192973.JPG,ISIC_9969907.JPG,false,1,keypress(m),500,365158,365158,361773,361761,361805,365206,8,400,22,,ISIC_2192973.JPG
break,html.Screen,4_71_1,2023-05-03T18:33:14.798Z,,0,,,NaN,,,,,,false,,,,365159,365159,,365158,,365206,8,400,,,
break_continue,html.Screen,4_71_2,2023-05-03T18:33:14.798Z,,0,,,NaN,,,,,,false,,,,365160,365159,,365159,,365206,8,400,,,
sequence,flow.Sequence,4_71,2023-05-03T18:33:14.798Z,,0,,,3354,completion,,,,,false,,,,365160,365159,361773,361761,361805,365206,8,400,,,
trial,html.Screen,4_72_0,2023-05-03T18:33:18.017Z,,0,2,,3206,response,ISIC_0009488.JPG,,ISIC_6712342.JPG,ISIC_0009488.JPG,false,1,keypress(m),500,368379,368379,365173,365160,365206,368423,8,400,23,,ISIC_6712342.JPG
break,html.Screen,4_72_1,2023-05-03T18:33:18.019Z,,0,,,NaN,,,,,,false,,,,368380,368380,,368379,,368423,8,400,,,
break_continue,html.Screen,4_72_2,2023-05-03T18:33:18.019Z,,0,,,NaN,,,,,,false,,,,368380,368380,,368380,,368423,8,400,,,
sequence,flow.Sequence,4_72,2023-05-03T18:33:18.019Z,,0,,,3174,completion,,,,,false,,,,368381,368380,365173,365160,365206,368423,8,400,,,
trial,html.Screen,4_73_0,2023-05-03T18:33:22.154Z,,0,2,,4125,response,ISIC_2299749.JPG,,ISIC_1124434.JPG,ISIC_2299749.JPG,false,1,keypress(m),500,372516,372515,368390,368381,368423,372573,8,400,24,,ISIC_1124434.JPG
break,html.Screen,4_73_1,2023-05-03T18:33:22.155Z,,0,,,NaN,,,,,,false,,,,372517,372517,,372516,,372573,8,400,,,
break_continue,html.Screen,4_73_2,2023-05-03T18:33:22.155Z,,0,,,NaN,,,,,,false,,,,372517,372517,,372517,,372573,8,400,,,
sequence,flow.Sequence,4_73,2023-05-03T18:33:22.155Z,,0,,,4094,completion,,,,,false,,,,372517,372517,368390,368381,368423,372573,8,400,,,
trial,html.Screen,4_74_0,2023-05-03T18:33:26.998Z,,0,2,,4820,response,ISIC_0025897.JPG,,ISIC_0026911.JPG,ISIC_0025897.JPG,false,1,keypress(m),500,377360,377360,372540,372517,372573,377407,8,400,25,,ISIC_0026911.JPG
break,html.Screen,4_74_1,2023-05-03T18:33:26.999Z,,0,,,NaN,,,,,,false,,,,377361,377361,,377360,,377407,8,400,,,
break_continue,html.Screen,4_74_2,2023-05-03T18:33:27.000Z,,0,,,NaN,,,,,,false,,,,377361,377361,,377361,,377407,8,400,,,
sequence,flow.Sequence,4_74,2023-05-03T18:33:27.000Z,,0,,,4788,completion,,,,,false,,,,377362,377361,372540,372517,372573,377407,8,400,,,
trial,html.Screen,4_75_0,2023-05-03T18:33:30.946Z,,0,2,,3934,response,ISIC_0011128.JPG,,ISIC_1711973.JPG,ISIC_0011128.JPG,false,1,keypress(m),500,381308,381308,377374,377362,377407,381357,8,400,26,,ISIC_1711973.JPG
break,html.Screen,4_75_1,2023-05-03T18:33:30.947Z,,0,,,NaN,,,,,,false,,,,381309,381309,,381309,,381357,8,400,,,
break_continue,html.Screen,4_75_2,2023-05-03T18:33:30.948Z,,0,,,NaN,,,,,,false,,,,381310,381310,,381309,,381357,8,400,,,
sequence,flow.Sequence,4_75,2023-05-03T18:33:30.948Z,,0,,,3903,completion,,,,,false,,,,381310,381310,377374,377362,377407,381357,8,400,,,
trial,html.Screen,4_76_0,2023-05-03T18:33:34.265Z,,0,2,,3303,response,ISIC_7349772.JPG,,ISIC_0000146.JPG,ISIC_7349772.JPG,false,1,keypress(m),500,384627,384627,381324,381310,381357,384674,8,400,27,,ISIC_0000146.JPG
break,html.Screen,4_76_1,2023-05-03T18:33:34.266Z,,0,,,NaN,,,,,,false,,,,384628,384628,,384627,,384674,8,400,,,
break_continue,html.Screen,4_76_2,2023-05-03T18:33:34.266Z,,0,,,NaN,,,,,,false,,,,384628,384628,,384628,,384674,8,400,,,
sequence,flow.Sequence,4_76,2023-05-03T18:33:34.267Z,,0,,,3271,completion,,,,,false,,,,384629,384628,381324,381310,381357,384674,8,400,,,
trial,html.Screen,4_77_0,2023-05-03T18:33:38.374Z,,0,2,,4096,response,ISIC_9688534.JPG,,ISIC_2030997.JPG,ISIC_9688534.JPG,false,1,keypress(m),500,388736,388736,384640,384629,384674,388789,8,400,28,,ISIC_2030997.JPG
break,html.Screen,4_77_1,2023-05-03T18:33:38.375Z,,0,,,NaN,,,,,,false,,,,388737,388737,,388736,,388789,8,400,,,
break_continue,html.Screen,4_77_2,2023-05-03T18:33:38.376Z,,0,,,NaN,,,,,,false,,,,388738,388738,,388737,,388789,8,400,,,
sequence,flow.Sequence,4_77,2023-05-03T18:33:38.376Z,,0,,,4064,completion,,,,,false,,,,388738,388738,384640,384629,384674,388789,8,400,,,
trial,html.Screen,4_78_0,2023-05-03T18:33:41.839Z,,0,2,,3443,response,ISIC_0033787.JPG,,ISIC_0034089.JPG,ISIC_0033787.JPG,false,1,keypress(m),500,392201,392200,388757,388738,388789,392257,8,400,29,,ISIC_0034089.JPG
break,html.Screen,4_78_1,2023-05-03T18:33:41.840Z,,0,,,NaN,,,,,,false,,,,392202,392202,,392201,,392257,8,400,,,
break_continue,html.Screen,4_78_2,2023-05-03T18:33:41.840Z,,0,,,NaN,,,,,,false,,,,392202,392202,,392202,,392257,8,400,,,
sequence,flow.Sequence,4_78,2023-05-03T18:33:41.840Z,,0,,,3413,completion,,,,,false,,,,392202,392202,388757,388738,388789,392257,8,400,,,
trial,html.Screen,4_79_0,2023-05-03T18:33:45.621Z,,0,2,,3758,response,ISIC_0024759.JPG,,ISIC_3952694.JPG,ISIC_0024759.JPG,false,1,keypress(m),500,395983,395982,392224,392202,392257,396041,8,400,30,,ISIC_3952694.JPG
break,html.Screen,4_79_1,2023-05-03T18:33:45.622Z,,0,,,NaN,,,,,,false,,,,395984,395984,,395983,,396041,8,400,,,
break_continue,html.Screen,4_79_2,2023-05-03T18:33:45.622Z,,0,,,NaN,,,,,,false,,,,395985,395984,,395984,,396041,8,400,,,
sequence,flow.Sequence,4_79,2023-05-03T18:33:45.622Z,,0,,,3727,completion,,,,,false,,,,395985,395984,392224,392202,392257,396041,8,400,,,
trial,html.Screen,4_80_0,2023-05-03T18:33:49.041Z,,0,2,,3396,response,ISIC_8812621.JPG,,ISIC_0033071.JPG,ISIC_8812621.JPG,false,1,keypress(m),500,399403,399403,396007,395985,396041,399457,8,400,31,,ISIC_0033071.JPG
break,html.Screen,4_80_1,2023-05-03T18:33:49.042Z,,0,,,NaN,,,,,,false,,,,399404,399404,,399403,,399457,8,400,,,
break_continue,html.Screen,4_80_2,2023-05-03T18:33:49.042Z,,0,,,NaN,,,,,,false,,,,399404,399404,,399404,,399457,8,400,,,
sequence,flow.Sequence,4_80,2023-05-03T18:33:49.042Z,,0,,,3363,completion,,,,,false,,,,399405.00000000006,399404,396007,395985,396041,399457,8,400,,,
trial,html.Screen,4_81_0,2023-05-03T18:33:52.618Z,,0,2,,3556,response,ISIC_0027132.JPG,,ISIC_0059485.JPG,ISIC_0027132.JPG,false,1,keypress(m),500,402980,402980,399424,399405.00000000006,399457,403041,8,400,32,,ISIC_0059485.JPG
break,html.Screen,4_81_1,2023-05-03T18:33:52.619Z,,0,,,NaN,,,,,,false,,,,402981,402981,,402981,,403041,8,400,,,
break_continue,html.Screen,4_81_2,2023-05-03T18:33:52.619Z,,0,,,NaN,,,,,,false,,,,402982,402982,,402982,,403041,8,400,,,
sequence,flow.Sequence,4_81,2023-05-03T18:33:52.620Z,,0,,,3525,completion,,,,,false,,,,402982,402982,399424,399405.00000000006,399457,403041,8,400,,,
trial,html.Screen,4_82_0,2023-05-03T18:33:56.511Z,,0,2,,3866,response,ISIC_0057692.JPG,,ISIC_8165906.JPG,ISIC_0057692.JPG,false,1,keypress(m),500,406874,406873,403007,402982,403041,406924,8,400,33,,ISIC_8165906.JPG
break,html.Screen,4_82_1,2023-05-03T18:33:56.512Z,,0,,,NaN,,,,,,false,,,,406875,406875,,406874,,406924,8,400,,,
break_continue,html.Screen,4_82_2,2023-05-03T18:33:56.513Z,,0,,,NaN,,,,,,false,,,,406875,406875,,406875,,406924,8,400,,,
sequence,flow.Sequence,4_82,2023-05-03T18:33:56.513Z,,0,,,3834,completion,,,,,false,,,,406875,406875,403007,402982,403041,406924,8,400,,,
trial,html.Screen,4_83_0,2023-05-03T18:34:01.820Z,,0,2,,5291,response,ISIC_0202167.JPG,,ISIC_8738598.JPG,ISIC_0202167.JPG,false,1,keypress(m),500,412183,412182,406891,406875,406924,412224,8,400,34,,ISIC_8738598.JPG
break,html.Screen,4_83_1,2023-05-03T18:34:01.822Z,,0,,,NaN,,,,,,false,,,,412184,412184,,412183,,412224,8,400,,,
break_continue,html.Screen,4_83_2,2023-05-03T18:34:01.822Z,,0,,,NaN,,,,,,false,,,,412185,412185,,412184,,412224,8,400,,,
sequence,flow.Sequence,4_83,2023-05-03T18:34:01.822Z,,0,,,5261,completion,,,,,false,,,,412185,412185,406891,406875,406924,412224,8,400,,,
trial,html.Screen,4_84_0,2023-05-03T18:34:05.235Z,,0,2,,3407.000000000058,response,ISIC_4247149.JPG,,ISIC_2075372.JPG,ISIC_4247149.JPG,false,1,keypress(m),500,415598,415597.00000000006,412190,412185,412224,415658,8,400,35,,ISIC_2075372.JPG
break,html.Screen,4_84_1,2023-05-03T18:34:05.236Z,,0,,,NaN,,,,,,false,,,,415599,415599,,415598,,415658,8,400,,,
break_continue,html.Screen,4_84_2,2023-05-03T18:34:05.237Z,,0,,,NaN,,,,,,false,,,,415599,415599,,415599,,415658,8,400,,,
sequence,flow.Sequence,4_84,2023-05-03T18:34:05.237Z,,0,,,3375,completion,,,,,false,,,,415600,415599,412190,412185,412224,415658,8,400,,,
trial,html.Screen,4_85_0,2023-05-03T18:34:08.756Z,,0,2,,3494,response,ISIC_0029902.JPG,,ISIC_4587506.JPG,ISIC_0029902.JPG,false,1,keypress(m),500,419119,419119,415625,415600,415658,419174,8,400,36,,ISIC_4587506.JPG
break,html.Screen,4_85_1,2023-05-03T18:34:08.757Z,,0,,,NaN,,,,,,false,,,,419120,419120,,419119,,419174,8,400,,,
break_continue,html.Screen,4_85_2,2023-05-03T18:34:08.758Z,,0,,,NaN,,,,,,false,,,,419121,419121,,419120,,419174,8,400,,,
sequence,flow.Sequence,4_85,2023-05-03T18:34:08.758Z,,0,,,3463,completion,,,,,false,,,,419121,419121,415625,415600,415658,419174,8,400,,,
trial,html.Screen,4_86_0,2023-05-03T18:34:12.198Z,,0,2,,3419,response,ISIC_0185547.JPG,,ISIC_0056017.JPG,ISIC_0185547.JPG,false,1,keypress(m),500,422561.00000000006,422560,419141,419121,419174,422608,8,400,37,,ISIC_0056017.JPG
break,html.Screen,4_86_1,2023-05-03T18:34:12.199Z,,0,,,NaN,,,,,,false,,,,422562,422562,,422561.00000000006,,422608,8,400,,,
break_continue,html.Screen,4_86_2,2023-05-03T18:34:12.199Z,,0,,,NaN,,,,,,false,,,,422562,422562,,422562,,422608,8,400,,,
sequence,flow.Sequence,4_86,2023-05-03T18:34:12.200Z,,0,,,3388,completion,,,,,false,,,,422563,422562,419141,419121,419174,422608,8,400,,,
trial,html.Screen,4_87_0,2023-05-03T18:34:15.774Z,,0,2,,3561,response,ISIC_0010360.JPG,,ISIC_7505254.JPG,ISIC_0010360.JPG,false,1,keypress(m),500,426137,426136,422575,422563,422608,426191,8,400,38,,ISIC_7505254.JPG
break,html.Screen,4_87_1,2023-05-03T18:34:15.775Z,,0,,,NaN,,,,,,false,,,,426138.00000000006,426138.00000000006,,426137,,426191,8,400,,,
break_continue,html.Screen,4_87_2,2023-05-03T18:34:15.775Z,,0,,,NaN,,,,,,false,,,,426138.00000000006,426138.00000000006,,426138.00000000006,,426191,8,400,,,
sequence,flow.Sequence,4_87,2023-05-03T18:34:15.776Z,,0,,,3530.000000000058,completion,,,,,false,,,,426139,426138.00000000006,422575,422563,422608,426191,8,400,,,
trial,html.Screen,4_88_0,2023-05-03T18:34:20.579Z,,0,2,,4783.000000000058,response,ISIC_2021175.JPG,,ISIC_0008447.JPG,ISIC_2021175.JPG,false,1,keypress(m),500,430942,430941.00000000006,426158,426139,426191,430991,8,400,39,,ISIC_0008447.JPG
break,html.Screen,4_88_1,2023-05-03T18:34:20.580Z,,0,,,NaN,,,,,,false,,,,430943,430943,,430942,,430991,8,400,,,
break_continue,html.Screen,4_88_2,2023-05-03T18:34:20.580Z,,0,,,NaN,,,,,,false,,,,430943,430943,,430943,,430991,8,400,,,
sequence,flow.Sequence,4_88,2023-05-03T18:34:20.580Z,,0,,,4752,completion,,,,,false,,,,430943,430943,426158,426139,426191,430991,8,400,,,
trial,html.Screen,4_89_0,2023-05-03T18:34:25.384Z,,0,2,,4788,response,ISIC_0000139.JPG,,ISIC_0067054.JPG,ISIC_0000139.JPG,false,1,keypress(m),500,435747,435746,430958,430944,430991,435792,8,400,40,,ISIC_0067054.JPG
break,html.Screen,4_89_1,2023-05-03T18:34:25.385Z,,0,,,NaN,,,,,,false,,,,435748,435748,,435747,,435792,8,400,,,
break_continue,html.Screen,4_89_2,2023-05-03T18:34:25.385Z,,0,,,NaN,,,,,,false,,,,435748,435748,,435748,,435792,8,400,,,
sequence,flow.Sequence,4_89,2023-05-03T18:34:25.385Z,,0,,,4757,completion,,,,,false,,,,435748,435748,430958,430944,430991,435792,8,400,,,
trial,html.Screen,4_90_0,2023-05-03T18:34:28.832Z,,0,2,,3437,response,ISIC_0013079.JPG,,ISIC_1217314.JPG,ISIC_0013079.JPG,false,1,keypress(m),500,439196,439195,435758,435749,435792,439242,8,400,41,,ISIC_1217314.JPG
break,html.Screen,4_90_1,2023-05-03T18:34:28.833Z,,0,,,NaN,,,,,,false,,,,439197,439197,,439196,,439242,8,400,,,
break_continue,html.Screen,4_90_2,2023-05-03T18:34:28.834Z,,0,,,NaN,,,,,,false,,,,439197,439197,,439197,,439242,8,400,,,
sequence,flow.Sequence,4_90,2023-05-03T18:34:28.834Z,,0,,,3405,completion,,,,,false,,,,439197,439197,435758,435748,435792,439242,8,400,,,
trial,html.Screen,4_91_0,2023-05-03T18:34:32.223Z,,0,2,,3378,response,ISIC_0026559.JPG,,ISIC_0067511.JPG,ISIC_0026559.JPG,false,1,keypress(m),500,442586,442586,439208,439197,439242,442642,8,400,42,,ISIC_0067511.JPG
break,html.Screen,4_91_1,2023-05-03T18:34:32.224Z,,0,,,NaN,,,,,,false,,,,442587,442587,,442587,,442642,8,400,,,
break_continue,html.Screen,4_91_2,2023-05-03T18:34:32.224Z,,0,,,NaN,,,,,,false,,,,442588,442588,,442588,,442642,8,400,,,
sequence,flow.Sequence,4_91,2023-05-03T18:34:32.225Z,,0,,,3346,completion,,,,,false,,,,442588,442588,439208,439197,439242,442642,8,400,,,
trial,html.Screen,4_92_0,2023-05-03T18:34:35.715Z,,0,2,,3469.000000000058,response,ISIC_9974299.JPG,,ISIC_0032925.JPG,ISIC_9974299.JPG,false,1,keypress(m),500,446078.00000000006,446078.00000000006,442609,442588,442642,446125,8,400,43,,ISIC_0032925.JPG
break,html.Screen,4_92_1,2023-05-03T18:34:35.716Z,,0,,,NaN,,,,,,false,,,,446079,446079,,446079,,446125,8,400,,,
break_continue,html.Screen,4_92_2,2023-05-03T18:34:35.716Z,,0,,,NaN,,,,,,false,,,,446080,446080,,446080,,446125,8,400,,,
sequence,flow.Sequence,4_92,2023-05-03T18:34:35.716Z,,0,,,3438,completion,,,,,false,,,,446080,446080,442609,442588,442642,446125,8,400,,,
trial,html.Screen,4_93_0,2023-05-03T18:34:39.182Z,,0,2,,3453,response,ISIC_7323761.JPG,,ISIC_0072375.JPG,ISIC_7323761.JPG,false,1,keypress(m),500,449546,449545,446092,446080,446125,449592,8,400,44,,ISIC_0072375.JPG
break,html.Screen,4_93_1,2023-05-03T18:34:39.183Z,,0,,,NaN,,,,,,false,,,,449547,449547,,449546,,449592,8,400,,,
break_continue,html.Screen,4_93_2,2023-05-03T18:34:39.184Z,,0,,,NaN,,,,,,false,,,,449547,449547,,449547,,449592,8,400,,,
sequence,flow.Sequence,4_93,2023-05-03T18:34:39.184Z,,0,,,3422,completion,,,,,false,,,,449547,449547,446092,446080,446125,449592,8,400,,,
trial,html.Screen,4_94_0,2023-05-03T18:34:43.198Z,,0,2,,4003.000000000058,response,ISIC_8509219.JPG,,ISIC_0014049.JPG,ISIC_8509219.JPG,false,1,keypress(m),500,453562,453561.00000000006,449558,449548,449592,453609,8,400,45,,ISIC_0014049.JPG
break,html.Screen,4_94_1,2023-05-03T18:34:43.199Z,,0,,,NaN,,,,,,false,,,,453563,453562,,453562,,453609,8,400,,,
break_continue,html.Screen,4_94_2,2023-05-03T18:34:43.199Z,,0,,,NaN,,,,,,false,,,,453563,453563,,453563,,453609,8,400,,,
sequence,flow.Sequence,4_94,2023-05-03T18:34:43.200Z,,0,,,3971,completion,,,,,false,,,,453563,453563,449558,449548,449592,453609,8,400,,,
trial,html.Screen,4_95_0,2023-05-03T18:34:46.916Z,,0,2,,3704,response,ISIC_0067443.JPG,,ISIC_0032836.JPG,ISIC_0067443.JPG,false,1,keypress(m),500,457279,457279,453575,453563,453609,457325,8,400,46,,ISIC_0032836.JPG
break,html.Screen,4_95_1,2023-05-03T18:34:46.917Z,,0,,,NaN,,,,,,false,,,,457280.00000000006,457280.00000000006,,457280.00000000006,,457325,8,400,,,
break_continue,html.Screen,4_95_2,2023-05-03T18:34:46.917Z,,0,,,NaN,,,,,,false,,,,457281,457281,,457280.00000000006,,457325,8,400,,,
sequence,flow.Sequence,4_95,2023-05-03T18:34:46.917Z,,0,,,3672,completion,,,,,false,,,,457281,457281,453575,453563,453609,457325,8,400,,,
trial,html.Screen,4_96_0,2023-05-03T18:34:50.879Z,,0,2,,3951,response,ISIC_0004042.JPG,,ISIC_2563374.JPG,ISIC_0004042.JPG,false,1,keypress(m),500,461243,461243,457292,457281,457325,461292,8,400,47,,ISIC_2563374.JPG
break,html.Screen,4_96_1,2023-05-03T18:34:50.880Z,,0,,,NaN,,,,,,false,,,,461244,461244,,461243,,461292,8,400,,,
break_continue,html.Screen,4_96_2,2023-05-03T18:34:50.881Z,,0,,,NaN,,,,,,false,,,,461244,461244,,461244,,461292,8,400,,,
sequence,flow.Sequence,4_96,2023-05-03T18:34:50.881Z,,0,,,3919,completion,,,,,false,,,,461245,461244,457292,457281,457325,461292,8,400,,,
trial,html.Screen,4_97_0,2023-05-03T18:34:54.108Z,,0,2,,3212,response,ISIC_4957216.JPG,,ISIC_7205745.JPG,ISIC_4957216.JPG,false,1,keypress(m),500,464472.00000000006,464471,461259,461245,461292,464525,8,400,48,,ISIC_7205745.JPG
break,html.Screen,4_97_1,2023-05-03T18:34:54.109Z,,0,,,NaN,,,,,,false,,,,464473,464473,,464472.00000000006,,464525,8,400,,,
break_continue,html.Screen,4_97_2,2023-05-03T18:34:54.110Z,,0,,,NaN,,,,,,false,,,,464474,464474,,464473,,464525,8,400,,,
sequence,flow.Sequence,4_97,2023-05-03T18:34:54.110Z,,0,,,3182,completion,,,,,false,,,,464474,464474,461259,461245,461292,464525,8,400,,,
trial,html.Screen,4_98_0,2023-05-03T18:34:57.409Z,,0,2,,3281,response,ISIC_0000463.JPG,,ISIC_0026781.JPG,ISIC_0000463.JPG,false,1,keypress(m),500,467773,467773,464492,464474,464525,467826,8,400,49,,ISIC_0026781.JPG
break,html.Screen,4_98_1,2023-05-03T18:34:57.410Z,,0,,,NaN,,,,,,false,,,,467774,467774,,467774,,467826,8,400,,,
break_continue,html.Screen,4_98_2,2023-05-03T18:34:57.411Z,,0,,,NaN,,,,,,false,,,,467775.00000000006,467775.00000000006,,467774,,467826,8,400,,,
sequence,flow.Sequence,4_98,2023-05-03T18:34:57.411Z,,0,,,3250.000000000058,completion,,,,,false,,,,467775.00000000006,467775.00000000006,464492,464474,464525,467826,8,400,,,
trial,html.Screen,4_99_0,2023-05-03T18:35:00.668Z,,0,2,,3240,response,ISIC_0054080.JPG,,ISIC_9181399.JPG,ISIC_0054080.JPG,false,1,keypress(m),500,471032,471032,467792,467775.00000000006,467826,471093,8,400,50,,ISIC_9181399.JPG
break,html.Screen,4_99_1,2023-05-03T18:35:05.679Z,,0,,,4983,timeout,,,,,false,,,,476043,476043,471059,471033,471093,476076,8,400,,,
break_continue,html.Screen,4_99_2,2023-05-03T18:35:06.954Z,,0,,,1266,response,,,,,false,continue,keypress(Space),,477318,477309,476043,476043,476076,477375,8,400,,,
sequence,flow.Sequence,4_99,2023-05-03T18:35:06.954Z,,0,,,9483,completion,,,,,false,,,,477318,477309,467792,467775.00000000006,467826,477375,8,400,,,
trial,html.Screen,4_100_0,2023-05-03T18:35:11.032Z,,0,3,,4053,response,ISIC_0011949.JPG,,ISIC_0939648.JPG,ISIC_0011949.JPG,false,1,keypress(m),500,481397,481396,477343,477318,477375,481442,8,400,1,,ISIC_0939648.JPG
break,html.Screen,4_100_1,2023-05-03T18:35:11.033Z,,0,,,NaN,,,,,,false,,,,481397,481397,,481397,,481442,8,400,,,
break_continue,html.Screen,4_100_2,2023-05-03T18:35:11.033Z,,0,,,NaN,,,,,,false,,,,481398,481398,,481397,,481442,8,400,,,
sequence,flow.Sequence,4_100,2023-05-03T18:35:11.034Z,,0,,,4023,completion,,,,,false,,,,481398,481398,477343,477318,477375,481442,8,400,,,
trial,html.Screen,4_101_0,2023-05-03T18:35:14.543Z,,0,3,,3498,response,ISIC_0046405.JPG,,ISIC_8740331.JPG,ISIC_0046405.JPG,false,1,keypress(m),500,484907,484907,481409,481398,481442,484960,8,400,2,,ISIC_8740331.JPG
break,html.Screen,4_101_1,2023-05-03T18:35:14.544Z,,0,,,NaN,,,,,,false,,,,484908,484908,,484908,,484960,8,400,,,
break_continue,html.Screen,4_101_2,2023-05-03T18:35:14.544Z,,0,,,NaN,,,,,,false,,,,484909,484909,,484908,,484960,8,400,,,
sequence,flow.Sequence,4_101,2023-05-03T18:35:14.545Z,,0,,,3467,completion,,,,,false,,,,484909,484909,481409,481398,481442,484960,8,400,,,
trial,html.Screen,4_102_0,2023-05-03T18:35:17.941Z,,0,3,,3379,response,ISIC_0231167.JPG,,ISIC_0069183.JPG,ISIC_0231167.JPG,false,1,keypress(m),500,488306,488305,484926,484909,484960,488359,8,400,3,,ISIC_0069183.JPG
break,html.Screen,4_102_1,2023-05-03T18:35:17.942Z,,0,,,NaN,,,,,,false,,,,488307,488306,,488306,,488359,8,400,,,
break_continue,html.Screen,4_102_2,2023-05-03T18:35:17.943Z,,0,,,NaN,,,,,,false,,,,488307,488307,,488307,,488359,8,400,,,
sequence,flow.Sequence,4_102,2023-05-03T18:35:17.943Z,,0,,,3347,completion,,,,,false,,,,488307,488307,484926,484909,484960,488359,8,400,,,
trial,html.Screen,4_103_0,2023-05-03T18:35:21.153Z,,0,3,,3191,response,ISIC_0011750.JPG,,ISIC_5482426.JPG,ISIC_0011750.JPG,false,1,keypress(m),500,491517,491517,488326,488307,488359,491576,8,400,4,,ISIC_5482426.JPG
break,html.Screen,4_103_1,2023-05-03T18:35:21.154Z,,0,,,NaN,,,,,,false,,,,491518,491518,,491518,,491576,8,400,,,
break_continue,html.Screen,4_103_2,2023-05-03T18:35:21.154Z,,0,,,NaN,,,,,,false,,,,491519,491519,,491519,,491576,8,400,,,
sequence,flow.Sequence,4_103,2023-05-03T18:35:21.154Z,,0,,,3160,completion,,,,,false,,,,491519,491519,488326,488307,488359,491576,8,400,,,
trial,html.Screen,4_104_0,2023-05-03T18:35:24.417Z,,0,3,,3239,response,ISIC_1962844.JPG,,ISIC_1124434.JPG,ISIC_1962844.JPG,false,1,keypress(m),500,494782,494782,491543,491519,491576,494826,8,400,5,,ISIC_1124434.JPG
break,html.Screen,4_104_1,2023-05-03T18:35:24.418Z,,0,,,NaN,,,,,,false,,,,494783,494783,,494782,,494826,8,400,,,
break_continue,html.Screen,4_104_2,2023-05-03T18:35:24.419Z,,0,,,NaN,,,,,,false,,,,494783,494783,,494783,,494826,8,400,,,
sequence,flow.Sequence,4_104,2023-05-03T18:35:24.419Z,,0,,,3207,completion,,,,,false,,,,494784,494783,491543,491519,491576,494826,8,400,,,
trial,html.Screen,4_105_0,2023-05-03T18:35:27.805Z,,0,3,,3376,response,ISIC_0028718.JPG,,ISIC_9929097.JPG,ISIC_0028718.JPG,false,1,keypress(m),500,498170,498169,494793,494784,494826,498227,8,400,6,,ISIC_9929097.JPG
break,html.Screen,4_105_1,2023-05-03T18:35:27.806Z,,0,,,NaN,,,,,,false,,,,498171,498170,,498170,,498227,8,400,,,
break_continue,html.Screen,4_105_2,2023-05-03T18:35:27.806Z,,0,,,NaN,,,,,,false,,,,498171,498171,,498171,,498227,8,400,,,
sequence,flow.Sequence,4_105,2023-05-03T18:35:27.807Z,,0,,,3345,completion,,,,,false,,,,498171,498171,494793,494784,494826,498227,8,400,,,
trial,html.Screen,4_106_0,2023-05-03T18:35:31.210Z,,0,3,,3381,response,ISIC_0033365.JPG,,ISIC_4081632.JPG,ISIC_0033365.JPG,false,1,keypress(m),500,501574,501574,498193,498172,498227,501626,8,400,7,,ISIC_4081632.JPG
break,html.Screen,4_106_1,2023-05-03T18:35:31.211Z,,0,,,NaN,,,,,,false,,,,501575,501575,,501575,,501626,8,400,,,
break_continue,html.Screen,4_106_2,2023-05-03T18:35:31.211Z,,0,,,NaN,,,,,,false,,,,501576,501576,,501576,,501626,8,400,,,
sequence,flow.Sequence,4_106,2023-05-03T18:35:31.211Z,,0,,,3349,completion,,,,,false,,,,501576,501576,498193,498171,498227,501626,8,400,,,
trial,html.Screen,4_107_0,2023-05-03T18:35:34.468Z,,0,3,,3240,response,ISIC_0029906.JPG,,ISIC_0008952.JPG,ISIC_0029906.JPG,false,1,keypress(m),500,504833,504832,501592,501576,501626,504877,8,400,8,,ISIC_0008952.JPG
break,html.Screen,4_107_1,2023-05-03T18:35:34.469Z,,0,,,NaN,,,,,,false,,,,504834,504833,,504833,,504877,8,400,,,
break_continue,html.Screen,4_107_2,2023-05-03T18:35:34.469Z,,0,,,NaN,,,,,,false,,,,504834,504834,,504834,,504877,8,400,,,
sequence,flow.Sequence,4_107,2023-05-03T18:35:34.469Z,,0,,,3208,completion,,,,,false,,,,504834,504834,501592,501576,501626,504877,8,400,,,
trial,html.Screen,4_108_0,2023-05-03T18:35:37.715Z,,0,3,,3236,response,ISIC_8127578.JPG,,ISIC_0010255.JPG,ISIC_8127578.JPG,false,1,keypress(m),500,508080,508079,504843,504834,504877,508127,8,400,9,,ISIC_0010255.JPG
break,html.Screen,4_108_1,2023-05-03T18:35:37.716Z,,0,,,NaN,,,,,,false,,,,508081,508081,,508080,,508127,8,400,,,
break_continue,html.Screen,4_108_2,2023-05-03T18:35:37.716Z,,0,,,NaN,,,,,,false,,,,508081,508081,,508081,,508127,8,400,,,
sequence,flow.Sequence,4_108,2023-05-03T18:35:37.717Z,,0,,,3204,completion,,,,,false,,,,508081,508081,504843,504834,504877,508127,8,400,,,
trial,html.Screen,4_109_0,2023-05-03T18:35:41.269Z,,0,3,,3540.000000000058,response,ISIC_0012049.JPG,,ISIC_0068530.JPG,ISIC_0012049.JPG,false,1,keypress(m),500,511634,511633.00000000006,508093,508082,508127,511693,8,400,10,,ISIC_0068530.JPG
break,html.Screen,4_109_1,2023-05-03T18:35:41.270Z,,0,,,NaN,,,,,,false,,,,511635,511635,,511634,,511693,8,400,,,
break_continue,html.Screen,4_109_2,2023-05-03T18:35:41.271Z,,0,,,NaN,,,,,,false,,,,511636,511635,,511635,,511693,8,400,,,
sequence,flow.Sequence,4_109,2023-05-03T18:35:41.271Z,,0,,,3508,completion,,,,,false,,,,511636,511635,508093,508082,508127,511693,8,400,,,
trial,html.Screen,4_110_0,2023-05-03T18:35:45.103Z,,0,3,,3807,response,ISIC_9203812.JPG,,ISIC_0911448.JPG,ISIC_9203812.JPG,false,1,keypress(m),500,515467.99999999994,515467,511660,511636,511693,515526,8,400,11,,ISIC_0911448.JPG
break,html.Screen,4_110_1,2023-05-03T18:35:45.103Z,,0,,,NaN,,,,,,false,,,,515469.00000000006,515467.99999999994,,515467.99999999994,,515526,8,400,,,
break_continue,html.Screen,4_110_2,2023-05-03T18:35:45.104Z,,0,,,NaN,,,,,,false,,,,515469.00000000006,515469.00000000006,,515469.00000000006,,515526,8,400,,,
sequence,flow.Sequence,4_110,2023-05-03T18:35:45.104Z,,0,,,3776.000000000058,completion,,,,,false,,,,515469.00000000006,515469.00000000006,511660,511636,511693,515526,8,400,,,
trial,html.Screen,4_111_0,2023-05-03T18:35:48.877Z,,0,3,,3748.999999999942,response,ISIC_0006754.JPG,,ISIC_2349743.JPG,ISIC_0006754.JPG,false,1,keypress(m),500,519243.00000000006,519241.99999999994,515493,515469.00000000006,515526,519294,8,400,12,,ISIC_2349743.JPG
break,html.Screen,4_111_1,2023-05-03T18:35:48.878Z,,0,,,NaN,,,,,,false,,,,519244,519243.00000000006,,519243.00000000006,,519294,8,400,,,
break_continue,html.Screen,4_111_2,2023-05-03T18:35:48.879Z,,0,,,NaN,,,,,,false,,,,519244,519244,,519244,,519294,8,400,,,
sequence,flow.Sequence,4_111,2023-05-03T18:35:48.879Z,,0,,,3718,completion,,,,,false,,,,519244,519244,515493,515469.00000000006,515526,519294,8,400,,,
trial,html.Screen,4_112_0,2023-05-03T18:35:52.165Z,,0,3,,3269,response,ISIC_0027234.JPG,,ISIC_7210119.JPG,ISIC_0027234.JPG,false,1,keypress(m),500,522530,522529,519260,519244,519294,522577,8,400,13,,ISIC_7210119.JPG
break,html.Screen,4_112_1,2023-05-03T18:35:52.166Z,,0,,,NaN,,,,,,false,,,,522532.00000000006,522531.00000000006,,522531.00000000006,,522577,8,400,,,
break_continue,html.Screen,4_112_2,2023-05-03T18:35:52.167Z,,0,,,NaN,,,,,,false,,,,522532.00000000006,522532.00000000006,,522532.00000000006,,522577,8,400,,,
sequence,flow.Sequence,4_112,2023-05-03T18:35:52.167Z,,0,,,3238.000000000058,completion,,,,,false,,,,522532.00000000006,522532.00000000006,519260,519244,519294,522577,8,400,,,
trial,html.Screen,4_113_0,2023-05-03T18:35:55.726Z,,0,3,,3547,response,ISIC_4363603.JPG,,ISIC_9059250.JPG,ISIC_4363603.JPG,false,1,keypress(m),500,526092,526091,522544,522532.00000000006,522577,526144,8,400,14,,ISIC_9059250.JPG
break,html.Screen,4_113_1,2023-05-03T18:35:55.727Z,,0,,,NaN,,,,,,false,,,,526093,526092,,526092,,526144,8,400,,,
break_continue,html.Screen,4_113_2,2023-05-03T18:35:55.728Z,,0,,,NaN,,,,,,false,,,,526093,526093,,526093,,526144,8,400,,,
sequence,flow.Sequence,4_113,2023-05-03T18:35:55.728Z,,0,,,3516,completion,,,,,false,,,,526093,526093,522544,522532.00000000006,522577,526144,8,400,,,
trial,html.Screen,4_114_0,2023-05-03T18:36:00.760Z,,0,3,,5015,response,ISIC_4978697.JPG,,ISIC_0014788.JPG,ISIC_4978697.JPG,false,1,keypress(m),500,531125,531125,526110,526093,526144,531177,8,400,15,,ISIC_0014788.JPG
break,html.Screen,4_114_1,2023-05-03T18:36:00.761Z,,0,,,NaN,,,,,,false,,,,531126,531126,,531126,,531177,8,400,,,
break_continue,html.Screen,4_114_2,2023-05-03T18:36:00.761Z,,0,,,NaN,,,,,,false,,,,531127.0000000001,531127.0000000001,,531126,,531177,8,400,,,
sequence,flow.Sequence,4_114,2023-05-03T18:36:00.761Z,,0,,,4983.000000000116,completion,,,,,false,,,,531127.0000000001,531127.0000000001,526110,526093,526144,531177,8,400,,,
trial,html.Screen,4_115_0,2023-05-03T18:36:03.993Z,,0,3,,3214.0000000001164,response,ISIC_3582787.JPG,,ISIC_9625295.JPG,ISIC_3582787.JPG,false,1,keypress(m),500,534359,534358.0000000001,531144,531127.0000000001,531177,534411,8,400,16,,ISIC_9625295.JPG
break,html.Screen,4_115_1,2023-05-03T18:36:03.994Z,,0,,,NaN,,,,,,false,,,,534360,534359,,534359,,534411,8,400,,,
break_continue,html.Screen,4_115_2,2023-05-03T18:36:03.994Z,,0,,,NaN,,,,,,false,,,,534360,534360,,534360,,534411,8,400,,,
sequence,flow.Sequence,4_115,2023-05-03T18:36:03.994Z,,0,,,3183,completion,,,,,false,,,,534360,534360,531144,531127.0000000001,531177,534411,8,400,,,
trial,html.Screen,4_116_0,2023-05-03T18:36:07.790Z,,0,3,,3778,response,ISIC_0028773.JPG,,ISIC_0009911.JPG,ISIC_0028773.JPG,false,1,keypress(m),500,538156.0000000001,538155,534377,534360,534411,538211,8,400,17,,ISIC_0009911.JPG
break,html.Screen,4_116_1,2023-05-03T18:36:07.791Z,,0,,,NaN,,,,,,false,,,,538157,538157,,538156.0000000001,,538211,8,400,,,
break_continue,html.Screen,4_116_2,2023-05-03T18:36:07.792Z,,0,,,NaN,,,,,,false,,,,538157,538157,,538157,,538211,8,400,,,
sequence,flow.Sequence,4_116,2023-05-03T18:36:07.792Z,,0,,,3746,completion,,,,,false,,,,538157,538157,534377,534360,534411,538211,8,400,,,
trial,html.Screen,4_117_0,2023-05-03T18:36:10.969Z,,0,3,,3158,response,ISIC_9401187.JPG,,ISIC_7499769.JPG,ISIC_9401187.JPG,false,1,keypress(m),500,541335,541335,538177,538158,538211,541394,8,400,18,,ISIC_7499769.JPG
break,html.Screen,4_117_1,2023-05-03T18:36:10.970Z,,0,,,NaN,,,,,,false,,,,541336,541336,,541335,,541394,8,400,,,
break_continue,html.Screen,4_117_2,2023-05-03T18:36:10.971Z,,0,,,NaN,,,,,,false,,,,541336,541336,,541336,,541394,8,400,,,
sequence,flow.Sequence,4_117,2023-05-03T18:36:10.971Z,,0,,,3125,completion,,,,,false,,,,541337,541336,538177,538157,538211,541394,8,400,,,
trial,html.Screen,4_118_0,2023-05-03T18:36:14.615Z,,0,3,,3619,response,ISIC_9547089.JPG,,ISIC_7293518.JPG,ISIC_9547089.JPG,false,1,keypress(m),500,544981,544980,541361,541337,541394,545028,8,400,19,,ISIC_7293518.JPG
break,html.Screen,4_118_1,2023-05-03T18:36:14.616Z,,0,,,NaN,,,,,,false,,,,544982,544982,,544981,,545028,8,400,,,
break_continue,html.Screen,4_118_2,2023-05-03T18:36:14.616Z,,0,,,NaN,,,,,,false,,,,544982,544982,,544982,,545028,8,400,,,
sequence,flow.Sequence,4_118,2023-05-03T18:36:14.617Z,,0,,,3588,completion,,,,,false,,,,544982,544982,541361,541337,541394,545028,8,400,,,
trial,html.Screen,4_119_0,2023-05-03T18:36:18.624Z,,0,3,,3995,response,ISIC_0027406.JPG,,ISIC_0011699.JPG,ISIC_0027406.JPG,false,1,keypress(m),500,548990,548989,544994,544983.0000000001,545028,549044,8,400,20,,ISIC_0011699.JPG
break,html.Screen,4_119_1,2023-05-03T18:36:18.625Z,,0,,,NaN,,,,,,false,,,,548991,548991,,548990,,549044,8,400,,,
break_continue,html.Screen,4_119_2,2023-05-03T18:36:18.625Z,,0,,,NaN,,,,,,false,,,,548991,548991,,548991,,549044,8,400,,,
sequence,flow.Sequence,4_119,2023-05-03T18:36:18.625Z,,0,,,3963,completion,,,,,false,,,,548991,548991,544994,544982,545028,549044,8,400,,,
trial,html.Screen,4_120_0,2023-05-03T18:36:22.191Z,,0,3,,3546,response,ISIC_6676776.JPG,,ISIC_0924902.JPG,ISIC_6676776.JPG,false,1,keypress(m),500,552557,552557,549011,548991,549044,552611,8,400,21,,ISIC_0924902.JPG
break,html.Screen,4_120_1,2023-05-03T18:36:22.193Z,,0,,,NaN,,,,,,false,,,,552559,552558,,552558,,552611,8,400,,,
break_continue,html.Screen,4_120_2,2023-05-03T18:36:22.193Z,,0,,,NaN,,,,,,false,,,,552559,552559,,552559,,552611,8,400,,,
sequence,flow.Sequence,4_120,2023-05-03T18:36:22.193Z,,0,,,3515,completion,,,,,false,,,,552559,552559,549011,548991,549044,552611,8,400,,,
trial,html.Screen,4_121_0,2023-05-03T18:36:25.868Z,,0,3,,3656,response,ISIC_0029538.JPG,,ISIC_0028226.JPG,ISIC_0029538.JPG,false,1,keypress(m),500,556234,556234,552578,552559,552611,556295,8,400,22,,ISIC_0028226.JPG
break,html.Screen,4_121_1,2023-05-03T18:36:25.870Z,,0,,,NaN,,,,,,false,,,,556236,556235,,556235,,556295,8,400,,,
break_continue,html.Screen,4_121_2,2023-05-03T18:36:25.870Z,,0,,,NaN,,,,,,false,,,,556236,556236,,556236,,556295,8,400,,,
sequence,flow.Sequence,4_121,2023-05-03T18:36:25.870Z,,0,,,3625,completion,,,,,false,,,,556236,556236,552578,552559,552611,556295,8,400,,,
trial,html.Screen,4_122_0,2023-05-03T18:36:29.587Z,,0,3,,3691,response,ISIC_1165548.JPG,,ISIC_8483458.JPG,ISIC_1165548.JPG,false,1,keypress(m),500,559953,559952,556261,556237,556295,560011,8,400,23,,ISIC_8483458.JPG
break,html.Screen,4_122_1,2023-05-03T18:36:29.588Z,,0,,,NaN,,,,,,false,,,,559954.0000000001,559954.0000000001,,559953,,560011,8,400,,,
break_continue,html.Screen,4_122_2,2023-05-03T18:36:29.588Z,,0,,,NaN,,,,,,false,,,,559954.0000000001,559954.0000000001,,559954.0000000001,,560011,8,400,,,
sequence,flow.Sequence,4_122,2023-05-03T18:36:29.588Z,,0,,,3659.0000000001164,completion,,,,,false,,,,559954.0000000001,559954.0000000001,556261,556237,556295,560011,8,400,,,
trial,html.Screen,4_123_0,2023-05-03T18:36:33.168Z,,0,3,,3556,response,ISIC_6444989.JPG,,ISIC_1389141.JPG,ISIC_6444989.JPG,false,1,keypress(m),500,563534,563534,559978,559955,560011,563577,8,400,24,,ISIC_1389141.JPG
break,html.Screen,4_123_1,2023-05-03T18:36:33.169Z,,0,,,NaN,,,,,,false,,,,563535,563535,,563534,,563577,8,400,,,
break_continue,html.Screen,4_123_2,2023-05-03T18:36:33.169Z,,0,,,NaN,,,,,,false,,,,563536,563535,,563535,,563577,8,400,,,
sequence,flow.Sequence,4_123,2023-05-03T18:36:33.170Z,,0,,,3524,completion,,,,,false,,,,563536,563535,559978,559954.0000000001,560011,563577,8,400,,,
trial,html.Screen,4_124_0,2023-05-03T18:36:36.943Z,,0,3,,3764,response,ISIC_0030089.JPG,,ISIC_4142019.JPG,ISIC_0030089.JPG,false,1,keypress(m),500,567310.0000000001,567309,563545,563536,563577,567362,8,400,25,,ISIC_4142019.JPG
break,html.Screen,4_124_1,2023-05-03T18:36:36.945Z,,0,,,NaN,,,,,,false,,,,567311,567311,,567310.0000000001,,567362,8,400,,,
break_continue,html.Screen,4_124_2,2023-05-03T18:36:36.945Z,,0,,,NaN,,,,,,false,,,,567311,567311,,567311,,567362,8,400,,,
sequence,flow.Sequence,4_124,2023-05-03T18:36:36.945Z,,0,,,3734,completion,,,,,false,,,,567311,567311,563545,563536,563577,567362,8,400,,,
trial,html.Screen,4_125_0,2023-05-03T18:36:40.689Z,,0,3,,3727.0000000001164,response,ISIC_0057259.JPG,,ISIC_4014307.JPG,ISIC_0057259.JPG,false,1,keypress(m),500,571056,571055.0000000001,567328,567312,567362,571112,8,400,26,,ISIC_4014307.JPG
break,html.Screen,4_125_1,2023-05-03T18:36:40.690Z,,0,,,NaN,,,,,,false,,,,571057,571056,,571056,,571112,8,400,,,
break_continue,html.Screen,4_125_2,2023-05-03T18:36:40.691Z,,0,,,NaN,,,,,,false,,,,571057,571057,,571057,,571112,8,400,,,
sequence,flow.Sequence,4_125,2023-05-03T18:36:40.691Z,,0,,,3695,completion,,,,,false,,,,571057,571057,567328,567311,567362,571112,8,400,,,
trial,html.Screen,4_126_0,2023-05-03T18:36:44.643Z,,0,3,,3931,response,ISIC_9301346.JPG,,ISIC_0027921.JPG,ISIC_9301346.JPG,false,1,keypress(m),500,575010,575009,571078,571057,571112,575061,8,400,27,,ISIC_0027921.JPG
break,html.Screen,4_126_1,2023-05-03T18:36:44.644Z,,0,,,NaN,,,,,,false,,,,575011,575011,,575010,,575061,8,400,,,
break_continue,html.Screen,4_126_2,2023-05-03T18:36:44.645Z,,0,,,NaN,,,,,,false,,,,575011,575011,,575011,,575061,8,400,,,
sequence,flow.Sequence,4_126,2023-05-03T18:36:44.645Z,,0,,,3899,completion,,,,,false,,,,575011,575011,571078,571057,571112,575061,8,400,,,
trial,html.Screen,4_127_0,2023-05-03T18:36:49.708Z,,0,3,,5046,response,ISIC_0034032.JPG,,ISIC_0067550.JPG,ISIC_0034032.JPG,false,1,keypress(m),500,580074,580074,575028,575011,575061,580129,8,400,28,,ISIC_0067550.JPG
break,html.Screen,4_127_1,2023-05-03T18:36:49.709Z,,0,,,NaN,,,,,,false,,,,580075,580075,,580075,,580129,8,400,,,
break_continue,html.Screen,4_127_2,2023-05-03T18:36:49.709Z,,0,,,NaN,,,,,,false,,,,580076,580076,,580076,,580129,8,400,,,
sequence,flow.Sequence,4_127,2023-05-03T18:36:49.709Z,,0,,,5015,completion,,,,,false,,,,580076,580076,575028,575011,575061,580129,8,400,,,
trial,html.Screen,4_128_0,2023-05-03T18:36:53.199Z,,0,3,,3470,response,ISIC_4177043.JPG,,ISIC_3687259.JPG,ISIC_4177043.JPG,false,1,keypress(m),500,583566,583565,580095,580076,580129,583611,8,400,29,,ISIC_3687259.JPG
break,html.Screen,4_128_1,2023-05-03T18:36:53.200Z,,0,,,NaN,,,,,,false,,,,583567,583566,,583566,,583611,8,400,,,
break_continue,html.Screen,4_128_2,2023-05-03T18:36:53.200Z,,0,,,NaN,,,,,,false,,,,583567,583567,,583567,,583611,8,400,,,
sequence,flow.Sequence,4_128,2023-05-03T18:36:53.200Z,,0,,,3438,completion,,,,,false,,,,583567,583567,580095,580076,580129,583611,8,400,,,
trial,html.Screen,4_129_0,2023-05-03T18:36:56.504Z,,0,3,,3291,response,ISIC_0000074.JPG,,ISIC_4055361.JPG,ISIC_0000074.JPG,false,1,keypress(m),500,586870,586870,583579,583567,583611,,8,400,30,,ISIC_4055361.JPG
break,html.Screen,4_129_1,2023-05-03T18:36:56.505Z,,0,,,NaN,,,,,,false,,,,586872,586871,,586871,,586929,8,400,,,
break_continue,html.Screen,4_129_2,2023-05-03T18:36:56.505Z,,0,,,NaN,,,,,,false,,,,586872,586872,,586872,,586929,8,400,,,
sequence,flow.Sequence,4_129,2023-05-03T18:36:56.505Z,,0,,,3261,completion,,,,,false,,,,586872,586872,583579,583567,583611,586929,8,400,,,
trial,html.Screen,4_129_0,2023-05-03T18:36:56.545Z,,0,3,,3332,response,ISIC_0000074.JPG,,ISIC_4055361.JPG,ISIC_0000074.JPG,false,1,keypress(m),500,586912,586911,583579,583567,583611,586929,8,400,30,,ISIC_4055361.JPG
trial,html.Screen,4_130_0,2023-05-03T18:37:01.173Z,,0,3,,4644,response,ISIC_5179620.JPG,,ISIC_5071555.JPG,ISIC_5179620.JPG,false,1,keypress(m),500,591539,591539,586895,586872,586929,591595,8,400,31,,ISIC_5071555.JPG
break,html.Screen,4_130_1,2023-05-03T18:37:01.174Z,,0,,,NaN,,,,,,false,,,,591541,591540,,591540,,591595,8,400,,,
break_continue,html.Screen,4_130_2,2023-05-03T18:37:01.174Z,,0,,,NaN,,,,,,false,,,,591541,591541,,591541,,591595,8,400,,,
sequence,flow.Sequence,4_130,2023-05-03T18:37:01.174Z,,0,,,4612,completion,,,,,false,,,,591541,591541,586895,586872,586929,591595,8,400,,,
trial,html.Screen,4_131_0,2023-05-03T18:37:04.677Z,,0,3,,3482,response,ISIC_6162308.JPG,,ISIC_9244047.JPG,ISIC_6162308.JPG,false,1,keypress(m),500,595044,595044,591562,591541,591595,595095,8,400,32,,ISIC_9244047.JPG
break,html.Screen,4_131_1,2023-05-03T18:37:04.679Z,,0,,,NaN,,,,,,false,,,,595045,595045,,595045,,595095,8,400,,,
break_continue,html.Screen,4_131_2,2023-05-03T18:37:04.679Z,,0,,,NaN,,,,,,false,,,,595046,595046,,595046,,595095,8,400,,,
sequence,flow.Sequence,4_131,2023-05-03T18:37:04.679Z,,0,,,3451,completion,,,,,false,,,,595046,595046,591562,591541,591595,595095,8,400,,,
trial,html.Screen,4_132_0,2023-05-03T18:37:08.300Z,,0,3,,3604,response,ISIC_0065658.JPG,,ISIC_8169564.JPG,ISIC_0065658.JPG,false,1,keypress(m),500,598667,598666,595062,595046,595095,598712,8,400,33,,ISIC_8169564.JPG
break,html.Screen,4_132_1,2023-05-03T18:37:08.301Z,,0,,,NaN,,,,,,false,,,,598668,598668,,598667,,598712,8,400,,,
break_continue,html.Screen,4_132_2,2023-05-03T18:37:08.302Z,,0,,,NaN,,,,,,false,,,,598669,598668,,598668,,598712,8,400,,,
sequence,flow.Sequence,4_132,2023-05-03T18:37:08.302Z,,0,,,3573,completion,,,,,false,,,,598669,598668,595062,595046,595095,598712,8,400,,,
trial,html.Screen,4_133_0,2023-05-03T18:37:18.352Z,,0,3,,10039,response,ISIC_0013731.JPG,,ISIC_0055727.JPG,ISIC_0013731.JPG,false,1,keypress(m),500,608719,608718,598679,598669,598712,608779,8,400,34,,ISIC_0055727.JPG
break,html.Screen,4_133_1,2023-05-03T18:37:18.353Z,,0,,,NaN,,,,,,false,,,,608720,608720,,608719,,608779,8,400,,,
break_continue,html.Screen,4_133_2,2023-05-03T18:37:18.353Z,,0,,,NaN,,,,,,false,,,,608721,608720,,608720,,608779,8,400,,,
sequence,flow.Sequence,4_133,2023-05-03T18:37:18.354Z,,0,,,10008,completion,,,,,false,,,,608721,608720,598679,598669,598712,608779,8,400,,,
trial,html.Screen,4_134_0,2023-05-03T18:37:23.538Z,,0,3,,5159,response,ISIC_3985782.JPG,,ISIC_0067195.JPG,ISIC_3985782.JPG,false,1,keypress(m),500,613906.0000000001,613905,608746,608721,608779,613962,8,400,35,,ISIC_0067195.JPG
break,html.Screen,4_134_1,2023-05-03T18:37:23.540Z,,0,,,NaN,,,,,,false,,,,613907,613907,,613906.0000000001,,613962,8,400,,,
break_continue,html.Screen,4_134_2,2023-05-03T18:37:23.540Z,,0,,,NaN,,,,,,false,,,,613907,613907,,613907,,613962,8,400,,,
sequence,flow.Sequence,4_134,2023-05-03T18:37:23.540Z,,0,,,5128,completion,,,,,false,,,,613907,613907,608746,608721,608779,613962,8,400,,,
trial,html.Screen,4_135_0,2023-05-03T18:37:26.857Z,,0,3,,3294,response,ISIC_2256461.JPG,,ISIC_0063070.JPG,ISIC_2256461.JPG,false,1,keypress(m),500,617224,617223,613929,613908,613962,617279,8,400,36,,ISIC_0063070.JPG
break,html.Screen,4_135_1,2023-05-03T18:37:26.858Z,,0,,,NaN,,,,,,false,,,,617225,617225,,617224,,617279,8,400,,,
break_continue,html.Screen,4_135_2,2023-05-03T18:37:26.858Z,,0,,,NaN,,,,,,false,,,,617226,617225,,617225,,617279,8,400,,,
sequence,flow.Sequence,4_135,2023-05-03T18:37:26.858Z,,0,,,3263,completion,,,,,false,,,,617226,617225,613929,613908,613962,617279,8,400,,,
trial,html.Screen,4_136_0,2023-05-03T18:37:30.420Z,,0,3,,3541,response,ISIC_0057286.JPG,,ISIC_0013792.JPG,ISIC_0057286.JPG,false,1,keypress(m),500,620788,620787,617246,617226,617279,620846,8,400,37,,ISIC_0013792.JPG
break,html.Screen,4_136_1,2023-05-03T18:37:30.421Z,,0,,,NaN,,,,,,false,,,,620789,620789,,620788,,620846,8,400,,,
break_continue,html.Screen,4_136_2,2023-05-03T18:37:30.422Z,,0,,,NaN,,,,,,false,,,,620789,620789,,620789,,620846,8,400,,,
sequence,flow.Sequence,4_136,2023-05-03T18:37:30.422Z,,0,,,3510,completion,,,,,false,,,,620789,620789,617246,617226,617279,620846,8,400,,,
trial,html.Screen,4_137_0,2023-05-03T18:37:35.019Z,,0,3,,4573,response,ISIC_0370008.JPG,,ISIC_1952749.JPG,ISIC_0370008.JPG,false,1,keypress(m),500,625386,625386,620813,620789,620846,625446,8,400,38,,ISIC_1952749.JPG
break,html.Screen,4_137_1,2023-05-03T18:37:35.020Z,,0,,,NaN,,,,,,false,,,,625387,625387,,625387,,625446,8,400,,,
break_continue,html.Screen,4_137_2,2023-05-03T18:37:35.020Z,,0,,,NaN,,,,,,false,,,,625388,625388,,625388,,625446,8,400,,,
sequence,flow.Sequence,4_137,2023-05-03T18:37:35.020Z,,0,,,4542,completion,,,,,false,,,,625388,625388,620813,620789,620846,625446,8,400,,,
trial,html.Screen,4_138_0,2023-05-03T18:37:39.338Z,,0,3,,4292,response,ISIC_0032152.JPG,,ISIC_9286292.JPG,ISIC_0032152.JPG,false,1,keypress(m),500,629705,629705,625413,625388,625446,629762,8,400,39,,ISIC_9286292.JPG
break,html.Screen,4_138_1,2023-05-03T18:37:39.339Z,,0,,,NaN,,,,,,false,,,,629706,629706,,629706,,629762,8,400,,,
break_continue,html.Screen,4_138_2,2023-05-03T18:37:39.339Z,,0,,,NaN,,,,,,false,,,,629707,629707,,629707,,629762,8,400,,,
sequence,flow.Sequence,4_138,2023-05-03T18:37:39.339Z,,0,,,4261,completion,,,,,false,,,,629707,629707,625413,625388,625446,629762,8,400,,,
trial,html.Screen,4_139_0,2023-05-03T18:37:42.692Z,,0,3,,3329,response,ISIC_1805602.JPG,,ISIC_5959795.JPG,ISIC_1805602.JPG,false,1,keypress(m),500,633060.0000000001,633059,629730,629707,629762,633113,8,400,40,,ISIC_5959795.JPG
break,html.Screen,4_139_1,2023-05-03T18:37:42.693Z,,0,,,NaN,,,,,,false,,,,633061,633061,,633060.0000000001,,633113,8,400,,,
break_continue,html.Screen,4_139_2,2023-05-03T18:37:42.694Z,,0,,,NaN,,,,,,false,,,,633061,633061,,633061,,633113,8,400,,,
sequence,flow.Sequence,4_139,2023-05-03T18:37:42.694Z,,0,,,3299,completion,,,,,false,,,,633062,633061,629730,629707,629762,633113,8,400,,,
trial,html.Screen,4_140_0,2023-05-03T18:37:46.191Z,,0,3,,3478,response,ISIC_0033526.JPG,,ISIC_0010175.JPG,ISIC_0033526.JPG,false,1,keypress(m),500,636559,636558,633080,633062,633113,636613,8,400,41,,ISIC_0010175.JPG
break,html.Screen,4_140_1,2023-05-03T18:37:46.192Z,,0,,,NaN,,,,,,false,,,,636560.0000000001,636560.0000000001,,636559,,636613,8,400,,,
break_continue,html.Screen,4_140_2,2023-05-03T18:37:46.193Z,,0,,,NaN,,,,,,false,,,,636561,636560.0000000001,,636560.0000000001,,636613,8,400,,,
sequence,flow.Sequence,4_140,2023-05-03T18:37:46.193Z,,0,,,3447.0000000001164,completion,,,,,false,,,,636561,636560.0000000001,633080,633062,633113,636613,8,400,,,
trial,html.Screen,4_141_0,2023-05-03T18:37:52.242Z,,0,3,,6030,response,ISIC_3380212.JPG,,ISIC_1915890.JPG,ISIC_3380212.JPG,false,1,keypress(m),500,642610,642610,636580,636561,636613,642663,8,400,42,,ISIC_1915890.JPG
break,html.Screen,4_141_1,2023-05-03T18:37:52.243Z,,0,,,NaN,,,,,,false,,,,642611,642611,,642611,,642663,8,400,,,
break_continue,html.Screen,4_141_2,2023-05-03T18:37:52.244Z,,0,,,NaN,,,,,,false,,,,642612,642612,,642612,,642663,8,400,,,
sequence,flow.Sequence,4_141,2023-05-03T18:37:52.244Z,,0,,,5999,completion,,,,,false,,,,642612,642612,636580,636561,636613,642663,8,400,,,
trial,html.Screen,4_142_0,2023-05-03T18:37:56.823Z,,0,3,,4561,response,ISIC_4803943.JPG,,ISIC_0929483.JPG,ISIC_4803943.JPG,false,1,keypress(m),500,647191,647191,642630,642612,642663,647246,8,400,43,,ISIC_0929483.JPG
break,html.Screen,4_142_1,2023-05-03T18:37:56.824Z,,0,,,NaN,,,,,,false,,,,647192,647192,,647192,,647246,8,400,,,
break_continue,html.Screen,4_142_2,2023-05-03T18:37:56.824Z,,0,,,NaN,,,,,,false,,,,647193,647192,,647192,,647246,8,400,,,
sequence,flow.Sequence,4_142,2023-05-03T18:37:56.825Z,,0,,,4529,completion,,,,,false,,,,647193,647192,642630,642612,642663,647246,8,400,,,
trial,html.Screen,4_143_0,2023-05-03T18:38:01.368Z,,0,3,,4522,response,ISIC_3395488.JPG,,ISIC_0032726.JPG,ISIC_3395488.JPG,false,1,keypress(m),500,651737,651735,647213,647193,647246,651797,8,400,44,,ISIC_0032726.JPG
break,html.Screen,4_143_1,2023-05-03T18:38:01.374Z,,0,,,NaN,,,,,,false,,,,651742,651742,,651737,,651797,8,400,,,
break_continue,html.Screen,4_143_2,2023-05-03T18:38:01.374Z,,0,,,NaN,,,,,,false,,,,651743,651742,,651742,,651797,8,400,,,
sequence,flow.Sequence,4_143,2023-05-03T18:38:01.375Z,,0,,,4496,completion,,,,,false,,,,651743,651742,647213,647193,647246,651797,8,400,,,
trial,html.Screen,4_144_0,2023-05-03T18:38:04.774Z,,0,3,,3378,response,ISIC_7505369.JPG,,ISIC_9754098.JPG,ISIC_7505369.JPG,false,1,keypress(m),500,655143,655142,651764,651743,651797,655197,8,400,45,,ISIC_9754098.JPG
break,html.Screen,4_144_1,2023-05-03T18:38:04.776Z,,0,,,NaN,,,,,,false,,,,655144,655144,,655143,,655197,8,400,,,
break_continue,html.Screen,4_144_2,2023-05-03T18:38:04.776Z,,0,,,NaN,,,,,,false,,,,655144,655144,,655144,,655197,8,400,,,
sequence,flow.Sequence,4_144,2023-05-03T18:38:04.776Z,,0,,,3347,completion,,,,,false,,,,655145,655144,651764,651743,651797,655197,8,400,,,
trial,html.Screen,4_145_0,2023-05-03T18:38:08.186Z,,0,3,,3390,response,ISIC_0054886.JPG,,ISIC_0067318.JPG,ISIC_0054886.JPG,false,1,keypress(m),500,658555.0000000001,658554,655164,655145,655197,658614,8,400,46,,ISIC_0067318.JPG
break,html.Screen,4_145_1,2023-05-03T18:38:08.187Z,,0,,,NaN,,,,,,false,,,,658556,658556,,658555.0000000001,,658614,8,400,,,
break_continue,html.Screen,4_145_2,2023-05-03T18:38:08.188Z,,0,,,NaN,,,,,,false,,,,658556,658556,,658556,,658614,8,400,,,
sequence,flow.Sequence,4_145,2023-05-03T18:38:08.188Z,,0,,,3359,completion,,,,,false,,,,658556,658556,655164,655145,655197,658614,8,400,,,
trial,html.Screen,4_146_0,2023-05-03T18:38:11.535Z,,0,3,,3323,response,ISIC_3087402.JPG,,ISIC_0029071.JPG,ISIC_3087402.JPG,false,1,keypress(m),500,661903,661903,658580,658557,658614,661946,8,400,47,,ISIC_0029071.JPG
break,html.Screen,4_146_1,2023-05-03T18:38:11.536Z,,0,,,NaN,,,,,,false,,,,661904,661904,,661904,,661946,8,400,,,
break_continue,html.Screen,4_146_2,2023-05-03T18:38:11.536Z,,0,,,NaN,,,,,,false,,,,661905,661905,,661905,,661946,8,400,,,
sequence,flow.Sequence,4_146,2023-05-03T18:38:11.537Z,,0,,,3291,completion,,,,,false,,,,661905,661905,658580,658556,658614,661946,8,400,,,
trial,html.Screen,4_147_0,2023-05-03T18:38:14.920Z,,0,3,,3374,response,ISIC_0001581.JPG,,ISIC_0024980.JPG,ISIC_0001581.JPG,false,1,keypress(m),500,665288,665288,661914,661905,661946,665347,8,400,48,,ISIC_0024980.JPG
break,html.Screen,4_147_1,2023-05-03T18:38:14.921Z,,0,,,NaN,,,,,,false,,,,665289,665289,,665289,,665347,8,400,,,
break_continue,html.Screen,4_147_2,2023-05-03T18:38:14.921Z,,0,,,NaN,,,,,,false,,,,665290,665289,,665289,,665347,8,400,,,
sequence,flow.Sequence,4_147,2023-05-03T18:38:14.921Z,,0,,,3343,completion,,,,,false,,,,665290,665289,661914,661905,661946,665347,8,400,,,
trial,html.Screen,4_148_0,2023-05-03T18:38:18.236Z,,0,3,,3290,response,ISIC_1974152.JPG,,ISIC_6269414.JPG,ISIC_1974152.JPG,false,1,keypress(m),500,668604,668604,665314,665290,665347,668664,8,400,49,,ISIC_6269414.JPG
break,html.Screen,4_148_1,2023-05-03T18:38:18.237Z,,0,,,NaN,,,,,,false,,,,668605,668605,,668605,,668664,8,400,,,
break_continue,html.Screen,4_148_2,2023-05-03T18:38:18.237Z,,0,,,NaN,,,,,,false,,,,668606,668605,,668605,,668664,8,400,,,
sequence,flow.Sequence,4_148,2023-05-03T18:38:18.237Z,,0,,,3258,completion,,,,,false,,,,668606,668605,665314,665290,665347,668664,8,400,,,
trial,html.Screen,4_149_0,2023-05-03T18:38:21.883Z,,0,3,,3620,response,ISIC_8425541.JPG,,ISIC_4034244.JPG,ISIC_8425541.JPG,false,1,keypress(m),500,672251,672251,668631,668606,668664,672297,8,400,50,,ISIC_4034244.JPG
break,html.Screen,4_149_1,2023-05-03T18:38:26.879Z,,0,,,4984,timeout,,,,,false,,,,677248,677248,672264,672252.0000000001,672297,677281,8,400,,,
break_continue,html.Screen,4_149_2,2023-05-03T18:38:29.151Z,,0,,,2268,response,,,,,false,continue,keypress(Space),,679520,679516,677248,677249,677281,679564,8,400,,,
sequence,flow.Sequence,4_149,2023-05-03T18:38:29.152Z,,0,,,10852,completion,,,,,false,,,,679520,679516,668631,668606,668664,679564,8,400,,,
trial,html.Screen,4_150_0,2023-05-03T18:38:32.567Z,,0,4,,3404.0000000001164,response,ISIC_3409824.JPG,,ISIC_0025418.JPG,ISIC_3409824.JPG,false,1,keypress(m),500,682936,682935.0000000001,679531,679521,679564,682981,8,400,1,,ISIC_0025418.JPG
break,html.Screen,4_150_1,2023-05-03T18:38:32.568Z,,0,,,NaN,,,,,,false,,,,682937,682937,,682936,,682981,8,400,,,
break_continue,html.Screen,4_150_2,2023-05-03T18:38:32.568Z,,0,,,NaN,,,,,,false,,,,682937,682937,,682937,,682981,8,400,,,
sequence,flow.Sequence,4_150,2023-05-03T18:38:32.569Z,,0,,,3373,completion,,,,,false,,,,682937,682937,679531,679521,679564,682981,8,400,,,
trial,html.Screen,4_151_0,2023-05-03T18:38:35.747Z,,0,4,,3168,response,ISIC_0728350.JPG,,ISIC_2438917.JPG,ISIC_0728350.JPG,false,1,keypress(m),500,686116,686116,682948,682938,682981,686164,8,400,2,,ISIC_2438917.JPG
break,html.Screen,4_151_1,2023-05-03T18:38:35.748Z,,0,,,NaN,,,,,,false,,,,686117,686117,,686117,,686164,8,400,,,
break_continue,html.Screen,4_151_2,2023-05-03T18:38:35.749Z,,0,,,NaN,,,,,,false,,,,686118,686117,,686117,,686164,8,400,,,
sequence,flow.Sequence,4_151,2023-05-03T18:38:35.749Z,,0,,,3136,completion,,,,,false,,,,686118,686117,682948,682938,682981,686164,8,400,,,
trial,html.Screen,4_152_0,2023-05-03T18:38:39.111Z,,0,4,,3349,response,ISIC_4363398.JPG,,ISIC_2106823.JPG,ISIC_4363398.JPG,false,1,keypress(m),500,689480,689480,686131,686118,686164,689530,8,400,3,,ISIC_2106823.JPG
break,html.Screen,4_152_1,2023-05-03T18:38:39.112Z,,0,,,NaN,,,,,,false,,,,689481,689481,,689480,,689530,8,400,,,
break_continue,html.Screen,4_152_2,2023-05-03T18:38:39.112Z,,0,,,NaN,,,,,,false,,,,689482,689481,,689481,,689530,8,400,,,
sequence,flow.Sequence,4_152,2023-05-03T18:38:39.113Z,,0,,,3317,completion,,,,,false,,,,689482,689481,686131,686118,686164,689530,8,400,,,
trial,html.Screen,4_153_0,2023-05-03T18:38:42.411Z,,0,4,,3281,response,ISIC_2980578.JPG,,ISIC_0072290.JPG,ISIC_2980578.JPG,false,1,keypress(m),500,692780,692779,689498,689482,689530,692830,8,400,4,,ISIC_0072290.JPG
break,html.Screen,4_153_1,2023-05-03T18:38:42.412Z,,0,,,NaN,,,,,,false,,,,692781.0000000001,692781.0000000001,,692781.0000000001,,692830,8,400,,,
break_continue,html.Screen,4_153_2,2023-05-03T18:38:42.412Z,,0,,,NaN,,,,,,false,,,,692782,692782,,692781.0000000001,,692830,8,400,,,
sequence,flow.Sequence,4_153,2023-05-03T18:38:42.413Z,,0,,,3252,completion,,,,,false,,,,692782,692782,689498,689482,689530,692830,8,400,,,
trial,html.Screen,4_154_0,2023-05-03T18:38:45.648Z,,0,4,,3219,response,ISIC_0063445.JPG,,ISIC_7875959.JPG,ISIC_0063445.JPG,false,1,keypress(m),500,696017,696017,692798,692782,692830,696065,8,400,5,,ISIC_7875959.JPG
break,html.Screen,4_154_1,2023-05-03T18:38:45.649Z,,0,,,NaN,,,,,,false,,,,696019,696018,,696018,,696065,8,400,,,
break_continue,html.Screen,4_154_2,2023-05-03T18:38:45.650Z,,0,,,NaN,,,,,,false,,,,696019,696019,,696019,,696065,8,400,,,
sequence,flow.Sequence,4_154,2023-05-03T18:38:45.650Z,,0,,,3189,completion,,,,,false,,,,696019,696019,692798,692782,692830,696065,8,400,,,
trial,html.Screen,4_155_0,2023-05-03T18:38:49.085Z,,0,4,,3423.0000000001164,response,ISIC_3475142.JPG,,ISIC_2622189.JPG,ISIC_3475142.JPG,false,1,keypress(m),500,699454.0000000001,699454.0000000001,696031,696019,696065,699498,8,400,6,,ISIC_2622189.JPG
break,html.Screen,4_155_1,2023-05-03T18:38:49.086Z,,0,,,NaN,,,,,,false,,,,699455,699455,,699454.0000000001,,699498,8,400,,,
break_continue,html.Screen,4_155_2,2023-05-03T18:38:49.086Z,,0,,,NaN,,,,,,false,,,,699456,699455,,699455,,699498,8,400,,,
sequence,flow.Sequence,4_155,2023-05-03T18:38:49.086Z,,0,,,3390,completion,,,,,false,,,,699456,699455,696031,696019,696065,699498,8,400,,,
trial,html.Screen,4_156_0,2023-05-03T18:38:52.443Z,,0,4,,3347,response,ISIC_7973296.JPG,,ISIC_0024756.JPG,ISIC_7973296.JPG,false,1,keypress(m),500,702812,702811,699464,699456,699498,702865,8,400,7,,ISIC_0024756.JPG
break,html.Screen,4_156_1,2023-05-03T18:38:52.444Z,,0,,,NaN,,,,,,false,,,,702813,702813,,702813,,702865,8,400,,,
break_continue,html.Screen,4_156_2,2023-05-03T18:38:52.444Z,,0,,,NaN,,,,,,false,,,,702814,702814,,702814,,702865,8,400,,,
sequence,flow.Sequence,4_156,2023-05-03T18:38:52.444Z,,0,,,3316,completion,,,,,false,,,,702814,702814,699464,699456,699498,702865,8,400,,,
trial,html.Screen,4_157_0,2023-05-03T18:38:57.077Z,,0,4,,4613,response,ISIC_0029902.JPG,,ISIC_0030373.JPG,ISIC_0029902.JPG,false,1,keypress(m),500,707446,707445,702832,702814,702865,707498,8,400,8,,ISIC_0030373.JPG
break,html.Screen,4_157_1,2023-05-03T18:38:57.078Z,,0,,,NaN,,,,,,false,,,,707448,707447,,707446,,707498,8,400,,,
break_continue,html.Screen,4_157_2,2023-05-03T18:38:57.079Z,,0,,,NaN,,,,,,false,,,,707448,707448,,707448,,707498,8,400,,,
sequence,flow.Sequence,4_157,2023-05-03T18:38:57.079Z,,0,,,4583,completion,,,,,false,,,,707448,707448,702832,702814,702865,707498,8,400,,,
trial,html.Screen,4_158_0,2023-05-03T18:39:00.326Z,,0,4,,3230,response,ISIC_1140410.JPG,,ISIC_0054767.JPG,ISIC_1140410.JPG,false,1,keypress(m),500,710696,710695,707465,707449.0000000001,707498,710748,8,400,9,,ISIC_0054767.JPG
break,html.Screen,4_158_1,2023-05-03T18:39:00.327Z,,0,,,NaN,,,,,,false,,,,710697,710696,,710696,,710748,8,400,,,
break_continue,html.Screen,4_158_2,2023-05-03T18:39:00.327Z,,0,,,NaN,,,,,,false,,,,710697,710697,,710697,,710748,8,400,,,
sequence,flow.Sequence,4_158,2023-05-03T18:39:00.328Z,,0,,,3199,completion,,,,,false,,,,710697,710697,707465,707449.0000000001,707498,710748,8,400,,,
trial,html.Screen,4_159_0,2023-05-03T18:39:03.696Z,,0,4,,3350,response,ISIC_3013569.JPG,,ISIC_0011752.JPG,ISIC_3013569.JPG,false,1,keypress(m),500,714066,714065,710715,710697,710748,714115,8,400,10,,ISIC_0011752.JPG
