sender,sender_type,sender_id,timestamp,meta,,blockNo,condition,duration,ended_on,img_left,img_reveal,img_right,loser,practice,response,response_action,selection_duration,time_commit,time_end,time_render,time_run,time_show,time_switch,total_blocks,total_trials,trialNo,url,winner
informed_consent,html.Screen,0,2023-10-31T21:08:37.393Z,"{""labjs_version"":""20.2.4"",""labjs_build"":{""flavor"":""production"",""commit"":""f5b4a49f956347addd546a832a3327688c2c0fef""},""location"":""https://run.pavlovia.org/MurrayBennett/melanoma-2afc/?participant=67074&platform=sona"",""userAgent"":""Mozilla/5.0 (Macintosh; Intel Mac OS X 10_15_7) AppleWebKit/537.36 (KHTML, like Gecko) Chrome/118.0.0.0 Safari/537.36"",""platform"":""MacIntel"",""language"":""en-US"",""locale"":""en-US"",""timeZone"":""America/Chicago"",""timezoneOffset"":300,""screen_width"":1470,""screen_height"":956,""scroll_width"":1470,""scroll_height"":685,""window_innerWidth"":1470,""window_innerHeight"":733,""devicePixelRatio"":2}",,,,48314.105,response,,,,,,consent,click button,,50239.39999997616,50236.5,1739.069,1927.8999999761581,1922.395,50255.36,,,,"{""participant"":""67074"",""platform"":""sona""}",
Welcome,html.Screen,1,2023-10-31T21:10:32.694Z,,,,symmetry,115280.53999997616,response,,,,,,continue,click button,,165539.80000001192,165535.89999997616,50222.028,50239.80000001192,50255.36,165554.929,,,,,
trial,html.Screen,2_0_0,2023-10-31T21:10:39.153Z,,0,0,,6443.270999988075,response,ISIC_6997061.JPG,,ISIC_0069348.JPG,ISIC_0069348.JPG,true,0,keypress(z),500,171998.39999997616,171998.19999998808,165538.263,165540.19999998808,165554.929,172005.111,1,6,1,,ISIC_6997061.JPG
sequence,flow.Sequence,2_0,2023-10-31T21:10:39.153Z,,0,,,6443.270999988075,completion,,,,,true,,,,171998.60000002384,171998.19999998808,165538.263,165540.19999998808,165554.929,172005.111,1,6,,,
trial,html.Screen,2_1_0,2023-10-31T21:10:44.168Z,,0,0,,5008.388999999996,response,ISIC_0057368.JPG,,ISIC_0009529.JPG,ISIC_0057368.JPG,true,1,keypress(m),500,177013.89999997616,177013.5,171988.445,171998.60000002384,172005.111,177021.577,1,6,2,,ISIC_0009529.JPG
sequence,flow.Sequence,2_1,2023-10-31T21:10:44.169Z,,0,,,5008.388999999996,completion,,,,,true,,,,177014.30000001192,177013.5,171988.445,171998.60000002384,172005.111,177021.577,1,6,,,
trial,html.Screen,2_2_0,2023-10-31T21:10:50.158Z,,0,0,,5981.822999976168,response,ISIC_0064954.JPG,,ISIC_9758671.JPG,ISIC_9758671.JPG,true,0,keypress(z),500,183004,183003.39999997616,177004.911,177014.60000002384,177021.577,183021.603,1,6,3,,ISIC_0064954.JPG
sequence,flow.Sequence,2_2,2023-10-31T21:10:50.159Z,,0,,,5981.822999976168,completion,,,,,true,,,,183004.5,183003.39999997616,177004.911,177014.5,177021.577,183021.603,1,6,,,
trial,html.Screen,2_3_0,2023-10-31T21:11:00.884Z,,0,0,,10707.197000011918,response,ISIC_0005785.JPG,,ISIC_0000080.JPG,ISIC_0000080.JPG,true,0,keypress(z),500,193729.39999997616,193728.80000001192,183004.937,183004.69999998808,183021.603,193738.362,1,6,4,,ISIC_0005785.JPG
sequence,flow.Sequence,2_3,2023-10-31T21:11:00.884Z,,0,,,10707.197000011918,completion,,,,,true,,,,193729.80000001192,193728.80000001192,183004.937,183004.60000002384,183021.603,193738.362,1,6,,,
trial,html.Screen,2_4_0,2023-10-31T21:11:04.922Z,,0,0,,4028.438000011927,response,ISIC_7944028.JPG,,ISIC_5390060.JPG,ISIC_5390060.JPG,true,0,keypress(z),500,197767.5,197766.80000001192,193721.696,193730.10000002384,193738.362,197771.534,1,6,5,,ISIC_7944028.JPG
sequence,flow.Sequence,2_4,2023-10-31T21:11:04.922Z,,0,,,4028.438000011927,completion,,,,,true,,,,197767.89999997616,197766.80000001192,193721.696,193730,193738.362,197771.534,1,6,,,
trial,html.Screen,2_5_0,2023-10-31T21:11:08.190Z,,0,0,,3263.5660000238277,response,ISIC_0010188.JPG,,ISIC_0794216.JPG,ISIC_0010188.JPG,true,1,keypress(m),500,201035.5,201035.10000002384,197754.868,197768.10000002384,197771.534,201038.07,1,6,6,,ISIC_0794216.JPG
sequence,flow.Sequence,2_5,2023-10-31T21:11:08.190Z,,0,,,3263.5660000238277,completion,,,,,true,,,,201035.69999998808,201035.10000002384,197754.868,197768.10000002384,197771.534,201038.07,1,6,,,
loop,flow.Loop,2,2023-10-31T21:11:08.190Z,,,,,35480.17100002384,completion,,,,,true,,,,201036.10000002384,201035.10000002384,165538.263,165540.10000002384,165554.929,201038.07,1,6,,,
exp_instructions,html.Screen,3,2023-10-31T21:11:14.944Z,,,,,6743.230000011914,response,,,,,,continue,keypress(Space),,207789.19999998808,207781.30000001192,201021.404,201036.10000002384,201038.07,207804.466,,,,,
trial,html.Screen,4_0_0,2023-10-31T21:11:21.209Z,,0,1,,6249.634000023856,response,ISIC_0034289.JPG,5,ISIC_9168700.JPG,ISIC_9168700.JPG,false,0,keypress(z),500,214054.19999998808,214054.10000002384,207787.8,207789.60000002384,207804.466,214054.751,8,400,1,,ISIC_0034289.JPG
break,html.Screen,4_0_1,2023-10-31T21:11:21.209Z,,0,,,NaN,,,,,,false,,,,214054.80000001192,214054.69999998808,,214054.30000001192,,214054.751,8,400,,,
break_continue,html.Screen,4_0_2,2023-10-31T21:11:21.209Z,,0,,,NaN,,,,,,false,,,,214055,214055,,214054.89999997616,,214054.751,8,400,,,
sequence,flow.Sequence,4_0,2023-10-31T21:11:21.210Z,,0,,,6250.534000000014,completion,,,,,false,,,,214055.10000002384,214055,207787.8,207789.60000002384,207804.466,214054.751,8,400,,,
trial,html.Screen,4_1_0,2023-10-31T21:11:27.924Z,,0,1,,6714.148999976169,response,ISIC_4136591.JPG,8,ISIC_0032357.JPG,ISIC_4136591.JPG,false,1,keypress(m),500,220769.39999997616,220768.89999997616,214038.085,214055.10000002384,214054.751,220771.601,8,400,2,,ISIC_0032357.JPG
break,html.Screen,4_1_1,2023-10-31T21:11:27.925Z,,0,,,NaN,,,,,,false,,,,220770.60000002384,220770.39999997616,,220769.69999998808,,220771.601,8,400,,,
break_continue,html.Screen,4_1_2,2023-10-31T21:11:27.925Z,,0,,,NaN,,,,,,false,,,,220770.89999997616,220770.89999997616,,220770.69999998808,,220771.601,8,400,,,
sequence,flow.Sequence,4_1,2023-10-31T21:11:27.926Z,,0,,,6716.148999976169,completion,,,,,false,,,,220771.10000002384,220770.89999997616,214038.085,214055.10000002384,214054.751,220771.601,8,400,,,
trial,html.Screen,4_2_0,2023-10-31T21:11:35.371Z,,0,1,,7444.399000000005,response,ISIC_0030610.JPG,7,ISIC_9157162.JPG,ISIC_9157162.JPG,false,0,keypress(z),500,228216.39999997616,228216,220754.935,220771.19999998808,220771.601,228221.303,8,400,3,,ISIC_0030610.JPG
break,html.Screen,4_2_1,2023-10-31T21:11:35.372Z,,0,,,NaN,,,,,,false,,,,228217.60000002384,228217.30000001192,,228216.69999998808,,228221.303,8,400,,,
break_continue,html.Screen,4_2_2,2023-10-31T21:11:35.373Z,,0,,,NaN,,,,,,false,,,,228218,228217.80000001192,,228217.80000001192,,228221.303,8,400,,,
sequence,flow.Sequence,4_2,2023-10-31T21:11:35.373Z,,0,,,7446.199000011926,completion,,,,,false,,,,228218.10000002384,228217.80000001192,220754.935,220771.19999998808,220771.601,228221.303,8,400,,,
trial,html.Screen,4_3_0,2023-10-31T21:11:39.634Z,,0,1,,4258.096999976144,response,ISIC_0068000.JPG,8,ISIC_0013644.JPG,ISIC_0013644.JPG,false,0,keypress(z),500,232479.80000001192,232479.39999997616,228204.637,228218.19999998808,228221.303,232488.148,8,400,4,,ISIC_0068000.JPG
break,html.Screen,4_3_1,2023-10-31T21:11:39.635Z,,0,,,NaN,,,,,,false,,,,232480.89999997616,232480.69999998808,,232480.10000002384,,232488.148,8,400,,,
break_continue,html.Screen,4_3_2,2023-10-31T21:11:39.636Z,,0,,,NaN,,,,,,false,,,,232481.30000001192,232481.10000002384,,232481,,232488.148,8,400,,,
sequence,flow.Sequence,4_3,2023-10-31T21:11:39.636Z,,0,,,4259.797000023827,completion,,,,,false,,,,232481.39999997616,232481.10000002384,228204.637,228218.19999998808,228221.303,232488.148,8,400,,,
trial,html.Screen,4_4_0,2023-10-31T21:11:44.264Z,,0,1,,4620.551999988093,response,ISIC_1189461.JPG,7,ISIC_2075121.JPG,ISIC_1189461.JPG,false,1,keypress(m),500,237109.10000002384,237108.69999998808,232471.482,232481.60000002384,232488.148,237121.296,8,400,5,,ISIC_2075121.JPG
break,html.Screen,4_4_1,2023-10-31T21:11:44.265Z,,0,,,NaN,,,,,,false,,,,237110.30000001192,237110,,237109.39999997616,,237121.296,8,400,,,
break_continue,html.Screen,4_4_2,2023-10-31T21:11:44.265Z,,0,,,NaN,,,,,,false,,,,237110.60000002384,237110.5,,237110.39999997616,,237121.296,8,400,,,
sequence,flow.Sequence,4_4,2023-10-31T21:11:44.265Z,,0,,,4622.3520000000135,completion,,,,,false,,,,237110.80000001192,237110.5,232471.482,232481.5,232488.148,237121.296,8,400,,,
trial,html.Screen,4_5_0,2023-10-31T21:11:47.393Z,,0,1,,3116.703999999998,response,ISIC_0056228.JPG,8,ISIC_9300579.JPG,ISIC_0056228.JPG,false,1,keypress(m),500,240238.39999997616,240238,237104.63,237111,237121.296,240254.504,8,400,6,,ISIC_9300579.JPG
break,html.Screen,4_5_1,2023-10-31T21:11:47.394Z,,0,,,NaN,,,,,,false,,,,240239.5,240239.30000001192,,240238.69999998808,,240254.504,8,400,,,
break_continue,html.Screen,4_5_2,2023-10-31T21:11:47.395Z,,0,,,NaN,,,,,,false,,,,240239.89999997616,240239.80000001192,,240239.69999998808,,240254.504,8,400,,,
sequence,flow.Sequence,4_5,2023-10-31T21:11:47.395Z,,0,,,3118.504000011919,completion,,,,,false,,,,240240.10000002384,240239.80000001192,237104.63,237111,237121.296,240254.504,8,400,,,
trial,html.Screen,4_6_0,2023-10-31T21:11:51.670Z,,0,1,,4260.096000023856,response,ISIC_0013997.JPG,8,ISIC_0056689.JPG,ISIC_0013997.JPG,false,1,keypress(m),500,244515,244514.60000002384,240237.838,240240.19999998808,240254.504,244521.383,8,400,7,,ISIC_0056689.JPG
break,html.Screen,4_6_1,2023-10-31T21:11:51.671Z,,0,,,NaN,,,,,,false,,,,244516.10000002384,244515.80000001192,,244515.30000001192,,244521.383,8,400,,,
break_continue,html.Screen,4_6_2,2023-10-31T21:11:51.671Z,,0,,,NaN,,,,,,false,,,,244516.5,244516.30000001192,,244516.19999998808,,244521.383,8,400,,,
sequence,flow.Sequence,4_6,2023-10-31T21:11:51.671Z,,0,,,4261.796000011935,completion,,,,,false,,,,244516.60000002384,244516.30000001192,240237.838,240240.19999998808,240254.504,244521.383,8,400,,,
trial,html.Screen,4_7_0,2023-10-31T21:11:54.891Z,,0,1,,3214.4170000119193,response,ISIC_4663883.JPG,8,ISIC_9100283.JPG,ISIC_9100283.JPG,false,0,keypress(z),500,247736.19999998808,247735.80000001192,244504.717,244516.69999998808,244521.383,247737.921,8,400,8,,ISIC_4663883.JPG
break,html.Screen,4_7_1,2023-10-31T21:11:54.892Z,,0,,,NaN,,,,,,false,,,,247737.5,247737.19999998808,,247736.60000002384,,247737.921,8,400,,,
break_continue,html.Screen,4_7_2,2023-10-31T21:11:54.892Z,,0,,,NaN,,,,,,false,,,,247737.80000001192,247737.69999998808,,247737.60000002384,,247737.921,8,400,,,
sequence,flow.Sequence,4_7,2023-10-31T21:11:54.893Z,,0,,,3216.3169999880774,completion,,,,,false,,,,247738,247737.69999998808,244504.717,244516.69999998808,244521.383,247737.921,8,400,,,
trial,html.Screen,4_8_0,2023-10-31T21:11:58.274Z,,0,1,,3380.879000011919,response,ISIC_0004352.JPG,8,ISIC_0030342.JPG,ISIC_0030342.JPG,false,0,keypress(z),500,251119.19999998808,251118.80000001192,247721.255,247738.10000002384,247737.921,251121.119,8,400,9,,ISIC_0004352.JPG
break,html.Screen,4_8_1,2023-10-31T21:11:58.275Z,,0,,,NaN,,,,,,false,,,,251120.30000001192,251120,,251119.39999997616,,251121.119,8,400,,,
break_continue,html.Screen,4_8_2,2023-10-31T21:11:58.275Z,,0,,,NaN,,,,,,false,,,,251120.69999998808,251120.5,,251120.39999997616,,251121.119,8,400,,,
sequence,flow.Sequence,4_8,2023-10-31T21:11:58.275Z,,0,,,3382.578999999998,completion,,,,,false,,,,251120.80000001192,251120.5,247721.255,247738.10000002384,247737.921,251121.119,8,400,,,
trial,html.Screen,4_9_0,2023-10-31T21:12:01.390Z,,0,1,,3113.580999988073,response,ISIC_1048913.JPG,8,ISIC_1584535.JPG,ISIC_1048913.JPG,false,1,keypress(m),500,254235.19999998808,254234.69999998808,251104.453,251121,251121.119,254238.056,8,400,10,,ISIC_1584535.JPG
break,html.Screen,4_9_1,2023-10-31T21:12:01.391Z,,0,,,NaN,,,,,,false,,,,254236.30000001192,254236,,254235.5,,254238.056,8,400,,,
break_continue,html.Screen,4_9_2,2023-10-31T21:12:01.391Z,,0,,,NaN,,,,,,false,,,,254236.60000002384,254236.60000002384,,254236.5,,254238.056,8,400,,,
sequence,flow.Sequence,4_9,2023-10-31T21:12:01.391Z,,0,,,3115.481000023836,completion,,,,,false,,,,254236.80000001192,254236.60000002384,251104.453,251120.89999997616,251121.119,254238.056,8,400,,,
trial,html.Screen,4_10_0,2023-10-31T21:12:05.763Z,,0,1,,4370.04400002383,response,ISIC_0015023.JPG,8,ISIC_0014423.JPG,ISIC_0014423.JPG,false,0,keypress(z),500,258608.5,258608.10000002384,254221.39,254237,254238.056,258621.214,8,400,11,,ISIC_0015023.JPG
break,html.Screen,4_10_1,2023-10-31T21:12:05.764Z,,0,,,NaN,,,,,,false,,,,258609.5,258609.30000001192,,258608.80000001192,,258621.214,8,400,,,
break_continue,html.Screen,4_10_2,2023-10-31T21:12:05.765Z,,0,,,NaN,,,,,,false,,,,258609.89999997616,258609.69999998808,,258609.60000002384,,258621.214,8,400,,,
sequence,flow.Sequence,4_10,2023-10-31T21:12:05.765Z,,0,,,4371.643999988068,completion,,,,,false,,,,258610,258609.69999998808,254221.39,254236.89999997616,254238.056,258621.214,8,400,,,
trial,html.Screen,4_11_0,2023-10-31T21:12:09.463Z,,0,1,,3686.985999988072,response,ISIC_9806131.JPG,7,ISIC_0027060.JPG,ISIC_9806131.JPG,false,1,keypress(m),500,262308.6999999881,262308.1999999881,258604.548,258610.10000002384,258621.214,262321.454,8,400,12,,ISIC_0027060.JPG
break,html.Screen,4_11_1,2023-10-31T21:12:09.464Z,,0,,,NaN,,,,,,false,,,,262309.6999999881,262309.5,,262308.89999997616,,262321.454,8,400,,,
break_continue,html.Screen,4_11_2,2023-10-31T21:12:09.465Z,,0,,,NaN,,,,,,false,,,,262310.10000002384,262310.10000002384,,262309.8000000119,,262321.454,8,400,,,
sequence,flow.Sequence,4_11,2023-10-31T21:12:09.465Z,,0,,,3688.8860000238346,completion,,,,,false,,,,262310.3000000119,262310.10000002384,258604.548,258610.10000002384,258621.214,262321.454,8,400,,,
trial,html.Screen,4_12_0,2023-10-31T21:12:14.283Z,,0,1,,4806.745999988052,response,ISIC_0032569.JPG,7,ISIC_0010757.JPG,ISIC_0010757.JPG,false,0,keypress(z),500,267128.5,267128.1999999881,262304.788,262310.39999997616,262321.454,267137.928,8,400,13,,ISIC_0032569.JPG
break,html.Screen,4_12_1,2023-10-31T21:12:14.284Z,,0,,,NaN,,,,,,false,,,,267129.5,267129.39999997616,,267128.8000000119,,267137.928,8,400,,,
break_continue,html.Screen,4_12_2,2023-10-31T21:12:14.285Z,,0,,,NaN,,,,,,false,,,,267130,267129.8000000119,,267129.60000002384,,267137.928,8,400,,,
sequence,flow.Sequence,4_12,2023-10-31T21:12:14.285Z,,0,,,4808.346000011894,completion,,,,,false,,,,267130.10000002384,267129.8000000119,262304.788,262310.39999997616,262321.454,267137.928,8,400,,,
trial,html.Screen,4_13_0,2023-10-31T21:12:17.155Z,,0,1,,2862.1720000238274,response,ISIC_0064860.JPG,6,ISIC_0027125.JPG,ISIC_0064860.JPG,false,1,keypress(m),500,270000.5,270000.10000002384,267121.262,267130.1999999881,267137.928,270004.48,8,400,14,,ISIC_0027125.JPG
break,html.Screen,4_13_1,2023-10-31T21:12:17.156Z,,0,,,NaN,,,,,,false,,,,270001.5,270001.1999999881,,270000.6999999881,,270004.48,8,400,,,
break_continue,html.Screen,4_13_2,2023-10-31T21:12:17.157Z,,0,,,NaN,,,,,,false,,,,270001.8000000119,270001.6999999881,,270001.60000002384,,270004.48,8,400,,,
sequence,flow.Sequence,4_13,2023-10-31T21:12:17.157Z,,0,,,2863.7719999880646,completion,,,,,false,,,,270002,270001.6999999881,267121.262,267130.1999999881,267137.928,270004.48,8,400,,,
trial,html.Screen,4_14_0,2023-10-31T21:12:20.538Z,,0,1,,3378.7199999880977,response,ISIC_0028129.JPG,6,ISIC_7125023.JPG,ISIC_0028129.JPG,false,1,keypress(m),500,273383.6999999881,273383.1999999881,269987.814,270002.10000002384,270004.48,273388.032,8,400,15,,ISIC_7125023.JPG
break,html.Screen,4_14_1,2023-10-31T21:12:20.539Z,,0,,,NaN,,,,,,false,,,,273384.6999999881,273384.5,,273383.89999997616,,273388.032,8,400,,,
break_continue,html.Screen,4_14_2,2023-10-31T21:12:20.540Z,,0,,,NaN,,,,,,false,,,,273385,273384.89999997616,,273384.8000000119,,273388.032,8,400,,,
sequence,flow.Sequence,4_14,2023-10-31T21:12:20.540Z,,0,,,3380.4199999761768,completion,,,,,false,,,,273385.1999999881,273384.89999997616,269987.814,270002.10000002384,270004.48,273388.032,8,400,,,
trial,html.Screen,4_15_0,2023-10-31T21:12:32.031Z,,0,1,,11516.62599999999,timeout,ISIC_1985436.JPG,7,ISIC_5994007.JPG,ISIC_1985436.JPG,false,,,500,284876.39999997616,284875.89999997616,273371.366,273385.3000000119,273388.032,284904.658,8,400,16,,ISIC_5994007.JPG
break,html.Screen,4_15_1,2023-10-31T21:12:32.032Z,,0,,,NaN,,,,,,false,,,,284877.5,284877.1999999881,,284876.6999999881,,284904.658,8,400,,,
break_continue,html.Screen,4_15_2,2023-10-31T21:12:32.033Z,,0,,,NaN,,,,,,false,,,,284877.6999999881,284877.6999999881,,284877.60000002384,,284904.658,8,400,,,
sequence,flow.Sequence,4_15,2023-10-31T21:12:32.033Z,,0,,,11489.667999988073,completion,,,,,false,,,,284877.8000000119,284877.6999999881,273371.366,273385.1999999881,273388.032,284904.658,8,400,,,
trial,html.Screen,4_16_0,2023-10-31T21:12:38.869Z,,0,1,,6808.842000000004,response,ISIC_0032549.JPG,8,ISIC_0033879.JPG,ISIC_0032549.JPG,false,1,keypress(m),500,291713.89999997616,291713.5,284887.992,284877.89999997616,284904.658,291721.052,8,400,17,,ISIC_0033879.JPG
break,html.Screen,4_16_1,2023-10-31T21:12:38.870Z,,0,,,NaN,,,,,,false,,,,291715,291714.89999997616,,291714.1999999881,,291721.052,8,400,,,
break_continue,html.Screen,4_16_2,2023-10-31T21:12:38.871Z,,0,,,NaN,,,,,,false,,,,291716.6999999881,291716.60000002384,,291716.39999997616,,291721.052,8,400,,,
sequence,flow.Sequence,4_16,2023-10-31T21:12:38.872Z,,0,,,6811.942000023846,completion,,,,,false,,,,291716.8000000119,291716.60000002384,284887.992,284877.89999997616,284904.658,291721.052,8,400,,,
trial,html.Screen,4_17_0,2023-10-31T21:12:41.759Z,,0,1,,2882.847999976133,response,ISIC_0063447.JPG,8,ISIC_3503302.JPG,ISIC_0063447.JPG,false,1,keypress(m),500,294604.10000002384,294603.89999997616,291704.386,291716.8000000119,291721.052,294604.639,8,400,18,,ISIC_3503302.JPG
break,html.Screen,4_17_1,2023-10-31T21:12:41.759Z,,0,,,NaN,,,,,,false,,,,294604.5,294604.5,,294604.1999999881,,294604.639,8,400,,,
break_continue,html.Screen,4_17_2,2023-10-31T21:12:41.760Z,,0,,,NaN,,,,,,false,,,,294604.8000000119,294604.60000002384,,294604.60000002384,,294604.639,8,400,,,
sequence,flow.Sequence,4_17,2023-10-31T21:12:41.760Z,,0,,,2883.5480000238167,completion,,,,,false,,,,294604.8000000119,294604.60000002384,291704.386,291716.8000000119,291721.052,294604.639,8,400,,,
trial,html.Screen,4_18_0,2023-10-31T21:12:45.799Z,,0,1,,4038.8609999999753,response,ISIC_0060585.JPG,7,ISIC_3313701.JPG,ISIC_0060585.JPG,false,1,keypress(m),500,298643.89999997616,298643.5,294587.973,294604.89999997616,294604.639,298654.477,8,400,19,,ISIC_3313701.JPG
break,html.Screen,4_18_1,2023-10-31T21:12:45.800Z,,0,,,NaN,,,,,,false,,,,298645,298644.8000000119,,298644.1999999881,,298654.477,8,400,,,
break_continue,html.Screen,4_18_2,2023-10-31T21:12:45.800Z,,0,,,NaN,,,,,,false,,,,298645.3000000119,298645.1999999881,,298645.10000002384,,298654.477,8,400,,,
sequence,flow.Sequence,4_18,2023-10-31T21:12:45.800Z,,0,,,4040.5609999880544,completion,,,,,false,,,,298645.5,298645.1999999881,294587.973,294604.8000000119,294604.639,298654.477,8,400,,,
trial,html.Screen,4_19_0,2023-10-31T21:12:49.709Z,,0,1,,3899.4229999761446,response,ISIC_2008230.JPG,8,ISIC_1590829.JPG,ISIC_1590829.JPG,false,0,keypress(z),500,302554.3000000119,302553.89999997616,298637.811,298645.60000002384,298654.477,302570.987,8,400,20,,ISIC_2008230.JPG
break,html.Screen,4_19_1,2023-10-31T21:12:49.710Z,,0,,,NaN,,,,,,false,,,,302555.3000000119,302555.1999999881,,302554.5,,302570.987,8,400,,,
break_continue,html.Screen,4_19_2,2023-10-31T21:12:49.711Z,,0,,,NaN,,,,,,false,,,,302555.8000000119,302555.6999999881,,302555.5,,302570.987,8,400,,,
sequence,flow.Sequence,4_19,2023-10-31T21:12:49.711Z,,0,,,3901.2229999880656,completion,,,,,false,,,,302556,302555.6999999881,298637.811,298645.60000002384,298654.477,302570.987,8,400,,,
trial,html.Screen,4_20_0,2023-10-31T21:12:56.210Z,,0,1,,6483.613000023819,response,ISIC_0012810.JPG,8,ISIC_0027265.JPG,ISIC_0012810.JPG,false,1,keypress(m),500,309055.10000002384,309054.60000002384,302554.321,302556.10000002384,302570.987,309071.101,8,400,21,,ISIC_0027265.JPG
break,html.Screen,4_20_1,2023-10-31T21:12:56.211Z,,0,,,NaN,,,,,,false,,,,309056.1999999881,309056,,309055.39999997616,,309071.101,8,400,,,
break_continue,html.Screen,4_20_2,2023-10-31T21:12:56.211Z,,0,,,NaN,,,,,,false,,,,309056.60000002384,309056.5,,309056.3000000119,,309071.101,8,400,,,
sequence,flow.Sequence,4_20,2023-10-31T21:12:56.212Z,,0,,,6485.512999999977,completion,,,,,false,,,,309056.6999999881,309056.5,302554.321,302556.10000002384,302570.987,309071.101,8,400,,,
trial,html.Screen,4_21_0,2023-10-31T21:13:01.545Z,,0,1,,5318.798999976134,response,ISIC_3886458.JPG,4,ISIC_0692990.JPG,ISIC_0692990.JPG,false,0,keypress(z),500,314390.39999997616,314389.89999997616,309054.435,309056.8000000119,309071.101,314404.6,8,400,22,,ISIC_3886458.JPG
break,html.Screen,4_21_1,2023-10-31T21:13:01.546Z,,0,,,NaN,,,,,,false,,,,314391.39999997616,314391.1999999881,,314390.6999999881,,314404.6,8,400,,,
break_continue,html.Screen,4_21_2,2023-10-31T21:13:01.547Z,,0,,,NaN,,,,,,false,,,,314391.8000000119,314391.6999999881,,314391.5,,314404.6,8,400,,,
sequence,flow.Sequence,4_21,2023-10-31T21:13:01.547Z,,0,,,5320.598999988055,completion,,,,,false,,,,314391.89999997616,314391.6999999881,309054.435,309056.8000000119,309071.101,314404.6,8,400,,,
trial,html.Screen,4_22_0,2023-10-31T21:13:06.143Z,,0,1,,4582.799999976181,response,ISIC_8436666.JPG,5,ISIC_5791954.JPG,ISIC_8436666.JPG,false,1,keypress(m),500,318987.89999997616,318987.39999997616,314387.934,314392,314404.6,319004.416,8,400,23,,ISIC_5791954.JPG
break,html.Screen,4_22_1,2023-10-31T21:13:06.144Z,,0,,,NaN,,,,,,false,,,,318988.8000000119,318988.6999999881,,318988.10000002384,,319004.416,8,400,,,
break_continue,html.Screen,4_22_2,2023-10-31T21:13:06.144Z,,0,,,NaN,,,,,,false,,,,318989.3000000119,318989.1999999881,,318989,,319004.416,8,400,,,
sequence,flow.Sequence,4_22,2023-10-31T21:13:06.144Z,,0,,,4584.599999988102,completion,,,,,false,,,,318989.39999997616,318989.1999999881,314387.934,314392,314404.6,319004.416,8,400,,,
trial,html.Screen,4_23_0,2023-10-31T21:13:11.174Z,,0,1,,5013.7839999880525,response,ISIC_0010081.JPG,7,ISIC_0059892.JPG,ISIC_0010081.JPG,false,1,keypress(m),500,324018.6999999881,324018.1999999881,318987.75,318989.5,319004.416,324020.882,8,400,24,,ISIC_0059892.JPG
break,html.Screen,4_23_1,2023-10-31T21:13:11.175Z,,0,,,NaN,,,,,,false,,,,324019.8000000119,324019.60000002384,,324019,,324020.882,8,400,,,
break_continue,html.Screen,4_23_2,2023-10-31T21:13:11.175Z,,0,,,NaN,,,,,,false,,,,324020.1999999881,324020,,324019.89999997616,,324020.882,8,400,,,
sequence,flow.Sequence,4_23,2023-10-31T21:13:11.175Z,,0,,,5015.5839999999735,completion,,,,,false,,,,324020.3000000119,324020,318987.75,318989.5,319004.416,324020.882,8,400,,,
trial,html.Screen,4_24_0,2023-10-31T21:13:15.724Z,,0,1,,4547.918000011938,response,ISIC_0073173.JPG,6,ISIC_3963183.JPG,ISIC_0073173.JPG,false,1,keypress(m),500,328569.3000000119,328568.8000000119,324004.216,324020.39999997616,324020.882,328571.062,8,400,25,,ISIC_3963183.JPG
break,html.Screen,4_24_1,2023-10-31T21:13:15.725Z,,0,,,NaN,,,,,,false,,,,328570.39999997616,328570.1999999881,,328569.60000002384,,328571.062,8,400,,,
break_continue,html.Screen,4_24_2,2023-10-31T21:13:15.726Z,,0,,,NaN,,,,,,false,,,,328570.8000000119,328570.6999999881,,328570.5,,328571.062,8,400,,,
sequence,flow.Sequence,4_24,2023-10-31T21:13:15.726Z,,0,,,4549.817999988096,completion,,,,,false,,,,328570.89999997616,328570.6999999881,324004.216,324020.39999997616,324020.882,328571.062,8,400,,,
trial,html.Screen,4_25_0,2023-10-31T21:13:18.754Z,,0,1,,3027.9380000000237,response,ISIC_7104307.JPG,8,ISIC_2333274.JPG,ISIC_7104307.JPG,false,1,keypress(m),500,331599.39999997616,331599,328554.396,328571,328571.062,331604.274,8,400,26,,ISIC_2333274.JPG
break,html.Screen,4_25_1,2023-10-31T21:13:18.755Z,,0,,,NaN,,,,,,false,,,,331600.5,331600.3000000119,,331599.6999999881,,331604.274,8,400,,,
break_continue,html.Screen,4_25_2,2023-10-31T21:13:18.756Z,,0,,,NaN,,,,,,false,,,,331600.6999999881,331600.6999999881,,331600.5,,331604.274,8,400,,,
sequence,flow.Sequence,4_25,2023-10-31T21:13:18.756Z,,0,,,3029.637999988103,completion,,,,,false,,,,331600.89999997616,331600.6999999881,328554.396,328571,328571.062,331604.274,8,400,,,
trial,html.Screen,4_26_0,2023-10-31T21:13:22.409Z,,0,1,,3649.4259999881033,response,ISIC_1327515.JPG,8,ISIC_0009666.JPG,ISIC_1327515.JPG,false,1,keypress(m),500,335254.10000002384,335253.6999999881,331587.608,331601,331604.274,335271.188,8,400,27,,ISIC_0009666.JPG
break,html.Screen,4_26_1,2023-10-31T21:13:22.410Z,,0,,,NaN,,,,,,false,,,,335255.3000000119,335255.10000002384,,335254.39999997616,,335271.188,8,400,,,
break_continue,html.Screen,4_26_2,2023-10-31T21:13:22.411Z,,0,,,NaN,,,,,,false,,,,335255.6999999881,335255.5,,335255.39999997616,,335271.188,8,400,,,
sequence,flow.Sequence,4_26,2023-10-31T21:13:22.411Z,,0,,,3651.226000000024,completion,,,,,false,,,,335255.89999997616,335255.5,331587.608,331601,331604.274,335271.188,8,400,,,
trial,html.Screen,4_27_0,2023-10-31T21:13:25.551Z,,0,1,,3124.912000023818,response,ISIC_6148533.JPG,8,ISIC_0029405.JPG,ISIC_0029405.JPG,false,0,keypress(z),500,338396.39999997616,338396.10000002384,335254.522,335255.89999997616,335271.188,338404.396,8,400,28,,ISIC_6148533.JPG
break,html.Screen,4_27_1,2023-10-31T21:13:25.553Z,,0,,,NaN,,,,,,false,,,,338397.60000002384,338397.39999997616,,338396.89999997616,,338404.396,8,400,,,
break_continue,html.Screen,4_27_2,2023-10-31T21:13:25.553Z,,0,,,NaN,,,,,,false,,,,338398,338397.8000000119,,338397.60000002384,,338404.396,8,400,,,
sequence,flow.Sequence,4_27,2023-10-31T21:13:25.553Z,,0,,,3126.612000011897,completion,,,,,false,,,,338398.10000002384,338397.8000000119,335254.522,335255.89999997616,335271.188,338404.396,8,400,,,
trial,html.Screen,4_28_0,2023-10-31T21:13:28.950Z,,0,1,,3389.803999988071,response,ISIC_0014695.JPG,8,ISIC_2638895.JPG,ISIC_0014695.JPG,false,1,keypress(m),500,341794.5,341794.1999999881,338387.73,338398.1999999881,338404.396,341804.26,8,400,29,,ISIC_2638895.JPG
break,html.Screen,4_28_1,2023-10-31T21:13:28.951Z,,0,,,NaN,,,,,,false,,,,341795.60000002384,341795.39999997616,,341794.8000000119,,341804.26,8,400,,,
break_continue,html.Screen,4_28_2,2023-10-31T21:13:28.951Z,,0,,,NaN,,,,,,false,,,,341795.89999997616,341795.8000000119,,341795.6999999881,,341804.26,8,400,,,
sequence,flow.Sequence,4_28,2023-10-31T21:13:28.951Z,,0,,,3391.404000011913,completion,,,,,false,,,,341796.10000002384,341795.8000000119,338387.73,338398.1999999881,338404.396,341804.26,8,400,,,
trial,html.Screen,4_29_0,2023-10-31T21:13:32.282Z,,0,1,,3322.139999976149,response,ISIC_2222879.JPG,8,ISIC_6208762.JPG,ISIC_6208762.JPG,false,0,keypress(z),500,345126.60000002384,345126.39999997616,341787.594,341796.3000000119,341804.26,345154.5,8,400,30,,ISIC_2222879.JPG
break,html.Screen,4_29_1,2023-10-31T21:13:32.283Z,,0,,,NaN,,,,,,false,,,,345127.6999999881,345127.5,,345127,,345154.5,8,400,,,
break_continue,html.Screen,4_29_2,2023-10-31T21:13:32.283Z,,0,,,NaN,,,,,,false,,,,345128.10000002384,345128,,345127.89999997616,,345154.5,8,400,,,
sequence,flow.Sequence,4_29,2023-10-31T21:13:32.283Z,,0,,,3323.7399999999907,completion,,,,,false,,,,345128.1999999881,345128,341787.594,341796.10000002384,341804.26,345154.5,8,400,,,
trial,html.Screen,4_30_0,2023-10-31T21:13:38.416Z,,0,1,,6106.399999976158,response,ISIC_0069398.JPG,8,ISIC_0063319.JPG,ISIC_0063319.JPG,false,0,keypress(z),500,351261.3000000119,351260.89999997616,345137.46,345128.3000000119,345154.5,351270.922,8,400,31,,ISIC_0069398.JPG
break,html.Screen,4_30_1,2023-10-31T21:13:38.418Z,,0,,,NaN,,,,,,false,,,,351262.5,351262.3000000119,,351261.6999999881,,351270.922,8,400,,,
break_continue,html.Screen,4_30_2,2023-10-31T21:13:38.418Z,,0,,,NaN,,,,,,false,,,,351262.89999997616,351262.6999999881,,351262.60000002384,,351270.922,8,400,,,
sequence,flow.Sequence,4_30,2023-10-31T21:13:38.418Z,,0,,,6108.199999988079,completion,,,,,false,,,,351263,351262.6999999881,345137.46,345128.3000000119,345154.5,351270.922,8,400,,,
trial,html.Screen,4_31_0,2023-10-31T21:13:42.331Z,,0,1,,3904.3780000119004,response,ISIC_2355374.JPG,8,ISIC_0011031.JPG,ISIC_0011031.JPG,false,0,keypress(z),500,355175.60000002384,355175.3000000119,351254.256,351263.10000002384,351270.922,355204.448,8,400,32,,ISIC_2355374.JPG
break,html.Screen,4_31_1,2023-10-31T21:13:42.332Z,,0,,,NaN,,,,,,false,,,,355176.8000000119,355176.60000002384,,355176,,355204.448,8,400,,,
break_continue,html.Screen,4_31_2,2023-10-31T21:13:42.332Z,,0,,,NaN,,,,,,false,,,,355177.10000002384,355176.89999997616,,355176.8000000119,,355204.448,8,400,,,
sequence,flow.Sequence,4_31,2023-10-31T21:13:42.332Z,,0,,,3905.9779999761377,completion,,,,,false,,,,355177.1999999881,355176.89999997616,351254.256,351263.10000002384,351270.922,355204.448,8,400,,,
trial,html.Screen,4_32_0,2023-10-31T21:13:46.097Z,,0,1,,3736.9519999761833,response,ISIC_9050608.JPG,7,ISIC_1831600.JPG,ISIC_1831600.JPG,false,0,keypress(z),500,358942,358941.39999997616,355187.782,355177.39999997616,355204.448,358954.298,8,400,33,,ISIC_9050608.JPG
break,html.Screen,4_32_1,2023-10-31T21:13:46.098Z,,0,,,NaN,,,,,,false,,,,358943,358942.8000000119,,358942.1999999881,,358954.298,8,400,,,
break_continue,html.Screen,4_32_2,2023-10-31T21:13:46.098Z,,0,,,NaN,,,,,,false,,,,358943.3000000119,358943.3000000119,,358943.10000002384,,358954.298,8,400,,,
sequence,flow.Sequence,4_32,2023-10-31T21:13:46.099Z,,0,,,3738.852000011946,completion,,,,,false,,,,358943.5,358943.3000000119,355187.782,355177.3000000119,355204.448,358954.298,8,400,,,
trial,html.Screen,4_33_0,2023-10-31T21:13:51.478Z,,0,1,,5368.101999976148,response,ISIC_2331656.JPG,8,ISIC_0069970.JPG,ISIC_2331656.JPG,false,1,keypress(m),500,364322.8000000119,364322.39999997616,358937.632,358943.60000002384,358954.298,364337.416,8,400,34,,ISIC_0069970.JPG
break,html.Screen,4_33_1,2023-10-31T21:13:51.479Z,,0,,,NaN,,,,,,false,,,,364324.10000002384,364323.8000000119,,364323.1999999881,,364337.416,8,400,,,
break_continue,html.Screen,4_33_2,2023-10-31T21:13:51.480Z,,0,,,NaN,,,,,,false,,,,364324.60000002384,364324.39999997616,,364324.3000000119,,364337.416,8,400,,,
sequence,flow.Sequence,4_33,2023-10-31T21:13:51.480Z,,0,,,5370.101999976148,completion,,,,,false,,,,364324.8000000119,364324.39999997616,358937.632,358943.60000002384,358954.298,364337.416,8,400,,,
trial,html.Screen,4_34_0,2023-10-31T21:13:54.828Z,,0,1,,3335.5839999999735,response,ISIC_2337786.JPG,9,ISIC_2268341.JPG,ISIC_2268341.JPG,false,0,keypress(z),500,367673.39999997616,367673,364320.75,364324.8000000119,364337.416,367687.666,8,400,35,,ISIC_2337786.JPG
break,html.Screen,4_34_1,2023-10-31T21:13:54.830Z,,0,,,NaN,,,,,,false,,,,367674.5,367674.1999999881,,367673.6999999881,,367687.666,8,400,,,
break_continue,html.Screen,4_34_2,2023-10-31T21:13:54.830Z,,0,,,NaN,,,,,,false,,,,367674.8000000119,367674.8000000119,,367674.6999999881,,367687.666,8,400,,,
sequence,flow.Sequence,4_34,2023-10-31T21:13:54.830Z,,0,,,3337.3840000118944,completion,,,,,false,,,,367675,367674.8000000119,364320.75,364324.8000000119,364337.416,367687.666,8,400,,,
trial,html.Screen,4_35_0,2023-10-31T21:13:59.364Z,,0,1,,4520.733999976132,response,ISIC_6668197.JPG,8,ISIC_5964676.JPG,ISIC_6668197.JPG,false,1,keypress(m),500,372208.8000000119,372208.39999997616,367671,367675.10000002384,367687.666,372220.818,8,400,36,,ISIC_5964676.JPG
break,html.Screen,4_35_1,2023-10-31T21:13:59.365Z,,0,,,NaN,,,,,,false,,,,372209.89999997616,372209.6999999881,,372209,,372220.818,8,400,,,
break_continue,html.Screen,4_35_2,2023-10-31T21:13:59.365Z,,0,,,NaN,,,,,,false,,,,372210.3000000119,372210.1999999881,,372210.10000002384,,372220.818,8,400,,,
sequence,flow.Sequence,4_35,2023-10-31T21:13:59.366Z,,0,,,4522.5339999880525,completion,,,,,false,,,,372210.39999997616,372210.1999999881,367671,367675.10000002384,367687.666,372220.818,8,400,,,
trial,html.Screen,4_36_0,2023-10-31T21:14:03.851Z,,0,1,,4474.381999988051,response,ISIC_5822017.JPG,7,ISIC_9155855.JPG,ISIC_9155855.JPG,false,0,keypress(z),500,376695.60000002384,376695.1999999881,372204.152,372210.5,372220.818,376704.372,8,400,37,,ISIC_5822017.JPG
break,html.Screen,4_36_1,2023-10-31T21:14:03.852Z,,0,,,NaN,,,,,,false,,,,376696.6999999881,376696.5,,376695.89999997616,,376704.372,8,400,,,
break_continue,html.Screen,4_36_2,2023-10-31T21:14:03.852Z,,0,,,NaN,,,,,,false,,,,376697,376696.89999997616,,376696.8000000119,,376704.372,8,400,,,
sequence,flow.Sequence,4_36,2023-10-31T21:14:03.852Z,,0,,,4476.08199997613,completion,,,,,false,,,,376697.1999999881,376696.89999997616,372204.152,372210.5,372220.818,376704.372,8,400,,,
trial,html.Screen,4_37_0,2023-10-31T21:14:08.162Z,,0,1,,4301.827999988105,response,ISIC_0067549.JPG,7,ISIC_1793821.JPG,ISIC_1793821.JPG,false,0,keypress(z),500,381006.60000002384,381006.1999999881,376687.706,376697.3000000119,376704.372,381020.866,8,400,38,,ISIC_0067549.JPG
break,html.Screen,4_37_1,2023-10-31T21:14:08.163Z,,0,,,NaN,,,,,,false,,,,381007.6999999881,381007.5,,381006.89999997616,,381020.866,8,400,,,
break_continue,html.Screen,4_37_2,2023-10-31T21:14:08.163Z,,0,,,NaN,,,,,,false,,,,381008.10000002384,381008,,381007.89999997616,,381020.866,8,400,,,
sequence,flow.Sequence,4_37,2023-10-31T21:14:08.163Z,,0,,,4303.628000000026,completion,,,,,false,,,,381008.3000000119,381008,376687.706,376697.3000000119,376704.372,381020.866,8,400,,,
trial,html.Screen,4_38_0,2023-10-31T21:14:12.664Z,,0,1,,4487.033999976178,response,ISIC_4680417.JPG,8,ISIC_7167811.JPG,ISIC_7167811.JPG,false,0,keypress(z),500,385508.39999997616,385507.89999997616,381004.2,381008.39999997616,381020.866,385520.686,8,400,39,,ISIC_4680417.JPG
break,html.Screen,4_38_1,2023-10-31T21:14:12.665Z,,0,,,NaN,,,,,,false,,,,385509.5,385509.1999999881,,385508.6999999881,,385520.686,8,400,,,
break_continue,html.Screen,4_38_2,2023-10-31T21:14:12.665Z,,0,,,NaN,,,,,,false,,,,385509.89999997616,385509.8000000119,,385509.6999999881,,385520.686,8,400,,,
sequence,flow.Sequence,4_38,2023-10-31T21:14:12.665Z,,0,,,4488.934000011941,completion,,,,,false,,,,385510.10000002384,385509.8000000119,381004.2,381008.3000000119,381020.866,385520.686,8,400,,,
trial,html.Screen,4_39_0,2023-10-31T21:14:16.043Z,,0,1,,3367.114000011934,response,ISIC_6118204.JPG,8,ISIC_9509757.JPG,ISIC_9509757.JPG,false,0,keypress(z),500,388888.10000002384,388887.8000000119,385504.02,385510.1999999881,385520.686,388904.259,8,400,40,,ISIC_6118204.JPG
break,html.Screen,4_39_1,2023-10-31T21:14:16.044Z,,0,,,NaN,,,,,,false,,,,388889.1999999881,388889.10000002384,,388888.39999997616,,388904.259,8,400,,,
break_continue,html.Screen,4_39_2,2023-10-31T21:14:16.045Z,,0,,,NaN,,,,,,false,,,,388889.60000002384,388889.39999997616,,388889.3000000119,,388904.259,8,400,,,
sequence,flow.Sequence,4_39,2023-10-31T21:14:16.045Z,,0,,,3368.713999976171,completion,,,,,false,,,,388889.6999999881,388889.39999997616,385504.02,385510.10000002384,385520.686,388904.259,8,400,,,
trial,html.Screen,4_40_0,2023-10-31T21:14:19.654Z,,0,1,,3594.140999976138,response,ISIC_0015455.JPG,5,ISIC_7947847.JPG,ISIC_0015455.JPG,false,1,keypress(m),500,392498.8000000119,392498.39999997616,388887.593,388889.8000000119,388904.259,392504.115,8,400,41,,ISIC_7947847.JPG
break,html.Screen,4_40_1,2023-10-31T21:14:19.655Z,,0,,,NaN,,,,,,false,,,,392499.89999997616,392499.6999999881,,392499.10000002384,,392504.115,8,400,,,
break_continue,html.Screen,4_40_2,2023-10-31T21:14:19.656Z,,0,,,NaN,,,,,,false,,,,392500.3000000119,392500.1999999881,,392500,,392504.115,8,400,,,
sequence,flow.Sequence,4_40,2023-10-31T21:14:19.656Z,,0,,,3595.940999988059,completion,,,,,false,,,,392500.39999997616,392500.1999999881,388887.593,388889.8000000119,388904.259,392504.115,8,400,,,
trial,html.Screen,4_41_0,2023-10-31T21:14:30.894Z,,0,1,,11233.88500000001,response,ISIC_5108076.JPG,5,ISIC_2294790.JPG,ISIC_2294790.JPG,false,0,keypress(z),500,403738.39999997616,403738,392487.449,392500.5,392504.115,403753.987,8,400,42,,ISIC_5108076.JPG
break,html.Screen,4_41_1,2023-10-31T21:14:30.895Z,,0,,,NaN,,,,,,false,,,,403739.5,403739.3000000119,,403738.6999999881,,403753.987,8,400,,,
break_continue,html.Screen,4_41_2,2023-10-31T21:14:30.895Z,,0,,,NaN,,,,,,false,,,,403739.89999997616,403739.8000000119,,403739.60000002384,,403753.987,8,400,,,
sequence,flow.Sequence,4_41,2023-10-31T21:14:30.895Z,,0,,,11235.68500001193,completion,,,,,false,,,,403740,403739.8000000119,392487.449,392500.5,392504.115,403753.987,8,400,,,
trial,html.Screen,4_42_0,2023-10-31T21:14:37.300Z,,0,1,,6390.412999976135,response,ISIC_0069558.JPG,9,ISIC_8401332.JPG,ISIC_0069558.JPG,false,1,keypress(m),500,410144.8000000119,410144.39999997616,403737.321,403740.1999999881,403753.987,410154.241,8,400,43,,ISIC_8401332.JPG
break,html.Screen,4_42_1,2023-10-31T21:14:37.301Z,,0,,,NaN,,,,,,false,,,,410146.10000002384,410145.8000000119,,410145.10000002384,,410154.241,8,400,,,
break_continue,html.Screen,4_42_2,2023-10-31T21:14:37.302Z,,0,,,NaN,,,,,,false,,,,410146.5,410146.5,,410146.1999999881,,410154.241,8,400,,,
sequence,flow.Sequence,4_42,2023-10-31T21:14:37.302Z,,0,,,6392.512999999977,completion,,,,,false,,,,410146.6999999881,410146.5,403737.321,403740.10000002384,403753.987,410154.241,8,400,,,
trial,html.Screen,4_43_0,2023-10-31T21:14:40.858Z,,0,1,,3548.059000011941,response,ISIC_7594601.JPG,8,ISIC_0024214.JPG,ISIC_0024214.JPG,false,0,keypress(z),500,413702.8000000119,413702.3000000119,410137.575,410146.89999997616,410154.241,413720.765,8,400,44,,ISIC_7594601.JPG
break,html.Screen,4_43_1,2023-10-31T21:14:40.859Z,,0,,,NaN,,,,,,false,,,,413703.89999997616,413703.6999999881,,413703,,413720.765,8,400,,,
break_continue,html.Screen,4_43_2,2023-10-31T21:14:40.860Z,,0,,,NaN,,,,,,false,,,,413704.1999999881,413704.10000002384,,413703.89999997616,,413720.765,8,400,,,
sequence,flow.Sequence,4_43,2023-10-31T21:14:40.860Z,,0,,,3549.859000023862,completion,,,,,false,,,,413704.60000002384,413704.10000002384,410137.575,410146.8000000119,410154.241,413720.765,8,400,,,
trial,html.Screen,4_44_0,2023-10-31T21:14:45.393Z,,0,1,,4516.835000023828,response,ISIC_4325452.JPG,8,ISIC_0060832.JPG,ISIC_0060832.JPG,false,0,keypress(z),500,418238.10000002384,418237.60000002384,413704.099,413704.89999997616,413720.765,418253.917,8,400,45,,ISIC_4325452.JPG
break,html.Screen,4_44_1,2023-10-31T21:14:45.395Z,,0,,,NaN,,,,,,false,,,,418239.1999999881,418239,,418238.39999997616,,418253.917,8,400,,,
break_continue,html.Screen,4_44_2,2023-10-31T21:14:45.395Z,,0,,,NaN,,,,,,false,,,,418239.60000002384,418239.39999997616,,418239.3000000119,,418253.917,8,400,,,
sequence,flow.Sequence,4_44,2023-10-31T21:14:45.395Z,,0,,,4518.634999976144,completion,,,,,false,,,,418239.6999999881,418239.39999997616,413704.099,413704.6999999881,413720.765,418253.917,8,400,,,
trial,html.Screen,4_45_0,2023-10-31T21:14:50.156Z,,0,1,,4746.183000023826,response,ISIC_4648593.JPG,8,ISIC_0011956.JPG,ISIC_0011956.JPG,false,0,keypress(z),500,423000.5,423000.10000002384,418237.251,418239.8000000119,418253.917,423004.085,8,400,46,,ISIC_4648593.JPG
break,html.Screen,4_45_1,2023-10-31T21:14:50.157Z,,0,,,NaN,,,,,,false,,,,423001.6999999881,423001.5,,423000.89999997616,,423004.085,8,400,,,
break_continue,html.Screen,4_45_2,2023-10-31T21:14:50.157Z,,0,,,NaN,,,,,,false,,,,423002,423001.89999997616,,423001.8000000119,,423004.085,8,400,,,
sequence,flow.Sequence,4_45,2023-10-31T21:14:50.158Z,,0,,,4747.982999976142,completion,,,,,false,,,,423002.1999999881,423001.89999997616,418237.251,418239.6999999881,418253.917,423004.085,8,400,,,
trial,html.Screen,4_46_0,2023-10-31T21:14:53.858Z,,0,1,,3698.114999988058,response,ISIC_4534608.JPG,8,ISIC_1476361.JPG,ISIC_4534608.JPG,false,1,keypress(m),500,426702.6999999881,426702.1999999881,422987.419,423002.3000000119,423004.085,426703.937,8,400,47,,ISIC_1476361.JPG
break,html.Screen,4_46_1,2023-10-31T21:14:53.859Z,,0,,,NaN,,,,,,false,,,,426703.39999997616,426703.1999999881,,426702.8000000119,,426703.937,8,400,,,
break_continue,html.Screen,4_46_2,2023-10-31T21:14:53.859Z,,0,,,NaN,,,,,,false,,,,426703.60000002384,426703.5,,426703.5,,426703.937,8,400,,,
sequence,flow.Sequence,4_46,2023-10-31T21:14:53.859Z,,0,,,3699.414999999979,completion,,,,,false,,,,426703.6999999881,426703.5,422987.419,423002.3000000119,423004.085,426703.937,8,400,,,
trial,html.Screen,4_47_0,2023-10-31T21:14:57.143Z,,0,1,,3283.5630000000237,response,ISIC_9015182.JPG,5,ISIC_0008447.JPG,ISIC_9015182.JPG,false,1,keypress(m),500,429987.89999997616,429987.5,426687.271,426703.6999999881,426703.937,430003.805,8,400,48,,ISIC_0008447.JPG
break,html.Screen,4_47_1,2023-10-31T21:14:57.144Z,,0,,,NaN,,,,,,false,,,,429989.10000002384,429988.8000000119,,429988.1999999881,,430003.805,8,400,,,
break_continue,html.Screen,4_47_2,2023-10-31T21:14:57.145Z,,0,,,NaN,,,,,,false,,,,429989.39999997616,429989.3000000119,,429989.1999999881,,430003.805,8,400,,,
sequence,flow.Sequence,4_47,2023-10-31T21:14:57.145Z,,0,,,3285.3630000119447,completion,,,,,false,,,,429989.60000002384,429989.3000000119,426687.271,426703.6999999881,426703.937,430003.805,8,400,,,
trial,html.Screen,4_48_0,2023-10-31T21:15:00.850Z,,0,1,,3690.195000000007,response,ISIC_5204408.JPG,6,ISIC_8152423.JPG,ISIC_5204408.JPG,false,1,keypress(m),500,433694.39999997616,433694,429987.139,429989.6999999881,430003.805,433704.047,8,400,49,,ISIC_8152423.JPG
break,html.Screen,4_48_1,2023-10-31T21:15:00.851Z,,0,,,NaN,,,,,,false,,,,433695.60000002384,433695.39999997616,,433694.6999999881,,433704.047,8,400,,,
break_continue,html.Screen,4_48_2,2023-10-31T21:15:00.851Z,,0,,,NaN,,,,,,false,,,,433695.89999997616,433695.89999997616,,433695.8000000119,,433704.047,8,400,,,
sequence,flow.Sequence,4_48,2023-10-31T21:15:00.852Z,,0,,,3692.094999976165,completion,,,,,false,,,,433696.1999999881,433695.89999997616,429987.139,429989.60000002384,430003.805,433704.047,8,400,,,
trial,html.Screen,4_49_0,2023-10-31T21:15:04.776Z,,0,1,,3916.0530000238214,response,ISIC_3447331.JPG,8,ISIC_3444719.JPG,ISIC_3444719.JPG,false,0,keypress(z),500,437620.5,437620.10000002384,433687.381,433696.3000000119,433704.047,437637.223,8,400,50,,ISIC_3447331.JPG
break,html.Screen,4_49_1,2023-10-31T21:15:14.854Z,,0,,,20199.966000000015,timeout,,,,,false,,,,447698.6999999881,447698.3000000119,437620.557,437620.8000000119,437637.223,457837.189,8,400,,,
break_continue,html.Screen,4_49_2,2023-10-31T21:15:26.021Z,,0,,,1018.810999999987,response,,,,,false,continue,keypress(Space),,458865,458856,447698.3000000119,447698.89999997616,457837.189,458870.481,8,400,,,
sequence,flow.Sequence,4_49,2023-10-31T21:15:26.021Z,,0,,,25151.95299999998,completion,,,,,false,,,,458865.1999999881,458856,433687.381,433696.1999999881,433704.047,458870.481,8,400,,,
trial,html.Screen,4_50_0,2023-10-31T21:15:34.348Z,,0,2,,8321.71899998805,response,ISIC_4322723.JPG,9,ISIC_7109582.JPG,ISIC_4322723.JPG,false,1,keypress(m),500,467192.8000000119,467192.1999999881,458853.815,458865.3000000119,458870.481,467204.04,8,400,1,,ISIC_7109582.JPG
break,html.Screen,4_50_1,2023-10-31T21:15:34.350Z,,0,,,NaN,,,,,,false,,,,467193.89999997616,467193.8000000119,,467193.1999999881,,467204.04,8,400,,,
break_continue,html.Screen,4_50_2,2023-10-31T21:15:34.350Z,,0,,,NaN,,,,,,false,,,,467194.3000000119,467194.1999999881,,467194.10000002384,,467204.04,8,400,,,
sequence,flow.Sequence,4_50,2023-10-31T21:15:34.350Z,,0,,,8323.71899998805,completion,,,,,false,,,,467194.60000002384,467194.1999999881,458853.815,458865.3000000119,458870.481,467204.04,8,400,,,
trial,html.Screen,4_51_0,2023-10-31T21:15:45.846Z,,0,2,,11516.578000000038,timeout,ISIC_6678508.JPG,8,ISIC_3513288.JPG,,false,,,500,478690.1999999881,478689.6999999881,467187.374,467194.6999999881,467204.04,478720.618,8,400,2,,
break,html.Screen,4_51_1,2023-10-31T21:15:45.847Z,,0,,,NaN,,,,,,false,,,,478691.3000000119,478691,,478690.5,,478720.618,8,400,,,
break_continue,html.Screen,4_51_2,2023-10-31T21:15:45.847Z,,0,,,NaN,,,,,,false,,,,478691.60000002384,478691.5,,478691.39999997616,,478720.618,8,400,,,
sequence,flow.Sequence,4_51,2023-10-31T21:15:45.847Z,,0,,,11487.460000000021,completion,,,,,false,,,,478691.8000000119,478691.5,467187.374,467194.60000002384,467204.04,478720.618,8,400,,,
trial,html.Screen,4_52_0,2023-10-31T21:15:52.925Z,,0,2,,7048.182000011904,response,ISIC_2445475.JPG,9,ISIC_0010618.JPG,ISIC_0010618.JPG,false,0,keypress(z),500,485769.1999999881,485768.8000000119,478703.952,478691.89999997616,478720.618,485770.336,8,400,3,,ISIC_2445475.JPG
break,html.Screen,4_52_1,2023-10-31T21:15:52.926Z,,0,,,NaN,,,,,,false,,,,485770.39999997616,485770.1999999881,,485769.5,,485770.336,8,400,,,
break_continue,html.Screen,4_52_2,2023-10-31T21:15:52.926Z,,0,,,NaN,,,,,,false,,,,485770.6999999881,485770.60000002384,,485770.5,,485770.336,8,400,,,
sequence,flow.Sequence,4_52,2023-10-31T21:15:52.927Z,,0,,,7049.982000023825,completion,,,,,false,,,,485770.8000000119,485770.60000002384,478703.952,478691.89999997616,478720.618,485770.336,8,400,,,
trial,html.Screen,4_53_0,2023-10-31T21:16:04.412Z,,0,2,,11516.572999999975,timeout,ISIC_0010734.JPG,9,ISIC_0463755.JPG,,false,,,500,497256.6999999881,497256.1999999881,485753.67,485771,485770.336,497286.909,8,400,4,,
break,html.Screen,4_53_1,2023-10-31T21:16:04.413Z,,0,,,NaN,,,,,,false,,,,497257.6999999881,497257.5,,497256.89999997616,,497286.909,8,400,,,
break_continue,html.Screen,4_53_2,2023-10-31T21:16:04.414Z,,0,,,NaN,,,,,,false,,,,497258.10000002384,497258,,497257.8000000119,,497286.909,8,400,,,
sequence,flow.Sequence,4_53,2023-10-31T21:16:04.414Z,,0,,,11487.66399999999,completion,,,,,false,,,,497258.1999999881,497258,485753.67,485770.89999997616,485770.336,497286.909,8,400,,,
trial,html.Screen,4_54_0,2023-10-31T21:16:09.570Z,,0,2,,5126.891000011936,response,ISIC_7582818.JPG,9,ISIC_0011778.JPG,ISIC_7582818.JPG,false,1,keypress(m),500,502413.89999997616,502413.8000000119,497270.243,497258.39999997616,497286.909,502420.41,8,400,5,,ISIC_0011778.JPG
break,html.Screen,4_54_1,2023-10-31T21:16:09.570Z,,0,,,NaN,,,,,,false,,,,502414.5,502414.3000000119,,502414,,502420.41,8,400,,,
break_continue,html.Screen,4_54_2,2023-10-31T21:16:09.570Z,,0,,,NaN,,,,,,false,,,,502414.60000002384,502414.60000002384,,502414.60000002384,,502420.41,8,400,,,
sequence,flow.Sequence,4_54,2023-10-31T21:16:09.571Z,,0,,,5127.691000023857,completion,,,,,false,,,,502415,502414.60000002384,497270.243,497258.39999997616,497286.909,502420.41,8,400,,,
trial,html.Screen,4_55_0,2023-10-31T21:16:14.359Z,,0,2,,4782.090000000026,response,ISIC_0059353.JPG,5,ISIC_8883212.JPG,ISIC_0059353.JPG,false,1,keypress(m),500,507202.89999997616,507202.5,502403.744,502415.10000002384,502420.41,507220.218,8,400,6,,ISIC_8883212.JPG
break,html.Screen,4_55_1,2023-10-31T21:16:14.360Z,,0,,,NaN,,,,,,false,,,,507203.89999997616,507203.6999999881,,507203.10000002384,,507220.218,8,400,,,
break_continue,html.Screen,4_55_2,2023-10-31T21:16:14.360Z,,0,,,NaN,,,,,,false,,,,507204.1999999881,507204.10000002384,,507204,,507220.218,8,400,,,
sequence,flow.Sequence,4_55,2023-10-31T21:16:14.360Z,,0,,,4783.6900000238675,completion,,,,,false,,,,507204.39999997616,507204.10000002384,502403.744,502415.10000002384,502420.41,507220.218,8,400,,,
trial,html.Screen,4_56_0,2023-10-31T21:16:21.119Z,,0,2,,6742.181999976165,response,ISIC_0887530.JPG,6,ISIC_0668772.JPG,ISIC_0887530.JPG,false,1,keypress(m),500,513962.8000000119,513962.39999997616,507203.552,507204.5,507220.218,513970.308,8,400,7,,ISIC_0668772.JPG
break,html.Screen,4_56_1,2023-10-31T21:16:21.120Z,,0,,,NaN,,,,,,false,,,,513963.8000000119,513963.6999999881,,513963.10000002384,,513970.308,8,400,,,
break_continue,html.Screen,4_56_2,2023-10-31T21:16:21.120Z,,0,,,NaN,,,,,,false,,,,513964.1999999881,513964,,513964,,513970.308,8,400,,,
sequence,flow.Sequence,4_56,2023-10-31T21:16:21.120Z,,0,,,6743.7820000000065,completion,,,,,false,,,,513964.39999997616,513964,507203.552,507204.39999997616,507220.218,513970.308,8,400,,,
trial,html.Screen,4_57_0,2023-10-31T21:16:26.468Z,,0,2,,5341.691999999981,response,ISIC_0056740.JPG,8,ISIC_9509813.JPG,ISIC_0056740.JPG,false,1,keypress(m),500,519312.3000000119,519312,513953.642,513964.39999997616,513970.308,519320.512,8,400,8,,ISIC_9509813.JPG
break,html.Screen,4_57_1,2023-10-31T21:16:26.469Z,,0,,,NaN,,,,,,false,,,,519313.39999997616,519313.1999999881,,519312.6999999881,,519320.512,8,400,,,
break_continue,html.Screen,4_57_2,2023-10-31T21:16:26.470Z,,0,,,NaN,,,,,,false,,,,519313.6999999881,519313.60000002384,,519313.5,,519320.512,8,400,,,
sequence,flow.Sequence,4_57,2023-10-31T21:16:26.470Z,,0,,,5343.292000023823,completion,,,,,false,,,,519313.89999997616,519313.60000002384,513953.642,513964.39999997616,513970.308,519320.512,8,400,,,
trial,html.Screen,4_58_0,2023-10-31T21:16:32.878Z,,0,2,,6401.088000023854,response,ISIC_6570611.JPG,8,ISIC_6544382.JPG,ISIC_6570611.JPG,false,1,keypress(m),500,525722,525721.6000000238,519303.846,519314,519320.512,525736.922,8,400,9,,ISIC_6544382.JPG
break,html.Screen,4_58_1,2023-10-31T21:16:32.879Z,,0,,,NaN,,,,,,false,,,,525723,525722.8999999762,,525722.3999999762,,525736.922,8,400,,,
break_continue,html.Screen,4_58_2,2023-10-31T21:16:32.879Z,,0,,,NaN,,,,,,false,,,,525723.3999999762,525723.3000000119,,525723.1999999881,,525736.922,8,400,,,
sequence,flow.Sequence,4_58,2023-10-31T21:16:32.879Z,,0,,,6402.788000011933,completion,,,,,false,,,,525723.6000000238,525723.3000000119,519303.846,519313.89999997616,519320.512,525736.922,8,400,,,
trial,html.Screen,4_59_0,2023-10-31T21:16:39.751Z,,0,2,,6858.0779999999795,response,ISIC_0034287.JPG,9,ISIC_3837132.JPG,ISIC_3837132.JPG,false,0,keypress(z),500,532595.3000000119,532595,525720.256,525723.6999999881,525736.922,532603.65,8,400,10,,ISIC_0034287.JPG
break,html.Screen,4_59_1,2023-10-31T21:16:39.752Z,,0,,,NaN,,,,,,false,,,,532596.3999999762,532596.1999999881,,532595.6000000238,,532603.65,8,400,,,
break_continue,html.Screen,4_59_2,2023-10-31T21:16:39.753Z,,0,,,NaN,,,,,,false,,,,532596.8000000119,532596.6999999881,,532596.5,,532603.65,8,400,,,
sequence,flow.Sequence,4_59,2023-10-31T21:16:39.753Z,,0,,,6859.777999988059,completion,,,,,false,,,,532596.8999999762,532596.6999999881,525720.256,525723.6999999881,525736.922,532603.65,8,400,,,
trial,html.Screen,4_60_0,2023-10-31T21:16:44.238Z,,0,2,,4478.150000011898,response,ISIC_0010862.JPG,6,ISIC_0009991.JPG,ISIC_0009991.JPG,false,0,keypress(z),500,537082.1999999881,537081.8000000119,532586.984,532597.1000000238,532603.65,537086.804,8,400,11,,ISIC_0010862.JPG
break,html.Screen,4_60_1,2023-10-31T21:16:44.239Z,,0,,,NaN,,,,,,false,,,,537083.3000000119,537083.1000000238,,537082.5,,537086.804,8,400,,,
break_continue,html.Screen,4_60_2,2023-10-31T21:16:44.239Z,,0,,,NaN,,,,,,false,,,,537083.6000000238,537083.6000000238,,537083.3999999762,,537086.804,8,400,,,
sequence,flow.Sequence,4_60,2023-10-31T21:16:44.240Z,,0,,,4479.950000023819,completion,,,,,false,,,,537083.8000000119,537083.6000000238,532586.984,532597.1000000238,532603.65,537086.804,8,400,,,
trial,html.Screen,4_61_0,2023-10-31T21:16:47.539Z,,0,2,,3296.0959999761544,response,ISIC_0025428.JPG,8,ISIC_0011446.JPG,ISIC_0025428.JPG,false,1,keypress(m),500,540383.3000000119,540382.8999999762,537070.138,537083.8999999762,537086.804,540387.058,8,400,12,,ISIC_0011446.JPG
break,html.Screen,4_61_1,2023-10-31T21:16:47.540Z,,0,,,NaN,,,,,,false,,,,540384.3999999762,540384.1000000238,,540383.6000000238,,540387.058,8,400,,,
break_continue,html.Screen,4_61_2,2023-10-31T21:16:47.541Z,,0,,,NaN,,,,,,false,,,,540384.6999999881,540384.6000000238,,540384.5,,540387.058,8,400,,,
sequence,flow.Sequence,4_61,2023-10-31T21:16:47.541Z,,0,,,3297.796000023838,completion,,,,,false,,,,540384.8999999762,540384.6000000238,537070.138,537083.8000000119,537086.804,540387.058,8,400,,,
trial,html.Screen,4_62_0,2023-10-31T21:16:49.897Z,,0,2,,2353.3419999761973,response,ISIC_2345504.JPG,8,ISIC_1042960.JPG,ISIC_2345504.JPG,false,1,keypress(m),500,542740.8000000119,542740.3999999762,540370.392,540385,540387.058,542753.63,8,400,13,,ISIC_1042960.JPG
break,html.Screen,4_62_1,2023-10-31T21:16:49.898Z,,0,,,NaN,,,,,,false,,,,542741.8999999762,542741.6999999881,,542741.1000000238,,542753.63,8,400,,,
break_continue,html.Screen,4_62_2,2023-10-31T21:16:49.898Z,,0,,,NaN,,,,,,false,,,,542742.1999999881,542742.1000000238,,542742,,542753.63,8,400,,,
sequence,flow.Sequence,4_62,2023-10-31T21:16:49.898Z,,0,,,2355.042000023881,completion,,,,,false,,,,542742.3999999762,542742.1000000238,540370.392,540384.8999999762,540387.058,542753.63,8,400,,,
trial,html.Screen,4_63_0,2023-10-31T21:16:54.543Z,,0,2,,4633.2699999761535,response,ISIC_2856521.JPG,8,ISIC_5791954.JPG,ISIC_2856521.JPG,false,1,keypress(m),500,547387.3000000119,547386.8999999762,542736.964,542742.5,542753.63,547403.444,8,400,14,,ISIC_5791954.JPG
break,html.Screen,4_63_1,2023-10-31T21:16:54.544Z,,0,,,NaN,,,,,,false,,,,547388.5,547388.1999999881,,547387.6000000238,,547403.444,8,400,,,
break_continue,html.Screen,4_63_2,2023-10-31T21:16:54.545Z,,0,,,NaN,,,,,,false,,,,547388.8000000119,547388.6000000238,,547388.5,,547403.444,8,400,,,
sequence,flow.Sequence,4_63,2023-10-31T21:16:54.545Z,,0,,,4634.970000023837,completion,,,,,false,,,,547389,547388.6000000238,542736.964,542742.3999999762,542753.63,547403.444,8,400,,,
trial,html.Screen,4_64_0,2023-10-31T21:16:58.598Z,,0,2,,4038.5559999999823,response,ISIC_0046622.JPG,9,ISIC_1484659.JPG,ISIC_1484659.JPG,false,0,keypress(z),500,551442.3999999762,551442,547386.778,547389.1000000238,547403.444,551453.657,8,400,15,,ISIC_0046622.JPG
break,html.Screen,4_64_1,2023-10-31T21:16:58.599Z,,0,,,NaN,,,,,,false,,,,551443.5,551443.3000000119,,551442.6999999881,,551453.657,8,400,,,
break_continue,html.Screen,4_64_2,2023-10-31T21:16:58.600Z,,0,,,NaN,,,,,,false,,,,551443.8000000119,551443.8000000119,,551443.6999999881,,551453.657,8,400,,,
sequence,flow.Sequence,4_64,2023-10-31T21:16:58.600Z,,0,,,4040.3560000119032,completion,,,,,false,,,,551444,551443.8000000119,547386.778,547389,547403.444,551453.657,8,400,,,
trial,html.Screen,4_65_0,2023-10-31T21:17:02.626Z,,0,2,,4015.4430000238353,response,ISIC_7271745.JPG,8,ISIC_5238111.JPG,ISIC_5238111.JPG,false,0,keypress(z),500,555469.6000000238,555469.1000000238,551436.991,551444.1000000238,551453.657,555486.829,8,400,16,,ISIC_7271745.JPG
break,html.Screen,4_65_1,2023-10-31T21:17:02.627Z,,0,,,NaN,,,,,,false,,,,555470.6999999881,555470.5,,555469.8999999762,,555486.829,8,400,,,
break_continue,html.Screen,4_65_2,2023-10-31T21:17:02.627Z,,0,,,NaN,,,,,,false,,,,555471,555470.8999999762,,555470.8000000119,,555486.829,8,400,,,
sequence,flow.Sequence,4_65,2023-10-31T21:17:02.627Z,,0,,,4017.2429999761516,completion,,,,,false,,,,555471.1999999881,555470.8999999762,551436.991,551444.1000000238,551453.657,555486.829,8,400,,,
trial,html.Screen,4_66_0,2023-10-31T21:17:06.599Z,,0,2,,3955.870999988052,response,ISIC_0031104.JPG,7,ISIC_7533216.JPG,ISIC_7533216.JPG,false,0,keypress(z),500,559443.1999999881,559442.6999999881,555470.163,555471.3000000119,555486.829,559453.337,8,400,17,,ISIC_0031104.JPG
break,html.Screen,4_66_1,2023-10-31T21:17:06.600Z,,0,,,NaN,,,,,,false,,,,559444.3000000119,559444.1000000238,,559443.5,,559453.337,8,400,,,
break_continue,html.Screen,4_66_2,2023-10-31T21:17:06.601Z,,0,,,NaN,,,,,,false,,,,559444.6999999881,559444.5,,559444.3999999762,,559453.337,8,400,,,
sequence,flow.Sequence,4_66,2023-10-31T21:17:06.601Z,,0,,,3957.670999999973,completion,,,,,false,,,,559444.8000000119,559444.5,555470.163,555471.3000000119,555486.829,559453.337,8,400,,,
trial,html.Screen,4_67_0,2023-10-31T21:17:12.767Z,,0,2,,6157.5629999761,response,ISIC_5397483.JPG,5,ISIC_1497525.JPG,ISIC_5397483.JPG,false,1,keypress(m),500,565611.3000000119,565610.8999999762,559436.671,559444.8999999762,559453.337,565620.177,8,400,18,,ISIC_1497525.JPG
break,html.Screen,4_67_1,2023-10-31T21:17:12.769Z,,0,,,NaN,,,,,,false,,,,565612.5,565612.3000000119,,565611.5,,565620.177,8,400,,,
break_continue,html.Screen,4_67_2,2023-10-31T21:17:12.769Z,,0,,,NaN,,,,,,false,,,,565612.8999999762,565612.8000000119,,565612.6999999881,,565620.177,8,400,,,
sequence,flow.Sequence,4_67,2023-10-31T21:17:12.769Z,,0,,,6159.463000011863,completion,,,,,false,,,,565613.1000000238,565612.8000000119,559436.671,559444.8999999762,559453.337,565620.177,8,400,,,
trial,html.Screen,4_68_0,2023-10-31T21:17:15.832Z,,0,2,,3055.822999999975,response,ISIC_8837443.JPG,8,ISIC_8409262.JPG,ISIC_8409262.JPG,false,0,keypress(z),500,568676.5,568676,565603.511,565613.3000000119,565620.177,568686.721,8,400,19,,ISIC_8837443.JPG
break,html.Screen,4_68_1,2023-10-31T21:17:15.834Z,,0,,,NaN,,,,,,false,,,,568677.5,568677.3000000119,,568676.8000000119,,568686.721,8,400,,,
break_continue,html.Screen,4_68_2,2023-10-31T21:17:15.834Z,,0,,,NaN,,,,,,false,,,,568677.8999999762,568677.8000000119,,568677.6999999881,,568686.721,8,400,,,
sequence,flow.Sequence,4_68,2023-10-31T21:17:15.834Z,,0,,,3057.623000011896,completion,,,,,false,,,,568678,568677.8000000119,565603.511,565613.1999999881,565620.177,568686.721,8,400,,,
trial,html.Screen,4_69_0,2023-10-31T21:17:20.064Z,,0,2,,4220.4789999880595,response,ISIC_5309572.JPG,7,ISIC_0188432.JPG,ISIC_0188432.JPG,false,0,keypress(z),500,572907.6000000238,572907.1999999881,568670.055,568678.1000000238,568686.721,572920.318,8,400,20,,ISIC_5309572.JPG
break,html.Screen,4_69_1,2023-10-31T21:17:20.065Z,,0,,,NaN,,,,,,false,,,,572908.6999999881,572908.3999999762,,572907.8999999762,,572920.318,8,400,,,
break_continue,html.Screen,4_69_2,2023-10-31T21:17:20.065Z,,0,,,NaN,,,,,,false,,,,572909,572908.8999999762,,572908.8000000119,,572920.318,8,400,,,
sequence,flow.Sequence,4_69,2023-10-31T21:17:20.065Z,,0,,,4222.178999976139,completion,,,,,false,,,,572909.1000000238,572908.8999999762,568670.055,568678.1000000238,568686.721,572920.318,8,400,,,
trial,html.Screen,4_70_0,2023-10-31T21:17:23.924Z,,0,2,,3846.9820000119507,response,ISIC_6317162.JPG,7,ISIC_8613657.JPG,ISIC_8613657.JPG,false,0,keypress(z),500,576767.8000000119,576767.3000000119,572903.652,572909.1999999881,572920.318,576770.164,8,400,21,,ISIC_6317162.JPG
break,html.Screen,4_70_1,2023-10-31T21:17:23.925Z,,0,,,NaN,,,,,,false,,,,576768.8999999762,576768.6000000238,,576768,,576770.164,8,400,,,
break_continue,html.Screen,4_70_2,2023-10-31T21:17:23.925Z,,0,,,NaN,,,,,,false,,,,576769.1999999881,576769.1000000238,,576768.8999999762,,576770.164,8,400,,,
sequence,flow.Sequence,4_70,2023-10-31T21:17:23.925Z,,0,,,3848.7820000238717,completion,,,,,false,,,,576769.3999999762,576769.1000000238,572903.652,572909.1000000238,572920.318,576770.164,8,400,,,
trial,html.Screen,4_71_0,2023-10-31T21:17:27.902Z,,0,2,,3975.636000011931,response,ISIC_0046315.JPG,7,ISIC_9597731.JPG,ISIC_0046315.JPG,false,1,keypress(m),500,580746.1999999881,580745.8000000119,576753.498,576769.5,576770.164,580753.338,8,400,22,,ISIC_9597731.JPG
break,html.Screen,4_71_1,2023-10-31T21:17:27.903Z,,0,,,NaN,,,,,,false,,,,580747.3000000119,580747.1000000238,,580746.5,,580753.338,8,400,,,
break_continue,html.Screen,4_71_2,2023-10-31T21:17:27.904Z,,0,,,NaN,,,,,,false,,,,580747.6999999881,580747.5,,580747.5,,580753.338,8,400,,,
sequence,flow.Sequence,4_71,2023-10-31T21:17:27.904Z,,0,,,3977.3360000000102,completion,,,,,false,,,,580747.8000000119,580747.5,576753.498,576769.5,576770.164,580753.338,8,400,,,
trial,html.Screen,4_72_0,2023-10-31T21:17:31.238Z,,0,2,,3328.162000000011,response,ISIC_0000030.JPG,9,ISIC_2151727.JPG,ISIC_0000030.JPG,false,1,keypress(m),500,584081.6999999881,584081.5,580736.672,580748,580753.338,584086.897,8,400,23,,ISIC_2151727.JPG
break,html.Screen,4_72_1,2023-10-31T21:17:31.238Z,,0,,,NaN,,,,,,false,,,,584082.1999999881,584082.1999999881,,584081.8999999762,,584086.897,8,400,,,
break_continue,html.Screen,4_72_2,2023-10-31T21:17:31.239Z,,0,,,NaN,,,,,,false,,,,584082.3999999762,584082.3999999762,,584082.3000000119,,584086.897,8,400,,,
sequence,flow.Sequence,4_72,2023-10-31T21:17:31.239Z,,0,,,3329.0619999761693,completion,,,,,false,,,,584082.5,584082.3999999762,580736.672,580748,580753.338,584086.897,8,400,,,
trial,html.Screen,4_73_0,2023-10-31T21:17:35.165Z,,0,2,,3921.302999988082,response,ISIC_0059435.JPG,7,ISIC_0026500.JPG,ISIC_0026500.JPG,false,0,keypress(z),500,588008.6000000238,588008.1999999881,584070.231,584082.6000000238,584086.897,588020.073,8,400,24,,ISIC_0059435.JPG
break,html.Screen,4_73_1,2023-10-31T21:17:35.166Z,,0,,,NaN,,,,,,false,,,,588009.6999999881,588009.3999999762,,588008.8999999762,,588020.073,8,400,,,
break_continue,html.Screen,4_73_2,2023-10-31T21:17:35.166Z,,0,,,NaN,,,,,,false,,,,588010,588009.8999999762,,588009.6999999881,,588020.073,8,400,,,
sequence,flow.Sequence,4_73,2023-10-31T21:17:35.166Z,,0,,,3923.002999976161,completion,,,,,false,,,,588010.1999999881,588009.8999999762,584070.231,584082.6000000238,584086.897,588020.073,8,400,,,
trial,html.Screen,4_74_0,2023-10-31T21:17:38.435Z,,0,2,,3258.8269999761833,response,ISIC_0067808.JPG,8,ISIC_1838888.JPG,ISIC_0067808.JPG,false,1,keypress(m),500,591279.3000000119,591278.8999999762,588003.407,588010.3000000119,588020.073,591286.609,8,400,25,,ISIC_1838888.JPG
break,html.Screen,4_74_1,2023-10-31T21:17:38.436Z,,0,,,NaN,,,,,,false,,,,591280,591279.8000000119,,591279.5,,591286.609,8,400,,,
break_continue,html.Screen,4_74_2,2023-10-31T21:17:38.436Z,,0,,,NaN,,,,,,false,,,,591280.1999999881,591280.1999999881,,591280,,591286.609,8,400,,,
sequence,flow.Sequence,4_74,2023-10-31T21:17:38.436Z,,0,,,3260.126999988104,completion,,,,,false,,,,591280.3000000119,591280.1999999881,588003.407,588010.1999999881,588020.073,591286.609,8,400,,,
trial,html.Screen,4_75_0,2023-10-31T21:17:42.649Z,,0,2,,4205.890999999945,response,ISIC_0059707.JPG,7,ISIC_0011077.JPG,ISIC_0011077.JPG,false,0,keypress(z),500,595492.8999999762,595492.5,591269.943,591280.3999999762,591286.609,595503.49,8,400,26,,ISIC_0059707.JPG
break,html.Screen,4_75_1,2023-10-31T21:17:42.650Z,,0,,,NaN,,,,,,false,,,,595494,595493.8000000119,,595493.1999999881,,595503.49,8,400,,,
break_continue,html.Screen,4_75_2,2023-10-31T21:17:42.651Z,,0,,,NaN,,,,,,false,,,,595494.3999999762,595494.3000000119,,595494.1000000238,,595503.49,8,400,,,
sequence,flow.Sequence,4_75,2023-10-31T21:17:42.651Z,,0,,,4207.691000011866,completion,,,,,false,,,,595494.6000000238,595494.3000000119,591269.943,591280.3999999762,591286.609,595503.49,8,400,,,
trial,html.Screen,4_76_0,2023-10-31T21:17:46.494Z,,0,2,,3834.2099999880884,response,ISIC_0033560.JPG,9,ISIC_0015005.JPG,ISIC_0015005.JPG,false,0,keypress(z),500,599338.1999999881,599337.6999999881,595486.824,595494.6999999881,595503.49,599353.336,8,400,27,,ISIC_0033560.JPG
break,html.Screen,4_76_1,2023-10-31T21:17:46.495Z,,0,,,NaN,,,,,,false,,,,599339.3000000119,599339,,599338.3999999762,,599353.336,8,400,,,
break_continue,html.Screen,4_76_2,2023-10-31T21:17:46.496Z,,0,,,NaN,,,,,,false,,,,599339.6000000238,599339.5,,599339.3999999762,,599353.336,8,400,,,
sequence,flow.Sequence,4_76,2023-10-31T21:17:46.496Z,,0,,,3836.0100000000093,completion,,,,,false,,,,599339.8000000119,599339.5,595486.824,595494.6000000238,595503.49,599353.336,8,400,,,
trial,html.Screen,4_77_0,2023-10-31T21:17:50.453Z,,0,2,,3943.863999988069,response,ISIC_2563568.JPG,8,ISIC_0028317.JPG,ISIC_0028317.JPG,false,0,keypress(z),500,603297.3000000119,603297.1999999881,599336.67,599339.8999999762,599353.336,603303.178,8,400,28,,ISIC_2563568.JPG
break,html.Screen,4_77_1,2023-10-31T21:17:50.454Z,,0,,,NaN,,,,,,false,,,,603297.6999999881,603297.6999999881,,603297.3999999762,,603303.178,8,400,,,
break_continue,html.Screen,4_77_2,2023-10-31T21:17:50.454Z,,0,,,NaN,,,,,,false,,,,603297.8000000119,603297.8000000119,,603297.8000000119,,603303.178,8,400,,,
sequence,flow.Sequence,4_77,2023-10-31T21:17:50.454Z,,0,,,3944.4640000119107,completion,,,,,false,,,,603297.8999999762,603297.8000000119,599336.67,599339.8999999762,599353.336,603303.178,8,400,,,
trial,html.Screen,4_78_0,2023-10-31T21:17:55.146Z,,0,2,,4686.122000011965,response,ISIC_0359307.JPG,9,ISIC_0033564.JPG,ISIC_0359307.JPG,false,1,keypress(m),500,607989.8999999762,607989.3000000119,603286.512,603297.8999999762,603303.178,608003.372,8,400,29,,ISIC_0033564.JPG
break,html.Screen,4_78_1,2023-10-31T21:17:55.147Z,,0,,,NaN,,,,,,false,,,,607990.8999999762,607990.6999999881,,607990.1000000238,,608003.372,8,400,,,
break_continue,html.Screen,4_78_2,2023-10-31T21:17:55.147Z,,0,,,NaN,,,,,,false,,,,607991.1999999881,607991.1000000238,,607991,,608003.372,8,400,,,
sequence,flow.Sequence,4_78,2023-10-31T21:17:55.148Z,,0,,,4687.922000023886,completion,,,,,false,,,,607991.3000000119,607991.1000000238,603286.512,603297.8999999762,603303.178,608003.372,8,400,,,
trial,html.Screen,4_79_0,2023-10-31T21:17:58.578Z,,0,2,,3417.928000011947,response,ISIC_7295035.JPG,6,ISIC_0071947.JPG,ISIC_0071947.JPG,false,0,keypress(z),500,611421.8000000119,611421.3000000119,607986.706,607991.3999999762,608003.372,611436.568,8,400,30,,ISIC_7295035.JPG
break,html.Screen,4_79_1,2023-10-31T21:17:58.579Z,,0,,,NaN,,,,,,false,,,,611422.8999999762,611422.6999999881,,611422.1000000238,,611436.568,8,400,,,
break_continue,html.Screen,4_79_2,2023-10-31T21:17:58.579Z,,0,,,NaN,,,,,,false,,,,611423.3000000119,611423.1999999881,,611423,,611436.568,8,400,,,
sequence,flow.Sequence,4_79,2023-10-31T21:17:58.580Z,,0,,,3419.827999988105,completion,,,,,false,,,,611423.5,611423.1999999881,607986.706,607991.3000000119,608003.372,611436.568,8,400,,,
trial,html.Screen,4_80_0,2023-10-31T21:18:03.484Z,,0,2,,4891.232000011951,response,ISIC_4527661.JPG,6,ISIC_0011073.JPG,ISIC_4527661.JPG,false,1,keypress(m),500,616328.3000000119,616327.8000000119,611419.902,611423.6000000238,611436.568,616336.824,8,400,31,,ISIC_0011073.JPG
break,html.Screen,4_80_1,2023-10-31T21:18:03.486Z,,0,,,NaN,,,,,,false,,,,616329.3999999762,616329.1999999881,,616328.5,,616336.824,8,400,,,
break_continue,html.Screen,4_80_2,2023-10-31T21:18:03.486Z,,0,,,NaN,,,,,,false,,,,616329.6999999881,616329.6999999881,,616329.5,,616336.824,8,400,,,
sequence,flow.Sequence,4_80,2023-10-31T21:18:03.486Z,,0,,,4893.131999988109,completion,,,,,false,,,,616329.8999999762,616329.6999999881,611419.902,611423.5,611436.568,616336.824,8,400,,,
trial,html.Screen,4_81_0,2023-10-31T21:18:06.818Z,,0,2,,3324.1759999999776,response,ISIC_9765024.JPG,6,ISIC_7822725.JPG,ISIC_7822725.JPG,false,0,keypress(z),500,619661.3000000119,619661,616320.158,616330,616336.824,619670.024,8,400,32,,ISIC_9765024.JPG
break,html.Screen,4_81_1,2023-10-31T21:18:06.819Z,,0,,,NaN,,,,,,false,,,,619662.5,619662.1999999881,,619661.6999999881,,619670.024,8,400,,,
break_continue,html.Screen,4_81_2,2023-10-31T21:18:06.819Z,,0,,,NaN,,,,,,false,,,,619662.8999999762,619662.8000000119,,619662.6000000238,,619670.024,8,400,,,
sequence,flow.Sequence,4_81,2023-10-31T21:18:06.819Z,,0,,,3325.9760000118986,completion,,,,,false,,,,619663,619662.8000000119,616320.158,616329.8999999762,616336.824,619670.024,8,400,,,
trial,html.Screen,4_82_0,2023-10-31T21:18:11.255Z,,0,2,,4428.776000011945,response,ISIC_0060355.JPG,6,ISIC_9052500.JPG,ISIC_9052500.JPG,false,0,keypress(z),500,624099.3000000119,624098.8000000119,619653.358,619663.1000000238,619670.024,624103.18,8,400,33,,ISIC_0060355.JPG
break,html.Screen,4_82_1,2023-10-31T21:18:11.257Z,,0,,,NaN,,,,,,false,,,,624100.3000000119,624100.1999999881,,624099.5,,624103.18,8,400,,,
break_continue,html.Screen,4_82_2,2023-10-31T21:18:11.257Z,,0,,,NaN,,,,,,false,,,,624100.6999999881,624100.6000000238,,624100.3999999762,,624103.18,8,400,,,
sequence,flow.Sequence,4_82,2023-10-31T21:18:11.257Z,,0,,,4430.576000023866,completion,,,,,false,,,,624100.8999999762,624100.6000000238,619653.358,619663.1000000238,619670.024,624103.18,8,400,,,
trial,html.Screen,4_83_0,2023-10-31T21:18:14.658Z,,0,2,,3398.219999976107,response,ISIC_4924690.JPG,7,ISIC_0000660.JPG,ISIC_4924690.JPG,false,1,keypress(m),500,627501.8000000119,627501.3999999762,624086.514,624101,624103.18,627503.403,8,400,34,,ISIC_0000660.JPG
break,html.Screen,4_83_1,2023-10-31T21:18:14.659Z,,0,,,NaN,,,,,,false,,,,627502.8000000119,627502.6000000238,,627502,,627503.403,8,400,,,
break_continue,html.Screen,4_83_2,2023-10-31T21:18:14.659Z,,0,,,NaN,,,,,,false,,,,627503.1999999881,627503.1000000238,,627503,,627503.403,8,400,,,
sequence,flow.Sequence,4_83,2023-10-31T21:18:14.660Z,,0,,,3399.9200000237906,completion,,,,,false,,,,627503.3999999762,627503.1000000238,624086.514,624100.8999999762,624103.18,627503.403,8,400,,,
trial,html.Screen,4_84_0,2023-10-31T21:18:18.696Z,,0,2,,4036.2969999880297,response,ISIC_7621389.JPG,7,ISIC_0046223.JPG,ISIC_7621389.JPG,false,1,keypress(m),500,631540.1000000238,631539.6999999881,627486.737,627503.5,627503.403,631553.241,8,400,35,,ISIC_0046223.JPG
break,html.Screen,4_84_1,2023-10-31T21:18:18.698Z,,0,,,NaN,,,,,,false,,,,631541.1999999881,631541,,631540.3999999762,,631553.241,8,400,,,
break_continue,html.Screen,4_84_2,2023-10-31T21:18:18.698Z,,0,,,NaN,,,,,,false,,,,631541.6000000238,631541.5,,631541.3999999762,,631553.241,8,400,,,
sequence,flow.Sequence,4_84,2023-10-31T21:18:18.698Z,,0,,,4038.0969999999506,completion,,,,,false,,,,631541.8000000119,631541.5,627486.737,627503.5,627503.403,631553.241,8,400,,,
trial,html.Screen,4_85_0,2023-10-31T21:18:21.903Z,,0,2,,3192.8590000238037,response,ISIC_9969907.JPG,8,ISIC_4363398.JPG,ISIC_4363398.JPG,false,0,keypress(z),500,634746.3999999762,634746.1000000238,631536.575,631541.8999999762,631553.241,634753.113,8,400,36,,ISIC_9969907.JPG
break,html.Screen,4_85_1,2023-10-31T21:18:21.904Z,,0,,,NaN,,,,,,false,,,,634747.5,634747.3000000119,,634746.8000000119,,634753.113,8,400,,,
break_continue,html.Screen,4_85_2,2023-10-31T21:18:21.904Z,,0,,,NaN,,,,,,false,,,,634747.8999999762,634747.8999999762,,634747.6999999881,,634753.113,8,400,,,
sequence,flow.Sequence,4_85,2023-10-31T21:18:21.904Z,,0,,,3194.65899997612,completion,,,,,false,,,,634748.1000000238,634747.8999999762,631536.575,631541.8000000119,631553.241,634753.113,8,400,,,
trial,html.Screen,4_86_0,2023-10-31T21:18:24.697Z,,0,2,,2786.786999976146,response,ISIC_3700351.JPG,7,ISIC_2714572.JPG,ISIC_3700351.JPG,false,1,keypress(m),500,637540.3000000119,637539.8999999762,634736.447,634748.1999999881,634753.113,637553.388,8,400,37,,ISIC_2714572.JPG
break,html.Screen,4_86_1,2023-10-31T21:18:24.698Z,,0,,,NaN,,,,,,false,,,,637541.3999999762,637541.1999999881,,637540.5,,637553.388,8,400,,,
break_continue,html.Screen,4_86_2,2023-10-31T21:18:24.698Z,,0,,,NaN,,,,,,false,,,,637541.8000000119,637541.6000000238,,637541.5,,637553.388,8,400,,,
sequence,flow.Sequence,4_86,2023-10-31T21:18:24.698Z,,0,,,2788.4870000238298,completion,,,,,false,,,,637542,637541.6000000238,634736.447,634748.1000000238,634753.113,637553.388,8,400,,,
trial,html.Screen,4_87_0,2023-10-31T21:18:28.147Z,,0,2,,3437.3119999880437,response,ISIC_0013972.JPG,7,ISIC_0031039.JPG,ISIC_0013972.JPG,false,1,keypress(m),500,640991.1000000238,640990.6999999881,637536.722,637542.1000000238,637553.388,641003.25,8,400,38,,ISIC_0031039.JPG
break,html.Screen,4_87_1,2023-10-31T21:18:28.148Z,,0,,,NaN,,,,,,false,,,,640992.1999999881,640991.8999999762,,640991.3000000119,,641003.25,8,400,,,
break_continue,html.Screen,4_87_2,2023-10-31T21:18:28.149Z,,0,,,NaN,,,,,,false,,,,640992.6000000238,640992.3999999762,,640992.3000000119,,641003.25,8,400,,,
sequence,flow.Sequence,4_87,2023-10-31T21:18:28.149Z,,0,,,3439.0119999761228,completion,,,,,false,,,,640992.6000000238,640992.3999999762,637536.722,637542.1000000238,637553.388,641003.25,8,400,,,
trial,html.Screen,4_88_0,2023-10-31T21:18:30.891Z,,0,2,,2730.649999976158,response,ISIC_0033042.JPG,7,ISIC_7475827.JPG,ISIC_0033042.JPG,false,1,keypress(m),500,643734.3000000119,643733.8999999762,640986.584,640992.8999999762,641003.25,643736.474,8,400,39,,ISIC_7475827.JPG
break,html.Screen,4_88_1,2023-10-31T21:18:30.892Z,,0,,,NaN,,,,,,false,,,,643735.3999999762,643735.1000000238,,643734.6000000238,,643736.474,8,400,,,
break_continue,html.Screen,4_88_2,2023-10-31T21:18:30.892Z,,0,,,NaN,,,,,,false,,,,643735.8000000119,643735.6000000238,,643735.5,,643736.474,8,400,,,
sequence,flow.Sequence,4_88,2023-10-31T21:18:30.892Z,,0,,,2732.350000023842,completion,,,,,false,,,,643735.8999999762,643735.6000000238,640986.584,640992.6999999881,641003.25,643736.474,8,400,,,
trial,html.Screen,4_89_0,2023-10-31T21:18:34.079Z,,0,2,,3186.0259999999544,response,ISIC_2987613.JPG,8,ISIC_0302804.JPG,ISIC_0302804.JPG,false,0,keypress(z),500,646922.8000000119,646922.5,643719.808,643736,643736.474,646936.673,8,400,40,,ISIC_2987613.JPG
break,html.Screen,4_89_1,2023-10-31T21:18:34.080Z,,0,,,NaN,,,,,,false,,,,646923.8999999762,646923.6000000238,,646923.1000000238,,646936.673,8,400,,,
break_continue,html.Screen,4_89_2,2023-10-31T21:18:34.081Z,,0,,,NaN,,,,,,false,,,,646924.3000000119,646924.1999999881,,646924,,646936.673,8,400,,,
sequence,flow.Sequence,4_89,2023-10-31T21:18:34.081Z,,0,,,3187.7259999880334,completion,,,,,false,,,,646924.3000000119,646924.1999999881,643719.808,643736,643736.474,646936.673,8,400,,,
trial,html.Screen,4_90_0,2023-10-31T21:18:37.811Z,,0,2,,3717.5269999881275,response,ISIC_0000278.JPG,5,ISIC_0014598.JPG,ISIC_0000278.JPG,false,1,keypress(m),500,650654.6999999881,650654.1999999881,646920.007,646924.5,646936.673,650669.857,8,400,41,,ISIC_0014598.JPG
break,html.Screen,4_90_1,2023-10-31T21:18:37.812Z,,0,,,NaN,,,,,,false,,,,650655.8999999762,650655.6999999881,,650655,,650669.857,8,400,,,
break_continue,html.Screen,4_90_2,2023-10-31T21:18:37.813Z,,0,,,NaN,,,,,,false,,,,650656.1999999881,650656.1000000238,,650656,,650669.857,8,400,,,
sequence,flow.Sequence,4_90,2023-10-31T21:18:37.813Z,,0,,,3719.4270000238903,completion,,,,,false,,,,650656.3999999762,650656.1000000238,646920.007,646924.3999999762,646936.673,650669.857,8,400,,,
trial,html.Screen,4_91_0,2023-10-31T21:18:42.218Z,,0,2,,4391.64300000004,response,ISIC_0063447.JPG,8,ISIC_0010629.JPG,ISIC_0010629.JPG,false,0,keypress(z),500,655061.8999999762,655061.5,650653.191,650656.5,650669.857,655069.681,8,400,42,,ISIC_0063447.JPG
break,html.Screen,4_91_1,2023-10-31T21:18:42.219Z,,0,,,NaN,,,,,,false,,,,655063.1000000238,655062.8999999762,,655062.1999999881,,655069.681,8,400,,,
break_continue,html.Screen,4_91_2,2023-10-31T21:18:42.220Z,,0,,,NaN,,,,,,false,,,,655063.5,655063.3999999762,,655063.1999999881,,655069.681,8,400,,,
sequence,flow.Sequence,4_91,2023-10-31T21:18:42.220Z,,0,,,4393.542999976198,completion,,,,,false,,,,655063.6999999881,655063.3999999762,650653.191,650656.3999999762,650669.857,655069.681,8,400,,,
trial,html.Screen,4_92_0,2023-10-31T21:18:45.667Z,,0,2,,3440.5189999880968,response,ISIC_6604862.JPG,7,ISIC_3649766.JPG,ISIC_3649766.JPG,false,0,keypress(z),500,658510.6999999881,658510.1999999881,655053.015,655063.6999999881,655069.681,658519.955,8,400,43,,ISIC_6604862.JPG
break,html.Screen,4_92_1,2023-10-31T21:18:45.668Z,,0,,,NaN,,,,,,false,,,,658511.8000000119,658511.6999999881,,658511.1000000238,,658519.955,8,400,,,
break_continue,html.Screen,4_92_2,2023-10-31T21:18:45.669Z,,0,,,NaN,,,,,,false,,,,658512.1999999881,658512.1000000238,,658511.8999999762,,658519.955,8,400,,,
sequence,flow.Sequence,4_92,2023-10-31T21:18:45.669Z,,0,,,3442.4190000238596,completion,,,,,false,,,,658512.3999999762,658512.1000000238,655053.015,655063.6999999881,655069.681,658519.955,8,400,,,
trial,html.Screen,4_93_0,2023-10-31T21:18:49.309Z,,0,2,,3632.045000000042,response,ISIC_1149693.JPG,8,ISIC_0058346.JPG,ISIC_0058346.JPG,false,0,keypress(z),500,662152.5,662152,658503.289,658512.6000000238,658519.955,662169.809,8,400,44,,ISIC_1149693.JPG
break,html.Screen,4_93_1,2023-10-31T21:18:49.310Z,,0,,,NaN,,,,,,false,,,,662153.6000000238,662153.3999999762,,662152.6999999881,,662169.809,8,400,,,
break_continue,html.Screen,4_93_2,2023-10-31T21:18:49.310Z,,0,,,NaN,,,,,,false,,,,662154,662153.8000000119,,662153.6999999881,,662169.809,8,400,,,
sequence,flow.Sequence,4_93,2023-10-31T21:18:49.311Z,,0,,,3633.845000011963,completion,,,,,false,,,,662154.1999999881,662153.8000000119,658503.289,658512.3999999762,658519.955,662169.809,8,400,,,
trial,html.Screen,4_94_0,2023-10-31T21:18:53.432Z,,0,2,,4104.991000011913,response,ISIC_0060934.JPG,7,ISIC_0058033.JPG,ISIC_0058033.JPG,false,0,keypress(z),500,666275.3000000119,666274.8000000119,662153.143,662154.1999999881,662169.809,666286.311,8,400,45,,ISIC_0060934.JPG
break,html.Screen,4_94_1,2023-10-31T21:18:53.433Z,,0,,,NaN,,,,,,false,,,,666276.3999999762,666276.1999999881,,666275.6000000238,,666286.311,8,400,,,
break_continue,html.Screen,4_94_2,2023-10-31T21:18:53.433Z,,0,,,NaN,,,,,,false,,,,666276.8000000119,666276.6999999881,,666276.5,,666286.311,8,400,,,
sequence,flow.Sequence,4_94,2023-10-31T21:18:53.433Z,,0,,,4106.890999988071,completion,,,,,false,,,,666277,666276.6999999881,662153.143,662154.1999999881,662169.809,666286.311,8,400,,,
trial,html.Screen,4_95_0,2023-10-31T21:18:57.283Z,,0,2,,3839.289000023855,response,ISIC_0001140.JPG,8,ISIC_0011994.JPG,ISIC_0001140.JPG,false,1,keypress(m),500,670126.1000000238,670125.6000000238,666269.645,666277,666286.311,670136.546,8,400,46,,ISIC_0011994.JPG
break,html.Screen,4_95_1,2023-10-31T21:18:57.284Z,,0,,,NaN,,,,,,false,,,,670127.1000000238,670127,,670126.3999999762,,670136.546,8,400,,,
break_continue,html.Screen,4_95_2,2023-10-31T21:18:57.284Z,,0,,,NaN,,,,,,false,,,,670127.6999999881,670127.5,,670127.3999999762,,670136.546,8,400,,,
sequence,flow.Sequence,4_95,2023-10-31T21:18:57.284Z,,0,,,3841.189000000013,completion,,,,,false,,,,670127.8999999762,670127.5,666269.645,666277,666286.311,670136.546,8,400,,,
trial,html.Screen,4_96_0,2023-10-31T21:19:00.266Z,,0,2,,2972.353999976185,response,ISIC_0055054.JPG,9,ISIC_3234908.JPG,ISIC_0055054.JPG,false,1,keypress(m),500,673109.3000000119,673108.8999999762,670119.88,670128,670136.546,673119.76,8,400,47,,ISIC_3234908.JPG
break,html.Screen,4_96_1,2023-10-31T21:19:00.267Z,,0,,,NaN,,,,,,false,,,,673110.5,673110.3000000119,,673109.6000000238,,673119.76,8,400,,,
break_continue,html.Screen,4_96_2,2023-10-31T21:19:00.267Z,,0,,,NaN,,,,,,false,,,,673110.8000000119,673110.6999999881,,673110.5,,673119.76,8,400,,,
sequence,flow.Sequence,4_96,2023-10-31T21:19:00.267Z,,0,,,2974.153999988106,completion,,,,,false,,,,673111,673110.6999999881,670119.88,670127.8999999762,670136.546,673119.76,8,400,,,
trial,html.Screen,4_97_0,2023-10-31T21:19:03.493Z,,0,2,,3216.7399999999907,response,ISIC_0064113.JPG,7,ISIC_6032520.JPG,ISIC_0064113.JPG,false,1,keypress(m),500,676336.6999999881,676336.5,673103.094,673111.1000000238,673119.76,676352.964,8,400,48,,ISIC_6032520.JPG
break,html.Screen,4_97_1,2023-10-31T21:19:03.494Z,,0,,,NaN,,,,,,false,,,,676337.1999999881,676337.1000000238,,676336.8000000119,,676352.964,8,400,,,
break_continue,html.Screen,4_97_2,2023-10-31T21:19:03.494Z,,0,,,NaN,,,,,,false,,,,676337.3000000119,676337.3000000119,,676337.1999999881,,676352.964,8,400,,,
sequence,flow.Sequence,4_97,2023-10-31T21:19:03.494Z,,0,,,3217.5400000119116,completion,,,,,false,,,,676337.3999999762,676337.3000000119,673103.094,673111.1000000238,673119.76,676352.964,8,400,,,
trial,html.Screen,4_98_0,2023-10-31T21:19:06.302Z,,0,2,,2791.7359999880427,response,ISIC_3892947.JPG,6,ISIC_9390107.JPG,ISIC_3892947.JPG,false,1,keypress(m),500,679145.1000000238,679144.6999999881,676336.298,676337.3999999762,676352.964,679153.212,8,400,49,,ISIC_9390107.JPG
break,html.Screen,4_98_1,2023-10-31T21:19:06.303Z,,0,,,NaN,,,,,,false,,,,679146.1999999881,679146,,679145.3999999762,,679153.212,8,400,,,
break_continue,html.Screen,4_98_2,2023-10-31T21:19:06.303Z,,0,,,NaN,,,,,,false,,,,679146.6000000238,679146.3999999762,,679146.1999999881,,679153.212,8,400,,,
sequence,flow.Sequence,4_98,2023-10-31T21:19:06.303Z,,0,,,2793.435999976122,completion,,,,,false,,,,679146.6999999881,679146.3999999762,676336.298,676337.3999999762,676352.964,679153.212,8,400,,,
trial,html.Screen,4_99_0,2023-10-31T21:19:09.636Z,,0,2,,3325.4879999880213,response,ISIC_0027420.JPG,7,ISIC_0034294.JPG,ISIC_0034294.JPG,false,0,keypress(z),500,682479.1000000238,682478.6999999881,679136.546,679147,679153.212,682486.412,8,400,50,,ISIC_0027420.JPG
break,html.Screen,4_99_1,2023-10-31T21:19:19.631Z,,0,,,9999.97100000002,timeout,,,,,false,,,,692474,692469.717,682469.746,682479.3999999762,682486.412,692486.383,8,400,,,
break_continue,html.Screen,4_99_2,2023-10-31T21:19:31.933Z,,0,,,12272.516999976127,response,,,,,false,continue,keypress(Space),,704776.1000000238,704758.8999999762,692469.717,692474.3000000119,692486.383,704785.891,8,400,,,
sequence,flow.Sequence,4_99,2023-10-31T21:19:31.933Z,,0,,,25605.6879999761,completion,,,,,false,,,,704776.3999999762,704758.8999999762,679136.546,679146.8000000119,679153.212,704785.891,8,400,,,
trial,html.Screen,4_100_0,2023-10-31T21:19:35.968Z,,0,3,,4024.808999988134,response,ISIC_0014434.JPG,8,ISIC_0067804.JPG,ISIC_0014434.JPG,false,1,keypress(m),500,708811.3000000119,708810.6999999881,704769.225,704776.5,704785.891,708819.658,8,400,1,,ISIC_0067804.JPG
break,html.Screen,4_100_1,2023-10-31T21:19:35.969Z,,0,,,NaN,,,,,,false,,,,708812.3999999762,708812.1999999881,,708811.6000000238,,708819.658,8,400,,,
break_continue,html.Screen,4_100_2,2023-10-31T21:19:35.969Z,,0,,,NaN,,,,,,false,,,,708812.8000000119,708812.6999999881,,708812.5,,708819.658,8,400,,,
sequence,flow.Sequence,4_100,2023-10-31T21:19:35.970Z,,0,,,4026.808999988134,completion,,,,,false,,,,708812.8999999762,708812.6999999881,704769.225,704776.3999999762,704785.891,708819.658,8,400,,,
trial,html.Screen,4_101_0,2023-10-31T21:19:39.335Z,,0,3,,3357.841999999946,response,ISIC_6284312.JPG,7,ISIC_0032171.JPG,ISIC_6284312.JPG,false,1,keypress(m),500,712177.8999999762,712177.5,708802.992,708813.1000000238,708819.658,712186.19,8,400,2,,ISIC_0032171.JPG
break,html.Screen,4_101_1,2023-10-31T21:19:39.336Z,,0,,,NaN,,,,,,false,,,,712179,712178.8000000119,,712178.1999999881,,712186.19,8,400,,,
break_continue,html.Screen,4_101_2,2023-10-31T21:19:39.336Z,,0,,,NaN,,,,,,false,,,,712179.3999999762,712179.1999999881,,712179.1999999881,,712186.19,8,400,,,
sequence,flow.Sequence,4_101,2023-10-31T21:19:39.336Z,,0,,,3359.541999988025,completion,,,,,false,,,,712179.6000000238,712179.1999999881,708802.992,708813,708819.658,712186.19,8,400,,,
trial,html.Screen,4_102_0,2023-10-31T21:19:44.031Z,,0,3,,4687.810000000056,response,ISIC_0055608.JPG,8,ISIC_0032369.JPG,ISIC_0032369.JPG,false,0,keypress(z),500,716874.5,716874,712169.524,712179.6000000238,712186.19,716886.457,8,400,3,,ISIC_0055608.JPG
break,html.Screen,4_102_1,2023-10-31T21:19:44.032Z,,0,,,NaN,,,,,,false,,,,716875.6000000238,716875.3999999762,,716874.8000000119,,716886.457,8,400,,,
break_continue,html.Screen,4_102_2,2023-10-31T21:19:44.033Z,,0,,,NaN,,,,,,false,,,,716876,716875.8000000119,,716875.6999999881,,716886.457,8,400,,,
sequence,flow.Sequence,4_102,2023-10-31T21:19:44.033Z,,0,,,4689.610000011977,completion,,,,,false,,,,716876.1999999881,716875.8000000119,712169.524,712179.6000000238,712186.19,716886.457,8,400,,,
trial,html.Screen,4_103_0,2023-10-31T21:19:48.455Z,,0,3,,4411.143000023789,response,ISIC_4949672.JPG,8,ISIC_0012066.JPG,ISIC_0012066.JPG,false,0,keypress(z),500,721298,721297.6000000238,716869.791,716876.3000000119,716886.457,721302.947,8,400,4,,ISIC_4949672.JPG
break,html.Screen,4_103_1,2023-10-31T21:19:48.456Z,,0,,,NaN,,,,,,false,,,,721299.1000000238,721298.8000000119,,721298.1999999881,,721302.947,8,400,,,
break_continue,html.Screen,4_103_2,2023-10-31T21:19:48.456Z,,0,,,NaN,,,,,,false,,,,721299.3999999762,721299.3000000119,,721299.1000000238,,721302.947,8,400,,,
sequence,flow.Sequence,4_103,2023-10-31T21:19:48.456Z,,0,,,4412.843000011868,completion,,,,,false,,,,721299.5,721299.3000000119,716869.791,716876.3000000119,716886.457,721302.947,8,400,,,
trial,html.Screen,4_104_0,2023-10-31T21:19:53.294Z,,0,3,,4833.552999999956,response,ISIC_6390738.JPG,6,ISIC_3501997.JPG,ISIC_3501997.JPG,false,0,keypress(z),500,726136.8999999762,726136.5,721286.281,721299.5,721302.947,726152.753,8,400,5,,ISIC_6390738.JPG
break,html.Screen,4_104_1,2023-10-31T21:19:53.295Z,,0,,,NaN,,,,,,false,,,,726138,726137.6999999881,,726137.1999999881,,726152.753,8,400,,,
break_continue,html.Screen,4_104_2,2023-10-31T21:19:53.295Z,,0,,,NaN,,,,,,false,,,,726138.3000000119,726138.1999999881,,726138.1000000238,,726152.753,8,400,,,
sequence,flow.Sequence,4_104,2023-10-31T21:19:53.295Z,,0,,,4835.252999988035,completion,,,,,false,,,,726138.3999999762,726138.1999999881,721286.281,721299.5,721302.947,726152.753,8,400,,,
trial,html.Screen,4_105_0,2023-10-31T21:19:57.956Z,,0,3,,4646.547000011895,response,ISIC_0071457.JPG,7,ISIC_0032112.JPG,ISIC_0032112.JPG,false,0,keypress(z),500,730799.6999999881,730799.3000000119,726136.087,726138.5,726152.753,730802.924,8,400,6,,ISIC_0071457.JPG
break,html.Screen,4_105_1,2023-10-31T21:19:57.957Z,,0,,,NaN,,,,,,false,,,,730800.6999999881,730800.5,,730800,,730802.924,8,400,,,
break_continue,html.Screen,4_105_2,2023-10-31T21:19:57.958Z,,0,,,NaN,,,,,,false,,,,730801.1999999881,730801,,730800.8999999762,,730802.924,8,400,,,
sequence,flow.Sequence,4_105,2023-10-31T21:19:57.958Z,,0,,,4648.246999999974,completion,,,,,false,,,,730801.3000000119,730801,726136.087,726138.5,726152.753,730802.924,8,400,,,
trial,html.Screen,4_106_0,2023-10-31T21:20:02.075Z,,0,3,,4115.176000023843,response,ISIC_0014264.JPG,5,ISIC_0064307.JPG,ISIC_0064307.JPG,false,0,keypress(z),500,734918.5,734918.1000000238,730786.258,730801.5,730802.924,734919.426,8,400,7,,ISIC_0014264.JPG
break,html.Screen,4_106_1,2023-10-31T21:20:02.076Z,,0,,,NaN,,,,,,false,,,,734919.6999999881,734919.3999999762,,734918.8000000119,,734919.426,8,400,,,
break_continue,html.Screen,4_106_2,2023-10-31T21:20:02.077Z,,0,,,NaN,,,,,,false,,,,734920,734919.8999999762,,734919.8000000119,,734919.426,8,400,,,
sequence,flow.Sequence,4_106,2023-10-31T21:20:02.077Z,,0,,,4116.975999976159,completion,,,,,false,,,,734920.1000000238,734919.8999999762,730786.258,730801.5,730802.924,734919.426,8,400,,,
trial,html.Screen,4_107_0,2023-10-31T21:20:05.556Z,,0,3,,3479.3740000119433,response,ISIC_8300954.JPG,7,ISIC_8013225.JPG,ISIC_8300954.JPG,false,1,keypress(m),500,738399.3000000119,738398.8000000119,734902.76,734920.1999999881,734919.426,738402.994,8,400,8,,ISIC_8013225.JPG
break,html.Screen,4_107_1,2023-10-31T21:20:05.557Z,,0,,,NaN,,,,,,false,,,,738400.3000000119,738400.1000000238,,738399.5,,738402.994,8,400,,,
break_continue,html.Screen,4_107_2,2023-10-31T21:20:05.557Z,,0,,,NaN,,,,,,false,,,,738400.8000000119,738400.6000000238,,738400.5,,738402.994,8,400,,,
sequence,flow.Sequence,4_107,2023-10-31T21:20:05.558Z,,0,,,3481.174000023864,completion,,,,,false,,,,738400.8999999762,738400.6000000238,734902.76,734920.1999999881,734919.426,738402.994,8,400,,,
trial,html.Screen,4_108_0,2023-10-31T21:20:09.018Z,,0,3,,3457.9059999762103,response,ISIC_0013671.JPG,9,ISIC_0069595.JPG,ISIC_0069595.JPG,false,0,keypress(z),500,741861.3999999762,741860.8999999762,738386.328,738401,738402.994,741869.522,8,400,9,,ISIC_0013671.JPG
break,html.Screen,4_108_1,2023-10-31T21:20:09.019Z,,0,,,NaN,,,,,,false,,,,741862.3999999762,741862.1999999881,,741861.6999999881,,741869.522,8,400,,,
break_continue,html.Screen,4_108_2,2023-10-31T21:20:09.020Z,,0,,,NaN,,,,,,false,,,,741862.8999999762,741862.8000000119,,741862.6000000238,,741869.522,8,400,,,
sequence,flow.Sequence,4_108,2023-10-31T21:20:09.020Z,,0,,,3459.806000011973,completion,,,,,false,,,,741863,741862.8000000119,738386.328,738401,738402.994,741869.522,8,400,,,
trial,html.Screen,4_109_0,2023-10-31T21:20:11.872Z,,0,3,,2845.0780000238447,response,ISIC_0010426.JPG,6,ISIC_9276931.JPG,ISIC_0010426.JPG,false,1,keypress(m),500,744715,744714.6000000238,741852.856,741863.1000000238,741869.522,744719.408,8,400,10,,ISIC_9276931.JPG
break,html.Screen,4_109_1,2023-10-31T21:20:11.873Z,,0,,,NaN,,,,,,false,,,,744716,744715.8999999762,,744715.3000000119,,744719.408,8,400,,,
break_continue,html.Screen,4_109_2,2023-10-31T21:20:11.873Z,,0,,,NaN,,,,,,false,,,,744716.3999999762,744716.1999999881,,744716.1000000238,,744719.408,8,400,,,
sequence,flow.Sequence,4_109,2023-10-31T21:20:11.873Z,,0,,,2846.677999988082,completion,,,,,false,,,,744716.5,744716.1999999881,741852.856,741863.1000000238,741869.522,744719.408,8,400,,,
trial,html.Screen,4_110_0,2023-10-31T21:20:14.869Z,,0,3,,2992.892000011867,response,ISIC_6278273.JPG,9,ISIC_5116614.JPG,ISIC_6278273.JPG,false,1,keypress(m),500,747712.6999999881,747712.3000000119,744702.742,744716.6999999881,744719.408,747719.288,8,400,11,,ISIC_5116614.JPG
break,html.Screen,4_110_1,2023-10-31T21:20:14.870Z,,0,,,NaN,,,,,,false,,,,747713.6999999881,747713.5,,747713,,747719.288,8,400,,,
break_continue,html.Screen,4_110_2,2023-10-31T21:20:14.871Z,,0,,,NaN,,,,,,false,,,,747714,747713.8999999762,,747713.8000000119,,747719.288,8,400,,,
sequence,flow.Sequence,4_110,2023-10-31T21:20:14.871Z,,0,,,2994.491999976104,completion,,,,,false,,,,747714.1999999881,747713.8999999762,744702.742,744716.6999999881,744719.408,747719.288,8,400,,,
trial,html.Screen,4_111_0,2023-10-31T21:20:18.237Z,,0,3,,3360.3120000238996,response,ISIC_7494625.JPG,8,ISIC_0057753.JPG,ISIC_7494625.JPG,false,1,keypress(m),500,751080.1000000238,751079.6000000238,747702.622,747714.3999999762,747719.288,751086.23,8,400,12,,ISIC_0057753.JPG
break,html.Screen,4_111_1,2023-10-31T21:20:18.238Z,,0,,,NaN,,,,,,false,,,,751081.1000000238,751080.8999999762,,751080.3000000119,,751086.23,8,400,,,
break_continue,html.Screen,4_111_2,2023-10-31T21:20:18.238Z,,0,,,NaN,,,,,,false,,,,751081.5,751081.3999999762,,751081.1999999881,,751086.23,8,400,,,
sequence,flow.Sequence,4_111,2023-10-31T21:20:18.238Z,,0,,,3362.111999976216,completion,,,,,false,,,,751081.6000000238,751081.3999999762,747702.622,747714.3000000119,747719.288,751086.23,8,400,,,
trial,html.Screen,4_112_0,2023-10-31T21:20:21.332Z,,0,3,,3088.9699999880977,response,ISIC_0027091.JPG,6,ISIC_0024263.JPG,ISIC_0027091.JPG,false,1,keypress(m),500,754175.6999999881,754175.1999999881,751069.564,751081.6999999881,751086.23,754186.106,8,400,13,,ISIC_0024263.JPG
break,html.Screen,4_112_1,2023-10-31T21:20:21.334Z,,0,,,NaN,,,,,,false,,,,754176.6999999881,754176.5,,754175.8999999762,,754186.106,8,400,,,
break_continue,html.Screen,4_112_2,2023-10-31T21:20:21.334Z,,0,,,NaN,,,,,,false,,,,754177.1000000238,754177,,754176.8000000119,,754186.106,8,400,,,
sequence,flow.Sequence,4_112,2023-10-31T21:20:21.334Z,,0,,,3090.7700000000186,completion,,,,,false,,,,754177.3000000119,754177,751069.564,751081.6999999881,751086.23,754186.106,8,400,,,
trial,html.Screen,4_113_0,2023-10-31T21:20:24.574Z,,0,3,,3230.59399998805,response,ISIC_6113524.JPG,6,ISIC_0016013.JPG,ISIC_0016013.JPG,false,0,keypress(z),500,757417.1000000238,757416.6999999881,754169.44,754177.3999999762,754186.106,757419.31,8,400,14,,ISIC_6113524.JPG
break,html.Screen,4_113_1,2023-10-31T21:20:24.575Z,,0,,,NaN,,,,,,false,,,,757418.3000000119,757418,,757417.3999999762,,757419.31,8,400,,,
break_continue,html.Screen,4_113_2,2023-10-31T21:20:24.575Z,,0,,,NaN,,,,,,false,,,,757418.6000000238,757418.5,,757418.3000000119,,757419.31,8,400,,,
sequence,flow.Sequence,4_113,2023-10-31T21:20:24.576Z,,0,,,3232.393999999971,completion,,,,,false,,,,757418.6999999881,757418.5,754169.44,754177.3999999762,754186.106,757419.31,8,400,,,
trial,html.Screen,4_114_0,2023-10-31T21:20:27.811Z,,0,3,,3234.689999999944,response,ISIC_4552230.JPG,6,ISIC_0011641.JPG,ISIC_0011641.JPG,false,0,keypress(z),500,760654.5,760654,757402.644,757418.8999999762,757419.31,760669.568,8,400,15,,ISIC_4552230.JPG
break,html.Screen,4_114_1,2023-10-31T21:20:27.812Z,,0,,,NaN,,,,,,false,,,,760655.6000000238,760655.3000000119,,760654.6999999881,,760669.568,8,400,,,
break_continue,html.Screen,4_114_2,2023-10-31T21:20:27.813Z,,0,,,NaN,,,,,,false,,,,760655.8999999762,760655.8999999762,,760655.6999999881,,760669.568,8,400,,,
sequence,flow.Sequence,4_114,2023-10-31T21:20:27.813Z,,0,,,3236.5899999761023,completion,,,,,false,,,,760656.1000000238,760655.8999999762,757402.644,757418.8999999762,757419.31,760669.568,8,400,,,
trial,html.Screen,4_115_0,2023-10-31T21:20:30.762Z,,0,3,,2934.93200000003,response,ISIC_9672482.JPG,5,ISIC_0030845.JPG,ISIC_0030845.JPG,false,0,keypress(z),500,763604.8999999762,763604.5,760652.902,760656.3000000119,760669.568,763619.45,8,400,16,,ISIC_9672482.JPG
break,html.Screen,4_115_1,2023-10-31T21:20:30.763Z,,0,,,NaN,,,,,,false,,,,763606.1000000238,763605.8000000119,,763605.3000000119,,763619.45,8,400,,,
break_continue,html.Screen,4_115_2,2023-10-31T21:20:30.763Z,,0,,,NaN,,,,,,false,,,,763606.3999999762,763606.3000000119,,763606.1999999881,,763619.45,8,400,,,
sequence,flow.Sequence,4_115,2023-10-31T21:20:30.763Z,,0,,,2936.7320000119507,completion,,,,,false,,,,763606.6000000238,763606.3000000119,760652.902,760656.1999999881,760669.568,763619.45,8,400,,,
trial,html.Screen,4_116_0,2023-10-31T21:20:33.541Z,,0,3,,2764.0500000000466,response,ISIC_0010551.JPG,7,ISIC_0025195.JPG,ISIC_0025195.JPG,false,0,keypress(z),500,766384,766383.5,763602.784,763606.6999999881,763619.45,766386.006,8,400,17,,ISIC_0010551.JPG
break,html.Screen,4_116_1,2023-10-31T21:20:33.542Z,,0,,,NaN,,,,,,false,,,,766385,766384.8000000119,,766384.3000000119,,766386.006,8,400,,,
break_continue,html.Screen,4_116_2,2023-10-31T21:20:33.542Z,,0,,,NaN,,,,,,false,,,,766385.3999999762,766385.3000000119,,766385.1999999881,,766386.006,8,400,,,
sequence,flow.Sequence,4_116,2023-10-31T21:20:33.542Z,,0,,,2765.8500000119675,completion,,,,,false,,,,766385.6000000238,766385.3000000119,763602.784,763606.6999999881,763619.45,766386.006,8,400,,,
trial,html.Screen,4_117_0,2023-10-31T21:20:37.051Z,,0,3,,3507.893999976106,response,ISIC_0066338.JPG,8,ISIC_9939963.JPG,ISIC_0066338.JPG,false,1,keypress(m),500,769894.3000000119,769893.8999999762,766369.34,766385.6999999881,766386.006,769902.931,8,400,18,,ISIC_9939963.JPG
break,html.Screen,4_117_1,2023-10-31T21:20:37.052Z,,0,,,NaN,,,,,,false,,,,769895.5,769895.1999999881,,769894.6000000238,,769902.931,8,400,,,
break_continue,html.Screen,4_117_2,2023-10-31T21:20:37.053Z,,0,,,NaN,,,,,,false,,,,769895.8000000119,769895.6000000238,,769895.5,,769902.931,8,400,,,
sequence,flow.Sequence,4_117,2023-10-31T21:20:37.053Z,,0,,,3509.5940000237897,completion,,,,,false,,,,769896,769895.6000000238,766369.34,766385.6000000238,766386.006,769902.931,8,400,,,
trial,html.Screen,4_118_0,2023-10-31T21:20:43.520Z,,0,3,,6460.16900002386,response,ISIC_0067808.JPG,7,ISIC_7526548.JPG,ISIC_0067808.JPG,false,1,keypress(m),500,776363.5,776363.1000000238,769886.265,769896.1000000238,769902.931,776386.005,8,400,19,,ISIC_7526548.JPG
break,html.Screen,4_118_1,2023-10-31T21:20:43.521Z,,0,,,NaN,,,,,,false,,,,776364.5,776364.3000000119,,776363.8000000119,,776386.005,8,400,,,
break_continue,html.Screen,4_118_2,2023-10-31T21:20:43.522Z,,0,,,NaN,,,,,,false,,,,776364.8999999762,776364.8000000119,,776364.6999999881,,776386.005,8,400,,,
sequence,flow.Sequence,4_118,2023-10-31T21:20:43.522Z,,0,,,6461.869000011939,completion,,,,,false,,,,776365.1000000238,776364.8000000119,769886.265,769896,769902.931,776386.005,8,400,,,
trial,html.Screen,4_119_0,2023-10-31T21:20:47.190Z,,0,3,,3647.095000023837,response,ISIC_0000180.JPG,8,ISIC_3701563.JPG,ISIC_0000180.JPG,false,1,keypress(m),500,780033.6000000238,780033.1000000238,776369.339,776365.1999999881,776386.005,780036.228,8,400,20,,ISIC_3701563.JPG
break,html.Screen,4_119_1,2023-10-31T21:20:47.192Z,,0,,,NaN,,,,,,false,,,,780034.6999999881,780034.3999999762,,780033.8000000119,,780036.228,8,400,,,
break_continue,html.Screen,4_119_2,2023-10-31T21:20:47.192Z,,0,,,NaN,,,,,,false,,,,780035,780034.8999999762,,780034.8000000119,,780036.228,8,400,,,
sequence,flow.Sequence,4_119,2023-10-31T21:20:47.192Z,,0,,,3648.8949999761535,completion,,,,,false,,,,780035.3000000119,780034.8999999762,776369.339,776365.1999999881,776386.005,780036.228,8,400,,,
trial,html.Screen,4_120_0,2023-10-31T21:20:52.476Z,,0,3,,5282.372000023839,response,ISIC_8170849.JPG,8,ISIC_8708106.JPG,ISIC_8708106.JPG,false,0,keypress(z),500,785319,785318.6000000238,780019.562,780035.3000000119,780036.228,785336.016,8,400,21,,ISIC_8170849.JPG
break,html.Screen,4_120_1,2023-10-31T21:20:52.477Z,,0,,,NaN,,,,,,false,,,,785320.1000000238,785319.8999999762,,785319.3000000119,,785336.016,8,400,,,
break_continue,html.Screen,4_120_2,2023-10-31T21:20:52.477Z,,0,,,NaN,,,,,,false,,,,785320.5,785320.3999999762,,785320.1999999881,,785336.016,8,400,,,
sequence,flow.Sequence,4_120,2023-10-31T21:20:52.478Z,,0,,,5284.171999976155,completion,,,,,false,,,,785320.6000000238,785320.3999999762,780019.562,780035.3000000119,780036.228,785336.016,8,400,,,
trial,html.Screen,4_121_0,2023-10-31T21:20:57.073Z,,0,3,,4579.584000023897,response,ISIC_0009186.JPG,7,ISIC_0026780.JPG,ISIC_0009186.JPG,false,1,keypress(m),500,789916,789915.6000000238,785319.35,785320.6999999881,785336.016,789936.19,8,400,22,,ISIC_0026780.JPG
break,html.Screen,4_121_1,2023-10-31T21:20:57.074Z,,0,,,NaN,,,,,,false,,,,789917.1999999881,789916.8999999762,,789916.3000000119,,789936.19,8,400,,,
break_continue,html.Screen,4_121_2,2023-10-31T21:20:57.075Z,,0,,,NaN,,,,,,false,,,,789917.6000000238,789917.5,,789917.3999999762,,789936.19,8,400,,,
sequence,flow.Sequence,4_121,2023-10-31T21:20:57.075Z,,0,,,4581.484000000055,completion,,,,,false,,,,789917.6999999881,789917.5,785319.35,785320.6000000238,785336.016,789936.19,8,400,,,
trial,html.Screen,4_122_0,2023-10-31T21:21:02.103Z,,0,3,,5009.209999976214,response,ISIC_0011305.JPG,8,ISIC_8082460.JPG,ISIC_0011305.JPG,false,1,keypress(m),500,794945.8000000119,794945.3999999762,789919.524,789917.8000000119,789936.19,794952.656,8,400,23,,ISIC_8082460.JPG
break,html.Screen,4_122_1,2023-10-31T21:21:02.104Z,,0,,,NaN,,,,,,false,,,,794946.8999999762,794946.6000000238,,794946.1000000238,,794952.656,8,400,,,
break_continue,html.Screen,4_122_2,2023-10-31T21:21:02.104Z,,0,,,NaN,,,,,,false,,,,794947.3000000119,794947.1999999881,,794947.1000000238,,794952.656,8,400,,,
sequence,flow.Sequence,4_122,2023-10-31T21:21:02.104Z,,0,,,5011.009999988135,completion,,,,,false,,,,794947.5,794947.1999999881,789919.524,789917.8000000119,789936.19,794952.656,8,400,,,
trial,html.Screen,4_123_0,2023-10-31T21:21:06.606Z,,0,3,,4496.344000000041,response,ISIC_0069504.JPG,7,ISIC_8321148.JPG,ISIC_8321148.JPG,false,0,keypress(z),500,799449.3999999762,799449,794935.99,794947.6000000238,794952.656,799452.476,8,400,24,,ISIC_0069504.JPG
break,html.Screen,4_123_1,2023-10-31T21:21:06.608Z,,0,,,NaN,,,,,,false,,,,799450.5,799450.3000000119,,799449.8000000119,,799452.476,8,400,,,
break_continue,html.Screen,4_123_2,2023-10-31T21:21:06.609Z,,0,,,NaN,,,,,,false,,,,799452.3999999762,799452.1999999881,,799452.1000000238,,799452.476,8,400,,,
sequence,flow.Sequence,4_123,2023-10-31T21:21:06.610Z,,0,,,4499.54399998812,completion,,,,,false,,,,799452.5,799452.1999999881,794935.99,794947.6000000238,794952.656,799452.476,8,400,,,
trial,html.Screen,4_124_0,2023-10-31T21:21:09.927Z,,0,3,,3316.723999988055,response,ISIC_8566006.JPG,8,ISIC_2253931.JPG,ISIC_8566006.JPG,false,1,keypress(m),500,802769.6999999881,802769.1999999881,799435.81,799452.6000000238,799452.476,802786.04,8,400,25,,ISIC_2253931.JPG
break,html.Screen,4_124_1,2023-10-31T21:21:09.928Z,,0,,,NaN,,,,,,false,,,,802770.6999999881,802770.6000000238,,802769.8999999762,,802786.04,8,400,,,
break_continue,html.Screen,4_124_2,2023-10-31T21:21:09.928Z,,0,,,NaN,,,,,,false,,,,802771.1000000238,802771,,802770.8999999762,,802786.04,8,400,,,
sequence,flow.Sequence,4_124,2023-10-31T21:21:09.928Z,,0,,,3318.523999999976,completion,,,,,false,,,,802771.3999999762,802771,799435.81,799452.6000000238,799452.476,802786.04,8,400,,,
trial,html.Screen,4_125_0,2023-10-31T21:21:14.203Z,,0,3,,4259.560000023805,response,ISIC_6385627.JPG,7,ISIC_0025500.JPG,ISIC_0025500.JPG,false,0,keypress(z),500,807046.1000000238,807045.6000000238,802769.374,802771.5,802786.04,807052.536,8,400,26,,ISIC_6385627.JPG
break,html.Screen,4_125_1,2023-10-31T21:21:14.204Z,,0,,,NaN,,,,,,false,,,,807047.3999999762,807047,,807046.3000000119,,807052.536,8,400,,,
break_continue,html.Screen,4_125_2,2023-10-31T21:21:14.205Z,,0,,,NaN,,,,,,false,,,,807047.8000000119,807047.6999999881,,807047.5,,807052.536,8,400,,,
sequence,flow.Sequence,4_125,2023-10-31T21:21:14.205Z,,0,,,4261.659999988042,completion,,,,,false,,,,807048.1000000238,807047.6999999881,802769.374,802771.5,802786.04,807052.536,8,400,,,
trial,html.Screen,4_126_0,2023-10-31T21:21:19.697Z,,0,3,,5487.064000023878,response,ISIC_9288923.JPG,5,ISIC_0010879.JPG,ISIC_0010879.JPG,false,0,keypress(z),500,812540.1000000238,812539.6000000238,807035.87,807048.1999999881,807052.536,812552.772,8,400,27,,ISIC_9288923.JPG
