sender,sender_type,sender_id,timestamp,meta,,blockNo,condition,duration,ended_on,img_left,img_reveal,img_right,loser,practice,response,response_action,selection_duration,time_commit,time_end,time_render,time_run,time_show,time_switch,total_blocks,total_trials,trialNo,url,winner
informed_consent,html.Screen,0,2023-09-08T19:46:37.012Z,"{""labjs_version"":""20.2.4"",""labjs_build"":{""flavor"":""production"",""commit"":""f5b4a49f956347addd546a832a3327688c2c0fef""},""location"":""https://run.pavlovia.org/MurrayBennett/melanoma-2afc/?participant=64b74fc78ad5beabe87e901f&STUDY_ID=64f8c92207ba404bcb356c90&SESSION_ID=64fb79cf7bc497896bb38382&platform=prolific"",""userAgent"":""Mozilla/5.0 (Windows NT 10.0; Win64; x64; rv:109.0) Gecko/20100101 Firefox/117.0"",""platform"":""Win32"",""language"":""en-US"",""locale"":""en-US"",""timeZone"":""America/Los_Angeles"",""timezoneOffset"":420,""screen_width"":1920,""screen_height"":1080,""scroll_width"":1920,""scroll_height"":831,""window_innerWidth"":1920,""window_innerHeight"":879,""devicePixelRatio"":1}",,,,38019.24,response,,,,,,consent,click button,,40879,40867,2831.1,2836,2847.76,40883.02,,,,"{""participant"":""64b74fc78ad5beabe87e901f"",""STUDY_ID"":""64f8c92207ba404bcb356c90"",""SESSION_ID"":""64fb79cf7bc497896bb38382"",""platform"":""prolific""}",
Welcome,html.Screen,1,2023-09-08T19:48:50.982Z,,,,regular,133953.98,response,,,,,,continue,click button,,174849,174837,40876.4,40880,40883.02,174855.52,,,,,
trial,html.Screen,2_0_0,2023-09-08T19:48:58.830Z,,0,0,,7840.4800000000105,response,ISIC_4679428.JPG,,ISIC_0061792.JPG,ISIC_0061792.JPG,true,0,keypress(z),500,182697,182696,174846.32,174850,174855.52,182699.38,1,6,1,,ISIC_4679428.JPG
sequence,flow.Sequence,2_0,2023-09-08T19:48:58.831Z,,0,,,7840.4800000000105,completion,,,,,true,,,,182698,182696,174846.32,174850,174855.52,182699.38,1,6,,,
trial,html.Screen,2_1_0,2023-09-08T19:49:03.348Z,,0,0,,4513.619999999995,response,ISIC_0776486.JPG,,ISIC_5199497.JPG,ISIC_0776486.JPG,true,1,keypress(m),500,187214,187213,182698.66,182698,182699.38,187216.74,1,6,2,,ISIC_5199497.JPG
sequence,flow.Sequence,2_1,2023-09-08T19:49:03.349Z,,0,,,4513.619999999995,completion,,,,,true,,,,187215,187213,182698.66,182698,182699.38,187216.74,1,6,,,
trial,html.Screen,2_2_0,2023-09-08T19:49:07.354Z,,0,0,,4002.2600000000093,response,ISIC_8575776.JPG,,ISIC_2556187.JPG,ISIC_2556187.JPG,true,0,keypress(z),500,191220,191219,187216.02,187216,187216.74,191225.52,1,6,3,,ISIC_8575776.JPG
sequence,flow.Sequence,2_2,2023-09-08T19:49:07.354Z,,0,,,4002.2600000000093,completion,,,,,true,,,,191220,191219,187216.02,187215,187216.74,191225.52,1,6,,,
trial,html.Screen,2_3_0,2023-09-08T19:49:10.508Z,,0,0,,3148.4800000000105,response,ISIC_9238366.JPG,,ISIC_8141769.JPG,ISIC_8141769.JPG,true,0,keypress(z),500,194375,194374,191221.68,191221,191225.52,194377.44,1,6,4,,ISIC_9238366.JPG
sequence,flow.Sequence,2_3,2023-09-08T19:49:10.509Z,,0,,,3148.4800000000105,completion,,,,,true,,,,194376,194374,191221.68,191221,191225.52,194377.44,1,6,,,
trial,html.Screen,2_4_0,2023-09-08T19:49:14.020Z,,0,0,,3508.5599999999977,response,ISIC_8949026.JPG,,ISIC_9959593.JPG,ISIC_9959593.JPG,true,0,keypress(z),500,197887,197886,194376.58,194377,194377.44,197888.94,1,6,5,,ISIC_8949026.JPG
sequence,flow.Sequence,2_4,2023-09-08T19:49:14.021Z,,0,,,3508.5599999999977,completion,,,,,true,,,,197888,197886,194376.58,194377,194377.44,197888.94,1,6,,,
trial,html.Screen,2_5_0,2023-09-08T19:49:19.050Z,,0,0,,5028.059999999998,response,ISIC_0460240.JPG,,ISIC_0010479.JPG,ISIC_0010479.JPG,true,0,keypress(z),500,202917,202917,197888.08,197888,197888.94,202918.9,1,6,6,,ISIC_0460240.JPG
sequence,flow.Sequence,2_5,2023-09-08T19:49:19.051Z,,0,,,5028.059999999998,completion,,,,,true,,,,202918,202917,197888.08,197888,197888.94,202918.9,1,6,,,
loop,flow.Loop,2,2023-09-08T19:49:19.051Z,,,,,28061.48000000001,completion,,,,,true,,,,202918,202917,174846.32,174850,174855.52,202918.9,1,6,,,
exp_instructions,html.Screen,3,2023-09-08T19:49:32.250Z,,,,,13183.100000000006,response,,,,,,continue,keypress(Space),,216117,216102,202918.34,202918,202918.9,216121.54,,,,,
trial,html.Screen,4_0_0,2023-09-08T19:49:39.290Z,,0,1,,7036.459999999992,response,ISIC_1034397.JPG,20,ISIC_8704668.JPG,ISIC_1034397.JPG,false,1,keypress(m),500,223158,223158,216117.94,216118,216121.54,223158.06,8,400,1,,ISIC_8704668.JPG
break,html.Screen,4_0_1,2023-09-08T19:49:39.292Z,,0,,,NaN,,,,,,false,,,,223159,223158,,223158,,223158.06,8,400,,,
break_continue,html.Screen,4_0_2,2023-09-08T19:49:39.293Z,,0,,,NaN,,,,,,false,,,,223159,223159,,223159,,223158.06,8,400,,,
sequence,flow.Sequence,4_0,2023-09-08T19:49:39.293Z,,0,,,7037.459999999992,completion,,,,,false,,,,223159,223159,216117.94,216117,216121.54,223158.06,8,400,,,
trial,html.Screen,4_1_0,2023-09-08T19:49:50.775Z,,0,1,,11514.76000000001,timeout,ISIC_7489564.JPG,6,ISIC_0062133.JPG,ISIC_7489564.JPG,false,,,500,234642,234641,223157.64,223160,223158.06,234672.82,8,400,2,,ISIC_0062133.JPG
break,html.Screen,4_1_1,2023-09-08T19:49:50.777Z,,0,,,NaN,,,,,,false,,,,234644,234644,,234642,,234672.82,8,400,,,
break_continue,html.Screen,4_1_2,2023-09-08T19:49:50.779Z,,0,,,NaN,,,,,,false,,,,234646,234645,,234645,,234672.82,8,400,,,
sequence,flow.Sequence,4_1,2023-09-08T19:49:50.780Z,,0,,,11486.940000000002,completion,,,,,false,,,,234646,234645,223157.64,223160,223158.06,234672.82,8,400,,,
trial,html.Screen,4_2_0,2023-09-08T19:49:55.691Z,,0,1,,4884.179999999993,response,ISIC_0919467.JPG,12,ISIC_9512048.JPG,ISIC_9512048.JPG,false,0,keypress(z),500,239558,239557,234656.16,234646,234672.82,239558.46,8,400,3,,ISIC_0919467.JPG
break,html.Screen,4_2_1,2023-09-08T19:49:55.692Z,,0,,,NaN,,,,,,false,,,,239559,239558,,239558,,239558.46,8,400,,,
break_continue,html.Screen,4_2_2,2023-09-08T19:49:55.692Z,,0,,,NaN,,,,,,false,,,,239559,239559,,239559,,239558.46,8,400,,,
sequence,flow.Sequence,4_2,2023-09-08T19:49:55.693Z,,0,,,4886.179999999993,completion,,,,,false,,,,239559,239559,234656.16,234646,234672.82,239558.46,8,400,,,
trial,html.Screen,4_3_0,2023-09-08T19:50:00.477Z,,0,1,,4783.540000000008,response,ISIC_8712559.JPG,7,ISIC_0034232.JPG,ISIC_8712559.JPG,false,1,keypress(m),500,244343,244342,239558,239560,239558.46,244348.16,8,400,4,,ISIC_0034232.JPG
break,html.Screen,4_3_1,2023-09-08T19:50:00.479Z,,0,,,NaN,,,,,,false,,,,244345,244345,,244343,,244348.16,8,400,,,
break_continue,html.Screen,4_3_2,2023-09-08T19:50:00.480Z,,0,,,NaN,,,,,,false,,,,244347,244347,,244346,,244348.16,8,400,,,
sequence,flow.Sequence,4_3,2023-09-08T19:50:00.480Z,,0,,,4788.540000000008,completion,,,,,false,,,,244347,244347,239558,239559,239558.46,244348.16,8,400,,,
trial,html.Screen,4_4_0,2023-09-08T19:50:05.972Z,,0,1,,5490.8399999999965,response,ISIC_0010068.JPG,23,ISIC_3747979.JPG,ISIC_3747979.JPG,false,0,keypress(z),500,249840,249839,244343.58,244348,244348.16,249843.7,8,400,5,,ISIC_0010068.JPG
break,html.Screen,4_4_1,2023-09-08T19:50:05.975Z,,0,,,NaN,,,,,,false,,,,249843,249842,,249840,,249843.7,8,400,,,
break_continue,html.Screen,4_4_2,2023-09-08T19:50:05.976Z,,0,,,NaN,,,,,,false,,,,249844,249843,,249843,,249843.7,8,400,,,
sequence,flow.Sequence,4_4,2023-09-08T19:50:05.977Z,,0,,,5494.8399999999965,completion,,,,,false,,,,249844,249843,244343.58,244348,244348.16,249843.7,8,400,,,
trial,html.Screen,4_5_0,2023-09-08T19:50:10.479Z,,0,1,,4502.299999999988,response,ISIC_0001119.JPG,8,ISIC_3495799.JPG,ISIC_3495799.JPG,false,0,keypress(z),500,254347,254346,249840.16,249844,249843.7,254356.56,8,400,6,,ISIC_0001119.JPG
break,html.Screen,4_5_1,2023-09-08T19:50:10.482Z,,0,,,NaN,,,,,,false,,,,254349,254348,,254347,,254356.56,8,400,,,
break_continue,html.Screen,4_5_2,2023-09-08T19:50:10.483Z,,0,,,NaN,,,,,,false,,,,254350,254350,,254349,,254356.56,8,400,,,
sequence,flow.Sequence,4_5,2023-09-08T19:50:10.484Z,,0,,,4506.299999999988,completion,,,,,false,,,,254350,254350,249840.16,249844,249843.7,254356.56,8,400,,,
trial,html.Screen,4_6_0,2023-09-08T19:50:13.567Z,,0,1,,3077.4400000000023,response,ISIC_2077116.JPG,1,ISIC_4691689.JPG,ISIC_4691689.JPG,false,0,keypress(z),500,257435,257434,254346.62,254351,254356.56,257437.4,8,400,7,,ISIC_2077116.JPG
break,html.Screen,4_6_1,2023-09-08T19:50:13.570Z,,0,,,NaN,,,,,,false,,,,257437,257436,,257435,,257437.4,8,400,,,
break_continue,html.Screen,4_6_2,2023-09-08T19:50:13.571Z,,0,,,NaN,,,,,,false,,,,257439,257438,,257438,,257437.4,8,400,,,
sequence,flow.Sequence,4_6,2023-09-08T19:50:13.572Z,,0,,,3081.4400000000023,completion,,,,,false,,,,257439,257438,254346.62,254351,254356.56,257437.4,8,400,,,
trial,html.Screen,4_7_0,2023-09-08T19:50:17.643Z,,0,1,,4071.600000000006,response,ISIC_0207349.JPG,5,ISIC_7035368.JPG,ISIC_7035368.JPG,false,0,keypress(z),500,261510,261509,257435.08,257440,257437.4,261517.34,8,400,8,,ISIC_0207349.JPG
break,html.Screen,4_7_1,2023-09-08T19:50:17.645Z,,0,,,NaN,,,,,,false,,,,261512,261512,,261510,,261517.34,8,400,,,
break_continue,html.Screen,4_7_2,2023-09-08T19:50:17.647Z,,0,,,NaN,,,,,,false,,,,261514,261513,,261513,,261517.34,8,400,,,
sequence,flow.Sequence,4_7,2023-09-08T19:50:17.647Z,,0,,,4075.600000000006,completion,,,,,false,,,,261514,261513,257435.08,257439,257437.4,261517.34,8,400,,,
trial,html.Screen,4_8_0,2023-09-08T19:50:22.023Z,,0,1,,4371.6600000000035,response,ISIC_0069058.JPG,5,ISIC_6145261.JPG,ISIC_0069058.JPG,false,1,keypress(m),500,265889,265889,261510.56,261514,261517.34,265897.06,8,400,9,,ISIC_6145261.JPG
break,html.Screen,4_8_1,2023-09-08T19:50:22.025Z,,0,,,NaN,,,,,,false,,,,265891,265891,,265889,,265897.06,8,400,,,
break_continue,html.Screen,4_8_2,2023-09-08T19:50:22.026Z,,0,,,NaN,,,,,,false,,,,265892,265892,,265892,,265897.06,8,400,,,
sequence,flow.Sequence,4_8,2023-09-08T19:50:22.026Z,,0,,,4374.6600000000035,completion,,,,,false,,,,265893,265892,261510.56,261514,261517.34,265897.06,8,400,,,
trial,html.Screen,4_9_0,2023-09-08T19:50:25.379Z,,0,1,,3348.9400000000023,response,ISIC_0010777.JPG,6,ISIC_1390308.JPG,ISIC_1390308.JPG,false,0,keypress(z),500,269246,269246,265889.92,265894,265897.06,269246.68,8,400,10,,ISIC_0010777.JPG
break,html.Screen,4_9_1,2023-09-08T19:50:25.380Z,,0,,,NaN,,,,,,false,,,,269247,269247,,269246,,269246.68,8,400,,,
break_continue,html.Screen,4_9_2,2023-09-08T19:50:25.381Z,,0,,,NaN,,,,,,false,,,,269248,269248,,269248,,269246.68,8,400,,,
sequence,flow.Sequence,4_9,2023-09-08T19:50:25.382Z,,0,,,3350.9400000000023,completion,,,,,false,,,,269248,269248,265889.92,265893,265897.06,269246.68,8,400,,,
trial,html.Screen,4_10_0,2023-09-08T19:50:30.866Z,,0,1,,5485.320000000007,response,ISIC_0030969.JPG,11,ISIC_0000180.JPG,ISIC_0030969.JPG,false,1,keypress(m),500,274732,274732,269246.02,269249,269246.68,274739.78,8,400,11,,ISIC_0000180.JPG
break,html.Screen,4_10_1,2023-09-08T19:50:30.868Z,,0,,,NaN,,,,,,false,,,,274735,274734,,274733,,274739.78,8,400,,,
break_continue,html.Screen,4_10_2,2023-09-08T19:50:30.870Z,,0,,,NaN,,,,,,false,,,,274736,274736,,274735,,274739.78,8,400,,,
sequence,flow.Sequence,4_10,2023-09-08T19:50:30.870Z,,0,,,5489.320000000007,completion,,,,,false,,,,274737,274736,269246.02,269249,269246.68,274739.78,8,400,,,
trial,html.Screen,4_11_0,2023-09-08T19:50:34.384Z,,0,1,,3511.219999999972,response,ISIC_0001152.JPG,30,ISIC_0030484.JPG,ISIC_0001152.JPG,false,1,keypress(m),500,278251,278251,274733.24,274737,274739.78,278253.52,8,400,12,,ISIC_0030484.JPG
break,html.Screen,4_11_1,2023-09-08T19:50:34.386Z,,0,,,NaN,,,,,,false,,,,278253,278252,,278251,,278253.52,8,400,,,
break_continue,html.Screen,4_11_2,2023-09-08T19:50:34.388Z,,0,,,NaN,,,,,,false,,,,278254,278254,,278253,,278253.52,8,400,,,
sequence,flow.Sequence,4_11,2023-09-08T19:50:34.388Z,,0,,,3514.219999999972,completion,,,,,false,,,,278255,278254,274733.24,274737,274739.78,278253.52,8,400,,,
trial,html.Screen,4_12_0,2023-09-08T19:50:38.116Z,,0,1,,3729.4799999999814,response,ISIC_0030694.JPG,1,ISIC_6644834.JPG,ISIC_0030694.JPG,false,1,keypress(m),500,281983,281983,278251.2,278255,278253.52,281984.24,8,400,13,,ISIC_6644834.JPG
break,html.Screen,4_12_1,2023-09-08T19:50:38.119Z,,0,,,NaN,,,,,,false,,,,281985,281984,,281983,,281984.24,8,400,,,
break_continue,html.Screen,4_12_2,2023-09-08T19:50:38.120Z,,0,,,NaN,,,,,,false,,,,281987,281986,,281986,,281984.24,8,400,,,
sequence,flow.Sequence,4_12,2023-09-08T19:50:38.121Z,,0,,,3732.4799999999814,completion,,,,,false,,,,281987,281986,278251.2,278255,278253.52,281984.24,8,400,,,
trial,html.Screen,4_13_0,2023-09-08T19:50:42.649Z,,0,1,,4530.760000000009,response,ISIC_0061265.JPG,2,ISIC_8712559.JPG,ISIC_0061265.JPG,false,1,keypress(m),500,286516,286515,281983.54,281988,281984.24,286516.94,8,400,14,,ISIC_8712559.JPG
break,html.Screen,4_13_1,2023-09-08T19:50:42.652Z,,0,,,NaN,,,,,,false,,,,286518,286518,,286516,,286516.94,8,400,,,
break_continue,html.Screen,4_13_2,2023-09-08T19:50:42.653Z,,0,,,NaN,,,,,,false,,,,286520,286519,,286518,,286516.94,8,400,,,
sequence,flow.Sequence,4_13,2023-09-08T19:50:42.654Z,,0,,,4534.760000000009,completion,,,,,false,,,,286520,286519,281983.54,281987,281984.24,286516.94,8,400,,,
trial,html.Screen,4_14_0,2023-09-08T19:50:47.070Z,,0,1,,4420.059999999998,response,ISIC_1306790.JPG,23,ISIC_7545340.JPG,ISIC_7545340.JPG,false,0,keypress(z),500,290937,290937,286516.24,286521,286516.94,290943.08,8,400,15,,ISIC_1306790.JPG
break,html.Screen,4_14_1,2023-09-08T19:50:47.072Z,,0,,,NaN,,,,,,false,,,,290939,290939,,290937,,290943.08,8,400,,,
break_continue,html.Screen,4_14_2,2023-09-08T19:50:47.073Z,,0,,,NaN,,,,,,false,,,,290940,290940,,290940,,290943.08,8,400,,,
sequence,flow.Sequence,4_14,2023-09-08T19:50:47.074Z,,0,,,4423.059999999998,completion,,,,,false,,,,290941,290940,286516.24,286521,286516.94,290943.08,8,400,,,
trial,html.Screen,4_15_0,2023-09-08T19:50:51.282Z,,0,1,,4204.919999999984,response,ISIC_3072382.JPG,3,ISIC_0058658.JPG,ISIC_0058658.JPG,false,0,keypress(z),500,295149,295148,290937.44,290942,290943.08,295150.24,8,400,16,,ISIC_3072382.JPG
break,html.Screen,4_15_1,2023-09-08T19:50:51.284Z,,0,,,NaN,,,,,,false,,,,295151,295151,,295150,,295150.24,8,400,,,
break_continue,html.Screen,4_15_2,2023-09-08T19:50:51.284Z,,0,,,NaN,,,,,,false,,,,295151,295151,,295151,,295150.24,8,400,,,
sequence,flow.Sequence,4_15,2023-09-08T19:50:51.285Z,,0,,,4207.919999999984,completion,,,,,false,,,,295151,295151,290937.44,290941,290943.08,295150.24,8,400,,,
trial,html.Screen,4_16_0,2023-09-08T19:50:55.849Z,,0,1,,4565.760000000009,response,ISIC_0031742.JPG,7,ISIC_1453146.JPG,ISIC_0031742.JPG,false,1,keypress(m),500,299716,299716,295149.36,295151,295150.24,299719.04,8,400,17,,ISIC_1453146.JPG
break,html.Screen,4_16_1,2023-09-08T19:50:55.851Z,,0,,,NaN,,,,,,false,,,,299717,299717,,299716,,299719.04,8,400,,,
break_continue,html.Screen,4_16_2,2023-09-08T19:50:55.852Z,,0,,,NaN,,,,,,false,,,,299719,299719,,299719,,299719.04,8,400,,,
sequence,flow.Sequence,4_16,2023-09-08T19:50:55.852Z,,0,,,4568.760000000009,completion,,,,,false,,,,299719,299719,295149.36,295151,295150.24,299719.04,8,400,,,
trial,html.Screen,4_17_0,2023-09-08T19:51:01.613Z,,0,1,,5760.960000000021,response,ISIC_7575815.JPG,7,ISIC_6617618.JPG,ISIC_6617618.JPG,false,0,keypress(z),500,305480,305480,299716.78,299719,299719.04,305480.76,8,400,18,,ISIC_7575815.JPG
break,html.Screen,4_17_1,2023-09-08T19:51:01.615Z,,0,,,NaN,,,,,,false,,,,305482,305482,,305480,,305480.76,8,400,,,
break_continue,html.Screen,4_17_2,2023-09-08T19:51:01.617Z,,0,,,NaN,,,,,,false,,,,305483,305483,,305482,,305480.76,8,400,,,
sequence,flow.Sequence,4_17,2023-09-08T19:51:01.617Z,,0,,,5763.960000000021,completion,,,,,false,,,,305483,305483,299716.78,299719,299719.04,305480.76,8,400,,,
trial,html.Screen,4_18_0,2023-09-08T19:51:07.424Z,,0,1,,5809.239999999991,response,ISIC_5552381.JPG,4,ISIC_2287151.JPG,ISIC_2287151.JPG,false,0,keypress(z),500,311291,311290,305479.96,305484,305480.76,311292.64,8,400,19,,ISIC_5552381.JPG
break,html.Screen,4_18_1,2023-09-08T19:51:07.426Z,,0,,,NaN,,,,,,false,,,,311293,311293,,311291,,311292.64,8,400,,,
break_continue,html.Screen,4_18_2,2023-09-08T19:51:07.427Z,,0,,,NaN,,,,,,false,,,,311295,311294,,311294,,311292.64,8,400,,,
sequence,flow.Sequence,4_18,2023-09-08T19:51:07.428Z,,0,,,5813.239999999991,completion,,,,,false,,,,311295,311294,305479.96,305484,305480.76,311292.64,8,400,,,
trial,html.Screen,4_19_0,2023-09-08T19:51:11.836Z,,0,1,,4409.359999999986,response,ISIC_6507492.JPG,21,ISIC_0536433.JPG,ISIC_6507492.JPG,false,1,keypress(m),500,315703,315702,311291.28,311295,311292.64,315705.86,8,400,20,,ISIC_0536433.JPG
break,html.Screen,4_19_1,2023-09-08T19:51:11.839Z,,0,,,NaN,,,,,,false,,,,315706,315705,,315703,,315705.86,8,400,,,
break_continue,html.Screen,4_19_2,2023-09-08T19:51:11.840Z,,0,,,NaN,,,,,,false,,,,315706,315706,,315706,,315705.86,8,400,,,
sequence,flow.Sequence,4_19,2023-09-08T19:51:11.840Z,,0,,,4413.359999999986,completion,,,,,false,,,,315707,315706,311291.28,311295,311292.64,315705.86,8,400,,,
trial,html.Screen,4_20_0,2023-09-08T19:51:17.620Z,,0,1,,5781.140000000014,response,ISIC_0062980.JPG,9,ISIC_0033533.JPG,ISIC_0062980.JPG,false,1,keypress(m),500,321487,321487,315703.56,315707,315705.86,321488.1,8,400,21,,ISIC_0033533.JPG
break,html.Screen,4_20_1,2023-09-08T19:51:17.622Z,,0,,,NaN,,,,,,false,,,,321489,321489,,321488,,321488.1,8,400,,,
break_continue,html.Screen,4_20_2,2023-09-08T19:51:17.623Z,,0,,,NaN,,,,,,false,,,,321491,321490,,321490,,321488.1,8,400,,,
sequence,flow.Sequence,4_20,2023-09-08T19:51:17.624Z,,0,,,5784.140000000014,completion,,,,,false,,,,321491,321490,315703.56,315707,315705.86,321488.1,8,400,,,
trial,html.Screen,4_21_0,2023-09-08T19:51:20.917Z,,0,1,,3294.9000000000233,response,ISIC_0757147.JPG,3,ISIC_3809998.JPG,ISIC_3809998.JPG,false,0,keypress(z),500,324783,324783,321487.44,321492,321488.1,324784.46,8,400,22,,ISIC_0757147.JPG
break,html.Screen,4_21_1,2023-09-08T19:51:20.918Z,,0,,,NaN,,,,,,false,,,,324786,324784,,324783,,324784.46,8,400,,,
break_continue,html.Screen,4_21_2,2023-09-08T19:51:20.919Z,,0,,,NaN,,,,,,false,,,,324787,324787,,324786,,324784.46,8,400,,,
sequence,flow.Sequence,4_21,2023-09-08T19:51:20.920Z,,0,,,3298.9000000000233,completion,,,,,false,,,,324787,324787,321487.44,321492,321488.1,324784.46,8,400,,,
trial,html.Screen,4_22_0,2023-09-08T19:51:25.073Z,,0,1,,4154.539999999979,response,ISIC_0026258.JPG,5,ISIC_0025093.JPG,ISIC_0026258.JPG,false,1,keypress(m),500,328940,328939,324783.6,324788,324784.46,328944.98,8,400,23,,ISIC_0025093.JPG
break,html.Screen,4_22_1,2023-09-08T19:51:25.076Z,,0,,,NaN,,,,,,false,,,,328942,328942,,328940,,328944.98,8,400,,,
break_continue,html.Screen,4_22_2,2023-09-08T19:51:25.077Z,,0,,,NaN,,,,,,false,,,,328943,328943,,328942,,328944.98,8,400,,,
sequence,flow.Sequence,4_22,2023-09-08T19:51:25.077Z,,0,,,4158.539999999979,completion,,,,,false,,,,328944,328943,324783.6,324788,324784.46,328944.98,8,400,,,
trial,html.Screen,4_23_0,2023-09-08T19:51:28.788Z,,0,1,,3710.0200000000186,response,ISIC_0046725.JPG,6,ISIC_9611100.JPG,ISIC_0046725.JPG,false,1,keypress(m),500,332655,332655,328940.18,328944,328944.98,332658.48,8,400,24,,ISIC_9611100.JPG
break,html.Screen,4_23_1,2023-09-08T19:51:28.790Z,,0,,,NaN,,,,,,false,,,,332658,332656,,332655,,332658.48,8,400,,,
break_continue,html.Screen,4_23_2,2023-09-08T19:51:28.792Z,,0,,,NaN,,,,,,false,,,,332659,332658,,332658,,332658.48,8,400,,,
sequence,flow.Sequence,4_23,2023-09-08T19:51:28.792Z,,0,,,3713.0200000000186,completion,,,,,false,,,,332659,332658,328940.18,328944,328944.98,332658.48,8,400,,,
trial,html.Screen,4_24_0,2023-09-08T19:51:34.203Z,,0,1,,5410.520000000019,response,ISIC_0009971.JPG,1,ISIC_9465061.JPG,ISIC_9465061.JPG,false,0,keypress(z),500,338070,338069,332655.74,332660,332658.48,338070.64,8,400,25,,ISIC_0009971.JPG
break,html.Screen,4_24_1,2023-09-08T19:51:34.205Z,,0,,,NaN,,,,,,false,,,,338071,338071,,338070,,338070.64,8,400,,,
break_continue,html.Screen,4_24_2,2023-09-08T19:51:34.206Z,,0,,,NaN,,,,,,false,,,,338072,338072,,338072,,338070.64,8,400,,,
sequence,flow.Sequence,4_24,2023-09-08T19:51:34.207Z,,0,,,5413.520000000019,completion,,,,,false,,,,338073,338072,332655.74,332660,332658.48,338070.64,8,400,,,
trial,html.Screen,4_25_0,2023-09-08T19:51:37.736Z,,0,1,,3531.359999999986,response,ISIC_0929483.JPG,1,ISIC_7342636.JPG,ISIC_7342636.JPG,false,0,keypress(z),500,341602,341602,338069.82,338073,338070.64,341603.42,8,400,26,,ISIC_0929483.JPG
break,html.Screen,4_25_1,2023-09-08T19:51:37.738Z,,0,,,NaN,,,,,,false,,,,341604,341604,,341602,,341603.42,8,400,,,
break_continue,html.Screen,4_25_2,2023-09-08T19:51:37.739Z,,0,,,NaN,,,,,,false,,,,341605,341605,,341604,,341603.42,8,400,,,
sequence,flow.Sequence,4_25,2023-09-08T19:51:37.739Z,,0,,,3534.359999999986,completion,,,,,false,,,,341606,341605,338069.82,338073,338070.64,341603.42,8,400,,,
trial,html.Screen,4_26_0,2023-09-08T19:51:41.101Z,,0,1,,3363.5800000000163,response,ISIC_0033318.JPG,9,ISIC_0031999.JPG,ISIC_0031999.JPG,false,0,keypress(z),500,344968,344967,341602.62,341606,341603.42,344968.84,8,400,27,,ISIC_0033318.JPG
break,html.Screen,4_26_1,2023-09-08T19:51:41.103Z,,0,,,NaN,,,,,,false,,,,344970,344969,,344968,,344968.84,8,400,,,
break_continue,html.Screen,4_26_2,2023-09-08T19:51:41.104Z,,0,,,NaN,,,,,,false,,,,344971,344970,,344970,,344968.84,8,400,,,
sequence,flow.Sequence,4_26,2023-09-08T19:51:41.104Z,,0,,,3366.5800000000163,completion,,,,,false,,,,344972,344970,341602.62,341606,341603.42,344968.84,8,400,,,
trial,html.Screen,4_27_0,2023-09-08T19:51:46.646Z,,0,1,,5543.159999999974,response,ISIC_6801988.JPG,7,ISIC_4249893.JPG,ISIC_4249893.JPG,false,0,keypress(z),500,350512,350512,344967.98,344972,344968.84,350513.54,8,400,28,,ISIC_6801988.JPG
break,html.Screen,4_27_1,2023-09-08T19:51:46.648Z,,0,,,NaN,,,,,,false,,,,350515,350514,,350513,,350513.54,8,400,,,
break_continue,html.Screen,4_27_2,2023-09-08T19:51:46.650Z,,0,,,NaN,,,,,,false,,,,350516,350516,,350515,,350513.54,8,400,,,
sequence,flow.Sequence,4_27,2023-09-08T19:51:46.650Z,,0,,,5547.159999999974,completion,,,,,false,,,,350516,350516,344967.98,344972,344968.84,350513.54,8,400,,,
trial,html.Screen,4_28_0,2023-09-08T19:51:50.236Z,,0,1,,3588.460000000021,response,ISIC_3060248.JPG,2,ISIC_0072290.JPG,ISIC_3060248.JPG,false,1,keypress(m),500,354103,354102,350512.9,350517,350513.54,354107.5,8,400,29,,ISIC_0072290.JPG
break,html.Screen,4_28_1,2023-09-08T19:51:50.239Z,,0,,,NaN,,,,,,false,,,,354105,354105,,354103,,354107.5,8,400,,,
break_continue,html.Screen,4_28_2,2023-09-08T19:51:50.240Z,,0,,,NaN,,,,,,false,,,,354106,354106,,354105,,354107.5,8,400,,,
sequence,flow.Sequence,4_28,2023-09-08T19:51:50.240Z,,0,,,3592.460000000021,completion,,,,,false,,,,354107,354106,350512.9,350517,350513.54,354107.5,8,400,,,
trial,html.Screen,4_29_0,2023-09-08T19:51:53.704Z,,0,1,,3463.5,response,ISIC_8704257.JPG,1,ISIC_9511265.JPG,ISIC_8704257.JPG,false,1,keypress(m),500,357571,357571,354103.32,354107,354107.5,357572.78,8,400,30,,ISIC_9511265.JPG
break,html.Screen,4_29_1,2023-09-08T19:51:53.707Z,,0,,,NaN,,,,,,false,,,,357574,357573,,357572,,357572.78,8,400,,,
break_continue,html.Screen,4_29_2,2023-09-08T19:51:53.708Z,,0,,,NaN,,,,,,false,,,,357575,357575,,357574,,357572.78,8,400,,,
sequence,flow.Sequence,4_29,2023-09-08T19:51:53.709Z,,0,,,3467.5,completion,,,,,false,,,,357576,357575,354103.32,354107,354107.5,357572.78,8,400,,,
trial,html.Screen,4_30_0,2023-09-08T19:51:59.046Z,,0,1,,5339.219999999972,response,ISIC_9559922.JPG,13,ISIC_0063191.JPG,ISIC_0063191.JPG,false,0,keypress(z),500,362913,362912,357572.08,357576,357572.78,362916.8,8,400,31,,ISIC_9559922.JPG
break,html.Screen,4_30_1,2023-09-08T19:51:59.048Z,,0,,,NaN,,,,,,false,,,,362915,362914,,362913,,362916.8,8,400,,,
break_continue,html.Screen,4_30_2,2023-09-08T19:51:59.049Z,,0,,,NaN,,,,,,false,,,,362916,362915,,362915,,362916.8,8,400,,,
sequence,flow.Sequence,4_30,2023-09-08T19:51:59.050Z,,0,,,5342.219999999972,completion,,,,,false,,,,362916,362915,357572.08,357576,357572.78,362916.8,8,400,,,
trial,html.Screen,4_31_0,2023-09-08T19:52:03.921Z,,0,1,,4870.200000000012,response,ISIC_6657600.JPG,12,ISIC_5790319.JPG,ISIC_5790319.JPG,false,0,keypress(z),500,367787,367787,362913.26,362917,362916.8,367796.2,8,400,32,,ISIC_6657600.JPG
break,html.Screen,4_31_1,2023-09-08T19:52:03.922Z,,0,,,NaN,,,,,,false,,,,367790,367789,,367787,,367796.2,8,400,,,
break_continue,html.Screen,4_31_2,2023-09-08T19:52:03.923Z,,0,,,NaN,,,,,,false,,,,367791,367791,,367790,,367796.2,8,400,,,
sequence,flow.Sequence,4_31,2023-09-08T19:52:03.924Z,,0,,,4874.200000000012,completion,,,,,false,,,,367791,367791,362913.26,362917,362916.8,367796.2,8,400,,,
trial,html.Screen,4_32_0,2023-09-08T19:52:09.700Z,,0,1,,5769.799999999988,response,ISIC_4868926.JPG,9,ISIC_0071806.JPG,ISIC_0071806.JPG,false,0,keypress(z),500,373567,373566,367787.82,367791,367796.2,373574.7,8,400,33,,ISIC_4868926.JPG
break,html.Screen,4_32_1,2023-09-08T19:52:09.702Z,,0,,,NaN,,,,,,false,,,,373569,373568,,373567,,373574.7,8,400,,,
break_continue,html.Screen,4_32_2,2023-09-08T19:52:09.704Z,,0,,,NaN,,,,,,false,,,,373571,373570,,373570,,373574.7,8,400,,,
sequence,flow.Sequence,4_32,2023-09-08T19:52:09.704Z,,0,,,5773.799999999988,completion,,,,,false,,,,373571,373570,367787.82,367791,367796.2,373574.7,8,400,,,
trial,html.Screen,4_33_0,2023-09-08T19:52:15.801Z,,0,1,,6092.299999999988,response,ISIC_0009886.JPG,26,ISIC_0015455.JPG,ISIC_0015455.JPG,false,0,keypress(z),500,379668,379667,373567.52,373572,373574.7,379669.16,8,400,34,,ISIC_0009886.JPG
break,html.Screen,4_33_1,2023-09-08T19:52:15.803Z,,0,,,NaN,,,,,,false,,,,379670,379670,,379668,,379669.16,8,400,,,
break_continue,html.Screen,4_33_2,2023-09-08T19:52:15.805Z,,0,,,NaN,,,,,,false,,,,379671,379671,,379670,,379669.16,8,400,,,
sequence,flow.Sequence,4_33,2023-09-08T19:52:15.805Z,,0,,,6096.299999999988,completion,,,,,false,,,,379671,379671,373567.52,373571,373574.7,379669.16,8,400,,,
trial,html.Screen,4_34_0,2023-09-08T19:52:20.151Z,,0,1,,4346.840000000026,response,ISIC_0010707.JPG,5,ISIC_0013817.JPG,ISIC_0010707.JPG,false,1,keypress(m),500,384018,384016,379668.32,379672,379669.16,384018.58,8,400,35,,ISIC_0013817.JPG
break,html.Screen,4_34_1,2023-09-08T19:52:20.153Z,,0,,,NaN,,,,,,false,,,,384019,384019,,384018,,384018.58,8,400,,,
break_continue,html.Screen,4_34_2,2023-09-08T19:52:20.154Z,,0,,,NaN,,,,,,false,,,,384021,384021,,384019,,384018.58,8,400,,,
sequence,flow.Sequence,4_34,2023-09-08T19:52:20.155Z,,0,,,4351.840000000026,completion,,,,,false,,,,384021,384021,379668.32,379672,379669.16,384018.58,8,400,,,
trial,html.Screen,4_35_0,2023-09-08T19:52:23.462Z,,0,1,,3309.4199999999837,response,ISIC_5602826.JPG,4,ISIC_8671119.JPG,ISIC_5602826.JPG,false,1,keypress(m),500,387329,387328,384017.7,384022,384018.58,387330.16,8,400,36,,ISIC_8671119.JPG
break,html.Screen,4_35_1,2023-09-08T19:52:23.464Z,,0,,,NaN,,,,,,false,,,,387331,387331,,387330,,387330.16,8,400,,,
break_continue,html.Screen,4_35_2,2023-09-08T19:52:23.465Z,,0,,,NaN,,,,,,false,,,,387332,387332,,387331,,387330.16,8,400,,,
sequence,flow.Sequence,4_35,2023-09-08T19:52:23.466Z,,0,,,3313.4199999999837,completion,,,,,false,,,,387333,387332,384017.7,384022,384018.58,387330.16,8,400,,,
trial,html.Screen,4_36_0,2023-09-08T19:52:29.126Z,,0,1,,5661.840000000026,response,ISIC_2783450.JPG,8,ISIC_0055388.JPG,ISIC_0055388.JPG,false,0,keypress(z),500,392993,392992,387329.34,387333,387330.16,392994.02,8,400,37,,ISIC_2783450.JPG
break,html.Screen,4_36_1,2023-09-08T19:52:29.128Z,,0,,,NaN,,,,,,false,,,,392995,392994,,392993,,392994.02,8,400,,,
break_continue,html.Screen,4_36_2,2023-09-08T19:52:29.130Z,,0,,,NaN,,,,,,false,,,,392996,392995,,392995,,392994.02,8,400,,,
sequence,flow.Sequence,4_36,2023-09-08T19:52:29.130Z,,0,,,5664.840000000026,completion,,,,,false,,,,392996,392995,387329.34,387333,387330.16,392994.02,8,400,,,
trial,html.Screen,4_37_0,2023-09-08T19:52:34.649Z,,0,1,,5519.979999999981,response,ISIC_0062161.JPG,9,ISIC_5790319.JPG,ISIC_0062161.JPG,false,1,keypress(m),500,398515,398514,392993.18,392996,392994.02,398520.7,8,400,38,,ISIC_5790319.JPG
break,html.Screen,4_37_1,2023-09-08T19:52:34.651Z,,0,,,NaN,,,,,,false,,,,398517,398517,,398515,,398520.7,8,400,,,
break_continue,html.Screen,4_37_2,2023-09-08T19:52:34.651Z,,0,,,NaN,,,,,,false,,,,398519,398518,,398517,,398520.7,8,400,,,
sequence,flow.Sequence,4_37,2023-09-08T19:52:34.652Z,,0,,,5523.979999999981,completion,,,,,false,,,,398519,398518,392993.18,392996,392994.02,398520.7,8,400,,,
trial,html.Screen,4_38_0,2023-09-08T19:52:38.315Z,,0,1,,3661.2999999999884,response,ISIC_6125652.JPG,3,ISIC_8190708.JPG,ISIC_6125652.JPG,false,1,keypress(m),500,402182,402182,398515.64,398520,398520.7,402184.42,8,400,39,,ISIC_8190708.JPG
break,html.Screen,4_38_1,2023-09-08T19:52:38.317Z,,0,,,NaN,,,,,,false,,,,402184,402184,,402183,,402184.42,8,400,,,
break_continue,html.Screen,4_38_2,2023-09-08T19:52:38.318Z,,0,,,NaN,,,,,,false,,,,402186,402185,,402185,,402184.42,8,400,,,
sequence,flow.Sequence,4_38,2023-09-08T19:52:38.319Z,,0,,,3664.2999999999884,completion,,,,,false,,,,402186,402185,398515.64,398519,398520.7,402184.42,8,400,,,
trial,html.Screen,4_39_0,2023-09-08T19:52:43.002Z,,0,1,,4684.580000000016,response,ISIC_0065324.JPG,9,ISIC_0218575.JPG,ISIC_0065324.JPG,false,1,keypress(m),500,406869,406869,402182.38,402186,402184.42,406870.3,8,400,40,,ISIC_0218575.JPG
break,html.Screen,4_39_1,2023-09-08T19:52:43.004Z,,0,,,NaN,,,,,,false,,,,406871,406871,,406869,,406870.3,8,400,,,
break_continue,html.Screen,4_39_2,2023-09-08T19:52:43.006Z,,0,,,NaN,,,,,,false,,,,406872,406872,,406871,,406870.3,8,400,,,
sequence,flow.Sequence,4_39,2023-09-08T19:52:43.006Z,,0,,,4687.580000000016,completion,,,,,false,,,,406873,406872,402182.38,402186,402184.42,406870.3,8,400,,,
trial,html.Screen,4_40_0,2023-09-08T19:52:48.598Z,,0,1,,5593.700000000012,response,ISIC_6188469.JPG,7,ISIC_0061583.JPG,ISIC_0061583.JPG,false,0,keypress(z),500,412465,412464,406869.56,406874,406870.3,412465.66,8,400,41,,ISIC_6188469.JPG
break,html.Screen,4_40_1,2023-09-08T19:52:48.600Z,,0,,,NaN,,,,,,false,,,,412467,412467,,412465,,412465.66,8,400,,,
break_continue,html.Screen,4_40_2,2023-09-08T19:52:48.601Z,,0,,,NaN,,,,,,false,,,,412468,412468,,412467,,412465.66,8,400,,,
sequence,flow.Sequence,4_40,2023-09-08T19:52:48.602Z,,0,,,5597.700000000012,completion,,,,,false,,,,412468,412468,406869.56,406874,406870.3,412465.66,8,400,,,
trial,html.Screen,4_41_0,2023-09-08T19:52:54.084Z,,0,1,,5485.340000000026,response,ISIC_0014857.JPG,18,ISIC_0033452.JPG,ISIC_0014857.JPG,false,1,keypress(m),500,417951,417951,412464.98,412469,412465.66,417954.68,8,400,42,,ISIC_0033452.JPG
break,html.Screen,4_41_1,2023-09-08T19:52:54.085Z,,0,,,NaN,,,,,,false,,,,417953,417952,,417951,,417954.68,8,400,,,
break_continue,html.Screen,4_41_2,2023-09-08T19:52:54.087Z,,0,,,NaN,,,,,,false,,,,417954,417953,,417953,,417954.68,8,400,,,
sequence,flow.Sequence,4_41,2023-09-08T19:52:54.087Z,,0,,,5487.340000000026,completion,,,,,false,,,,417954,417953,412464.98,412469,412465.66,417954.68,8,400,,,
trial,html.Screen,4_42_0,2023-09-08T19:52:59.100Z,,0,1,,5011.320000000007,response,ISIC_4640181.JPG,2,ISIC_0031070.JPG,ISIC_0031070.JPG,false,0,keypress(z),500,422967,422966,417951.1,417954,417954.68,422968.48,8,400,43,,ISIC_4640181.JPG
break,html.Screen,4_42_1,2023-09-08T19:52:59.102Z,,0,,,NaN,,,,,,false,,,,422969,422969,,422967,,422968.48,8,400,,,
break_continue,html.Screen,4_42_2,2023-09-08T19:52:59.104Z,,0,,,NaN,,,,,,false,,,,422970,422970,,422969,,422968.48,8,400,,,
sequence,flow.Sequence,4_42,2023-09-08T19:52:59.104Z,,0,,,5015.320000000007,completion,,,,,false,,,,422971,422970,417951.1,417954,417954.68,422968.48,8,400,,,
trial,html.Screen,4_43_0,2023-09-08T19:53:03.277Z,,0,1,,4174.520000000019,response,ISIC_0000441.JPG,18,ISIC_5422432.JPG,ISIC_0000441.JPG,false,1,keypress(m),500,427143,427143,422967.64,422971,422968.48,427147.1,8,400,44,,ISIC_5422432.JPG
break,html.Screen,4_43_1,2023-09-08T19:53:03.279Z,,0,,,NaN,,,,,,false,,,,427145,427145,,427144,,427147.1,8,400,,,
break_continue,html.Screen,4_43_2,2023-09-08T19:53:03.280Z,,0,,,NaN,,,,,,false,,,,427147,427146,,427145,,427147.1,8,400,,,
sequence,flow.Sequence,4_43,2023-09-08T19:53:03.280Z,,0,,,4177.520000000019,completion,,,,,false,,,,427147,427146,422967.64,422971,422968.48,427147.1,8,400,,,
trial,html.Screen,4_44_0,2023-09-08T19:53:08.015Z,,0,1,,4733.900000000023,response,ISIC_1379601.JPG,12,ISIC_0024263.JPG,ISIC_0024263.JPG,false,0,keypress(z),500,431882,431881,427143.88,427148,427147.1,431882.58,8,400,45,,ISIC_1379601.JPG
break,html.Screen,4_44_1,2023-09-08T19:53:08.017Z,,0,,,NaN,,,,,,false,,,,431883,431883,,431882,,431882.58,8,400,,,
break_continue,html.Screen,4_44_2,2023-09-08T19:53:08.018Z,,0,,,NaN,,,,,,false,,,,431884,431884,,431883,,431882.58,8,400,,,
sequence,flow.Sequence,4_44,2023-09-08T19:53:08.018Z,,0,,,4736.900000000023,completion,,,,,false,,,,431884,431884,427143.88,427148,427147.1,431882.58,8,400,,,
trial,html.Screen,4_45_0,2023-09-08T19:53:12.585Z,,0,1,,4568.419999999984,response,ISIC_0024277.JPG,5,ISIC_4331481.JPG,ISIC_4331481.JPG,false,0,keypress(z),500,436452,436451,431881.82,431885,431882.58,436456.02,8,400,46,,ISIC_0024277.JPG
break,html.Screen,4_45_1,2023-09-08T19:53:12.588Z,,0,,,NaN,,,,,,false,,,,436455,436455,,436452,,436456.02,8,400,,,
break_continue,html.Screen,4_45_2,2023-09-08T19:53:12.589Z,,0,,,NaN,,,,,,false,,,,436455,436455,,436455,,436456.02,8,400,,,
sequence,flow.Sequence,4_45,2023-09-08T19:53:12.590Z,,0,,,4572.419999999984,completion,,,,,false,,,,436456,436455,431881.82,431885,431882.58,436456.02,8,400,,,
trial,html.Screen,4_46_0,2023-09-08T19:53:17.039Z,,0,1,,4449.979999999981,response,ISIC_6937199.JPG,0,ISIC_0009918.JPG,ISIC_6937199.JPG,false,1,keypress(m),500,440906,440906,436452.7,436456,436456.02,440906.76,8,400,47,,ISIC_0009918.JPG
break,html.Screen,4_46_1,2023-09-08T19:53:17.041Z,,0,,,NaN,,,,,,false,,,,440907,440907,,440906,,440906.76,8,400,,,
break_continue,html.Screen,4_46_2,2023-09-08T19:53:17.042Z,,0,,,NaN,,,,,,false,,,,440908,440908,,440908,,440906.76,8,400,,,
sequence,flow.Sequence,4_46,2023-09-08T19:53:17.042Z,,0,,,4451.979999999981,completion,,,,,false,,,,440909,440908,436452.7,436456,436456.02,440906.76,8,400,,,
trial,html.Screen,4_47_0,2023-09-08T19:53:20.385Z,,0,1,,3344.2399999999907,response,ISIC_0033275.JPG,5,ISIC_1460249.JPG,ISIC_1460249.JPG,false,0,keypress(z),500,444252,444251,440905.94,440909,440906.76,444252.86,8,400,48,,ISIC_0033275.JPG
break,html.Screen,4_47_1,2023-09-08T19:53:20.387Z,,0,,,NaN,,,,,,false,,,,444254,444253,,444252,,444252.86,8,400,,,
break_continue,html.Screen,4_47_2,2023-09-08T19:53:20.388Z,,0,,,NaN,,,,,,false,,,,444255,444255,,444254,,444252.86,8,400,,,
sequence,flow.Sequence,4_47,2023-09-08T19:53:20.388Z,,0,,,3348.2399999999907,completion,,,,,false,,,,444256,444255,440905.94,440909,440906.76,444252.86,8,400,,,
trial,html.Screen,4_48_0,2023-09-08T19:53:25.419Z,,0,1,,5032.140000000014,response,ISIC_0000058.JPG,5,ISIC_8292179.JPG,ISIC_8292179.JPG,false,0,keypress(z),500,449285,449285,444252.02,444256,444252.86,449295.38,8,400,49,,ISIC_0000058.JPG
break,html.Screen,4_48_1,2023-09-08T19:53:25.420Z,,0,,,NaN,,,,,,false,,,,449288,449287,,449285,,449295.38,8,400,,,
break_continue,html.Screen,4_48_2,2023-09-08T19:53:25.422Z,,0,,,NaN,,,,,,false,,,,449289,449289,,449288,,449295.38,8,400,,,
sequence,flow.Sequence,4_48,2023-09-08T19:53:25.422Z,,0,,,5036.140000000014,completion,,,,,false,,,,449290,449289,444252.02,444256,444252.86,449295.38,8,400,,,
trial,html.Screen,4_49_0,2023-09-08T19:53:29.136Z,,0,1,,3707.6199999999953,response,ISIC_7299025.JPG,5,ISIC_4132082.JPG,ISIC_7299025.JPG,false,1,keypress(m),500,453003,453003,449285.82,449290,449295.38,453008.96,8,400,50,,ISIC_4132082.JPG
break,html.Screen,4_49_1,2023-09-08T19:53:39.119Z,,0,,,9991.940000000002,timeout,,,,,false,,,,462987,462984.24,453003.76,453004,453008.96,463000.9,8,400,,,
break_continue,html.Screen,4_49_2,2023-09-08T19:53:42.079Z,,0,,,2914.0999999999767,response,,,,,false,continue,keypress(Space),,465945,465915,462984.24,462987,463000.9,465948.28,8,400,,,
sequence,flow.Sequence,4_49,2023-09-08T19:53:42.079Z,,0,,,16619.619999999995,completion,,,,,false,,,,465946,465915,449285.82,449290,449295.38,465948.28,8,400,,,
trial,html.Screen,4_50_0,2023-09-08T19:53:48.293Z,,0,2,,6210.719999999972,response,ISIC_7409889.JPG,11,ISIC_0055737.JPG,ISIC_7409889.JPG,false,1,keypress(m),500,472159,472159,465946.16,465946,465948.28,472160.48,8,400,1,,ISIC_0055737.JPG
break,html.Screen,4_50_1,2023-09-08T19:53:48.295Z,,0,,,NaN,,,,,,false,,,,472161,472161,,472160,,472160.48,8,400,,,
break_continue,html.Screen,4_50_2,2023-09-08T19:53:48.296Z,,0,,,NaN,,,,,,false,,,,472163,472162,,472162,,472160.48,8,400,,,
sequence,flow.Sequence,4_50,2023-09-08T19:53:48.297Z,,0,,,6213.719999999972,completion,,,,,false,,,,472163,472162,465946.16,465946,465948.28,472160.48,8,400,,,
trial,html.Screen,4_51_0,2023-09-08T19:53:51.792Z,,0,2,,3497.5200000000186,response,ISIC_0032638.JPG,8,ISIC_0377965.JPG,ISIC_0377965.JPG,false,0,keypress(z),500,475660,475658,472159.6,472163,472160.48,475660.44,8,400,2,,ISIC_0032638.JPG
break,html.Screen,4_51_1,2023-09-08T19:53:51.795Z,,0,,,NaN,,,,,,false,,,,475661,475661,,475660,,475660.44,8,400,,,
break_continue,html.Screen,4_51_2,2023-09-08T19:53:51.796Z,,0,,,NaN,,,,,,false,,,,475663,475662,,475662,,475660.44,8,400,,,
sequence,flow.Sequence,4_51,2023-09-08T19:53:51.796Z,,0,,,3501.5200000000186,completion,,,,,false,,,,475663,475662,472159.6,472163,472160.48,475660.44,8,400,,,
trial,html.Screen,4_52_0,2023-09-08T19:53:56.031Z,,0,2,,4237.559999999998,response,ISIC_0011692.JPG,4,ISIC_2513933.JPG,ISIC_0011692.JPG,false,1,keypress(m),500,479898,479898,475659.56,475664,475660.44,479903.4,8,400,3,,ISIC_2513933.JPG
break,html.Screen,4_52_1,2023-09-08T19:53:56.033Z,,0,,,NaN,,,,,,false,,,,479900,479900,,479899,,479903.4,8,400,,,
break_continue,html.Screen,4_52_2,2023-09-08T19:53:56.034Z,,0,,,NaN,,,,,,false,,,,479902,479901,,479901,,479903.4,8,400,,,
sequence,flow.Sequence,4_52,2023-09-08T19:53:56.035Z,,0,,,4240.559999999998,completion,,,,,false,,,,479902,479901,475659.56,475663,475660.44,479903.4,8,400,,,
trial,html.Screen,4_53_0,2023-09-08T19:53:59.504Z,,0,2,,3467.5999999999767,response,ISIC_6458982.JPG,4,ISIC_4394524.JPG,ISIC_4394524.JPG,false,0,keypress(z),500,483371,483371,479898.16,479902,479903.4,483372.42,8,400,4,,ISIC_6458982.JPG
break,html.Screen,4_53_1,2023-09-08T19:53:59.506Z,,0,,,NaN,,,,,,false,,,,483373,483373,,483371,,483372.42,8,400,,,
break_continue,html.Screen,4_53_2,2023-09-08T19:53:59.508Z,,0,,,NaN,,,,,,false,,,,483374,483374,,483374,,483372.42,8,400,,,
sequence,flow.Sequence,4_53,2023-09-08T19:53:59.508Z,,0,,,3470.5999999999767,completion,,,,,false,,,,483375,483374,479898.16,479902,479903.4,483372.42,8,400,,,
trial,html.Screen,4_54_0,2023-09-08T19:54:02.855Z,,0,2,,3348.5800000000163,response,ISIC_5823859.JPG,25,ISIC_0026247.JPG,ISIC_5823859.JPG,false,1,keypress(m),500,486721,486721,483371.56,483375,483372.42,486731.02,8,400,5,,ISIC_0026247.JPG
break,html.Screen,4_54_1,2023-09-08T19:54:02.857Z,,0,,,NaN,,,,,,false,,,,486724,486723,,486722,,486731.02,8,400,,,
break_continue,html.Screen,4_54_2,2023-09-08T19:54:02.858Z,,0,,,NaN,,,,,,false,,,,486725,486724,,486724,,486731.02,8,400,,,
sequence,flow.Sequence,4_54,2023-09-08T19:54:02.858Z,,0,,,3351.5800000000163,completion,,,,,false,,,,486725,486724,483371.56,483375,483372.42,486731.02,8,400,,,
trial,html.Screen,4_55_0,2023-09-08T19:54:07.676Z,,0,2,,4810.979999999981,response,ISIC_4554381.JPG,23,ISIC_6208762.JPG,ISIC_4554381.JPG,false,1,keypress(m),500,491543,491542,486722,486726,486731.02,491543.5,8,400,6,,ISIC_6208762.JPG
break,html.Screen,4_55_1,2023-09-08T19:54:07.678Z,,0,,,NaN,,,,,,false,,,,491545,491544,,491543,,491543.5,8,400,,,
break_continue,html.Screen,4_55_2,2023-09-08T19:54:07.679Z,,0,,,NaN,,,,,,false,,,,491546,491546,,491545,,491543.5,8,400,,,
sequence,flow.Sequence,4_55,2023-09-08T19:54:07.680Z,,0,,,4814.979999999981,completion,,,,,false,,,,491546,491546,486722,486725,486731.02,491543.5,8,400,,,
trial,html.Screen,4_56_0,2023-09-08T19:54:11.184Z,,0,2,,3507.5,response,ISIC_0059170.JPG,6,ISIC_3254309.JPG,ISIC_3254309.JPG,false,0,keypress(z),500,495052,495051,491542.82,491547,491543.5,495057.52,8,400,7,,ISIC_0059170.JPG
break,html.Screen,4_56_1,2023-09-08T19:54:11.187Z,,0,,,NaN,,,,,,false,,,,495053,495053,,495052,,495057.52,8,400,,,
break_continue,html.Screen,4_56_2,2023-09-08T19:54:11.188Z,,0,,,NaN,,,,,,false,,,,495055,495055,,495053,,495057.52,8,400,,,
sequence,flow.Sequence,4_56,2023-09-08T19:54:11.188Z,,0,,,3511.5,completion,,,,,false,,,,495055,495055,491542.82,491547,491543.5,495057.52,8,400,,,
trial,html.Screen,4_57_0,2023-09-08T19:54:14.602Z,,0,2,,3410.4799999999814,response,ISIC_4629662.JPG,8,ISIC_0028114.JPG,ISIC_0028114.JPG,false,0,keypress(z),500,498468,498468,495051.84,495056,495057.52,498471.4,8,400,8,,ISIC_4629662.JPG
break,html.Screen,4_57_1,2023-09-08T19:54:14.603Z,,0,,,NaN,,,,,,false,,,,498470,498470,,498469,,498471.4,8,400,,,
break_continue,html.Screen,4_57_2,2023-09-08T19:54:14.603Z,,0,,,NaN,,,,,,false,,,,498470,498470,,498470,,498471.4,8,400,,,
sequence,flow.Sequence,4_57,2023-09-08T19:54:14.603Z,,0,,,3412.4799999999814,completion,,,,,false,,,,498470,498470,495051.84,495056,495057.52,498471.4,8,400,,,
trial,html.Screen,4_58_0,2023-09-08T19:54:17.455Z,,0,2,,2850.5999999999767,response,ISIC_3737487.JPG,13,ISIC_0058428.JPG,ISIC_0058428.JPG,false,0,keypress(z),500,501322,501322,498468.74,498471,498471.4,501323.56,8,400,9,,ISIC_3737487.JPG
break,html.Screen,4_58_1,2023-09-08T19:54:17.458Z,,0,,,NaN,,,,,,false,,,,501324,501324,,501323,,501323.56,8,400,,,
break_continue,html.Screen,4_58_2,2023-09-08T19:54:17.459Z,,0,,,NaN,,,,,,false,,,,501325,501325,,501324,,501323.56,8,400,,,
sequence,flow.Sequence,4_58,2023-09-08T19:54:17.460Z,,0,,,2853.5999999999767,completion,,,,,false,,,,501327,501325,498468.74,498470,498471.4,501323.56,8,400,,,
trial,html.Screen,4_59_0,2023-09-08T19:54:23.264Z,,0,2,,5807.440000000002,response,ISIC_0056413.JPG,4,ISIC_8803600.JPG,ISIC_0056413.JPG,false,1,keypress(m),500,507131,507131,501322.82,501327,501323.56,507132.14,8,400,10,,ISIC_8803600.JPG
break,html.Screen,4_59_1,2023-09-08T19:54:23.266Z,,0,,,NaN,,,,,,false,,,,507133,507133,,507132,,507132.14,8,400,,,
break_continue,html.Screen,4_59_2,2023-09-08T19:54:23.267Z,,0,,,NaN,,,,,,false,,,,507135,507134,,507133,,507132.14,8,400,,,
sequence,flow.Sequence,4_59,2023-09-08T19:54:23.268Z,,0,,,5810.440000000002,completion,,,,,false,,,,507135,507134,501322.82,501327,501323.56,507132.14,8,400,,,
trial,html.Screen,4_60_0,2023-09-08T19:54:28.033Z,,0,2,,4767.859999999986,response,ISIC_2936321.JPG,21,ISIC_4723378.JPG,ISIC_2936321.JPG,false,1,keypress(m),500,511900,511900,507131.28,507136,507132.14,511901.3,8,400,11,,ISIC_4723378.JPG
break,html.Screen,4_60_1,2023-09-08T19:54:28.035Z,,0,,,NaN,,,,,,false,,,,511902,511902,,511901,,511901.3,8,400,,,
break_continue,html.Screen,4_60_2,2023-09-08T19:54:28.036Z,,0,,,NaN,,,,,,false,,,,511903,511903,,511903,,511901.3,8,400,,,
sequence,flow.Sequence,4_60,2023-09-08T19:54:28.037Z,,0,,,4770.859999999986,completion,,,,,false,,,,511904,511903,507131.28,507136,507132.14,511901.3,8,400,,,
trial,html.Screen,4_61_0,2023-09-08T19:54:32.204Z,,0,2,,4168.700000000012,response,ISIC_5729818.JPG,6,ISIC_1452549.JPG,ISIC_1452549.JPG,false,0,keypress(z),500,516071,516070,511900.54,511904,511901.3,516073.54,8,400,12,,ISIC_5729818.JPG
break,html.Screen,4_61_1,2023-09-08T19:54:32.206Z,,0,,,NaN,,,,,,false,,,,516073,516072,,516071,,516073.54,8,400,,,
break_continue,html.Screen,4_61_2,2023-09-08T19:54:32.207Z,,0,,,NaN,,,,,,false,,,,516074,516073,,516073,,516073.54,8,400,,,
sequence,flow.Sequence,4_61,2023-09-08T19:54:32.208Z,,0,,,4171.700000000012,completion,,,,,false,,,,516074,516073,511900.54,511904,511901.3,516073.54,8,400,,,
trial,html.Screen,4_62_0,2023-09-08T19:54:36.412Z,,0,2,,4204.460000000021,response,ISIC_0281291.JPG,1,ISIC_0011295.JPG,ISIC_0011295.JPG,false,0,keypress(z),500,520278,520278,516071.04,516075,516073.54,520286.74,8,400,13,,ISIC_0281291.JPG
break,html.Screen,4_62_1,2023-09-08T19:54:36.413Z,,0,,,NaN,,,,,,false,,,,520280,520280,,520278,,520286.74,8,400,,,
break_continue,html.Screen,4_62_2,2023-09-08T19:54:36.415Z,,0,,,NaN,,,,,,false,,,,520281,520281,,520280,,520286.74,8,400,,,
sequence,flow.Sequence,4_62,2023-09-08T19:54:36.415Z,,0,,,4207.460000000021,completion,,,,,false,,,,520282,520281,516071.04,516074,516073.54,520286.74,8,400,,,
trial,html.Screen,4_63_0,2023-09-08T19:54:42.195Z,,0,2,,5774.260000000009,response,ISIC_0058496.JPG,6,ISIC_4884394.JPG,ISIC_0058496.JPG,false,1,keypress(m),500,526062,526061,520278.66,520282,520286.74,526081.74,8,400,14,,ISIC_4884394.JPG
break,html.Screen,4_63_1,2023-09-08T19:54:42.197Z,,0,,,NaN,,,,,,false,,,,526064,526063,,526062,,526081.74,8,400,,,
break_continue,html.Screen,4_63_2,2023-09-08T19:54:42.198Z,,0,,,NaN,,,,,,false,,,,526065,526065,,526064,,526081.74,8,400,,,
sequence,flow.Sequence,4_63,2023-09-08T19:54:42.198Z,,0,,,5778.260000000009,completion,,,,,false,,,,526066,526065,520278.66,520282,520286.74,526081.74,8,400,,,
trial,html.Screen,4_64_0,2023-09-08T19:54:47.556Z,,0,2,,5340.260000000009,response,ISIC_0030829.JPG,23,ISIC_3009877.JPG,ISIC_3009877.JPG,false,0,keypress(z),500,531423,531422,526065.28,526066,526081.74,531427.54,8,400,15,,ISIC_0030829.JPG
break,html.Screen,4_64_1,2023-09-08T19:54:47.558Z,,0,,,NaN,,,,,,false,,,,531424,531424,,531423,,531427.54,8,400,,,
break_continue,html.Screen,4_64_2,2023-09-08T19:54:47.558Z,,0,,,NaN,,,,,,false,,,,531425,531425,,531425,,531427.54,8,400,,,
sequence,flow.Sequence,4_64,2023-09-08T19:54:47.558Z,,0,,,5343.260000000009,completion,,,,,false,,,,531425,531425,526065.28,526066,526081.74,531427.54,8,400,,,
trial,html.Screen,4_65_0,2023-09-08T19:54:52.044Z,,0,2,,4483.459999999963,response,ISIC_4428769.JPG,6,ISIC_6532137.JPG,ISIC_4428769.JPG,false,1,keypress(m),500,535911,535911,531422.62,531426,531427.54,535912.22,8,400,16,,ISIC_6532137.JPG
break,html.Screen,4_65_1,2023-09-08T19:54:52.046Z,,0,,,NaN,,,,,,false,,,,535914,535913,,535912,,535912.22,8,400,,,
break_continue,html.Screen,4_65_2,2023-09-08T19:54:52.047Z,,0,,,NaN,,,,,,false,,,,535915,535915,,535914,,535912.22,8,400,,,
sequence,flow.Sequence,4_65,2023-09-08T19:54:52.048Z,,0,,,4487.459999999963,completion,,,,,false,,,,535915,535915,531422.62,531426,531427.54,535912.22,8,400,,,
trial,html.Screen,4_66_0,2023-09-08T19:54:55.726Z,,0,2,,3679.780000000028,response,ISIC_2721699.JPG,2,ISIC_7051167.JPG,ISIC_2721699.JPG,false,1,keypress(m),500,539592,539592,535911.4,535915,535912.22,539593.88,8,400,17,,ISIC_7051167.JPG
break,html.Screen,4_66_1,2023-09-08T19:54:55.728Z,,0,,,NaN,,,,,,false,,,,539594,539594,,539593,,539593.88,8,400,,,
break_continue,html.Screen,4_66_2,2023-09-08T19:54:55.729Z,,0,,,NaN,,,,,,false,,,,539596,539596,,539595,,539593.88,8,400,,,
sequence,flow.Sequence,4_66,2023-09-08T19:54:55.729Z,,0,,,3683.780000000028,completion,,,,,false,,,,539596,539596,535911.4,535915,535912.22,539593.88,8,400,,,
trial,html.Screen,4_67_0,2023-09-08T19:54:59.986Z,,0,2,,4258.119999999995,response,ISIC_5547318.JPG,14,ISIC_4252268.JPG,ISIC_5547318.JPG,false,1,keypress(m),500,543852,543852,539593,539597,539593.88,543853.72,8,400,18,,ISIC_4252268.JPG
break,html.Screen,4_67_1,2023-09-08T19:54:59.988Z,,0,,,NaN,,,,,,false,,,,543855,543854,,543853,,543853.72,8,400,,,
break_continue,html.Screen,4_67_2,2023-09-08T19:54:59.989Z,,0,,,NaN,,,,,,false,,,,543856,543855,,543855,,543853.72,8,400,,,
sequence,flow.Sequence,4_67,2023-09-08T19:54:59.990Z,,0,,,4261.119999999995,completion,,,,,false,,,,543856,543855,539593,539597,539593.88,543853.72,8,400,,,
trial,html.Screen,4_68_0,2023-09-08T19:55:03.166Z,,0,2,,3179.280000000028,response,ISIC_0060297.JPG,10,ISIC_5065360.JPG,ISIC_0060297.JPG,false,1,keypress(m),500,547034,547033,543852.82,543856,543853.72,547036.28,8,400,19,,ISIC_5065360.JPG
break,html.Screen,4_68_1,2023-09-08T19:55:03.169Z,,0,,,NaN,,,,,,false,,,,547036,547035,,547034,,547036.28,8,400,,,
break_continue,html.Screen,4_68_2,2023-09-08T19:55:03.170Z,,0,,,NaN,,,,,,false,,,,547037,547037,,547036,,547036.28,8,400,,,
sequence,flow.Sequence,4_68,2023-09-08T19:55:03.171Z,,0,,,3183.280000000028,completion,,,,,false,,,,547037,547037,543852.82,543856,543853.72,547036.28,8,400,,,
trial,html.Screen,4_69_0,2023-09-08T19:55:07.570Z,,0,2,,4399.719999999972,response,ISIC_0061559.JPG,0,ISIC_0071367.JPG,ISIC_0061559.JPG,false,1,keypress(m),500,551436,551436,547034.12,547038,547036.28,551444.34,8,400,20,,ISIC_0071367.JPG
break,html.Screen,4_69_1,2023-09-08T19:55:07.572Z,,0,,,NaN,,,,,,false,,,,551438,551438,,551437,,551444.34,8,400,,,
break_continue,html.Screen,4_69_2,2023-09-08T19:55:07.573Z,,0,,,NaN,,,,,,false,,,,551440,551439,,551439,,551444.34,8,400,,,
sequence,flow.Sequence,4_69,2023-09-08T19:55:07.573Z,,0,,,4402.719999999972,completion,,,,,false,,,,551440,551439,547034.12,547038,547036.28,551444.34,8,400,,,
trial,html.Screen,4_70_0,2023-09-08T19:55:11.150Z,,0,2,,3572.6600000000326,response,ISIC_0029575.JPG,28,ISIC_5485661.JPG,ISIC_0029575.JPG,false,1,keypress(m),500,555017,555017,551436.9,551440,551444.34,555024.62,8,400,21,,ISIC_5485661.JPG
break,html.Screen,4_70_1,2023-09-08T19:55:11.152Z,,0,,,NaN,,,,,,false,,,,555019,555019,,555017,,555024.62,8,400,,,
break_continue,html.Screen,4_70_2,2023-09-08T19:55:11.154Z,,0,,,NaN,,,,,,false,,,,555020,555020,,555019,,555024.62,8,400,,,
sequence,flow.Sequence,4_70,2023-09-08T19:55:11.154Z,,0,,,3575.6600000000326,completion,,,,,false,,,,555021,555020,551436.9,551440,551444.34,555024.62,8,400,,,
trial,html.Screen,4_71_0,2023-09-08T19:55:14.435Z,,0,2,,3276.3800000000047,response,ISIC_1132788.JPG,16,ISIC_1919324.JPG,ISIC_1132788.JPG,false,1,keypress(m),500,558302,558301,555017.34,555021,555024.62,558305.26,8,400,22,,ISIC_1919324.JPG
break,html.Screen,4_71_1,2023-09-08T19:55:14.438Z,,0,,,NaN,,,,,,false,,,,558304,558303,,558302,,558305.26,8,400,,,
break_continue,html.Screen,4_71_2,2023-09-08T19:55:14.438Z,,0,,,NaN,,,,,,false,,,,558306,558305,,558304,,558305.26,8,400,,,
sequence,flow.Sequence,4_71,2023-09-08T19:55:14.439Z,,0,,,3280.3800000000047,completion,,,,,false,,,,558306,558305,555017.34,555021,555024.62,558305.26,8,400,,,
trial,html.Screen,4_72_0,2023-09-08T19:55:18.855Z,,0,2,,4415.739999999991,response,ISIC_2639144.JPG,0,ISIC_0510774.JPG,ISIC_2639144.JPG,false,1,keypress(m),500,562722,562721,558302.36,558306,558305.26,562723.36,8,400,23,,ISIC_0510774.JPG
break,html.Screen,4_72_1,2023-09-08T19:55:18.857Z,,0,,,NaN,,,,,,false,,,,562724,562724,,562722,,562723.36,8,400,,,
break_continue,html.Screen,4_72_2,2023-09-08T19:55:18.859Z,,0,,,NaN,,,,,,false,,,,562725,562725,,562724,,562723.36,8,400,,,
sequence,flow.Sequence,4_72,2023-09-08T19:55:18.859Z,,0,,,4419.739999999991,completion,,,,,false,,,,562726,562725,558302.36,558306,558305.26,562723.36,8,400,,,
trial,html.Screen,4_73_0,2023-09-08T19:55:21.999Z,,0,2,,3141.640000000014,response,ISIC_2742786.JPG,3,ISIC_4695051.JPG,ISIC_2742786.JPG,false,1,keypress(m),500,565866,565865,562722.56,562726,562723.36,565867.32,8,400,24,,ISIC_4695051.JPG
break,html.Screen,4_73_1,2023-09-08T19:55:22.001Z,,0,,,NaN,,,,,,false,,,,565868,565868,,565866,,565867.32,8,400,,,
break_continue,html.Screen,4_73_2,2023-09-08T19:55:22.003Z,,0,,,NaN,,,,,,false,,,,565870,565869,,565869,,565867.32,8,400,,,
sequence,flow.Sequence,4_73,2023-09-08T19:55:22.003Z,,0,,,3145.640000000014,completion,,,,,false,,,,565870,565869,562722.56,562726,562723.36,565867.32,8,400,,,
trial,html.Screen,4_74_0,2023-09-08T19:55:25.834Z,,0,2,,3833.680000000051,response,ISIC_0027993.JPG,27,ISIC_3148533.JPG,ISIC_0027993.JPG,false,1,keypress(m),500,569701,569701,565866.54,565870,565867.32,569702.1,8,400,25,,ISIC_3148533.JPG
break,html.Screen,4_74_1,2023-09-08T19:55:25.836Z,,0,,,NaN,,,,,,false,,,,569703,569702,,569701,,569702.1,8,400,,,
break_continue,html.Screen,4_74_2,2023-09-08T19:55:25.837Z,,0,,,NaN,,,,,,false,,,,569704,569704,,569703,,569702.1,8,400,,,
sequence,flow.Sequence,4_74,2023-09-08T19:55:25.838Z,,0,,,3836.680000000051,completion,,,,,false,,,,569704,569704,565866.54,565870,565867.32,569702.1,8,400,,,
trial,html.Screen,4_75_0,2023-09-08T19:55:29.232Z,,0,2,,3395.9000000000233,response,ISIC_7562708.JPG,0,ISIC_4653503.JPG,ISIC_4653503.JPG,false,0,keypress(z),500,573098,573098,569701.5,569705,569702.1,573099.6,8,400,26,,ISIC_7562708.JPG
break,html.Screen,4_75_1,2023-09-08T19:55:29.234Z,,0,,,NaN,,,,,,false,,,,573101,573101,,573099,,573099.6,8,400,,,
break_continue,html.Screen,4_75_2,2023-09-08T19:55:29.235Z,,0,,,NaN,,,,,,false,,,,573102,573102,,573101,,573099.6,8,400,,,
sequence,flow.Sequence,4_75,2023-09-08T19:55:29.236Z,,0,,,3399.9000000000233,completion,,,,,false,,,,573103,573102,569701.5,569704,569702.1,573099.6,8,400,,,
trial,html.Screen,4_76_0,2023-09-08T19:55:33.285Z,,0,2,,4051.4000000000233,response,ISIC_0032095.JPG,17,ISIC_9547089.JPG,ISIC_9547089.JPG,false,0,keypress(z),500,577152,577151,573098.88,573103,573099.6,577156.24,8,400,27,,ISIC_0032095.JPG
break,html.Screen,4_76_1,2023-09-08T19:55:33.286Z,,0,,,NaN,,,,,,false,,,,577153,577153,,577152,,577156.24,8,400,,,
break_continue,html.Screen,4_76_2,2023-09-08T19:55:33.287Z,,0,,,NaN,,,,,,false,,,,577153,577153,,577153,,577156.24,8,400,,,
sequence,flow.Sequence,4_76,2023-09-08T19:55:33.287Z,,0,,,4053.4000000000233,completion,,,,,false,,,,577153,577153,573098.88,573103,573099.6,577156.24,8,400,,,
trial,html.Screen,4_77_0,2023-09-08T19:55:37.202Z,,0,2,,3911.7600000000093,response,ISIC_8321148.JPG,31,ISIC_0025015.JPG,ISIC_0025015.JPG,false,0,keypress(z),500,581068,581068,577151.74,577153,577156.24,581069.62,8,400,28,,ISIC_8321148.JPG
break,html.Screen,4_77_1,2023-09-08T19:55:37.204Z,,0,,,NaN,,,,,,false,,,,581070,581070,,581069,,581069.62,8,400,,,
break_continue,html.Screen,4_77_2,2023-09-08T19:55:37.205Z,,0,,,NaN,,,,,,false,,,,581072,581071,,581071,,581069.62,8,400,,,
sequence,flow.Sequence,4_77,2023-09-08T19:55:37.205Z,,0,,,3914.7600000000093,completion,,,,,false,,,,581072,581071,577151.74,577153,577156.24,581069.62,8,400,,,
trial,html.Screen,4_78_0,2023-09-08T19:55:40.326Z,,0,2,,3122.3800000000047,response,ISIC_0001681.JPG,14,ISIC_0033068.JPG,ISIC_0033068.JPG,false,0,keypress(z),500,584192,584192,581068.76,581073,581069.62,584200.6,8,400,29,,ISIC_0001681.JPG
break,html.Screen,4_78_1,2023-09-08T19:55:40.328Z,,0,,,NaN,,,,,,false,,,,584195,584194,,584193,,584200.6,8,400,,,
break_continue,html.Screen,4_78_2,2023-09-08T19:55:40.329Z,,0,,,NaN,,,,,,false,,,,584196,584196,,584195,,584200.6,8,400,,,
sequence,flow.Sequence,4_78,2023-09-08T19:55:40.329Z,,0,,,3126.3800000000047,completion,,,,,false,,,,584196,584196,581068.76,581073,581069.62,584200.6,8,400,,,
trial,html.Screen,4_79_0,2023-09-08T19:55:44.420Z,,0,2,,4085.4000000000233,response,ISIC_2215276.JPG,12,ISIC_9714746.JPG,ISIC_2215276.JPG,false,1,keypress(m),500,588287,588286,584192.98,584197,584200.6,588297.18,8,400,30,,ISIC_9714746.JPG
break,html.Screen,4_79_1,2023-09-08T19:55:44.423Z,,0,,,NaN,,,,,,false,,,,588289,588288,,588287,,588297.18,8,400,,,
break_continue,html.Screen,4_79_2,2023-09-08T19:55:44.424Z,,0,,,NaN,,,,,,false,,,,588291,588290,,588290,,588297.18,8,400,,,
sequence,flow.Sequence,4_79,2023-09-08T19:55:44.424Z,,0,,,4089.4000000000233,completion,,,,,false,,,,588291,588290,584192.98,584197,584200.6,588297.18,8,400,,,
trial,html.Screen,4_80_0,2023-09-08T19:55:49.592Z,,0,2,,5159.819999999949,response,ISIC_1115160.JPG,14,ISIC_0030106.JPG,ISIC_0030106.JPG,false,0,keypress(z),500,593458,593457,588287.58,588291,588297.18,593459.44,8,400,31,,ISIC_1115160.JPG
break,html.Screen,4_80_1,2023-09-08T19:55:49.594Z,,0,,,NaN,,,,,,false,,,,593460,593459,,593458,,593459.44,8,400,,,
break_continue,html.Screen,4_80_2,2023-09-08T19:55:49.595Z,,0,,,NaN,,,,,,false,,,,593461,593461,,593460,,593459.44,8,400,,,
sequence,flow.Sequence,4_80,2023-09-08T19:55:49.595Z,,0,,,5163.819999999949,completion,,,,,false,,,,593462,593461,588287.58,588291,588297.18,593459.44,8,400,,,
trial,html.Screen,4_81_0,2023-09-08T19:55:53.399Z,,0,2,,3805.560000000056,response,ISIC_0030417.JPG,5,ISIC_0899961.JPG,ISIC_0030417.JPG,false,1,keypress(m),500,597266,597265,593458.7,593462,593459.44,597273.06,8,400,32,,ISIC_0899961.JPG
break,html.Screen,4_81_1,2023-09-08T19:55:53.402Z,,0,,,NaN,,,,,,false,,,,597268,597268,,597266,,597273.06,8,400,,,
break_continue,html.Screen,4_81_2,2023-09-08T19:55:53.403Z,,0,,,NaN,,,,,,false,,,,597270,597270,,597269,,597273.06,8,400,,,
sequence,flow.Sequence,4_81,2023-09-08T19:55:53.403Z,,0,,,3810.560000000056,completion,,,,,false,,,,597271,597270,593458.7,593462,593459.44,597273.06,8,400,,,
trial,html.Screen,4_82_0,2023-09-08T19:55:57.583Z,,0,2,,4176.939999999944,response,ISIC_0034087.JPG,2,ISIC_0065066.JPG,ISIC_0065066.JPG,false,0,keypress(z),500,601451,601450,597266.46,597271,597273.06,601452.78,8,400,33,,ISIC_0034087.JPG
break,html.Screen,4_82_1,2023-09-08T19:55:57.586Z,,0,,,NaN,,,,,,false,,,,601453,601452,,601451,,601452.78,8,400,,,
break_continue,html.Screen,4_82_2,2023-09-08T19:55:57.587Z,,0,,,NaN,,,,,,false,,,,601454,601454,,601453,,601452.78,8,400,,,
sequence,flow.Sequence,4_82,2023-09-08T19:55:57.588Z,,0,,,4180.939999999944,completion,,,,,false,,,,601454,601454,597266.46,597271,597273.06,601452.78,8,400,,,
trial,html.Screen,4_83_0,2023-09-08T19:56:04.020Z,,0,2,,6434.219999999972,response,ISIC_0588855.JPG,2,ISIC_0000377.JPG,ISIC_0588855.JPG,false,1,keypress(m),500,607888,607887,601451.26,601455,601452.78,607887.92,8,400,34,,ISIC_0000377.JPG
break,html.Screen,4_83_1,2023-09-08T19:56:04.021Z,,0,,,NaN,,,,,,false,,,,607889,607889,,607888,,607887.92,8,400,,,
break_continue,html.Screen,4_83_2,2023-09-08T19:56:04.022Z,,0,,,NaN,,,,,,false,,,,607889,607889,,607889,,607887.92,8,400,,,
sequence,flow.Sequence,4_83,2023-09-08T19:56:04.022Z,,0,,,6436.219999999972,completion,,,,,false,,,,607889,607889,601451.26,601455,601452.78,607887.92,8,400,,,
trial,html.Screen,4_84_0,2023-09-08T19:56:08.178Z,,0,2,,4156.079999999958,response,ISIC_0806138.JPG,10,ISIC_5529924.JPG,ISIC_0806138.JPG,false,1,keypress(m),500,612044,612044,607887.4,607890,607887.92,612045.68,8,400,35,,ISIC_5529924.JPG
break,html.Screen,4_84_1,2023-09-08T19:56:08.180Z,,0,,,NaN,,,,,,false,,,,612046,612046,,612045,,612045.68,8,400,,,
break_continue,html.Screen,4_84_2,2023-09-08T19:56:08.181Z,,0,,,NaN,,,,,,false,,,,612048,612048,,612047,,612045.68,8,400,,,
sequence,flow.Sequence,4_84,2023-09-08T19:56:08.181Z,,0,,,4160.079999999958,completion,,,,,false,,,,612048,612048,607887.4,607890,607887.92,612045.68,8,400,,,
trial,html.Screen,4_85_0,2023-09-08T19:56:14.381Z,,0,2,,6201.319999999949,response,ISIC_0062471.JPG,27,ISIC_0031958.JPG,ISIC_0031958.JPG,false,0,keypress(z),500,618248,618247,612044.96,612049,612045.68,618255.7,8,400,36,,ISIC_0062471.JPG
break,html.Screen,4_85_1,2023-09-08T19:56:14.383Z,,0,,,NaN,,,,,,false,,,,618250,618250,,618248,,618255.7,8,400,,,
break_continue,html.Screen,4_85_2,2023-09-08T19:56:14.385Z,,0,,,NaN,,,,,,false,,,,618252,618251,,618250,,618255.7,8,400,,,
sequence,flow.Sequence,4_85,2023-09-08T19:56:14.385Z,,0,,,6205.319999999949,completion,,,,,false,,,,618252,618251,612044.96,612049,612045.68,618255.7,8,400,,,
trial,html.Screen,4_86_0,2023-09-08T19:56:19.204Z,,0,2,,4815.300000000047,response,ISIC_0000546.JPG,0,ISIC_5662381.JPG,ISIC_5662381.JPG,false,0,keypress(z),500,623071,623071,618248.68,618252,618255.7,623072.4,8,400,37,,ISIC_0000546.JPG
break,html.Screen,4_86_1,2023-09-08T19:56:19.207Z,,0,,,NaN,,,,,,false,,,,623073,623073,,623072,,623072.4,8,400,,,
break_continue,html.Screen,4_86_2,2023-09-08T19:56:19.208Z,,0,,,NaN,,,,,,false,,,,623075,623074,,623074,,623072.4,8,400,,,
sequence,flow.Sequence,4_86,2023-09-08T19:56:19.208Z,,0,,,4818.300000000047,completion,,,,,false,,,,623075,623074,618248.68,618252,618255.7,623072.4,8,400,,,
trial,html.Screen,4_87_0,2023-09-08T19:56:22.502Z,,0,2,,3294.5999999999767,response,ISIC_0000420.JPG,28,ISIC_9644813.JPG,ISIC_0000420.JPG,false,1,keypress(m),500,626368,626367,623071.64,623075,623072.4,626369.56,8,400,38,,ISIC_9644813.JPG
break,html.Screen,4_87_1,2023-09-08T19:56:22.503Z,,0,,,NaN,,,,,,false,,,,626370,626370,,626368,,626369.56,8,400,,,
break_continue,html.Screen,4_87_2,2023-09-08T19:56:22.504Z,,0,,,NaN,,,,,,false,,,,626372,626371,,626371,,626369.56,8,400,,,
sequence,flow.Sequence,4_87,2023-09-08T19:56:22.506Z,,0,,,3298.5999999999767,completion,,,,,false,,,,626372,626371,623071.64,623075,623072.4,626369.56,8,400,,,
trial,html.Screen,4_88_0,2023-09-08T19:56:25.378Z,,0,2,,2874.439999999944,response,ISIC_5993530.JPG,14,ISIC_0000164.JPG,ISIC_0000164.JPG,false,0,keypress(z),500,629245,629244,626368.72,626372,626369.56,629246.32,8,400,39,,ISIC_5993530.JPG
break,html.Screen,4_88_1,2023-09-08T19:56:25.381Z,,0,,,NaN,,,,,,false,,,,629247,629247,,629246,,629246.32,8,400,,,
break_continue,html.Screen,4_88_2,2023-09-08T19:56:25.382Z,,0,,,NaN,,,,,,false,,,,629249,629248,,629248,,629246.32,8,400,,,
sequence,flow.Sequence,4_88,2023-09-08T19:56:25.382Z,,0,,,2878.439999999944,completion,,,,,false,,,,629249,629248,626368.72,626372,626369.56,629246.32,8,400,,,
trial,html.Screen,4_89_0,2023-09-08T19:56:28.729Z,,0,2,,3348.680000000051,response,ISIC_0200153.JPG,30,ISIC_0063168.JPG,ISIC_0063168.JPG,false,0,keypress(z),500,632596,632595,629245.46,629249,629246.32,632597.46,8,400,40,,ISIC_0200153.JPG
break,html.Screen,4_89_1,2023-09-08T19:56:28.732Z,,0,,,NaN,,,,,,false,,,,632599,632598,,632596,,632597.46,8,400,,,
break_continue,html.Screen,4_89_2,2023-09-08T19:56:28.733Z,,0,,,NaN,,,,,,false,,,,632600,632600,,632599,,632597.46,8,400,,,
sequence,flow.Sequence,4_89,2023-09-08T19:56:28.734Z,,0,,,3353.680000000051,completion,,,,,false,,,,632601,632600,629245.46,629249,629246.32,632597.46,8,400,,,
trial,html.Screen,4_90_0,2023-09-08T19:56:33.091Z,,0,2,,4359.540000000037,response,ISIC_0031914.JPG,15,ISIC_0029250.JPG,ISIC_0029250.JPG,false,0,keypress(z),500,636958,636957,632596.68,632602,632597.46,636959.26,8,400,41,,ISIC_0031914.JPG
break,html.Screen,4_90_1,2023-09-08T19:56:33.093Z,,0,,,NaN,,,,,,false,,,,636960,636959,,636958,,636959.26,8,400,,,
break_continue,html.Screen,4_90_2,2023-09-08T19:56:33.095Z,,0,,,NaN,,,,,,false,,,,636962,636961,,636960,,636959.26,8,400,,,
sequence,flow.Sequence,4_90,2023-09-08T19:56:33.095Z,,0,,,4363.540000000037,completion,,,,,false,,,,636962,636961,632596.68,632602,632597.46,636959.26,8,400,,,
trial,html.Screen,4_91_0,2023-09-08T19:56:38.464Z,,0,2,,5370.739999999991,response,ISIC_0034170.JPG,30,ISIC_0028397.JPG,ISIC_0034170.JPG,false,1,keypress(m),500,642330,642330,636958.38,636962,636959.26,642335.8,8,400,42,,ISIC_0028397.JPG
break,html.Screen,4_91_1,2023-09-08T19:56:38.466Z,,0,,,NaN,,,,,,false,,,,642333,642333,,642331,,642335.8,8,400,,,
break_continue,html.Screen,4_91_2,2023-09-08T19:56:38.468Z,,0,,,NaN,,,,,,false,,,,642335,642333,,642333,,642335.8,8,400,,,
sequence,flow.Sequence,4_91,2023-09-08T19:56:38.468Z,,0,,,5373.739999999991,completion,,,,,false,,,,642335,642333,636958.38,636962,636959.26,642335.8,8,400,,,
trial,html.Screen,4_92_0,2023-09-08T19:56:42.625Z,,0,2,,4155.199999999953,response,ISIC_9086288.JPG,29,ISIC_1658623.JPG,ISIC_1658623.JPG,false,0,keypress(z),500,646492,646491,642331.22,642336,642335.8,646498.98,8,400,43,,ISIC_9086288.JPG
break,html.Screen,4_92_1,2023-09-08T19:56:42.626Z,,0,,,NaN,,,,,,false,,,,646494,646493,,646492,,646498.98,8,400,,,
break_continue,html.Screen,4_92_2,2023-09-08T19:56:42.627Z,,0,,,NaN,,,,,,false,,,,646495,646494,,646494,,646498.98,8,400,,,
sequence,flow.Sequence,4_92,2023-09-08T19:56:42.628Z,,0,,,4158.199999999953,completion,,,,,false,,,,646495,646494,642331.22,642335,642335.8,646498.98,8,400,,,
trial,html.Screen,4_93_0,2023-09-08T19:56:45.715Z,,0,2,,3082.0200000000186,response,ISIC_7034769.JPG,17,ISIC_0032269.JPG,ISIC_0032269.JPG,false,0,keypress(z),500,649582,649581,646492.12,646496,646498.98,649583.2,8,400,44,,ISIC_7034769.JPG
break,html.Screen,4_93_1,2023-09-08T19:56:45.717Z,,0,,,NaN,,,,,,false,,,,649584,649584,,649582,,649583.2,8,400,,,
break_continue,html.Screen,4_93_2,2023-09-08T19:56:45.718Z,,0,,,NaN,,,,,,false,,,,649585,649585,,649584,,649583.2,8,400,,,
sequence,flow.Sequence,4_93,2023-09-08T19:56:45.719Z,,0,,,3086.0200000000186,completion,,,,,false,,,,649585,649585,646492.12,646495,646498.98,649583.2,8,400,,,
trial,html.Screen,4_94_0,2023-09-08T19:56:50.021Z,,0,2,,4303.800000000047,response,ISIC_0065748.JPG,30,ISIC_7131689.JPG,ISIC_0065748.JPG,false,1,keypress(m),500,653888,653887,649582.48,649586,649583.2,653892.86,8,400,45,,ISIC_7131689.JPG
break,html.Screen,4_94_1,2023-09-08T19:56:50.024Z,,0,,,NaN,,,,,,false,,,,653890,653890,,653888,,653892.86,8,400,,,
break_continue,html.Screen,4_94_2,2023-09-08T19:56:50.024Z,,0,,,NaN,,,,,,false,,,,653891,653891,,653891,,653892.86,8,400,,,
sequence,flow.Sequence,4_94,2023-09-08T19:56:50.025Z,,0,,,4307.800000000047,completion,,,,,false,,,,653892,653891,649582.48,649586,649583.2,653892.86,8,400,,,
trial,html.Screen,4_95_0,2023-09-08T19:56:54.033Z,,0,2,,4005.140000000014,response,ISIC_7044184.JPG,8,ISIC_6945634.JPG,ISIC_7044184.JPG,false,1,keypress(m),500,657900,657898,653888.34,653893,653892.86,657906.22,8,400,46,,ISIC_6945634.JPG
break,html.Screen,4_95_1,2023-09-08T19:56:54.035Z,,0,,,NaN,,,,,,false,,,,657902,657901,,657900,,657906.22,8,400,,,
break_continue,html.Screen,4_95_2,2023-09-08T19:56:54.036Z,,0,,,NaN,,,,,,false,,,,657904,657903,,657902,,657906.22,8,400,,,
sequence,flow.Sequence,4_95,2023-09-08T19:56:54.037Z,,0,,,4010.140000000014,completion,,,,,false,,,,657904,657903,653888.34,653892,653892.86,657906.22,8,400,,,
trial,html.Screen,4_96_0,2023-09-08T19:56:57.968Z,,0,2,,3927.780000000028,response,ISIC_0504165.JPG,9,ISIC_5031549.JPG,ISIC_0504165.JPG,false,1,keypress(m),500,661834,661834,657899.86,657905,657906.22,661836.18,8,400,47,,ISIC_5031549.JPG
break,html.Screen,4_96_1,2023-09-08T19:56:57.970Z,,0,,,NaN,,,,,,false,,,,661837,661836,,661834,,661836.18,8,400,,,
break_continue,html.Screen,4_96_2,2023-09-08T19:56:57.971Z,,0,,,NaN,,,,,,false,,,,661838,661838,,661837,,661836.18,8,400,,,
sequence,flow.Sequence,4_96,2023-09-08T19:56:57.972Z,,0,,,3931.780000000028,completion,,,,,false,,,,661839,661838,657899.86,657905,657906.22,661836.18,8,400,,,
trial,html.Screen,4_97_0,2023-09-08T19:57:04.395Z,,0,2,,6426.819999999949,response,ISIC_0013334.JPG,11,ISIC_0031915.JPG,ISIC_0031915.JPG,false,0,keypress(z),500,668263,668263,661834.98,661839,661836.18,668264.12,8,400,48,,ISIC_0013334.JPG
break,html.Screen,4_97_1,2023-09-08T19:57:04.397Z,,0,,,NaN,,,,,,false,,,,668264,668264,,668263,,668264.12,8,400,,,
break_continue,html.Screen,4_97_2,2023-09-08T19:57:04.397Z,,0,,,NaN,,,,,,false,,,,668265,668265,,668264,,668264.12,8,400,,,
sequence,flow.Sequence,4_97,2023-09-08T19:57:04.397Z,,0,,,6428.819999999949,completion,,,,,false,,,,668265,668265,661834.98,661839,661836.18,668264.12,8,400,,,
trial,html.Screen,4_98_0,2023-09-08T19:57:08.125Z,,0,2,,3726.8800000000047,response,ISIC_2681497.JPG,3,ISIC_0024344.JPG,ISIC_2681497.JPG,false,1,keypress(m),500,671991,671991,668263.06,668265,668264.12,671994.56,8,400,49,,ISIC_0024344.JPG
break,html.Screen,4_98_1,2023-09-08T19:57:08.127Z,,0,,,NaN,,,,,,false,,,,671994,671993,,671992,,671994.56,8,400,,,
break_continue,html.Screen,4_98_2,2023-09-08T19:57:08.130Z,,0,,,NaN,,,,,,false,,,,671996,671996,,671994,,671994.56,8,400,,,
sequence,flow.Sequence,4_98,2023-09-08T19:57:08.130Z,,0,,,3731.8800000000047,completion,,,,,false,,,,671997,671996,668263.06,668265,668264.12,671994.56,8,400,,,
trial,html.Screen,4_99_0,2023-09-08T19:57:12.673Z,,0,2,,4545.439999999944,response,ISIC_6547707.JPG,28,ISIC_6188574.JPG,ISIC_6547707.JPG,false,1,keypress(m),500,676540,676540,671991.8,671997,671994.56,676541.38,8,400,50,,ISIC_6188574.JPG
break,html.Screen,4_99_1,2023-09-08T19:57:22.667Z,,0,,,10007.76000000001,timeout,,,,,false,,,,686533,686532.48,676540.58,676541,676541.38,686549.14,8,400,,,
break_continue,html.Screen,4_99_2,2023-09-08T19:57:25.710Z,,0,,,2989.859999999986,response,,,,,false,continue,keypress(Space),,689577,689539,686532.48,686535,686549.14,689579.94,8,400,,,
sequence,flow.Sequence,4_99,2023-09-08T19:57:25.710Z,,0,,,17544.439999999944,completion,,,,,false,,,,689577,689539,671991.8,671997,671994.56,689579.94,8,400,,,
trial,html.Screen,4_100_0,2023-09-08T19:57:29.630Z,,0,3,,3916.060000000056,response,ISIC_0000550.JPG,15,ISIC_0510617.JPG,ISIC_0000550.JPG,false,1,keypress(m),500,693497,693496,689577.1,689577,689579.94,693497.96,8,400,1,,ISIC_0510617.JPG
break,html.Screen,4_100_1,2023-09-08T19:57:29.632Z,,0,,,NaN,,,,,,false,,,,693499,693498,,693497,,693497.96,8,400,,,
break_continue,html.Screen,4_100_2,2023-09-08T19:57:29.633Z,,0,,,NaN,,,,,,false,,,,693500,693499,,693499,,693497.96,8,400,,,
sequence,flow.Sequence,4_100,2023-09-08T19:57:29.634Z,,0,,,3919.060000000056,completion,,,,,false,,,,693500,693499,689577.1,689577,689579.94,693497.96,8,400,,,
trial,html.Screen,4_101_0,2023-09-08T19:57:33.343Z,,0,3,,3711.0400000000373,response,ISIC_9199158.JPG,30,ISIC_0011267.JPG,ISIC_0011267.JPG,false,0,keypress(z),500,697210,697209,693497.26,693501,693497.96,697210.8,8,400,2,,ISIC_9199158.JPG
break,html.Screen,4_101_1,2023-09-08T19:57:33.345Z,,0,,,NaN,,,,,,false,,,,697212,697211,,697210,,697210.8,8,400,,,
break_continue,html.Screen,4_101_2,2023-09-08T19:57:33.346Z,,0,,,NaN,,,,,,false,,,,697213,697213,,697212,,697210.8,8,400,,,
sequence,flow.Sequence,4_101,2023-09-08T19:57:33.347Z,,0,,,3715.0400000000373,completion,,,,,false,,,,697214,697213,693497.26,693501,693497.96,697210.8,8,400,,,
trial,html.Screen,4_102_0,2023-09-08T19:57:38.150Z,,0,3,,4805.199999999953,response,ISIC_0627979.JPG,3,ISIC_0027063.JPG,ISIC_0627979.JPG,false,1,keypress(m),500,702017,702016,697210.08,697214,697210.8,702019.78,8,400,3,,ISIC_0027063.JPG
break,html.Screen,4_102_1,2023-09-08T19:57:38.152Z,,0,,,NaN,,,,,,false,,,,702020,702019,,702018,,702019.78,8,400,,,
break_continue,html.Screen,4_102_2,2023-09-08T19:57:38.155Z,,0,,,NaN,,,,,,false,,,,702022,702022,,702021,,702019.78,8,400,,,
sequence,flow.Sequence,4_102,2023-09-08T19:57:38.156Z,,0,,,4811.199999999953,completion,,,,,false,,,,702023,702022,697210.08,697214,697210.8,702019.78,8,400,,,
trial,html.Screen,4_103_0,2023-09-08T19:57:41.218Z,,0,3,,3064.219999999972,response,ISIC_5787312.JPG,2,ISIC_0072021.JPG,ISIC_0072021.JPG,false,0,keypress(z),500,705085,705084,702017.74,702023,702019.78,705086.2,8,400,4,,ISIC_5787312.JPG
break,html.Screen,4_103_1,2023-09-08T19:57:41.221Z,,0,,,NaN,,,,,,false,,,,705087,705086,,705085,,705086.2,8,400,,,
break_continue,html.Screen,4_103_2,2023-09-08T19:57:41.222Z,,0,,,NaN,,,,,,false,,,,705088,705088,,705087,,705086.2,8,400,,,
sequence,flow.Sequence,4_103,2023-09-08T19:57:41.223Z,,0,,,3068.219999999972,completion,,,,,false,,,,705089,705088,702017.74,702023,702019.78,705086.2,8,400,,,
trial,html.Screen,4_104_0,2023-09-08T19:57:44.934Z,,0,3,,3713.8000000000466,response,ISIC_0057787.JPG,27,ISIC_0012068.JPG,ISIC_0057787.JPG,false,1,keypress(m),500,708801,708800,705085.4,705090,705086.2,708802.6,8,400,5,,ISIC_0012068.JPG
break,html.Screen,4_104_1,2023-09-08T19:57:44.936Z,,0,,,NaN,,,,,,false,,,,708804,708803,,708802,,708802.6,8,400,,,
break_continue,html.Screen,4_104_2,2023-09-08T19:57:44.938Z,,0,,,NaN,,,,,,false,,,,708805,708804,,708804,,708802.6,8,400,,,
sequence,flow.Sequence,4_104,2023-09-08T19:57:44.938Z,,0,,,3717.8000000000466,completion,,,,,false,,,,708805,708804,705085.4,705089,705086.2,708802.6,8,400,,,
trial,html.Screen,4_105_0,2023-09-08T19:57:49.388Z,,0,3,,4451.400000000023,response,ISIC_0032875.JPG,0,ISIC_0064660.JPG,ISIC_0064660.JPG,false,0,keypress(z),500,713255,713254,708801.88,708805,708802.6,713260.42,8,400,6,,ISIC_0032875.JPG
break,html.Screen,4_105_1,2023-09-08T19:57:49.390Z,,0,,,NaN,,,,,,false,,,,713257,713256,,713255,,713260.42,8,400,,,
break_continue,html.Screen,4_105_2,2023-09-08T19:57:49.391Z,,0,,,NaN,,,,,,false,,,,713258,713257,,713257,,713260.42,8,400,,,
sequence,flow.Sequence,4_105,2023-09-08T19:57:49.391Z,,0,,,4454.400000000023,completion,,,,,false,,,,713258,713257,708801.88,708805,708802.6,713260.42,8,400,,,
trial,html.Screen,4_106_0,2023-09-08T19:57:52.589Z,,0,3,,3195.579999999958,response,ISIC_0711360.JPG,24,ISIC_0011177.JPG,ISIC_0711360.JPG,false,1,keypress(m),500,716457,716456,713255.46,713258,713260.42,716457.8,8,400,7,,ISIC_0011177.JPG
break,html.Screen,4_106_1,2023-09-08T19:57:52.591Z,,0,,,NaN,,,,,,false,,,,716459,716459,,716457,,716457.8,8,400,,,
break_continue,html.Screen,4_106_2,2023-09-08T19:57:52.593Z,,0,,,NaN,,,,,,false,,,,716460,716459,,716459,,716457.8,8,400,,,
sequence,flow.Sequence,4_106,2023-09-08T19:57:52.593Z,,0,,,3198.579999999958,completion,,,,,false,,,,716460,716459,713255.46,713258,713260.42,716457.8,8,400,,,
trial,html.Screen,4_107_0,2023-09-08T19:57:56.338Z,,0,3,,3747.1999999999534,response,ISIC_0059421.JPG,30,ISIC_0063516.JPG,ISIC_0063516.JPG,false,0,keypress(z),500,720205,720205,716456.98,716461,716457.8,720206.62,8,400,8,,ISIC_0059421.JPG
break,html.Screen,4_107_1,2023-09-08T19:57:56.340Z,,0,,,NaN,,,,,,false,,,,720207,720207,,720206,,720206.62,8,400,,,
break_continue,html.Screen,4_107_2,2023-09-08T19:57:56.342Z,,0,,,NaN,,,,,,false,,,,720208,720208,,720208,,720206.62,8,400,,,
sequence,flow.Sequence,4_107,2023-09-08T19:57:56.342Z,,0,,,3750.1999999999534,completion,,,,,false,,,,720209,720208,716456.98,716461,716457.8,720206.62,8,400,,,
trial,html.Screen,4_108_0,2023-09-08T19:58:00.144Z,,0,3,,3803.3800000000047,response,ISIC_1736735.JPG,29,ISIC_8152423.JPG,ISIC_1736735.JPG,false,1,keypress(m),500,724011,724010,720205.76,720209,720206.62,724011.34,8,400,9,,ISIC_8152423.JPG
break,html.Screen,4_108_1,2023-09-08T19:58:00.145Z,,0,,,NaN,,,,,,false,,,,724012,724012,,724011,,724011.34,8,400,,,
break_continue,html.Screen,4_108_2,2023-09-08T19:58:00.145Z,,0,,,NaN,,,,,,false,,,,724012,724012,,724012,,724011.34,8,400,,,
sequence,flow.Sequence,4_108,2023-09-08T19:58:00.145Z,,0,,,3805.3800000000047,completion,,,,,false,,,,724013,724012,720205.76,720209,720206.62,724011.34,8,400,,,
trial,html.Screen,4_109_0,2023-09-08T19:58:03.257Z,,0,3,,3112.6600000000326,response,ISIC_0028626.JPG,7,ISIC_1144024.JPG,ISIC_0028626.JPG,false,1,keypress(m),500,727124,727124,724011.06,724013,724011.34,727124.32,8,400,10,,ISIC_1144024.JPG
break,html.Screen,4_109_1,2023-09-08T19:58:03.258Z,,0,,,NaN,,,,,,false,,,,727124,727124,,727124,,727124.32,8,400,,,
break_continue,html.Screen,4_109_2,2023-09-08T19:58:03.258Z,,0,,,NaN,,,,,,false,,,,727125,727125,,727124,,727124.32,8,400,,,
sequence,flow.Sequence,4_109,2023-09-08T19:58:03.258Z,,0,,,3113.6600000000326,completion,,,,,false,,,,727125,727125,724011.06,724013,724011.34,727124.32,8,400,,,
trial,html.Screen,4_110_0,2023-09-08T19:58:06.608Z,,0,3,,3350.680000000051,response,ISIC_0028081.JPG,22,ISIC_8786606.JPG,ISIC_8786606.JPG,false,0,keypress(z),500,730475,730475,727123.94,727125,727124.32,730479.5,8,400,11,,ISIC_0028081.JPG
break,html.Screen,4_110_1,2023-09-08T19:58:06.610Z,,0,,,NaN,,,,,,false,,,,730477,730476,,730476,,730479.5,8,400,,,
break_continue,html.Screen,4_110_2,2023-09-08T19:58:06.611Z,,0,,,NaN,,,,,,false,,,,730478,730477,,730477,,730479.5,8,400,,,
sequence,flow.Sequence,4_110,2023-09-08T19:58:06.611Z,,0,,,3352.680000000051,completion,,,,,false,,,,730478,730477,727123.94,727125,727124.32,730479.5,8,400,,,
trial,html.Screen,4_111_0,2023-09-08T19:58:09.493Z,,0,3,,2879.5,response,ISIC_0010644.JPG,1,ISIC_0032917.JPG,ISIC_0010644.JPG,false,1,keypress(m),500,733360,733359,730476,730478,730479.5,733360.82,8,400,12,,ISIC_0032917.JPG
break,html.Screen,4_111_1,2023-09-08T19:58:09.495Z,,0,,,NaN,,,,,,false,,,,733362,733362,,733360,,733360.82,8,400,,,
break_continue,html.Screen,4_111_2,2023-09-08T19:58:09.496Z,,0,,,NaN,,,,,,false,,,,733363,733363,,733362,,733360.82,8,400,,,
sequence,flow.Sequence,4_111,2023-09-08T19:58:09.496Z,,0,,,2883.5,completion,,,,,false,,,,733364,733363,730476,730478,730479.5,733360.82,8,400,,,
trial,html.Screen,4_112_0,2023-09-08T19:58:13.261Z,,0,3,,3767.180000000051,response,ISIC_0010551.JPG,3,ISIC_5065360.JPG,ISIC_0010551.JPG,false,1,keypress(m),500,737128,737128,733360.06,733364,733360.82,737140.74,8,400,13,,ISIC_5065360.JPG
break,html.Screen,4_112_1,2023-09-08T19:58:13.263Z,,0,,,NaN,,,,,,false,,,,737130,737130,,737128,,737140.74,8,400,,,
break_continue,html.Screen,4_112_2,2023-09-08T19:58:13.264Z,,0,,,NaN,,,,,,false,,,,737131,737131,,737130,,737140.74,8,400,,,
sequence,flow.Sequence,4_112,2023-09-08T19:58:13.264Z,,0,,,3770.180000000051,completion,,,,,false,,,,737131,737131,733360.06,733364,733360.82,737140.74,8,400,,,
trial,html.Screen,4_113_0,2023-09-08T19:58:17.587Z,,0,3,,4312.260000000009,response,ISIC_9965754.JPG,2,ISIC_8468512.JPG,ISIC_8468512.JPG,false,0,keypress(z),500,741454,741453,737128.16,737132,737140.74,741455.42,8,400,14,,ISIC_9965754.JPG
break,html.Screen,4_113_1,2023-09-08T19:58:17.589Z,,0,,,NaN,,,,,,false,,,,741456,741456,,741454,,741455.42,8,400,,,
break_continue,html.Screen,4_113_2,2023-09-08T19:58:17.591Z,,0,,,NaN,,,,,,false,,,,741457,741457,,741456,,741455.42,8,400,,,
sequence,flow.Sequence,4_113,2023-09-08T19:58:17.591Z,,0,,,4316.260000000009,completion,,,,,false,,,,741458,741457,737128.16,737131,737140.74,741455.42,8,400,,,
trial,html.Screen,4_114_0,2023-09-08T19:58:21.720Z,,0,3,,4130.579999999958,response,ISIC_0068048.JPG,30,ISIC_6201695.JPG,ISIC_0068048.JPG,false,1,keypress(m),500,745587,745586,741454.48,741458,741455.42,745588.22,8,400,15,,ISIC_6201695.JPG
break,html.Screen,4_114_1,2023-09-08T19:58:21.722Z,,0,,,NaN,,,,,,false,,,,745589,745588,,745587,,745588.22,8,400,,,
break_continue,html.Screen,4_114_2,2023-09-08T19:58:21.724Z,,0,,,NaN,,,,,,false,,,,745591,745590,,745589,,745588.22,8,400,,,
sequence,flow.Sequence,4_114,2023-09-08T19:58:21.724Z,,0,,,4134.579999999958,completion,,,,,false,,,,745591,745590,741454.48,741458,741455.42,745588.22,8,400,,,
trial,html.Screen,4_115_0,2023-09-08T19:58:25.339Z,,0,3,,3617.780000000028,response,ISIC_2809019.JPG,0,ISIC_0027248.JPG,ISIC_2809019.JPG,false,1,keypress(m),500,749207,749206,745587.54,745591,745588.22,749214.12,8,400,16,,ISIC_0027248.JPG
break,html.Screen,4_115_1,2023-09-08T19:58:25.342Z,,0,,,NaN,,,,,,false,,,,749209,749209,,749207,,749214.12,8,400,,,
break_continue,html.Screen,4_115_2,2023-09-08T19:58:25.343Z,,0,,,NaN,,,,,,false,,,,749210,749210,,749209,,749214.12,8,400,,,
sequence,flow.Sequence,4_115,2023-09-08T19:58:25.343Z,,0,,,3621.780000000028,completion,,,,,false,,,,749211,749210,745587.54,745591,745588.22,749214.12,8,400,,,
trial,html.Screen,4_116_0,2023-09-08T19:58:29.831Z,,0,3,,4482.880000000005,response,ISIC_0031517.JPG,31,ISIC_4938791.JPG,ISIC_0031517.JPG,false,1,keypress(m),500,753698,753697,749207.12,749211,749214.12,753699.18,8,400,17,,ISIC_4938791.JPG
break,html.Screen,4_116_1,2023-09-08T19:58:29.833Z,,0,,,NaN,,,,,,false,,,,753700,753700,,753699,,753699.18,8,400,,,
break_continue,html.Screen,4_116_2,2023-09-08T19:58:29.834Z,,0,,,NaN,,,,,,false,,,,753702,753701,,753701,,753699.18,8,400,,,
sequence,flow.Sequence,4_116,2023-09-08T19:58:29.835Z,,0,,,4486.880000000005,completion,,,,,false,,,,753702,753701,749207.12,749211,749214.12,753699.18,8,400,,,
trial,html.Screen,4_117_0,2023-09-08T19:58:32.973Z,,0,3,,3139.819999999949,response,ISIC_0013615.JPG,17,ISIC_3313701.JPG,ISIC_0013615.JPG,false,1,keypress(m),500,756840,756839,753698.5,753702,753699.18,756841.42,8,400,18,,ISIC_3313701.JPG
break,html.Screen,4_117_1,2023-09-08T19:58:32.975Z,,0,,,NaN,,,,,,false,,,,756842,756842,,756840,,756841.42,8,400,,,
break_continue,html.Screen,4_117_2,2023-09-08T19:58:32.976Z,,0,,,NaN,,,,,,false,,,,756844,756843,,756842,,756841.42,8,400,,,
sequence,flow.Sequence,4_117,2023-09-08T19:58:32.977Z,,0,,,3143.819999999949,completion,,,,,false,,,,756844,756843,753698.5,753702,753699.18,756841.42,8,400,,,
trial,html.Screen,4_118_0,2023-09-08T19:58:38.050Z,,0,3,,5075.579999999958,response,ISIC_0034170.JPG,12,ISIC_3401631.JPG,ISIC_3401631.JPG,false,0,keypress(z),500,761917,761917,756840.72,756845,756841.42,761920.44,8,400,19,,ISIC_0034170.JPG
break,html.Screen,4_118_1,2023-09-08T19:58:38.053Z,,0,,,NaN,,,,,,false,,,,761919,761919,,761918,,761920.44,8,400,,,
break_continue,html.Screen,4_118_2,2023-09-08T19:58:38.054Z,,0,,,NaN,,,,,,false,,,,761921,761920,,761920,,761920.44,8,400,,,
sequence,flow.Sequence,4_118,2023-09-08T19:58:38.054Z,,0,,,5078.579999999958,completion,,,,,false,,,,761922,761920,756840.72,756844,756841.42,761920.44,8,400,,,
trial,html.Screen,4_119_0,2023-09-08T19:58:43.856Z,,0,3,,5801.560000000056,response,ISIC_0032637.JPG,16,ISIC_2337786.JPG,ISIC_2337786.JPG,false,0,keypress(z),500,767723,767722,761918,761922,761920.44,767732.18,8,400,20,,ISIC_0032637.JPG
break,html.Screen,4_119_1,2023-09-08T19:58:43.858Z,,0,,,NaN,,,,,,false,,,,767725,767725,,767723,,767732.18,8,400,,,
break_continue,html.Screen,4_119_2,2023-09-08T19:58:43.859Z,,0,,,NaN,,,,,,false,,,,767726,767726,,767726,,767732.18,8,400,,,
sequence,flow.Sequence,4_119,2023-09-08T19:58:43.860Z,,0,,,5805.560000000056,completion,,,,,false,,,,767727,767726,761918,761922,761920.44,767732.18,8,400,,,
trial,html.Screen,4_120_0,2023-09-08T19:58:47.301Z,,0,3,,3435.819999999949,response,ISIC_7260492.JPG,14,ISIC_0011870.JPG,ISIC_0011870.JPG,false,0,keypress(z),500,771168,771168,767723.08,767727,767732.18,771169.2,8,400,21,,ISIC_7260492.JPG
break,html.Screen,4_120_1,2023-09-08T19:58:47.303Z,,0,,,NaN,,,,,,false,,,,771169,771169,,771168,,771169.2,8,400,,,
break_continue,html.Screen,4_120_2,2023-09-08T19:58:47.304Z,,0,,,NaN,,,,,,false,,,,771171,771170,,771170,,771169.2,8,400,,,
sequence,flow.Sequence,4_120,2023-09-08T19:58:47.305Z,,0,,,3437.819999999949,completion,,,,,false,,,,771171,771170,767723.08,767727,767732.18,771169.2,8,400,,,
trial,html.Screen,4_121_0,2023-09-08T19:58:53.523Z,,0,3,,6219.800000000047,response,ISIC_7797853.JPG,25,ISIC_0000371.JPG,ISIC_7797853.JPG,false,1,keypress(m),500,777390,777389,771168.44,771171,771169.2,777391.32,8,400,22,,ISIC_0000371.JPG
break,html.Screen,4_121_1,2023-09-08T19:58:53.525Z,,0,,,NaN,,,,,,false,,,,777392,777392,,777390,,777391.32,8,400,,,
break_continue,html.Screen,4_121_2,2023-09-08T19:58:53.527Z,,0,,,NaN,,,,,,false,,,,777393,777393,,777393,,777391.32,8,400,,,
sequence,flow.Sequence,4_121,2023-09-08T19:58:53.527Z,,0,,,6223.800000000047,completion,,,,,false,,,,777394,777393,771168.44,771171,771169.2,777391.32,8,400,,,
trial,html.Screen,4_122_0,2023-09-08T19:58:57.200Z,,0,3,,3674.680000000051,response,ISIC_0011446.JPG,10,ISIC_0060154.JPG,ISIC_0011446.JPG,false,1,keypress(m),500,781067,781066,777390.3,777394,777391.32,781087.58,8,400,23,,ISIC_0060154.JPG
break,html.Screen,4_122_1,2023-09-08T19:58:57.202Z,,0,,,NaN,,,,,,false,,,,781069,781069,,781067,,781087.58,8,400,,,
break_continue,html.Screen,4_122_2,2023-09-08T19:58:57.204Z,,0,,,NaN,,,,,,false,,,,781071,781070,,781070,,781087.58,8,400,,,
sequence,flow.Sequence,4_122,2023-09-08T19:58:57.204Z,,0,,,3678.680000000051,completion,,,,,false,,,,781071,781070,777390.3,777394,777391.32,781087.58,8,400,,,
trial,html.Screen,4_123_0,2023-09-08T19:59:01.475Z,,0,3,,4254.420000000042,response,ISIC_5116614.JPG,13,ISIC_0174983.JPG,ISIC_0174983.JPG,false,0,keypress(z),500,785342,785342,781071.12,781072,781087.58,785342.48,8,400,24,,ISIC_5116614.JPG
break,html.Screen,4_123_1,2023-09-08T19:59:01.476Z,,0,,,NaN,,,,,,false,,,,785343,785343,,785342,,785342.48,8,400,,,
break_continue,html.Screen,4_123_2,2023-09-08T19:59:01.477Z,,0,,,NaN,,,,,,false,,,,785344,785344,,785344,,785342.48,8,400,,,
sequence,flow.Sequence,4_123,2023-09-08T19:59:01.477Z,,0,,,4256.420000000042,completion,,,,,false,,,,785344,785344,781071.12,781072,781087.58,785342.48,8,400,,,
trial,html.Screen,4_124_0,2023-09-08T19:59:06.538Z,,0,3,,5061.520000000019,response,ISIC_0010765.JPG,31,ISIC_0027839.JPG,ISIC_0010765.JPG,false,1,keypress(m),500,790404,790404,785342.08,785344,785342.48,790405.58,8,400,25,,ISIC_0027839.JPG
break,html.Screen,4_124_1,2023-09-08T19:59:06.540Z,,0,,,NaN,,,,,,false,,,,790406,790406,,790405,,790405.58,8,400,,,
break_continue,html.Screen,4_124_2,2023-09-08T19:59:06.541Z,,0,,,NaN,,,,,,false,,,,790407,790407,,790406,,790405.58,8,400,,,
sequence,flow.Sequence,4_124,2023-09-08T19:59:06.541Z,,0,,,5064.520000000019,completion,,,,,false,,,,790407,790407,785342.08,785344,785342.48,790405.58,8,400,,,
trial,html.Screen,4_125_0,2023-09-08T19:59:10.773Z,,0,3,,4233.420000000042,response,ISIC_1585511.JPG,26,ISIC_0060629.JPG,ISIC_0060629.JPG,false,0,keypress(z),500,794640,794639,790404.98,790408,790405.58,794643.24,8,400,26,,ISIC_1585511.JPG
break,html.Screen,4_125_1,2023-09-08T19:59:10.776Z,,0,,,NaN,,,,,,false,,,,794642,794642,,794640,,794643.24,8,400,,,
break_continue,html.Screen,4_125_2,2023-09-08T19:59:10.777Z,,0,,,NaN,,,,,,false,,,,794643,794643,,794642,,794643.24,8,400,,,
sequence,flow.Sequence,4_125,2023-09-08T19:59:10.777Z,,0,,,4237.420000000042,completion,,,,,false,,,,794644,794643,790404.98,790407,790405.58,794643.24,8,400,,,
trial,html.Screen,4_126_0,2023-09-08T19:59:13.899Z,,0,3,,3122.7600000000093,response,ISIC_5273029.JPG,0,ISIC_6828892.JPG,ISIC_5273029.JPG,false,1,keypress(m),500,797766,797766,794640.46,794644,794643.24,797767.12,8,400,27,,ISIC_6828892.JPG
break,html.Screen,4_126_1,2023-09-08T19:59:13.900Z,,0,,,NaN,,,,,,false,,,,797767,797767,,797767,,797767.12,8,400,,,
break_continue,html.Screen,4_126_2,2023-09-08T19:59:13.901Z,,0,,,NaN,,,,,,false,,,,797768,797768,,797768,,797767.12,8,400,,,
sequence,flow.Sequence,4_126,2023-09-08T19:59:13.901Z,,0,,,3124.7600000000093,completion,,,,,false,,,,797768,797768,794640.46,794644,794643.24,797767.12,8,400,,,
trial,html.Screen,4_127_0,2023-09-08T19:59:17.790Z,,0,3,,3888.8800000000047,response,ISIC_0030760.JPG,18,ISIC_4446385.JPG,ISIC_0030760.JPG,false,1,keypress(m),500,801657,801656,797766.74,797768,797767.12,801658.18,8,400,28,,ISIC_4446385.JPG
break,html.Screen,4_127_1,2023-09-08T19:59:17.792Z,,0,,,NaN,,,,,,false,,,,801659,801658,,801657,,801658.18,8,400,,,
break_continue,html.Screen,4_127_2,2023-09-08T19:59:17.793Z,,0,,,NaN,,,,,,false,,,,801660,801660,,801659,,801658.18,8,400,,,
sequence,flow.Sequence,4_127,2023-09-08T19:59:17.793Z,,0,,,3892.8800000000047,completion,,,,,false,,,,801660,801660,797766.74,797768,797767.12,801658.18,8,400,,,
trial,html.Screen,4_128_0,2023-09-08T19:59:21.219Z,,0,3,,3426.819999999949,response,ISIC_0024410.JPG,3,ISIC_0011729.JPG,ISIC_0011729.JPG,false,0,keypress(z),500,805085,805085,801657.3,801661,801658.18,805086.58,8,400,29,,ISIC_0024410.JPG
break,html.Screen,4_128_1,2023-09-08T19:59:21.221Z,,0,,,NaN,,,,,,false,,,,805088,805087,,805086,,805086.58,8,400,,,
break_continue,html.Screen,4_128_2,2023-09-08T19:59:21.222Z,,0,,,NaN,,,,,,false,,,,805089,805089,,805088,,805086.58,8,400,,,
sequence,flow.Sequence,4_128,2023-09-08T19:59:21.223Z,,0,,,3430.819999999949,completion,,,,,false,,,,805090,805089,801657.3,801661,801658.18,805086.58,8,400,,,
trial,html.Screen,4_129_0,2023-09-08T19:59:24.121Z,,0,3,,2899.420000000042,response,ISIC_0027935.JPG,1,ISIC_0014324.JPG,ISIC_0014324.JPG,false,0,keypress(z),500,807988,807986,805085.68,805090,805086.58,807988.46,8,400,30,,ISIC_0027935.JPG
break,html.Screen,4_129_1,2023-09-08T19:59:24.122Z,,0,,,NaN,,,,,,false,,,,807989,807988,,807988,,807988.46,8,400,,,
break_continue,html.Screen,4_129_2,2023-09-08T19:59:24.123Z,,0,,,NaN,,,,,,false,,,,807991,807990,,807989,,807988.46,8,400,,,
sequence,flow.Sequence,4_129,2023-09-08T19:59:24.124Z,,0,,,2903.420000000042,completion,,,,,false,,,,807991,807990,805085.68,805090,805086.58,807988.46,8,400,,,
trial,html.Screen,4_130_0,2023-09-08T19:59:27.410Z,,0,3,,3286.5400000000373,response,ISIC_0009960.JPG,19,ISIC_0013549.JPG,ISIC_0013549.JPG,false,0,keypress(z),500,811276,811275,807987.64,807991,807988.46,811279.42,8,400,31,,ISIC_0009960.JPG
break,html.Screen,4_130_1,2023-09-08T19:59:27.412Z,,0,,,NaN,,,,,,false,,,,811279,811278,,811277,,811279.42,8,400,,,
break_continue,html.Screen,4_130_2,2023-09-08T19:59:27.414Z,,0,,,NaN,,,,,,false,,,,811280,811279,,811279,,811279.42,8,400,,,
sequence,flow.Sequence,4_130,2023-09-08T19:59:27.414Z,,0,,,3290.5400000000373,completion,,,,,false,,,,811280,811279,807987.64,807991,807988.46,811279.42,8,400,,,
trial,html.Screen,4_131_0,2023-09-08T19:59:30.581Z,,0,3,,3168.579999999958,response,ISIC_0034104.JPG,1,ISIC_0101540.JPG,ISIC_0034104.JPG,false,1,keypress(m),500,814448,814448,811276.92,811281,811279.42,814448.78,8,400,32,,ISIC_0101540.JPG
break,html.Screen,4_131_1,2023-09-08T19:59:30.582Z,,0,,,NaN,,,,,,false,,,,814449,814449,,814448,,814448.78,8,400,,,
break_continue,html.Screen,4_131_2,2023-09-08T19:59:30.583Z,,0,,,NaN,,,,,,false,,,,814449,814449,,814449,,814448.78,8,400,,,
sequence,flow.Sequence,4_131,2023-09-08T19:59:30.583Z,,0,,,3169.579999999958,completion,,,,,false,,,,814450,814449,811276.92,811281,811279.42,814448.78,8,400,,,
trial,html.Screen,4_132_0,2023-09-08T19:59:34.791Z,,0,3,,4208.219999999972,response,ISIC_8281208.JPG,2,ISIC_2379379.JPG,ISIC_8281208.JPG,false,1,keypress(m),500,818657,818657,814448.18,814450,814448.78,818658.88,8,400,33,,ISIC_2379379.JPG
break,html.Screen,4_132_1,2023-09-08T19:59:34.793Z,,0,,,NaN,,,,,,false,,,,818660,818659,,818658,,818658.88,8,400,,,
break_continue,html.Screen,4_132_2,2023-09-08T19:59:34.794Z,,0,,,NaN,,,,,,false,,,,818661,818660,,818660,,818658.88,8,400,,,
sequence,flow.Sequence,4_132,2023-09-08T19:59:34.795Z,,0,,,4211.219999999972,completion,,,,,false,,,,818661,818660,814448.18,814450,814448.78,818658.88,8,400,,,
trial,html.Screen,4_133_0,2023-09-08T19:59:39.959Z,,0,3,,5167.119999999995,response,ISIC_0031249.JPG,11,ISIC_5400609.JPG,ISIC_0031249.JPG,false,1,keypress(m),500,823826,823826,818658.06,818662,818658.88,823835.72,8,400,34,,ISIC_5400609.JPG
break,html.Screen,4_133_1,2023-09-08T19:59:39.962Z,,0,,,NaN,,,,,,false,,,,823829,823828,,823827,,823835.72,8,400,,,
break_continue,html.Screen,4_133_2,2023-09-08T19:59:39.963Z,,0,,,NaN,,,,,,false,,,,823830,823830,,823829,,823835.72,8,400,,,
sequence,flow.Sequence,4_133,2023-09-08T19:59:39.964Z,,0,,,5171.119999999995,completion,,,,,false,,,,823831,823830,818658.06,818661,818658.88,823835.72,8,400,,,
trial,html.Screen,4_134_0,2023-09-08T19:59:45.101Z,,0,3,,5131.280000000028,response,ISIC_1057521.JPG,2,ISIC_7898061.JPG,ISIC_1057521.JPG,false,1,keypress(m),500,828967,828967,823827.16,823832,823835.72,828968.64,8,400,35,,ISIC_7898061.JPG
break,html.Screen,4_134_1,2023-09-08T19:59:45.103Z,,0,,,NaN,,,,,,false,,,,828970,828969,,828968,,828968.64,8,400,,,
break_continue,html.Screen,4_134_2,2023-09-08T19:59:45.104Z,,0,,,NaN,,,,,,false,,,,828971,828970,,828970,,828968.64,8,400,,,
sequence,flow.Sequence,4_134,2023-09-08T19:59:45.104Z,,0,,,5134.280000000028,completion,,,,,false,,,,828972,828970,823827.16,823831,823835.72,828968.64,8,400,,,
trial,html.Screen,4_135_0,2023-09-08T19:59:48.473Z,,0,3,,3371.359999999986,response,ISIC_0010081.JPG,12,ISIC_6037869.JPG,ISIC_0010081.JPG,false,1,keypress(m),500,832340,832340,828967.8,828972,828968.64,832340.66,8,400,36,,ISIC_6037869.JPG
break,html.Screen,4_135_1,2023-09-08T19:59:48.474Z,,0,,,NaN,,,,,,false,,,,832341,832341,,832340,,832340.66,8,400,,,
break_continue,html.Screen,4_135_2,2023-09-08T19:59:48.475Z,,0,,,NaN,,,,,,false,,,,832341,832341,,832341,,832340.66,8,400,,,
sequence,flow.Sequence,4_135,2023-09-08T19:59:48.475Z,,0,,,3372.359999999986,completion,,,,,false,,,,832341,832341,828967.8,828972,828968.64,832340.66,8,400,,,
trial,html.Screen,4_136_0,2023-09-08T19:59:51.756Z,,0,3,,3282.3399999999674,response,ISIC_0027076.JPG,6,ISIC_9424787.JPG,ISIC_9424787.JPG,false,0,keypress(z),500,835623,835623,832340.22,832342,832340.66,835626,8,400,37,,ISIC_0027076.JPG
break,html.Screen,4_136_1,2023-09-08T19:59:51.758Z,,0,,,NaN,,,,,,false,,,,835625,835625,,835624,,835626,8,400,,,
break_continue,html.Screen,4_136_2,2023-09-08T19:59:51.759Z,,0,,,NaN,,,,,,false,,,,835627,835626,,835626,,835626,8,400,,,
sequence,flow.Sequence,4_136,2023-09-08T19:59:51.760Z,,0,,,3285.3399999999674,completion,,,,,false,,,,835627,835626,832340.22,832342,832340.66,835626,8,400,,,
trial,html.Screen,4_137_0,2023-09-08T19:59:55.430Z,,0,3,,3670,response,ISIC_2246150.JPG,31,ISIC_0028087.JPG,ISIC_0028087.JPG,false,0,keypress(z),500,839296,839296,835623.52,835627,835626,839306.22,8,400,38,,ISIC_2246150.JPG
break,html.Screen,4_137_1,2023-09-08T19:59:55.431Z,,0,,,NaN,,,,,,false,,,,839298,839297,,839297,,839306.22,8,400,,,
break_continue,html.Screen,4_137_2,2023-09-08T19:59:55.433Z,,0,,,NaN,,,,,,false,,,,839299,839299,,839298,,839306.22,8,400,,,
sequence,flow.Sequence,4_137,2023-09-08T19:59:55.434Z,,0,,,3673,completion,,,,,false,,,,839300,839299,835623.52,835627,835626,839306.22,8,400,,,
trial,html.Screen,4_138_0,2023-09-08T20:00:00.104Z,,0,3,,4663.780000000028,response,ISIC_0010156.JPG,2,ISIC_3335505.JPG,ISIC_0010156.JPG,false,1,keypress(m),500,843971,843970,839296.66,839300,839306.22,843971.96,8,400,39,,ISIC_3335505.JPG
break,html.Screen,4_138_1,2023-09-08T20:00:00.106Z,,0,,,NaN,,,,,,false,,,,843973,843972,,843971,,843971.96,8,400,,,
break_continue,html.Screen,4_138_2,2023-09-08T20:00:00.107Z,,0,,,NaN,,,,,,false,,,,843974,843973,,843973,,843971.96,8,400,,,
sequence,flow.Sequence,4_138,2023-09-08T20:00:00.107Z,,0,,,4666.780000000028,completion,,,,,false,,,,843974,843973,839296.66,839300,839306.22,843971.96,8,400,,,
trial,html.Screen,4_139_0,2023-09-08T20:00:03.795Z,,0,3,,3689.0400000000373,response,ISIC_0062869.JPG,9,ISIC_0064660.JPG,ISIC_0064660.JPG,false,0,keypress(z),500,847662,847661,843971.22,843974,843971.96,847666.06,8,400,40,,ISIC_0062869.JPG
break,html.Screen,4_139_1,2023-09-08T20:00:03.797Z,,0,,,NaN,,,,,,false,,,,847664,847663,,847662,,847666.06,8,400,,,
break_continue,html.Screen,4_139_2,2023-09-08T20:00:03.799Z,,0,,,NaN,,,,,,false,,,,847665,847665,,847664,,847666.06,8,400,,,
sequence,flow.Sequence,4_139,2023-09-08T20:00:03.799Z,,0,,,3693.0400000000373,completion,,,,,false,,,,847665,847665,843971.22,843974,843971.96,847666.06,8,400,,,
trial,html.Screen,4_140_0,2023-09-08T20:00:07.132Z,,0,3,,3331.939999999944,response,ISIC_0067805.JPG,3,ISIC_6801680.JPG,ISIC_0067805.JPG,false,1,keypress(m),500,850999,850998,847662.38,847666,847666.06,851000.26,8,400,41,,ISIC_6801680.JPG
break,html.Screen,4_140_1,2023-09-08T20:00:07.135Z,,0,,,NaN,,,,,,false,,,,851001,851001,,850999,,851000.26,8,400,,,
break_continue,html.Screen,4_140_2,2023-09-08T20:00:07.136Z,,0,,,NaN,,,,,,false,,,,851003,851002,,851002,,851000.26,8,400,,,
sequence,flow.Sequence,4_140,2023-09-08T20:00:07.137Z,,0,,,3335.939999999944,completion,,,,,false,,,,851003,851002,847662.38,847666,847666.06,851000.26,8,400,,,
trial,html.Screen,4_141_0,2023-09-08T20:00:11.519Z,,0,3,,4384.739999999991,response,ISIC_0032544.JPG,14,ISIC_9471156.JPG,ISIC_0032544.JPG,false,1,keypress(m),500,855385,855385,850999.54,851003,851000.26,855392.94,8,400,42,,ISIC_9471156.JPG
break,html.Screen,4_141_1,2023-09-08T20:00:11.521Z,,0,,,NaN,,,,,,false,,,,855387,855387,,855385,,855392.94,8,400,,,
break_continue,html.Screen,4_141_2,2023-09-08T20:00:11.521Z,,0,,,NaN,,,,,,false,,,,855388,855388,,855387,,855392.94,8,400,,,
sequence,flow.Sequence,4_141,2023-09-08T20:00:11.522Z,,0,,,4387.739999999991,completion,,,,,false,,,,855389,855388,850999.54,851003,851000.26,855392.94,8,400,,,
trial,html.Screen,4_142_0,2023-09-08T20:00:14.590Z,,0,3,,3063.060000000056,response,ISIC_2822718.JPG,11,ISIC_0013341.JPG,ISIC_0013341.JPG,false,0,keypress(z),500,858457,858456,855385.62,855389,855392.94,858458.26,8,400,43,,ISIC_2822718.JPG
break,html.Screen,4_142_1,2023-09-08T20:00:14.592Z,,0,,,NaN,,,,,,false,,,,858459,858459,,858457,,858458.26,8,400,,,
break_continue,html.Screen,4_142_2,2023-09-08T20:00:14.593Z,,0,,,NaN,,,,,,false,,,,858460,858460,,858459,,858458.26,8,400,,,
sequence,flow.Sequence,4_142,2023-09-08T20:00:14.594Z,,0,,,3067.060000000056,completion,,,,,false,,,,858461,858460,855385.62,855389,855392.94,858458.26,8,400,,,
trial,html.Screen,4_143_0,2023-09-08T20:00:17.478Z,,0,3,,2885.7399999999907,response,ISIC_0026369.JPG,4,ISIC_8354042.JPG,ISIC_0026369.JPG,false,1,keypress(m),500,861344,861344,858457.28,858461,858458.26,861354.66,8,400,44,,ISIC_8354042.JPG
break,html.Screen,4_143_1,2023-09-08T20:00:17.480Z,,0,,,NaN,,,,,,false,,,,861347,861346,,861345,,861354.66,8,400,,,
break_continue,html.Screen,4_143_2,2023-09-08T20:00:17.481Z,,0,,,NaN,,,,,,false,,,,861348,861348,,861347,,861354.66,8,400,,,
sequence,flow.Sequence,4_143,2023-09-08T20:00:17.481Z,,0,,,2889.7399999999907,completion,,,,,false,,,,861348,861348,858457.28,858461,858458.26,861354.66,8,400,,,
trial,html.Screen,4_144_0,2023-09-08T20:00:20.379Z,,0,3,,2891.3399999999674,response,ISIC_0025955.JPG,16,ISIC_0028029.JPG,ISIC_0028029.JPG,false,0,keypress(z),500,864246,864246,861345.02,861349,861354.66,864252.3,8,400,45,,ISIC_0025955.JPG
break,html.Screen,4_144_1,2023-09-08T20:00:20.382Z,,0,,,NaN,,,,,,false,,,,864248,864248,,864246,,864252.3,8,400,,,
break_continue,html.Screen,4_144_2,2023-09-08T20:00:20.383Z,,0,,,NaN,,,,,,false,,,,864250,864249,,864249,,864252.3,8,400,,,
sequence,flow.Sequence,4_144,2023-09-08T20:00:20.384Z,,0,,,2894.3399999999674,completion,,,,,false,,,,864250,864249,861345.02,861349,861354.66,864252.3,8,400,,,
trial,html.Screen,4_145_0,2023-09-08T20:00:25.129Z,,0,3,,4742.699999999953,response,ISIC_0001057.JPG,12,ISIC_4566439.JPG,ISIC_4566439.JPG,false,0,keypress(z),500,868995,868995,864246.78,864251,864252.3,868998.34,8,400,46,,ISIC_0001057.JPG
break,html.Screen,4_145_1,2023-09-08T20:00:25.131Z,,0,,,NaN,,,,,,false,,,,868997,868997,,868996,,868998.34,8,400,,,
break_continue,html.Screen,4_145_2,2023-09-08T20:00:25.132Z,,0,,,NaN,,,,,,false,,,,868998,868998,,868998,,868998.34,8,400,,,
sequence,flow.Sequence,4_145,2023-09-08T20:00:25.132Z,,0,,,4745.699999999953,completion,,,,,false,,,,868999,868998,864246.78,864251,864252.3,868998.34,8,400,,,
trial,html.Screen,4_146_0,2023-09-08T20:00:28.580Z,,0,3,,3446.6600000000326,response,ISIC_0030666.JPG,1,ISIC_0010705.JPG,ISIC_0010705.JPG,false,0,keypress(z),500,872446,872445,868995.94,868999,868998.34,872447.28,8,400,47,,ISIC_0030666.JPG
break,html.Screen,4_146_1,2023-09-08T20:00:28.582Z,,0,,,NaN,,,,,,false,,,,872448,872447,,872446,,872447.28,8,400,,,
break_continue,html.Screen,4_146_2,2023-09-08T20:00:28.582Z,,0,,,NaN,,,,,,false,,,,872449,872449,,872448,,872447.28,8,400,,,
sequence,flow.Sequence,4_146,2023-09-08T20:00:28.583Z,,0,,,3450.6600000000326,completion,,,,,false,,,,872450,872449,868995.94,868999,868998.34,872447.28,8,400,,,
trial,html.Screen,4_147_0,2023-09-08T20:00:32.489Z,,0,3,,3907.719999999972,response,ISIC_0025152.JPG,0,ISIC_9363106.JPG,ISIC_9363106.JPG,false,0,keypress(z),500,876356,876355,872446.52,872450,872447.28,876358.8,8,400,48,,ISIC_0025152.JPG
break,html.Screen,4_147_1,2023-09-08T20:00:32.491Z,,0,,,NaN,,,,,,false,,,,876357,876357,,876356,,876358.8,8,400,,,
break_continue,html.Screen,4_147_2,2023-09-08T20:00:32.492Z,,0,,,NaN,,,,,,false,,,,876358,876358,,876358,,876358.8,8,400,,,
sequence,flow.Sequence,4_147,2023-09-08T20:00:32.492Z,,0,,,3910.719999999972,completion,,,,,false,,,,876358,876358,872446.52,872450,872447.28,876358.8,8,400,,,
trial,html.Screen,4_148_0,2023-09-08T20:00:36.103Z,,0,3,,3610.1999999999534,response,ISIC_2854610.JPG,29,ISIC_4352700.JPG,ISIC_4352700.JPG,false,0,keypress(z),500,879970,879969,876356.48,876358,876358.8,879972.62,8,400,49,,ISIC_2854610.JPG
break,html.Screen,4_148_1,2023-09-08T20:00:36.105Z,,0,,,NaN,,,,,,false,,,,879972,879972,,879970,,879972.62,8,400,,,
break_continue,html.Screen,4_148_2,2023-09-08T20:00:36.107Z,,0,,,NaN,,,,,,false,,,,879974,879973,,879973,,879972.62,8,400,,,
sequence,flow.Sequence,4_148,2023-09-08T20:00:36.107Z,,0,,,3614.1999999999534,completion,,,,,false,,,,879974,879973,876356.48,876358,876358.8,879972.62,8,400,,,
trial,html.Screen,4_149_0,2023-09-08T20:00:39.320Z,,0,3,,3214.3800000000047,response,ISIC_0305928.JPG,11,ISIC_0015390.JPG,ISIC_0015390.JPG,false,0,keypress(z),500,883187,883187,879970.5,879975,879972.62,883188.42,8,400,50,,ISIC_0305928.JPG
break,html.Screen,4_149_1,2023-09-08T20:00:49.314Z,,0,,,10006.640000000014,timeout,,,,,false,,,,893180,893178.4,883187.62,883187,883188.42,893195.06,8,400,,,
break_continue,html.Screen,4_149_2,2023-09-08T20:00:50.921Z,,0,,,1561.9399999999441,response,,,,,false,continue,keypress(Space),,894787,894757,893178.4,893181,893195.06,894788.14,8,400,,,
sequence,flow.Sequence,4_149,2023-09-08T20:00:50.921Z,,0,,,14784.380000000005,completion,,,,,false,,,,894787,894757,879970.5,879975,879972.62,894788.14,8,400,,,
