sender,sender_type,sender_id,timestamp,meta,,blockNo,condition,duration,ended_on,img_left,img_reveal,img_right,loser,practice,response,response_action,selection_duration,time_commit,time_end,time_render,time_run,time_show,time_switch,total_blocks,total_trials,trialNo,url,winner
informed_consent,html.Screen,0,2023-09-11T17:34:06.125Z,"{""labjs_version"":""20.2.4"",""labjs_build"":{""flavor"":""production"",""commit"":""f5b4a49f956347addd546a832a3327688c2c0fef""},""location"":""https://run.pavlovia.org/MurrayBennett/melanoma-2afc/?participant=67698&platform=sona"",""userAgent"":""Mozilla/5.0 (Macintosh; Intel Mac OS X 10_15_7) AppleWebKit/537.36 (KHTML, like Gecko) Chrome/116.0.0.0 Safari/537.36"",""platform"":""MacIntel"",""language"":""en-US"",""locale"":""en-US"",""timeZone"":""America/Chicago"",""timezoneOffset"":300,""screen_width"":1470,""screen_height"":956,""scroll_width"":1470,""scroll_height"":787,""window_innerWidth"":1470,""window_innerHeight"":835,""devicePixelRatio"":2}",,,,6471.222000023841,response,,,,,,consent,click button,,8568.300000011921,8561.600000023842,1957.05,2100.800000011921,2090.378,8573.78,,,,"{""participant"":""67698"",""platform"":""sona""}",
Welcome,html.Screen,1,2023-09-11T17:34:12.345Z,,,,asymmetry,6211.820000023841,response,,,,,,continue,click button,,14788.600000023842,14785.600000023842,8557.114,8568.5,8573.78,14790.444,,,,,
trial,html.Screen,2_0_0,2023-09-11T17:34:23.834Z,,0,0,,11516.412,timeout,ISIC_6997061.JPG,,ISIC_0069348.JPG,ISIC_0069348.JPG,true,,,500,26277.90000000596,26277.30000001192,14773.778,14788.90000000596,14790.444,26306.856,1,6,1,,ISIC_6997061.JPG
sequence,flow.Sequence,2_0,2023-09-11T17:34:23.835Z,,0,,,11486.856000011921,completion,,,,,true,,,,26278.40000000596,26277.30000001192,14773.778,14788.800000011921,14790.444,26306.856,1,6,,,
trial,html.Screen,2_1_0,2023-09-11T17:34:29.372Z,,0,0,,5508.544000005961,response,ISIC_0057368.JPG,,ISIC_0009529.JPG,ISIC_0057368.JPG,true,1,keypress(m),500,31816,31815.40000000596,26290.19,26278.600000023842,26306.856,31823.302,1,6,2,,ISIC_0009529.JPG
sequence,flow.Sequence,2_1,2023-09-11T17:34:29.372Z,,0,,,5508.544000005961,completion,,,,,true,,,,31816.5,31815.40000000596,26290.19,26278.5,26306.856,31823.302,1,6,,,
trial,html.Screen,2_2_0,2023-09-11T17:34:33.200Z,,0,0,,3820.298000023842,response,ISIC_0064954.JPG,,ISIC_9758671.JPG,ISIC_9758671.JPG,true,0,keypress(z),500,35644.30000001192,35643.60000002384,31806.636,31816.70000001788,31823.302,35657.097,1,6,3,,ISIC_0064954.JPG
sequence,flow.Sequence,2_2,2023-09-11T17:34:33.201Z,,0,,,3820.298000023842,completion,,,,,true,,,,35644.80000001192,35643.60000002384,31806.636,31816.600000023842,31823.302,35657.097,1,6,,,
trial,html.Screen,2_3_0,2023-09-11T17:34:38.181Z,,0,0,,4967.303000005959,response,ISIC_0005785.JPG,,ISIC_0000080.JPG,ISIC_0005785.JPG,true,1,keypress(m),500,40624.90000000596,40624.40000000596,35640.431,35645.10000002384,35657.097,40640.231,1,6,4,,ISIC_0000080.JPG
sequence,flow.Sequence,2_3,2023-09-11T17:34:38.181Z,,0,,,4967.303000005959,completion,,,,,true,,,,40625.5,40624.40000000596,35640.431,35645,35657.097,40640.231,1,6,,,
trial,html.Screen,2_4_0,2023-09-11T17:34:41.657Z,,0,0,,3460.369000023842,response,ISIC_7944028.JPG,,ISIC_5390060.JPG,ISIC_7944028.JPG,true,1,keypress(m),500,44101.30000001192,44100.60000002384,40623.565,40625.80000001192,40640.231,44106.759,1,6,5,,ISIC_5390060.JPG
sequence,flow.Sequence,2_4,2023-09-11T17:34:41.658Z,,0,,,3460.369000023842,completion,,,,,true,,,,44101.60000002384,44100.60000002384,40623.565,40625.70000001788,40640.231,44106.759,1,6,,,
trial,html.Screen,2_5_0,2023-09-11T17:34:45.119Z,,0,0,,3455.6410000059623,response,ISIC_0794216.JPG,,ISIC_0010188.JPG,ISIC_0010188.JPG,true,0,keypress(z),500,47563,47562.40000000596,44090.093,44101.90000000596,44106.759,47573.622,1,6,6,,ISIC_0794216.JPG
sequence,flow.Sequence,2_5,2023-09-11T17:34:45.119Z,,0,,,3455.6410000059623,completion,,,,,true,,,,47563.40000000596,47562.40000000596,44090.093,44101.80000001192,44106.759,47573.622,1,6,,,
loop,flow.Loop,2,2023-09-11T17:34:45.119Z,,,,,32771.95600000596,completion,,,,,true,,,,47563.60000002384,47562.40000000596,14773.778,14788.800000011921,14790.444,47573.622,1,6,,,
exp_instructions,html.Screen,3,2023-09-11T17:34:47.750Z,,,,,2615.0780000178784,response,,,,,,continue,keypress(Space),,50194.5,50188.70000001788,47556.956,47563.70000001788,47573.622,50206.85,,,,,
trial,html.Screen,4_0_0,2023-09-11T17:34:52.987Z,,0,1,,5223.750000023843,response,ISIC_7533983.JPG,5,ISIC_0068993.JPG,ISIC_7533983.JPG,false,1,keypress(m),500,55431,55430.60000002384,50190.184,50194.80000001192,50206.85,55439.974,8,400,1,,ISIC_0068993.JPG
break,html.Screen,4_0_1,2023-09-11T17:34:52.988Z,,0,,,NaN,,,,,,false,,,,55432.30000001192,55431.90000000596,,55431.20000001788,,55439.974,8,400,,,
break_continue,html.Screen,4_0_2,2023-09-11T17:34:52.989Z,,0,,,NaN,,,,,,false,,,,55432.70000001788,55432.70000001788,,55432.5,,55439.974,8,400,,,
sequence,flow.Sequence,4_0,2023-09-11T17:34:52.989Z,,0,,,5225.850000017883,completion,,,,,false,,,,55432.90000000596,55432.70000001788,50190.184,50194.70000001788,50206.85,55439.974,8,400,,,
trial,html.Screen,4_1_0,2023-09-11T17:35:04.934Z,,0,1,,81066.072,timeout,ISIC_1850196.JPG,443,ISIC_6384997.JPG,,false,,,500,67378.40000000596,67377.70000001788,55423.308,55433.20000001788,55439.974,136506.046,8,400,2,,
break,html.Screen,4_1_1,2023-09-11T17:35:04.935Z,,0,,,NaN,,,,,,false,,,,67379.40000000596,67379.10000002384,,67378.60000002384,,136506.046,8,400,,,
break_continue,html.Screen,4_1_2,2023-09-11T17:35:04.935Z,,0,,,NaN,,,,,,false,,,,67379.80000001192,67379.60000002384,,67379.5,,136506.046,8,400,,,
sequence,flow.Sequence,4_1,2023-09-11T17:35:04.936Z,,0,,,11939.62600002384,completion,,,,,false,,,,67379.90000000596,67379.60000002384,55423.308,55433.10000002384,55439.974,136506.046,8,400,,,
trial,html.Screen,4_2_0,2023-09-11T17:36:16.428Z,,0,1,,2366.3540000059584,response,ISIC_4428769.JPG,497,ISIC_0011956.JPG,ISIC_0011956.JPG,false,0,keypress(z),500,138872.80000001192,138872.40000000596,136489.38,67380.10000002384,136506.046,138889.284,8,400,3,,ISIC_4428769.JPG
break,html.Screen,4_2_1,2023-09-11T17:36:16.429Z,,0,,,NaN,,,,,,false,,,,138873.90000000596,138873.60000002384,,138873.10000002384,,138889.284,8,400,,,
break_continue,html.Screen,4_2_2,2023-09-11T17:36:16.429Z,,0,,,NaN,,,,,,false,,,,138874.20000001788,138874.10000002384,,138874,,138889.284,8,400,,,
sequence,flow.Sequence,4_2,2023-09-11T17:36:16.429Z,,0,,,2368.0540000238398,completion,,,,,false,,,,138874.40000000596,138874.10000002384,136489.38,67380,136506.046,138889.284,8,400,,,
trial,html.Screen,4_3_0,2023-09-11T17:36:20.418Z,,0,1,,3973.215999999986,response,ISIC_3157046.JPG,5,ISIC_0033654.JPG,ISIC_0033654.JPG,false,0,keypress(z),500,142862.90000000596,142862.5,138872.618,138874.5,138889.284,142872.98,8,400,4,,ISIC_3157046.JPG
break,html.Screen,4_3_1,2023-09-11T17:36:20.419Z,,0,,,NaN,,,,,,false,,,,142863.90000000596,142863.70000001788,,142863.20000001788,,142872.98,8,400,,,
break_continue,html.Screen,4_3_2,2023-09-11T17:36:20.419Z,,0,,,NaN,,,,,,false,,,,142864.30000001192,142864.20000001788,,142864.10000002384,,142872.98,8,400,,,
sequence,flow.Sequence,4_3,2023-09-11T17:36:20.419Z,,0,,,3974.916000017867,completion,,,,,false,,,,142864.5,142864.20000001788,138872.618,138874.40000000596,138889.284,142872.98,8,400,,,
trial,html.Screen,4_4_0,2023-09-11T17:36:23.638Z,,0,1,,3210.5199999999895,response,ISIC_0929483.JPG,8,ISIC_0031627.JPG,ISIC_0031627.JPG,false,0,keypress(z),500,146083.80000001192,146083.5,142856.314,142864.60000002384,142872.98,146089.518,8,400,5,,ISIC_0929483.JPG
break,html.Screen,4_4_1,2023-09-11T17:36:23.639Z,,0,,,NaN,,,,,,false,,,,146084.90000000596,146084.60000002384,,146084.10000002384,,146089.518,8,400,,,
break_continue,html.Screen,4_4_2,2023-09-11T17:36:23.640Z,,0,,,NaN,,,,,,false,,,,146085.30000001192,146085.20000001788,,146085.10000002384,,146089.518,8,400,,,
sequence,flow.Sequence,4_4,2023-09-11T17:36:23.640Z,,0,,,3212.220000017871,completion,,,,,false,,,,146085.5,146085.20000001788,142856.314,142864.60000002384,142872.98,146089.518,8,400,,,
trial,html.Screen,4_5_0,2023-09-11T17:36:26.378Z,,0,1,,2733.481999999989,response,ISIC_0010809.JPG,8,ISIC_0025841.JPG,ISIC_0025841.JPG,false,0,keypress(z),500,148823.40000000596,148823,146072.852,146085.70000001788,146089.518,148839.408,8,400,6,,ISIC_0010809.JPG
break,html.Screen,4_5_1,2023-09-11T17:36:26.379Z,,0,,,NaN,,,,,,false,,,,148824.30000001192,148824,,148823.60000002384,,148839.408,8,400,,,
break_continue,html.Screen,4_5_2,2023-09-11T17:36:26.379Z,,0,,,NaN,,,,,,false,,,,148824.60000002384,148824.60000002384,,148824.40000000596,,148839.408,8,400,,,
sequence,flow.Sequence,4_5,2023-09-11T17:36:26.379Z,,0,,,2735.082000023831,completion,,,,,false,,,,148824.90000000596,148824.60000002384,146072.852,146085.60000002384,146089.518,148839.408,8,400,,,
trial,html.Screen,4_6_0,2023-09-11T17:36:29.486Z,,0,1,,3091.392000011925,response,ISIC_5441247.JPG,8,ISIC_0010521.JPG,ISIC_5441247.JPG,false,1,keypress(m),500,151931.20000001788,151930.80000001192,148822.742,148825,148839.408,151939.284,8,400,7,,ISIC_0010521.JPG
break,html.Screen,4_6_1,2023-09-11T17:36:29.487Z,,0,,,NaN,,,,,,false,,,,151932.20000001788,151932,,151931.40000000596,,151939.284,8,400,,,
break_continue,html.Screen,4_6_2,2023-09-11T17:36:29.487Z,,0,,,NaN,,,,,,false,,,,151932.5,151932.40000000596,,151932.20000001788,,151939.284,8,400,,,
sequence,flow.Sequence,4_6,2023-09-11T17:36:29.487Z,,0,,,3092.9920000059647,completion,,,,,false,,,,151932.70000001788,151932.40000000596,148822.742,148825,148839.408,151939.284,8,400,,,
trial,html.Screen,4_7_0,2023-09-11T17:36:32.260Z,,0,1,,2766.3160000238277,response,ISIC_0413563.JPG,7,ISIC_5234605.JPG,ISIC_5234605.JPG,false,0,keypress(z),500,154705.90000000596,154705.60000002384,151922.618,151932.80000001192,151939.284,154722.819,8,400,8,,ISIC_0413563.JPG
break,html.Screen,4_7_1,2023-09-11T17:36:32.261Z,,0,,,NaN,,,,,,false,,,,154706.5,154706.40000000596,,154706.10000002384,,154722.819,8,400,,,
break_continue,html.Screen,4_7_2,2023-09-11T17:36:32.261Z,,0,,,NaN,,,,,,false,,,,154706.70000001788,154706.60000002384,,154706.5,,154722.819,8,400,,,
sequence,flow.Sequence,4_7,2023-09-11T17:36:32.261Z,,0,,,2767.3160000238277,completion,,,,,false,,,,154706.70000001788,154706.60000002384,151922.618,151932.80000001192,151939.284,154722.819,8,400,,,
trial,html.Screen,4_8_0,2023-09-11T17:36:36.137Z,,0,1,,3858.881000017893,response,ISIC_0031717.JPG,6,ISIC_2772217.JPG,ISIC_2772217.JPG,false,0,keypress(z),500,158582.10000002384,158581.70000001788,154706.153,154707.5,154722.819,158589.331,8,400,9,,ISIC_0031717.JPG
break,html.Screen,4_8_1,2023-09-11T17:36:36.138Z,,0,,,NaN,,,,,,false,,,,158583.10000002384,158583,,158582.40000000596,,158589.331,8,400,,,
break_continue,html.Screen,4_8_2,2023-09-11T17:36:36.138Z,,0,,,NaN,,,,,,false,,,,158583.5,158583.40000000596,,158583.30000001192,,158589.331,8,400,,,
sequence,flow.Sequence,4_8,2023-09-11T17:36:36.138Z,,0,,,3860.581000005972,completion,,,,,false,,,,158583.70000001788,158583.40000000596,154706.153,154707.5,154722.819,158589.331,8,400,,,
trial,html.Screen,4_9_0,2023-09-11T17:36:39.055Z,,0,1,,2910.6689999999944,response,ISIC_4141898.JPG,5,ISIC_0012208.JPG,ISIC_0012208.JPG,false,0,keypress(z),500,161500.5,161500,158572.665,158583.80000001192,158589.331,161505.881,8,400,10,,ISIC_4141898.JPG
break,html.Screen,4_9_1,2023-09-11T17:36:39.056Z,,0,,,NaN,,,,,,false,,,,161501.40000000596,161501.20000001788,,161500.70000001788,,161505.881,8,400,,,
break_continue,html.Screen,4_9_2,2023-09-11T17:36:39.056Z,,0,,,NaN,,,,,,false,,,,161501.80000001192,161501.60000002384,,161501.60000002384,,161505.881,8,400,,,
sequence,flow.Sequence,4_9,2023-09-11T17:36:39.056Z,,0,,,2912.2690000238363,completion,,,,,false,,,,161501.90000000596,161501.60000002384,158572.665,158583.80000001192,158589.331,161505.881,8,400,,,
trial,html.Screen,4_10_0,2023-09-11T17:36:41.906Z,,0,1,,2845.5190000059665,response,ISIC_0010785.JPG,4,ISIC_8140072.JPG,ISIC_8140072.JPG,false,0,keypress(z),500,164351.70000001788,164351.40000000596,161489.215,161502,161505.881,164356.112,8,400,11,,ISIC_0010785.JPG
break,html.Screen,4_10_1,2023-09-11T17:36:41.907Z,,0,,,NaN,,,,,,false,,,,164352.30000001192,164352.20000001788,,164351.80000001192,,164356.112,8,400,,,
break_continue,html.Screen,4_10_2,2023-09-11T17:36:41.907Z,,0,,,NaN,,,,,,false,,,,164352.5,164352.5,,164352.30000001192,,164356.112,8,400,,,
sequence,flow.Sequence,4_10,2023-09-11T17:36:41.907Z,,0,,,2846.619000000006,completion,,,,,false,,,,164352.5,164352.5,161489.215,161502,161505.881,164356.112,8,400,,,
trial,html.Screen,4_11_0,2023-09-11T17:36:45.426Z,,0,1,,3514.688000011927,response,ISIC_5641619.JPG,9,ISIC_0064010.JPG,ISIC_5641619.JPG,false,1,keypress(m),500,167871.20000001788,167870.80000001192,164339.446,164352.60000002384,164356.112,167872.638,8,400,12,,ISIC_0064010.JPG
break,html.Screen,4_11_1,2023-09-11T17:36:45.427Z,,0,,,NaN,,,,,,false,,,,167872.30000001192,167872,,167871.40000000596,,167872.638,8,400,,,
break_continue,html.Screen,4_11_2,2023-09-11T17:36:45.427Z,,0,,,NaN,,,,,,false,,,,167872.60000002384,167872.5,,167872.30000001192,,167872.638,8,400,,,
sequence,flow.Sequence,4_11,2023-09-11T17:36:45.427Z,,0,,,3516.3880000000063,completion,,,,,false,,,,167872.80000001192,167872.5,164339.446,164352.5,164356.112,167872.638,8,400,,,
trial,html.Screen,4_12_0,2023-09-11T17:36:48.232Z,,0,1,,2804.4620000238356,response,ISIC_0533122.JPG,8,ISIC_0826998.JPG,ISIC_0826998.JPG,false,0,keypress(z),500,170677.40000000596,170677.10000002384,167855.972,167872.90000000596,167872.638,170689.192,8,400,13,,ISIC_0533122.JPG
break,html.Screen,4_12_1,2023-09-11T17:36:48.233Z,,0,,,NaN,,,,,,false,,,,170678.40000000596,170678.30000001192,,170677.70000001788,,170689.192,8,400,,,
break_continue,html.Screen,4_12_2,2023-09-11T17:36:48.233Z,,0,,,NaN,,,,,,false,,,,170678.70000001788,170678.70000001788,,170678.5,,170689.192,8,400,,,
sequence,flow.Sequence,4_12,2023-09-11T17:36:48.234Z,,0,,,2806.062000017875,completion,,,,,false,,,,170679.80000001192,170678.70000001788,167855.972,167872.80000001192,167872.638,170689.192,8,400,,,
trial,html.Screen,4_13_0,2023-09-11T17:36:51.424Z,,0,1,,3180.0080000178714,response,ISIC_4359258.JPG,8,ISIC_9171071.JPG,ISIC_4359258.JPG,false,1,keypress(m),500,173869.60000002384,173869.20000001788,170672.526,170679.90000000596,170689.192,173872.714,8,400,14,,ISIC_9171071.JPG
break,html.Screen,4_13_1,2023-09-11T17:36:51.425Z,,0,,,NaN,,,,,,false,,,,173870.60000002384,173870.30000001192,,173869.90000000596,,173872.714,8,400,,,
break_continue,html.Screen,4_13_2,2023-09-11T17:36:51.425Z,,0,,,NaN,,,,,,false,,,,173871,173870.80000001192,,173870.70000001788,,173872.714,8,400,,,
sequence,flow.Sequence,4_13,2023-09-11T17:36:51.425Z,,0,,,3181.608000011911,completion,,,,,false,,,,173871.10000002384,173870.80000001192,170672.526,170679.90000000596,170689.192,173872.714,8,400,,,
trial,html.Screen,4_14_0,2023-09-11T17:36:55.057Z,,0,1,,3630.0860000119137,response,ISIC_4343836.JPG,6,ISIC_0055039.JPG,ISIC_0055039.JPG,false,0,keypress(z),500,177503.20000001788,177502.80000001192,173856.048,173871.20000001788,173872.714,177505.902,8,400,15,,ISIC_4343836.JPG
break,html.Screen,4_14_1,2023-09-11T17:36:55.058Z,,0,,,NaN,,,,,,false,,,,177504.20000001788,177504,,177503.5,,177505.902,8,400,,,
break_continue,html.Screen,4_14_2,2023-09-11T17:36:55.059Z,,0,,,NaN,,,,,,false,,,,177504.5,177504.5,,177504.30000001192,,177505.902,8,400,,,
sequence,flow.Sequence,4_14,2023-09-11T17:36:55.059Z,,0,,,3631.785999999993,completion,,,,,false,,,,177504.70000001788,177504.5,173856.048,173871.10000002384,173872.714,177505.902,8,400,,,
trial,html.Screen,4_15_0,2023-09-11T17:36:57.848Z,,0,1,,2787.19800002384,response,ISIC_0069183.JPG,8,ISIC_0030747.JPG,ISIC_0030747.JPG,false,0,keypress(z),500,180293.5,180293.10000002384,177489.236,177504.80000001192,177505.902,180305.79,8,400,16,,ISIC_0069183.JPG
break,html.Screen,4_15_1,2023-09-11T17:36:57.849Z,,0,,,NaN,,,,,,false,,,,180294.40000000596,180294.20000001788,,180293.80000001192,,180305.79,8,400,,,
break_continue,html.Screen,4_15_2,2023-09-11T17:36:57.849Z,,0,,,NaN,,,,,,false,,,,180294.70000001788,180294.70000001788,,180294.60000002384,,180305.79,8,400,,,
sequence,flow.Sequence,4_15,2023-09-11T17:36:57.849Z,,0,,,2788.7980000178795,completion,,,,,false,,,,180294.90000000596,180294.70000001788,177489.236,177504.80000001192,177505.902,180305.79,8,400,,,
trial,html.Screen,4_16_0,2023-09-11T17:37:00.944Z,,0,1,,3083.709999999992,response,ISIC_4045323.JPG,7,ISIC_0061244.JPG,ISIC_0061244.JPG,false,0,keypress(z),500,183390,183389.5,180289.124,180294.90000000596,180305.79,183405.666,8,400,17,,ISIC_4045323.JPG
break,html.Screen,4_16_1,2023-09-11T17:37:00.945Z,,0,,,NaN,,,,,,false,,,,183391,183390.90000000596,,183390.30000001192,,183405.666,8,400,,,
break_continue,html.Screen,4_16_2,2023-09-11T17:37:00.945Z,,0,,,NaN,,,,,,false,,,,183391.30000001192,183391.20000001788,,183391.10000002384,,183405.666,8,400,,,
sequence,flow.Sequence,4_16,2023-09-11T17:37:00.946Z,,0,,,3085.4100000178732,completion,,,,,false,,,,183391.40000000596,183391.20000001788,180289.124,180294.90000000596,180305.79,183405.666,8,400,,,
trial,html.Screen,4_17_0,2023-09-11T17:37:04.577Z,,0,1,,3616.8340000000026,response,ISIC_0009230.JPG,8,ISIC_0002119.JPG,ISIC_0009230.JPG,false,1,keypress(m),500,187022.90000000596,187022.5,183389,183391.5,183405.666,187039.22,8,400,18,,ISIC_0002119.JPG
break,html.Screen,4_17_1,2023-09-11T17:37:04.578Z,,0,,,NaN,,,,,,false,,,,187024,187023.80000001192,,187023.30000001192,,187039.22,8,400,,,
break_continue,html.Screen,4_17_2,2023-09-11T17:37:04.578Z,,0,,,NaN,,,,,,false,,,,187024.30000001192,187024.20000001788,,187024.10000002384,,187039.22,8,400,,,
sequence,flow.Sequence,4_17,2023-09-11T17:37:04.579Z,,0,,,3618.534000017884,completion,,,,,false,,,,187024.5,187024.20000001788,183389,183391.40000000596,183405.666,187039.22,8,400,,,
trial,html.Screen,4_18_0,2023-09-11T17:37:07.384Z,,0,1,,2790.4800000178802,response,ISIC_0067549.JPG,8,ISIC_4821309.JPG,ISIC_0067549.JPG,false,1,keypress(m),500,189830,189829.70000001788,187022.554,187024.70000001788,187039.22,189839.108,8,400,19,,ISIC_4821309.JPG
break,html.Screen,4_18_1,2023-09-11T17:37:07.385Z,,0,,,NaN,,,,,,false,,,,189831.10000002384,189830.80000001192,,189830.40000000596,,189839.108,8,400,,,
break_continue,html.Screen,4_18_2,2023-09-11T17:37:07.385Z,,0,,,NaN,,,,,,false,,,,189831.40000000596,189831.30000001192,,189831.20000001788,,189839.108,8,400,,,
sequence,flow.Sequence,4_18,2023-09-11T17:37:07.386Z,,0,,,2792.0800000119198,completion,,,,,false,,,,189831.60000002384,189831.30000001192,187022.554,187024.70000001788,187039.22,189839.108,8,400,,,
trial,html.Screen,4_19_0,2023-09-11T17:37:10.031Z,,0,1,,2637.092000017874,response,ISIC_2266312.JPG,8,ISIC_0057371.JPG,ISIC_0057371.JPG,false,0,keypress(z),500,192476.80000001192,192476.20000001788,189822.442,189831.70000001788,189839.108,192489.002,8,400,20,,ISIC_2266312.JPG
break,html.Screen,4_19_1,2023-09-11T17:37:10.032Z,,0,,,NaN,,,,,,false,,,,192477.80000001192,192477.60000002384,,192477.10000002384,,192489.002,8,400,,,
break_continue,html.Screen,4_19_2,2023-09-11T17:37:10.032Z,,0,,,NaN,,,,,,false,,,,192478.10000002384,192478,,192477.80000001192,,192489.002,8,400,,,
sequence,flow.Sequence,4_19,2023-09-11T17:37:10.032Z,,0,,,2638.8919999999925,completion,,,,,false,,,,192478.30000001192,192478,189822.442,189831.70000001788,189839.108,192489.002,8,400,,,
trial,html.Screen,4_20_0,2023-09-11T17:37:13.031Z,,0,1,,2987.7980000119132,response,ISIC_8355446.JPG,7,ISIC_0010580.JPG,ISIC_8355446.JPG,false,1,keypress(m),500,195477.10000002384,195476.80000001192,192472.336,192478.40000000596,192489.002,195489.212,8,400,21,,ISIC_0010580.JPG
break,html.Screen,4_20_1,2023-09-11T17:37:13.032Z,,0,,,NaN,,,,,,false,,,,195478.20000001788,195477.90000000596,,195477.40000000596,,195489.212,8,400,,,
break_continue,html.Screen,4_20_2,2023-09-11T17:37:13.032Z,,0,,,NaN,,,,,,false,,,,195478.5,195478.40000000596,,195478.20000001788,,195489.212,8,400,,,
sequence,flow.Sequence,4_20,2023-09-11T17:37:13.033Z,,0,,,2989.398000005953,completion,,,,,false,,,,195478.60000002384,195478.40000000596,192472.336,192478.30000001192,192489.002,195489.212,8,400,,,
trial,html.Screen,4_21_0,2023-09-11T17:37:15.853Z,,0,1,,2809.8880000238423,response,ISIC_7016261.JPG,7,ISIC_2758999.JPG,ISIC_2758999.JPG,false,0,keypress(z),500,198299.40000000596,198299.10000002384,195472.546,195478.70000001788,195489.212,198305.766,8,400,22,,ISIC_7016261.JPG
break,html.Screen,4_21_1,2023-09-11T17:37:15.854Z,,0,,,NaN,,,,,,false,,,,198300.5,198300.30000001192,,198299.70000001788,,198305.766,8,400,,,
break_continue,html.Screen,4_21_2,2023-09-11T17:37:15.855Z,,0,,,NaN,,,,,,false,,,,198300.80000001192,198300.70000001788,,198300.5,,198305.766,8,400,,,
sequence,flow.Sequence,4_21,2023-09-11T17:37:15.855Z,,0,,,2811.488000017882,completion,,,,,false,,,,198301.10000002384,198300.70000001788,195472.546,195478.70000001788,195489.212,198305.766,8,400,,,
trial,html.Screen,4_22_0,2023-09-11T17:37:18.504Z,,0,1,,2643.8340000238386,response,ISIC_9555291.JPG,8,ISIC_6098768.JPG,ISIC_6098768.JPG,false,0,keypress(z),500,200949.90000000596,200949.60000002384,198289.1,198301.20000001788,198305.766,200955.66,8,400,23,,ISIC_9555291.JPG
break,html.Screen,4_22_1,2023-09-11T17:37:18.505Z,,0,,,NaN,,,,,,false,,,,200950.90000000596,200950.70000001788,,200950.20000001788,,200955.66,8,400,,,
break_continue,html.Screen,4_22_2,2023-09-11T17:37:18.505Z,,0,,,NaN,,,,,,false,,,,200951.30000001192,200951.10000002384,,200951,,200955.66,8,400,,,
sequence,flow.Sequence,4_22,2023-09-11T17:37:18.505Z,,0,,,2645.3340000238386,completion,,,,,false,,,,200951.40000000596,200951.10000002384,198289.1,198301.20000001788,198305.766,200955.66,8,400,,,
trial,html.Screen,4_23_0,2023-09-11T17:37:21.210Z,,0,1,,2700.040000017878,response,ISIC_0061334.JPG,8,ISIC_5486460.JPG,ISIC_5486460.JPG,false,0,keypress(z),500,203656,203655.70000001788,200938.994,200951.60000002384,200955.66,203672.218,8,400,24,,ISIC_0061334.JPG
break,html.Screen,4_23_1,2023-09-11T17:37:21.211Z,,0,,,NaN,,,,,,false,,,,203656.90000000596,203656.70000001788,,203656.30000001192,,203672.218,8,400,,,
break_continue,html.Screen,4_23_2,2023-09-11T17:37:21.211Z,,0,,,NaN,,,,,,false,,,,203657.30000001192,203657.10000002384,,203657.10000002384,,203672.218,8,400,,,
sequence,flow.Sequence,4_23,2023-09-11T17:37:21.211Z,,0,,,2701.4400000238384,completion,,,,,false,,,,203657.5,203657.10000002384,200938.994,200951.5,200955.66,203672.218,8,400,,,
trial,html.Screen,4_24_0,2023-09-11T17:37:23.833Z,,0,1,,2606.3820000238484,response,ISIC_0031546.JPG,8,ISIC_0012653.JPG,ISIC_0012653.JPG,false,0,keypress(z),500,206279,206278.60000002384,203655.552,203657.60000002384,203672.218,206289.112,8,400,25,,ISIC_0031546.JPG
break,html.Screen,4_24_1,2023-09-11T17:37:23.834Z,,0,,,NaN,,,,,,false,,,,206280,206279.80000001192,,206279.30000001192,,206289.112,8,400,,,
break_continue,html.Screen,4_24_2,2023-09-11T17:37:23.834Z,,0,,,NaN,,,,,,false,,,,206280.40000000596,206280.20000001788,,206280.10000002384,,206289.112,8,400,,,
sequence,flow.Sequence,4_24,2023-09-11T17:37:23.834Z,,0,,,2607.982000017888,completion,,,,,false,,,,206280.5,206280.20000001788,203655.552,203657.60000002384,203672.218,206289.112,8,400,,,
trial,html.Screen,4_25_0,2023-09-11T17:37:26.479Z,,0,1,,2635.988000023848,response,ISIC_9555580.JPG,8,ISIC_7835257.JPG,ISIC_7835257.JPG,false,0,keypress(z),500,208925.60000002384,208925.10000002384,206272.446,206280.70000001788,206289.112,208939.006,8,400,26,,ISIC_9555580.JPG
break,html.Screen,4_25_1,2023-09-11T17:37:26.480Z,,0,,,NaN,,,,,,false,,,,208926.5,208926.30000001192,,208925.80000001192,,208939.006,8,400,,,
break_continue,html.Screen,4_25_2,2023-09-11T17:37:26.481Z,,0,,,NaN,,,,,,false,,,,208926.90000000596,208926.80000001192,,208926.70000001788,,208939.006,8,400,,,
sequence,flow.Sequence,4_25,2023-09-11T17:37:26.481Z,,0,,,2637.688000011927,completion,,,,,false,,,,208927,208926.80000001192,206272.446,206280.60000002384,206289.112,208939.006,8,400,,,
trial,html.Screen,4_26_0,2023-09-11T17:37:29.864Z,,0,1,,3370.594000023848,response,ISIC_2203247.JPG,8,ISIC_5768032.JPG,ISIC_2203247.JPG,false,1,keypress(m),500,212310.10000002384,212309.60000002384,208922.34,208927.10000002384,208939.006,212322.204,8,400,27,,ISIC_5768032.JPG
break,html.Screen,4_26_1,2023-09-11T17:37:29.865Z,,0,,,NaN,,,,,,false,,,,212311,212310.90000000596,,212310.40000000596,,212322.204,8,400,,,
break_continue,html.Screen,4_26_2,2023-09-11T17:37:29.865Z,,0,,,NaN,,,,,,false,,,,212311.40000000596,212311.30000001192,,212311.20000001788,,212322.204,8,400,,,
sequence,flow.Sequence,4_26,2023-09-11T17:37:29.865Z,,0,,,3372.294000011927,completion,,,,,false,,,,212311.60000002384,212311.30000001192,208922.34,208927.10000002384,208939.006,212322.204,8,400,,,
trial,html.Screen,4_27_0,2023-09-11T17:37:32.572Z,,0,1,,2695.296000000002,response,ISIC_4332846.JPG,8,ISIC_4286715.JPG,ISIC_4332846.JPG,false,1,keypress(m),500,215017.90000000596,215017.5,212305.538,212311.70000001788,212322.204,215022.412,8,400,28,,ISIC_4286715.JPG
break,html.Screen,4_27_1,2023-09-11T17:37:32.572Z,,0,,,NaN,,,,,,false,,,,215018.70000001788,215018.60000002384,,215018.20000001788,,215022.412,8,400,,,
break_continue,html.Screen,4_27_2,2023-09-11T17:37:32.573Z,,0,,,NaN,,,,,,false,,,,215019,215018.90000000596,,215018.80000001192,,215022.412,8,400,,,
sequence,flow.Sequence,4_27,2023-09-11T17:37:32.573Z,,0,,,2696.6960000059626,completion,,,,,false,,,,215019.10000002384,215018.90000000596,212305.538,212311.70000001788,212322.204,215022.412,8,400,,,
trial,html.Screen,4_28_0,2023-09-11T17:37:35.208Z,,0,1,,2631.3880000119098,response,ISIC_0030780.JPG,7,ISIC_9684649.JPG,ISIC_0030780.JPG,false,1,keypress(m),500,217654.20000001788,217653.80000001192,215005.746,215019.20000001788,215022.412,217655.64,8,400,29,,ISIC_9684649.JPG
break,html.Screen,4_28_1,2023-09-11T17:37:35.209Z,,0,,,NaN,,,,,,false,,,,217655.10000002384,217654.90000000596,,217654.40000000596,,217655.64,8,400,,,
break_continue,html.Screen,4_28_2,2023-09-11T17:37:35.209Z,,0,,,NaN,,,,,,false,,,,217655.5,217655.30000001192,,217655.20000001788,,217655.64,8,400,,,
sequence,flow.Sequence,4_28,2023-09-11T17:37:35.209Z,,0,,,2632.8880000119098,completion,,,,,false,,,,217655.60000002384,217655.30000001192,215005.746,215019.10000002384,215022.412,217655.64,8,400,,,
trial,html.Screen,4_29_0,2023-09-11T17:37:38.095Z,,0,1,,2885.160000011907,response,ISIC_0014708.JPG,5,ISIC_5706956.JPG,ISIC_5706956.JPG,false,0,keypress(z),500,220541.20000001788,220540.80000001192,217638.974,217655.80000001192,217655.64,220555.524,8,400,30,,ISIC_0014708.JPG
break,html.Screen,4_29_1,2023-09-11T17:37:38.096Z,,0,,,NaN,,,,,,false,,,,220542.10000002384,220541.90000000596,,220541.5,,220555.524,8,400,,,
break_continue,html.Screen,4_29_2,2023-09-11T17:37:38.096Z,,0,,,NaN,,,,,,false,,,,220542.5,220542.40000000596,,220542.20000001788,,220555.524,8,400,,,
sequence,flow.Sequence,4_29,2023-09-11T17:37:38.096Z,,0,,,2886.7600000059465,completion,,,,,false,,,,220542.60000002384,220542.40000000596,217638.974,217655.70000001788,217655.64,220555.524,8,400,,,
trial,html.Screen,4_30_0,2023-09-11T17:37:40.930Z,,0,1,,2820.6760000178765,response,ISIC_3923443.JPG,8,ISIC_9058340.JPG,ISIC_3923443.JPG,false,1,keypress(m),500,223376.60000002384,223376.20000001788,220538.858,220542.80000001192,220555.524,223388.744,8,400,31,,ISIC_9058340.JPG
break,html.Screen,4_30_1,2023-09-11T17:37:40.931Z,,0,,,NaN,,,,,,false,,,,223377.60000002384,223377.40000000596,,223376.90000000596,,223388.744,8,400,,,
break_continue,html.Screen,4_30_2,2023-09-11T17:37:40.932Z,,0,,,NaN,,,,,,false,,,,223378,223377.90000000596,,223377.70000001788,,223388.744,8,400,,,
sequence,flow.Sequence,4_30,2023-09-11T17:37:40.932Z,,0,,,2822.3760000059556,completion,,,,,false,,,,223378.10000002384,223377.90000000596,220538.858,220542.70000001788,220555.524,223388.744,8,400,,,
trial,html.Screen,4_31_0,2023-09-11T17:37:43.641Z,,0,1,,2697.856000023836,response,ISIC_0034118.JPG,4,ISIC_0072175.JPG,ISIC_0034118.JPG,false,1,keypress(m),500,226087,226086.60000002384,223372.078,223378.20000001788,223388.744,226088.998,8,400,32,,ISIC_0072175.JPG
break,html.Screen,4_31_1,2023-09-11T17:37:43.642Z,,0,,,NaN,,,,,,false,,,,226087.90000000596,226087.70000001788,,226087.30000001192,,226088.998,8,400,,,
break_continue,html.Screen,4_31_2,2023-09-11T17:37:43.642Z,,0,,,NaN,,,,,,false,,,,226088.30000001192,226088.20000001788,,226088.10000002384,,226088.998,8,400,,,
sequence,flow.Sequence,4_31,2023-09-11T17:37:43.642Z,,0,,,2699.4560000178753,completion,,,,,false,,,,226088.5,226088.20000001788,223372.078,223378.20000001788,223388.744,226088.998,8,400,,,
trial,html.Screen,4_32_0,2023-09-11T17:37:46.335Z,,0,1,,2692.202000017889,response,ISIC_4876193.JPG,5,ISIC_0026802.JPG,ISIC_4876193.JPG,false,1,keypress(m),500,228781.60000002384,228781.20000001788,226072.332,226088.60000002384,226088.998,228788.89,8,400,33,,ISIC_0026802.JPG
break,html.Screen,4_32_1,2023-09-11T17:37:46.336Z,,0,,,NaN,,,,,,false,,,,228782.60000002384,228782.40000000596,,228781.90000000596,,228788.89,8,400,,,
break_continue,html.Screen,4_32_2,2023-09-11T17:37:46.336Z,,0,,,NaN,,,,,,false,,,,228782.90000000596,228782.80000001192,,228782.70000001788,,228788.89,8,400,,,
sequence,flow.Sequence,4_32,2023-09-11T17:37:46.337Z,,0,,,2693.8020000119286,completion,,,,,false,,,,228783.10000002384,228782.80000001192,226072.332,226088.60000002384,226088.998,228788.89,8,400,,,
trial,html.Screen,4_33_0,2023-09-11T17:37:49.489Z,,0,1,,3146.410000011907,response,ISIC_9776851.JPG,8,ISIC_0021052.JPG,ISIC_0021052.JPG,false,0,keypress(z),500,231935.60000002384,231935.30000001192,228772.224,228783.20000001788,228788.89,231938.764,8,400,34,,ISIC_9776851.JPG
break,html.Screen,4_33_1,2023-09-11T17:37:49.490Z,,0,,,NaN,,,,,,false,,,,231936.60000002384,231936.40000000596,,231935.90000000596,,231938.764,8,400,,,
break_continue,html.Screen,4_33_2,2023-09-11T17:37:49.490Z,,0,,,NaN,,,,,,false,,,,231937,231936.90000000596,,231936.70000001788,,231938.764,8,400,,,
sequence,flow.Sequence,4_33,2023-09-11T17:37:49.491Z,,0,,,3148.0100000059465,completion,,,,,false,,,,231937.20000001788,231936.90000000596,228772.224,228783.20000001788,228788.89,231938.764,8,400,,,
trial,html.Screen,4_34_0,2023-09-11T17:37:52.360Z,,0,1,,2867.636000005965,response,ISIC_0014525.JPG,9,ISIC_0693902.JPG,ISIC_0693902.JPG,false,0,keypress(z),500,234806.90000000596,234806.40000000596,231922.098,231937.20000001788,231938.764,234821.982,8,400,35,,ISIC_0014525.JPG
break,html.Screen,4_34_1,2023-09-11T17:37:52.361Z,,0,,,NaN,,,,,,false,,,,234807.90000000596,234807.70000001788,,234807.20000001788,,234821.982,8,400,,,
break_continue,html.Screen,4_34_2,2023-09-11T17:37:52.362Z,,0,,,NaN,,,,,,false,,,,234808.20000001788,234808.10000002384,,234808,,234821.982,8,400,,,
sequence,flow.Sequence,4_34,2023-09-11T17:37:52.362Z,,0,,,2869.3360000238463,completion,,,,,false,,,,234808.30000001192,234808.10000002384,231922.098,231937.20000001788,231938.764,234821.982,8,400,,,
trial,html.Screen,4_35_0,2023-09-11T17:37:55.247Z,,0,1,,2870.818000011932,response,ISIC_4927943.JPG,8,ISIC_0013740.JPG,ISIC_4927943.JPG,false,1,keypress(m),500,237693.20000001788,237692.80000001192,234805.316,234808.5,234821.982,237705.541,8,400,36,,ISIC_0013740.JPG
break,html.Screen,4_35_1,2023-09-11T17:37:55.247Z,,0,,,NaN,,,,,,false,,,,237693.90000000596,237693.70000001788,,237693.30000001192,,237705.541,8,400,,,
break_continue,html.Screen,4_35_2,2023-09-11T17:37:55.247Z,,0,,,NaN,,,,,,false,,,,237694.10000002384,237694,,237694,,237705.541,8,400,,,
sequence,flow.Sequence,4_35,2023-09-11T17:37:55.248Z,,0,,,2872.018000000011,completion,,,,,false,,,,237694.20000001788,237694,234805.316,234808.5,234821.982,237705.541,8,400,,,
trial,html.Screen,4_36_0,2023-09-11T17:37:59.332Z,,0,1,,4072.9590000000026,response,ISIC_5867911.JPG,8,ISIC_0028945.JPG,ISIC_5867911.JPG,false,1,keypress(m),500,241779,241778.5,237688.875,237694.20000001788,237705.541,241788.711,8,400,37,,ISIC_0028945.JPG
break,html.Screen,4_36_1,2023-09-11T17:37:59.333Z,,0,,,NaN,,,,,,false,,,,241780,241779.70000001788,,241779.30000001192,,241788.711,8,400,,,
break_continue,html.Screen,4_36_2,2023-09-11T17:37:59.334Z,,0,,,NaN,,,,,,false,,,,241780.30000001192,241780.20000001788,,241780.10000002384,,241788.711,8,400,,,
sequence,flow.Sequence,4_36,2023-09-11T17:37:59.334Z,,0,,,4074.659000017884,completion,,,,,false,,,,241780.5,241780.20000001788,237688.875,237694.20000001788,237705.541,241788.711,8,400,,,
trial,html.Screen,4_37_0,2023-09-11T17:38:03.787Z,,0,1,,4444.18900000595,response,ISIC_4707475.JPG,8,ISIC_0065727.JPG,ISIC_0065727.JPG,false,0,keypress(z),500,246233.40000000596,246232.90000000596,241772.045,241780.60000002384,241788.711,246238.885,8,400,38,,ISIC_4707475.JPG
break,html.Screen,4_37_1,2023-09-11T17:38:03.788Z,,0,,,NaN,,,,,,false,,,,246234.30000001192,246234.10000002384,,246233.60000002384,,246238.885,8,400,,,
break_continue,html.Screen,4_37_2,2023-09-11T17:38:03.788Z,,0,,,NaN,,,,,,false,,,,246234.60000002384,246234.5,,246234.5,,246238.885,8,400,,,
sequence,flow.Sequence,4_37,2023-09-11T17:38:03.788Z,,0,,,4445.78899999999,completion,,,,,false,,,,246234.80000001192,246234.5,241772.045,241780.60000002384,241788.711,246238.885,8,400,,,
trial,html.Screen,4_38_0,2023-09-11T17:38:06.641Z,,0,1,,2848.7150000238325,response,ISIC_0026727.JPG,7,ISIC_6155782.JPG,ISIC_0026727.JPG,false,1,keypress(m),500,249087.80000001192,249087.60000002384,246222.219,246234.90000000596,246238.885,249088.771,8,400,39,,ISIC_6155782.JPG
break,html.Screen,4_38_1,2023-09-11T17:38:06.642Z,,0,,,NaN,,,,,,false,,,,249088.60000002384,249088.5,,249088,,249088.771,8,400,,,
break_continue,html.Screen,4_38_2,2023-09-11T17:38:06.642Z,,0,,,NaN,,,,,,false,,,,249088.80000001192,249088.80000001192,,249088.60000002384,,249088.771,8,400,,,
sequence,flow.Sequence,4_38,2023-09-11T17:38:06.642Z,,0,,,2849.9150000119116,completion,,,,,false,,,,249088.90000000596,249088.80000001192,246222.219,246234.90000000596,246238.885,249088.771,8,400,,,
trial,html.Screen,4_39_0,2023-09-11T17:38:10.052Z,,0,1,,3409.728999999992,response,ISIC_0011959.JPG,6,ISIC_0008621.JPG,ISIC_0011959.JPG,false,1,keypress(m),500,252499,252498.5,249072.105,249089,249088.771,252505.301,8,400,40,,ISIC_0008621.JPG
break,html.Screen,4_39_1,2023-09-11T17:38:10.054Z,,0,,,NaN,,,,,,false,,,,252500.30000001192,252499.70000001788,,252499.20000001788,,252505.301,8,400,,,
break_continue,html.Screen,4_39_2,2023-09-11T17:38:10.054Z,,0,,,NaN,,,,,,false,,,,252501.10000002384,252500.90000000596,,252500.60000002384,,252505.301,8,400,,,
sequence,flow.Sequence,4_39,2023-09-11T17:38:10.054Z,,0,,,3412.1290000059525,completion,,,,,false,,,,252501.30000001192,252500.90000000596,249072.105,249088.90000000596,249088.771,252505.301,8,400,,,
trial,html.Screen,4_40_0,2023-09-11T17:38:14.265Z,,0,1,,4206.599000005954,response,ISIC_0941085.JPG,8,ISIC_4806829.JPG,ISIC_4806829.JPG,false,0,keypress(z),500,256712.30000001192,256711.90000000596,252488.635,252501.30000001192,252505.301,256722.074,8,400,41,,ISIC_0941085.JPG
break,html.Screen,4_40_1,2023-09-11T17:38:14.266Z,,0,,,NaN,,,,,,false,,,,256713.30000001192,256713.10000002384,,256712.60000002384,,256722.074,8,400,,,
break_continue,html.Screen,4_40_2,2023-09-11T17:38:14.267Z,,0,,,NaN,,,,,,false,,,,256713.60000002384,256713.5,,256713.40000000596,,256722.074,8,400,,,
sequence,flow.Sequence,4_40,2023-09-11T17:38:14.267Z,,0,,,4208.198999999993,completion,,,,,false,,,,256713.80000001192,256713.5,252488.635,252501.30000001192,252505.301,256722.074,8,400,,,
trial,html.Screen,4_41_0,2023-09-11T17:38:16.855Z,,0,1,,2579.826000005967,response,ISIC_0068215.JPG,6,ISIC_0000142.JPG,ISIC_0000142.JPG,false,0,keypress(z),500,259302.20000001788,259301.90000000596,256705.408,256714,256722.074,259305.304,8,400,42,,ISIC_0068215.JPG
break,html.Screen,4_41_1,2023-09-11T17:38:16.856Z,,0,,,NaN,,,,,,false,,,,259302.80000001192,259302.70000001788,,259302.40000000596,,259305.304,8,400,,,
break_continue,html.Screen,4_41_2,2023-09-11T17:38:16.856Z,,0,,,NaN,,,,,,false,,,,259302.90000000596,259302.90000000596,,259302.80000001192,,259305.304,8,400,,,
sequence,flow.Sequence,4_41,2023-09-11T17:38:16.856Z,,0,,,2580.826000005967,completion,,,,,false,,,,259303.10000002384,259302.90000000596,256705.408,256713.90000000596,256722.074,259305.304,8,400,,,
trial,html.Screen,4_42_0,2023-09-11T17:38:19.885Z,,0,1,,3025.796000023838,response,ISIC_8159779.JPG,6,ISIC_0069705.JPG,ISIC_8159779.JPG,false,1,keypress(m),500,262331.5,262331.10000002384,259288.638,259303.10000002384,259305.304,262338.516,8,400,43,,ISIC_0069705.JPG
break,html.Screen,4_42_1,2023-09-11T17:38:19.886Z,,0,,,NaN,,,,,,false,,,,262332.40000000596,262332.3000000119,,262331.7000000179,,262338.516,8,400,,,
break_continue,html.Screen,4_42_2,2023-09-11T17:38:19.886Z,,0,,,NaN,,,,,,false,,,,262332.8000000119,262332.7000000179,,262332.5,,262338.516,8,400,,,
sequence,flow.Sequence,4_42,2023-09-11T17:38:19.886Z,,0,,,3027.3960000178777,completion,,,,,false,,,,262333,262332.7000000179,259288.638,259303.10000002384,259305.304,262338.516,8,400,,,
trial,html.Screen,4_43_0,2023-09-11T17:38:23.537Z,,0,1,,3645.0840000238386,response,ISIC_0078703.JPG,7,ISIC_4653503.JPG,ISIC_4653503.JPG,false,0,keypress(z),500,265983.90000000596,265983.60000002384,262321.85,262333,262338.516,265988.37,8,400,44,,ISIC_0078703.JPG
break,html.Screen,4_43_1,2023-09-11T17:38:23.538Z,,0,,,NaN,,,,,,false,,,,265985,265984.7000000179,,265984.3000000119,,265988.37,8,400,,,
break_continue,html.Screen,4_43_2,2023-09-11T17:38:23.538Z,,0,,,NaN,,,,,,false,,,,265985.3000000119,265985.3000000119,,265985.10000002384,,265988.37,8,400,,,
sequence,flow.Sequence,4_43,2023-09-11T17:38:23.539Z,,0,,,3646.7840000119177,completion,,,,,false,,,,265985.5,265985.3000000119,262321.85,262333,262338.516,265988.37,8,400,,,
trial,html.Screen,4_44_0,2023-09-11T17:38:26.343Z,,0,1,,2801.2300000238465,response,ISIC_0028915.JPG,8,ISIC_0620587.JPG,ISIC_0620587.JPG,false,0,keypress(z),500,268790,268789.60000002384,265971.704,265985.60000002384,265988.37,268805.316,8,400,45,,ISIC_0028915.JPG
break,html.Screen,4_44_1,2023-09-11T17:38:26.344Z,,0,,,NaN,,,,,,false,,,,268790.90000000596,268790.7000000179,,268790.2000000179,,268805.316,8,400,,,
break_continue,html.Screen,4_44_2,2023-09-11T17:38:26.344Z,,0,,,NaN,,,,,,false,,,,268791.2000000179,268791.10000002384,,268791,,268805.316,8,400,,,
sequence,flow.Sequence,4_44,2023-09-11T17:38:26.344Z,,0,,,2802.7300000238465,completion,,,,,false,,,,268791.40000000596,268791.10000002384,265971.704,265985.5,265988.37,268805.316,8,400,,,
trial,html.Screen,4_45_0,2023-09-11T17:38:29.037Z,,0,1,,2678.1840000000084,response,ISIC_1579745.JPG,7,ISIC_4539674.JPG,ISIC_4539674.JPG,false,0,keypress(z),500,271484,271483.5,268788.65,268791.60000002384,268805.316,271488.542,8,400,46,,ISIC_1579745.JPG
break,html.Screen,4_45_1,2023-09-11T17:38:29.038Z,,0,,,NaN,,,,,,false,,,,271484.90000000596,271484.7000000179,,271484.2000000179,,271488.542,8,400,,,
break_continue,html.Screen,4_45_2,2023-09-11T17:38:29.038Z,,0,,,NaN,,,,,,false,,,,271485.2000000179,271485.10000002384,,271485,,271488.542,8,400,,,
sequence,flow.Sequence,4_45,2023-09-11T17:38:29.038Z,,0,,,2679.7840000238502,completion,,,,,false,,,,271485.3000000119,271485.10000002384,268788.65,268791.40000000596,268805.316,271488.542,8,400,,,
trial,html.Screen,4_46_0,2023-09-11T17:38:32.738Z,,0,1,,3696.457999999984,response,ISIC_8389650.JPG,8,ISIC_0070074.JPG,ISIC_0070074.JPG,false,0,keypress(z),500,275185.5,275185,271471.876,271485.40000000596,271488.542,275188.394,8,400,47,,ISIC_8389650.JPG
break,html.Screen,4_46_1,2023-09-11T17:38:32.739Z,,0,,,NaN,,,,,,false,,,,275186.5,275186.3000000119,,275185.60000002384,,275188.394,8,400,,,
break_continue,html.Screen,4_46_2,2023-09-11T17:38:32.740Z,,0,,,NaN,,,,,,false,,,,275186.8000000119,275186.7000000179,,275186.60000002384,,275188.394,8,400,,,
sequence,flow.Sequence,4_46,2023-09-11T17:38:32.740Z,,0,,,3698.1580000178656,completion,,,,,false,,,,275186.8000000119,275186.7000000179,271471.876,271485.3000000119,271488.542,275188.394,8,400,,,
trial,html.Screen,4_47_0,2023-09-11T17:38:35.855Z,,0,1,,3113.5060000059893,response,ISIC_2844085.JPG,8,ISIC_0008636.JPG,ISIC_2844085.JPG,false,1,keypress(m),500,278302.40000000596,278301.90000000596,275171.728,275186.90000000596,275188.394,278305.286,8,400,48,,ISIC_0008636.JPG
break,html.Screen,4_47_1,2023-09-11T17:38:35.856Z,,0,,,NaN,,,,,,false,,,,278303.40000000596,278303.2000000179,,278302.60000002384,,278305.286,8,400,,,
break_continue,html.Screen,4_47_2,2023-09-11T17:38:35.857Z,,0,,,NaN,,,,,,false,,,,278303.7000000179,278303.60000002384,,278303.40000000596,,278305.286,8,400,,,
sequence,flow.Sequence,4_47,2023-09-11T17:38:35.857Z,,0,,,3115.2060000238707,completion,,,,,false,,,,278303.90000000596,278303.60000002384,275171.728,275186.8000000119,275188.394,278305.286,8,400,,,
trial,html.Screen,4_48_0,2023-09-11T17:38:38.593Z,,0,1,,2734.4140000178595,response,ISIC_0000172.JPG,7,ISIC_8664718.JPG,ISIC_0000172.JPG,false,1,keypress(m),500,281040.2000000179,281039.7000000179,278288.62,278304,278305.286,281055.176,8,400,49,,ISIC_8664718.JPG
break,html.Screen,4_48_1,2023-09-11T17:38:38.594Z,,0,,,NaN,,,,,,false,,,,281041.2000000179,281041,,281040.40000000596,,281055.176,8,400,,,
break_continue,html.Screen,4_48_2,2023-09-11T17:38:38.594Z,,0,,,NaN,,,,,,false,,,,281041.5,281041.40000000596,,281041.3000000119,,281055.176,8,400,,,
sequence,flow.Sequence,4_48,2023-09-11T17:38:38.595Z,,0,,,2736.1140000059386,completion,,,,,false,,,,281041.7000000179,281041.40000000596,278288.62,278303.90000000596,278305.286,281055.176,8,400,,,
trial,html.Screen,4_49_0,2023-09-11T17:38:42.016Z,,0,1,,3407.724000005983,response,ISIC_0009947.JPG,8,ISIC_1075605.JPG,ISIC_0009947.JPG,false,1,keypress(m),500,284463.40000000596,284462.90000000596,281038.51,281041.8000000119,281055.176,284471.706,8,400,50,,ISIC_1075605.JPG
break,html.Screen,4_49_1,2023-09-11T17:38:52.011Z,,0,,,9999.928000000014,timeout,,,,,false,,,,294458,294454.968,284455.04,284463.7000000179,284471.706,294471.634,8,400,,,
break_continue,html.Screen,4_49_2,2023-09-11T17:39:15.665Z,,0,,,23626.56600001786,response,,,,,false,continue,keypress(Space),,318112.3000000119,318098.2000000179,294454.968,294458.2000000179,294471.634,318120.688,8,400,,,
sequence,flow.Sequence,4_49,2023-09-11T17:39:15.665Z,,0,,,37043.024000017904,completion,,,,,false,,,,318112.5,318098.2000000179,281038.51,281041.8000000119,281055.176,318120.688,8,400,,,
trial,html.Screen,4_50_0,2023-09-11T17:39:20.278Z,,0,2,,4604.112000011897,response,ISIC_0059423.JPG,9,ISIC_0029086.JPG,ISIC_0059423.JPG,false,1,keypress(m),500,322725.2000000179,322724.8000000119,318104.022,318112.5,318120.688,322737.813,8,400,1,,ISIC_0029086.JPG
break,html.Screen,4_50_1,2023-09-11T17:39:20.278Z,,0,,,NaN,,,,,,false,,,,322726.10000002384,322725.90000000596,,322725.40000000596,,322737.813,8,400,,,
break_continue,html.Screen,4_50_2,2023-09-11T17:39:20.279Z,,0,,,NaN,,,,,,false,,,,322726.40000000596,322726.3000000119,,322726.2000000179,,322737.813,8,400,,,
sequence,flow.Sequence,4_50,2023-09-11T17:39:20.279Z,,0,,,4605.612000011897,completion,,,,,false,,,,322726.5,322726.3000000119,318104.022,318112.5,318120.688,322737.813,8,400,,,
trial,html.Screen,4_51_0,2023-09-11T17:39:23.726Z,,0,2,,3435.5870000059367,response,ISIC_0066223.JPG,9,ISIC_0029078.JPG,ISIC_0066223.JPG,false,1,keypress(m),500,326173.7000000179,326173.40000000596,322721.147,322726.7000000179,322737.813,326187.675,8,400,2,,ISIC_0029078.JPG
break,html.Screen,4_51_1,2023-09-11T17:39:23.727Z,,0,,,NaN,,,,,,false,,,,326174.8000000119,326174.60000002384,,326174,,326187.675,8,400,,,
break_continue,html.Screen,4_51_2,2023-09-11T17:39:23.727Z,,0,,,NaN,,,,,,false,,,,326175.2000000179,326175.10000002384,,326174.90000000596,,326187.675,8,400,,,
sequence,flow.Sequence,4_51,2023-09-11T17:39:23.728Z,,0,,,3437.287000023818,completion,,,,,false,,,,326175.40000000596,326175.10000002384,322721.147,322726.7000000179,322737.813,326187.675,8,400,,,
trial,html.Screen,4_52_0,2023-09-11T17:39:26.787Z,,0,2,,3046.9250000238535,response,ISIC_0055549.JPG,8,ISIC_0010596.JPG,ISIC_0055549.JPG,false,1,keypress(m),500,329234.8000000119,329234.60000002384,326171.009,326175.5,326187.675,329238.283,8,400,3,,ISIC_0010596.JPG
break,html.Screen,4_52_1,2023-09-11T17:39:26.788Z,,0,,,NaN,,,,,,false,,,,329235.7000000179,329235.5,,329235.10000002384,,329238.283,8,400,,,
break_continue,html.Screen,4_52_2,2023-09-11T17:39:26.788Z,,0,,,NaN,,,,,,false,,,,329236,329235.90000000596,,329235.8000000119,,329238.283,8,400,,,
sequence,flow.Sequence,4_52,2023-09-11T17:39:26.788Z,,0,,,3048.225000005972,completion,,,,,false,,,,329236.2000000179,329235.90000000596,326171.009,326175.5,326187.675,329238.283,8,400,,,
trial,html.Screen,4_53_0,2023-09-11T17:39:29.703Z,,0,2,,2912.517000011925,response,ISIC_5611104.JPG,8,ISIC_0010752.JPG,ISIC_5611104.JPG,false,1,keypress(m),500,332151.3000000119,332150.8000000119,329221.617,329236.40000000596,329238.283,332154.833,8,400,4,,ISIC_0010752.JPG
break,html.Screen,4_53_1,2023-09-11T17:39:29.704Z,,0,,,NaN,,,,,,false,,,,332152.10000002384,332152,,332151.5,,332154.833,8,400,,,
break_continue,html.Screen,4_53_2,2023-09-11T17:39:29.705Z,,0,,,NaN,,,,,,false,,,,332152.5,332152.40000000596,,332152.3000000119,,332154.833,8,400,,,
sequence,flow.Sequence,4_53,2023-09-11T17:39:29.705Z,,0,,,2914.1170000059647,completion,,,,,false,,,,332152.7000000179,332152.40000000596,329221.617,329236.3000000119,329238.283,332154.833,8,400,,,
trial,html.Screen,4_54_0,2023-09-11T17:39:36.142Z,,0,2,,6434.867000017897,response,ISIC_0011633.JPG,7,ISIC_2514994.JPG,ISIC_2514994.JPG,false,0,keypress(z),500,338590.2000000179,338589.7000000179,332138.167,332152.90000000596,332154.833,338604.575,8,400,5,,ISIC_0011633.JPG
break,html.Screen,4_54_1,2023-09-11T17:39:36.143Z,,0,,,NaN,,,,,,false,,,,338591.2000000179,338591.10000002384,,338590.60000002384,,338604.575,8,400,,,
break_continue,html.Screen,4_54_2,2023-09-11T17:39:36.144Z,,0,,,NaN,,,,,,false,,,,338591.7000000179,338591.5,,338591.40000000596,,338604.575,8,400,,,
sequence,flow.Sequence,4_54,2023-09-11T17:39:36.144Z,,0,,,6436.667000000016,completion,,,,,false,,,,338591.90000000596,338591.5,332138.167,332152.7000000179,332154.833,338604.575,8,400,,,
trial,html.Screen,4_55_0,2023-09-11T17:39:39.043Z,,0,2,,2886.02500002383,response,ISIC_9544059.JPG,9,ISIC_6507640.JPG,ISIC_6507640.JPG,false,0,keypress(z),500,341490.8000000119,341490.60000002384,338587.909,338592,338604.575,341504.782,8,400,6,,ISIC_9544059.JPG
break,html.Screen,4_55_1,2023-09-11T17:39:39.043Z,,0,,,NaN,,,,,,false,,,,341491.40000000596,341491.3000000119,,341490.90000000596,,341504.782,8,400,,,
break_continue,html.Screen,4_55_2,2023-09-11T17:39:39.044Z,,0,,,NaN,,,,,,false,,,,341491.60000002384,341491.5,,341491.40000000596,,341504.782,8,400,,,
sequence,flow.Sequence,4_55,2023-09-11T17:39:39.044Z,,0,,,2886.9249999999884,completion,,,,,false,,,,341491.7000000179,341491.5,338587.909,338591.90000000596,338604.575,341504.782,8,400,,,
trial,html.Screen,4_56_0,2023-09-11T17:39:41.647Z,,0,2,,2589.3180000238353,response,ISIC_0032287.JPG,8,ISIC_0025072.JPG,ISIC_0025072.JPG,false,0,keypress(z),500,344094.5,344094.10000002384,341488.116,341491.7000000179,341504.782,344104.678,8,400,7,,ISIC_0032287.JPG
break,html.Screen,4_56_1,2023-09-11T17:39:41.648Z,,0,,,NaN,,,,,,false,,,,344095.5,344095.3000000119,,344094.8000000119,,344104.678,8,400,,,
break_continue,html.Screen,4_56_2,2023-09-11T17:39:41.648Z,,0,,,NaN,,,,,,false,,,,344095.8000000119,344095.8000000119,,344095.7000000179,,344104.678,8,400,,,
sequence,flow.Sequence,4_56,2023-09-11T17:39:41.648Z,,0,,,2591.0180000119144,completion,,,,,false,,,,344096.10000002384,344095.8000000119,341488.116,341491.7000000179,341504.782,344104.678,8,400,,,
trial,html.Screen,4_57_0,2023-09-11T17:39:44.390Z,,0,2,,2732.6220000119065,response,ISIC_2380341.JPG,7,ISIC_8492957.JPG,ISIC_8492957.JPG,false,0,keypress(z),500,346837.60000002384,346837.3000000119,344088.012,344096.2000000179,344104.678,346854.568,8,400,8,,ISIC_2380341.JPG
break,html.Screen,4_57_1,2023-09-11T17:39:44.390Z,,0,,,NaN,,,,,,false,,,,346838.2000000179,346838.10000002384,,346837.7000000179,,346854.568,8,400,,,
break_continue,html.Screen,4_57_2,2023-09-11T17:39:44.390Z,,0,,,NaN,,,,,,false,,,,346838.40000000596,346838.3000000119,,346838.3000000119,,346854.568,8,400,,,
sequence,flow.Sequence,4_57,2023-09-11T17:39:44.390Z,,0,,,2733.6220000119065,completion,,,,,false,,,,346838.40000000596,346838.3000000119,344088.012,344096.10000002384,344104.678,346854.568,8,400,,,
trial,html.Screen,4_58_0,2023-09-11T17:39:47.238Z,,0,2,,2831.132000017853,response,ISIC_0032726.JPG,6,ISIC_9254641.JPG,ISIC_9254641.JPG,false,0,keypress(z),500,349686.10000002384,349685.7000000179,346837.902,346838.5,346854.568,349688.133,8,400,9,,ISIC_0032726.JPG
break,html.Screen,4_58_1,2023-09-11T17:39:47.239Z,,0,,,NaN,,,,,,false,,,,349687.10000002384,349686.8000000119,,349686.40000000596,,349688.133,8,400,,,
break_continue,html.Screen,4_58_2,2023-09-11T17:39:47.239Z,,0,,,NaN,,,,,,false,,,,349687.40000000596,349687.3000000119,,349687.10000002384,,349688.133,8,400,,,
sequence,flow.Sequence,4_58,2023-09-11T17:39:47.240Z,,0,,,2832.7320000118925,completion,,,,,false,,,,349687.60000002384,349687.3000000119,346837.902,346838.5,346854.568,349688.133,8,400,,,
trial,html.Screen,4_59_0,2023-09-11T17:39:49.789Z,,0,2,,2548.3670000000275,response,ISIC_0028396.JPG,8,ISIC_4826449.JPG,ISIC_4826449.JPG,false,0,keypress(z),500,352237,352236.5,349671.467,349687.7000000179,349688.133,352254.697,8,400,10,,ISIC_0028396.JPG
break,html.Screen,4_59_1,2023-09-11T17:39:49.790Z,,0,,,NaN,,,,,,false,,,,352237.90000000596,352237.7000000179,,352237.2000000179,,352254.697,8,400,,,
break_continue,html.Screen,4_59_2,2023-09-11T17:39:49.790Z,,0,,,NaN,,,,,,false,,,,352238.2000000179,352238.10000002384,,352238,,352254.697,8,400,,,
sequence,flow.Sequence,4_59,2023-09-11T17:39:49.790Z,,0,,,2549.9670000238693,completion,,,,,false,,,,352238.5,352238.10000002384,349671.467,349687.60000002384,349688.133,352254.697,8,400,,,
trial,html.Screen,4_60_0,2023-09-11T17:39:52.470Z,,0,2,,2663.003000017896,response,ISIC_9482842.JPG,8,ISIC_2819721.JPG,ISIC_9482842.JPG,false,1,keypress(m),500,354918.10000002384,354917.7000000179,352238.031,352238.60000002384,352254.697,354921.257,8,400,11,,ISIC_2819721.JPG
break,html.Screen,4_60_1,2023-09-11T17:39:52.471Z,,0,,,NaN,,,,,,false,,,,354919,354918.90000000596,,354918.40000000596,,354921.257,8,400,,,
break_continue,html.Screen,4_60_2,2023-09-11T17:39:52.471Z,,0,,,NaN,,,,,,false,,,,354919.40000000596,354919.3000000119,,354919.2000000179,,354921.257,8,400,,,
sequence,flow.Sequence,4_60,2023-09-11T17:39:52.471Z,,0,,,2664.6030000119354,completion,,,,,false,,,,354919.60000002384,354919.3000000119,352238.031,352238.5,352254.697,354921.257,8,400,,,
trial,html.Screen,4_61_0,2023-09-11T17:39:55.563Z,,0,2,,3089.7430000000168,response,ISIC_8104064.JPG,8,ISIC_6553389.JPG,ISIC_8104064.JPG,false,1,keypress(m),500,358011.40000000596,358011,354904.591,354919.7000000179,354921.257,358021.133,8,400,12,,ISIC_6553389.JPG
break,html.Screen,4_61_1,2023-09-11T17:39:55.564Z,,0,,,NaN,,,,,,false,,,,358012.40000000596,358012.2000000179,,358011.7000000179,,358021.133,8,400,,,
break_continue,html.Screen,4_61_2,2023-09-11T17:39:55.565Z,,0,,,NaN,,,,,,false,,,,358012.7000000179,358012.60000002384,,358012.5,,358021.133,8,400,,,
sequence,flow.Sequence,4_61,2023-09-11T17:39:55.565Z,,0,,,3091.3430000238586,completion,,,,,false,,,,358012.90000000596,358012.60000002384,354904.591,354919.7000000179,354921.257,358021.133,8,400,,,
trial,html.Screen,4_62_0,2023-09-11T17:39:58.288Z,,0,2,,2714.767000005988,response,ISIC_0034002.JPG,8,ISIC_0011797.JPG,ISIC_0011797.JPG,false,0,keypress(z),500,360736.10000002384,360735.90000000596,358004.467,358013,358021.133,360738.03,8,400,13,,ISIC_0034002.JPG
break,html.Screen,4_62_1,2023-09-11T17:39:58.289Z,,0,,,NaN,,,,,,false,,,,360737.10000002384,360736.8000000119,,360736.3000000119,,360738.03,8,400,,,
break_continue,html.Screen,4_62_2,2023-09-11T17:39:58.289Z,,0,,,NaN,,,,,,false,,,,360737.40000000596,360737.3000000119,,360737.2000000179,,360738.03,8,400,,,
sequence,flow.Sequence,4_62,2023-09-11T17:39:58.289Z,,0,,,2716.1670000119484,completion,,,,,false,,,,360737.5,360737.3000000119,358004.467,358013,358021.133,360738.03,8,400,,,
trial,html.Screen,4_63_0,2023-09-11T17:40:00.902Z,,0,2,,2611.3700000059325,response,ISIC_0002041.JPG,5,ISIC_6512653.JPG,ISIC_0002041.JPG,false,1,keypress(m),500,363349.8000000119,363349.40000000596,360721.364,360737.7000000179,360738.03,363354.592,8,400,14,,ISIC_6512653.JPG
break,html.Screen,4_63_1,2023-09-11T17:40:00.903Z,,0,,,NaN,,,,,,false,,,,363350.8000000119,363350.5,,363350.10000002384,,363354.592,8,400,,,
break_continue,html.Screen,4_63_2,2023-09-11T17:40:00.903Z,,0,,,NaN,,,,,,false,,,,363351.10000002384,363351,,363350.8000000119,,363354.592,8,400,,,
sequence,flow.Sequence,4_63,2023-09-11T17:40:00.903Z,,0,,,2612.969999999972,completion,,,,,false,,,,363351.5,363351,360721.364,360737.7000000179,360738.03,363354.592,8,400,,,
trial,html.Screen,4_64_0,2023-09-11T17:40:03.517Z,,0,2,,2609.907999999996,response,ISIC_0060968.JPG,6,ISIC_3060248.JPG,ISIC_3060248.JPG,false,0,keypress(z),500,365965,365964.5,363337.926,363351.7000000179,363354.592,365971.154,8,400,15,,ISIC_0060968.JPG
break,html.Screen,4_64_1,2023-09-11T17:40:03.518Z,,0,,,NaN,,,,,,false,,,,365966,365965.7000000179,,365965.3000000119,,365971.154,8,400,,,
break_continue,html.Screen,4_64_2,2023-09-11T17:40:03.518Z,,0,,,NaN,,,,,,false,,,,365966.3000000119,365966.2000000179,,365966.10000002384,,365971.154,8,400,,,
sequence,flow.Sequence,4_64,2023-09-11T17:40:03.518Z,,0,,,2611.608000017877,completion,,,,,false,,,,365966.40000000596,365966.2000000179,363337.926,363351.60000002384,363354.592,365971.154,8,400,,,
trial,html.Screen,4_65_0,2023-09-11T17:40:06.127Z,,0,2,,2603.8460000000196,response,ISIC_4148086.JPG,8,ISIC_0010500.JPG,ISIC_4148086.JPG,false,1,keypress(m),500,368575.40000000596,368575,365954.488,365966.60000002384,365971.154,368587.716,8,400,16,,ISIC_0010500.JPG
break,html.Screen,4_65_1,2023-09-11T17:40:06.128Z,,0,,,NaN,,,,,,false,,,,368576.40000000596,368576.2000000179,,368575.60000002384,,368587.716,8,400,,,
break_continue,html.Screen,4_65_2,2023-09-11T17:40:06.128Z,,0,,,NaN,,,,,,false,,,,368576.7000000179,368576.60000002384,,368576.5,,368587.716,8,400,,,
sequence,flow.Sequence,4_65,2023-09-11T17:40:06.129Z,,0,,,2605.4460000238614,completion,,,,,false,,,,368576.90000000596,368576.60000002384,365954.488,365966.5,365971.154,368587.716,8,400,,,
trial,html.Screen,4_66_0,2023-09-11T17:40:08.805Z,,0,2,,2665.4840000178665,response,ISIC_0065346.JPG,9,ISIC_0029898.JPG,ISIC_0029898.JPG,false,0,keypress(z),500,371253.5,371253.2000000179,368571.05,368577,368587.716,371254.605,8,400,17,,ISIC_0065346.JPG
break,html.Screen,4_66_1,2023-09-11T17:40:08.806Z,,0,,,NaN,,,,,,false,,,,371254.40000000596,371254.2000000179,,371253.8000000119,,371254.605,8,400,,,
break_continue,html.Screen,4_66_2,2023-09-11T17:40:08.807Z,,0,,,NaN,,,,,,false,,,,371254.8000000119,371254.7000000179,,371254.60000002384,,371254.605,8,400,,,
sequence,flow.Sequence,4_66,2023-09-11T17:40:08.807Z,,0,,,2666.9840000178665,completion,,,,,false,,,,371255,371254.7000000179,368571.05,368576.90000000596,368587.716,371254.605,8,400,,,
trial,html.Screen,4_67_0,2023-09-11T17:40:11.420Z,,0,2,,2613.3950000000186,response,ISIC_2822718.JPG,8,ISIC_7923008.JPG,ISIC_2822718.JPG,false,1,keypress(m),500,373868.3000000119,373868,371237.939,371255.10000002384,371254.605,373871.167,8,400,18,,ISIC_7923008.JPG
break,html.Screen,4_67_1,2023-09-11T17:40:11.421Z,,0,,,NaN,,,,,,false,,,,373869.3000000119,373869,,373868.60000002384,,373871.167,8,400,,,
break_continue,html.Screen,4_67_2,2023-09-11T17:40:11.421Z,,0,,,NaN,,,,,,false,,,,373869.7000000179,373869.60000002384,,373869.40000000596,,373871.167,8,400,,,
sequence,flow.Sequence,4_67,2023-09-11T17:40:11.422Z,,0,,,2614.9950000238605,completion,,,,,false,,,,373869.90000000596,373869.60000002384,371237.939,371255.10000002384,371254.605,373871.167,8,400,,,
trial,html.Screen,4_68_0,2023-09-11T17:40:14.102Z,,0,2,,2678.933000023826,response,ISIC_0057344.JPG,9,ISIC_5908780.JPG,ISIC_0057344.JPG,false,1,keypress(m),500,376550.2000000179,376550.10000002384,373854.501,373870.10000002384,373871.167,376554.393,8,400,19,,ISIC_5908780.JPG
break,html.Screen,4_68_1,2023-09-11T17:40:14.102Z,,0,,,NaN,,,,,,false,,,,376550.60000002384,376550.5,,376550.3000000119,,376554.393,8,400,,,
break_continue,html.Screen,4_68_2,2023-09-11T17:40:14.102Z,,0,,,NaN,,,,,,false,,,,376550.7000000179,376550.7000000179,,376550.7000000179,,376554.393,8,400,,,
sequence,flow.Sequence,4_68,2023-09-11T17:40:14.102Z,,0,,,2679.5330000178656,completion,,,,,false,,,,376550.8000000119,376550.7000000179,373854.501,373870,373871.167,376554.393,8,400,,,
trial,html.Screen,4_69_0,2023-09-11T17:40:16.903Z,,0,2,,2796.5070000059786,response,ISIC_8100185.JPG,8,ISIC_0008864.JPG,ISIC_0008864.JPG,false,0,keypress(z),500,379351.2000000179,379350.90000000596,376537.727,376551,376554.393,379354.281,8,400,20,,ISIC_8100185.JPG
break,html.Screen,4_69_1,2023-09-11T17:40:16.904Z,,0,,,NaN,,,,,,false,,,,379352.10000002384,379351.8000000119,,379351.5,,379354.281,8,400,,,
break_continue,html.Screen,4_69_2,2023-09-11T17:40:16.904Z,,0,,,NaN,,,,,,false,,,,379352.40000000596,379352.2000000179,,379352.2000000179,,379354.281,8,400,,,
sequence,flow.Sequence,4_69,2023-09-11T17:40:16.904Z,,0,,,2797.8070000178996,completion,,,,,false,,,,379352.60000002384,379352.2000000179,376537.727,376550.90000000596,376554.393,379354.281,8,400,,,
trial,html.Screen,4_70_0,2023-09-11T17:40:19.527Z,,0,2,,2621.0190000119037,response,ISIC_0056186.JPG,5,ISIC_2272218.JPG,ISIC_0056186.JPG,false,1,keypress(m),500,381975.60000002384,381975.3000000119,379337.615,379352.7000000179,379354.281,381987.861,8,400,21,,ISIC_2272218.JPG
break,html.Screen,4_70_1,2023-09-11T17:40:19.528Z,,0,,,NaN,,,,,,false,,,,381976.5,381976.40000000596,,381975.90000000596,,381987.861,8,400,,,
break_continue,html.Screen,4_70_2,2023-09-11T17:40:19.528Z,,0,,,NaN,,,,,,false,,,,381976.90000000596,381976.8000000119,,381976.7000000179,,381987.861,8,400,,,
sequence,flow.Sequence,4_70,2023-09-11T17:40:19.529Z,,0,,,2622.5190000119037,completion,,,,,false,,,,381977,381976.8000000119,379337.615,379352.7000000179,379354.281,381987.861,8,400,,,
trial,html.Screen,4_71_0,2023-09-11T17:40:22.902Z,,0,2,,3362.039000005985,response,ISIC_4257634.JPG,7,ISIC_5615694.JPG,ISIC_4257634.JPG,false,1,keypress(m),500,385350.3000000119,385349.90000000596,381971.195,381977.2000000179,381987.861,385354.393,8,400,22,,ISIC_5615694.JPG
break,html.Screen,4_71_1,2023-09-11T17:40:22.903Z,,0,,,NaN,,,,,,false,,,,385351.2000000179,385351,,385350.60000002384,,385354.393,8,400,,,
break_continue,html.Screen,4_71_2,2023-09-11T17:40:22.903Z,,0,,,NaN,,,,,,false,,,,385351.60000002384,385351.5,,385351.3000000119,,385354.393,8,400,,,
sequence,flow.Sequence,4_71,2023-09-11T17:40:22.903Z,,0,,,3363.6390000000247,completion,,,,,false,,,,385351.7000000179,385351.5,381971.195,381977.2000000179,381987.861,385354.393,8,400,,,
trial,html.Screen,4_72_0,2023-09-11T17:40:25.751Z,,0,2,,2844.70700002386,response,ISIC_0069705.JPG,7,ISIC_8562820.JPG,ISIC_8562820.JPG,false,0,keypress(z),500,388199.40000000596,388199.10000002384,385337.727,385351.8000000119,385354.393,388204.279,8,400,23,,ISIC_0069705.JPG
break,html.Screen,4_72_1,2023-09-11T17:40:25.752Z,,0,,,NaN,,,,,,false,,,,388200.3000000119,388200.10000002384,,388199.7000000179,,388204.279,8,400,,,
break_continue,html.Screen,4_72_2,2023-09-11T17:40:25.752Z,,0,,,NaN,,,,,,false,,,,388200.60000002384,388200.5,,388200.40000000596,,388204.279,8,400,,,
sequence,flow.Sequence,4_72,2023-09-11T17:40:25.752Z,,0,,,2846.107000000018,completion,,,,,false,,,,388200.8000000119,388200.5,385337.727,385351.8000000119,385354.393,388204.279,8,400,,,
trial,html.Screen,4_73_0,2023-09-11T17:40:29.046Z,,0,2,,3289.5210000119405,response,ISIC_6697013.JPG,8,ISIC_2797576.JPG,ISIC_2797576.JPG,false,0,keypress(z),500,391494.10000002384,391493.8000000119,388187.613,388201,388204.279,391504.453,8,400,24,,ISIC_6697013.JPG
break,html.Screen,4_73_1,2023-09-11T17:40:29.046Z,,0,,,NaN,,,,,,false,,,,391494.90000000596,391494.7000000179,,391494.3000000119,,391504.453,8,400,,,
break_continue,html.Screen,4_73_2,2023-09-11T17:40:29.047Z,,0,,,NaN,,,,,,false,,,,391495.3000000119,391495.10000002384,,391495.10000002384,,391504.453,8,400,,,
sequence,flow.Sequence,4_73,2023-09-11T17:40:29.047Z,,0,,,3290.8210000238614,completion,,,,,false,,,,391495.40000000596,391495.10000002384,388187.613,388200.90000000596,388204.279,391504.453,8,400,,,
trial,html.Screen,4_74_0,2023-09-11T17:40:32.890Z,,0,2,,3833.1470000238623,response,ISIC_1670165.JPG,8,ISIC_0011045.JPG,ISIC_1670165.JPG,false,1,keypress(m),500,395338.10000002384,395337.60000002384,391487.787,391495.60000002384,391504.453,395354.299,8,400,25,,ISIC_0011045.JPG
break,html.Screen,4_74_1,2023-09-11T17:40:32.890Z,,0,,,NaN,,,,,,false,,,,395339.10000002384,395338.8000000119,,395338.40000000596,,395354.299,8,400,,,
break_continue,html.Screen,4_74_2,2023-09-11T17:40:32.891Z,,0,,,NaN,,,,,,false,,,,395339.40000000596,395339.3000000119,,395339.2000000179,,395354.299,8,400,,,
sequence,flow.Sequence,4_74,2023-09-11T17:40:32.891Z,,0,,,3834.8470000119414,completion,,,,,false,,,,395339.5,395339.3000000119,391487.787,391495.5,391504.453,395354.299,8,400,,,
trial,html.Screen,4_75_0,2023-09-11T17:40:37.782Z,,0,2,,4876.101000005961,response,ISIC_0563516.JPG,8,ISIC_3475142.JPG,ISIC_3475142.JPG,false,0,keypress(z),500,400230.8000000119,400230.40000000596,395337.633,395339.7000000179,395354.299,400237.437,8,400,26,,ISIC_0563516.JPG
break,html.Screen,4_75_1,2023-09-11T17:40:37.783Z,,0,,,NaN,,,,,,false,,,,400231.8000000119,400231.60000002384,,400231.10000002384,,400237.437,8,400,,,
break_continue,html.Screen,4_75_2,2023-09-11T17:40:37.784Z,,0,,,NaN,,,,,,false,,,,400232.2000000179,400232.10000002384,,400231.90000000596,,400237.437,8,400,,,
sequence,flow.Sequence,4_75,2023-09-11T17:40:37.784Z,,0,,,4877.801000023843,completion,,,,,false,,,,400232.3000000119,400232.10000002384,395337.633,395339.7000000179,395354.299,400237.437,8,400,,,
trial,html.Screen,4_76_0,2023-09-11T17:40:41.965Z,,0,2,,4176.063000000024,response,ISIC_0032187.JPG,5,ISIC_9486917.JPG,ISIC_9486917.JPG,false,0,keypress(z),500,404413.8000000119,404413.5,400220.771,400232.5,400237.437,404420.98,8,400,27,,ISIC_0032187.JPG
break,html.Screen,4_76_1,2023-09-11T17:40:41.966Z,,0,,,NaN,,,,,,false,,,,404414.8000000119,404414.5,,404414.10000002384,,404420.98,8,400,,,
break_continue,html.Screen,4_76_2,2023-09-11T17:40:41.966Z,,0,,,NaN,,,,,,false,,,,404415.2000000179,404415,,404414.90000000596,,404420.98,8,400,,,
sequence,flow.Sequence,4_76,2023-09-11T17:40:41.967Z,,0,,,4177.563000000024,completion,,,,,false,,,,404415.3000000119,404415,400220.771,400232.5,400237.437,404420.98,8,400,,,
trial,html.Screen,4_77_0,2023-09-11T17:40:45.652Z,,0,2,,3679.3200000119396,response,ISIC_0029531.JPG,7,ISIC_0028800.JPG,ISIC_0028800.JPG,false,0,keypress(z),500,408100.7000000179,408100.3000000119,404404.314,404415.5,404420.98,408104.166,8,400,28,,ISIC_0029531.JPG
break,html.Screen,4_77_1,2023-09-11T17:40:45.653Z,,0,,,NaN,,,,,,false,,,,408101.7000000179,408101.5,,408101,,408104.166,8,400,,,
break_continue,html.Screen,4_77_2,2023-09-11T17:40:45.653Z,,0,,,NaN,,,,,,false,,,,408102,408102,,408101.90000000596,,408104.166,8,400,,,
sequence,flow.Sequence,4_77,2023-09-11T17:40:45.653Z,,0,,,3681.0200000000186,completion,,,,,false,,,,408102.2000000179,408102,404404.314,404415.40000000596,404420.98,408104.166,8,400,,,
trial,html.Screen,4_78_0,2023-09-11T17:40:51.741Z,,0,2,,6084.934000023815,response,ISIC_7758102.JPG,8,ISIC_0030034.JPG,ISIC_7758102.JPG,false,1,keypress(m),500,414189.5,414189.10000002384,408087.5,408102.3000000119,408104.166,414204.196,8,400,29,,ISIC_0030034.JPG
break,html.Screen,4_78_1,2023-09-11T17:40:51.742Z,,0,,,NaN,,,,,,false,,,,414190.40000000596,414190.3000000119,,414189.8000000119,,414204.196,8,400,,,
break_continue,html.Screen,4_78_2,2023-09-11T17:40:51.742Z,,0,,,NaN,,,,,,false,,,,414190.8000000119,414190.7000000179,,414190.5,,414204.196,8,400,,,
sequence,flow.Sequence,4_78,2023-09-11T17:40:51.742Z,,0,,,6086.534000017855,completion,,,,,false,,,,414191,414190.7000000179,408087.5,408102.3000000119,408104.166,414204.196,8,400,,,
trial,html.Screen,4_79_0,2023-09-11T17:40:56.259Z,,0,2,,4503.804000000004,response,ISIC_4750271.JPG,7,ISIC_0056041.JPG,ISIC_4750271.JPG,false,1,keypress(m),500,418708.40000000596,418708,414187.53,414191.10000002384,414204.196,418720.682,8,400,30,,ISIC_0056041.JPG
break,html.Screen,4_79_1,2023-09-11T17:40:56.260Z,,0,,,NaN,,,,,,false,,,,418709.3000000119,418709.10000002384,,418708.60000002384,,418720.682,8,400,,,
break_continue,html.Screen,4_79_2,2023-09-11T17:40:56.261Z,,0,,,NaN,,,,,,false,,,,418709.7000000179,418709.5,,418709.40000000596,,418720.682,8,400,,,
sequence,flow.Sequence,4_79,2023-09-11T17:40:56.261Z,,0,,,4505.304000000004,completion,,,,,false,,,,418709.8000000119,418709.5,414187.53,414191.10000002384,414204.196,418720.682,8,400,,,
trial,html.Screen,4_80_0,2023-09-11T17:41:01.675Z,,0,2,,5402.51800001791,response,ISIC_7766007.JPG,5,ISIC_7287303.JPG,ISIC_7287303.JPG,false,0,keypress(z),500,424123.60000002384,424123.2000000179,418704.016,418709.90000000596,418720.682,424154.256,8,400,31,,ISIC_7766007.JPG
break,html.Screen,4_80_1,2023-09-11T17:41:01.676Z,,0,,,NaN,,,,,,false,,,,424124.5,424124.3000000119,,424123.8000000119,,424154.256,8,400,,,
break_continue,html.Screen,4_80_2,2023-09-11T17:41:01.676Z,,0,,,NaN,,,,,,false,,,,424124.90000000596,424124.7000000179,,424124.7000000179,,424154.256,8,400,,,
sequence,flow.Sequence,4_80,2023-09-11T17:41:01.676Z,,0,,,5404.01800001791,completion,,,,,false,,,,424125,424124.7000000179,418704.016,418709.90000000596,418720.682,424154.256,8,400,,,
trial,html.Screen,4_81_0,2023-09-11T17:41:04.752Z,,0,2,,3046.344000023848,response,ISIC_6712342.JPG,6,ISIC_4964478.JPG,ISIC_6712342.JPG,false,1,keypress(m),500,427201,427200.60000002384,424137.59,424125.2000000179,424154.256,427204.134,8,400,32,,ISIC_4964478.JPG
break,html.Screen,4_81_1,2023-09-11T17:41:04.753Z,,0,,,NaN,,,,,,false,,,,427201.90000000596,427201.8000000119,,427201.2000000179,,427204.134,8,400,,,
break_continue,html.Screen,4_81_2,2023-09-11T17:41:04.753Z,,0,,,NaN,,,,,,false,,,,427202.3000000119,427202.2000000179,,427202,,427204.134,8,400,,,
sequence,flow.Sequence,4_81,2023-09-11T17:41:04.753Z,,0,,,3047.9440000178874,completion,,,,,false,,,,427202.40000000596,427202.2000000179,424137.59,424125.10000002384,424154.256,427204.134,8,400,,,
trial,html.Screen,4_82_0,2023-09-11T17:41:09.077Z,,0,2,,4321.066000017861,response,ISIC_0012840.JPG,6,ISIC_0064742.JPG,ISIC_0012840.JPG,false,1,keypress(m),500,431525.60000002384,431525.2000000179,427187.468,427202.5,427204.134,431537.294,8,400,33,,ISIC_0064742.JPG
break,html.Screen,4_82_1,2023-09-11T17:41:09.078Z,,0,,,NaN,,,,,,false,,,,431526.60000002384,431526.40000000596,,431525.90000000596,,431537.294,8,400,,,
break_continue,html.Screen,4_82_2,2023-09-11T17:41:09.078Z,,0,,,NaN,,,,,,false,,,,431526.90000000596,431526.8000000119,,431526.7000000179,,431537.294,8,400,,,
sequence,flow.Sequence,4_82,2023-09-11T17:41:09.078Z,,0,,,4322.666000011901,completion,,,,,false,,,,431527.10000002384,431526.8000000119,427187.468,427202.5,427204.134,431537.294,8,400,,,
trial,html.Screen,4_83_0,2023-09-11T17:41:14.634Z,,0,2,,5545.0060000119265,response,ISIC_7138875.JPG,8,ISIC_0055887.JPG,ISIC_0055887.JPG,false,0,keypress(z),500,437082.7000000179,437082.3000000119,431520.628,431527.2000000179,431537.294,437104.046,8,400,34,,ISIC_7138875.JPG
break,html.Screen,4_83_1,2023-09-11T17:41:14.635Z,,0,,,NaN,,,,,,false,,,,437083.7000000179,437083.40000000596,,437082.90000000596,,437104.046,8,400,,,
break_continue,html.Screen,4_83_2,2023-09-11T17:41:14.635Z,,0,,,NaN,,,,,,false,,,,437084,437083.8000000119,,437083.7000000179,,437104.046,8,400,,,
sequence,flow.Sequence,4_83,2023-09-11T17:41:14.635Z,,0,,,5546.5060000119265,completion,,,,,false,,,,437084.2000000179,437083.8000000119,431520.628,431527.2000000179,431537.294,437104.046,8,400,,,
trial,html.Screen,4_84_0,2023-09-11T17:41:18.064Z,,0,2,,3408.954000000027,response,ISIC_0009642.JPG,8,ISIC_6370977.JPG,ISIC_6370977.JPG,false,0,keypress(z),500,440513.40000000596,440513,437087.38,437084.3000000119,437104.046,440520.576,8,400,35,,ISIC_0009642.JPG
break,html.Screen,4_84_1,2023-09-11T17:41:18.065Z,,0,,,NaN,,,,,,false,,,,440514.3000000119,440514.10000002384,,440513.7000000179,,440520.576,8,400,,,
break_continue,html.Screen,4_84_2,2023-09-11T17:41:18.066Z,,0,,,NaN,,,,,,false,,,,440514.7000000179,440514.60000002384,,440514.40000000596,,440520.576,8,400,,,
sequence,flow.Sequence,4_84,2023-09-11T17:41:18.066Z,,0,,,3410.554000023869,completion,,,,,false,,,,440514.90000000596,440514.60000002384,437087.38,437084.2000000179,437104.046,440520.576,8,400,,,
trial,html.Screen,4_85_0,2023-09-11T17:41:23.949Z,,0,2,,5877.3240000059595,response,ISIC_0011364.JPG,7,ISIC_7682938.JPG,ISIC_7682938.JPG,false,0,keypress(z),500,446398.40000000596,446397.90000000596,440503.91,440515,440520.576,446404.094,8,400,36,,ISIC_0011364.JPG
break,html.Screen,4_85_1,2023-09-11T17:41:23.950Z,,0,,,NaN,,,,,,false,,,,446399.2000000179,446399.10000002384,,446398.60000002384,,446404.094,8,400,,,
break_continue,html.Screen,4_85_2,2023-09-11T17:41:23.950Z,,0,,,NaN,,,,,,false,,,,446399.60000002384,446399.5,,446399.3000000119,,446404.094,8,400,,,
sequence,flow.Sequence,4_85,2023-09-11T17:41:23.951Z,,0,,,5878.923999999999,completion,,,,,false,,,,446399.8000000119,446399.5,440503.91,440514.90000000596,440520.576,446404.094,8,400,,,
trial,html.Screen,4_86_0,2023-09-11T17:41:32.772Z,,0,2,,8816.906000000017,response,ISIC_0069192.JPG,6,ISIC_3133127.JPG,ISIC_0069192.JPG,false,1,keypress(m),500,455221.5,455221,446387.428,446399.90000000596,446404.094,455237.074,8,400,37,,ISIC_3133127.JPG
break,html.Screen,4_86_1,2023-09-11T17:41:32.773Z,,0,,,NaN,,,,,,false,,,,455222.3000000119,455222.2000000179,,455221.7000000179,,455237.074,8,400,,,
break_continue,html.Screen,4_86_2,2023-09-11T17:41:32.773Z,,0,,,NaN,,,,,,false,,,,455222.7000000179,455222.60000002384,,455222.5,,455237.074,8,400,,,
sequence,flow.Sequence,4_86,2023-09-11T17:41:32.774Z,,0,,,8818.506000023859,completion,,,,,false,,,,455223,455222.60000002384,446387.428,446399.90000000596,446404.094,455237.074,8,400,,,
trial,html.Screen,4_87_0,2023-09-11T17:41:38.698Z,,0,2,,5910.326000005938,response,ISIC_4009870.JPG,8,ISIC_0028696.JPG,ISIC_0028696.JPG,false,0,keypress(z),500,461147.8000000119,461147.40000000596,455220.408,455223,455237.074,461153.809,8,400,38,,ISIC_4009870.JPG
break,html.Screen,4_87_1,2023-09-11T17:41:38.699Z,,0,,,NaN,,,,,,false,,,,461148.7000000179,461148.5,,461148,,461153.809,8,400,,,
break_continue,html.Screen,4_87_2,2023-09-11T17:41:38.700Z,,0,,,NaN,,,,,,false,,,,461149.10000002384,461148.90000000596,,461148.8000000119,,461153.809,8,400,,,
sequence,flow.Sequence,4_87,2023-09-11T17:41:38.700Z,,0,,,5911.826000005938,completion,,,,,false,,,,461149.2000000179,461148.90000000596,455220.408,455223,455237.074,461153.809,8,400,,,
trial,html.Screen,4_88_0,2023-09-11T17:41:44.526Z,,0,2,,5821.591000005952,response,ISIC_0071118.JPG,8,ISIC_0063053.JPG,ISIC_0063053.JPG,false,0,keypress(z),500,466975.8000000119,466975.40000000596,461137.143,461149.40000000596,461153.809,466987.153,8,400,39,,ISIC_0071118.JPG
break,html.Screen,4_88_1,2023-09-11T17:41:44.527Z,,0,,,NaN,,,,,,false,,,,466976.60000002384,466976.5,,466976,,466987.153,8,400,,,
break_continue,html.Screen,4_88_2,2023-09-11T17:41:44.527Z,,0,,,NaN,,,,,,false,,,,466977,466976.90000000596,,466976.8000000119,,466987.153,8,400,,,
sequence,flow.Sequence,4_88,2023-09-11T17:41:44.528Z,,0,,,5823.091000005952,completion,,,,,false,,,,466977.2000000179,466976.90000000596,461137.143,461149.3000000119,461153.809,466987.153,8,400,,,
trial,html.Screen,4_89_0,2023-09-11T17:41:51.989Z,,0,2,,7451.247000005969,response,ISIC_0002693.JPG,8,ISIC_2670475.JPG,ISIC_0002693.JPG,false,1,keypress(m),500,474438.8000000119,474438.40000000596,466970.487,466977.3000000119,466987.153,474453.521,8,400,40,,ISIC_2670475.JPG
break,html.Screen,4_89_1,2023-09-11T17:41:51.990Z,,0,,,NaN,,,,,,false,,,,474439.7000000179,474439.60000002384,,474439.10000002384,,474453.521,8,400,,,
break_continue,html.Screen,4_89_2,2023-09-11T17:41:51.990Z,,0,,,NaN,,,,,,false,,,,474440.10000002384,474440,,474439.8000000119,,474453.521,8,400,,,
sequence,flow.Sequence,4_89,2023-09-11T17:41:51.991Z,,0,,,7452.847000000009,completion,,,,,false,,,,474440.2000000179,474440,466970.487,466977.3000000119,466987.153,474453.521,8,400,,,
trial,html.Screen,4_90_0,2023-09-11T17:41:58.934Z,,0,2,,6930.1790000178735,response,ISIC_0033879.JPG,8,ISIC_4768512.JPG,ISIC_4768512.JPG,false,0,keypress(z),500,481384.10000002384,481383.7000000179,474436.855,474440.3000000119,474453.521,481387.011,8,400,41,,ISIC_0033879.JPG
break,html.Screen,4_90_1,2023-09-11T17:41:58.935Z,,0,,,NaN,,,,,,false,,,,481385.10000002384,481384.90000000596,,481384.3000000119,,481387.011,8,400,,,
break_continue,html.Screen,4_90_2,2023-09-11T17:41:58.936Z,,0,,,NaN,,,,,,false,,,,481385.5,481385.40000000596,,481385.3000000119,,481387.011,8,400,,,
sequence,flow.Sequence,4_90,2023-09-11T17:41:58.936Z,,0,,,6931.879000005953,completion,,,,,false,,,,481385.7000000179,481385.40000000596,474436.855,474440.3000000119,474453.521,481387.011,8,400,,,
trial,html.Screen,4_91_0,2023-09-11T17:42:02.502Z,,0,2,,3563.889000005962,response,ISIC_0027069.JPG,7,ISIC_0063258.JPG,ISIC_0063258.JPG,false,0,keypress(z),500,484951.3000000119,484950.90000000596,481370.345,481385.8000000119,481387.011,484953.535,8,400,42,,ISIC_0027069.JPG
break,html.Screen,4_91_1,2023-09-11T17:42:02.502Z,,0,,,NaN,,,,,,false,,,,484952.2000000179,484952,,484951.5,,484953.535,8,400,,,
break_continue,html.Screen,4_91_2,2023-09-11T17:42:02.503Z,,0,,,NaN,,,,,,false,,,,484952.8000000119,484952.5,,484952.40000000596,,484953.535,8,400,,,
sequence,flow.Sequence,4_91,2023-09-11T17:42:02.503Z,,0,,,3565.4890000000014,completion,,,,,false,,,,484953,484952.5,481370.345,481385.7000000179,481387.011,484953.535,8,400,,,
trial,html.Screen,4_92_0,2023-09-11T17:42:06.541Z,,0,2,,4036.865000005986,response,ISIC_0031914.JPG,8,ISIC_0029993.JPG,ISIC_0029993.JPG,false,0,keypress(z),500,488990.8000000119,488990.40000000596,484936.869,484953.10000002384,484953.535,489003.717,8,400,43,,ISIC_0031914.JPG
break,html.Screen,4_92_1,2023-09-11T17:42:06.542Z,,0,,,NaN,,,,,,false,,,,488991.7000000179,488991.60000002384,,488991,,489003.717,8,400,,,
break_continue,html.Screen,4_92_2,2023-09-11T17:42:06.542Z,,0,,,NaN,,,,,,false,,,,488992,488992,,488991.90000000596,,489003.717,8,400,,,
sequence,flow.Sequence,4_92,2023-09-11T17:42:06.542Z,,0,,,4038.4650000000256,completion,,,,,false,,,,488992.3000000119,488992,484936.869,484953.10000002384,484953.535,489003.717,8,400,,,
trial,html.Screen,4_93_0,2023-09-11T17:42:09.777Z,,0,2,,3222.8830000238377,response,ISIC_7498132.JPG,8,ISIC_2507845.JPG,ISIC_2507845.JPG,false,0,keypress(z),500,492227,492226.60000002384,488987.051,488992.40000000596,489003.717,492236.921,8,400,44,,ISIC_7498132.JPG
break,html.Screen,4_93_1,2023-09-11T17:42:09.778Z,,0,,,NaN,,,,,,false,,,,492227.90000000596,492227.7000000179,,492227.2000000179,,492236.921,8,400,,,
break_continue,html.Screen,4_93_2,2023-09-11T17:42:09.778Z,,0,,,NaN,,,,,,false,,,,492228.2000000179,492228.10000002384,,492228,,492236.921,8,400,,,
sequence,flow.Sequence,4_93,2023-09-11T17:42:09.779Z,,0,,,3224.3830000238377,completion,,,,,false,,,,492228.40000000596,492228.10000002384,488987.051,488992.3000000119,489003.717,492236.921,8,400,,,
trial,html.Screen,4_94_0,2023-09-11T17:42:13.495Z,,0,2,,3707.179000023869,response,ISIC_4527661.JPG,8,ISIC_7846309.JPG,ISIC_4527661.JPG,false,1,keypress(m),500,495944.60000002384,495944.10000002384,492220.255,492228.60000002384,492236.921,495953.439,8,400,45,,ISIC_7846309.JPG
break,html.Screen,4_94_1,2023-09-11T17:42:13.496Z,,0,,,NaN,,,,,,false,,,,495945.5,495945.3000000119,,495944.90000000596,,495953.439,8,400,,,
break_continue,html.Screen,4_94_2,2023-09-11T17:42:13.496Z,,0,,,NaN,,,,,,false,,,,495945.8000000119,495945.7000000179,,495945.60000002384,,495953.439,8,400,,,
sequence,flow.Sequence,4_94,2023-09-11T17:42:13.496Z,,0,,,3708.7790000179084,completion,,,,,false,,,,495946,495945.7000000179,492220.255,492228.5,492236.921,495953.439,8,400,,,
trial,html.Screen,4_95_0,2023-09-11T17:42:18.366Z,,0,2,,4861.861000011908,response,ISIC_3328295.JPG,6,ISIC_0067170.JPG,ISIC_0067170.JPG,false,0,keypress(z),500,500815.7000000179,500815.3000000119,495936.773,495946.10000002384,495953.439,500820.27,8,400,46,,ISIC_3328295.JPG
break,html.Screen,4_95_1,2023-09-11T17:42:18.367Z,,0,,,NaN,,,,,,false,,,,500816.60000002384,500816.40000000596,,500815.90000000596,,500820.27,8,400,,,
break_continue,html.Screen,4_95_2,2023-09-11T17:42:18.367Z,,0,,,NaN,,,,,,false,,,,500817.10000002384,500817,,500816.8000000119,,500820.27,8,400,,,
sequence,flow.Sequence,4_95,2023-09-11T17:42:18.367Z,,0,,,4863.560999999987,completion,,,,,false,,,,500817.2000000179,500817,495936.773,495946.10000002384,495953.439,500820.27,8,400,,,
trial,html.Screen,4_96_0,2023-09-11T17:42:26.772Z,,0,2,,8401.830000023823,response,ISIC_0029609.JPG,7,ISIC_9738202.JPG,ISIC_9738202.JPG,false,0,keypress(z),500,509222.60000002384,509222.10000002384,500803.604,500817.40000000596,500820.27,509236.6,8,400,47,,ISIC_0029609.JPG
break,html.Screen,4_96_1,2023-09-11T17:42:26.773Z,,0,,,NaN,,,,,,false,,,,509223.5,509223.2000000179,,509222.8000000119,,509236.6,8,400,,,
break_continue,html.Screen,4_96_2,2023-09-11T17:42:26.774Z,,0,,,NaN,,,,,,false,,,,509223.8000000119,509223.7000000179,,509223.5,,509236.6,8,400,,,
sequence,flow.Sequence,4_96,2023-09-11T17:42:26.774Z,,0,,,8403.430000017863,completion,,,,,false,,,,509223.90000000596,509223.7000000179,500803.604,500817.3000000119,500820.27,509236.6,8,400,,,
trial,html.Screen,4_97_0,2023-09-11T17:42:38.059Z,,0,2,,11271.700000011944,response,ISIC_0000274.JPG,6,ISIC_0030139.JPG,ISIC_0000274.JPG,false,1,keypress(m),500,520508.8000000119,520508.3000000119,509219.934,509224.10000002384,509236.6,520520.218,8,400,48,,ISIC_0030139.JPG
break,html.Screen,4_97_1,2023-09-11T17:42:38.060Z,,0,,,NaN,,,,,,false,,,,520509.8000000119,520509.7000000179,,520509.10000002384,,520520.218,8,400,,,
break_continue,html.Screen,4_97_2,2023-09-11T17:42:38.060Z,,0,,,NaN,,,,,,false,,,,520510.2000000179,520510.10000002384,,520510,,520520.218,8,400,,,
sequence,flow.Sequence,4_97,2023-09-11T17:42:38.060Z,,0,,,11273.500000023865,completion,,,,,false,,,,520510.40000000596,520510.10000002384,509219.934,509224,509236.6,520520.218,8,400,,,
trial,html.Screen,4_98_0,2023-09-11T17:42:48.804Z,,0,2,,10733.682000005967,response,ISIC_0046622.JPG,9,ISIC_0061454.JPG,ISIC_0046622.JPG,false,1,keypress(m),500,531254.3000000119,531253.900000006,520503.552,520510.60000002384,520520.218,531269.855,8,400,49,,ISIC_0061454.JPG
break,html.Screen,4_98_1,2023-09-11T17:42:48.805Z,,0,,,NaN,,,,,,false,,,,531255.400000006,531255.2000000179,,531254.7000000179,,531269.855,8,400,,,
break_continue,html.Screen,4_98_2,2023-09-11T17:42:48.805Z,,0,,,NaN,,,,,,false,,,,531255.7000000179,531255.6000000238,,531255.5,,531269.855,8,400,,,
sequence,flow.Sequence,4_98,2023-09-11T17:42:48.806Z,,0,,,10735.382000023848,completion,,,,,false,,,,531255.8000000119,531255.6000000238,520503.552,520510.40000000596,520520.218,531269.855,8,400,,,
trial,html.Screen,4_99_0,2023-09-11T17:42:53.253Z,,0,2,,4433.545000005979,response,ISIC_0012057.JPG,7,ISIC_9974613.JPG,ISIC_0012057.JPG,false,1,keypress(m),500,535703.7000000179,535703.400000006,531253.189,531256,531269.855,535719.677,8,400,50,,ISIC_9974613.JPG
break,html.Screen,4_99_1,2023-09-11T17:43:03.257Z,,0,,,10000.201000000001,timeout,,,,,false,,,,545707.3000000119,545703.212,535703.011,535704,535719.677,545719.878,8,400,,,
break_continue,html.Screen,4_99_2,2023-09-11T17:43:20.530Z,,0,,,17238.822000017855,response,,,,,false,continue,keypress(Space),,562977.5,562958.7000000179,545703.212,545707.400000006,545719.878,562985.854,8,400,,,
sequence,flow.Sequence,4_99,2023-09-11T17:43:20.530Z,,0,,,31688.8450000179,completion,,,,,false,,,,562977.7000000179,562958.7000000179,531253.189,531256,531269.855,562985.854,8,400,,,
trial,html.Screen,4_100_0,2023-09-11T17:43:24.031Z,,0,3,,3484.4460000118706,response,ISIC_4806829.JPG,11,ISIC_6398283.JPG,ISIC_4806829.JPG,false,1,keypress(m),500,566470.7000000179,566470.3000000119,562969.188,562977.8000000119,562985.854,566485.909,8,400,1,,ISIC_6398283.JPG
break,html.Screen,4_100_1,2023-09-11T17:43:24.032Z,,0,,,NaN,,,,,,false,,,,566471.7000000179,566471.5,,566471.1000000238,,566485.909,8,400,,,
break_continue,html.Screen,4_100_2,2023-09-11T17:43:24.032Z,,0,,,NaN,,,,,,false,,,,566472.1000000238,566472,,566471.8000000119,,566485.909,8,400,,,
sequence,flow.Sequence,4_100,2023-09-11T17:43:24.032Z,,0,,,3486.1459999999497,completion,,,,,false,,,,566472.3000000119,566472,562969.188,562977.8000000119,562985.854,566485.909,8,400,,,
trial,html.Screen,4_101_0,2023-09-11T17:43:33.668Z,,0,3,,9607.491000005975,response,ISIC_0010958.JPG,11,ISIC_4434803.JPG,ISIC_0010958.JPG,false,1,keypress(m),500,576093.7000000179,576093.400000006,566469.243,566472.3000000119,566485.909,576103.145,8,400,2,,ISIC_4434803.JPG
break,html.Screen,4_101_1,2023-09-11T17:43:33.669Z,,0,,,NaN,,,,,,false,,,,576094.7000000179,576094.400000006,,576093.900000006,,576103.145,8,400,,,
break_continue,html.Screen,4_101_2,2023-09-11T17:43:33.669Z,,0,,,NaN,,,,,,false,,,,576095.2000000179,576095,,576094.8000000119,,576103.145,8,400,,,
sequence,flow.Sequence,4_101,2023-09-11T17:43:33.669Z,,0,,,9609.091000000015,completion,,,,,false,,,,576095.2000000179,576095,566469.243,566472.3000000119,566485.909,576103.145,8,400,,,
trial,html.Screen,4_102_0,2023-09-11T17:43:37.690Z,,0,3,,4008.6550000119023,response,ISIC_0394140.JPG,7,ISIC_0834745.JPG,ISIC_0394140.JPG,false,1,keypress(m),500,580112.2000000179,580111.8000000119,576086.479,576095.3000000119,576103.145,580119.651,8,400,3,,ISIC_0834745.JPG
break,html.Screen,4_102_1,2023-09-11T17:43:37.691Z,,0,,,NaN,,,,,,false,,,,580113.1000000238,580113,,580112.5,,580119.651,8,400,,,
break_continue,html.Screen,4_102_2,2023-09-11T17:43:37.692Z,,0,,,NaN,,,,,,false,,,,580114.5,580114.2000000179,,580114,,580119.651,8,400,,,
sequence,flow.Sequence,4_102,2023-09-11T17:43:37.693Z,,0,,,4011.0550000178628,completion,,,,,false,,,,580114.6000000238,580114.2000000179,576086.479,576095.3000000119,576103.145,580119.651,8,400,,,
trial,html.Screen,4_103_0,2023-09-11T17:43:40.804Z,,0,3,,3103.749000006006,response,ISIC_9142919.JPG,9,ISIC_3025889.JPG,ISIC_9142919.JPG,false,1,keypress(m),500,583223.7000000179,583223.400000006,580102.985,580114.8000000119,580119.651,583236.193,8,400,4,,ISIC_3025889.JPG
break,html.Screen,4_103_1,2023-09-11T17:43:40.805Z,,0,,,NaN,,,,,,false,,,,583224.6000000238,583224.400000006,,583223.900000006,,583236.193,8,400,,,
break_continue,html.Screen,4_103_2,2023-09-11T17:43:40.805Z,,0,,,NaN,,,,,,false,,,,583225,583224.900000006,,583224.7000000179,,583236.193,8,400,,,
sequence,flow.Sequence,4_103,2023-09-11T17:43:40.805Z,,0,,,3105.249000006006,completion,,,,,false,,,,583225.1000000238,583224.900000006,580102.985,580114.8000000119,580119.651,583236.193,8,400,,,
trial,html.Screen,4_104_0,2023-09-11T17:43:44.222Z,,0,3,,3402.6070000119507,response,ISIC_0002862.JPG,9,ISIC_7319686.JPG,ISIC_0002862.JPG,false,1,keypress(m),500,586639.2000000179,586638.8000000119,583219.527,583225.2000000179,583236.193,586653.024,8,400,5,,ISIC_7319686.JPG
break,html.Screen,4_104_1,2023-09-11T17:43:44.222Z,,0,,,NaN,,,,,,false,,,,586640.1000000238,586639.900000006,,586639.5,,586653.024,8,400,,,
break_continue,html.Screen,4_104_2,2023-09-11T17:43:44.223Z,,0,,,NaN,,,,,,false,,,,586640.5,586640.3000000119,,586640.3000000119,,586653.024,8,400,,,
sequence,flow.Sequence,4_104,2023-09-11T17:43:44.223Z,,0,,,3404.1070000119507,completion,,,,,false,,,,586640.6000000238,586640.3000000119,583219.527,583225.2000000179,583236.193,586653.024,8,400,,,
trial,html.Screen,4_105_0,2023-09-11T17:43:47.479Z,,0,3,,3241.576000023866,response,ISIC_0029150.JPG,8,ISIC_0429825.JPG,ISIC_0429825.JPG,false,0,keypress(z),500,589895,589894.6000000238,586636.358,586640.7000000179,586653.024,589902.894,8,400,6,,ISIC_0029150.JPG
break,html.Screen,4_105_1,2023-09-11T17:43:47.480Z,,0,,,NaN,,,,,,false,,,,589895.900000006,589895.8000000119,,589895.3000000119,,589902.894,8,400,,,
break_continue,html.Screen,4_105_2,2023-09-11T17:43:47.480Z,,0,,,NaN,,,,,,false,,,,589896.2000000179,589896.2000000179,,589896.1000000238,,589902.894,8,400,,,
sequence,flow.Sequence,4_105,2023-09-11T17:43:47.480Z,,0,,,3243.1760000179056,completion,,,,,false,,,,589896.400000006,589896.2000000179,586636.358,586640.6000000238,586653.024,589902.894,8,400,,,
trial,html.Screen,4_106_0,2023-09-11T17:43:58.978Z,,0,3,,11516.533999999985,timeout,ISIC_0060716.JPG,8,ISIC_0034076.JPG,,false,,,500,601390.900000006,601390.6000000238,589886.228,589896.6000000238,589902.894,601419.428,8,400,7,,
break,html.Screen,4_106_1,2023-09-11T17:43:58.979Z,,0,,,NaN,,,,,,false,,,,601391.900000006,601391.7000000179,,601391.1000000238,,601419.428,8,400,,,
break_continue,html.Screen,4_106_2,2023-09-11T17:43:58.979Z,,0,,,NaN,,,,,,false,,,,601392.2000000179,601392.1000000238,,601391.900000006,,601419.428,8,400,,,
sequence,flow.Sequence,4_106,2023-09-11T17:43:58.980Z,,0,,,11489.20600002387,completion,,,,,false,,,,601392.400000006,601392.1000000238,589886.228,589896.5,589902.894,601419.428,8,400,,,
trial,html.Screen,4_107_0,2023-09-11T17:44:02.007Z,,0,3,,2999.5720000000438,response,ISIC_1177505.JPG,8,ISIC_0032856.JPG,ISIC_0032856.JPG,false,0,keypress(z),500,604419.400000006,604419,601402.762,601392.5,601419.428,604435.974,8,400,8,,ISIC_1177505.JPG
break,html.Screen,4_107_1,2023-09-11T17:44:02.008Z,,0,,,NaN,,,,,,false,,,,604420.3000000119,604420.1000000238,,604419.7000000179,,604435.974,8,400,,,
break_continue,html.Screen,4_107_2,2023-09-11T17:44:02.009Z,,0,,,NaN,,,,,,false,,,,604420.7000000179,604420.5,,604420.400000006,,604435.974,8,400,,,
sequence,flow.Sequence,4_107,2023-09-11T17:44:02.009Z,,0,,,3001.0720000000438,completion,,,,,false,,,,604420.900000006,604420.5,601402.762,601392.5,601419.428,604435.974,8,400,,,
trial,html.Screen,4_108_0,2023-09-11T17:44:04.799Z,,0,3,,2774.126000023796,response,ISIC_0014151.JPG,8,ISIC_0065313.JPG,ISIC_0065313.JPG,false,0,keypress(z),500,607210.400000006,607210.1000000238,604419.308,604421,604435.974,607219.586,8,400,9,,ISIC_0014151.JPG
break,html.Screen,4_108_1,2023-09-11T17:44:04.800Z,,0,,,NaN,,,,,,false,,,,607211.3000000119,607211.1000000238,,607210.7000000179,,607219.586,8,400,,,
break_continue,html.Screen,4_108_2,2023-09-11T17:44:04.800Z,,0,,,NaN,,,,,,false,,,,607211.6000000238,607211.5,,607211.400000006,,607219.586,8,400,,,
sequence,flow.Sequence,4_108,2023-09-11T17:44:04.800Z,,0,,,2775.5259999999544,completion,,,,,false,,,,607211.8000000119,607211.5,604419.308,604421,604435.974,607219.586,8,400,,,
trial,html.Screen,4_109_0,2023-09-11T17:44:07.509Z,,0,3,,2700.5140000238316,response,ISIC_0028009.JPG,7,ISIC_9099430.JPG,ISIC_9099430.JPG,false,0,keypress(z),500,609920.5,609920.1000000238,607202.92,607212,607219.586,609936.144,8,400,10,,ISIC_0028009.JPG
break,html.Screen,4_109_1,2023-09-11T17:44:07.510Z,,0,,,NaN,,,,,,false,,,,609921.400000006,609921.2000000179,,609920.8000000119,,609936.144,8,400,,,
break_continue,html.Screen,4_109_2,2023-09-11T17:44:07.510Z,,0,,,NaN,,,,,,false,,,,609921.8000000119,609921.6000000238,,609921.5,,609936.144,8,400,,,
sequence,flow.Sequence,4_109,2023-09-11T17:44:07.511Z,,0,,,2702.0140000238316,completion,,,,,false,,,,609921.900000006,609921.6000000238,607202.92,607211.900000006,607219.586,609936.144,8,400,,,
trial,html.Screen,4_110_0,2023-09-11T17:44:11.132Z,,0,3,,3606.856000000029,response,ISIC_0032313.JPG,6,ISIC_0066203.JPG,ISIC_0032313.JPG,false,1,keypress(m),500,613543.5,613543,609919.478,609922.1000000238,609936.144,613552.666,8,400,11,,ISIC_0066203.JPG
break,html.Screen,4_110_1,2023-09-11T17:44:11.133Z,,0,,,NaN,,,,,,false,,,,613544.400000006,613544.2000000179,,613543.7000000179,,613552.666,8,400,,,
break_continue,html.Screen,4_110_2,2023-09-11T17:44:11.134Z,,0,,,NaN,,,,,,false,,,,613544.8000000119,613544.7000000179,,613544.6000000238,,613552.666,8,400,,,
sequence,flow.Sequence,4_110,2023-09-11T17:44:11.134Z,,0,,,3608.5560000179103,completion,,,,,false,,,,613544.900000006,613544.7000000179,609919.478,609922,609936.144,613552.666,8,400,,,
trial,html.Screen,4_111_0,2023-09-11T17:44:18.733Z,,0,3,,7590.534000017913,response,ISIC_0008774.JPG,8,ISIC_5823292.JPG,ISIC_0008774.JPG,false,1,keypress(m),500,621143.7000000179,621143.2000000179,613536,613545.1000000238,613552.666,621152.635,8,400,12,,ISIC_5823292.JPG
break,html.Screen,4_111_1,2023-09-11T17:44:18.734Z,,0,,,NaN,,,,,,false,,,,621144.7000000179,621144.5,,621143.900000006,,621152.635,8,400,,,
break_continue,html.Screen,4_111_2,2023-09-11T17:44:18.735Z,,0,,,NaN,,,,,,false,,,,621145,621144.900000006,,621144.8000000119,,621152.635,8,400,,,
sequence,flow.Sequence,4_111,2023-09-11T17:44:18.735Z,,0,,,7592.234000005992,completion,,,,,false,,,,621145.2000000179,621144.900000006,613536,613545.1000000238,613552.666,621152.635,8,400,,,
trial,html.Screen,4_112_0,2023-09-11T17:44:21.857Z,,0,3,,3114.3649999999907,response,ISIC_1924949.JPG,7,ISIC_0013652.JPG,ISIC_1924949.JPG,false,1,keypress(m),500,624267.400000006,624267,621135.969,621145.3000000119,621152.635,624269.177,8,400,13,,ISIC_0013652.JPG
break,html.Screen,4_112_1,2023-09-11T17:44:21.858Z,,0,,,NaN,,,,,,false,,,,624268.400000006,624268.1000000238,,624267.7000000179,,624269.177,8,400,,,
break_continue,html.Screen,4_112_2,2023-09-11T17:44:21.858Z,,0,,,NaN,,,,,,false,,,,624268.7000000179,624268.6000000238,,624268.5,,624269.177,8,400,,,
sequence,flow.Sequence,4_112,2023-09-11T17:44:21.859Z,,0,,,3115.9650000238325,completion,,,,,false,,,,624268.8000000119,624268.6000000238,621135.969,621145.3000000119,621152.635,624269.177,8,400,,,
trial,html.Screen,4_113_0,2023-09-11T17:44:24.967Z,,0,3,,3107.2230000059353,response,ISIC_0012081.JPG,8,ISIC_0062935.JPG,ISIC_0012081.JPG,false,1,keypress(m),500,627376.8000000119,627376.400000006,624252.511,624269,624269.177,627385.719,8,400,14,,ISIC_0062935.JPG
break,html.Screen,4_113_1,2023-09-11T17:44:24.968Z,,0,,,NaN,,,,,,false,,,,627377.8000000119,627377.5,,627377.1000000238,,627385.719,8,400,,,
break_continue,html.Screen,4_113_2,2023-09-11T17:44:24.968Z,,0,,,NaN,,,,,,false,,,,627378.1000000238,627378,,627377.900000006,,627385.719,8,400,,,
sequence,flow.Sequence,4_113,2023-09-11T17:44:24.968Z,,0,,,3108.822999999975,completion,,,,,false,,,,627378.2000000179,627378,624252.511,624268.900000006,624269.177,627385.719,8,400,,,
trial,html.Screen,4_114_0,2023-09-11T17:44:27.724Z,,0,3,,2747.9810000178404,response,ISIC_0029374.JPG,6,ISIC_1193108.JPG,ISIC_1193108.JPG,false,0,keypress(z),500,630134.1000000238,630133.7000000179,627369.053,627378.400000006,627385.719,630136.012,8,400,15,,ISIC_0029374.JPG
break,html.Screen,4_114_1,2023-09-11T17:44:27.725Z,,0,,,NaN,,,,,,false,,,,630135.2000000179,630135,,630134.400000006,,630136.012,8,400,,,
break_continue,html.Screen,4_114_2,2023-09-11T17:44:27.725Z,,0,,,NaN,,,,,,false,,,,630135.5,630135.400000006,,630135.2000000179,,630136.012,8,400,,,
sequence,flow.Sequence,4_114,2023-09-11T17:44:27.726Z,,0,,,2749.6810000059195,completion,,,,,false,,,,630135.7000000179,630135.400000006,627369.053,627378.3000000119,627385.719,630136.012,8,400,,,
trial,html.Screen,4_115_0,2023-09-11T17:44:30.720Z,,0,3,,2993.588000023854,response,ISIC_9560298.JPG,7,ISIC_0030795.JPG,ISIC_0030795.JPG,false,0,keypress(z),500,633130.1000000238,633129.6000000238,630119.346,630135.8000000119,630136.012,633135.892,8,400,16,,ISIC_9560298.JPG
break,html.Screen,4_115_1,2023-09-11T17:44:30.721Z,,0,,,NaN,,,,,,false,,,,633131,633130.8000000119,,633130.3000000119,,633135.892,8,400,,,
break_continue,html.Screen,4_115_2,2023-09-11T17:44:30.721Z,,0,,,NaN,,,,,,false,,,,633131.400000006,633131.3000000119,,633131.1000000238,,633135.892,8,400,,,
sequence,flow.Sequence,4_115,2023-09-11T17:44:30.721Z,,0,,,2995.288000011933,completion,,,,,false,,,,633131.6000000238,633131.3000000119,630119.346,630135.8000000119,630136.012,633135.892,8,400,,,
trial,html.Screen,4_116_0,2023-09-11T17:44:33.287Z,,0,3,,2560.508000005968,response,ISIC_5281908.JPG,8,ISIC_0011139.JPG,ISIC_5281908.JPG,false,1,keypress(m),500,635696.900000006,635696.400000006,633119.226,633131.7000000179,633135.892,635702.456,8,400,17,,ISIC_0011139.JPG
break,html.Screen,4_116_1,2023-09-11T17:44:33.288Z,,0,,,NaN,,,,,,false,,,,635697.8000000119,635697.6000000238,,635697.1000000238,,635702.456,8,400,,,
break_continue,html.Screen,4_116_2,2023-09-11T17:44:33.288Z,,0,,,NaN,,,,,,false,,,,635698.1000000238,635698,,635697.900000006,,635702.456,8,400,,,
sequence,flow.Sequence,4_116,2023-09-11T17:44:33.288Z,,0,,,2562.1080000000075,completion,,,,,false,,,,635698.3000000119,635698,633119.226,633131.7000000179,633135.892,635702.456,8,400,,,
trial,html.Screen,4_117_0,2023-09-11T17:44:35.822Z,,0,3,,2528.6440000238363,response,ISIC_0000459.JPG,8,ISIC_3315146.JPG,ISIC_3315146.JPG,false,0,keypress(z),500,638231.6000000238,638231.1000000238,635685.79,635698.400000006,635702.456,638236.027,8,400,18,,ISIC_0000459.JPG
break,html.Screen,4_117_1,2023-09-11T17:44:35.824Z,,0,,,NaN,,,,,,false,,,,638233.7000000179,638233.5,,638232.6000000238,,638236.027,8,400,,,
break_continue,html.Screen,4_117_2,2023-09-11T17:44:35.824Z,,0,,,NaN,,,,,,false,,,,638234.1000000238,638234,,638233.8000000119,,638236.027,8,400,,,
sequence,flow.Sequence,4_117,2023-09-11T17:44:35.824Z,,0,,,2531.5439999999944,completion,,,,,false,,,,638234.3000000119,638234,635685.79,635698.400000006,635702.456,638236.027,8,400,,,
trial,html.Screen,4_118_0,2023-09-11T17:44:38.533Z,,0,3,,2706.3730000059586,response,ISIC_0262770.JPG,5,ISIC_1369967.JPG,ISIC_0262770.JPG,false,1,keypress(m),500,640942.900000006,640942.400000006,638219.361,638234.400000006,638236.027,640952.585,8,400,19,,ISIC_1369967.JPG
break,html.Screen,4_118_1,2023-09-11T17:44:38.534Z,,0,,,NaN,,,,,,false,,,,640943.900000006,640943.6000000238,,640943.1000000238,,640952.585,8,400,,,
break_continue,html.Screen,4_118_2,2023-09-11T17:44:38.534Z,,0,,,NaN,,,,,,false,,,,640944.2000000179,640944.1000000238,,640944,,640952.585,8,400,,,
sequence,flow.Sequence,4_118,2023-09-11T17:44:38.534Z,,0,,,2708.07300002384,completion,,,,,false,,,,640944.400000006,640944.1000000238,638219.361,638234.3000000119,638236.027,640952.585,8,400,,,
trial,html.Screen,4_119_0,2023-09-11T17:44:41.225Z,,0,3,,2682.015000023879,response,ISIC_0011139.JPG,9,ISIC_0057759.JPG,ISIC_0057759.JPG,false,0,keypress(z),500,643635.1000000238,643634.6000000238,640935.919,640944.6000000238,640952.585,643652.477,8,400,20,,ISIC_0011139.JPG
break,html.Screen,4_119_1,2023-09-11T17:44:41.226Z,,0,,,NaN,,,,,,false,,,,643636.1000000238,643635.900000006,,643635.400000006,,643652.477,8,400,,,
break_continue,html.Screen,4_119_2,2023-09-11T17:44:41.227Z,,0,,,NaN,,,,,,false,,,,643636.6000000238,643636.400000006,,643636.3000000119,,643652.477,8,400,,,
sequence,flow.Sequence,4_119,2023-09-11T17:44:41.227Z,,0,,,2683.8150000059977,completion,,,,,false,,,,643636.7000000179,643636.400000006,640935.919,640944.5,640952.585,643652.477,8,400,,,
trial,html.Screen,4_120_0,2023-09-11T17:44:44.000Z,,0,3,,2757.223000017926,response,ISIC_0009721.JPG,8,ISIC_8214287.JPG,ISIC_8214287.JPG,false,0,keypress(z),500,646410.2000000179,646409.7000000179,643635.811,643636.8000000119,643652.477,646419.033,8,400,21,,ISIC_0009721.JPG
break,html.Screen,4_120_1,2023-09-11T17:44:44.001Z,,0,,,NaN,,,,,,false,,,,646411.1000000238,646410.900000006,,646410.400000006,,646419.033,8,400,,,
break_continue,html.Screen,4_120_2,2023-09-11T17:44:44.002Z,,0,,,NaN,,,,,,false,,,,646411.5,646411.3000000119,,646411.2000000179,,646419.033,8,400,,,
sequence,flow.Sequence,4_120,2023-09-11T17:44:44.002Z,,0,,,2758.8230000119656,completion,,,,,false,,,,646411.7000000179,646411.3000000119,643635.811,643636.8000000119,643652.477,646419.033,8,400,,,
trial,html.Screen,4_121_0,2023-09-11T17:44:46.605Z,,0,3,,2595.3670000059064,response,ISIC_0033368.JPG,8,ISIC_0420777.JPG,ISIC_0033368.JPG,false,1,keypress(m),500,649014.8000000119,649014.400000006,646402.367,646411.8000000119,646419.033,649019.262,8,400,22,,ISIC_0420777.JPG
break,html.Screen,4_121_1,2023-09-11T17:44:46.606Z,,0,,,NaN,,,,,,false,,,,649015.900000006,649015.6000000238,,649015.1000000238,,649019.262,8,400,,,
break_continue,html.Screen,4_121_2,2023-09-11T17:44:46.606Z,,0,,,NaN,,,,,,false,,,,649016.2000000179,649016.1000000238,,649016,,649019.262,8,400,,,
sequence,flow.Sequence,4_121,2023-09-11T17:44:46.606Z,,0,,,2597.067000023788,completion,,,,,false,,,,649016.400000006,649016.1000000238,646402.367,646411.7000000179,646419.033,649019.262,8,400,,,
trial,html.Screen,4_122_0,2023-09-11T17:44:49.171Z,,0,3,,2561.738000000012,response,ISIC_0010729.JPG,8,ISIC_7973601.JPG,ISIC_7973601.JPG,false,0,keypress(z),500,651581.400000006,651581,649002.596,649016.5,649019.262,651585.826,8,400,23,,ISIC_0010729.JPG
break,html.Screen,4_122_1,2023-09-11T17:44:49.172Z,,0,,,NaN,,,,,,false,,,,651582.400000006,651582.1000000238,,651581.7000000179,,651585.826,8,400,,,
break_continue,html.Screen,4_122_2,2023-09-11T17:44:49.173Z,,0,,,NaN,,,,,,false,,,,651582.900000006,651582.7000000179,,651582.5,,651585.826,8,400,,,
sequence,flow.Sequence,4_122,2023-09-11T17:44:49.173Z,,0,,,2563.4380000178935,completion,,,,,false,,,,651583,651582.7000000179,649002.596,649016.400000006,649019.262,651585.826,8,400,,,
trial,html.Screen,4_123_0,2023-09-11T17:44:53.115Z,,0,3,,3938.47400001192,response,ISIC_1924949.JPG,8,ISIC_1074939.JPG,ISIC_1924949.JPG,false,1,keypress(m),500,655524.6000000238,655524.3000000119,651569.16,651583.1000000238,651585.826,655535.668,8,400,24,,ISIC_1074939.JPG
break,html.Screen,4_123_1,2023-09-11T17:44:53.116Z,,0,,,NaN,,,,,,false,,,,655525.6000000238,655525.5,,655524.900000006,,655535.668,8,400,,,
break_continue,html.Screen,4_123_2,2023-09-11T17:44:53.116Z,,0,,,NaN,,,,,,false,,,,655526,655525.900000006,,655525.8000000119,,655535.668,8,400,,,
sequence,flow.Sequence,4_123,2023-09-11T17:44:53.116Z,,0,,,3940.0740000059595,completion,,,,,false,,,,655526.2000000179,655525.900000006,651569.16,651583.1000000238,651585.826,655535.668,8,400,,,
trial,html.Screen,4_124_0,2023-09-11T17:44:56.081Z,,0,3,,2954.632000011974,response,ISIC_0033998.JPG,7,ISIC_8516223.JPG,ISIC_8516223.JPG,false,0,keypress(z),500,658490.7000000179,658490.3000000119,655519.002,655526.400000006,655535.668,658502.545,8,400,25,,ISIC_0033998.JPG
break,html.Screen,4_124_1,2023-09-11T17:44:56.082Z,,0,,,NaN,,,,,,false,,,,658491.8000000119,658491.400000006,,658490.900000006,,658502.545,8,400,,,
break_continue,html.Screen,4_124_2,2023-09-11T17:44:56.082Z,,0,,,NaN,,,,,,false,,,,658492.400000006,658492.1000000238,,658492,,658502.545,8,400,,,
sequence,flow.Sequence,4_124,2023-09-11T17:44:56.083Z,,0,,,2956.432000023895,completion,,,,,false,,,,658492.6000000238,658492.1000000238,655519.002,655526.400000006,655535.668,658502.545,8,400,,,
trial,html.Screen,4_125_0,2023-09-11T17:44:59.208Z,,0,3,,3114.755000011879,response,ISIC_4927943.JPG,7,ISIC_4116224.JPG,ISIC_4116224.JPG,false,0,keypress(z),500,661617.7000000179,661617.3000000119,658485.879,658492.7000000179,658502.545,661635.753,8,400,26,,ISIC_4927943.JPG
break,html.Screen,4_125_1,2023-09-11T17:44:59.209Z,,0,,,NaN,,,,,,false,,,,661618.6000000238,661618.400000006,,661617.900000006,,661635.753,8,400,,,
break_continue,html.Screen,4_125_2,2023-09-11T17:44:59.209Z,,0,,,NaN,,,,,,false,,,,661618.900000006,661618.900000006,,661618.7000000179,,661635.753,8,400,,,
sequence,flow.Sequence,4_125,2023-09-11T17:44:59.209Z,,0,,,3116.3550000059186,completion,,,,,false,,,,661619.3000000119,661618.900000006,658485.879,658492.7000000179,658502.545,661635.753,8,400,,,
