sender,sender_type,sender_id,timestamp,meta,,blockNo,condition,duration,ended_on,img_left,img_reveal,img_right,loser,practice,response,response_action,selection_duration,time_commit,time_end,time_render,time_run,time_show,time_switch,total_blocks,total_trials,trialNo,url,winner
informed_consent,html.Screen,0,2023-11-01T17:52:45.653Z,"{""labjs_version"":""20.2.4"",""labjs_build"":{""flavor"":""production"",""commit"":""f5b4a49f956347addd546a832a3327688c2c0fef""},""location"":""https://run.pavlovia.org/MurrayBennett/melanoma-2afc/?participant=66247&platform=sona"",""userAgent"":""Mozilla/5.0 (Windows NT 10.0; Win64; x64) AppleWebKit/537.36 (KHTML, like Gecko) Chrome/118.0.0.0 Safari/537.36"",""platform"":""Win32"",""language"":""en-US"",""locale"":""en-US"",""timeZone"":""America/Chicago"",""timezoneOffset"":300,""screen_width"":1504,""screen_height"":1003,""scroll_width"":1504,""scroll_height"":786,""window_innerWidth"":1504,""window_innerHeight"":834,""devicePixelRatio"":1.5}",,,,2417.684000000001,response,,,,,,consent,click button,,29009,29006.5,26572.296,3462.699999809265,26588.816,29031.269,,,,"{""participant"":""66247"",""platform"":""sona""}",
Welcome,html.Screen,1,2023-11-01T17:52:46.991Z,,,,colourful,1313.6309998569486,response,,,,,,continue,click button,,30346.89999985695,30344.89999985695,28997.877,29009.299999952316,29031.269,30373.673,,,,,
trial,html.Screen,2_0_0,2023-11-01T17:52:58.509Z,,0,0,,11523.093000000004,timeout,ISIC_0063388.JPG,,ISIC_0025593.JPG,,true,,,500,41865.199999809265,41864.799999952316,30357.081,30347.199999809265,30373.673,41896.766,1,6,1,,
sequence,flow.Sequence,2_0,2023-11-01T17:52:58.510Z,,0,,,11491.126999952317,completion,,,,,true,,,,41865.59999990463,41864.799999952316,30357.081,30347.199999809265,30373.673,41896.766,1,6,,,
trial,html.Screen,2_1_0,2023-11-01T17:53:10.024Z,,0,0,,11532.072,timeout,ISIC_0028178.JPG,,ISIC_1309015.JPG,,true,,,500,53380,53379.699999809265,41880.038,41865.799999952316,41896.766,53428.838,1,6,2,,
sequence,flow.Sequence,2_1,2023-11-01T17:53:10.025Z,,0,,,11482.933999809262,completion,,,,,true,,,,53380.39999985695,53379.699999809265,41880.038,41865.699999809265,41896.766,53428.838,1,6,,,
trial,html.Screen,2_2_0,2023-11-01T17:53:21.558Z,,0,0,,11517.530999999995,timeout,ISIC_3314853.JPG,,ISIC_0031128.JPG,,true,,,500,64914.09999990463,64913.799999952316,53395.64,53380.699999809265,53428.838,64946.369,1,6,3,,
sequence,flow.Sequence,2_2,2023-11-01T17:53:21.559Z,,0,,,11484.961999952313,completion,,,,,true,,,,64914.299999952316,64913.799999952316,53395.64,53380.5,53428.838,64946.369,1,6,,,
trial,html.Screen,2_3_0,2023-11-01T17:53:33.078Z,,0,0,,11519.587999999996,timeout,ISIC_8980141.JPG,,ISIC_0031612.JPG,,true,,,500,76433.29999995232,76433.09999990463,64929.619,64914.5,64946.369,76465.957,1,6,4,,
sequence,flow.Sequence,2_3,2023-11-01T17:53:33.078Z,,0,,,11486.730999904634,completion,,,,,true,,,,76433.59999990463,76433.09999990463,64929.619,64914.5,64946.369,76465.957,1,6,,,
trial,html.Screen,2_4_0,2023-11-01T17:53:44.572Z,,0,0,,11527.015,timeout,ISIC_9721604.JPG,,ISIC_1197737.JPG,,true,,,500,87927.69999980927,87927.5,76449.157,76433.79999995232,76465.957,87992.972,1,6,5,,
sequence,flow.Sequence,2_4,2023-11-01T17:53:44.572Z,,0,,,11461.543000000005,completion,,,,,true,,,,87928,87927.5,76449.157,76433.69999980927,76465.957,87992.972,1,6,,,
trial,html.Screen,2_5_0,2023-11-01T17:53:56.113Z,,0,0,,11524.409,timeout,ISIC_0025346.JPG,,ISIC_0010681.JPG,,true,,,500,99468.5,99468.29999995232,87959.958,87928.19999980927,87992.972,99517.381,1,6,6,,
sequence,flow.Sequence,2_5,2023-11-01T17:53:56.113Z,,0,,,11475.327999952322,completion,,,,,true,,,,99468.69999980927,99468.29999995232,87959.958,87928,87992.972,99517.381,1,6,,,
loop,flow.Loop,2,2023-11-01T17:53:56.113Z,,,,,69094.62699995232,completion,,,,,true,,,,99468.89999985695,99468.29999995232,30357.081,30347.099999904633,30373.673,99517.381,1,6,,,
exp_instructions,html.Screen,3,2023-11-01T17:53:58.802Z,,,,,2636.7189999046386,response,,,,,,continue,keypress(Space),,102157.79999995232,102154.09999990463,99483.556,99469,99517.381,102178.865,,,,,
trial,html.Screen,4_0_0,2023-11-01T17:54:09.241Z,,0,1,,10417.83499980926,response,ISIC_0066358.JPG,12,ISIC_1280780.JPG,ISIC_0066358.JPG,false,1,keypress(m),500,112597,112596.69999980927,102145.392,102158.09999990463,102178.865,112621.342,8,400,1,,ISIC_1280780.JPG
break,html.Screen,4_0_1,2023-11-01T17:54:09.243Z,,0,,,NaN,,,,,,false,,,,112598.69999980927,112598.39999985695,,112597.19999980927,,112621.342,8,400,,,
break_continue,html.Screen,4_0_2,2023-11-01T17:54:09.243Z,,0,,,NaN,,,,,,false,,,,112599.09999990463,112599.09999990463,,112598.89999985695,,112621.342,8,400,,,
sequence,flow.Sequence,4_0,2023-11-01T17:54:09.244Z,,0,,,10420.234999904627,completion,,,,,false,,,,112599.39999985695,112599.09999990463,102145.392,102158.09999990463,102178.865,112621.342,8,400,,,
trial,html.Screen,4_1_0,2023-11-01T17:54:14.350Z,,0,1,,5084.357999809261,response,ISIC_7080584.JPG,8,ISIC_3289574.JPG,ISIC_3289574.JPG,false,0,keypress(z),500,117706,117705.69999980927,112586.291,112599.5,112621.342,117730.429,8,400,2,,ISIC_7080584.JPG
break,html.Screen,4_1_1,2023-11-01T17:54:14.352Z,,0,,,NaN,,,,,,false,,,,117707.39999985695,117706.69999980927,,117706.19999980927,,117730.429,8,400,,,
break_continue,html.Screen,4_1_2,2023-11-01T17:54:14.352Z,,0,,,NaN,,,,,,false,,,,117707.79999995232,117707.69999980927,,117707.59999990463,,117730.429,8,400,,,
sequence,flow.Sequence,4_1,2023-11-01T17:54:14.352Z,,0,,,5086.357999809261,completion,,,,,false,,,,117708,117707.69999980927,112586.291,112599.39999985695,112621.342,117730.429,8,400,,,
trial,html.Screen,4_2_0,2023-11-01T17:54:20.003Z,,0,1,,5628.070999999996,response,ISIC_0030360.JPG,12,ISIC_0070747.JPG,ISIC_0030360.JPG,false,1,keypress(m),500,123358.79999995232,123358.5,117704.963,117708,117730.429,123382.305,8,400,3,,ISIC_0070747.JPG
break,html.Screen,4_2_1,2023-11-01T17:54:20.004Z,,0,,,NaN,,,,,,false,,,,123360.19999980927,123359.5,,123359.09999990463,,123382.305,8,400,,,
break_continue,html.Screen,4_2_2,2023-11-01T17:54:20.005Z,,0,,,NaN,,,,,,false,,,,123360.69999980927,123360.59999990463,,123360.39999985695,,123382.305,8,400,,,
sequence,flow.Sequence,4_2,2023-11-01T17:54:20.005Z,,0,,,5630.170999904629,completion,,,,,false,,,,123360.79999995232,123360.59999990463,117704.963,117708,117730.429,123382.305,8,400,,,
trial,html.Screen,4_3_0,2023-11-01T17:54:26.763Z,,0,1,,6736.594999856956,response,ISIC_5576250.JPG,6,ISIC_0011626.JPG,ISIC_5576250.JPG,false,1,keypress(m),500,130119.19999980927,130118.89999985695,123345.795,123360.89999985695,123382.305,130154.488,8,400,4,,ISIC_0011626.JPG
break,html.Screen,4_3_1,2023-11-01T17:54:26.764Z,,0,,,NaN,,,,,,false,,,,130120.19999980927,130119.89999985695,,130119.29999995232,,130154.488,8,400,,,
break_continue,html.Screen,4_3_2,2023-11-01T17:54:26.765Z,,0,,,NaN,,,,,,false,,,,130120.5,130120.39999985695,,130120.29999995232,,130154.488,8,400,,,
sequence,flow.Sequence,4_3,2023-11-01T17:54:26.765Z,,0,,,6738.094999856956,completion,,,,,false,,,,130120.69999980927,130120.39999985695,123345.795,123360.89999985695,123382.305,130154.488,8,400,,,
trial,html.Screen,4_4_0,2023-11-01T17:54:30.613Z,,0,1,,3813.7119998092676,response,ISIC_5988539.JPG,9,ISIC_0030255.JPG,ISIC_0030255.JPG,false,0,keypress(z),500,133968.5,133968.19999980927,130118.318,130120.69999980927,130154.488,133992.496,8,400,5,,ISIC_5988539.JPG
break,html.Screen,4_4_1,2023-11-01T17:54:30.614Z,,0,,,NaN,,,,,,false,,,,133970.19999980927,133969.29999995232,,133968.79999995232,,133992.496,8,400,,,
break_continue,html.Screen,4_4_2,2023-11-01T17:54:30.615Z,,0,,,NaN,,,,,,false,,,,133970.5,133970.39999985695,,133970.19999980927,,133992.496,8,400,,,
sequence,flow.Sequence,4_4,2023-11-01T17:54:30.615Z,,0,,,3815.9119998569513,completion,,,,,false,,,,133970.59999990463,133970.39999985695,130118.318,130120.69999980927,130154.488,133992.496,8,400,,,
trial,html.Screen,4_5_0,2023-11-01T17:54:34.730Z,,0,1,,4092.8039999523025,response,ISIC_0056534.JPG,7,ISIC_0010767.JPG,ISIC_0056534.JPG,false,1,keypress(m),500,138085.5,138085.29999995232,133966.826,133970.79999995232,133992.496,138109.384,8,400,6,,ISIC_0010767.JPG
break,html.Screen,4_5_1,2023-11-01T17:54:34.731Z,,0,,,NaN,,,,,,false,,,,138086.5,138086.19999980927,,138085.69999980927,,138109.384,8,400,,,
break_continue,html.Screen,4_5_2,2023-11-01T17:54:34.731Z,,0,,,NaN,,,,,,false,,,,138086.89999985695,138086.69999980927,,138086.69999980927,,138109.384,8,400,,,
sequence,flow.Sequence,4_5,2023-11-01T17:54:34.731Z,,0,,,4094.2039998092514,completion,,,,,false,,,,138087,138086.69999980927,133966.826,133970.79999995232,133992.496,138109.384,8,400,,,
trial,html.Screen,4_6_0,2023-11-01T17:54:38.317Z,,0,1,,3563.515999856958,response,ISIC_0066379.JPG,5,ISIC_0002774.JPG,ISIC_0002774.JPG,false,0,keypress(z),500,141673.09999990463,141672.89999985695,138073.515,138087.09999990463,138109.384,141697.461,8,400,7,,ISIC_0066379.JPG
break,html.Screen,4_6_1,2023-11-01T17:54:38.319Z,,0,,,NaN,,,,,,false,,,,141674.59999990463,141673.79999995232,,141673.29999995232,,141697.461,8,400,,,
break_continue,html.Screen,4_6_2,2023-11-01T17:54:38.319Z,,0,,,NaN,,,,,,false,,,,141675,141674.89999985695,,141674.69999980927,,141697.461,8,400,,,
sequence,flow.Sequence,4_6,2023-11-01T17:54:38.319Z,,0,,,3565.515999856958,completion,,,,,false,,,,141675.19999980927,141674.89999985695,138073.515,138087.09999990463,138109.384,141697.461,8,400,,,
trial,html.Screen,4_7_0,2023-11-01T17:54:42.337Z,,0,1,,3995.5389999999898,response,ISIC_0027061.JPG,9,ISIC_0002900.JPG,ISIC_0027061.JPG,false,1,keypress(m),500,145693.19999980927,145693,141666.449,141675.19999980927,141697.461,145728.455,8,400,8,,ISIC_0002900.JPG
break,html.Screen,4_7_1,2023-11-01T17:54:42.338Z,,0,,,NaN,,,,,,false,,,,145694.19999980927,145693.89999985695,,145693.39999985695,,145728.455,8,400,,,
break_continue,html.Screen,4_7_2,2023-11-01T17:54:42.339Z,,0,,,NaN,,,,,,false,,,,145694.39999985695,145694.39999985695,,145694.19999980927,,145728.455,8,400,,,
sequence,flow.Sequence,4_7,2023-11-01T17:54:42.339Z,,0,,,3996.9389998569386,completion,,,,,false,,,,145694.59999990463,145694.39999985695,141666.449,141675.19999980927,141697.461,145728.455,8,400,,,
trial,html.Screen,4_8_0,2023-11-01T17:54:46.776Z,,0,1,,4403.545000000013,response,ISIC_0759561.JPG,5,ISIC_9203914.JPG,ISIC_9203914.JPG,false,0,keypress(z),500,150132.19999980927,150132,145693.515,145694.79999995232,145728.455,150156.787,8,400,9,,ISIC_0759561.JPG
break,html.Screen,4_8_1,2023-11-01T17:54:46.778Z,,0,,,NaN,,,,,,false,,,,150133.69999980927,150132.89999985695,,150132.5,,150156.787,8,400,,,
break_continue,html.Screen,4_8_2,2023-11-01T17:54:46.778Z,,0,,,NaN,,,,,,false,,,,150134,150133.89999985695,,150133.79999995232,,150156.787,8,400,,,
sequence,flow.Sequence,4_8,2023-11-01T17:54:46.778Z,,0,,,4405.444999856962,completion,,,,,false,,,,150134.09999990463,150133.89999985695,145693.515,145694.69999980927,145728.455,150156.787,8,400,,,
trial,html.Screen,4_9_0,2023-11-01T17:54:58.283Z,,0,1,,11513.589999999997,timeout,ISIC_0032892.JPG,8,ISIC_0027590.JPG,,false,,,500,161638.5,161638.29999995232,150130.366,150134.19999980927,150156.787,161670.377,8,400,10,,
break,html.Screen,4_9_1,2023-11-01T17:54:58.284Z,,0,,,NaN,,,,,,false,,,,161639.39999985695,161639.19999980927,,161638.69999980927,,161670.377,8,400,,,
break_continue,html.Screen,4_9_2,2023-11-01T17:54:58.284Z,,0,,,NaN,,,,,,false,,,,161639.89999985695,161639.69999980927,,161639.5,,161670.377,8,400,,,
sequence,flow.Sequence,4_9,2023-11-01T17:54:58.284Z,,0,,,11482.912999809254,completion,,,,,false,,,,161640,161639.69999980927,150130.366,150134.19999980927,150156.787,161670.377,8,400,,,
trial,html.Screen,4_10_0,2023-11-01T17:55:09.802Z,,0,1,,11520.565999999992,timeout,ISIC_1985569.JPG,9,ISIC_0025779.JPG,,false,,,500,173158,173157.59999990463,161653.695,161640.09999990463,161670.377,173190.943,8,400,11,,
break,html.Screen,4_10_1,2023-11-01T17:55:09.803Z,,0,,,NaN,,,,,,false,,,,173158.89999985695,173158.69999980927,,173158.19999980927,,173190.943,8,400,,,
break_continue,html.Screen,4_10_2,2023-11-01T17:55:09.804Z,,0,,,NaN,,,,,,false,,,,173159.5,173159.29999995232,,173159.09999990463,,173190.943,8,400,,,
sequence,flow.Sequence,4_10,2023-11-01T17:55:09.804Z,,0,,,11488.922999952309,completion,,,,,false,,,,173159.69999980927,173159.29999995232,161653.695,161640.09999990463,161670.377,173190.943,8,400,,,
trial,html.Screen,4_11_0,2023-11-01T17:55:21.327Z,,0,1,,11525.016999999993,timeout,ISIC_0005248.JPG,6,ISIC_6839272.JPG,,false,,,500,184682.89999985695,184682.59999990463,173173.809,173159.89999985695,173190.943,184715.96,8,400,12,,
break,html.Screen,4_11_1,2023-11-01T17:55:21.328Z,,0,,,NaN,,,,,,false,,,,184683.69999980927,184683.5,,184683.09999990463,,184715.96,8,400,,,
break_continue,html.Screen,4_11_2,2023-11-01T17:55:21.328Z,,0,,,NaN,,,,,,false,,,,184684.09999990463,184683.89999985695,,184683.79999995232,,184715.96,8,400,,,
sequence,flow.Sequence,4_11,2023-11-01T17:55:21.328Z,,0,,,11492.95699985695,completion,,,,,false,,,,184684.19999980927,184683.89999985695,173173.809,173159.79999995232,173190.943,184715.96,8,400,,,
trial,html.Screen,4_12_0,2023-11-01T17:55:26.660Z,,0,1,,5299.339999952324,response,ISIC_8194835.JPG,10,ISIC_0031586.JPG,ISIC_8194835.JPG,false,1,keypress(m),500,190015.5,190015.29999995232,184698.821,184684.29999995232,184715.96,190039.444,8,400,13,,ISIC_0031586.JPG
break,html.Screen,4_12_1,2023-11-01T17:55:26.661Z,,0,,,NaN,,,,,,false,,,,190016.5,190016.29999995232,,190015.79999995232,,190039.444,8,400,,,
break_continue,html.Screen,4_12_2,2023-11-01T17:55:26.661Z,,0,,,NaN,,,,,,false,,,,190016.89999985695,190016.79999995232,,190016.69999980927,,190039.444,8,400,,,
sequence,flow.Sequence,4_12,2023-11-01T17:55:26.661Z,,0,,,5300.839999952324,completion,,,,,false,,,,190017.09999990463,190016.79999995232,184698.821,184684.29999995232,184715.96,190039.444,8,400,,,
trial,html.Screen,4_13_0,2023-11-01T17:55:31.546Z,,0,1,,4862.155999904644,response,ISIC_0027193.JPG,7,ISIC_0029205.JPG,ISIC_0029205.JPG,false,0,keypress(z),500,194901.69999980927,194901.59999990463,190008.527,190017.29999995232,190039.444,194925.907,8,400,14,,ISIC_0027193.JPG
break,html.Screen,4_13_1,2023-11-01T17:55:31.548Z,,0,,,NaN,,,,,,false,,,,194903.19999980927,194902.5,,194902,,194925.907,8,400,,,
break_continue,html.Screen,4_13_2,2023-11-01T17:55:31.548Z,,0,,,NaN,,,,,,false,,,,194903.59999990463,194903.39999985695,,194903.29999995232,,194925.907,8,400,,,
sequence,flow.Sequence,4_13,2023-11-01T17:55:31.548Z,,0,,,4863.95599985696,completion,,,,,false,,,,194903.69999980927,194903.39999985695,190008.527,190017.19999980927,190039.444,194925.907,8,400,,,
trial,html.Screen,4_14_0,2023-11-01T17:55:41.555Z,,0,1,,9984.992999856942,response,ISIC_0070412.JPG,4,ISIC_0010251.JPG,ISIC_0010251.JPG,false,0,keypress(z),500,204911,204910.89999985695,194899.645,194903.79999995232,194925.907,204947.09,8,400,15,,ISIC_0070412.JPG
break,html.Screen,4_14_1,2023-11-01T17:55:41.556Z,,0,,,NaN,,,,,,false,,,,204912,204911.69999980927,,204911.29999995232,,204947.09,8,400,,,
break_continue,html.Screen,4_14_2,2023-11-01T17:55:41.557Z,,0,,,NaN,,,,,,false,,,,204912.29999995232,204912.09999990463,,204912,,204947.09,8,400,,,
sequence,flow.Sequence,4_14,2023-11-01T17:55:41.557Z,,0,,,9986.192999904626,completion,,,,,false,,,,204912.39999985695,204912.09999990463,194899.645,194903.79999995232,194925.907,204947.09,8,400,,,
trial,html.Screen,4_15_0,2023-11-01T17:55:45.100Z,,0,1,,3508.20999995232,response,ISIC_4108397.JPG,7,ISIC_6856140.JPG,ISIC_4108397.JPG,false,1,keypress(m),500,208455.5,208455.29999995232,204913.467,204912.5,204947.09,208479.575,8,400,16,,ISIC_6856140.JPG
break,html.Screen,4_15_1,2023-11-01T17:55:45.101Z,,0,,,NaN,,,,,,false,,,,208456.39999985695,208456.09999990463,,208455.69999980927,,208479.575,8,400,,,
break_continue,html.Screen,4_15_2,2023-11-01T17:55:45.101Z,,0,,,NaN,,,,,,false,,,,208456.79999995232,208456.59999990463,,208456.59999990463,,208479.575,8,400,,,
sequence,flow.Sequence,4_15,2023-11-01T17:55:45.101Z,,0,,,3509.509999904636,completion,,,,,false,,,,208456.89999985695,208456.59999990463,204913.467,204912.5,204947.09,208479.575,8,400,,,
trial,html.Screen,4_16_0,2023-11-01T17:55:50.352Z,,0,1,,5227.724999952305,response,ISIC_6478506.JPG,7,ISIC_9699426.JPG,ISIC_9699426.JPG,false,0,keypress(z),500,213707.5,213707.29999995232,208447.16,208457.09999990463,208479.575,213731.385,8,400,17,,ISIC_6478506.JPG
break,html.Screen,4_16_1,2023-11-01T17:55:50.353Z,,0,,,NaN,,,,,,false,,,,213709,213708.19999980927,,213707.69999980927,,213731.385,8,400,,,
break_continue,html.Screen,4_16_2,2023-11-01T17:55:50.354Z,,0,,,NaN,,,,,,false,,,,213709.29999995232,213709.19999980927,,213709,,213731.385,8,400,,,
sequence,flow.Sequence,4_16,2023-11-01T17:55:50.354Z,,0,,,5229.6249998092535,completion,,,,,false,,,,213709.39999985695,213709.19999980927,208447.16,208457.09999990463,208479.575,213731.385,8,400,,,
trial,html.Screen,4_17_0,2023-11-01T17:55:55.222Z,,0,1,,4846.0149998569395,response,ISIC_0011964.JPG,5,ISIC_3520591.JPG,ISIC_0011964.JPG,false,1,keypress(m),500,218577.59999990463,218577.39999985695,213692.396,213709.5,213731.385,218593.46,8,400,18,,ISIC_3520591.JPG
break,html.Screen,4_17_1,2023-11-01T17:55:55.223Z,,0,,,NaN,,,,,,false,,,,218578.59999990463,218578.29999995232,,218577.89999985695,,218593.46,8,400,,,
break_continue,html.Screen,4_17_2,2023-11-01T17:55:55.224Z,,0,,,NaN,,,,,,false,,,,218580.09999990463,218578.79999995232,,218578.69999980927,,218593.46,8,400,,,
sequence,flow.Sequence,4_17,2023-11-01T17:55:55.225Z,,0,,,4847.414999952307,completion,,,,,false,,,,218580.29999995232,218578.79999995232,213692.396,213709.5,213731.385,218593.46,8,400,,,
trial,html.Screen,4_18_0,2023-11-01T17:55:58.734Z,,0,1,,3495.7399998092733,response,ISIC_6324832.JPG,13,ISIC_4613437.JPG,ISIC_4613437.JPG,false,0,keypress(z),500,222089.5,222089.19999980927,218576.745,218580.39999985695,218593.46,222113.114,8,400,19,,ISIC_6324832.JPG
break,html.Screen,4_18_1,2023-11-01T17:55:58.735Z,,0,,,NaN,,,,,,false,,,,222091,222090.29999995232,,222089.69999980927,,222113.114,8,400,,,
break_continue,html.Screen,4_18_2,2023-11-01T17:55:58.736Z,,0,,,NaN,,,,,,false,,,,222091.29999995232,222091.19999980927,,222091.09999990463,,222113.114,8,400,,,
sequence,flow.Sequence,4_18,2023-11-01T17:55:58.736Z,,0,,,3497.7399998092733,completion,,,,,false,,,,222091.39999985695,222091.19999980927,218576.745,218580.39999985695,218593.46,222113.114,8,400,,,
trial,html.Screen,4_19_0,2023-11-01T17:56:03.092Z,,0,1,,4333.985999904631,response,ISIC_0207268.JPG,5,ISIC_4691689.JPG,ISIC_4691689.JPG,false,0,keypress(z),500,226447.29999995232,226447.09999990463,222086.331,222091.5,222113.114,226471.405,8,400,20,,ISIC_0207268.JPG
break,html.Screen,4_19_1,2023-11-01T17:56:03.093Z,,0,,,NaN,,,,,,false,,,,226448.79999995232,226448.09999990463,,226447.59999990463,,226471.405,8,400,,,
break_continue,html.Screen,4_19_2,2023-11-01T17:56:03.093Z,,0,,,NaN,,,,,,false,,,,226449.09999990463,226449,,226448.89999985695,,226471.405,8,400,,,
sequence,flow.Sequence,4_19,2023-11-01T17:56:03.094Z,,0,,,4335.885999999999,completion,,,,,false,,,,226449.29999995232,226449,222086.331,222091.5,222113.114,226471.405,8,400,,,
trial,html.Screen,4_20_0,2023-11-01T17:56:06.695Z,,0,1,,3579.49499985695,response,ISIC_0057155.JPG,6,ISIC_2141003.JPG,ISIC_2141003.JPG,false,0,keypress(z),500,230051.19999980927,230050.89999985695,226445.63,226449.39999985695,226471.405,230075.749,8,400,21,,ISIC_0057155.JPG
break,html.Screen,4_20_1,2023-11-01T17:56:06.696Z,,0,,,NaN,,,,,,false,,,,230052.09999990463,230051.79999995232,,230051.39999985695,,230075.749,8,400,,,
break_continue,html.Screen,4_20_2,2023-11-01T17:56:06.697Z,,0,,,NaN,,,,,,false,,,,230052.39999985695,230052.29999995232,,230052.19999980927,,230075.749,8,400,,,
sequence,flow.Sequence,4_20,2023-11-01T17:56:06.697Z,,0,,,3580.8949999523174,completion,,,,,false,,,,230052.59999990463,230052.29999995232,226445.63,226449.29999995232,226471.405,230075.749,8,400,,,
trial,html.Screen,4_21_0,2023-11-01T17:56:10.018Z,,0,1,,3297.5509999523056,response,ISIC_8140072.JPG,7,ISIC_8872225.JPG,ISIC_8140072.JPG,false,1,keypress(m),500,233373.5,233373.29999995232,230044.285,230052.69999980927,230075.749,233397.793,8,400,22,,ISIC_8872225.JPG
break,html.Screen,4_21_1,2023-11-01T17:56:10.019Z,,0,,,NaN,,,,,,false,,,,233374.5,233374.19999980927,,233373.79999995232,,233397.793,8,400,,,
break_continue,html.Screen,4_21_2,2023-11-01T17:56:10.019Z,,0,,,NaN,,,,,,false,,,,233374.89999985695,233374.79999995232,,233374.59999990463,,233397.793,8,400,,,
sequence,flow.Sequence,4_21,2023-11-01T17:56:10.019Z,,0,,,3299.0509999523056,completion,,,,,false,,,,233375,233374.79999995232,230044.285,230052.59999990463,230075.749,233397.793,8,400,,,
trial,html.Screen,4_22_0,2023-11-01T17:56:13.195Z,,0,1,,3153.1069998569437,response,ISIC_0030725.JPG,5,ISIC_2245709.JPG,ISIC_0030725.JPG,false,1,keypress(m),500,236551.19999980927,236550.89999985695,233374.057,233375.19999980927,233397.793,236559.326,8,400,23,,ISIC_2245709.JPG
break,html.Screen,4_22_1,2023-11-01T17:56:13.196Z,,0,,,NaN,,,,,,false,,,,236552.09999990463,236551.79999995232,,236551.29999995232,,236559.326,8,400,,,
break_continue,html.Screen,4_22_2,2023-11-01T17:56:13.197Z,,0,,,NaN,,,,,,false,,,,236552.39999985695,236552.29999995232,,236552.19999980927,,236559.326,8,400,,,
sequence,flow.Sequence,4_22,2023-11-01T17:56:13.197Z,,0,,,3154.506999952311,completion,,,,,false,,,,236552.5,236552.29999995232,233374.057,233375.09999990463,233397.793,236559.326,8,400,,,
trial,html.Screen,4_23_0,2023-11-01T17:56:16.194Z,,0,1,,2989.673999999999,response,ISIC_2021321.JPG,13,ISIC_0033117.JPG,ISIC_2021321.JPG,false,1,keypress(m),500,239549.29999995232,239549,236542.98,236552.59999990463,236559.326,239573.023,8,400,24,,ISIC_0033117.JPG
break,html.Screen,4_23_1,2023-11-01T17:56:16.195Z,,0,,,NaN,,,,,,false,,,,239550.79999995232,239550,,239549.39999985695,,239573.023,8,400,,,
break_continue,html.Screen,4_23_2,2023-11-01T17:56:16.195Z,,0,,,NaN,,,,,,false,,,,239551,239551,,239550.89999985695,,239573.023,8,400,,,
sequence,flow.Sequence,4_23,2023-11-01T17:56:16.196Z,,0,,,2991.673999999999,completion,,,,,false,,,,239551.29999995232,239551,236542.98,236552.59999990463,236559.326,239573.023,8,400,,,
trial,html.Screen,4_24_0,2023-11-01T17:56:19.095Z,,0,1,,2877.8769998569624,response,ISIC_3213469.JPG,12,ISIC_0071916.JPG,ISIC_0071916.JPG,false,0,keypress(z),500,242451.19999980927,242450.89999985695,239538.875,239551.29999995232,239573.023,242476.076,8,400,25,,ISIC_3213469.JPG
break,html.Screen,4_24_1,2023-11-01T17:56:19.096Z,,0,,,NaN,,,,,,false,,,,242452.29999995232,242451.89999985695,,242451.5,,242476.076,8,400,,,
break_continue,html.Screen,4_24_2,2023-11-01T17:56:19.097Z,,0,,,NaN,,,,,,false,,,,242452.59999990463,242452.5,,242452.39999985695,,242476.076,8,400,,,
sequence,flow.Sequence,4_24,2023-11-01T17:56:19.097Z,,0,,,2879.4770000000135,completion,,,,,false,,,,242452.79999995232,242452.5,239538.875,239551.29999995232,239573.023,242476.076,8,400,,,
trial,html.Screen,4_25_0,2023-11-01T17:56:23.360Z,,0,1,,4239.623999809264,response,ISIC_0063958.JPG,11,ISIC_0065796.JPG,ISIC_0065796.JPG,false,0,keypress(z),500,246715.89999985695,246715.69999980927,242437.86,242452.89999985695,242476.076,246740.252,8,400,26,,ISIC_0063958.JPG
break,html.Screen,4_25_1,2023-11-01T17:56:23.361Z,,0,,,NaN,,,,,,false,,,,246717.29999995232,246716.59999990463,,246716.09999990463,,246740.252,8,400,,,
break_continue,html.Screen,4_25_2,2023-11-01T17:56:23.362Z,,0,,,NaN,,,,,,false,,,,246717.69999980927,246717.5,,246717.39999985695,,246740.252,8,400,,,
sequence,flow.Sequence,4_25,2023-11-01T17:56:23.362Z,,0,,,4241.423999999999,completion,,,,,false,,,,246717.79999995232,246717.5,242437.86,242452.89999985695,242476.076,246740.252,8,400,,,
trial,html.Screen,4_26_0,2023-11-01T17:56:34.861Z,,0,1,,11508.427999999985,timeout,ISIC_6400714.JPG,10,ISIC_7477006.JPG,,false,,,500,258216.69999980927,258216.5,246708.885,246717.89999985695,246740.252,258248.68,8,400,27,,
break,html.Screen,4_26_1,2023-11-01T17:56:34.862Z,,0,,,NaN,,,,,,false,,,,258217.39999985695,258217.19999980927,,258216.79999995232,,258248.68,8,400,,,
break_continue,html.Screen,4_26_2,2023-11-01T17:56:34.862Z,,0,,,NaN,,,,,,false,,,,258217.79999995232,258217.79999995232,,258217.59999990463,,258248.68,8,400,,,
sequence,flow.Sequence,4_26,2023-11-01T17:56:34.862Z,,0,,,11477.547999952309,completion,,,,,false,,,,258218,258217.79999995232,246708.885,246717.79999995232,246740.252,258248.68,8,400,,,
trial,html.Screen,4_27_0,2023-11-01T17:56:45.283Z,,0,1,,10389.91999990464,response,ISIC_3564136.JPG,9,ISIC_0007808.JPG,ISIC_0007808.JPG,false,0,keypress(z),500,268638.7999999523,268638.59999990463,258231.95,258218,258248.68,268662.888,8,400,28,,ISIC_3564136.JPG
break,html.Screen,4_27_1,2023-11-01T17:56:45.284Z,,0,,,NaN,,,,,,false,,,,268640.2999999523,268639.59999990463,,268639,,268662.888,8,400,,,
break_continue,html.Screen,4_27_2,2023-11-01T17:56:45.285Z,,0,,,NaN,,,,,,false,,,,268640.69999980927,268640.5,,268640.39999985695,,268662.888,8,400,,,
sequence,flow.Sequence,4_27,2023-11-01T17:56:45.285Z,,0,,,10391.820000000007,completion,,,,,false,,,,268640.69999980927,268640.5,258231.95,258218,258248.68,268662.888,8,400,,,
trial,html.Screen,4_28_0,2023-11-01T17:56:48.825Z,,0,1,,3518.112000000023,response,ISIC_5237059.JPG,7,ISIC_5298216.JPG,ISIC_5237059.JPG,false,1,keypress(m),500,272181.19999980927,272181,268629.86,268640.7999999523,268662.888,272205.327,8,400,29,,ISIC_5298216.JPG
break,html.Screen,4_28_1,2023-11-01T17:56:48.827Z,,0,,,NaN,,,,,,false,,,,272182.5,272181.89999985695,,272181.39999985695,,272205.327,8,400,,,
break_continue,html.Screen,4_28_2,2023-11-01T17:56:48.827Z,,0,,,NaN,,,,,,false,,,,272182.89999985695,272182.7999999523,,272182.69999980927,,272205.327,8,400,,,
sequence,flow.Sequence,4_28,2023-11-01T17:56:48.827Z,,0,,,3519.911999952339,completion,,,,,false,,,,272183.09999990463,272182.7999999523,268629.86,268640.7999999523,268662.888,272205.327,8,400,,,
trial,html.Screen,4_29_0,2023-11-01T17:56:52.029Z,,0,1,,3179.5729998569586,response,ISIC_0068126.JPG,10,ISIC_0012706.JPG,ISIC_0012706.JPG,false,0,keypress(z),500,275385.09999990463,275384.89999985695,272166.616,272183.19999980927,272205.327,275410.038,8,400,30,,ISIC_0068126.JPG
break,html.Screen,4_29_1,2023-11-01T17:56:52.031Z,,0,,,NaN,,,,,,false,,,,275386.69999980927,275385.89999985695,,275385.39999985695,,275410.038,8,400,,,
break_continue,html.Screen,4_29_2,2023-11-01T17:56:52.031Z,,0,,,NaN,,,,,,false,,,,275387.09999990463,275387,,275386.7999999523,,275410.038,8,400,,,
sequence,flow.Sequence,4_29,2023-11-01T17:56:52.031Z,,0,,,3181.67300000001,completion,,,,,false,,,,275387.19999980927,275387,272166.616,272183.09999990463,272205.327,275410.038,8,400,,,
trial,html.Screen,4_30_0,2023-11-01T17:56:55.731Z,,0,1,,3676.4619999999995,response,ISIC_5097947.JPG,10,ISIC_7997132.JPG,ISIC_7997132.JPG,false,0,keypress(z),500,279086.89999985695,279086.5,275378.157,275387.2999999523,275410.038,279110.833,8,400,31,,ISIC_5097947.JPG
break,html.Screen,4_30_1,2023-11-01T17:56:55.732Z,,0,,,NaN,,,,,,false,,,,279087.69999980927,279087.59999990463,,279087.09999990463,,279110.833,8,400,,,
break_continue,html.Screen,4_30_2,2023-11-01T17:56:55.732Z,,0,,,NaN,,,,,,false,,,,279088,279087.89999985695,,279087.7999999523,,279110.833,8,400,,,
sequence,flow.Sequence,4_30,2023-11-01T17:56:55.733Z,,0,,,3677.8619998569484,completion,,,,,false,,,,279089.19999980927,279087.89999985695,275378.157,275387.2999999523,275410.038,279110.833,8,400,,,
trial,html.Screen,4_31_0,2023-11-01T17:57:07.236Z,,0,1,,11513.11499999999,timeout,ISIC_0029839.JPG,7,ISIC_4482610.JPG,,false,,,500,290591.89999985695,290591.5,279078.482,279089.2999999523,279110.833,290623.948,8,400,32,,
break,html.Screen,4_31_1,2023-11-01T17:57:07.237Z,,0,,,NaN,,,,,,false,,,,290592.5,290592.2999999523,,290592,,290623.948,8,400,,,
break_continue,html.Screen,4_31_2,2023-11-01T17:57:07.237Z,,0,,,NaN,,,,,,false,,,,290592.89999985695,290592.7999999523,,290592.69999980927,,290623.948,8,400,,,
sequence,flow.Sequence,4_31,2023-11-01T17:57:07.237Z,,0,,,11481.966999952332,completion,,,,,false,,,,290593,290592.7999999523,279078.482,279089.2999999523,279110.833,290623.948,8,400,,,
trial,html.Screen,4_32_0,2023-11-01T17:57:11.885Z,,0,1,,4616.951999856974,response,ISIC_0015179.JPG,7,ISIC_0059707.JPG,ISIC_0015179.JPG,false,1,keypress(m),500,295241.09999990463,295240.89999985695,290607.184,290593.09999990463,290623.948,295265.807,8,400,33,,ISIC_0059707.JPG
break,html.Screen,4_32_1,2023-11-01T17:57:11.887Z,,0,,,NaN,,,,,,false,,,,295242.59999990463,295241.7999999523,,295241.2999999523,,295265.807,8,400,,,
break_continue,html.Screen,4_32_2,2023-11-01T17:57:11.887Z,,0,,,NaN,,,,,,false,,,,295243.09999990463,295242.89999985695,,295242.7999999523,,295265.807,8,400,,,
sequence,flow.Sequence,4_32,2023-11-01T17:57:11.887Z,,0,,,4618.951999856974,completion,,,,,false,,,,295243.19999980927,295242.89999985695,290607.184,290593.09999990463,290623.948,295265.807,8,400,,,
trial,html.Screen,4_33_0,2023-11-01T17:57:16.213Z,,0,1,,4302.992999952345,response,ISIC_0012150.JPG,6,ISIC_0030697.JPG,ISIC_0030697.JPG,false,0,keypress(z),500,299569.09999990463,299568.7999999523,295230.446,295243.2999999523,295265.807,299593.289,8,400,34,,ISIC_0012150.JPG
break,html.Screen,4_33_1,2023-11-01T17:57:16.215Z,,0,,,NaN,,,,,,false,,,,299570.5,299569.69999980927,,299569.2999999523,,299593.289,8,400,,,
break_continue,html.Screen,4_33_2,2023-11-01T17:57:16.215Z,,0,,,NaN,,,,,,false,,,,299570.89999985695,299570.7999999523,,299570.69999980927,,299593.289,8,400,,,
sequence,flow.Sequence,4_33,2023-11-01T17:57:16.215Z,,0,,,4304.992999952345,completion,,,,,false,,,,299571,299570.7999999523,295230.446,295243.19999980927,295265.807,299593.289,8,400,,,
trial,html.Screen,4_34_0,2023-11-01T17:57:24.398Z,,0,1,,8159.810999904643,response,ISIC_0817654.JPG,7,ISIC_0946787.JPG,ISIC_0946787.JPG,false,0,keypress(z),500,307753.39999985695,307753.09999990463,299562.216,299571.09999990463,299593.289,307777.699,8,400,35,,ISIC_0817654.JPG
break,html.Screen,4_34_1,2023-11-01T17:57:24.399Z,,0,,,NaN,,,,,,false,,,,307754.7999999523,307754.09999990463,,307753.59999990463,,307777.699,8,400,,,
break_continue,html.Screen,4_34_2,2023-11-01T17:57:24.399Z,,0,,,NaN,,,,,,false,,,,307755.19999980927,307755,,307755,,307777.699,8,400,,,
sequence,flow.Sequence,4_34,2023-11-01T17:57:24.400Z,,0,,,8161.71100000001,completion,,,,,false,,,,307755.2999999523,307755,299562.216,299571.09999990463,299593.289,307777.699,8,400,,,
trial,html.Screen,4_35_0,2023-11-01T17:57:28.167Z,,0,1,,3744.7009998569265,response,ISIC_8060329.JPG,7,ISIC_8205879.JPG,ISIC_8205879.JPG,false,0,keypress(z),500,311522.59999990463,311522.39999985695,307745.77,307755.5,307777.699,311546.857,8,400,36,,ISIC_8060329.JPG
break,html.Screen,4_35_1,2023-11-01T17:57:28.168Z,,0,,,NaN,,,,,,false,,,,311523.89999985695,311523.19999980927,,311522.69999980927,,311546.857,8,400,,,
break_continue,html.Screen,4_35_2,2023-11-01T17:57:28.169Z,,0,,,NaN,,,,,,false,,,,311524.2999999523,311524.19999980927,,311524.09999990463,,311546.857,8,400,,,
sequence,flow.Sequence,4_35,2023-11-01T17:57:28.169Z,,0,,,3746.500999809243,completion,,,,,false,,,,311524.5,311524.19999980927,307745.77,307755.39999985695,307777.699,311546.857,8,400,,,
trial,html.Screen,4_36_0,2023-11-01T17:57:31.725Z,,0,1,,3533.942999952298,response,ISIC_2178032.JPG,9,ISIC_1332766.JPG,ISIC_2178032.JPG,false,1,keypress(m),500,315081.09999990463,315080.7999999523,311516.659,311524.59999990463,311546.857,315105.204,8,400,37,,ISIC_1332766.JPG
break,html.Screen,4_36_1,2023-11-01T17:57:31.727Z,,0,,,NaN,,,,,,false,,,,315082.59999990463,315081.7999999523,,315081.39999985695,,315105.204,8,400,,,
break_continue,html.Screen,4_36_2,2023-11-01T17:57:31.727Z,,0,,,NaN,,,,,,false,,,,315083,315082.7999999523,,315082.69999980927,,315105.204,8,400,,,
sequence,flow.Sequence,4_36,2023-11-01T17:57:31.727Z,,0,,,3535.942999952298,completion,,,,,false,,,,315083.09999990463,315082.7999999523,311516.659,311524.59999990463,311546.857,315105.204,8,400,,,
trial,html.Screen,4_37_0,2023-11-01T17:57:43.226Z,,0,1,,11542.184999999998,timeout,ISIC_0025184.JPG,6,ISIC_7637597.JPG,,false,,,500,326582.09999990463,326581.89999985695,315072.047,315083.09999990463,315105.204,326647.389,8,400,38,,
break,html.Screen,4_37_1,2023-11-01T17:57:43.227Z,,0,,,NaN,,,,,,false,,,,326582.89999985695,326582.69999980927,,326582.2999999523,,326647.389,8,400,,,
break_continue,html.Screen,4_37_2,2023-11-01T17:57:43.227Z,,0,,,NaN,,,,,,false,,,,326583.19999980927,326583.09999990463,,326583,,326647.389,8,400,,,
sequence,flow.Sequence,4_37,2023-11-01T17:57:43.228Z,,0,,,11477.895999904606,completion,,,,,false,,,,326583.2999999523,326583.09999990463,315072.047,315083.09999990463,315105.204,326647.389,8,400,,,
trial,html.Screen,4_38_0,2023-11-01T17:57:54.779Z,,0,1,,11519.45299999998,timeout,ISIC_0033119.JPG,10,ISIC_0004042.JPG,,false,,,500,338134.5,338134.19999980927,326615.103,326583.5,326647.389,338166.842,8,400,39,,
break,html.Screen,4_38_1,2023-11-01T17:57:54.779Z,,0,,,NaN,,,,,,false,,,,338135.19999980927,338135,,338134.59999990463,,338166.842,8,400,,,
break_continue,html.Screen,4_38_2,2023-11-01T17:57:54.780Z,,0,,,NaN,,,,,,false,,,,338135.5,338135.39999985695,,338135.2999999523,,338166.842,8,400,,,
sequence,flow.Sequence,4_38,2023-11-01T17:57:54.780Z,,0,,,11488.010999856924,completion,,,,,false,,,,338135.59999990463,338135.39999985695,326615.103,326583.39999985695,326647.389,338166.842,8,400,,,
trial,html.Screen,4_39_0,2023-11-01T17:57:58.866Z,,0,1,,4054.5579998569447,response,ISIC_0012865.JPG,10,ISIC_7330564.JPG,ISIC_7330564.JPG,false,0,keypress(z),500,342221.59999990463,342221.39999985695,338149.793,338135.7999999523,338166.842,342246.434,8,400,40,,ISIC_0012865.JPG
break,html.Screen,4_39_1,2023-11-01T17:57:58.867Z,,0,,,NaN,,,,,,false,,,,342223.09999990463,342222.2999999523,,342221.7999999523,,342246.434,8,400,,,
break_continue,html.Screen,4_39_2,2023-11-01T17:57:58.868Z,,0,,,NaN,,,,,,false,,,,342223.39999985695,342223.2999999523,,342223.19999980927,,342246.434,8,400,,,
sequence,flow.Sequence,4_39,2023-11-01T17:57:58.868Z,,0,,,4056.457999952312,completion,,,,,false,,,,342223.59999990463,342223.2999999523,338149.793,338135.69999980927,338166.842,342246.434,8,400,,,
trial,html.Screen,4_40_0,2023-11-01T17:58:02.679Z,,0,1,,3787.9659998569405,response,ISIC_0001128.JPG,11,ISIC_5015378.JPG,ISIC_0001128.JPG,false,1,keypress(m),500,346034.7999999523,346034.39999985695,342212.691,342223.69999980927,342246.434,346059.328,8,400,41,,ISIC_5015378.JPG
break,html.Screen,4_40_1,2023-11-01T17:58:02.680Z,,0,,,NaN,,,,,,false,,,,346035.69999980927,346035.5,,346034.89999985695,,346059.328,8,400,,,
break_continue,html.Screen,4_40_2,2023-11-01T17:58:02.681Z,,0,,,NaN,,,,,,false,,,,346036.2999999523,346036.19999980927,,346036,,346059.328,8,400,,,
sequence,flow.Sequence,4_40,2023-11-01T17:58:02.681Z,,0,,,3789.7659998092568,completion,,,,,false,,,,346036.5,346036.19999980927,342212.691,342223.59999990463,342246.434,346059.328,8,400,,,
trial,html.Screen,4_41_0,2023-11-01T17:58:05.825Z,,0,1,,3121.3719998092856,response,ISIC_0032341.JPG,14,ISIC_0066209.JPG,ISIC_0032341.JPG,false,1,keypress(m),500,349180.89999985695,349180.69999980927,346020.04,346036.69999980927,346059.328,349205.013,8,400,42,,ISIC_0066209.JPG
break,html.Screen,4_41_1,2023-11-01T17:58:05.827Z,,0,,,NaN,,,,,,false,,,,349182.2999999523,349181.59999990463,,349181.09999990463,,349205.013,8,400,,,
break_continue,html.Screen,4_41_2,2023-11-01T17:58:05.827Z,,0,,,NaN,,,,,,false,,,,349182.89999985695,349182.59999990463,,349182.59999990463,,349205.013,8,400,,,
sequence,flow.Sequence,4_41,2023-11-01T17:58:05.827Z,,0,,,3123.271999904653,completion,,,,,false,,,,349182.89999985695,349182.59999990463,346020.04,346036.59999990463,346059.328,349205.013,8,400,,,
trial,html.Screen,4_42_0,2023-11-01T17:58:09.209Z,,0,1,,3359.686999809288,response,ISIC_0024853.JPG,8,ISIC_5405889.JPG,ISIC_5405889.JPG,false,0,keypress(z),500,352565.19999980927,352564.69999980927,349172.249,349183,349205.013,352600.54,8,400,43,,ISIC_0024853.JPG
break,html.Screen,4_42_1,2023-11-01T17:58:09.211Z,,0,,,NaN,,,,,,false,,,,352566.59999990463,352565.89999985695,,352565.39999985695,,352600.54,8,400,,,
break_continue,html.Screen,4_42_2,2023-11-01T17:58:09.211Z,,0,,,NaN,,,,,,false,,,,352566.89999985695,352566.89999985695,,352566.69999980927,,352600.54,8,400,,,
sequence,flow.Sequence,4_42,2023-11-01T17:58:09.211Z,,0,,,3361.8869998569717,completion,,,,,false,,,,352567.09999990463,352566.89999985695,349172.249,349183,349205.013,352600.54,8,400,,,
trial,html.Screen,4_43_0,2023-11-01T17:58:12.916Z,,0,1,,3670.960000000021,response,ISIC_0033333.JPG,11,ISIC_0029480.JPG,ISIC_0029480.JPG,false,0,keypress(z),500,356271.7999999523,356271.5,352565.098,352567.19999980927,352600.54,356296.453,8,400,44,,ISIC_0033333.JPG
break,html.Screen,4_43_1,2023-11-01T17:58:12.917Z,,0,,,NaN,,,,,,false,,,,356272.69999980927,356272.5,,356272,,356296.453,8,400,,,
break_continue,html.Screen,4_43_2,2023-11-01T17:58:12.917Z,,0,,,NaN,,,,,,false,,,,356273.09999990463,356273,,356272.7999999523,,356296.453,8,400,,,
sequence,flow.Sequence,4_43,2023-11-01T17:58:12.918Z,,0,,,3672.460000000021,completion,,,,,false,,,,356273.2999999523,356273,352565.098,352567.09999990463,352600.54,356296.453,8,400,,,
trial,html.Screen,4_44_0,2023-11-01T17:58:16.264Z,,0,1,,3322.9469998569693,response,ISIC_0072377.JPG,11,ISIC_8740331.JPG,ISIC_8740331.JPG,false,0,keypress(z),500,359619.69999980927,359619.39999985695,356265.369,356273.39999985695,356296.453,359643.331,8,400,45,,ISIC_0072377.JPG
break,html.Screen,4_44_1,2023-11-01T17:58:16.265Z,,0,,,NaN,,,,,,false,,,,359621.19999980927,359620.39999985695,,359619.89999985695,,359643.331,8,400,,,
break_continue,html.Screen,4_44_2,2023-11-01T17:58:16.266Z,,0,,,NaN,,,,,,false,,,,359621.59999990463,359621.5,,359621.39999985695,,359643.331,8,400,,,
sequence,flow.Sequence,4_44,2023-11-01T17:58:16.266Z,,0,,,3325.0470000000205,completion,,,,,false,,,,359621.69999980927,359621.5,356265.369,356273.39999985695,356296.453,359643.331,8,400,,,
trial,html.Screen,4_45_0,2023-11-01T17:58:20.349Z,,0,1,,4061.3689998092595,response,ISIC_7141361.JPG,7,ISIC_9308275.JPG,ISIC_9308275.JPG,false,0,keypress(z),500,363704.89999985695,363704.69999980927,359612.351,359621.89999985695,359643.331,363729.376,8,400,46,,ISIC_7141361.JPG
break,html.Screen,4_45_1,2023-11-01T17:58:20.350Z,,0,,,NaN,,,,,,false,,,,363705.89999985695,363705.69999980927,,363705.09999990463,,363729.376,8,400,,,
break_continue,html.Screen,4_45_2,2023-11-01T17:58:20.351Z,,0,,,NaN,,,,,,false,,,,363706.2999999523,363706.19999980927,,363706.09999990463,,363729.376,8,400,,,
sequence,flow.Sequence,4_45,2023-11-01T17:58:20.351Z,,0,,,4062.8689998092595,completion,,,,,false,,,,363706.59999990463,363706.19999980927,359612.351,359621.7999999523,359643.331,363729.376,8,400,,,
trial,html.Screen,4_46_0,2023-11-01T17:58:23.976Z,,0,1,,3601.6240000000107,response,ISIC_4613437.JPG,6,ISIC_0073075.JPG,ISIC_0073075.JPG,false,0,keypress(z),500,367331.2999999523,367331,363697.108,363706.69999980927,363729.376,367354.999,8,400,47,,ISIC_4613437.JPG
break,html.Screen,4_46_1,2023-11-01T17:58:23.977Z,,0,,,NaN,,,,,,false,,,,367332.69999980927,367332,,367331.5,,367354.999,8,400,,,
break_continue,html.Screen,4_46_2,2023-11-01T17:58:23.977Z,,0,,,NaN,,,,,,false,,,,367333.09999990463,367333,,367332.89999985695,,367354.999,8,400,,,
sequence,flow.Sequence,4_46,2023-11-01T17:58:23.978Z,,0,,,3603.6240000000107,completion,,,,,false,,,,367333.19999980927,367333,363697.108,363706.69999980927,363729.376,367354.999,8,400,,,
trial,html.Screen,4_47_0,2023-11-01T17:58:27.873Z,,0,1,,3873.100999904622,response,ISIC_5821293.JPG,6,ISIC_3496800.JPG,ISIC_5821293.JPG,false,1,keypress(m),500,371228.39999985695,371228.09999990463,367316.548,367333.39999985695,367354.999,371263.695,8,400,48,,ISIC_3496800.JPG
break,html.Screen,4_47_1,2023-11-01T17:58:27.874Z,,0,,,NaN,,,,,,false,,,,371229.7999999523,371229.09999990463,,371228.5,,371263.695,8,400,,,
break_continue,html.Screen,4_47_2,2023-11-01T17:58:27.874Z,,0,,,NaN,,,,,,false,,,,371230.09999990463,371230.09999990463,,371229.89999985695,,371263.695,8,400,,,
sequence,flow.Sequence,4_47,2023-11-01T17:58:27.875Z,,0,,,3875.100999904622,completion,,,,,false,,,,371230.2999999523,371230.09999990463,367316.548,367333.2999999523,367354.999,371263.695,8,400,,,
trial,html.Screen,4_48_0,2023-11-01T17:58:31.368Z,,0,1,,3459.9049999046256,response,ISIC_0011370.JPG,8,ISIC_5037784.JPG,ISIC_5037784.JPG,false,0,keypress(z),500,374723.89999985695,374723.59999990463,371228.419,371230.39999985695,371263.695,374748.13,8,400,49,,ISIC_0011370.JPG
break,html.Screen,4_48_1,2023-11-01T17:58:31.370Z,,0,,,NaN,,,,,,false,,,,374725.39999985695,374724.59999990463,,374724.19999980927,,374748.13,8,400,,,
break_continue,html.Screen,4_48_2,2023-11-01T17:58:31.370Z,,0,,,NaN,,,,,,false,,,,374725.69999980927,374725.59999990463,,374725.5,,374748.13,8,400,,,
sequence,flow.Sequence,4_48,2023-11-01T17:58:31.370Z,,0,,,3461.9049999046256,completion,,,,,false,,,,374725.7999999523,374725.59999990463,371228.419,371230.39999985695,371263.695,374748.13,8,400,,,
trial,html.Screen,4_49_0,2023-11-01T17:58:35.423Z,,0,1,,4030.1699999523116,response,ISIC_2105563.JPG,5,ISIC_1166678.JPG,ISIC_2105563.JPG,false,1,keypress(m),500,378778.59999990463,378778.2999999523,374723.357,374726,374748.13,378801.996,8,400,50,,ISIC_1166678.JPG
break,html.Screen,4_49_1,2023-11-01T17:58:45.443Z,,0,,,10011.791000000027,timeout,,,,,false,,,,388798.5,388797.366,378774.576,378778.7999999523,378801.996,388813.787,8,400,,,
break_continue,html.Screen,4_49_2,2023-11-01T17:58:50.846Z,,0,,,5373.312999904621,response,,,,,false,continue,keypress(Space),,394202.19999980927,394187.09999990463,388797.366,388798.69999980927,388813.787,394223.432,8,400,,,
sequence,flow.Sequence,4_49,2023-11-01T17:58:50.847Z,,0,,,19438.969999904628,completion,,,,,false,,,,394202.39999985695,394187.09999990463,374723.357,374725.89999985695,374748.13,394223.432,8,400,,,
trial,html.Screen,4_50_0,2023-11-01T17:58:54.536Z,,0,2,,3668.2679998092935,response,ISIC_2178032.JPG,11,ISIC_0033399.JPG,ISIC_2178032.JPG,false,1,keypress(m),500,397892,397891.69999980927,394197.086,394202.5,394223.432,397916.198,8,400,1,,ISIC_0033399.JPG
break,html.Screen,4_50_1,2023-11-01T17:58:54.538Z,,0,,,NaN,,,,,,false,,,,397893.59999990463,397892.7999999523,,397892.39999985695,,397916.198,8,400,,,
break_continue,html.Screen,4_50_2,2023-11-01T17:58:54.538Z,,0,,,NaN,,,,,,false,,,,397894,397893.7999999523,,397893.69999980927,,397916.198,8,400,,,
sequence,flow.Sequence,4_50,2023-11-01T17:58:54.538Z,,0,,,3670.3679999523447,completion,,,,,false,,,,397894.09999990463,397893.7999999523,394197.086,394202.5,394223.432,397916.198,8,400,,,
trial,html.Screen,4_51_0,2023-11-01T17:58:57.696Z,,0,2,,3135.1019999523414,response,ISIC_0033137.JPG,5,ISIC_5415749.JPG,ISIC_0033137.JPG,false,1,keypress(m),500,401051.59999990463,401051.2999999523,397891.571,397894.19999980927,397916.198,401076.364,8,400,2,,ISIC_5415749.JPG
break,html.Screen,4_51_1,2023-11-01T17:58:57.697Z,,0,,,NaN,,,,,,false,,,,401053,401052.2999999523,,401051.7999999523,,401076.364,8,400,,,
break_continue,html.Screen,4_51_2,2023-11-01T17:58:57.698Z,,0,,,NaN,,,,,,false,,,,401053.2999999523,401053.2999999523,,401053.09999990463,,401076.364,8,400,,,
sequence,flow.Sequence,4_51,2023-11-01T17:58:57.698Z,,0,,,3137.1019999523414,completion,,,,,false,,,,401053.5,401053.2999999523,397891.571,397894.19999980927,397916.198,401076.364,8,400,,,
trial,html.Screen,4_52_0,2023-11-01T17:59:00.312Z,,0,2,,2591.235999904631,response,ISIC_0032019.JPG,7,ISIC_0034202.JPG,ISIC_0032019.JPG,false,1,keypress(m),500,403667.89999985695,403667.59999990463,401040.824,401053.59999990463,401076.364,403719.91,8,400,3,,ISIC_0034202.JPG
break,html.Screen,4_52_1,2023-11-01T17:59:00.313Z,,0,,,NaN,,,,,,false,,,,403668.7999999523,403668.59999990463,,403668.09999990463,,403719.91,8,400,,,
break_continue,html.Screen,4_52_2,2023-11-01T17:59:00.313Z,,0,,,NaN,,,,,,false,,,,403669.19999980927,403669,,403668.89999985695,,403719.91,8,400,,,
sequence,flow.Sequence,4_52,2023-11-01T17:59:00.314Z,,0,,,2592.6359999999986,completion,,,,,false,,,,403669.2999999523,403669,401040.824,401053.59999990463,401076.364,403719.91,8,400,,,
trial,html.Screen,4_53_0,2023-11-01T17:59:03.132Z,,0,2,,2767.389999952342,response,ISIC_0010785.JPG,5,ISIC_5149162.JPG,ISIC_5149162.JPG,false,0,keypress(z),500,406487.5,406487.2999999523,403691.843,403669.5,403719.91,406511.352,8,400,4,,ISIC_0010785.JPG
break,html.Screen,4_53_1,2023-11-01T17:59:03.133Z,,0,,,NaN,,,,,,false,,,,406488.39999985695,406488.19999980927,,406487.69999980927,,406511.352,8,400,,,
break_continue,html.Screen,4_53_2,2023-11-01T17:59:03.133Z,,0,,,NaN,,,,,,false,,,,406488.7999999523,406488.69999980927,,406488.59999990463,,406511.352,8,400,,,
sequence,flow.Sequence,4_53,2023-11-01T17:59:03.133Z,,0,,,2768.7899998092907,completion,,,,,false,,,,406489,406488.69999980927,403691.843,403669.39999985695,403719.91,406511.352,8,400,,,
trial,html.Screen,4_54_0,2023-11-01T17:59:06.144Z,,0,2,,2987.947999952303,response,ISIC_0024892.JPG,5,ISIC_0000473.JPG,ISIC_0000473.JPG,false,0,keypress(z),500,409499.59999990463,409499.2999999523,406477.953,406489.09999990463,406511.352,409568.309,8,400,5,,ISIC_0024892.JPG
break,html.Screen,4_54_1,2023-11-01T17:59:06.145Z,,0,,,NaN,,,,,,false,,,,409501.09999990463,409500.2999999523,,409499.7999999523,,409568.309,8,400,,,
break_continue,html.Screen,4_54_2,2023-11-01T17:59:06.146Z,,0,,,NaN,,,,,,false,,,,409501.39999985695,409501.2999999523,,409501.19999980927,,409568.309,8,400,,,
sequence,flow.Sequence,4_54,2023-11-01T17:59:06.146Z,,0,,,2989.947999952303,completion,,,,,false,,,,409501.5,409501.2999999523,406477.953,406489.09999990463,406511.352,409568.309,8,400,,,
trial,html.Screen,4_55_0,2023-11-01T17:59:12.760Z,,0,2,,6546.790999904624,response,ISIC_8479104.JPG,7,ISIC_0064427.JPG,ISIC_8479104.JPG,false,1,keypress(m),500,416115.2999999523,416115.09999990463,409528.002,409501.59999990463,409568.309,416139.354,8,400,6,,ISIC_0064427.JPG
break,html.Screen,4_55_1,2023-11-01T17:59:12.761Z,,0,,,NaN,,,,,,false,,,,416117,416116.7999999523,,416116.2999999523,,416139.354,8,400,,,
break_continue,html.Screen,4_55_2,2023-11-01T17:59:12.762Z,,0,,,NaN,,,,,,false,,,,416117.39999985695,416117.39999985695,,416117.19999980927,,416139.354,8,400,,,
sequence,flow.Sequence,4_55,2023-11-01T17:59:12.762Z,,0,,,6549.0909998569405,completion,,,,,false,,,,416117.59999990463,416117.39999985695,409528.002,409501.59999990463,409568.309,416139.354,8,400,,,
trial,html.Screen,4_56_0,2023-11-01T17:59:16.896Z,,0,2,,4111.845999809273,response,ISIC_7867077.JPG,5,ISIC_0469314.JPG,ISIC_0469314.JPG,false,0,keypress(z),500,420251.39999985695,420251.19999980927,416106.524,416117.7999999523,416139.354,420276.101,8,400,7,,ISIC_7867077.JPG
break,html.Screen,4_56_1,2023-11-01T17:59:16.897Z,,0,,,NaN,,,,,,false,,,,420252.89999985695,420252.19999980927,,420251.59999990463,,420276.101,8,400,,,
break_continue,html.Screen,4_56_2,2023-11-01T17:59:16.898Z,,0,,,NaN,,,,,,false,,,,420253.19999980927,420253.09999990463,,420253,,420276.101,8,400,,,
sequence,flow.Sequence,4_56,2023-11-01T17:59:16.898Z,,0,,,4113.7459999046405,completion,,,,,false,,,,420253.39999985695,420253.09999990463,416106.524,416117.69999980927,416139.354,420276.101,8,400,,,
trial,html.Screen,4_57_0,2023-11-01T17:59:20.307Z,,0,2,,3386.598999809241,response,ISIC_2466892.JPG,11,ISIC_0011364.JPG,ISIC_2466892.JPG,false,1,keypress(m),500,423663,423662.69999980927,420244.937,420253.39999985695,420276.101,423687.216,8,400,8,,ISIC_0011364.JPG
break,html.Screen,4_57_1,2023-11-01T17:59:20.309Z,,0,,,NaN,,,,,,false,,,,423664.39999985695,423663.69999980927,,423663.19999980927,,423687.216,8,400,,,
break_continue,html.Screen,4_57_2,2023-11-01T17:59:20.309Z,,0,,,NaN,,,,,,false,,,,423664.7999999523,423664.69999980927,,423664.5,,423687.216,8,400,,,
sequence,flow.Sequence,4_57,2023-11-01T17:59:20.309Z,,0,,,3388.598999809241,completion,,,,,false,,,,423664.89999985695,423664.69999980927,420244.937,420253.39999985695,420276.101,423687.216,8,400,,,
trial,html.Screen,4_58_0,2023-11-01T17:59:23.166Z,,0,2,,2834.683999856934,response,ISIC_5458933.JPG,12,ISIC_3067885.JPG,ISIC_5458933.JPG,false,1,keypress(m),500,426522.19999980927,426521.89999985695,423651.791,423665,423687.216,426557.465,8,400,9,,ISIC_3067885.JPG
break,html.Screen,4_58_1,2023-11-01T17:59:23.168Z,,0,,,NaN,,,,,,false,,,,426523.69999980927,426522.89999985695,,426522.39999985695,,426557.465,8,400,,,
break_continue,html.Screen,4_58_2,2023-11-01T17:59:23.169Z,,0,,,NaN,,,,,,false,,,,426524.2999999523,426524,,426523.7999999523,,426557.465,8,400,,,
sequence,flow.Sequence,4_58,2023-11-01T17:59:23.169Z,,0,,,2836.783999999985,completion,,,,,false,,,,426524.89999985695,426524,423651.791,423665,423687.216,426557.465,8,400,,,
trial,html.Screen,4_59_0,2023-11-01T17:59:26.086Z,,0,2,,2883.5349999999744,response,ISIC_0066358.JPG,9,ISIC_6033222.JPG,ISIC_6033222.JPG,false,0,keypress(z),500,429441.19999980927,429441,426522.406,426525,426557.465,429465.371,8,400,10,,ISIC_0066358.JPG
break,html.Screen,4_59_1,2023-11-01T17:59:26.086Z,,0,,,NaN,,,,,,false,,,,429442.19999980927,429441.89999985695,,429441.39999985695,,429465.371,8,400,,,
break_continue,html.Screen,4_59_2,2023-11-01T17:59:26.087Z,,0,,,NaN,,,,,,false,,,,429442.5,429442.39999985695,,429442.2999999523,,429465.371,8,400,,,
sequence,flow.Sequence,4_59,2023-11-01T17:59:26.087Z,,0,,,2884.9349998569232,completion,,,,,false,,,,429442.7999999523,429442.39999985695,426522.406,426525,426557.465,429465.371,8,400,,,
trial,html.Screen,4_60_0,2023-11-01T17:59:29.209Z,,0,2,,3098.9289999523317,response,ISIC_0033876.JPG,10,ISIC_7858034.JPG,ISIC_7858034.JPG,false,0,keypress(z),500,432564.59999990463,432564.2999999523,429433.999,429442.89999985695,429465.371,432588.228,8,400,11,,ISIC_0033876.JPG
break,html.Screen,4_60_1,2023-11-01T17:59:29.210Z,,0,,,NaN,,,,,,false,,,,432565.7999999523,432565.59999990463,,432564.89999985695,,432588.228,8,400,,,
break_continue,html.Screen,4_60_2,2023-11-01T17:59:29.211Z,,0,,,NaN,,,,,,false,,,,432566.2999999523,432566.09999990463,,432565.89999985695,,432588.228,8,400,,,
sequence,flow.Sequence,4_60,2023-11-01T17:59:29.211Z,,0,,,3100.728999904648,completion,,,,,false,,,,432566.5,432566.09999990463,429433.999,429442.89999985695,429465.371,432588.228,8,400,,,
trial,html.Screen,4_61_0,2023-11-01T17:59:31.969Z,,0,2,,2736.271999999997,response,ISIC_7299650.JPG,10,ISIC_6352565.JPG,ISIC_7299650.JPG,false,1,keypress(m),500,435324.69999980927,435324.5,432554.449,432566.69999980927,432588.228,435348.935,8,400,12,,ISIC_6352565.JPG
break,html.Screen,4_61_1,2023-11-01T17:59:31.970Z,,0,,,NaN,,,,,,false,,,,435326.09999990463,435325.39999985695,,435324.89999985695,,435348.935,8,400,,,
break_continue,html.Screen,4_61_2,2023-11-01T17:59:31.971Z,,0,,,NaN,,,,,,false,,,,435326.39999985695,435326.39999985695,,435326.19999980927,,435348.935,8,400,,,
sequence,flow.Sequence,4_61,2023-11-01T17:59:31.971Z,,0,,,2738.171999856946,completion,,,,,false,,,,435326.5,435326.39999985695,432554.449,432566.69999980927,432588.228,435348.935,8,400,,,
trial,html.Screen,4_62_0,2023-11-01T17:59:34.633Z,,0,2,,2639.664999904635,response,ISIC_6577767.JPG,11,ISIC_0422299.JPG,ISIC_0422299.JPG,false,0,keypress(z),500,437988.7999999523,437988.59999990463,435318.017,435326.59999990463,435348.935,438024.131,8,400,13,,ISIC_6577767.JPG
break,html.Screen,4_62_1,2023-11-01T17:59:34.635Z,,0,,,NaN,,,,,,false,,,,437990.2999999523,437989.5,,437989.09999990463,,438024.131,8,400,,,
break_continue,html.Screen,4_62_2,2023-11-01T17:59:34.635Z,,0,,,NaN,,,,,,false,,,,437990.59999990463,437990.5,,437990.2999999523,,438024.131,8,400,,,
sequence,flow.Sequence,4_62,2023-11-01T17:59:34.635Z,,0,,,2641.5650000000023,completion,,,,,false,,,,437990.69999980927,437990.5,435318.017,435326.59999990463,435348.935,438024.131,8,400,,,
trial,html.Screen,4_63_0,2023-11-01T17:59:37.504Z,,0,2,,2835.068999809271,response,ISIC_8646115.JPG,7,ISIC_0062031.JPG,ISIC_0062031.JPG,false,0,keypress(z),500,440859.39999985695,440859.19999980927,437989.591,437990.7999999523,438024.131,440883.417,8,400,14,,ISIC_8646115.JPG
break,html.Screen,4_63_1,2023-11-01T17:59:37.505Z,,0,,,NaN,,,,,,false,,,,440861.09999990463,440860.19999980927,,440859.59999990463,,440883.417,8,400,,,
break_continue,html.Screen,4_63_2,2023-11-01T17:59:37.506Z,,0,,,NaN,,,,,,false,,,,440861.39999985695,440861.2999999523,,440861.19999980927,,440883.417,8,400,,,
sequence,flow.Sequence,4_63,2023-11-01T17:59:37.506Z,,0,,,2837.1689999523223,completion,,,,,false,,,,440861.59999990463,440861.2999999523,437989.591,437990.7999999523,438024.131,440883.417,8,400,,,
trial,html.Screen,4_64_0,2023-11-01T17:59:40.025Z,,0,2,,2496.8829999523005,response,ISIC_6964131.JPG,7,ISIC_4582670.JPG,ISIC_6964131.JPG,false,1,keypress(m),500,443380.5,443380.2999999523,440857.493,440861.59999990463,440883.417,443404.319,8,400,15,,ISIC_4582670.JPG
break,html.Screen,4_64_1,2023-11-01T17:59:40.026Z,,0,,,NaN,,,,,,false,,,,443381.89999985695,443381.09999990463,,443380.69999980927,,443404.319,8,400,,,
break_continue,html.Screen,4_64_2,2023-11-01T17:59:40.027Z,,0,,,NaN,,,,,,false,,,,443382.2999999523,443382.19999980927,,443382,,443404.319,8,400,,,
sequence,flow.Sequence,4_64,2023-11-01T17:59:40.027Z,,0,,,2498.7829998092493,completion,,,,,false,,,,443382.39999985695,443382.19999980927,440857.493,440861.59999990463,440883.417,443404.319,8,400,,,
trial,html.Screen,4_65_0,2023-11-01T17:59:43.118Z,,0,2,,3069.3809998092474,response,ISIC_0034075.JPG,9,ISIC_0028584.JPG,ISIC_0028584.JPG,false,0,keypress(z),500,446473.7999999523,446473.69999980927,443367.711,443382.39999985695,443404.319,446497.884,8,400,16,,ISIC_0034075.JPG
break,html.Screen,4_65_1,2023-11-01T17:59:43.119Z,,0,,,NaN,,,,,,false,,,,446475.09999990463,446474.2999999523,,446473.89999985695,,446497.884,8,400,,,
break_continue,html.Screen,4_65_2,2023-11-01T17:59:43.120Z,,0,,,NaN,,,,,,false,,,,446475.59999990463,446475.5,,446475.2999999523,,446497.884,8,400,,,
sequence,flow.Sequence,4_65,2023-11-01T17:59:43.120Z,,0,,,3071.1809999999823,completion,,,,,false,,,,446475.59999990463,446475.5,443367.711,443382.39999985695,443404.319,446497.884,8,400,,,
trial,html.Screen,4_66_0,2023-11-01T17:59:45.605Z,,0,2,,2463.015999856929,response,ISIC_0003159.JPG,8,ISIC_0034316.JPG,ISIC_0003159.JPG,false,1,keypress(m),500,448961.19999980927,448960.89999985695,446459.383,446475.69999980927,446497.884,448985.579,8,400,17,,ISIC_0034316.JPG
break,html.Screen,4_66_1,2023-11-01T17:59:45.607Z,,0,,,NaN,,,,,,false,,,,448962.59999990463,448961.7999999523,,448961.39999985695,,448985.579,8,400,,,
break_continue,html.Screen,4_66_2,2023-11-01T17:59:45.607Z,,0,,,NaN,,,,,,false,,,,448962.89999985695,448962.7999999523,,448962.69999980927,,448985.579,8,400,,,
sequence,flow.Sequence,4_66,2023-11-01T17:59:45.607Z,,0,,,2464.9159999522963,completion,,,,,false,,,,448963.09999990463,448962.7999999523,446459.383,446475.69999980927,446497.884,448985.579,8,400,,,
trial,html.Screen,4_67_0,2023-11-01T17:59:48.302Z,,0,2,,2671.5209999046056,response,ISIC_0071568.JPG,9,ISIC_0000406.JPG,ISIC_0071568.JPG,false,1,keypress(m),500,451657.39999985695,451657.09999990463,448949.515,448963.09999990463,448985.579,451681.935,8,400,18,,ISIC_0000406.JPG
break,html.Screen,4_67_1,2023-11-01T17:59:48.303Z,,0,,,NaN,,,,,,false,,,,451658.59999990463,451658.09999990463,,451657.59999990463,,451681.935,8,400,,,
break_continue,html.Screen,4_67_2,2023-11-01T17:59:48.303Z,,0,,,NaN,,,,,,false,,,,451659,451658.89999985695,,451658.7999999523,,451681.935,8,400,,,
sequence,flow.Sequence,4_67,2023-11-01T17:59:48.304Z,,0,,,2673.320999856922,completion,,,,,false,,,,451659.2999999523,451658.89999985695,448949.515,448963.09999990463,448985.579,451681.935,8,400,,,
trial,html.Screen,4_68_0,2023-11-01T17:59:50.883Z,,0,2,,2556.7649998092675,response,ISIC_0058224.JPG,9,ISIC_0032587.JPG,ISIC_0032587.JPG,false,0,keypress(z),500,454238.89999985695,454238.69999980927,451647.991,451659.39999985695,451681.935,454274.521,8,400,19,,ISIC_0058224.JPG
break,html.Screen,4_68_1,2023-11-01T17:59:50.884Z,,0,,,NaN,,,,,,false,,,,454240,454239.69999980927,,454239.19999980927,,454274.521,8,400,,,
break_continue,html.Screen,4_68_2,2023-11-01T17:59:50.885Z,,0,,,NaN,,,,,,false,,,,454240.2999999523,454240.19999980927,,454240.09999990463,,454274.521,8,400,,,
sequence,flow.Sequence,4_68,2023-11-01T17:59:50.885Z,,0,,,2558.2649998092675,completion,,,,,false,,,,454240.5,454240.19999980927,451647.991,451659.39999985695,451681.935,454274.521,8,400,,,
trial,html.Screen,4_69_0,2023-11-01T17:59:53.981Z,,0,2,,3062.378999856941,response,ISIC_3559222.JPG,8,ISIC_0029502.JPG,ISIC_0029502.JPG,false,0,keypress(z),500,457337.09999990463,457336.89999985695,454238.944,454240.5,454274.521,457361.646,8,400,20,,ISIC_3559222.JPG
break,html.Screen,4_69_1,2023-11-01T17:59:53.983Z,,0,,,NaN,,,,,,false,,,,457338.5,457337.7999999523,,457337.2999999523,,457361.646,8,400,,,
break_continue,html.Screen,4_69_2,2023-11-01T17:59:53.983Z,,0,,,NaN,,,,,,false,,,,457338.7999999523,457338.69999980927,,457338.59999990463,,457361.646,8,400,,,
sequence,flow.Sequence,4_69,2023-11-01T17:59:53.983Z,,0,,,3064.178999809257,completion,,,,,false,,,,457338.89999985695,457338.69999980927,454238.944,454240.5,454274.521,457361.646,8,400,,,
trial,html.Screen,4_70_0,2023-11-01T17:59:56.739Z,,0,2,,2732.853999999992,response,ISIC_8094432.JPG,11,ISIC_0016085.JPG,ISIC_8094432.JPG,false,1,keypress(m),500,460094.69999980927,460094.5,457327.179,457339.09999990463,457361.646,460118.868,8,400,21,,ISIC_0016085.JPG
break,html.Screen,4_70_1,2023-11-01T17:59:56.740Z,,0,,,NaN,,,,,,false,,,,460096.09999990463,460095.2999999523,,460094.89999985695,,460118.868,8,400,,,
break_continue,html.Screen,4_70_2,2023-11-01T17:59:56.741Z,,0,,,NaN,,,,,,false,,,,460096.5,460096.2999999523,,460096.19999980927,,460118.868,8,400,,,
sequence,flow.Sequence,4_70,2023-11-01T17:59:56.741Z,,0,,,2734.6539999523084,completion,,,,,false,,,,460096.59999990463,460096.2999999523,457327.179,457339,457361.646,460118.868,8,400,,,
trial,html.Screen,4_71_0,2023-11-01T17:59:59.543Z,,0,2,,2780.031999856932,response,ISIC_0271408.JPG,9,ISIC_8414396.JPG,ISIC_8414396.JPG,false,0,keypress(z),500,462899.19999980927,462898.89999985695,460086.312,460096.69999980927,460118.868,462921.913,8,400,22,,ISIC_0271408.JPG
break,html.Screen,4_71_1,2023-11-01T17:59:59.545Z,,0,,,NaN,,,,,,false,,,,462900.59999990463,462899.89999985695,,462899.2999999523,,462921.913,8,400,,,
break_continue,html.Screen,4_71_2,2023-11-01T17:59:59.545Z,,0,,,NaN,,,,,,false,,,,462901,462900.89999985695,,462900.7999999523,,462921.913,8,400,,,
sequence,flow.Sequence,4_71,2023-11-01T17:59:59.545Z,,0,,,2782.031999856932,completion,,,,,false,,,,462901.09999990463,462900.89999985695,460086.312,460096.59999990463,460118.868,462921.913,8,400,,,
trial,html.Screen,4_72_0,2023-11-01T18:00:02.434Z,,0,2,,2867.0869999999995,response,ISIC_0069669.JPG,6,ISIC_0059593.JPG,ISIC_0059593.JPG,false,0,keypress(z),500,465789.19999980927,465789,462884.663,462901.19999980927,462921.913,465812.828,8,400,23,,ISIC_0069669.JPG
break,html.Screen,4_72_1,2023-11-01T18:00:02.435Z,,0,,,NaN,,,,,,false,,,,465790.59999990463,465789.89999985695,,465789.39999985695,,465812.828,8,400,,,
break_continue,html.Screen,4_72_2,2023-11-01T18:00:02.435Z,,0,,,NaN,,,,,,false,,,,465791,465790.89999985695,,465790.7999999523,,465812.828,8,400,,,
sequence,flow.Sequence,4_72,2023-11-01T18:00:02.435Z,,0,,,2868.9869998569484,completion,,,,,false,,,,465791.09999990463,465790.89999985695,462884.663,462901.19999980927,462921.913,465812.828,8,400,,,
trial,html.Screen,4_73_0,2023-11-01T18:00:05.126Z,,0,2,,2668.3719998092856,response,ISIC_7266604.JPG,7,ISIC_0538042.JPG,ISIC_7266604.JPG,false,1,keypress(m),500,468481.39999985695,468481.19999980927,465776.053,465791.19999980927,465812.828,468505.299,8,400,24,,ISIC_0538042.JPG
break,html.Screen,4_73_1,2023-11-01T18:00:05.127Z,,0,,,NaN,,,,,,false,,,,468482.39999985695,468482.19999980927,,468481.69999980927,,468505.299,8,400,,,
break_continue,html.Screen,4_73_2,2023-11-01T18:00:05.128Z,,0,,,NaN,,,,,,false,,,,468483.19999980927,468483.09999990463,,468483,,468505.299,8,400,,,
sequence,flow.Sequence,4_73,2023-11-01T18:00:05.128Z,,0,,,2670.271999904653,completion,,,,,false,,,,468483.39999985695,468483.09999990463,465776.053,465791.19999980927,465812.828,468505.299,8,400,,,
trial,html.Screen,4_74_0,2023-11-01T18:00:07.888Z,,0,2,,2738.201000000001,response,ISIC_0034032.JPG,6,ISIC_4587506.JPG,ISIC_4587506.JPG,false,0,keypress(z),500,471243.7999999523,471243.5,468475.378,468483.5,468505.299,471267.675,8,400,25,,ISIC_0034032.JPG
break,html.Screen,4_74_1,2023-11-01T18:00:07.890Z,,0,,,NaN,,,,,,false,,,,471245.2999999523,471244.5,,471244,,471267.675,8,400,,,
break_continue,html.Screen,4_74_2,2023-11-01T18:00:07.890Z,,0,,,NaN,,,,,,false,,,,471245.59999990463,471245.5,,471245.39999985695,,471267.675,8,400,,,
sequence,flow.Sequence,4_74,2023-11-01T18:00:07.890Z,,0,,,2740.201000000001,completion,,,,,false,,,,471245.69999980927,471245.5,468475.378,468483.5,468505.299,471267.675,8,400,,,
trial,html.Screen,4_75_0,2023-11-01T18:00:10.340Z,,0,2,,2428.2249998569605,response,ISIC_4604654.JPG,12,ISIC_0000463.JPG,ISIC_4604654.JPG,false,1,keypress(m),500,473696.19999980927,473695.89999985695,471237.739,471245.7999999523,471267.675,473719.972,8,400,26,,ISIC_0000463.JPG
break,html.Screen,4_75_1,2023-11-01T18:00:10.342Z,,0,,,NaN,,,,,,false,,,,473697.69999980927,473696.89999985695,,473696.5,,473719.972,8,400,,,
break_continue,html.Screen,4_75_2,2023-11-01T18:00:10.342Z,,0,,,NaN,,,,,,false,,,,473698.09999990463,473698,,473697.7999999523,,473719.972,8,400,,,
sequence,flow.Sequence,4_75,2023-11-01T18:00:10.343Z,,0,,,2430.3250000000116,completion,,,,,false,,,,473698.2999999523,473698,471237.739,471245.7999999523,471267.675,473719.972,8,400,,,
trial,html.Screen,4_76_0,2023-11-01T18:00:13.596Z,,0,2,,3231.42799985694,response,ISIC_8378321.JPG,10,ISIC_4819371.JPG,ISIC_4819371.JPG,false,0,keypress(z),500,476951.69999980927,476951.39999985695,473684.488,473698.39999985695,473719.972,476976.279,8,400,27,,ISIC_8378321.JPG
break,html.Screen,4_76_1,2023-11-01T18:00:13.597Z,,0,,,NaN,,,,,,false,,,,476953.19999980927,476952.2999999523,,476951.89999985695,,476976.279,8,400,,,
break_continue,html.Screen,4_76_2,2023-11-01T18:00:13.598Z,,0,,,NaN,,,,,,false,,,,476953.59999990463,476953.5,,476953.2999999523,,476976.279,8,400,,,
sequence,flow.Sequence,4_76,2023-11-01T18:00:13.598Z,,0,,,3233.527999999991,completion,,,,,false,,,,476953.7999999523,476953.5,473684.488,473698.39999985695,473719.972,476976.279,8,400,,,
trial,html.Screen,4_77_0,2023-11-01T18:00:16.306Z,,0,2,,2684.820999904652,response,ISIC_0009960.JPG,10,ISIC_0013766.JPG,ISIC_0009960.JPG,false,1,keypress(m),500,479661.39999985695,479661.09999990463,476950.773,476953.7999999523,476976.279,479685.303,8,400,28,,ISIC_0013766.JPG
break,html.Screen,4_77_1,2023-11-01T18:00:16.307Z,,0,,,NaN,,,,,,false,,,,479662.2999999523,479662,,479661.59999990463,,479685.303,8,400,,,
break_continue,html.Screen,4_77_2,2023-11-01T18:00:16.307Z,,0,,,NaN,,,,,,false,,,,479662.69999980927,479662.59999990463,,479662.5,,479685.303,8,400,,,
sequence,flow.Sequence,4_77,2023-11-01T18:00:16.307Z,,0,,,2686.320999904652,completion,,,,,false,,,,479662.89999985695,479662.59999990463,476950.773,476953.7999999523,476976.279,479685.303,8,400,,,
trial,html.Screen,4_78_0,2023-11-01T18:00:18.869Z,,0,2,,2539.496999952302,response,ISIC_0024865.JPG,10,ISIC_0010400.JPG,ISIC_0024865.JPG,false,1,keypress(m),500,482225.09999990463,482224.7999999523,479651.985,479662.89999985695,479685.303,482260.55,8,400,29,,ISIC_0010400.JPG
break,html.Screen,4_78_1,2023-11-01T18:00:18.871Z,,0,,,NaN,,,,,,false,,,,482226.59999990463,482225.7999999523,,482225.39999985695,,482260.55,8,400,,,
break_continue,html.Screen,4_78_2,2023-11-01T18:00:18.871Z,,0,,,NaN,,,,,,false,,,,482227,482226.89999985695,,482226.7999999523,,482260.55,8,400,,,
sequence,flow.Sequence,4_78,2023-11-01T18:00:18.871Z,,0,,,2541.5969998569344,completion,,,,,false,,,,482227.09999990463,482226.89999985695,479651.985,479662.89999985695,479685.303,482260.55,8,400,,,
trial,html.Screen,4_79_0,2023-11-01T18:00:21.409Z,,0,2,,2503.9500000000116,response,ISIC_1440377.JPG,13,ISIC_8951909.JPG,ISIC_1440377.JPG,false,1,keypress(m),500,484764.69999980927,484764.5,482225.63,482227.2999999523,482260.55,484789.36,8,400,30,,ISIC_8951909.JPG
break,html.Screen,4_79_1,2023-11-01T18:00:21.410Z,,0,,,NaN,,,,,,false,,,,484765.69999980927,484765.39999985695,,484764.89999985695,,484789.36,8,400,,,
break_continue,html.Screen,4_79_2,2023-11-01T18:00:21.410Z,,0,,,NaN,,,,,,false,,,,484766,484765.89999985695,,484765.7999999523,,484789.36,8,400,,,
sequence,flow.Sequence,4_79,2023-11-01T18:00:21.410Z,,0,,,2505.3499998569605,completion,,,,,false,,,,484766.19999980927,484765.89999985695,482225.63,482227.19999980927,482260.55,484789.36,8,400,,,
trial,html.Screen,4_80_0,2023-11-01T18:00:24.103Z,,0,2,,2669.2399999046465,response,ISIC_0000291.JPG,6,ISIC_0064623.JPG,ISIC_0000291.JPG,false,1,keypress(m),500,487458.89999985695,487458.59999990463,484751.508,484766.2999999523,484789.36,487483.097,8,400,31,,ISIC_0064623.JPG
break,html.Screen,4_80_1,2023-11-01T18:00:24.105Z,,0,,,NaN,,,,,,false,,,,487460.39999985695,487459.59999990463,,487459.19999980927,,487483.097,8,400,,,
break_continue,html.Screen,4_80_2,2023-11-01T18:00:24.105Z,,0,,,NaN,,,,,,false,,,,487460.7999999523,487460.59999990463,,487460.5,,487483.097,8,400,,,
sequence,flow.Sequence,4_80,2023-11-01T18:00:24.105Z,,0,,,2671.2399999046465,completion,,,,,false,,,,487460.7999999523,487460.59999990463,484751.508,484766.2999999523,484789.36,487483.097,8,400,,,
trial,html.Screen,4_81_0,2023-11-01T18:00:35.933Z,,0,2,,20806.924,timeout,ISIC_0029639.JPG,9,ISIC_3163773.JPG,,false,,,500,499289.09999990463,499288.89999985695,487456.804,487461,487483.097,508290.021,8,400,32,,
break,html.Screen,4_81_1,2023-11-01T18:00:35.934Z,,0,,,NaN,,,,,,false,,,,499290.09999990463,499290,,499289.2999999523,,508290.021,8,400,,,
break_continue,html.Screen,4_81_2,2023-11-01T18:00:35.935Z,,0,,,NaN,,,,,,false,,,,499290.39999985695,499290.39999985695,,499290.2999999523,,508290.021,8,400,,,
sequence,flow.Sequence,4_81,2023-11-01T18:00:35.935Z,,0,,,11807.30299985694,completion,,,,,false,,,,499290.59999990463,499290.39999985695,487456.804,487461,487483.097,508290.021,8,400,,,
trial,html.Screen,4_82_0,2023-11-01T18:00:56.930Z,,0,2,,13590.061999999976,timeout,ISIC_0032892.JPG,502,ISIC_7051167.JPG,,false,,,500,520285.39999985695,520285,508273.547,499290.7999999523,508290.021,521880.083,8,400,33,,
break,html.Screen,4_82_1,2023-11-01T18:00:56.931Z,,0,,,NaN,,,,,,false,,,,520286.7999999523,520286.39999985695,,520285.69999980927,,521880.083,8,400,,,
break_continue,html.Screen,4_82_2,2023-11-01T18:00:56.932Z,,0,,,NaN,,,,,,false,,,,520287.39999985695,520287.19999980927,,520287,,521880.083,8,400,,,
sequence,flow.Sequence,4_82,2023-11-01T18:00:56.932Z,,0,,,11997.178999809257,completion,,,,,false,,,,520287.7999999523,520287.19999980927,508273.547,499290.7999999523,508290.021,521880.083,8,400,,,
trial,html.Screen,4_83_0,2023-11-01T18:01:02.025Z,,0,2,,3500.917000000016,response,ISIC_0030921.JPG,78,ISIC_2399613.JPG,ISIC_2399613.JPG,false,0,keypress(z),500,525381.2999999523,525381,521863.382,520288,521880.083,525405.572,8,400,34,,ISIC_0030921.JPG
break,html.Screen,4_83_1,2023-11-01T18:01:02.026Z,,0,,,NaN,,,,,,false,,,,525382.1999998093,525382,,525381.5,,525405.572,8,400,,,
break_continue,html.Screen,4_83_2,2023-11-01T18:01:02.027Z,,0,,,NaN,,,,,,false,,,,525382.5999999046,525382.5,,525382.2999999523,,525405.572,8,400,,,
sequence,flow.Sequence,4_83,2023-11-01T18:01:02.027Z,,0,,,3502.417000000016,completion,,,,,false,,,,525382.6999998093,525382.5,521863.382,520287.89999985695,521880.083,525405.572,8,400,,,
trial,html.Screen,4_84_0,2023-11-01T18:01:05.760Z,,0,2,,3709.7279999522725,response,ISIC_0071430.JPG,11,ISIC_0033037.JPG,ISIC_0033037.JPG,false,0,keypress(z),500,529115.6999998093,529115.2999999523,525370.898,525382.899999857,525405.572,529139.629,8,400,35,,ISIC_0071430.JPG
break,html.Screen,4_84_1,2023-11-01T18:01:05.761Z,,0,,,NaN,,,,,,false,,,,529117,529116.2999999523,,529115.7999999523,,529139.629,8,400,,,
break_continue,html.Screen,4_84_2,2023-11-01T18:01:05.762Z,,0,,,NaN,,,,,,false,,,,529117.399999857,529117.2999999523,,529117.1999998093,,529139.629,8,400,,,
sequence,flow.Sequence,4_84,2023-11-01T18:01:05.762Z,,0,,,3711.7279999522725,completion,,,,,false,,,,529117.5,529117.2999999523,525370.898,525382.7999999523,525405.572,529139.629,8,400,,,
trial,html.Screen,4_85_0,2023-11-01T18:01:09.380Z,,0,2,,3595.871000000043,response,ISIC_9050826.JPG,7,ISIC_0067160.JPG,ISIC_0067160.JPG,false,0,keypress(z),500,532735.7999999523,532735.5,529114.599,529117.5999999046,529139.629,532760.012,8,400,36,,ISIC_9050826.JPG
break,html.Screen,4_85_1,2023-11-01T18:01:09.381Z,,0,,,NaN,,,,,,false,,,,532737.1999998093,532736.399999857,,532735.899999857,,532760.012,8,400,,,
break_continue,html.Screen,4_85_2,2023-11-01T18:01:09.382Z,,0,,,NaN,,,,,,false,,,,532737.5,532737.5,,532737.399999857,,532760.012,8,400,,,
sequence,flow.Sequence,4_85,2023-11-01T18:01:09.382Z,,0,,,3597.871000000043,completion,,,,,false,,,,532737.6999998093,532737.5,529114.599,529117.5999999046,529139.629,532760.012,8,400,,,
trial,html.Screen,4_86_0,2023-11-01T18:01:12.232Z,,0,2,,2827.387999856961,response,ISIC_7185036.JPG,7,ISIC_0027620.JPG,ISIC_7185036.JPG,false,1,keypress(m),500,535587.6999998093,535587.399999857,532721.237,532737.899999857,532760.012,535611.662,8,400,37,,ISIC_0027620.JPG
break,html.Screen,4_86_1,2023-11-01T18:01:12.233Z,,0,,,NaN,,,,,,false,,,,535589.1999998093,535588.5,,535587.899999857,,535611.662,8,400,,,
break_continue,html.Screen,4_86_2,2023-11-01T18:01:12.234Z,,0,,,NaN,,,,,,false,,,,535589.5999999046,535589.5,,535589.2999999523,,535611.662,8,400,,,
sequence,flow.Sequence,4_86,2023-11-01T18:01:12.234Z,,0,,,2829.488000000012,completion,,,,,false,,,,535589.899999857,535589.5,532721.237,532737.7999999523,532760.012,535611.662,8,400,,,
trial,html.Screen,4_87_0,2023-11-01T18:01:15.616Z,,0,2,,3359.9379999046214,response,ISIC_0034294.JPG,6,ISIC_5393367.JPG,ISIC_5393367.JPG,false,0,keypress(z),500,538971.7999999523,538971.5999999046,535582.871,535590.0999999046,535611.662,538995.804,8,400,38,,ISIC_0034294.JPG
break,html.Screen,4_87_1,2023-11-01T18:01:15.617Z,,0,,,NaN,,,,,,false,,,,538972.899999857,538972.5,,538972.0999999046,,538995.804,8,400,,,
break_continue,html.Screen,4_87_2,2023-11-01T18:01:15.617Z,,0,,,NaN,,,,,,false,,,,538973.1999998093,538973.0999999046,,538972.899999857,,538995.804,8,400,,,
sequence,flow.Sequence,4_87,2023-11-01T18:01:15.617Z,,0,,,3361.4379999046214,completion,,,,,false,,,,538973.2999999523,538973.0999999046,535582.871,535590.0999999046,535611.662,538995.804,8,400,,,
trial,html.Screen,4_88_0,2023-11-01T18:01:18.789Z,,0,2,,3149.095999856945,response,ISIC_6017985.JPG,7,ISIC_8436194.JPG,ISIC_8436194.JPG,false,0,keypress(z),500,542145.1999998093,542144.899999857,538959.716,538973.399999857,538995.804,542169.345,8,400,39,,ISIC_6017985.JPG
break,html.Screen,4_88_1,2023-11-01T18:01:18.791Z,,0,,,NaN,,,,,,false,,,,542146.5999999046,542146,,542145.5,,542169.345,8,400,,,
break_continue,html.Screen,4_88_2,2023-11-01T18:01:18.791Z,,0,,,NaN,,,,,,false,,,,542147,542146.899999857,,542146.7999999523,,542169.345,8,400,,,
sequence,flow.Sequence,4_88,2023-11-01T18:01:18.791Z,,0,,,3151.095999856945,completion,,,,,false,,,,542147.1999998093,542146.899999857,538959.716,538973.2999999523,538995.804,542169.345,8,400,,,
trial,html.Screen,4_89_0,2023-11-01T18:01:22.047Z,,0,2,,3232.854999809293,response,ISIC_0005319.JPG,11,ISIC_8584239.JPG,ISIC_0005319.JPG,false,1,keypress(m),500,545402.399999857,545402.1999998093,542141.582,542147.1999998093,542169.345,545426.579,8,400,40,,ISIC_8584239.JPG
break,html.Screen,4_89_1,2023-11-01T18:01:22.048Z,,0,,,NaN,,,,,,false,,,,545403.7999999523,545403.0999999046,,545402.5999999046,,545426.579,8,400,,,
break_continue,html.Screen,4_89_2,2023-11-01T18:01:22.048Z,,0,,,NaN,,,,,,false,,,,545404.1999998093,545404.0999999046,,545404,,545426.579,8,400,,,
sequence,flow.Sequence,4_89,2023-11-01T18:01:22.048Z,,0,,,3234.7549999046605,completion,,,,,false,,,,545404.2999999523,545404.0999999046,542141.582,542147.1999998093,542169.345,545426.579,8,400,,,
trial,html.Screen,4_90_0,2023-11-01T18:01:24.835Z,,0,2,,2763.920999999973,response,ISIC_0032721.JPG,5,ISIC_9940466.JPG,ISIC_9940466.JPG,false,0,keypress(z),500,548190.6999998093,548190.5,545395.337,545404.5,545426.579,548214.649,8,400,41,,ISIC_0032721.JPG
break,html.Screen,4_90_1,2023-11-01T18:01:24.836Z,,0,,,NaN,,,,,,false,,,,548192.0999999046,548191.399999857,,548190.899999857,,548214.649,8,400,,,
break_continue,html.Screen,4_90_2,2023-11-01T18:01:24.837Z,,0,,,NaN,,,,,,false,,,,548192.5,548192.399999857,,548192.2999999523,,548214.649,8,400,,,
sequence,flow.Sequence,4_90,2023-11-01T18:01:24.837Z,,0,,,2765.820999856922,completion,,,,,false,,,,548192.5999999046,548192.399999857,545395.337,545404.399999857,545426.579,548214.649,8,400,,,
trial,html.Screen,4_91_0,2023-11-01T18:01:27.608Z,,0,2,,2748.851000000024,response,ISIC_0033636.JPG,8,ISIC_2500254.JPG,ISIC_2500254.JPG,false,0,keypress(z),500,550963.7999999523,550963.5,548176.413,548192.6999998093,548214.649,550988.072,8,400,42,,ISIC_0033636.JPG
break,html.Screen,4_91_1,2023-11-01T18:01:27.609Z,,0,,,NaN,,,,,,false,,,,550965.1999998093,550964.5,,550963.899999857,,550988.072,8,400,,,
break_continue,html.Screen,4_91_2,2023-11-01T18:01:27.610Z,,0,,,NaN,,,,,,false,,,,550965.5,550965.5,,550965.2999999523,,550988.072,8,400,,,
sequence,flow.Sequence,4_91,2023-11-01T18:01:27.610Z,,0,,,2750.851000000024,completion,,,,,false,,,,550965.6999998093,550965.5,548176.413,548192.6999998093,548214.649,550988.072,8,400,,,
trial,html.Screen,4_92_0,2023-11-01T18:01:30.332Z,,0,2,,2699.4279999999562,response,ISIC_0013817.JPG,6,ISIC_9894782.JPG,ISIC_0013817.JPG,false,1,keypress(m),500,553687.7999999523,553687.5,550959.311,550965.7999999523,550988.072,553712.453,8,400,43,,ISIC_9894782.JPG
break,html.Screen,4_92_1,2023-11-01T18:01:30.333Z,,0,,,NaN,,,,,,false,,,,553689.1999998093,553688.5,,553688,,553712.453,8,400,,,
break_continue,html.Screen,4_92_2,2023-11-01T18:01:30.334Z,,0,,,NaN,,,,,,false,,,,553689.6999998093,553689.5999999046,,553689.5,,553712.453,8,400,,,
sequence,flow.Sequence,4_92,2023-11-01T18:01:30.334Z,,0,,,2701.527999904589,completion,,,,,false,,,,553689.899999857,553689.5999999046,550959.311,550965.6999998093,550988.072,553712.453,8,400,,,
trial,html.Screen,4_93_0,2023-11-01T18:01:32.928Z,,0,2,,2570.846999952337,response,ISIC_0030238.JPG,12,ISIC_0053493.JPG,ISIC_0053493.JPG,false,0,keypress(z),500,556283.6999998093,556283.2999999523,553688.265,553689.899999857,553712.453,556307.144,8,400,44,,ISIC_0030238.JPG
break,html.Screen,4_93_1,2023-11-01T18:01:32.929Z,,0,,,NaN,,,,,,false,,,,556284.5999999046,556284.2999999523,,556283.899999857,,556307.144,8,400,,,
break_continue,html.Screen,4_93_2,2023-11-01T18:01:32.929Z,,0,,,NaN,,,,,,false,,,,556284.899999857,556284.7999999523,,556284.5999999046,,556307.144,8,400,,,
sequence,flow.Sequence,4_93,2023-11-01T18:01:32.929Z,,0,,,2572.346999952337,completion,,,,,false,,,,556285.1999998093,556284.7999999523,553688.265,553689.899999857,553712.453,556307.144,8,400,,,
trial,html.Screen,4_94_0,2023-11-01T18:01:35.460Z,,0,2,,2507.9559999046614,response,ISIC_0053810.JPG,7,ISIC_0056364.JPG,ISIC_0056364.JPG,false,0,keypress(z),500,558815.399999857,558815.0999999046,556272.535,556285.2999999523,556307.144,558839.283,8,400,45,,ISIC_0053810.JPG
break,html.Screen,4_94_1,2023-11-01T18:01:35.461Z,,0,,,NaN,,,,,,false,,,,558816.899999857,558816.0999999046,,558815.5999999046,,558839.283,8,400,,,
break_continue,html.Screen,4_94_2,2023-11-01T18:01:35.461Z,,0,,,NaN,,,,,,false,,,,558817.2999999523,558817.1999998093,,558817.0999999046,,558839.283,8,400,,,
sequence,flow.Sequence,4_94,2023-11-01T18:01:35.462Z,,0,,,2510.055999809294,completion,,,,,false,,,,558817.5,558817.1999998093,556272.535,556285.1999998093,556307.144,558839.283,8,400,,,
trial,html.Screen,4_95_0,2023-11-01T18:01:38.026Z,,0,2,,2542.8169999045786,response,ISIC_5490257.JPG,7,ISIC_4566439.JPG,ISIC_5490257.JPG,false,1,keypress(m),500,561382.2999999523,561382.0999999046,558800.564,558817.5,558839.283,561406.495,8,400,46,,ISIC_4566439.JPG
break,html.Screen,4_95_1,2023-11-01T18:01:38.028Z,,0,,,NaN,,,,,,false,,,,561383.5,561383.2999999523,,561382.5999999046,,561406.495,8,400,,,
break_continue,html.Screen,4_95_2,2023-11-01T18:01:38.028Z,,0,,,NaN,,,,,,false,,,,561384.1999998093,561384,,561383.7999999523,,561406.495,8,400,,,
sequence,flow.Sequence,4_95,2023-11-01T18:01:38.029Z,,0,,,2544.716999999946,completion,,,,,false,,,,561384.399999857,561384,558800.564,558817.5,558839.283,561406.495,8,400,,,
trial,html.Screen,4_96_0,2023-11-01T18:01:46.084Z,,0,2,,8032.604999904637,response,ISIC_0032723.JPG,8,ISIC_0029007.JPG,ISIC_0029007.JPG,false,0,keypress(z),500,569439.5,569439.0999999046,561370.916,561384.5,561406.495,569463.199,8,400,47,,ISIC_0032723.JPG
break,html.Screen,4_96_1,2023-11-01T18:01:46.085Z,,0,,,NaN,,,,,,false,,,,569440.7999999523,569440.0999999046,,569439.5999999046,,569463.199,8,400,,,
break_continue,html.Screen,4_96_2,2023-11-01T18:01:46.085Z,,0,,,NaN,,,,,,false,,,,569441.1999998093,569441.0999999046,,569441,,569463.199,8,400,,,
sequence,flow.Sequence,4_96,2023-11-01T18:01:46.086Z,,0,,,8034.604999904637,completion,,,,,false,,,,569441.399999857,569441.0999999046,561370.916,561384.5,561406.495,569463.199,8,400,,,
trial,html.Screen,4_97_0,2023-11-01T18:01:50.815Z,,0,2,,4707.300999999978,response,ISIC_0025464.JPG,6,ISIC_8463871.JPG,ISIC_8463871.JPG,false,0,keypress(z),500,574170.7999999523,574170.5,569436.422,569441.399999857,569463.199,574195.388,8,400,48,,ISIC_0025464.JPG
break,html.Screen,4_97_1,2023-11-01T18:01:50.816Z,,0,,,NaN,,,,,,false,,,,574171.7999999523,574171.5,,574171,,574195.388,8,400,,,
break_continue,html.Screen,4_97_2,2023-11-01T18:01:50.816Z,,0,,,NaN,,,,,,false,,,,574172.2999999523,574172.0999999046,,574171.899999857,,574195.388,8,400,,,
sequence,flow.Sequence,4_97,2023-11-01T18:01:50.817Z,,0,,,4708.90099990461,completion,,,,,false,,,,574172.399999857,574172.0999999046,569436.422,569441.399999857,569463.199,574195.388,8,400,,,
trial,html.Screen,4_98_0,2023-11-01T18:01:58.515Z,,0,2,,7674.911999952281,response,ISIC_0072691.JPG,11,ISIC_3610783.JPG,ISIC_0072691.JPG,false,1,keypress(m),500,581870.5999999046,581870.2999999523,574165.451,574172.6999998093,574195.388,581894.946,8,400,49,,ISIC_3610783.JPG
break,html.Screen,4_98_1,2023-11-01T18:01:58.517Z,,0,,,NaN,,,,,,false,,,,581872.399999857,581871.5,,581871,,581894.946,8,400,,,
break_continue,html.Screen,4_98_2,2023-11-01T18:01:58.517Z,,0,,,NaN,,,,,,false,,,,581872.899999857,581872.6999998093,,581872.5,,581894.946,8,400,,,
sequence,flow.Sequence,4_98,2023-11-01T18:01:58.517Z,,0,,,7677.31199980923,completion,,,,,false,,,,581873.0999999046,581872.6999998093,574165.451,574172.5999999046,574195.388,581894.946,8,400,,,
trial,html.Screen,4_99_0,2023-11-01T18:02:10.019Z,,0,2,,11511.820999999996,timeout,ISIC_2151856.JPG,8,ISIC_0056979.JPG,,false,,,500,593374.5,593374.1999998093,581866.971,581873.1999998093,581894.946,593406.767,8,400,50,,
break,html.Screen,4_99_1,2023-11-01T18:02:20.036Z,,0,,,9999.712999999989,timeout,,,,,false,,,,603391.1999998093,603389.931,593389.704,593374.5999999046,593406.767,603406.48,8,400,,,
break_continue,html.Screen,4_99_2,2023-11-01T22:13:25.829Z,,0,,,15065748.219999809,response,,,,,false,continue,keypress(Space),,15669185.19999981,15669154.69999981,603389.931,603391.399999857,603406.48,15669194.887,8,400,,,
sequence,flow.Sequence,4_99,2023-11-01T22:13:25.830Z,,0,,,15087259.753999809,completion,,,,,false,,,,15669185.399999857,15669154.69999981,581866.971,581873.0999999046,581894.946,15669194.887,8,400,,,
trial,html.Screen,4_100_0,2023-11-01T22:13:31.262Z,,0,3,,5422.312999809161,response,ISIC_9219692.JPG,7,ISIC_0024720.JPG,ISIC_9219692.JPG,false,1,keypress(m),500,15674617.599999905,15674617.19999981,15669178.227,15669185.399999857,15669194.887,15674642.024,8,400,1,,ISIC_0024720.JPG
break,html.Screen,4_100_1,2023-11-01T22:13:31.264Z,,0,,,NaN,,,,,,false,,,,15674619.299999952,15674619.099999905,,15674617.799999952,,15674642.024,8,400,,,
break_continue,html.Screen,4_100_2,2023-11-01T22:13:31.264Z,,0,,,NaN,,,,,,false,,,,15674619.899999857,15674619.69999981,,15674619.599999905,,15674642.024,8,400,,,
sequence,flow.Sequence,4_100,2023-11-01T22:13:31.264Z,,0,,,5424.812999809161,completion,,,,,false,,,,15674620.099999905,15674619.69999981,15669178.227,15669185.399999857,15669194.887,15674642.024,8,400,,,
trial,html.Screen,4_101_0,2023-11-01T22:13:39.208Z,,0,3,,7921.87599985674,response,ISIC_7748311.JPG,11,ISIC_0067893.JPG,ISIC_7748311.JPG,false,1,keypress(m),500,15682564.099999905,15682563.899999857,15674612.218,15674620.19999981,15674642.024,15682588.827,8,400,2,,ISIC_0067893.JPG
break,html.Screen,4_101_1,2023-11-01T22:13:39.210Z,,0,,,NaN,,,,,,false,,,,15682565.799999952,15682565.099999905,,15682564.399999857,,15682588.827,8,400,,,
break_continue,html.Screen,4_101_2,2023-11-01T22:13:39.210Z,,0,,,NaN,,,,,,false,,,,15682566.099999905,15682566,,15682565.899999857,,15682588.827,8,400,,,
sequence,flow.Sequence,4_101,2023-11-01T22:13:39.210Z,,0,,,7923.975999999791,completion,,,,,false,,,,15682566.299999952,15682566,15674612.218,15674620.19999981,15674642.024,15682588.827,8,400,,,
trial,html.Screen,4_102_0,2023-11-01T22:13:44.351Z,,0,3,,5117.77299990505,response,ISIC_0068897.JPG,10,ISIC_5065360.JPG,ISIC_5065360.JPG,false,0,keypress(z),500,15687707,15687706.599999905,15682555.653,15682566.399999857,15682588.827,15687730.678,8,400,3,,ISIC_0068897.JPG
break,html.Screen,4_102_1,2023-11-01T22:13:44.352Z,,0,,,NaN,,,,,,false,,,,15687708.099999905,15687707.5,,15687707.19999981,,15687730.678,8,400,,,
break_continue,html.Screen,4_102_2,2023-11-01T22:13:44.353Z,,0,,,NaN,,,,,,false,,,,15687708.69999981,15687708.5,,15687708.299999952,,15687730.678,8,400,,,
sequence,flow.Sequence,4_102,2023-11-01T22:13:44.353Z,,0,,,5119.673000000417,completion,,,,,false,,,,15687708.799999952,15687708.5,15682555.653,15682566.299999952,15682588.827,15687730.678,8,400,,,
trial,html.Screen,4_103_0,2023-11-01T22:13:47.257Z,,0,3,,2881.521999809891,response,ISIC_7025208.JPG,6,ISIC_5457229.JPG,ISIC_5457229.JPG,false,0,keypress(z),500,15690612.5,15690612.19999981,15687699.602,15687708.899999857,15687730.678,15690636.601,8,400,4,,ISIC_7025208.JPG
break,html.Screen,4_103_1,2023-11-01T22:13:47.258Z,,0,,,NaN,,,,,,false,,,,15690613.899999857,15690613.19999981,,15690612.799999952,,15690636.601,8,400,,,
break_continue,html.Screen,4_103_2,2023-11-01T22:13:47.259Z,,0,,,NaN,,,,,,false,,,,15690614.299999952,15690614.19999981,,15690614,,15690636.601,8,400,,,
sequence,flow.Sequence,4_103,2023-11-01T22:13:47.259Z,,0,,,2883.521999809891,completion,,,,,false,,,,15690614.399999857,15690614.19999981,15687699.602,15687708.899999857,15687730.678,15690636.601,8,400,,,
trial,html.Screen,4_104_0,2023-11-01T22:13:49.871Z,,0,3,,2589.8990000002086,response,ISIC_9799596.JPG,6,ISIC_0054954.JPG,ISIC_9799596.JPG,false,1,keypress(m),500,15693226.799999952,15693226.5,15690602.308,15690614.5,15690636.601,15693251.084,8,400,5,,ISIC_0054954.JPG
break,html.Screen,4_104_1,2023-11-01T22:13:49.872Z,,0,,,NaN,,,,,,false,,,,15693227.69999981,15693227.5,,15693227,,15693251.084,8,400,,,
break_continue,html.Screen,4_104_2,2023-11-01T22:13:49.872Z,,0,,,NaN,,,,,,false,,,,15693228,15693227.899999857,,15693227.899999857,,15693251.084,8,400,,,
sequence,flow.Sequence,4_104,2023-11-01T22:13:49.872Z,,0,,,2591.2989998571575,completion,,,,,false,,,,15693228.099999905,15693227.899999857,15690602.308,15690614.5,15690636.601,15693251.084,8,400,,,
trial,html.Screen,4_105_0,2023-11-01T22:13:52.440Z,,0,3,,2543.91599999927,response,ISIC_9482251.JPG,9,ISIC_0002118.JPG,ISIC_0002118.JPG,false,0,keypress(z),500,15695795.399999857,15695795,15693226.916,15693228.299999952,15693251.084,15695819.229,8,400,6,,ISIC_9482251.JPG
break,html.Screen,4_105_1,2023-11-01T22:13:52.441Z,,0,,,NaN,,,,,,false,,,,15695796.799999952,15695796,,15695795.599999905,,15695819.229,8,400,,,
break_continue,html.Screen,4_105_2,2023-11-01T22:13:52.441Z,,0,,,NaN,,,,,,false,,,,15695797.19999981,15695797.099999905,,15695796.899999857,,15695819.229,8,400,,,
sequence,flow.Sequence,4_105,2023-11-01T22:13:52.442Z,,0,,,2546.0159999039024,completion,,,,,false,,,,15695797.299999952,15695797.099999905,15693226.916,15693228.19999981,15693251.084,15695819.229,8,400,,,
trial,html.Screen,4_106_0,2023-11-01T22:13:55.121Z,,0,3,,2657.1709998566657,response,ISIC_5832901.JPG,10,ISIC_2668481.JPG,ISIC_5832901.JPG,false,1,keypress(m),500,15698476.799999952,15698476.399999857,15695794.034,15695797.399999857,15695819.229,15698500.454,8,400,7,,ISIC_2668481.JPG
break,html.Screen,4_106_1,2023-11-01T22:13:55.122Z,,0,,,NaN,,,,,,false,,,,15698477.799999952,15698477.599999905,,15698477,,15698500.454,8,400,,,
break_continue,html.Screen,4_106_2,2023-11-01T22:13:55.122Z,,0,,,NaN,,,,,,false,,,,15698478.19999981,15698478,,15698477.899999857,,15698500.454,8,400,,,
sequence,flow.Sequence,4_106,2023-11-01T22:13:55.123Z,,0,,,2658.770999999717,completion,,,,,false,,,,15698478.399999857,15698478,15695794.034,15695797.299999952,15695819.229,15698500.454,8,400,,,
trial,html.Screen,4_107_0,2023-11-01T22:13:58.373Z,,0,3,,3228.2459998093545,response,ISIC_0013840.JPG,11,ISIC_0032182.JPG,ISIC_0013840.JPG,false,1,keypress(m),500,15701729,15701728.69999981,15698461.839,15698478.5,15698500.454,15701752.62,8,400,8,,ISIC_0032182.JPG
break,html.Screen,4_107_1,2023-11-01T22:13:58.375Z,,0,,,NaN,,,,,,false,,,,15701730.399999857,15701729.69999981,,15701729.19999981,,15701752.62,8,400,,,
break_continue,html.Screen,4_107_2,2023-11-01T22:13:58.375Z,,0,,,NaN,,,,,,false,,,,15701730.799999952,15701730.599999905,,15701730.5,,15701752.62,8,400,,,
sequence,flow.Sequence,4_107,2023-11-01T22:13:58.375Z,,0,,,3230.145999904722,completion,,,,,false,,,,15701730.899999857,15701730.599999905,15698461.839,15698478.5,15698500.454,15701752.62,8,400,,,
trial,html.Screen,4_108_0,2023-11-01T22:14:00.961Z,,0,3,,2563.3800000008196,response,ISIC_5221917.JPG,10,ISIC_4425766.JPG,ISIC_4425766.JPG,false,0,keypress(z),500,15704316.299999952,15704316,15701727.695,15701731,15701752.62,15704319.791,8,400,9,,ISIC_5221917.JPG
break,html.Screen,4_108_1,2023-11-01T22:14:00.961Z,,0,,,NaN,,,,,,false,,,,15704317.299999952,15704317,,15704316.5,,15704319.791,8,400,,,
break_continue,html.Screen,4_108_2,2023-11-01T22:14:00.962Z,,0,,,NaN,,,,,,false,,,,15704317.599999905,15704317.5,,15704317.299999952,,15704319.791,8,400,,,
sequence,flow.Sequence,4_108,2023-11-01T22:14:00.962Z,,0,,,2564.8800000008196,completion,,,,,false,,,,15704317.69999981,15704317.5,15701727.695,15701731,15701752.62,15704319.791,8,400,,,
trial,html.Screen,4_109_0,2023-11-01T22:14:03.478Z,,0,3,,2514.108999857679,response,ISIC_0028705.JPG,8,ISIC_0025088.JPG,ISIC_0025088.JPG,false,0,keypress(z),500,15706834.19999981,15706833.899999857,15704302.896,15704317.799999952,15704319.791,15706857.886,8,400,10,,ISIC_0028705.JPG
break,html.Screen,4_109_1,2023-11-01T22:14:03.480Z,,0,,,NaN,,,,,,false,,,,15706835.299999952,15706835,,15706834.5,,15706857.886,8,400,,,
break_continue,html.Screen,4_109_2,2023-11-01T22:14:03.481Z,,0,,,NaN,,,,,,false,,,,15706836.899999857,15706836.69999981,,15706836.5,,15706857.886,8,400,,,
sequence,flow.Sequence,4_109,2023-11-01T22:14:03.481Z,,0,,,2516.9089998099953,completion,,,,,false,,,,15706837.099999905,15706836.69999981,15704302.896,15704317.799999952,15704319.791,15706857.886,8,400,,,
trial,html.Screen,4_110_0,2023-11-01T22:14:06.077Z,,0,3,,2574.713999904692,response,ISIC_2456538.JPG,11,ISIC_0027936.JPG,ISIC_2456538.JPG,false,1,keypress(m),500,15709432.899999857,15709432.599999905,15706828.718,15706837.299999952,15706857.886,15709457.115,8,400,11,,ISIC_0027936.JPG
break,html.Screen,4_110_1,2023-11-01T22:14:06.078Z,,0,,,NaN,,,,,,false,,,,15709433.799999952,15709433.599999905,,15709433.099999905,,15709457.115,8,400,,,
break_continue,html.Screen,4_110_2,2023-11-01T22:14:06.078Z,,0,,,NaN,,,,,,false,,,,15709434.19999981,15709434.099999905,,15709434,,15709457.115,8,400,,,
sequence,flow.Sequence,4_110,2023-11-01T22:14:06.079Z,,0,,,2576.213999904692,completion,,,,,false,,,,15709434.299999952,15709434.099999905,15706828.718,15706837.19999981,15706857.886,15709457.115,8,400,,,
trial,html.Screen,4_111_0,2023-11-01T22:14:08.627Z,,0,3,,2524.984999904409,response,ISIC_0033564.JPG,11,ISIC_6878417.JPG,ISIC_6878417.JPG,false,0,keypress(z),500,15711982.399999857,15711982.099999905,15709428.975,15709434.399999857,15709457.115,15712006.082,8,400,12,,ISIC_0033564.JPG
break,html.Screen,4_111_1,2023-11-01T22:14:08.628Z,,0,,,NaN,,,,,,false,,,,15711983.69999981,15711983,,15711982.5,,15712006.082,8,400,,,
break_continue,html.Screen,4_111_2,2023-11-01T22:14:08.628Z,,0,,,NaN,,,,,,false,,,,15711984,15711983.899999857,,15711983.799999952,,15712006.082,8,400,,,
sequence,flow.Sequence,4_111,2023-11-01T22:14:08.628Z,,0,,,2526.7849998567253,completion,,,,,false,,,,15711984.19999981,15711983.899999857,15709428.975,15709434.399999857,15709457.115,15712006.082,8,400,,,
trial,html.Screen,4_112_0,2023-11-01T22:14:11.341Z,,0,3,,2690.5179999042302,response,ISIC_0033024.JPG,6,ISIC_0055081.JPG,ISIC_0033024.JPG,false,1,keypress(m),500,15714696.899999857,15714696.599999905,15711979.275,15711984.299999952,15712006.082,15714720.924,8,400,13,,ISIC_0055081.JPG
break,html.Screen,4_112_1,2023-11-01T22:14:11.343Z,,0,,,NaN,,,,,,false,,,,15714698.299999952,15714697.599999905,,15714697.099999905,,15714720.924,8,400,,,
break_continue,html.Screen,4_112_2,2023-11-01T22:14:11.343Z,,0,,,NaN,,,,,,false,,,,15714698.599999905,15714698.5,,15714698.399999857,,15714720.924,8,400,,,
sequence,flow.Sequence,4_112,2023-11-01T22:14:11.343Z,,0,,,2692.4179999995977,completion,,,,,false,,,,15714698.799999952,15714698.5,15711979.275,15711984.299999952,15712006.082,15714720.924,8,400,,,
trial,html.Screen,4_113_0,2023-11-01T22:14:13.879Z,,0,3,,2513.075999999419,response,ISIC_2355513.JPG,10,ISIC_0033083.JPG,ISIC_2355513.JPG,false,1,keypress(m),500,15717234.19999981,15717234,15714682.416,15714698.899999857,15714720.924,15717258.345,8,400,14,,ISIC_0033083.JPG
break,html.Screen,4_113_1,2023-11-01T22:14:13.879Z,,0,,,NaN,,,,,,false,,,,15717235.299999952,15717234.899999857,,15717234.5,,15717258.345,8,400,,,
break_continue,html.Screen,4_113_2,2023-11-01T22:14:13.880Z,,0,,,NaN,,,,,,false,,,,15717235.5,15717235.5,,15717235.299999952,,15717258.345,8,400,,,
sequence,flow.Sequence,4_113,2023-11-01T22:14:13.880Z,,0,,,2514.575999999419,completion,,,,,false,,,,15717235.69999981,15717235.5,15714682.416,15714698.899999857,15714720.924,15717258.345,8,400,,,
trial,html.Screen,4_114_0,2023-11-01T22:14:16.449Z,,0,3,,2546.254999903962,response,ISIC_4298761.JPG,8,ISIC_0032408.JPG,ISIC_4298761.JPG,false,1,keypress(m),500,15719804.799999952,15719804.599999905,15717225.384,15717235.799999952,15717258.345,15719828.658,8,400,15,,ISIC_0032408.JPG
break,html.Screen,4_114_1,2023-11-01T22:14:16.451Z,,0,,,NaN,,,,,,false,,,,15719806.299999952,15719805.5,,15719805.099999905,,15719828.658,8,400,,,
break_continue,html.Screen,4_114_2,2023-11-01T22:14:16.451Z,,0,,,NaN,,,,,,false,,,,15719806.599999905,15719806.5,,15719806.399999857,,15719828.658,8,400,,,
sequence,flow.Sequence,4_114,2023-11-01T22:14:16.451Z,,0,,,2548.1549999993294,completion,,,,,false,,,,15719806.799999952,15719806.5,15717225.384,15717235.799999952,15717258.345,15719828.658,8,400,,,
trial,html.Screen,4_115_0,2023-11-01T22:14:20.379Z,,0,3,,3905.541999809444,response,ISIC_9685928.JPG,7,ISIC_0010597.JPG,ISIC_9685928.JPG,false,1,keypress(m),500,15723734.5,15723734.19999981,15719792.941,15719806.899999857,15719828.658,15723758.851,8,400,16,,ISIC_0010597.JPG
break,html.Screen,4_115_1,2023-11-01T22:14:20.380Z,,0,,,NaN,,,,,,false,,,,15723735.899999857,15723735.19999981,,15723734.69999981,,15723758.851,8,400,,,
break_continue,html.Screen,4_115_2,2023-11-01T22:14:20.380Z,,0,,,NaN,,,,,,false,,,,15723736.299999952,15723736.099999905,,15723736,,15723758.851,8,400,,,
sequence,flow.Sequence,4_115,2023-11-01T22:14:20.381Z,,0,,,3907.4419999048114,completion,,,,,false,,,,15723736.299999952,15723736.099999905,15719792.941,15719806.799999952,15719828.658,15723758.851,8,400,,,
trial,html.Screen,4_116_0,2023-11-01T22:14:22.866Z,,0,3,,2462.8489998094738,response,ISIC_0538042.JPG,12,ISIC_0033272.JPG,ISIC_0538042.JPG,false,1,keypress(m),500,15726221.899999857,15726221.69999981,15723731.407,15723736.5,15723758.851,15726245.686,8,400,17,,ISIC_0033272.JPG
break,html.Screen,4_116_1,2023-11-01T22:14:22.867Z,,0,,,NaN,,,,,,false,,,,15726222.899999857,15726222.69999981,,15726222.19999981,,15726245.686,8,400,,,
break_continue,html.Screen,4_116_2,2023-11-01T22:14:22.868Z,,0,,,NaN,,,,,,false,,,,15726223.299999952,15726223.19999981,,15726223,,15726245.686,8,400,,,
sequence,flow.Sequence,4_116,2023-11-01T22:14:22.868Z,,0,,,2464.3489998094738,completion,,,,,false,,,,15726223.399999857,15726223.19999981,15723731.407,15723736.399999857,15723758.851,15726245.686,8,400,,,
trial,html.Screen,4_117_0,2023-11-01T22:14:25.766Z,,0,3,,2876.0139998085797,response,ISIC_5620802.JPG,8,ISIC_0069505.JPG,ISIC_5620802.JPG,false,1,keypress(m),500,15729122.099999905,15729121.69999981,15726207.132,15726223.5,15726245.686,15729146.201,8,400,18,,ISIC_0069505.JPG
break,html.Screen,4_117_1,2023-11-01T22:14:25.767Z,,0,,,NaN,,,,,,false,,,,15729122.899999857,15729122.69999981,,15729122.19999981,,15729146.201,8,400,,,
break_continue,html.Screen,4_117_2,2023-11-01T22:14:25.767Z,,0,,,NaN,,,,,,false,,,,15729123.399999857,15729123.19999981,,15729123.099999905,,15729146.201,8,400,,,
sequence,flow.Sequence,4_117,2023-11-01T22:14:25.768Z,,0,,,2877.5139998085797,completion,,,,,false,,,,15729123.5,15729123.19999981,15726207.132,15726223.5,15726245.686,15729146.201,8,400,,,
trial,html.Screen,4_118_0,2023-11-01T22:14:28.316Z,,0,3,,2525.8989999052137,response,ISIC_0063988.JPG,11,ISIC_4252887.JPG,ISIC_0063988.JPG,false,1,keypress(m),500,15731672.399999857,15731672.099999905,15729115.383,15729123.599999905,15729146.201,15731696.592,8,400,19,,ISIC_4252887.JPG
break,html.Screen,4_118_1,2023-11-01T22:14:28.318Z,,0,,,NaN,,,,,,false,,,,15731673.69999981,15731673,,15731672.5,,15731696.592,8,400,,,
break_continue,html.Screen,4_118_2,2023-11-01T22:14:28.318Z,,0,,,NaN,,,,,,false,,,,15731674.099999905,15731674,,15731673.899999857,,15731696.592,8,400,,,
sequence,flow.Sequence,4_118,2023-11-01T22:14:28.318Z,,0,,,2527.799000000581,completion,,,,,false,,,,15731674.299999952,15731674,15729115.383,15729123.5,15729146.201,15731696.592,8,400,,,
trial,html.Screen,4_119_0,2023-11-01T22:14:31.346Z,,0,3,,3005.1079998090863,response,ISIC_0029639.JPG,12,ISIC_0015180.JPG,ISIC_0029639.JPG,false,1,keypress(m),500,15734701.899999857,15734701.69999981,15731669.788,15731674.299999952,15731696.592,15734725.799,8,400,20,,ISIC_0015180.JPG
break,html.Screen,4_119_1,2023-11-01T22:14:31.347Z,,0,,,NaN,,,,,,false,,,,15734703.19999981,15734702.5,,15734702,,15734725.799,8,400,,,
break_continue,html.Screen,4_119_2,2023-11-01T22:14:31.348Z,,0,,,NaN,,,,,,false,,,,15734703.599999905,15734703.5,,15734703.399999857,,15734725.799,8,400,,,
sequence,flow.Sequence,4_119,2023-11-01T22:14:31.348Z,,0,,,3006.907999999821,completion,,,,,false,,,,15734703.799999952,15734703.5,15731669.788,15731674.299999952,15731696.592,15734725.799,8,400,,,
trial,html.Screen,4_120_0,2023-11-01T22:14:38.268Z,,0,3,,6898.100999856368,response,ISIC_0064393.JPG,6,ISIC_0011350.JPG,ISIC_0011350.JPG,false,0,keypress(z),500,15741624.099999905,15741623.899999857,15734688.376,15734703.799999952,15734725.799,15741645.404,8,400,21,,ISIC_0064393.JPG
break,html.Screen,4_120_1,2023-11-01T22:14:38.269Z,,0,,,NaN,,,,,,false,,,,15741625,15741624.799999952,,15741624.299999952,,15741645.404,8,400,,,
break_continue,html.Screen,4_120_2,2023-11-01T22:14:38.269Z,,0,,,NaN,,,,,,false,,,,15741625.299999952,15741625.19999981,,15741625.099999905,,15741645.404,8,400,,,
sequence,flow.Sequence,4_120,2023-11-01T22:14:38.269Z,,0,,,6899.400999808684,completion,,,,,false,,,,15741625.5,15741625.19999981,15734688.376,15734703.799999952,15734725.799,15741645.404,8,400,,,
trial,html.Screen,4_121_0,2023-11-01T22:14:41.872Z,,0,3,,3582.3959999531507,response,ISIC_0033625.JPG,11,ISIC_0062991.JPG,ISIC_0062991.JPG,false,0,keypress(z),500,15745228.099999905,15745227.799999952,15741628.019,15741625.5,15741645.404,15745250.749,8,400,22,,ISIC_0033625.JPG
break,html.Screen,4_121_1,2023-11-01T22:14:41.874Z,,0,,,NaN,,,,,,false,,,,15745229.599999905,15745228.69999981,,15745228.19999981,,15745250.749,8,400,,,
break_continue,html.Screen,4_121_2,2023-11-01T22:14:41.874Z,,0,,,NaN,,,,,,false,,,,15745230,15745229.899999857,,15745229.69999981,,15745250.749,8,400,,,
sequence,flow.Sequence,4_121,2023-11-01T22:14:41.874Z,,0,,,3584.4959998577833,completion,,,,,false,,,,15745230.19999981,15745229.899999857,15741628.019,15741625.5,15741645.404,15745250.749,8,400,,,
trial,html.Screen,4_122_0,2023-11-01T22:14:47.974Z,,0,3,,6078.751000000164,response,ISIC_7454699.JPG,8,ISIC_1177153.JPG,ISIC_1177153.JPG,false,0,keypress(z),500,15751329.69999981,15751329.5,15745212.811,15745230.19999981,15745250.749,15751353.402,8,400,23,,ISIC_7454699.JPG
break,html.Screen,4_122_1,2023-11-01T22:14:47.975Z,,0,,,NaN,,,,,,false,,,,15751331.19999981,15751330.399999857,,15751330,,15751353.402,8,400,,,
break_continue,html.Screen,4_122_2,2023-11-01T22:14:47.976Z,,0,,,NaN,,,,,,false,,,,15751331.799999952,15751331.69999981,,15751331.5,,15751353.402,8,400,,,
sequence,flow.Sequence,4_122,2023-11-01T22:14:47.976Z,,0,,,6080.950999809429,completion,,,,,false,,,,15751331.899999857,15751331.69999981,15745212.811,15745230.19999981,15745250.749,15751353.402,8,400,,,
trial,html.Screen,4_123_0,2023-11-01T22:14:57.885Z,,0,3,,9887.697999903932,response,ISIC_1641823.JPG,6,ISIC_5284935.JPG,ISIC_1641823.JPG,false,1,keypress(m),500,15761241.299999952,15761241.099999905,15751320.362,15751332.099999905,15751353.402,15761241.762,8,400,24,,ISIC_5284935.JPG
break,html.Screen,4_123_1,2023-11-01T22:14:57.886Z,,0,,,NaN,,,,,,false,,,,15761242.299999952,15761242.099999905,,15761241.599999905,,15761241.762,8,400,,,
break_continue,html.Screen,4_123_2,2023-11-01T22:14:57.887Z,,0,,,NaN,,,,,,false,,,,15761242.69999981,15761242.599999905,,15761242.5,,15761241.762,8,400,,,
sequence,flow.Sequence,4_123,2023-11-01T22:14:57.887Z,,0,,,9889.197999903932,completion,,,,,false,,,,15761243,15761242.599999905,15751320.362,15751332,15751353.402,15761241.762,8,400,,,
trial,html.Screen,4_124_0,2023-11-01T22:15:05.896Z,,0,3,,8009.737999999896,response,ISIC_9303594.JPG,9,ISIC_6805527.JPG,ISIC_9303594.JPG,false,1,keypress(m),500,15769251.69999981,15769251.5,15761225.074,15761243.099999905,15761241.762,15769275.827,8,400,25,,ISIC_6805527.JPG
break,html.Screen,4_124_1,2023-11-01T22:15:05.897Z,,0,,,NaN,,,,,,false,,,,15769252.5,15769252.299999952,,15769251.899999857,,15769275.827,8,400,,,
break_continue,html.Screen,4_124_2,2023-11-01T22:15:05.897Z,,0,,,NaN,,,,,,false,,,,15769253.399999857,15769253.299999952,,15769253.099999905,,15769275.827,8,400,,,
sequence,flow.Sequence,4_124,2023-11-01T22:15:05.898Z,,0,,,8011.537999952212,completion,,,,,false,,,,15769253.5,15769253.299999952,15761225.074,15761243.099999905,15761241.762,15769275.827,8,400,,,
trial,html.Screen,4_125_0,2023-11-01T22:15:15.949Z,,0,3,,10028.872999809682,response,ISIC_0032901.JPG,7,ISIC_4897852.JPG,ISIC_4897852.JPG,false,0,keypress(z),500,15779305.19999981,15779304.69999981,15769242.869,15769253.599999905,15769275.827,15779335.494,8,400,26,,ISIC_0032901.JPG
break,html.Screen,4_125_1,2023-11-01T22:15:15.950Z,,0,,,NaN,,,,,,false,,,,15779306.399999857,15779306,,15779305.399999857,,15779335.494,8,400,,,
break_continue,html.Screen,4_125_2,2023-11-01T22:15:15.951Z,,0,,,NaN,,,,,,false,,,,15779306.799999952,15779306.69999981,,15779306.5,,15779335.494,8,400,,,
