sender,sender_type,sender_id,timestamp,meta,,blockNo,condition,duration,ended_on,img_left,img_reveal,img_right,loser,practice,response,response_action,selection_duration,time_commit,time_end,time_render,time_run,time_show,time_switch,total_blocks,total_trials,trialNo,url,winner
informed_consent,html.Screen,0,2023-09-08T20:44:16.294Z,"{""labjs_version"":""20.2.4"",""labjs_build"":{""flavor"":""production"",""commit"":""f5b4a49f956347addd546a832a3327688c2c0fef""},""location"":""https://run.pavlovia.org/MurrayBennett/melanoma-2afc/?participant=6389301d2575b8e4c1e7cc5c&STUDY_ID=64f8c92207ba404bcb356c90&SESSION_ID=64fb876db922f4897a02b00b&platform=prolific"",""userAgent"":""Mozilla/5.0 (Windows NT 10.0; Win64; x64) AppleWebKit/537.36 (KHTML, like Gecko) Chrome/109.0.0.0 Safari/537.36"",""platform"":""Win32"",""language"":""en-US"",""locale"":""en-US"",""timeZone"":""America/New_York"",""timezoneOffset"":240,""screen_width"":1366,""screen_height"":768,""scroll_width"":1366,""scroll_height"":609,""window_innerWidth"":1366,""window_innerHeight"":657,""devicePixelRatio"":1}",,,,32165.92500009537,response,,,,,,consent,click button,,36966.2000002861,36955.90000009537,4706.44,4698.5,4789.975,37036.588,,,,"{""participant"":""6389301d2575b8e4c1e7cc5c"",""STUDY_ID"":""64f8c92207ba404bcb356c90"",""SESSION_ID"":""64fb876db922f4897a02b00b"",""platform"":""prolific""}",
Welcome,html.Screen,1,2023-09-08T20:45:28.412Z,,,,asymmetry,72044.31200009536,response,,,,,,continue,click button,,109083.90000009537,109080.90000009537,36952.883,36967.2000002861,37036.588,109085.337,,,,,
trial,html.Screen,2_0_0,2023-09-08T20:45:34.120Z,,0,0,,5705.26300038147,response,ISIC_0069348.JPG,,ISIC_6997061.JPG,ISIC_6997061.JPG,true,0,keypress(z),500,114791.40000009537,114790.60000038147,109068.632,109084.90000009537,109085.337,114802.73,1,6,1,,ISIC_0069348.JPG
sequence,flow.Sequence,2_0,2023-09-08T20:45:34.121Z,,0,,,5705.26300038147,completion,,,,,true,,,,114792.60000038147,114790.60000038147,109068.632,109084.7000002861,109085.337,114802.73,1,6,,,
trial,html.Screen,2_1_0,2023-09-08T20:45:40.476Z,,0,0,,6344.570000190739,response,ISIC_0009529.JPG,,ISIC_0057368.JPG,ISIC_0009529.JPG,true,1,keypress(m),500,121147.90000009537,121147.30000019073,114786.021,114793,114802.73,121167.701,1,6,2,,ISIC_0057368.JPG
sequence,flow.Sequence,2_1,2023-09-08T20:45:40.477Z,,0,,,6344.570000190739,completion,,,,,true,,,,121148.7000002861,121147.30000019073,114786.021,114792.90000009537,114802.73,121167.701,1,6,,,
trial,html.Screen,2_2_0,2023-09-08T20:45:45.701Z,,0,0,,5204.399000381469,response,ISIC_9758671.JPG,,ISIC_0064954.JPG,ISIC_0064954.JPG,true,0,keypress(z),500,126372.7000002861,126372.10000038147,121150.995,121149.40000009537,121167.701,126379.603,1,6,3,,ISIC_9758671.JPG
sequence,flow.Sequence,2_2,2023-09-08T20:45:45.702Z,,0,,,5204.399000381469,completion,,,,,true,,,,126373.60000038147,126372.10000038147,121150.995,121149.2000002861,121167.701,126379.603,1,6,,,
trial,html.Screen,2_3_0,2023-09-08T20:45:49.727Z,,0,0,,4018.5970002860995,response,ISIC_0005785.JPG,,ISIC_0000080.JPG,ISIC_0000080.JPG,true,0,keypress(z),500,130398.90000009537,130398.2000002861,126362.899,126374.2000002861,126379.603,130405.949,1,6,4,,ISIC_0005785.JPG
sequence,flow.Sequence,2_3,2023-09-08T20:45:49.728Z,,0,,,4018.5970002860995,completion,,,,,true,,,,130400,130398.2000002861,126362.899,126374.10000038147,126379.603,130405.949,1,6,,,
trial,html.Screen,2_4_0,2023-09-08T20:45:53.597Z,,0,0,,3862.1510003814765,response,ISIC_7944028.JPG,,ISIC_5390060.JPG,ISIC_7944028.JPG,true,1,keypress(m),500,134268.90000009537,134268.10000038147,130389.246,130400.60000038147,130405.949,134281.979,1,6,5,,ISIC_5390060.JPG
sequence,flow.Sequence,2_4,2023-09-08T20:45:53.598Z,,0,,,3862.1510003814765,completion,,,,,true,,,,134269.90000009537,134268.10000038147,130389.246,130400.40000009537,130405.949,134281.979,1,6,,,
trial,html.Screen,2_5_0,2023-09-08T20:45:56.868Z,,0,0,,3257.1210003814776,response,ISIC_0010188.JPG,,ISIC_0794216.JPG,ISIC_0794216.JPG,true,0,keypress(z),500,137539.80000019073,137539.10000038147,134265.275,134270.5,134281.979,137556.865,1,6,6,,ISIC_0010188.JPG
sequence,flow.Sequence,2_5,2023-09-08T20:45:56.869Z,,0,,,3257.1210003814776,completion,,,,,true,,,,137540.7000002861,137539.10000038147,134265.275,134270.2000002861,134281.979,137556.865,1,6,,,
loop,flow.Loop,2,2023-09-08T20:45:56.870Z,,,,,28453.76300038147,completion,,,,,true,,,,137541.5,137539.10000038147,109068.632,109084.60000038147,109085.337,137556.865,1,6,,,
exp_instructions,html.Screen,3,2023-09-08T20:46:26.437Z,,,,,29551.035000095377,response,,,,,,continue,keypress(Space),,167110.60000038147,167107.90000009537,137540.158,137541.90000009537,137556.865,167126.482,,,,,
trial,html.Screen,4_0_0,2023-09-08T20:46:29.686Z,,0,1,,3232.2180002861132,response,ISIC_2975167.JPG,11,ISIC_7035246.JPG,ISIC_2975167.JPG,false,1,keypress(m),500,170359.40000009537,170358.7000002861,167109.776,167111.40000009537,167126.482,170368.458,8,400,1,,ISIC_7035246.JPG
break,html.Screen,4_0_1,2023-09-08T20:46:29.688Z,,0,,,NaN,,,,,,false,,,,170361.80000019073,170361.10000038147,,170359.90000009537,,170368.458,8,400,,,
break_continue,html.Screen,4_0_2,2023-09-08T20:46:29.690Z,,0,,,NaN,,,,,,false,,,,170363,170362.60000038147,,170362.2000002861,,170368.458,8,400,,,
sequence,flow.Sequence,4_0,2023-09-08T20:46:29.691Z,,0,,,3236.1180003814807,completion,,,,,false,,,,170364,170362.60000038147,167109.776,167111.2000002861,167126.482,170368.458,8,400,,,
trial,html.Screen,4_1_0,2023-09-08T20:46:35.372Z,,0,1,,5676.041999999987,response,ISIC_0281291.JPG,12,ISIC_0002295.JPG,ISIC_0002295.JPG,false,0,keypress(z),500,176045.10000038147,176044.5,170351.752,170364.5,170368.458,176048.66,8,400,2,,ISIC_0281291.JPG
break,html.Screen,4_1_1,2023-09-08T20:46:35.374Z,,0,,,NaN,,,,,,false,,,,176047,176046.5,,176045.60000038147,,176048.66,8,400,,,
break_continue,html.Screen,4_1_2,2023-09-08T20:46:35.375Z,,0,,,NaN,,,,,,false,,,,176048,176047.60000038147,,176047.40000009537,,176048.66,8,400,,,
sequence,flow.Sequence,4_1,2023-09-08T20:46:35.375Z,,0,,,5679.1420003814565,completion,,,,,false,,,,176048.60000038147,176047.60000038147,170351.752,170364.30000019073,170368.458,176048.66,8,400,,,
trial,html.Screen,4_2_0,2023-09-08T20:46:38.398Z,,0,1,,3021.8399999999965,response,ISIC_7030404.JPG,13,ISIC_3947143.JPG,ISIC_7030404.JPG,false,1,keypress(m),500,179071,179070.5,176031.954,176049.30000019073,176048.66,179089.273,8,400,3,,ISIC_3947143.JPG
break,html.Screen,4_2_1,2023-09-08T20:46:38.400Z,,0,,,NaN,,,,,,false,,,,179073.30000019073,179072.5,,179071.60000038147,,179089.273,8,400,,,
break_continue,html.Screen,4_2_2,2023-09-08T20:46:38.401Z,,0,,,NaN,,,,,,false,,,,179074.30000019073,179074,,179073.7000002861,,179089.273,8,400,,,
sequence,flow.Sequence,4_2,2023-09-08T20:46:38.401Z,,0,,,3025.3399999999965,completion,,,,,false,,,,179074.90000009537,179074,176031.954,176048.80000019073,176048.66,179089.273,8,400,,,
trial,html.Screen,4_3_0,2023-09-08T20:46:44.398Z,,0,1,,5982.127000095381,response,ISIC_4123109.JPG,13,ISIC_5381712.JPG,ISIC_4123109.JPG,false,1,keypress(m),500,185071.90000009537,185071.40000009537,179072.567,179075.40000009537,179089.273,185086.974,8,400,4,,ISIC_5381712.JPG
break,html.Screen,4_3_1,2023-09-08T20:46:44.400Z,,0,,,NaN,,,,,,false,,,,185073.80000019073,185073.30000019073,,185072.5,,185086.974,8,400,,,
break_continue,html.Screen,4_3_2,2023-09-08T20:46:44.401Z,,0,,,NaN,,,,,,false,,,,185074.7000002861,185074.40000009537,,185074.2000002861,,185086.974,8,400,,,
sequence,flow.Sequence,4_3,2023-09-08T20:46:44.402Z,,0,,,5985.127000095381,completion,,,,,false,,,,185075.30000019073,185074.40000009537,179072.567,179075.30000019073,179089.273,185086.974,8,400,,,
trial,html.Screen,4_4_0,2023-09-08T20:46:47.439Z,,0,1,,3024.42600009538,response,ISIC_1009042.JPG,14,ISIC_8366864.JPG,ISIC_8366864.JPG,false,0,keypress(z),500,188112,188111.40000009537,185070.266,185075.80000019073,185086.974,188127.59,8,400,5,,ISIC_1009042.JPG
break,html.Screen,4_4_1,2023-09-08T20:46:47.440Z,,0,,,NaN,,,,,,false,,,,188113.90000009537,188113.30000019073,,188112.5,,188127.59,8,400,,,
break_continue,html.Screen,4_4_2,2023-09-08T20:46:47.441Z,,0,,,NaN,,,,,,false,,,,188114.80000019073,188114.5,,188114.2000002861,,188127.59,8,400,,,
sequence,flow.Sequence,4_4,2023-09-08T20:46:47.442Z,,0,,,3027.5260000000126,completion,,,,,false,,,,188115.40000009537,188114.5,185070.266,185075.7000002861,185086.974,188127.59,8,400,,,
trial,html.Screen,4_5_0,2023-09-08T20:46:50.668Z,,0,1,,3213.7100001907384,response,ISIC_0679781.JPG,14,ISIC_0072496.JPG,ISIC_0679781.JPG,false,1,keypress(m),500,191341.80000019073,191341.30000019073,188110.881,188115.90000009537,188127.59,191351.51,8,400,6,,ISIC_0072496.JPG
break,html.Screen,4_5_1,2023-09-08T20:46:50.670Z,,0,,,NaN,,,,,,false,,,,191343.60000038147,191343.10000038147,,191342.30000019073,,191351.51,8,400,,,
break_continue,html.Screen,4_5_2,2023-09-08T20:46:50.671Z,,0,,,NaN,,,,,,false,,,,191344.7000002861,191344.30000019073,,191344,,191351.51,8,400,,,
sequence,flow.Sequence,4_5,2023-09-08T20:46:50.672Z,,0,,,3216.7100001907384,completion,,,,,false,,,,191345.2000002861,191344.30000019073,188110.881,188115.7000002861,188127.59,191351.51,8,400,,,
trial,html.Screen,4_6_0,2023-09-08T20:46:54.189Z,,0,1,,3510.7900001907256,response,ISIC_0013457.JPG,0,ISIC_0028230.JPG,ISIC_0013457.JPG,false,1,keypress(m),500,194862.90000009537,194862.30000019073,191334.807,191345.7000002861,191351.51,194876.972,8,400,7,,ISIC_0028230.JPG
break,html.Screen,4_6_1,2023-09-08T20:46:54.191Z,,0,,,NaN,,,,,,false,,,,194864.80000019073,194864.2000002861,,194863.40000009537,,194876.972,8,400,,,
break_continue,html.Screen,4_6_2,2023-09-08T20:46:54.192Z,,0,,,NaN,,,,,,false,,,,194865.7000002861,194865.30000019073,,194865.10000038147,,194876.972,8,400,,,
sequence,flow.Sequence,4_6,2023-09-08T20:46:54.193Z,,0,,,3513.7900001907256,completion,,,,,false,,,,194866.2000002861,194865.30000019073,191334.807,191345.5,191351.51,194876.972,8,400,,,
trial,html.Screen,4_7_0,2023-09-08T20:46:57.295Z,,0,1,,3090.328000190726,response,ISIC_0068246.JPG,14,ISIC_8628207.JPG,ISIC_0068246.JPG,false,1,keypress(m),500,197968.10000038147,197967.30000019073,194860.265,194866.7000002861,194876.972,197984.349,8,400,8,,ISIC_8628207.JPG
break,html.Screen,4_7_1,2023-09-08T20:46:57.296Z,,0,,,NaN,,,,,,false,,,,197969.80000019073,197969.30000019073,,197968.7000002861,,197984.349,8,400,,,
break_continue,html.Screen,4_7_2,2023-09-08T20:46:57.297Z,,0,,,NaN,,,,,,false,,,,197970.7000002861,197970.40000009537,,197970.10000038147,,197984.349,8,400,,,
sequence,flow.Sequence,4_7,2023-09-08T20:46:57.298Z,,0,,,3093.4280000953586,completion,,,,,false,,,,197971.30000019073,197970.40000009537,194860.265,194866.60000038147,194876.972,197984.349,8,400,,,
trial,html.Screen,4_8_0,2023-09-08T20:47:03.002Z,,0,1,,5690.951000190747,response,ISIC_0024952.JPG,13,ISIC_8765068.JPG,ISIC_0024952.JPG,false,1,keypress(m),500,203675.90000009537,203675.30000019073,197967.643,197972,197984.349,203680.644,8,400,9,,ISIC_8765068.JPG
break,html.Screen,4_8_1,2023-09-08T20:47:03.005Z,,0,,,NaN,,,,,,false,,,,203678,203677.5,,203676.40000009537,,203680.644,8,400,,,
break_continue,html.Screen,4_8_2,2023-09-08T20:47:03.005Z,,0,,,NaN,,,,,,false,,,,203679,203678.60000038147,,203678.30000019073,,203680.644,8,400,,,
sequence,flow.Sequence,4_8,2023-09-08T20:47:03.006Z,,0,,,5694.251000381482,completion,,,,,false,,,,203679.5,203678.60000038147,197967.643,197971.60000038147,197984.349,203680.644,8,400,,,
trial,html.Screen,4_9_0,2023-09-08T20:47:06.043Z,,0,1,,3034.756000095367,response,ISIC_0068477.JPG,6,ISIC_8764927.JPG,ISIC_8764927.JPG,false,0,keypress(z),500,206716,206715.40000009537,203663.94,203679.90000009537,203680.644,206721.929,8,400,10,,ISIC_0068477.JPG
break,html.Screen,4_9_1,2023-09-08T20:47:06.045Z,,0,,,NaN,,,,,,false,,,,206718.40000009537,206717.7000002861,,206716.60000038147,,206721.929,8,400,,,
break_continue,html.Screen,4_9_2,2023-09-08T20:47:06.046Z,,0,,,NaN,,,,,,false,,,,206719.5,206719.2000002861,,206718.90000009537,,206721.929,8,400,,,
sequence,flow.Sequence,4_9,2023-09-08T20:47:06.047Z,,0,,,3038.556000286102,completion,,,,,false,,,,206720.2000002861,206719.2000002861,203663.94,203679.80000019073,203680.644,206721.929,8,400,,,
trial,html.Screen,4_10_0,2023-09-08T20:47:11.978Z,,0,1,,5928.871000190731,response,ISIC_7658133.JPG,13,ISIC_0032790.JPG,ISIC_0032790.JPG,false,0,keypress(z),500,212651.30000019073,212650.80000019073,206705.221,206720.7000002861,206721.929,212669.487,8,400,11,,ISIC_7658133.JPG
break,html.Screen,4_10_1,2023-09-08T20:47:11.980Z,,0,,,NaN,,,,,,false,,,,212653.5,212652.90000009537,,212652,,212669.487,8,400,,,
break_continue,html.Screen,4_10_2,2023-09-08T20:47:11.981Z,,0,,,NaN,,,,,,false,,,,212654.5,212654.10000038147,,212653.90000009537,,212669.487,8,400,,,
sequence,flow.Sequence,4_10,2023-09-08T20:47:11.982Z,,0,,,5932.171000381466,completion,,,,,false,,,,212655.10000038147,212654.10000038147,206705.221,206720.5,206721.929,212669.487,8,400,,,
trial,html.Screen,4_11_0,2023-09-08T20:47:17.858Z,,0,1,,5861.313000190741,response,ISIC_0634107.JPG,5,ISIC_4219589.JPG,ISIC_4219589.JPG,false,0,keypress(z),500,218531.40000009537,218530.80000019073,212652.778,212655.5,212669.487,218533.386,8,400,12,,ISIC_0634107.JPG
break,html.Screen,4_11_1,2023-09-08T20:47:17.860Z,,0,,,NaN,,,,,,false,,,,218533.40000009537,218532.60000038147,,218531.90000009537,,218533.386,8,400,,,
break_continue,html.Screen,4_11_2,2023-09-08T20:47:17.861Z,,0,,,NaN,,,,,,false,,,,218534.7000002861,218534.30000019073,,218534.10000038147,,218533.386,8,400,,,
sequence,flow.Sequence,4_11,2023-09-08T20:47:17.862Z,,0,,,5864.813000190741,completion,,,,,false,,,,218535.2000002861,218534.30000019073,212652.778,212655.30000019073,212669.487,218533.386,8,400,,,
trial,html.Screen,4_12_0,2023-09-08T20:47:22.010Z,,0,1,,4149.814000286104,response,ISIC_6801988.JPG,5,ISIC_8194467.JPG,ISIC_8194467.JPG,false,0,keypress(z),500,222683.80000019073,222683.2000002861,218516.68,218535.7000002861,218533.386,222693.008,8,400,13,,ISIC_6801988.JPG
break,html.Screen,4_12_1,2023-09-08T20:47:22.012Z,,0,,,NaN,,,,,,false,,,,222685.40000009537,222685,,222684.30000019073,,222693.008,8,400,,,
break_continue,html.Screen,4_12_2,2023-09-08T20:47:22.013Z,,0,,,NaN,,,,,,false,,,,222686.30000019073,222686,,222685.7000002861,,222693.008,8,400,,,
sequence,flow.Sequence,4_12,2023-09-08T20:47:22.013Z,,0,,,4152.614000000001,completion,,,,,false,,,,222686.90000009537,222686,218516.68,218535.5,218533.386,222693.008,8,400,,,
trial,html.Screen,4_13_0,2023-09-08T20:47:26.218Z,,0,1,,4198.192000286101,response,ISIC_0033754.JPG,7,ISIC_0011459.JPG,ISIC_0033754.JPG,false,1,keypress(m),500,226891.80000019073,226891.2000002861,222676.303,222687.30000019073,222693.008,226903.333,8,400,14,,ISIC_0011459.JPG
break,html.Screen,4_13_1,2023-09-08T20:47:26.221Z,,0,,,NaN,,,,,,false,,,,226894,226893.40000009537,,226892.40000009537,,226903.333,8,400,,,
break_continue,html.Screen,4_13_2,2023-09-08T20:47:26.222Z,,0,,,NaN,,,,,,false,,,,226895,226894.60000038147,,226894.30000019073,,226903.333,8,400,,,
sequence,flow.Sequence,4_13,2023-09-08T20:47:26.222Z,,0,,,4201.592000381468,completion,,,,,false,,,,226895.60000038147,226894.60000038147,222676.303,222687.2000002861,222693.008,226903.333,8,400,,,
trial,html.Screen,4_14_0,2023-09-08T20:47:33.365Z,,0,1,,7131.166999999987,response,ISIC_0054350.JPG,9,ISIC_2795397.JPG,ISIC_2795397.JPG,false,0,keypress(z),500,234035.2000002861,234034.5,226886.627,226896,226903.333,234053.753,8,400,15,,ISIC_0054350.JPG
break,html.Screen,4_14_1,2023-09-08T20:47:33.367Z,,0,,,NaN,,,,,,false,,,,234037.40000009537,234036.7000002861,,234035.90000009537,,234053.753,8,400,,,
break_continue,html.Screen,4_14_2,2023-09-08T20:47:33.368Z,,0,,,NaN,,,,,,false,,,,234038.90000009537,234038.40000009537,,234038.10000038147,,234053.753,8,400,,,
sequence,flow.Sequence,4_14,2023-09-08T20:47:33.369Z,,0,,,7135.067000095354,completion,,,,,false,,,,234039.60000038147,234038.40000009537,226886.627,226895.90000009537,226903.333,234053.753,8,400,,,
trial,html.Screen,4_15_0,2023-09-08T20:47:36.693Z,,0,1,,3308.9470002861053,response,ISIC_1877535.JPG,12,ISIC_0000801.JPG,ISIC_0000801.JPG,false,0,keypress(z),500,237363.2000002861,237362.7000002861,234037.047,234040.2000002861,234053.753,237378.271,8,400,16,,ISIC_1877535.JPG
break,html.Screen,4_15_1,2023-09-08T20:47:36.695Z,,0,,,NaN,,,,,,false,,,,237365.80000019073,237365.10000038147,,237363.80000019073,,237378.271,8,400,,,
break_continue,html.Screen,4_15_2,2023-09-08T20:47:36.696Z,,0,,,NaN,,,,,,false,,,,237366.80000019073,237366.40000009537,,237366.10000038147,,237378.271,8,400,,,
sequence,flow.Sequence,4_15,2023-09-08T20:47:36.697Z,,0,,,3312.6470000953705,completion,,,,,false,,,,237367.30000019073,237366.40000009537,234037.047,234040,234053.753,237378.271,8,400,,,
trial,html.Screen,4_16_0,2023-09-08T20:47:41.181Z,,0,1,,4472.728999999992,response,ISIC_0011045.JPG,5,ISIC_4853597.JPG,ISIC_4853597.JPG,false,0,keypress(z),500,241851.90000009537,241851,237361.566,237367.80000019073,237378.271,241855.689,8,400,17,,ISIC_0011045.JPG
break,html.Screen,4_16_1,2023-09-08T20:47:41.183Z,,0,,,NaN,,,,,,false,,,,241853.80000019073,241853.10000038147,,241852.40000009537,,241855.689,8,400,,,
break_continue,html.Screen,4_16_2,2023-09-08T20:47:41.184Z,,0,,,NaN,,,,,,false,,,,241854.80000019073,241854.5,,241854.10000038147,,241855.689,8,400,,,
sequence,flow.Sequence,4_16,2023-09-08T20:47:41.185Z,,0,,,4476.228999999992,completion,,,,,false,,,,241855.40000009537,241854.5,237361.566,237367.60000038147,237378.271,241855.689,8,400,,,
trial,html.Screen,4_17_0,2023-09-08T20:47:45.453Z,,0,1,,4267.411000381457,response,ISIC_6707990.JPG,5,ISIC_4116224.JPG,ISIC_6707990.JPG,false,1,keypress(m),500,246123.60000038147,246123.10000038147,241838.983,241856.30000019073,241855.689,246132.561,8,400,18,,ISIC_4116224.JPG
break,html.Screen,4_17_1,2023-09-08T20:47:45.455Z,,0,,,NaN,,,,,,false,,,,246125.60000038147,246125.10000038147,,246124.2000002861,,246132.561,8,400,,,
break_continue,html.Screen,4_17_2,2023-09-08T20:47:45.456Z,,0,,,NaN,,,,,,false,,,,246126.5,246126.2000002861,,246126,,246132.561,8,400,,,
sequence,flow.Sequence,4_17,2023-09-08T20:47:45.457Z,,0,,,4270.511000286089,completion,,,,,false,,,,246127.10000038147,246126.2000002861,241838.983,241855.90000009537,241855.689,246132.561,8,400,,,
trial,html.Screen,4_18_0,2023-09-08T20:47:49.462Z,,0,1,,3998.739000190748,response,ISIC_0025619.JPG,7,ISIC_0046828.JPG,ISIC_0025619.JPG,false,1,keypress(m),500,250131.90000009537,250131.30000019073,246115.855,246127.5,246132.561,250141.647,8,400,19,,ISIC_0046828.JPG
break,html.Screen,4_18_1,2023-09-08T20:47:49.463Z,,0,,,NaN,,,,,,false,,,,250133.80000019073,250133.30000019073,,250132.5,,250141.647,8,400,,,
break_continue,html.Screen,4_18_2,2023-09-08T20:47:49.464Z,,0,,,NaN,,,,,,false,,,,250134.90000009537,250134.5,,250134.30000019073,,250141.647,8,400,,,
sequence,flow.Sequence,4_18,2023-09-08T20:47:49.465Z,,0,,,4001.939000000013,completion,,,,,false,,,,250135.40000009537,250134.5,246115.855,246127.40000009537,246132.561,250141.647,8,400,,,
trial,html.Screen,4_19_0,2023-09-08T20:47:54.629Z,,0,1,,5156.9530003814725,response,ISIC_6285076.JPG,6,ISIC_5482805.JPG,ISIC_6285076.JPG,false,1,keypress(m),500,255299.2000002861,255298.60000038147,250124.944,250136,250141.647,255304.574,8,400,20,,ISIC_5482805.JPG
break,html.Screen,4_19_1,2023-09-08T20:47:54.631Z,,0,,,NaN,,,,,,false,,,,255301.10000038147,255300.60000038147,,255299.80000019073,,255304.574,8,400,,,
break_continue,html.Screen,4_19_2,2023-09-08T20:47:54.632Z,,0,,,NaN,,,,,,false,,,,255302,255301.60000038147,,255301.40000009537,,255304.574,8,400,,,
sequence,flow.Sequence,4_19,2023-09-08T20:47:54.632Z,,0,,,5159.9530003814725,completion,,,,,false,,,,255302.5,255301.60000038147,250124.944,250135.80000019073,250141.647,255304.574,8,400,,,
trial,html.Screen,4_20_0,2023-09-08T20:47:59.093Z,,0,1,,4458.226000190742,response,ISIC_0046571.JPG,6,ISIC_9303849.JPG,ISIC_9303849.JPG,false,0,keypress(z),500,259763.30000019073,259762.80000019073,255287.867,255302.90000009537,255304.574,259764.988,8,400,21,,ISIC_0046571.JPG
break,html.Screen,4_20_1,2023-09-08T20:47:59.095Z,,0,,,NaN,,,,,,false,,,,259765.30000019073,259764.90000009537,,259763.90000009537,,259764.988,8,400,,,
break_continue,html.Screen,4_20_2,2023-09-08T20:47:59.096Z,,0,,,NaN,,,,,,false,,,,259766.5,259766.2000002861,,259765.80000019073,,259764.988,8,400,,,
sequence,flow.Sequence,4_20,2023-09-08T20:47:59.097Z,,0,,,4461.626000286109,completion,,,,,false,,,,259767,259766.2000002861,255287.867,255302.80000019073,255304.574,259764.988,8,400,,,
trial,html.Screen,4_21_0,2023-09-08T20:48:05.021Z,,0,1,,5926.112000381458,response,ISIC_0058891.JPG,6,ISIC_5744196.JPG,ISIC_0058891.JPG,false,1,keypress(m),500,265691.80000019073,265691.10000038147,259748.283,259767.5,259764.988,265695.488,8,400,22,,ISIC_5744196.JPG
break,html.Screen,4_21_1,2023-09-08T20:48:05.023Z,,0,,,NaN,,,,,,false,,,,265693.80000019073,265693.30000019073,,265692.40000009537,,265695.488,8,400,,,
break_continue,html.Screen,4_21_2,2023-09-08T20:48:05.024Z,,0,,,NaN,,,,,,false,,,,265694.80000019073,265694.5,,265694.2000002861,,265695.488,8,400,,,
sequence,flow.Sequence,4_21,2023-09-08T20:48:05.025Z,,0,,,5929.511999999988,completion,,,,,false,,,,265695.30000019073,265694.5,259748.283,259767.40000009537,259764.988,265695.488,8,400,,,
trial,html.Screen,4_22_0,2023-09-08T20:48:10.989Z,,0,1,,5963.812000190723,response,ISIC_0069504.JPG,6,ISIC_1216201.JPG,ISIC_1216201.JPG,false,0,keypress(z),500,271659.90000009537,271659.30000019073,265678.783,265696.2000002861,265695.488,271676.298,8,400,23,,ISIC_0069504.JPG
break,html.Screen,4_22_1,2023-09-08T20:48:10.991Z,,0,,,NaN,,,,,,false,,,,271661.90000009537,271661.30000019073,,271660.40000009537,,271676.298,8,400,,,
break_continue,html.Screen,4_22_2,2023-09-08T20:48:10.993Z,,0,,,NaN,,,,,,false,,,,271663,271662.60000038147,,271662.40000009537,,271676.298,8,400,,,
sequence,flow.Sequence,4_22,2023-09-08T20:48:10.993Z,,0,,,5967.112000381458,completion,,,,,false,,,,271663.5,271662.60000038147,265678.783,265695.60000038147,265695.488,271676.298,8,400,,,
trial,html.Screen,4_23_0,2023-09-08T20:48:16.181Z,,0,1,,5174.30200038146,response,ISIC_9334956.JPG,6,ISIC_0024398.JPG,ISIC_0024398.JPG,false,0,keypress(z),500,276851.10000038147,276850.60000038147,271659.594,271664,271676.298,276855.863,8,400,24,,ISIC_9334956.JPG
break,html.Screen,4_23_1,2023-09-08T20:48:16.183Z,,0,,,NaN,,,,,,false,,,,276853.2000002861,276852.80000019073,,276851.80000019073,,276855.863,8,400,,,
break_continue,html.Screen,4_23_2,2023-09-08T20:48:16.184Z,,0,,,NaN,,,,,,false,,,,276854.2000002861,276853.90000009537,,276853.60000038147,,276855.863,8,400,,,
sequence,flow.Sequence,4_23,2023-09-08T20:48:16.184Z,,0,,,5177.602000095358,completion,,,,,false,,,,276854.7000002861,276853.90000009537,271659.594,271663.80000019073,271676.298,276855.863,8,400,,,
trial,html.Screen,4_24_0,2023-09-08T20:48:23.061Z,,0,1,,6874.937000190723,response,ISIC_5595054.JPG,6,ISIC_6507412.JPG,ISIC_5595054.JPG,false,1,keypress(m),500,283731.40000009537,283730.80000019073,276839.157,276855.10000038147,276855.863,283739.012,8,400,25,,ISIC_6507412.JPG
break,html.Screen,4_24_1,2023-09-08T20:48:23.063Z,,0,,,NaN,,,,,,false,,,,283733.30000019073,283732.80000019073,,283732,,283739.012,8,400,,,
break_continue,html.Screen,4_24_2,2023-09-08T20:48:23.064Z,,0,,,NaN,,,,,,false,,,,283734.2000002861,283733.90000009537,,283733.60000038147,,283739.012,8,400,,,
sequence,flow.Sequence,4_24,2023-09-08T20:48:23.064Z,,0,,,6878.037000095355,completion,,,,,false,,,,283734.7000002861,283733.90000009537,276839.157,276855.10000038147,276855.863,283739.012,8,400,,,
trial,html.Screen,4_25_0,2023-09-08T20:48:27.334Z,,0,1,,4264.088000381482,response,ISIC_2436560.JPG,6,ISIC_0031018.JPG,ISIC_0031018.JPG,false,0,keypress(z),500,288003.60000038147,288003.10000038147,283722.305,283735.2000002861,283739.012,288015.662,8,400,26,,ISIC_2436560.JPG
break,html.Screen,4_25_1,2023-09-08T20:48:27.336Z,,0,,,NaN,,,,,,false,,,,288005.40000009537,288005,,288004.10000038147,,288015.662,8,400,,,
break_continue,html.Screen,4_25_2,2023-09-08T20:48:27.337Z,,0,,,NaN,,,,,,false,,,,288006.30000019073,288006,,288005.7000002861,,288015.662,8,400,,,
sequence,flow.Sequence,4_25,2023-09-08T20:48:27.337Z,,0,,,4266.988000000012,completion,,,,,false,,,,288006.80000019073,288006,283722.305,283735.10000038147,283739.012,288015.662,8,400,,,
trial,html.Screen,4_26_0,2023-09-08T20:48:31.670Z,,0,1,,4323.638000190724,response,ISIC_0025523.JPG,6,ISIC_1802502.JPG,ISIC_0025523.JPG,false,1,keypress(m),500,292339.80000019073,292339.30000019073,287998.957,288007.2000002861,288015.662,292342.821,8,400,27,,ISIC_1802502.JPG
break,html.Screen,4_26_1,2023-09-08T20:48:31.672Z,,0,,,NaN,,,,,,false,,,,292341.60000038147,292341.2000002861,,292340.30000019073,,292342.821,8,400,,,
break_continue,html.Screen,4_26_2,2023-09-08T20:48:31.673Z,,0,,,NaN,,,,,,false,,,,292342.60000038147,292342.30000019073,,292342,,292342.821,8,400,,,
sequence,flow.Sequence,4_26,2023-09-08T20:48:31.674Z,,0,,,4326.638000190724,completion,,,,,false,,,,292343.40000009537,292342.30000019073,287998.957,288007.10000038147,288015.662,292342.821,8,400,,,
trial,html.Screen,4_27_0,2023-09-08T20:48:37.789Z,,0,1,,6115.679000000004,response,ISIC_5729818.JPG,6,ISIC_0024260.JPG,ISIC_5729818.JPG,false,1,keypress(m),500,298459,298458.5,292326.115,292343.90000009537,292342.821,298474.289,8,400,28,,ISIC_0024260.JPG
break,html.Screen,4_27_1,2023-09-08T20:48:37.791Z,,0,,,NaN,,,,,,false,,,,298461.10000038147,298460.60000038147,,298459.60000038147,,298474.289,8,400,,,
break_continue,html.Screen,4_27_2,2023-09-08T20:48:37.792Z,,0,,,NaN,,,,,,false,,,,298462.10000038147,298461.7000002861,,298461.5,,298474.289,8,400,,,
sequence,flow.Sequence,4_27,2023-09-08T20:48:37.793Z,,0,,,6118.879000286106,completion,,,,,false,,,,298462.5,298461.7000002861,292326.115,292343.7000002861,292342.821,298474.289,8,400,,,
trial,html.Screen,4_28_0,2023-09-08T20:48:42.110Z,,0,1,,4304.4110002861125,response,ISIC_0010825.JPG,6,ISIC_0013457.JPG,ISIC_0013457.JPG,false,0,keypress(z),500,302779.80000019073,302778.7000002861,298457.581,298463,298474.289,302784.398,8,400,29,,ISIC_0010825.JPG
break,html.Screen,4_28_1,2023-09-08T20:48:42.112Z,,0,,,NaN,,,,,,false,,,,302781.90000009537,302781.30000019073,,302780.5,,302784.398,8,400,,,
break_continue,html.Screen,4_28_2,2023-09-08T20:48:42.113Z,,0,,,NaN,,,,,,false,,,,302782.80000019073,302782.5,,302782.30000019073,,302784.398,8,400,,,
sequence,flow.Sequence,4_28,2023-09-08T20:48:42.114Z,,0,,,4308.21100000001,completion,,,,,false,,,,302783.40000009537,302782.5,298457.581,298462.90000009537,298474.289,302784.398,8,400,,,
trial,html.Screen,4_29_0,2023-09-08T20:48:45.222Z,,0,1,,3106.4020001907484,response,ISIC_0057188.JPG,5,ISIC_0062713.JPG,ISIC_0062713.JPG,false,0,keypress(z),500,305891.40000009537,305890.80000019073,302767.692,302783.80000019073,302784.398,305908.626,8,400,30,,ISIC_0057188.JPG
break,html.Screen,4_29_1,2023-09-08T20:48:45.224Z,,0,,,NaN,,,,,,false,,,,305893.30000019073,305892.7000002861,,305892,,305908.626,8,400,,,
break_continue,html.Screen,4_29_2,2023-09-08T20:48:45.225Z,,0,,,NaN,,,,,,false,,,,305894.2000002861,305893.90000009537,,305893.60000038147,,305908.626,8,400,,,
sequence,flow.Sequence,4_29,2023-09-08T20:48:45.225Z,,0,,,3109.502000095381,completion,,,,,false,,,,305894.80000019073,305893.90000009537,302767.692,302783.7000002861,302784.398,305908.626,8,400,,,
trial,html.Screen,4_30_0,2023-09-08T20:48:49.630Z,,0,1,,4390.47400038148,response,ISIC_0064337.JPG,6,ISIC_0055393.JPG,ISIC_0064337.JPG,false,1,keypress(m),500,310299.7000002861,310299.10000038147,305891.918,305895.2000002861,305908.626,310301.896,8,400,31,,ISIC_0055393.JPG
break,html.Screen,4_30_1,2023-09-08T20:48:49.632Z,,0,,,NaN,,,,,,false,,,,310301.80000019073,310301.2000002861,,310300.30000019073,,310301.896,8,400,,,
break_continue,html.Screen,4_30_2,2023-09-08T20:48:49.634Z,,0,,,NaN,,,,,,false,,,,310303.40000009537,310302.60000038147,,310302.10000038147,,310301.896,8,400,,,
sequence,flow.Sequence,4_30,2023-09-08T20:48:49.634Z,,0,,,4393.97400038148,completion,,,,,false,,,,310303.90000009537,310302.60000038147,305891.918,305895.10000038147,305908.626,310301.896,8,400,,,
trial,html.Screen,4_31_0,2023-09-08T20:48:52.638Z,,0,1,,3005.3040002860944,response,ISIC_0012334.JPG,5,ISIC_0000414.JPG,ISIC_0012334.JPG,false,1,keypress(m),500,313307.80000019073,313307.2000002861,310285.192,310304.40000009537,310301.896,313325.909,8,400,32,,ISIC_0000414.JPG
break,html.Screen,4_31_1,2023-09-08T20:48:52.640Z,,0,,,NaN,,,,,,false,,,,313310,313309.2000002861,,313308.30000019073,,313325.909,8,400,,,
break_continue,html.Screen,4_31_2,2023-09-08T20:48:52.641Z,,0,,,NaN,,,,,,false,,,,313311.10000038147,313310.7000002861,,313310.40000009537,,313325.909,8,400,,,
sequence,flow.Sequence,4_31,2023-09-08T20:48:52.642Z,,0,,,3008.8040002860944,completion,,,,,false,,,,313311.60000038147,313310.7000002861,310285.192,310304.30000019073,310301.896,313325.909,8,400,,,
trial,html.Screen,4_32_0,2023-09-08T20:48:59.357Z,,0,1,,6700.591000000015,response,ISIC_0073043.JPG,5,ISIC_9323095.JPG,ISIC_0073043.JPG,false,1,keypress(m),500,320027.10000038147,320026.5,313309.206,313312,313325.909,320041.176,8,400,33,,ISIC_9323095.JPG
break,html.Screen,4_32_1,2023-09-08T20:48:59.359Z,,0,,,NaN,,,,,,false,,,,320029.2000002861,320028.7000002861,,320027.7000002861,,320041.176,8,400,,,
break_continue,html.Screen,4_32_2,2023-09-08T20:48:59.360Z,,0,,,NaN,,,,,,false,,,,320030.10000038147,320029.80000019073,,320029.5,,320041.176,8,400,,,
sequence,flow.Sequence,4_32,2023-09-08T20:48:59.361Z,,0,,,6703.89100019075,completion,,,,,false,,,,320030.60000038147,320029.80000019073,313309.206,313311.90000009537,313325.909,320041.176,8,400,,,
trial,html.Screen,4_33_0,2023-09-08T20:49:05.166Z,,0,1,,5793.524000286125,response,ISIC_0922552.JPG,6,ISIC_0033725.JPG,ISIC_0922552.JPG,false,1,keypress(m),500,325835.30000019073,325834.7000002861,320024.473,320031,320041.176,325839.408,8,400,34,,ISIC_0033725.JPG
break,html.Screen,4_33_1,2023-09-08T20:49:05.167Z,,0,,,NaN,,,,,,false,,,,325837.2000002861,325836.7000002861,,325835.90000009537,,325839.408,8,400,,,
break_continue,html.Screen,4_33_2,2023-09-08T20:49:05.168Z,,0,,,NaN,,,,,,false,,,,325838.10000038147,325837.7000002861,,325837.5,,325839.408,8,400,,,
sequence,flow.Sequence,4_33,2023-09-08T20:49:05.169Z,,0,,,5796.524000286125,completion,,,,,false,,,,325838.60000038147,325837.7000002861,320024.473,320031,320041.176,325839.408,8,400,,,
trial,html.Screen,4_34_0,2023-09-08T20:49:10.862Z,,0,1,,5691.592000000004,response,ISIC_0010724.JPG,6,ISIC_8911740.JPG,ISIC_0010724.JPG,false,1,keypress(m),500,331531.7000002861,331531,325822.702,325839,325839.408,331536.185,8,400,35,,ISIC_8911740.JPG
break,html.Screen,4_34_1,2023-09-08T20:49:10.864Z,,0,,,NaN,,,,,,false,,,,331533.7000002861,331533.2000002861,,331532.40000009537,,331536.185,8,400,,,
break_continue,html.Screen,4_34_2,2023-09-08T20:49:10.865Z,,0,,,NaN,,,,,,false,,,,331534.60000038147,331534.30000019073,,331534,,331536.185,8,400,,,
sequence,flow.Sequence,4_34,2023-09-08T20:49:10.866Z,,0,,,5694.892000190739,completion,,,,,false,,,,331535.2000002861,331534.30000019073,325822.702,325838.90000009537,325839.408,331536.185,8,400,,,
trial,html.Screen,4_35_0,2023-09-08T20:49:14.638Z,,0,1,,3771.115000190737,response,ISIC_0055251.JPG,12,ISIC_8161933.JPG,ISIC_8161933.JPG,false,0,keypress(z),500,335307.80000019073,335307.30000019073,331519.48,331535.7000002861,331536.185,335311.949,8,400,36,,ISIC_0055251.JPG
break,html.Screen,4_35_1,2023-09-08T20:49:14.640Z,,0,,,NaN,,,,,,false,,,,335309.60000038147,335309.2000002861,,335308.40000009537,,335311.949,8,400,,,
break_continue,html.Screen,4_35_2,2023-09-08T20:49:14.641Z,,0,,,NaN,,,,,,false,,,,335310.60000038147,335310.2000002861,,335310,,335311.949,8,400,,,
sequence,flow.Sequence,4_35,2023-09-08T20:49:14.641Z,,0,,,3774.0150002861046,completion,,,,,false,,,,335311.10000038147,335310.2000002861,331519.48,331535.60000038147,331536.185,335311.949,8,400,,,
trial,html.Screen,4_36_0,2023-09-08T20:49:18.534Z,,0,1,,3891.451000095345,response,ISIC_0000166.JPG,6,ISIC_0066149.JPG,ISIC_0066149.JPG,false,0,keypress(z),500,339204,339203.40000009537,335295.243,335311.60000038147,335311.949,339221.343,8,400,37,,ISIC_0000166.JPG
break,html.Screen,4_36_1,2023-09-08T20:49:18.536Z,,0,,,NaN,,,,,,false,,,,339205.7000002861,339205.30000019073,,339204.5,,339221.343,8,400,,,
break_continue,html.Screen,4_36_2,2023-09-08T20:49:18.537Z,,0,,,NaN,,,,,,false,,,,339206.60000038147,339206.30000019073,,339206.10000038147,,339221.343,8,400,,,
sequence,flow.Sequence,4_36,2023-09-08T20:49:18.537Z,,0,,,3894.3510001907125,completion,,,,,false,,,,339207.10000038147,339206.30000019073,335295.243,335311.40000009537,335311.949,339221.343,8,400,,,
trial,html.Screen,4_37_0,2023-09-08T20:49:22.405Z,,0,1,,3853.2570003814762,response,ISIC_0031005.JPG,7,ISIC_0028477.JPG,ISIC_0028477.JPG,false,0,keypress(z),500,343075.10000038147,343074.60000038147,339204.637,339207.5,339221.343,343080.539,8,400,38,,ISIC_0031005.JPG
break,html.Screen,4_37_1,2023-09-08T20:49:22.408Z,,0,,,NaN,,,,,,false,,,,343077.60000038147,343076.90000009537,,343075.90000009537,,343080.539,8,400,,,
break_continue,html.Screen,4_37_2,2023-09-08T20:49:22.409Z,,0,,,NaN,,,,,,false,,,,343078.60000038147,343078.2000002861,,343078,,343080.539,8,400,,,
sequence,flow.Sequence,4_37,2023-09-08T20:49:22.409Z,,0,,,3856.857000286109,completion,,,,,false,,,,343079.2000002861,343078.2000002861,339204.637,339207.40000009537,339221.343,343080.539,8,400,,,
trial,html.Screen,4_38_0,2023-09-08T20:49:28.510Z,,0,1,,6098.46100000001,response,ISIC_0030541.JPG,6,ISIC_3728352.JPG,ISIC_0030541.JPG,false,1,keypress(m),500,349179.5,349179,343063.833,343079.60000038147,343080.539,349195.13,8,400,39,,ISIC_3728352.JPG
break,html.Screen,4_38_1,2023-09-08T20:49:28.512Z,,0,,,NaN,,,,,,false,,,,349181.10000038147,349180.7000002861,,349180.10000038147,,349195.13,8,400,,,
break_continue,html.Screen,4_38_2,2023-09-08T20:49:28.513Z,,0,,,NaN,,,,,,false,,,,349182,349181.7000002861,,349181.40000009537,,349195.13,8,400,,,
sequence,flow.Sequence,4_38,2023-09-08T20:49:28.513Z,,0,,,6101.1610002861125,completion,,,,,false,,,,349182.60000038147,349181.7000002861,343063.833,343079.5,343080.539,349195.13,8,400,,,
trial,html.Screen,4_39_0,2023-09-08T20:49:32.354Z,,0,1,,3827.8699999999953,response,ISIC_3315146.JPG,6,ISIC_9278685.JPG,ISIC_9278685.JPG,false,0,keypress(z),500,353023.5,353023,349178.424,349183,349195.13,353054.262,8,400,40,,ISIC_3315146.JPG
break,html.Screen,4_39_1,2023-09-08T20:49:32.356Z,,0,,,NaN,,,,,,false,,,,353025,353024.60000038147,,353024,,353054.262,8,400,,,
break_continue,html.Screen,4_39_2,2023-09-08T20:49:32.356Z,,0,,,NaN,,,,,,false,,,,353025.90000009537,353025.60000038147,,353025.30000019073,,353054.262,8,400,,,
sequence,flow.Sequence,4_39,2023-09-08T20:49:32.357Z,,0,,,3830.470000381465,completion,,,,,false,,,,353026.5,353025.60000038147,349178.424,349182.90000009537,349195.13,353054.262,8,400,,,
trial,html.Screen,4_40_0,2023-09-08T20:49:35.606Z,,0,1,,3220.838000381482,response,ISIC_0066506.JPG,10,ISIC_0055731.JPG,ISIC_0055731.JPG,false,0,keypress(z),500,356275.7000002861,356275.10000038147,353037.557,353026.90000009537,353054.262,356278.654,8,400,41,,ISIC_0066506.JPG
break,html.Screen,4_40_1,2023-09-08T20:49:35.608Z,,0,,,NaN,,,,,,false,,,,356277.5,356277,,356276.2000002861,,356278.654,8,400,,,
break_continue,html.Screen,4_40_2,2023-09-08T20:49:35.609Z,,0,,,NaN,,,,,,false,,,,356278.40000009537,356278.10000038147,,356277.80000019073,,356278.654,8,400,,,
sequence,flow.Sequence,4_40,2023-09-08T20:49:35.609Z,,0,,,3223.838000381482,completion,,,,,false,,,,356278.90000009537,356278.10000038147,353037.557,353026.7000002861,353054.262,356278.654,8,400,,,
trial,html.Screen,4_41_0,2023-09-08T20:49:38.806Z,,0,1,,3196.6460001907544,response,ISIC_7139908.JPG,7,ISIC_0032036.JPG,ISIC_7139908.JPG,false,1,keypress(m),500,359475.90000009537,359475.30000019073,356261.949,356279.5,356278.654,359486.371,8,400,42,,ISIC_0032036.JPG
break,html.Screen,4_41_1,2023-09-08T20:49:38.808Z,,0,,,NaN,,,,,,false,,,,359477.60000038147,359477.30000019073,,359476.40000009537,,359486.371,8,400,,,
break_continue,html.Screen,4_41_2,2023-09-08T20:49:38.809Z,,0,,,NaN,,,,,,false,,,,359478.5,359478.2000002861,,359478,,359486.371,8,400,,,
sequence,flow.Sequence,4_41,2023-09-08T20:49:38.810Z,,0,,,3199.546000286122,completion,,,,,false,,,,359479.10000038147,359478.2000002861,356261.949,356279.30000019073,356278.654,359486.371,8,400,,,
trial,html.Screen,4_42_0,2023-09-08T20:49:45.150Z,,0,1,,6332.129000000015,response,ISIC_0011365.JPG,7,ISIC_0063961.JPG,ISIC_0063961.JPG,false,0,keypress(z),500,365819.10000038147,365818.5,359469.665,359479.5,359486.371,365834.234,8,400,43,,ISIC_0011365.JPG
break,html.Screen,4_42_1,2023-09-08T20:49:45.151Z,,0,,,NaN,,,,,,false,,,,365821,365820.5,,365819.60000038147,,365834.234,8,400,,,
break_continue,html.Screen,4_42_2,2023-09-08T20:49:45.152Z,,0,,,NaN,,,,,,false,,,,365821.90000009537,365821.60000038147,,365821.30000019073,,365834.234,8,400,,,
sequence,flow.Sequence,4_42,2023-09-08T20:49:45.153Z,,0,,,6335.229000381485,completion,,,,,false,,,,365822.40000009537,365821.60000038147,359469.665,359479.30000019073,359486.371,365834.234,8,400,,,
trial,html.Screen,4_43_0,2023-09-08T20:49:49.150Z,,0,1,,3984.566000190738,response,ISIC_0064180.JPG,6,ISIC_3232329.JPG,ISIC_0064180.JPG,false,1,keypress(m),500,369819.40000009537,369818.80000019073,365817.53,365822.90000009537,365834.234,369827.588,8,400,44,,ISIC_3232329.JPG
break,html.Screen,4_43_1,2023-09-08T20:49:49.152Z,,0,,,NaN,,,,,,false,,,,369821.2000002861,369820.7000002861,,369819.90000009537,,369827.588,8,400,,,
break_continue,html.Screen,4_43_2,2023-09-08T20:49:49.153Z,,0,,,NaN,,,,,,false,,,,369822.2000002861,369821.80000019073,,369821.40000009537,,369827.588,8,400,,,
sequence,flow.Sequence,4_43,2023-09-08T20:49:49.153Z,,0,,,3987.566000190738,completion,,,,,false,,,,369822.60000038147,369821.80000019073,365817.53,365822.7000002861,365834.234,369827.588,8,400,,,
trial,html.Screen,4_44_0,2023-09-08T20:49:54.686Z,,0,1,,5527.412000000011,response,ISIC_0006331.JPG,6,ISIC_2075121.JPG,ISIC_0006331.JPG,false,1,keypress(m),500,375355.7000002861,375355,369810.883,369823.10000038147,369827.588,375357.551,8,400,45,,ISIC_2075121.JPG
break,html.Screen,4_44_1,2023-09-08T20:49:54.689Z,,0,,,NaN,,,,,,false,,,,375358.30000019073,375357.40000009537,,375356.30000019073,,375357.551,8,400,,,
break_continue,html.Screen,4_44_2,2023-09-08T20:49:54.690Z,,0,,,NaN,,,,,,false,,,,375359.30000019073,375359,,375358.7000002861,,375357.551,8,400,,,
sequence,flow.Sequence,4_44,2023-09-08T20:49:54.690Z,,0,,,5531.412000000011,completion,,,,,false,,,,375359.90000009537,375359,369810.883,369823,369827.588,375357.551,8,400,,,
trial,html.Screen,4_45_0,2023-09-08T20:50:00.694Z,,0,1,,6005.84900009539,response,ISIC_3700351.JPG,6,ISIC_0033966.JPG,ISIC_3700351.JPG,false,1,keypress(m),500,381363.90000009537,381363.40000009537,375340.845,375360.30000019073,375357.551,381371.948,8,400,46,,ISIC_0033966.JPG
break,html.Screen,4_45_1,2023-09-08T20:50:00.696Z,,0,,,NaN,,,,,,false,,,,381365.80000019073,381365.30000019073,,381364.5,,381371.948,8,400,,,
break_continue,html.Screen,4_45_2,2023-09-08T20:50:00.697Z,,0,,,NaN,,,,,,false,,,,381366.60000038147,381366.30000019073,,381366,,381371.948,8,400,,,
sequence,flow.Sequence,4_45,2023-09-08T20:50:00.698Z,,0,,,6008.749000190757,completion,,,,,false,,,,381367.2000002861,381366.30000019073,375340.845,375360.2000002861,375357.551,381371.948,8,400,,,
trial,html.Screen,4_46_0,2023-09-08T20:50:04.222Z,,0,1,,3518.552000000025,response,ISIC_8013225.JPG,7,ISIC_1226882.JPG,ISIC_8013225.JPG,false,1,keypress(m),500,384891,384890.5,381355.242,381367.60000038147,381371.948,384897.001,8,400,47,,ISIC_1226882.JPG
break,html.Screen,4_46_1,2023-09-08T20:50:04.223Z,,0,,,NaN,,,,,,false,,,,384893,384892.5,,384891.60000038147,,384897.001,8,400,,,
break_continue,html.Screen,4_46_2,2023-09-08T20:50:04.224Z,,0,,,NaN,,,,,,false,,,,384893.90000009537,384893.5,,384893.30000019073,,384897.001,8,400,,,
sequence,flow.Sequence,4_46,2023-09-08T20:50:04.225Z,,0,,,3521.552000000025,completion,,,,,false,,,,384894.30000019073,384893.5,381355.242,381367.5,381371.948,384897.001,8,400,,,
trial,html.Screen,4_47_0,2023-09-08T20:50:10.406Z,,0,1,,6177.799000190746,response,ISIC_0071966.JPG,6,ISIC_0806140.JPG,ISIC_0071966.JPG,false,1,keypress(m),500,391075.40000009537,391074.80000019073,384880.295,384894.80000019073,384897.001,391094.027,8,400,48,,ISIC_0806140.JPG
break,html.Screen,4_47_1,2023-09-08T20:50:10.408Z,,0,,,NaN,,,,,,false,,,,391077.7000002861,391077.10000038147,,391076.10000038147,,391094.027,8,400,,,
break_continue,html.Screen,4_47_2,2023-09-08T20:50:10.409Z,,0,,,NaN,,,,,,false,,,,391078.90000009537,391078.60000038147,,391078.10000038147,,391094.027,8,400,,,
sequence,flow.Sequence,4_47,2023-09-08T20:50:10.410Z,,0,,,6181.59900038148,completion,,,,,false,,,,391079.40000009537,391078.60000038147,384880.295,384894.7000002861,384897.001,391094.027,8,400,,,
trial,html.Screen,4_48_0,2023-09-08T20:50:18.206Z,,0,1,,7781.073000381468,response,ISIC_0054663.JPG,5,ISIC_1589997.JPG,ISIC_1589997.JPG,false,0,keypress(z),500,398875.7000002861,398875.10000038147,391077.326,391079.80000019073,391094.027,398880.413,8,400,49,,ISIC_0054663.JPG
break,html.Screen,4_48_1,2023-09-08T20:50:18.208Z,,0,,,NaN,,,,,,false,,,,398877.80000019073,398877.30000019073,,398876.30000019073,,398880.413,8,400,,,
break_continue,html.Screen,4_48_2,2023-09-08T20:50:18.209Z,,0,,,NaN,,,,,,false,,,,398878.7000002861,398878.40000009537,,398878.10000038147,,398880.413,8,400,,,
sequence,flow.Sequence,4_48,2023-09-08T20:50:18.210Z,,0,,,7784.373000095366,completion,,,,,false,,,,398879.2000002861,398878.40000009537,391077.326,391079.7000002861,391094.027,398880.413,8,400,,,
trial,html.Screen,4_49_0,2023-09-08T20:50:24.335Z,,0,1,,6123.0869999999995,response,ISIC_8100185.JPG,7,ISIC_0032160.JPG,ISIC_8100185.JPG,false,1,keypress(m),500,405004.10000038147,405003.5,398863.706,398879.60000038147,398880.413,405011.21,8,400,50,,ISIC_0032160.JPG
break,html.Screen,4_49_1,2023-09-08T20:50:34.336Z,,0,,,10007.786999999953,timeout,,,,,false,,,,415004.5,415002.25,404994.505,405004.60000038147,405011.21,415018.997,8,400,,,
break_continue,html.Screen,4_49_2,2023-09-08T20:50:36.299Z,,0,,,1933.4030000953935,response,,,,,false,continue,keypress(Space),,416967.80000019073,416952.40000009537,415002.25,415005,415018.997,416979.584,8,400,,,
sequence,flow.Sequence,4_49,2023-09-08T20:50:36.299Z,,0,,,18071.987000095367,completion,,,,,false,,,,416968.10000038147,416952.40000009537,398863.706,398879.5,398880.413,416979.584,8,400,,,
trial,html.Screen,4_50_0,2023-09-08T20:50:44.007Z,,0,2,,7695.716000190761,response,ISIC_0031077.JPG,6,ISIC_0034052.JPG,ISIC_0034052.JPG,false,0,keypress(z),500,424675.90000009537,424675.30000019073,416962.969,416968.2000002861,416979.584,424691.974,8,400,1,,ISIC_0031077.JPG
break,html.Screen,4_50_1,2023-09-08T20:50:44.009Z,,0,,,NaN,,,,,,false,,,,424677.60000038147,424677.30000019073,,424676.40000009537,,424691.974,8,400,,,
break_continue,html.Screen,4_50_2,2023-09-08T20:50:44.010Z,,0,,,NaN,,,,,,false,,,,424678.60000038147,424678.30000019073,,424678,,424691.974,8,400,,,
sequence,flow.Sequence,4_50,2023-09-08T20:50:44.010Z,,0,,,7698.716000190761,completion,,,,,false,,,,424679,424678.30000019073,416962.969,416968.10000038147,416979.584,424691.974,8,400,,,
trial,html.Screen,4_51_0,2023-09-08T20:50:47.374Z,,0,2,,3350.5260000000126,response,ISIC_6108795.JPG,7,ISIC_0053485.JPG,ISIC_6108795.JPG,false,1,keypress(m),500,428043.10000038147,428042.5,424675.268,424679.40000009537,424691.974,428049.793,8,400,2,,ISIC_0053485.JPG
break,html.Screen,4_51_1,2023-09-08T20:50:47.376Z,,0,,,NaN,,,,,,false,,,,428044.90000009537,428044.30000019073,,428043.60000038147,,428049.793,8,400,,,
break_continue,html.Screen,4_51_2,2023-09-08T20:50:47.377Z,,0,,,NaN,,,,,,false,,,,428045.80000019073,428045.5,,428045.30000019073,,428049.793,8,400,,,
sequence,flow.Sequence,4_51,2023-09-08T20:50:47.378Z,,0,,,3353.5260000000126,completion,,,,,false,,,,428046.40000009537,428045.5,424675.268,424679.40000009537,424691.974,428049.793,8,400,,,
trial,html.Screen,4_52_0,2023-09-08T20:50:50.703Z,,0,2,,3320.8070003814646,response,ISIC_0059840.JPG,7,ISIC_0067933.JPG,ISIC_0067933.JPG,false,0,keypress(z),500,431371.2000002861,431370.60000038147,428033.088,428046.80000019073,428049.793,431374.578,8,400,3,,ISIC_0059840.JPG
break,html.Screen,4_52_1,2023-09-08T20:50:50.704Z,,0,,,NaN,,,,,,false,,,,431373,431372.60000038147,,431371.80000019073,,431374.578,8,400,,,
break_continue,html.Screen,4_52_2,2023-09-08T20:50:50.705Z,,0,,,NaN,,,,,,false,,,,431374,431373.60000038147,,431373.40000009537,,431374.578,8,400,,,
sequence,flow.Sequence,4_52,2023-09-08T20:50:50.706Z,,0,,,3323.8070003814646,completion,,,,,false,,,,431374.40000009537,431373.60000038147,428033.088,428046.7000002861,428049.793,431374.578,8,400,,,
trial,html.Screen,4_53_0,2023-09-08T20:50:54.871Z,,0,2,,4164.4220000000205,response,ISIC_9742891.JPG,6,ISIC_0028554.JPG,ISIC_9742891.JPG,false,1,keypress(m),500,435539.60000038147,435539,431357.872,431374.90000009537,431374.578,435551.212,8,400,4,,ISIC_0028554.JPG
break,html.Screen,4_53_1,2023-09-08T20:50:54.873Z,,0,,,NaN,,,,,,false,,,,435541.40000009537,435540.90000009537,,435540.2000002861,,435551.212,8,400,,,
break_continue,html.Screen,4_53_2,2023-09-08T20:50:54.874Z,,0,,,NaN,,,,,,false,,,,435542.40000009537,435542,,435541.7000002861,,435551.212,8,400,,,
sequence,flow.Sequence,4_53,2023-09-08T20:50:54.874Z,,0,,,4167.4220000000205,completion,,,,,false,,,,435542.80000019073,435542,431357.872,431374.7000002861,431374.578,435551.212,8,400,,,
trial,html.Screen,4_54_0,2023-09-08T20:50:58.255Z,,0,2,,3371.7880000000005,response,ISIC_0806303.JPG,6,ISIC_0572205.JPG,ISIC_0572205.JPG,false,0,keypress(z),500,438923.60000038147,438923,435534.506,435543.30000019073,435551.212,438926.006,8,400,5,,ISIC_0806303.JPG
break,html.Screen,4_54_1,2023-09-08T20:50:58.257Z,,0,,,NaN,,,,,,false,,,,438925.5,438925.10000038147,,438924.10000038147,,438926.006,8,400,,,
break_continue,html.Screen,4_54_2,2023-09-08T20:50:58.258Z,,0,,,NaN,,,,,,false,,,,438926.40000009537,438926.10000038147,,438926,,438926.006,8,400,,,
sequence,flow.Sequence,4_54,2023-09-08T20:50:58.259Z,,0,,,3374.88800038147,completion,,,,,false,,,,438927.2000002861,438926.10000038147,435534.506,435543.2000002861,435551.212,438926.006,8,400,,,
trial,html.Screen,4_55_0,2023-09-08T20:51:01.943Z,,0,2,,3685.294000190741,response,ISIC_0029056.JPG,6,ISIC_7936755.JPG,ISIC_7936755.JPG,false,0,keypress(z),500,442611.80000019073,442611.30000019073,438909.298,438927.7000002861,438926.006,442618.062,8,400,6,,ISIC_0029056.JPG
break,html.Screen,4_55_1,2023-09-08T20:51:01.945Z,,0,,,NaN,,,,,,false,,,,442613.80000019073,442613.2000002861,,442612.40000009537,,442618.062,8,400,,,
break_continue,html.Screen,4_55_2,2023-09-08T20:51:01.946Z,,0,,,NaN,,,,,,false,,,,442614.60000038147,442614.40000009537,,442614,,442618.062,8,400,,,
sequence,flow.Sequence,4_55,2023-09-08T20:51:01.946Z,,0,,,3688.3940000953735,completion,,,,,false,,,,442615.10000038147,442614.40000009537,438909.298,438927.60000038147,438926.006,442618.062,8,400,,,
trial,html.Screen,4_56_0,2023-09-08T20:51:05.503Z,,0,2,,3553.2380001907586,response,ISIC_0063655.JPG,6,ISIC_9684649.JPG,ISIC_9684649.JPG,false,0,keypress(z),500,446171.90000009537,446171.30000019073,442601.356,442615.60000038147,442618.062,446176.562,8,400,7,,ISIC_0063655.JPG
break,html.Screen,4_56_1,2023-09-08T20:51:05.505Z,,0,,,NaN,,,,,,false,,,,446173.80000019073,446173.2000002861,,446172.5,,446176.562,8,400,,,
break_continue,html.Screen,4_56_2,2023-09-08T20:51:05.506Z,,0,,,NaN,,,,,,false,,,,446174.80000019073,446174.5,,446174.2000002861,,446176.562,8,400,,,
sequence,flow.Sequence,4_56,2023-09-08T20:51:05.507Z,,0,,,3556.4380000000237,completion,,,,,false,,,,446175.30000019073,446174.5,442601.356,442615.40000009537,442618.062,446176.562,8,400,,,
trial,html.Screen,4_57_0,2023-09-08T20:51:09.351Z,,0,2,,3842.0380003814935,response,ISIC_0911264.JPG,6,ISIC_6606767.JPG,ISIC_6606767.JPG,false,0,keypress(z),500,450019.10000038147,450018.60000038147,446159.856,446175.7000002861,446176.562,450035.808,8,400,8,,ISIC_0911264.JPG
break,html.Screen,4_57_1,2023-09-08T20:51:09.352Z,,0,,,NaN,,,,,,false,,,,450021,450020.40000009537,,450019.7000002861,,450035.808,8,400,,,
break_continue,html.Screen,4_57_2,2023-09-08T20:51:09.353Z,,0,,,NaN,,,,,,false,,,,450021.90000009537,450021.60000038147,,450021.30000019073,,450035.808,8,400,,,
sequence,flow.Sequence,4_57,2023-09-08T20:51:09.354Z,,0,,,3845.0380003814935,completion,,,,,false,,,,450022.40000009537,450021.60000038147,446159.856,446175.60000038147,446176.562,450035.808,8,400,,,
trial,html.Screen,4_58_0,2023-09-08T20:51:12.775Z,,0,2,,3406.7920003814506,response,ISIC_0003168.JPG,7,ISIC_0013997.JPG,ISIC_0003168.JPG,false,1,keypress(m),500,453443.10000038147,453442.60000038147,450019.101,450022.80000019073,450035.808,453460.678,8,400,9,,ISIC_0013997.JPG
break,html.Screen,4_58_1,2023-09-08T20:51:12.776Z,,0,,,NaN,,,,,,false,,,,453445,453444.5,,453443.7000002861,,453460.678,8,400,,,
break_continue,html.Screen,4_58_2,2023-09-08T20:51:12.777Z,,0,,,NaN,,,,,,false,,,,453446,453445.60000038147,,453445.30000019073,,453460.678,8,400,,,
sequence,flow.Sequence,4_58,2023-09-08T20:51:12.778Z,,0,,,3409.7920003814506,completion,,,,,false,,,,453446.40000009537,453445.60000038147,450019.101,450022.7000002861,450035.808,453460.678,8,400,,,
trial,html.Screen,4_59_0,2023-09-08T20:51:17.055Z,,0,2,,4262.222000095353,response,ISIC_0026619.JPG,6,ISIC_0030101.JPG,ISIC_0026619.JPG,false,1,keypress(m),500,457723.5,457722.90000009537,453443.97,453446.80000019073,453460.678,457736.954,8,400,10,,ISIC_0030101.JPG
break,html.Screen,4_59_1,2023-09-08T20:51:17.057Z,,0,,,NaN,,,,,,false,,,,457725.40000009537,457724.7000002861,,457724,,457736.954,8,400,,,
break_continue,html.Screen,4_59_2,2023-09-08T20:51:17.058Z,,0,,,NaN,,,,,,false,,,,457726.30000019073,457726,,457725.7000002861,,457736.954,8,400,,,
sequence,flow.Sequence,4_59,2023-09-08T20:51:17.058Z,,0,,,4265.321999999986,completion,,,,,false,,,,457726.80000019073,457726,453443.97,453446.7000002861,453460.678,457736.954,8,400,,,
trial,html.Screen,4_60_0,2023-09-08T20:51:20.191Z,,0,2,,3122.045999999973,response,ISIC_0034134.JPG,6,ISIC_9384835.JPG,ISIC_9384835.JPG,false,0,keypress(z),500,460859.5,460859,457720.251,457727.2000002861,457736.954,460861.61,8,400,11,,ISIC_0034134.JPG
break,html.Screen,4_60_1,2023-09-08T20:51:20.193Z,,0,,,NaN,,,,,,false,,,,460861.30000019073,460860.80000019073,,460860,,460861.61,8,400,,,
break_continue,html.Screen,4_60_2,2023-09-08T20:51:20.194Z,,0,,,NaN,,,,,,false,,,,460862.60000038147,460862.2000002861,,460861.60000038147,,460861.61,8,400,,,
sequence,flow.Sequence,4_60,2023-09-08T20:51:20.194Z,,0,,,3125.2460002860753,completion,,,,,false,,,,460863,460862.2000002861,457720.251,457727.10000038147,457736.954,460861.61,8,400,,,
trial,html.Screen,4_61_0,2023-09-08T20:51:24.663Z,,0,2,,4469.490000381484,response,ISIC_3573969.JPG,6,ISIC_0033630.JPG,ISIC_3573969.JPG,false,1,keypress(m),500,465331.7000002861,465331.10000038147,460844.904,460863.5,460861.61,465338.838,8,400,12,,ISIC_0033630.JPG
break,html.Screen,4_61_1,2023-09-08T20:51:24.665Z,,0,,,NaN,,,,,,false,,,,465333.5,465333.10000038147,,465332.2000002861,,465338.838,8,400,,,
break_continue,html.Screen,4_61_2,2023-09-08T20:51:24.666Z,,0,,,NaN,,,,,,false,,,,465334.40000009537,465334.10000038147,,465333.80000019073,,465338.838,8,400,,,
sequence,flow.Sequence,4_61,2023-09-08T20:51:24.666Z,,0,,,4472.490000381484,completion,,,,,false,,,,465334.90000009537,465334.10000038147,460844.904,460863.40000009537,460861.61,465338.838,8,400,,,
trial,html.Screen,4_62_0,2023-09-08T20:51:28.023Z,,0,2,,3352.462000190746,response,ISIC_6069236.JPG,7,ISIC_7492530.JPG,ISIC_7492530.JPG,false,0,keypress(z),500,468691.90000009537,468691.30000019073,465322.133,465335.30000019073,465338.838,468696.968,8,400,13,,ISIC_6069236.JPG
break,html.Screen,4_62_1,2023-09-08T20:51:28.025Z,,0,,,NaN,,,,,,false,,,,468693.7000002861,468693.2000002861,,468692.40000009537,,468696.968,8,400,,,
break_continue,html.Screen,4_62_2,2023-09-08T20:51:28.026Z,,0,,,NaN,,,,,,false,,,,468694.60000038147,468694.30000019073,,468694.10000038147,,468696.968,8,400,,,
sequence,flow.Sequence,4_62,2023-09-08T20:51:28.026Z,,0,,,3355.462000190746,completion,,,,,false,,,,468695.10000038147,468694.30000019073,465322.133,465335.2000002861,465338.838,468696.968,8,400,,,
trial,html.Screen,4_63_0,2023-09-08T20:51:31.176Z,,0,2,,3146.432000095374,response,ISIC_0030428.JPG,7,ISIC_0000517.JPG,ISIC_0030428.JPG,false,1,keypress(m),500,471844,471843.40000009537,468680.262,468695.5,468696.968,471854.497,8,400,14,,ISIC_0000517.JPG
break,html.Screen,4_63_1,2023-09-08T20:51:31.178Z,,0,,,NaN,,,,,,false,,,,471845.80000019073,471845.40000009537,,471844.60000038147,,471854.497,8,400,,,
break_continue,html.Screen,4_63_2,2023-09-08T20:51:31.179Z,,0,,,NaN,,,,,,false,,,,471846.7000002861,471846.5,,471846.2000002861,,471854.497,8,400,,,
sequence,flow.Sequence,4_63,2023-09-08T20:51:31.179Z,,0,,,3149.5320000000065,completion,,,,,false,,,,471847.30000019073,471846.5,468680.262,468695.30000019073,468696.968,471854.497,8,400,,,
trial,html.Screen,4_64_0,2023-09-08T20:51:34.563Z,,0,2,,3375.9030000953935,response,ISIC_0057753.JPG,5,ISIC_3933658.JPG,ISIC_3933658.JPG,false,0,keypress(z),500,475231.10000038147,475230.40000009537,471837.791,471847.7000002861,471854.497,475262.253,8,400,15,,ISIC_0057753.JPG
break,html.Screen,4_64_1,2023-09-08T20:51:34.564Z,,0,,,NaN,,,,,,false,,,,475232.7000002861,475232.2000002861,,475231.60000038147,,475262.253,8,400,,,
break_continue,html.Screen,4_64_2,2023-09-08T20:51:34.565Z,,0,,,NaN,,,,,,false,,,,475233.60000038147,475233.30000019073,,475233,,475262.253,8,400,,,
sequence,flow.Sequence,4_64,2023-09-08T20:51:34.566Z,,0,,,3378.803000190761,completion,,,,,false,,,,475234.10000038147,475233.30000019073,471837.791,471847.60000038147,471854.497,475262.253,8,400,,,
trial,html.Screen,4_65_0,2023-09-08T20:51:37.447Z,,0,2,,2852.547000190709,response,ISIC_0011495.JPG,10,ISIC_2119925.JPG,ISIC_2119925.JPG,false,0,keypress(z),500,478115.30000019073,478114.80000019073,475245.55,475234.5,475262.253,478119.484,8,400,16,,ISIC_0011495.JPG
break,html.Screen,4_65_1,2023-09-08T20:51:37.449Z,,0,,,NaN,,,,,,false,,,,478117.30000019073,478116.7000002861,,478115.80000019073,,478119.484,8,400,,,
break_continue,html.Screen,4_65_2,2023-09-08T20:51:37.450Z,,0,,,NaN,,,,,,false,,,,478118.2000002861,478117.90000009537,,478117.60000038147,,478119.484,8,400,,,
sequence,flow.Sequence,4_65,2023-09-08T20:51:37.450Z,,0,,,2855.6470000953414,completion,,,,,false,,,,478118.7000002861,478117.90000009537,475245.55,475234.40000009537,475262.253,478119.484,8,400,,,
trial,html.Screen,4_66_0,2023-09-08T20:51:40.727Z,,0,2,,3275.4160000953707,response,ISIC_5559730.JPG,6,ISIC_0054974.JPG,ISIC_5559730.JPG,false,1,keypress(m),500,481395.5,481394.90000009537,478102.776,478119.10000038147,478119.484,481410.735,8,400,17,,ISIC_0054974.JPG
break,html.Screen,4_66_1,2023-09-08T20:51:40.729Z,,0,,,NaN,,,,,,false,,,,481397.2000002861,481396.80000019073,,481396,,481410.735,8,400,,,
break_continue,html.Screen,4_66_2,2023-09-08T20:51:40.730Z,,0,,,NaN,,,,,,false,,,,481398.10000038147,481397.80000019073,,481397.5,,481410.735,8,400,,,
sequence,flow.Sequence,4_66,2023-09-08T20:51:40.730Z,,0,,,3278.316000190738,completion,,,,,false,,,,481398.60000038147,481397.80000019073,478102.776,478119,478119.484,481410.735,8,400,,,
trial,html.Screen,4_67_0,2023-09-08T20:51:44.135Z,,0,2,,3392.3650003814837,response,ISIC_0059066.JPG,7,ISIC_0070566.JPG,ISIC_0059066.JPG,false,1,keypress(m),500,484803.60000038147,484803.10000038147,481394.026,481399,481410.735,484818.826,8,400,18,,ISIC_0070566.JPG
break,html.Screen,4_67_1,2023-09-08T20:51:44.137Z,,0,,,NaN,,,,,,false,,,,484805.40000009537,484804.90000009537,,484804.10000038147,,484818.826,8,400,,,
break_continue,html.Screen,4_67_2,2023-09-08T20:51:44.138Z,,0,,,NaN,,,,,,false,,,,484806.40000009537,484806,,484805.7000002861,,484818.826,8,400,,,
sequence,flow.Sequence,4_67,2023-09-08T20:51:44.139Z,,0,,,3395.265000000014,completion,,,,,false,,,,484806.80000019073,484806,481394.026,481399,481410.735,484818.826,8,400,,,
trial,html.Screen,4_68_0,2023-09-08T20:51:48.520Z,,0,2,,4368.474000190734,response,ISIC_8368872.JPG,7,ISIC_0012211.JPG,ISIC_8368872.JPG,false,1,keypress(m),500,489187.90000009537,489187.30000019073,484802.118,484807.30000019073,484818.826,489195.889,8,400,19,,ISIC_0012211.JPG
break,html.Screen,4_68_1,2023-09-08T20:51:48.522Z,,0,,,NaN,,,,,,false,,,,489189.80000019073,489189.40000009537,,489188.40000009537,,489195.889,8,400,,,
break_continue,html.Screen,4_68_2,2023-09-08T20:51:48.523Z,,0,,,NaN,,,,,,false,,,,489190.80000019073,489190.40000009537,,489190.10000038147,,489195.889,8,400,,,
sequence,flow.Sequence,4_68,2023-09-08T20:51:48.523Z,,0,,,4371.5740000953665,completion,,,,,false,,,,489191.30000019073,489190.40000009537,484802.118,484807.10000038147,484818.826,489195.889,8,400,,,
trial,html.Screen,4_69_0,2023-09-08T20:51:55.919Z,,0,2,,7390.711000381445,response,ISIC_6635699.JPG,6,ISIC_0033194.JPG,ISIC_6635699.JPG,false,1,keypress(m),500,496587.2000002861,496586.60000038147,489179.183,489191.7000002861,489195.889,496597.017,8,400,20,,ISIC_0033194.JPG
break,html.Screen,4_69_1,2023-09-08T20:51:55.921Z,,0,,,NaN,,,,,,false,,,,496589,496588.5,,496587.7000002861,,496597.017,8,400,,,
break_continue,html.Screen,4_69_2,2023-09-08T20:51:55.922Z,,0,,,NaN,,,,,,false,,,,496589.80000019073,496589.60000038147,,496589.30000019073,,496597.017,8,400,,,
sequence,flow.Sequence,4_69,2023-09-08T20:51:55.922Z,,0,,,7393.711000381445,completion,,,,,false,,,,496590.40000009537,496589.60000038147,489179.183,489191.60000038147,489195.889,496597.017,8,400,,,
trial,html.Screen,4_70_0,2023-09-08T20:51:59.575Z,,0,2,,3645.7830001907423,response,ISIC_9008095.JPG,6,ISIC_0030034.JPG,ISIC_0030034.JPG,false,0,keypress(z),500,500243.30000019073,500242.80000019073,496580.308,496590.80000019073,496597.017,500255.616,8,400,21,,ISIC_9008095.JPG
break,html.Screen,4_70_1,2023-09-08T20:51:59.577Z,,0,,,NaN,,,,,,false,,,,500245.30000019073,500244.5,,500243.80000019073,,500255.616,8,400,,,
break_continue,html.Screen,4_70_2,2023-09-08T20:51:59.578Z,,0,,,NaN,,,,,,false,,,,500246.30000019073,500245.90000009537,,500245.7000002861,,500255.616,8,400,,,
sequence,flow.Sequence,4_70,2023-09-08T20:51:59.579Z,,0,,,3648.883000095375,completion,,,,,false,,,,500246.80000019073,500245.90000009537,496580.308,496590.7000002861,496597.017,500255.616,8,400,,,
trial,html.Screen,4_71_0,2023-09-08T20:52:04.986Z,,0,2,,5397.684000190755,response,ISIC_7415335.JPG,7,ISIC_5147292.JPG,ISIC_7415335.JPG,false,1,keypress(m),500,505654,505653.30000019073,500238.909,500247.2000002861,500255.616,505668.506,8,400,22,,ISIC_5147292.JPG
break,html.Screen,4_71_1,2023-09-08T20:52:04.988Z,,0,,,NaN,,,,,,false,,,,505656,505655.5,,505654.60000038147,,505668.506,8,400,,,
break_continue,html.Screen,4_71_2,2023-09-08T20:52:04.989Z,,0,,,NaN,,,,,,false,,,,505656.90000009537,505656.60000038147,,505656.40000009537,,505668.506,8,400,,,
sequence,flow.Sequence,4_71,2023-09-08T20:52:04.989Z,,0,,,5400.98400038149,completion,,,,,false,,,,505657.5,505656.60000038147,500238.909,500247,500255.616,505668.506,8,400,,,
trial,html.Screen,4_72_0,2023-09-08T20:52:08.527Z,,0,2,,3526.594000381476,response,ISIC_0029026.JPG,12,ISIC_0005239.JPG,ISIC_0005239.JPG,false,0,keypress(z),500,509195.40000009537,509195.10000038147,505651.8,505657.90000009537,505668.506,509209.896,8,400,23,,ISIC_0029026.JPG
break,html.Screen,4_72_1,2023-09-08T20:52:08.528Z,,0,,,NaN,,,,,,false,,,,509196.10000038147,509195.90000009537,,509195.60000038147,,509209.896,8,400,,,
break_continue,html.Screen,4_72_2,2023-09-08T20:52:08.528Z,,0,,,NaN,,,,,,false,,,,509196.5,509196.40000009537,,509196.2000002861,,509209.896,8,400,,,
sequence,flow.Sequence,4_72,2023-09-08T20:52:08.528Z,,0,,,3527.8940000953735,completion,,,,,false,,,,509196.60000038147,509196.40000009537,505651.8,505657.80000019073,505668.506,509209.896,8,400,,,
trial,html.Screen,4_73_0,2023-09-08T20:52:12.336Z,,0,2,,3793.404000190727,response,ISIC_0032701.JPG,10,ISIC_0030077.JPG,ISIC_0032701.JPG,false,1,keypress(m),500,513004,513003.30000019073,509193.193,509196.80000019073,509209.896,513019.451,8,400,24,,ISIC_0030077.JPG
break,html.Screen,4_73_1,2023-09-08T20:52:12.338Z,,0,,,NaN,,,,,,false,,,,513005.80000019073,513005.30000019073,,513004.40000009537,,513019.451,8,400,,,
break_continue,html.Screen,4_73_2,2023-09-08T20:52:12.338Z,,0,,,NaN,,,,,,false,,,,513006.7000002861,513006.40000009537,,513006.10000038147,,513019.451,8,400,,,
sequence,flow.Sequence,4_73,2023-09-08T20:52:12.339Z,,0,,,3796.5040000953595,completion,,,,,false,,,,513007.2000002861,513006.40000009537,509193.193,509196.7000002861,509209.896,513019.451,8,400,,,
trial,html.Screen,4_74_0,2023-09-08T20:52:15.935Z,,0,2,,3583.048999999999,response,ISIC_0013688.JPG,6,ISIC_0638889.JPG,ISIC_0013688.JPG,false,1,keypress(m),500,516603.10000038147,516602.5,513002.743,513007.60000038147,513019.451,516610.842,8,400,25,,ISIC_0638889.JPG
break,html.Screen,4_74_1,2023-09-08T20:52:15.937Z,,0,,,NaN,,,,,,false,,,,516604.80000019073,516604.5,,516603.60000038147,,516610.842,8,400,,,
break_continue,html.Screen,4_74_2,2023-09-08T20:52:15.938Z,,0,,,NaN,,,,,,false,,,,516605.80000019073,516605.5,,516605.2000002861,,516610.842,8,400,,,
sequence,flow.Sequence,4_74,2023-09-08T20:52:15.938Z,,0,,,3586.048999999999,completion,,,,,false,,,,516606.30000019073,516605.5,513002.743,513007.5,513019.451,516610.842,8,400,,,
trial,html.Screen,4_75_0,2023-09-08T20:52:21.919Z,,0,2,,5975.958000190731,response,ISIC_0025418.JPG,6,ISIC_3963183.JPG,ISIC_3963183.JPG,false,0,keypress(z),500,522587.40000009537,522586.80000019073,516594.139,516606.7000002861,516610.842,522592.218,8,400,26,,ISIC_0025418.JPG
break,html.Screen,4_75_1,2023-09-08T20:52:21.921Z,,0,,,NaN,,,,,,false,,,,522589.2000002861,522588.7000002861,,522587.80000019073,,522592.218,8,400,,,
break_continue,html.Screen,4_75_2,2023-09-08T20:52:21.922Z,,0,,,NaN,,,,,,false,,,,522590.10000038147,522589.7000002861,,522589.5,,522592.218,8,400,,,
sequence,flow.Sequence,4_75,2023-09-08T20:52:21.922Z,,0,,,5978.858000286098,completion,,,,,false,,,,522590.60000038147,522589.7000002861,516594.139,516606.60000038147,516610.842,522592.218,8,400,,,
trial,html.Screen,4_76_0,2023-09-08T20:52:25.879Z,,0,2,,3954.8820003814762,response,ISIC_0064798.JPG,7,ISIC_0054391.JPG,ISIC_0054391.JPG,false,0,keypress(z),500,526547.6000003815,526547.1000003815,522575.512,522591,522592.218,526568.389,8,400,27,,ISIC_0064798.JPG
break,html.Screen,4_76_1,2023-09-08T20:52:25.881Z,,0,,,NaN,,,,,,false,,,,526549.2000002861,526548.8000001907,,526548.1000003815,,526568.389,8,400,,,
break_continue,html.Screen,4_76_2,2023-09-08T20:52:25.882Z,,0,,,NaN,,,,,,false,,,,526550.1000003815,526549.8000001907,,526549.5,,526568.389,8,400,,,
sequence,flow.Sequence,4_76,2023-09-08T20:52:25.882Z,,0,,,3957.5820001907414,completion,,,,,false,,,,526550.6000003815,526549.8000001907,522575.512,522590.80000019073,522592.218,526568.389,8,400,,,
trial,html.Screen,4_77_0,2023-09-08T20:52:32.409Z,,0,2,,6506.911000190768,response,ISIC_0010225.JPG,6,ISIC_2034687.JPG,ISIC_2034687.JPG,false,0,keypress(z),500,533075.9000000954,533075.3000001907,526551.683,526551.2000002861,526568.389,533083.906,8,400,28,,ISIC_0010225.JPG
break,html.Screen,4_77_1,2023-09-08T20:52:32.411Z,,0,,,NaN,,,,,,false,,,,533078.2000002861,533077.7000002861,,533076.5,,533083.906,8,400,,,
break_continue,html.Screen,4_77_2,2023-09-08T20:52:32.412Z,,0,,,NaN,,,,,,false,,,,533079.3000001907,533079,,533078.7000002861,,533083.906,8,400,,,
sequence,flow.Sequence,4_77,2023-09-08T20:52:32.413Z,,0,,,6510.6110000000335,completion,,,,,false,,,,533079.8000001907,533079,526551.683,526551.1000003815,526568.389,533083.906,8,400,,,
trial,html.Screen,4_78_0,2023-09-08T20:52:36.888Z,,0,2,,4470.694000381511,response,ISIC_0028919.JPG,5,ISIC_0062401.JPG,ISIC_0028919.JPG,false,1,keypress(m),500,537555.1000003815,537554.6000003815,533067.2,533080.3000001907,533083.906,537560.827,8,400,29,,ISIC_0062401.JPG
break,html.Screen,4_78_1,2023-09-08T20:52:36.890Z,,0,,,NaN,,,,,,false,,,,537556.9000000954,537556.5,,537555.6000003815,,537560.827,8,400,,,
break_continue,html.Screen,4_78_2,2023-09-08T20:52:36.891Z,,0,,,NaN,,,,,,false,,,,537557.8000001907,537557.5,,537557.2000002861,,537560.827,8,400,,,
sequence,flow.Sequence,4_78,2023-09-08T20:52:36.891Z,,0,,,4473.594000000041,completion,,,,,false,,,,537558.4000000954,537557.5,533067.2,533080.1000003815,533083.906,537560.827,8,400,,,
trial,html.Screen,4_79_0,2023-09-08T20:52:40.232Z,,0,2,,3337.873000286054,response,ISIC_9829805.JPG,6,ISIC_7312551.JPG,ISIC_7312551.JPG,false,0,keypress(z),500,540899.2000002861,540898.7000002861,537544.123,537558.8000001907,537560.827,540902.6,8,400,30,,ISIC_9829805.JPG
break,html.Screen,4_79_1,2023-09-08T20:52:40.234Z,,0,,,NaN,,,,,,false,,,,540901,540900.5,,540899.7000002861,,540902.6,8,400,,,
break_continue,html.Screen,4_79_2,2023-09-08T20:52:40.235Z,,0,,,NaN,,,,,,false,,,,540902,540901.7000002861,,540901.3000001907,,540902.6,8,400,,,
sequence,flow.Sequence,4_79,2023-09-08T20:52:40.235Z,,0,,,3340.873000286054,completion,,,,,false,,,,540902.5,540901.7000002861,537544.123,537558.6000003815,537560.827,540902.6,8,400,,,
trial,html.Screen,4_80_0,2023-09-08T20:52:44.000Z,,0,2,,3764.200000190758,response,ISIC_3701563.JPG,6,ISIC_0059925.JPG,ISIC_0059925.JPG,false,0,keypress(z),500,544667.4000000954,544666.8000001907,540885.894,540902.9000000954,540902.6,544678.31,8,400,31,,ISIC_3701563.JPG
break,html.Screen,4_80_1,2023-09-08T20:52:44.003Z,,0,,,NaN,,,,,,false,,,,544669.8000001907,544669.1000003815,,544667.9000000954,,544678.31,8,400,,,
break_continue,html.Screen,4_80_2,2023-09-08T20:52:44.004Z,,0,,,NaN,,,,,,false,,,,544671.2000002861,544670.8000001907,,544670,,544678.31,8,400,,,
sequence,flow.Sequence,4_80,2023-09-08T20:52:44.005Z,,0,,,3768.200000190758,completion,,,,,false,,,,544671.8000001907,544670.8000001907,540885.894,540902.8000001907,540902.6,544678.31,8,400,,,
trial,html.Screen,4_81_0,2023-09-08T20:52:47.281Z,,0,2,,3268.689999999944,response,ISIC_0032774.JPG,5,ISIC_0054357.JPG,ISIC_0054357.JPG,false,0,keypress(z),500,547947.6000003815,547947,544661.604,544672.5,544678.31,547952.749,8,400,32,,ISIC_0032774.JPG
break,html.Screen,4_81_1,2023-09-08T20:52:47.282Z,,0,,,NaN,,,,,,false,,,,547949.4000000954,547949,,547948.1000003815,,547952.749,8,400,,,
break_continue,html.Screen,4_81_2,2023-09-08T20:52:47.283Z,,0,,,NaN,,,,,,false,,,,547950.3000001907,547950,,547949.7000002861,,547952.749,8,400,,,
sequence,flow.Sequence,4_81,2023-09-08T20:52:47.284Z,,0,,,3271.689999999944,completion,,,,,false,,,,547950.8000001907,547950,544661.604,544672.4000000954,544678.31,547952.749,8,400,,,
trial,html.Screen,4_82_0,2023-09-08T20:52:51.593Z,,0,2,,4306.351000381517,response,ISIC_0028554.JPG,6,ISIC_0638889.JPG,ISIC_0028554.JPG,false,1,keypress(m),500,552259.7000002861,552259.1000003815,547936.043,547951.2000002861,547952.749,552263.014,8,400,33,,ISIC_0638889.JPG
break,html.Screen,4_82_1,2023-09-08T20:52:51.595Z,,0,,,NaN,,,,,,false,,,,552261.8000001907,552261.1000003815,,552260.4000000954,,552263.014,8,400,,,
break_continue,html.Screen,4_82_2,2023-09-08T20:52:51.596Z,,0,,,NaN,,,,,,false,,,,552263.2000002861,552262.6000003815,,552262.3000001907,,552263.014,8,400,,,
sequence,flow.Sequence,4_82,2023-09-08T20:52:51.597Z,,0,,,4309.851000381517,completion,,,,,false,,,,552263.9000000954,552262.6000003815,547936.043,547951,547952.749,552263.014,8,400,,,
trial,html.Screen,4_83_0,2023-09-08T20:52:54.937Z,,0,2,,3340.386000095401,response,ISIC_0163812.JPG,5,ISIC_3475660.JPG,ISIC_0163812.JPG,false,1,keypress(m),500,555603.9000000954,555603.4000000954,552246.308,552264.3000001907,552263.014,555621.049,8,400,34,,ISIC_3475660.JPG
break,html.Screen,4_83_1,2023-09-08T20:52:54.939Z,,0,,,NaN,,,,,,false,,,,555605.6000003815,555605.2000002861,,555604.4000000954,,555621.049,8,400,,,
break_continue,html.Screen,4_83_2,2023-09-08T20:52:54.940Z,,0,,,NaN,,,,,,false,,,,555606.6000003815,555606.3000001907,,555606,,555621.049,8,400,,,
sequence,flow.Sequence,4_83,2023-09-08T20:52:54.940Z,,0,,,3343.2860001907684,completion,,,,,false,,,,555607,555606.3000001907,552246.308,552264.2000002861,552263.014,555621.049,8,400,,,
trial,html.Screen,4_84_0,2023-09-08T20:52:59.312Z,,0,2,,4357.551000381471,response,ISIC_0004015.JPG,6,ISIC_0010718.JPG,ISIC_0004015.JPG,false,1,keypress(m),500,559979.1000003815,559978.6000003815,555604.343,555607.5,555621.049,559981.459,8,400,35,,ISIC_0010718.JPG
break,html.Screen,4_84_1,2023-09-08T20:52:59.314Z,,0,,,NaN,,,,,,false,,,,559980.9000000954,559980.4000000954,,559979.7000002861,,559981.459,8,400,,,
break_continue,html.Screen,4_84_2,2023-09-08T20:52:59.315Z,,0,,,NaN,,,,,,false,,,,559982.2000002861,559981.7000002861,,559981.2000002861,,559981.459,8,400,,,
sequence,flow.Sequence,4_84,2023-09-08T20:52:59.316Z,,0,,,4360.651000286103,completion,,,,,false,,,,559983,559981.7000002861,555604.343,555607.3000001907,555621.049,559981.459,8,400,,,
trial,html.Screen,4_85_0,2023-09-08T20:53:04.456Z,,0,2,,5141.441000095336,response,ISIC_0025267.JPG,5,ISIC_0072157.JPG,ISIC_0072157.JPG,false,0,keypress(z),500,565123.4000000954,565122.9000000954,559964.753,559983.5,559981.459,565127.125,8,400,36,,ISIC_0025267.JPG
break,html.Screen,4_85_1,2023-09-08T20:53:04.458Z,,0,,,NaN,,,,,,false,,,,565125.2000002861,565124.8000001907,,565123.9000000954,,565127.125,8,400,,,
break_continue,html.Screen,4_85_2,2023-09-08T20:53:04.459Z,,0,,,NaN,,,,,,false,,,,565126.1000003815,565125.9000000954,,565125.6000003815,,565127.125,8,400,,,
sequence,flow.Sequence,4_85,2023-09-08T20:53:04.460Z,,0,,,5144.441000095336,completion,,,,,false,,,,565126.7000002861,565125.9000000954,559964.753,559983.4000000954,559981.459,565127.125,8,400,,,
trial,html.Screen,4_86_0,2023-09-08T20:53:07.745Z,,0,2,,3283.875,response,ISIC_0776189.JPG,6,ISIC_7231192.JPG,ISIC_7231192.JPG,false,0,keypress(z),500,568411.6000003815,568411,565110.417,565127.1000003815,565127.125,568418.284,8,400,37,,ISIC_0776189.JPG
break,html.Screen,4_86_1,2023-09-08T20:53:07.747Z,,0,,,NaN,,,,,,false,,,,568413.6000003815,568413,,568412.3000001907,,568418.284,8,400,,,
break_continue,html.Screen,4_86_2,2023-09-08T20:53:07.748Z,,0,,,NaN,,,,,,false,,,,568414.5,568414.2000002861,,568413.9000000954,,568418.284,8,400,,,
sequence,flow.Sequence,4_86,2023-09-08T20:53:07.748Z,,0,,,3287.0750002861023,completion,,,,,false,,,,568415,568414.2000002861,565110.417,565127,565127.125,568418.284,8,400,,,
trial,html.Screen,4_87_0,2023-09-08T20:53:11.521Z,,0,2,,3768.8160003814846,response,ISIC_3026660.JPG,5,ISIC_0002435.JPG,ISIC_0002435.JPG,false,0,keypress(z),500,572187.6000003815,572187.1000003815,568401.577,568415.5,568418.284,572194.076,8,400,38,,ISIC_3026660.JPG
break,html.Screen,4_87_1,2023-09-08T20:53:11.523Z,,0,,,NaN,,,,,,false,,,,572189.7000002861,572189,,572188.2000002861,,572194.076,8,400,,,
break_continue,html.Screen,4_87_2,2023-09-08T20:53:11.524Z,,0,,,NaN,,,,,,false,,,,572190.6000003815,572190.3000001907,,572190,,572194.076,8,400,,,
sequence,flow.Sequence,4_87,2023-09-08T20:53:11.524Z,,0,,,3772.0160001907498,completion,,,,,false,,,,572191.1000003815,572190.3000001907,568401.577,568415.3000001907,568418.284,572194.076,8,400,,,
trial,html.Screen,4_88_0,2023-09-08T20:53:15.113Z,,0,2,,3585.224000190734,response,ISIC_0068950.JPG,6,ISIC_0055140.JPG,ISIC_0055140.JPG,false,0,keypress(z),500,575779.8000001907,575779.3000001907,572177.367,572191.5,572194.076,575785.832,8,400,39,,ISIC_0068950.JPG
break,html.Screen,4_88_1,2023-09-08T20:53:15.115Z,,0,,,NaN,,,,,,false,,,,575781.6000003815,575781.2000002861,,575780.3000001907,,575785.832,8,400,,,
break_continue,html.Screen,4_88_2,2023-09-08T20:53:15.116Z,,0,,,NaN,,,,,,false,,,,575782.5,575782.2000002861,,575782,,575785.832,8,400,,,
sequence,flow.Sequence,4_88,2023-09-08T20:53:15.116Z,,0,,,3588.1240002861014,completion,,,,,false,,,,575783,575782.2000002861,572177.367,572191.3000001907,572194.076,575785.832,8,400,,,
trial,html.Screen,4_89_0,2023-09-08T20:53:18.689Z,,0,2,,3569.5680000953143,response,ISIC_9978107.JPG,6,ISIC_0000384.JPG,ISIC_9978107.JPG,false,1,keypress(m),500,579356,579355.4000000954,575769.126,575783.5,575785.832,579361.026,8,400,40,,ISIC_0000384.JPG
break,html.Screen,4_89_1,2023-09-08T20:53:18.691Z,,0,,,NaN,,,,,,false,,,,579357.8000001907,579357.3000001907,,579356.5,,579361.026,8,400,,,
break_continue,html.Screen,4_89_2,2023-09-08T20:53:18.692Z,,0,,,NaN,,,,,,false,,,,579358.7000002861,579358.3000001907,,579358,,579361.026,8,400,,,
sequence,flow.Sequence,4_89,2023-09-08T20:53:18.692Z,,0,,,3572.468000190682,completion,,,,,false,,,,579359.2000002861,579358.3000001907,575769.126,575783.3000001907,575785.832,579361.026,8,400,,,
trial,html.Screen,4_90_0,2023-09-08T20:53:24.048Z,,0,2,,5353.7740001907805,response,ISIC_7768567.JPG,6,ISIC_0027981.JPG,ISIC_0027981.JPG,false,0,keypress(z),500,584715.3000001907,584714.8000001907,579344.32,579359.6000003815,579361.026,584723.8,8,400,41,,ISIC_7768567.JPG
break,html.Screen,4_90_1,2023-09-08T20:53:24.050Z,,0,,,NaN,,,,,,false,,,,584717.1000003815,584716.6000003815,,584715.9000000954,,584723.8,8,400,,,
break_continue,html.Screen,4_90_2,2023-09-08T20:53:24.051Z,,0,,,NaN,,,,,,false,,,,584718.2000002861,584717.9000000954,,584717.6000003815,,584723.8,8,400,,,
sequence,flow.Sequence,4_90,2023-09-08T20:53:24.052Z,,0,,,5356.874000095413,completion,,,,,false,,,,584718.7000002861,584717.9000000954,579344.32,579359.4000000954,579361.026,584723.8,8,400,,,
trial,html.Screen,4_91_0,2023-09-08T20:53:27.408Z,,0,2,,3351.0000001906883,response,ISIC_7681490.JPG,6,ISIC_0000013.JPG,ISIC_0000013.JPG,false,0,keypress(z),500,588075.5,588074.8000001907,584707.094,584719.1000003815,584723.8,588081.818,8,400,42,,ISIC_7681490.JPG
break,html.Screen,4_91_1,2023-09-08T20:53:27.410Z,,0,,,NaN,,,,,,false,,,,588077.3000001907,588076.8000001907,,588075.9000000954,,588081.818,8,400,,,
break_continue,html.Screen,4_91_2,2023-09-08T20:53:27.411Z,,0,,,NaN,,,,,,false,,,,588078.2000002861,588077.9000000954,,588077.6000003815,,588081.818,8,400,,,
sequence,flow.Sequence,4_91,2023-09-08T20:53:27.412Z,,0,,,3354.100000095321,completion,,,,,false,,,,588078.7000002861,588077.9000000954,584707.094,584719,584723.8,588081.818,8,400,,,
trial,html.Screen,4_92_0,2023-09-08T20:53:35.417Z,,0,2,,8001.482000190765,response,ISIC_0000504.JPG,7,ISIC_0028027.JPG,ISIC_0028027.JPG,false,0,keypress(z),500,596083.8000001907,596083.3000001907,588065.112,588079.1000003815,588081.818,596100.731,8,400,43,,ISIC_0000504.JPG
break,html.Screen,4_92_1,2023-09-08T20:53:35.420Z,,0,,,NaN,,,,,,false,,,,596085.8000001907,596085.3000001907,,596084.3000001907,,596100.731,8,400,,,
break_continue,html.Screen,4_92_2,2023-09-08T20:53:35.420Z,,0,,,NaN,,,,,,false,,,,596086.8000001907,596086.4000000954,,596086.2000002861,,596100.731,8,400,,,
sequence,flow.Sequence,4_92,2023-09-08T20:53:35.421Z,,0,,,8004.582000095397,completion,,,,,false,,,,596087.7000002861,596086.4000000954,588065.112,588078.9000000954,588081.818,596100.731,8,400,,,
trial,html.Screen,4_93_0,2023-09-08T20:53:41.698Z,,0,2,,6262.869000381441,response,ISIC_0001792.JPG,6,ISIC_0257447.JPG,ISIC_0257447.JPG,false,0,keypress(z),500,602364.1000003815,602363.6000003815,596084.026,596088.2000002861,596100.731,602381.733,8,400,44,,ISIC_0001792.JPG
break,html.Screen,4_93_1,2023-09-08T20:53:41.700Z,,0,,,NaN,,,,,,false,,,,602366,602365.5,,602364.6000003815,,602381.733,8,400,,,
break_continue,html.Screen,4_93_2,2023-09-08T20:53:41.701Z,,0,,,NaN,,,,,,false,,,,602366.9000000954,602366.6000003815,,602366.4000000954,,602381.733,8,400,,,
sequence,flow.Sequence,4_93,2023-09-08T20:53:41.701Z,,0,,,6265.869000381441,completion,,,,,false,,,,602367.4000000954,602366.6000003815,596084.026,596088.1000003815,596100.731,602381.733,8,400,,,
trial,html.Screen,4_94_0,2023-09-08T20:53:45.105Z,,0,2,,3388.967000286095,response,ISIC_0071681.JPG,5,ISIC_2513018.JPG,ISIC_0071681.JPG,false,1,keypress(m),500,605771.1000003815,605770.7000002861,602365.03,602367.8000001907,602381.733,605773.903,8,400,45,,ISIC_2513018.JPG
break,html.Screen,4_94_1,2023-09-08T20:53:45.107Z,,0,,,NaN,,,,,,false,,,,605772.9000000954,605772.4000000954,,605771.6000003815,,605773.903,8,400,,,
break_continue,html.Screen,4_94_2,2023-09-08T20:53:45.107Z,,0,,,NaN,,,,,,false,,,,605773.8000001907,605773.5,,605773.2000002861,,605773.903,8,400,,,
sequence,flow.Sequence,4_94,2023-09-08T20:53:45.108Z,,0,,,3391.7669999999925,completion,,,,,false,,,,605774.3000001907,605773.5,602365.03,602367.7000002861,602381.733,605773.903,8,400,,,
trial,html.Screen,4_95_0,2023-09-08T20:53:48.241Z,,0,2,,3132.797000286053,response,ISIC_0413173.JPG,6,ISIC_6544382.JPG,ISIC_6544382.JPG,false,0,keypress(z),500,608907.4000000954,608906.7000002861,605757.198,605774.9000000954,605773.903,608914.962,8,400,46,,ISIC_0413173.JPG
break,html.Screen,4_95_1,2023-09-08T20:53:48.243Z,,0,,,NaN,,,,,,false,,,,608909.4000000954,608908.9000000954,,608908,,608914.962,8,400,,,
break_continue,html.Screen,4_95_2,2023-09-08T20:53:48.244Z,,0,,,NaN,,,,,,false,,,,608910.3000001907,608909.9000000954,,608909.7000002861,,608914.962,8,400,,,
sequence,flow.Sequence,4_95,2023-09-08T20:53:48.244Z,,0,,,3135.997000095318,completion,,,,,false,,,,608910.9000000954,608909.9000000954,605757.198,605774.6000003815,605773.903,608914.962,8,400,,,
trial,html.Screen,4_96_0,2023-09-08T20:53:53.281Z,,0,2,,5032.037999999942,response,ISIC_9268487.JPG,6,ISIC_0010651.JPG,ISIC_0010651.JPG,false,0,keypress(z),500,613947.5,613947,608898.255,608911.2000002861,608914.962,613960.314,8,400,47,,ISIC_9268487.JPG
break,html.Screen,4_96_1,2023-09-08T20:53:53.283Z,,0,,,NaN,,,,,,false,,,,613949.2000002861,613948.8000001907,,613948,,613960.314,8,400,,,
break_continue,html.Screen,4_96_2,2023-09-08T20:53:53.284Z,,0,,,NaN,,,,,,false,,,,613950,613949.8000001907,,613949.4000000954,,613960.314,8,400,,,
sequence,flow.Sequence,4_96,2023-09-08T20:53:53.284Z,,0,,,5034.838000190677,completion,,,,,false,,,,613950.5,613949.8000001907,608898.255,608911.1000003815,608914.962,613960.314,8,400,,,
trial,html.Screen,4_97_0,2023-09-08T20:53:56.689Z,,0,2,,3394.7860003814567,response,ISIC_4076162.JPG,7,ISIC_0005139.JPG,ISIC_4076162.JPG,false,1,keypress(m),500,617355.7000002861,617355.1000003815,613943.606,613950.8000001907,613960.314,617368.385,8,400,48,,ISIC_0005139.JPG
break,html.Screen,4_97_1,2023-09-08T20:53:56.691Z,,0,,,NaN,,,,,,false,,,,617357.6000003815,617356.8000001907,,617356.2000002861,,617368.385,8,400,,,
break_continue,html.Screen,4_97_2,2023-09-08T20:53:56.692Z,,0,,,NaN,,,,,,false,,,,617358.6000003815,617358.3000001907,,617357.9000000954,,617368.385,8,400,,,
sequence,flow.Sequence,4_97,2023-09-08T20:53:56.693Z,,0,,,3397.986000190722,completion,,,,,false,,,,617359,617358.3000001907,613943.606,613950.7000002861,613960.314,617368.385,8,400,,,
trial,html.Screen,4_98_0,2023-09-08T20:54:02.922Z,,0,2,,6219.114999999991,response,ISIC_0027683.JPG,6,ISIC_7906421.JPG,ISIC_0027683.JPG,false,1,keypress(m),500,623588,623587.5,617351.679,617359.5,617368.385,623599.449,8,400,49,,ISIC_7906421.JPG
break,html.Screen,4_98_1,2023-09-08T20:54:02.923Z,,0,,,NaN,,,,,,false,,,,623589.8000001907,623589.1000003815,,623588.5,,623599.449,8,400,,,
break_continue,html.Screen,4_98_2,2023-09-08T20:54:02.924Z,,0,,,NaN,,,,,,false,,,,623590.6000003815,623590.3000001907,,623590,,623599.449,8,400,,,
sequence,flow.Sequence,4_98,2023-09-08T20:54:02.925Z,,0,,,6221.915000190726,completion,,,,,false,,,,623591.5,623590.3000001907,617351.679,617359.3000001907,617368.385,623599.449,8,400,,,
trial,html.Screen,4_99_0,2023-09-08T20:54:06.593Z,,0,2,,3659.1510003814474,response,ISIC_1835041.JPG,5,ISIC_9390107.JPG,ISIC_9390107.JPG,false,0,keypress(z),500,627259.2000002861,627258.6000003815,623582.744,623591.8000001907,623599.449,627275.405,8,400,50,,ISIC_1835041.JPG
break,html.Screen,4_99_1,2023-09-08T20:54:17.002Z,,0,,,15553.58600000001,timeout,,,,,false,,,,637668.6000003815,637667.7000002861,627258.696,627259.8000001907,627275.405,642828.991,8,400,,,
break_continue,html.Screen,4_99_2,2023-09-08T20:54:24.931Z,,0,,,2727.1090003814315,response,,,,,false,continue,keypress(Space),,645597.8000001907,645556.1000003815,637667.7000002861,637669.1000003815,642828.991,645602.88,8,400,,,
sequence,flow.Sequence,4_99,2023-09-08T20:54:24.932Z,,0,,,21956.651000381447,completion,,,,,false,,,,645597.9000000954,645556.1000003815,623582.744,623591.7000002861,623599.449,645602.88,8,400,,,
trial,html.Screen,4_100_0,2023-09-08T20:54:29.690Z,,0,3,,4751.720000381465,response,ISIC_0568867.JPG,7,ISIC_4748605.JPG,ISIC_0568867.JPG,false,1,keypress(m),500,650355.3000001907,650354.6000003815,645586.166,645598.1000003815,645602.88,650363.764,8,400,1,,ISIC_4748605.JPG
break,html.Screen,4_100_1,2023-09-08T20:54:29.692Z,,0,,,NaN,,,,,,false,,,,650357.4000000954,650356.4000000954,,650355.8000001907,,650363.764,8,400,,,
break_continue,html.Screen,4_100_2,2023-09-08T20:54:29.693Z,,0,,,NaN,,,,,,false,,,,650358.3000001907,650358,,650357.7000002861,,650363.764,8,400,,,
sequence,flow.Sequence,4_100,2023-09-08T20:54:29.693Z,,0,,,4755.119999999995,completion,,,,,false,,,,650358.8000001907,650358,645586.166,645598.1000003815,645602.88,650363.764,8,400,,,
trial,html.Screen,4_101_0,2023-09-08T20:54:33.138Z,,0,3,,3439.0360001907684,response,ISIC_1761799.JPG,6,ISIC_6976570.JPG,ISIC_6976570.JPG,false,0,keypress(z),500,653803.3000001907,653802.8000001907,650347.058,650359.2000002861,650363.764,653805.173,8,400,2,,ISIC_1761799.JPG
break,html.Screen,4_101_1,2023-09-08T20:54:33.139Z,,0,,,NaN,,,,,,false,,,,653805,653804.6000003815,,653803.8000001907,,653805.173,8,400,,,
break_continue,html.Screen,4_101_2,2023-09-08T20:54:33.140Z,,0,,,NaN,,,,,,false,,,,653806.1000003815,653805.6000003815,,653805.3000001907,,653805.173,8,400,,,
sequence,flow.Sequence,4_101,2023-09-08T20:54:33.141Z,,0,,,3441.8360003815033,completion,,,,,false,,,,653806.6000003815,653805.6000003815,650347.058,650359,650363.764,653805.173,8,400,,,
trial,html.Screen,4_102_0,2023-09-08T20:54:37.706Z,,0,3,,4565.827000000048,response,ISIC_8002729.JPG,6,ISIC_0011422.JPG,ISIC_8002729.JPG,false,1,keypress(m),500,658371.5,658371,653788.468,653807,653805.173,658382.978,8,400,3,,ISIC_0011422.JPG
break,html.Screen,4_102_1,2023-09-08T20:54:37.708Z,,0,,,NaN,,,,,,false,,,,658373.5,658373,,658372,,658382.978,8,400,,,
break_continue,html.Screen,4_102_2,2023-09-08T20:54:37.709Z,,0,,,NaN,,,,,,false,,,,658374.3000001907,658374,,658373.8000001907,,658382.978,8,400,,,
sequence,flow.Sequence,4_102,2023-09-08T20:54:37.709Z,,0,,,4568.827000000048,completion,,,,,false,,,,658374.8000001907,658374,653788.468,653806.8000001907,653805.173,658382.978,8,400,,,
trial,html.Screen,4_103_0,2023-09-08T20:54:42.746Z,,0,3,,5028.322000190732,response,ISIC_0057059.JPG,6,ISIC_0001148.JPG,ISIC_0057059.JPG,false,1,keypress(m),500,663411.8000001907,663411.3000001907,658366.27,658375.3000001907,658382.978,663427.953,8,400,4,,ISIC_0001148.JPG
break,html.Screen,4_103_1,2023-09-08T20:54:42.748Z,,0,,,NaN,,,,,,false,,,,663413.6000003815,663413.2000002861,,663412.3000001907,,663427.953,8,400,,,
break_continue,html.Screen,4_103_2,2023-09-08T20:54:42.749Z,,0,,,NaN,,,,,,false,,,,663414.4000000954,663414.2000002861,,663413.9000000954,,663427.953,8,400,,,
sequence,flow.Sequence,4_103,2023-09-08T20:54:42.749Z,,0,,,5031.2220002860995,completion,,,,,false,,,,663414.9000000954,663414.2000002861,658366.27,658375.1000003815,658382.978,663427.953,8,400,,,
trial,html.Screen,4_104_0,2023-09-08T20:54:48.882Z,,0,3,,6118.747000286123,response,ISIC_0060656.JPG,7,ISIC_8147189.JPG,ISIC_0060656.JPG,false,1,keypress(m),500,669547.2000002861,669546.7000002861,663411.248,663415.3000001907,663427.953,669559.154,8,400,5,,ISIC_8147189.JPG
break,html.Screen,4_104_1,2023-09-08T20:54:48.883Z,,0,,,NaN,,,,,,false,,,,669549,669548.4000000954,,669547.7000002861,,669559.154,8,400,,,
break_continue,html.Screen,4_104_2,2023-09-08T20:54:48.884Z,,0,,,NaN,,,,,,false,,,,669549.9000000954,669549.6000003815,,669549.4000000954,,669559.154,8,400,,,
sequence,flow.Sequence,4_104,2023-09-08T20:54:48.885Z,,0,,,6121.64700038149,completion,,,,,false,,,,669550.4000000954,669549.6000003815,663411.248,663415.2000002861,663427.953,669559.154,8,400,,,
trial,html.Screen,4_105_0,2023-09-08T20:54:53.474Z,,0,3,,4579.646000190754,response,ISIC_0010998.JPG,5,ISIC_0072030.JPG,ISIC_0010998.JPG,false,1,keypress(m),500,674139.3000001907,674138.8000001907,669542.449,669550.8000001907,669559.154,674153.221,8,400,6,,ISIC_0072030.JPG
break,html.Screen,4_105_1,2023-09-08T20:54:53.476Z,,0,,,NaN,,,,,,false,,,,674141.2000002861,674140.6000003815,,674139.8000001907,,674153.221,8,400,,,
break_continue,html.Screen,4_105_2,2023-09-08T20:54:53.477Z,,0,,,NaN,,,,,,false,,,,674142.1000003815,674141.8000001907,,674141.5,,674153.221,8,400,,,
sequence,flow.Sequence,4_105,2023-09-08T20:54:53.477Z,,0,,,4582.646000190754,completion,,,,,false,,,,674142.7000002861,674141.8000001907,669542.449,669550.7000002861,669559.154,674153.221,8,400,,,
trial,html.Screen,4_106_0,2023-09-08T20:54:58.634Z,,0,3,,5145.87900038145,response,ISIC_8106899.JPG,6,ISIC_0026868.JPG,ISIC_8106899.JPG,false,1,keypress(m),500,679299.7000002861,679299.1000003815,674136.518,674143.1000003815,674153.221,679316.263,8,400,7,,ISIC_0026868.JPG
break,html.Screen,4_106_1,2023-09-08T20:54:58.636Z,,0,,,NaN,,,,,,false,,,,679301.4000000954,679301,,679300.1000003815,,679316.263,8,400,,,
break_continue,html.Screen,4_106_2,2023-09-08T20:54:58.637Z,,0,,,NaN,,,,,,false,,,,679302.4000000954,679302.1000003815,,679301.7000002861,,679316.263,8,400,,,
sequence,flow.Sequence,4_106,2023-09-08T20:54:58.637Z,,0,,,5148.87900038145,completion,,,,,false,,,,679302.9000000954,679302.1000003815,674136.518,674143,674153.221,679316.263,8,400,,,
trial,html.Screen,4_107_0,2023-09-08T20:55:04.474Z,,0,3,,5823.0370001906995,response,ISIC_1616031.JPG,6,ISIC_2520840.JPG,ISIC_1616031.JPG,false,1,keypress(m),500,685139.8000001907,685139.3000001907,679299.555,679303.4000000954,679316.263,685146.759,8,400,8,,ISIC_2520840.JPG
break,html.Screen,4_107_1,2023-09-08T20:55:04.476Z,,0,,,NaN,,,,,,false,,,,685141.7000002861,685141.1000003815,,685140.5,,685146.759,8,400,,,
break_continue,html.Screen,4_107_2,2023-09-08T20:55:04.477Z,,0,,,NaN,,,,,,false,,,,685142.8000001907,685142.4000000954,,685142.1000003815,,685146.759,8,400,,,
sequence,flow.Sequence,4_107,2023-09-08T20:55:04.478Z,,0,,,5826.137000095332,completion,,,,,false,,,,685143.4000000954,685142.4000000954,679299.555,679303.1000003815,679316.263,685146.759,8,400,,,
trial,html.Screen,4_108_0,2023-09-08T20:55:09.937Z,,0,3,,5455.841000381508,response,ISIC_1473522.JPG,7,ISIC_0064298.JPG,ISIC_0064298.JPG,false,0,keypress(z),500,690603,690602.6000003815,685130.053,685143.8000001907,685146.759,690609.838,8,400,9,,ISIC_1473522.JPG
break,html.Screen,4_108_1,2023-09-08T20:55:09.939Z,,0,,,NaN,,,,,,false,,,,690604.8000001907,690604.3000001907,,690603.6000003815,,690609.838,8,400,,,
break_continue,html.Screen,4_108_2,2023-09-08T20:55:09.940Z,,0,,,NaN,,,,,,false,,,,690605.7000002861,690605.3000001907,,690605.1000003815,,690609.838,8,400,,,
sequence,flow.Sequence,4_108,2023-09-08T20:55:09.941Z,,0,,,5458.541000190773,completion,,,,,false,,,,690606.2000002861,690605.3000001907,685130.053,685143.6000003815,685146.759,690609.838,8,400,,,
trial,html.Screen,4_109_0,2023-09-08T20:55:14.441Z,,0,3,,4495.762000381481,response,ISIC_1423737.JPG,7,ISIC_5281908.JPG,ISIC_5281908.JPG,false,0,keypress(z),500,695106.2000002861,695105.6000003815,690593.132,690606.6000003815,690609.838,695137.266,8,400,10,,ISIC_1423737.JPG
break,html.Screen,4_109_1,2023-09-08T20:55:14.442Z,,0,,,NaN,,,,,,false,,,,695107.7000002861,695107.3000001907,,695106.8000001907,,695137.266,8,400,,,
break_continue,html.Screen,4_109_2,2023-09-08T20:55:14.443Z,,0,,,NaN,,,,,,false,,,,695108.6000003815,695108.3000001907,,695108.1000003815,,695137.266,8,400,,,
sequence,flow.Sequence,4_109,2023-09-08T20:55:14.443Z,,0,,,4498.462000190746,completion,,,,,false,,,,695109.1000003815,695108.3000001907,690593.132,690606.4000000954,690609.838,695137.266,8,400,,,
trial,html.Screen,4_110_0,2023-09-08T20:55:20.674Z,,0,3,,6201.734000000055,response,ISIC_4539674.JPG,8,ISIC_6803432.JPG,ISIC_4539674.JPG,false,1,keypress(m),500,701339.6000003815,701339,695120.56,695109.5,695137.266,701351.932,8,400,11,,ISIC_6803432.JPG
break,html.Screen,4_110_1,2023-09-08T20:55:20.676Z,,0,,,NaN,,,,,,false,,,,701341.5,701340.9000000954,,701340,,701351.932,8,400,,,
break_continue,html.Screen,4_110_2,2023-09-08T20:55:20.677Z,,0,,,NaN,,,,,,false,,,,701342.5,701342.1000003815,,701341.8000001907,,701351.932,8,400,,,
sequence,flow.Sequence,4_110,2023-09-08T20:55:20.677Z,,0,,,6204.834000381525,completion,,,,,false,,,,701342.9000000954,701342.1000003815,695120.56,695109.4000000954,695137.266,701351.932,8,400,,,
trial,html.Screen,4_111_0,2023-09-08T20:55:24.882Z,,0,3,,4195.16800038144,response,ISIC_4404772.JPG,6,ISIC_7759913.JPG,ISIC_7759913.JPG,false,0,keypress(z),500,705547.8000001907,705547.1000003815,701335.227,701343.3000001907,701351.932,705562.187,8,400,12,,ISIC_4404772.JPG
break,html.Screen,4_111_1,2023-09-08T20:55:24.884Z,,0,,,NaN,,,,,,false,,,,705549.5,705548.9000000954,,705548.2000002861,,705562.187,8,400,,,
break_continue,html.Screen,4_111_2,2023-09-08T20:55:24.885Z,,0,,,NaN,,,,,,false,,,,705550.3000001907,705550.1000003815,,705549.8000001907,,705562.187,8,400,,,
sequence,flow.Sequence,4_111,2023-09-08T20:55:24.885Z,,0,,,4198.16800038144,completion,,,,,false,,,,705550.8000001907,705550.1000003815,701335.227,701343.2000002861,701351.932,705562.187,8,400,,,
trial,html.Screen,4_112_0,2023-09-08T20:55:29.267Z,,0,3,,4369.213000095333,response,ISIC_0006328.JPG,5,ISIC_0027636.JPG,ISIC_0027636.JPG,false,0,keypress(z),500,709932,709931.4000000954,705545.48,705551.2000002861,705562.187,709938.538,8,400,13,,ISIC_0006328.JPG
break,html.Screen,4_112_1,2023-09-08T20:55:29.269Z,,0,,,NaN,,,,,,false,,,,709933.7000002861,709933.2000002861,,709932.5,,709938.538,8,400,,,
break_continue,html.Screen,4_112_2,2023-09-08T20:55:29.270Z,,0,,,NaN,,,,,,false,,,,709934.6000003815,709934.2000002861,,709934,,709938.538,8,400,,,
sequence,flow.Sequence,4_112,2023-09-08T20:55:29.270Z,,0,,,4372.013000286068,completion,,,,,false,,,,709935,709934.2000002861,705545.48,705551.1000003815,705562.187,709938.538,8,400,,,
trial,html.Screen,4_113_0,2023-09-08T20:55:33.698Z,,0,3,,4424.0620003815275,response,ISIC_5805349.JPG,7,ISIC_0060525.JPG,ISIC_0060525.JPG,false,0,keypress(z),500,714363.1000003815,714362.6000003815,709921.836,709935.5,709938.538,714366.475,8,400,14,,ISIC_5805349.JPG
break,html.Screen,4_113_1,2023-09-08T20:55:33.700Z,,0,,,NaN,,,,,,false,,,,714364.9000000954,714364.2000002861,,714363.6000003815,,714366.475,8,400,,,
break_continue,html.Screen,4_113_2,2023-09-08T20:55:33.701Z,,0,,,NaN,,,,,,false,,,,714365.7000002861,714365.4000000954,,714365.2000002861,,714366.475,8,400,,,
sequence,flow.Sequence,4_113,2023-09-08T20:55:33.701Z,,0,,,4426.862000095425,completion,,,,,false,,,,714366.1000003815,714365.4000000954,709921.836,709935.3000001907,709938.538,714366.475,8,400,,,
trial,html.Screen,4_114_0,2023-09-08T20:55:37.586Z,,0,3,,3884.2250002861256,response,ISIC_3912838.JPG,7,ISIC_0030373.JPG,ISIC_3912838.JPG,false,1,keypress(m),500,718251.3000001907,718250.7000002861,714349.769,714366.6000003815,714366.475,718258.796,8,400,15,,ISIC_0030373.JPG
break,html.Screen,4_114_1,2023-09-08T20:55:37.588Z,,0,,,NaN,,,,,,false,,,,718253.1000003815,718252.5,,718251.9000000954,,718258.796,8,400,,,
break_continue,html.Screen,4_114_2,2023-09-08T20:55:37.589Z,,0,,,NaN,,,,,,false,,,,718254,718253.6000003815,,718253.3000001907,,718258.796,8,400,,,
sequence,flow.Sequence,4_114,2023-09-08T20:55:37.589Z,,0,,,3887.125000381493,completion,,,,,false,,,,718254.4000000954,718253.6000003815,714349.769,714366.5,714366.475,718258.796,8,400,,,
trial,html.Screen,4_115_0,2023-09-08T20:55:41.227Z,,0,3,,3632.204000000027,response,ISIC_0026586.JPG,7,ISIC_0062160.JPG,ISIC_0026586.JPG,false,1,keypress(m),500,721891.7000002861,721891,718242.092,718254.8000001907,718258.796,721900.794,8,400,16,,ISIC_0062160.JPG
break,html.Screen,4_115_1,2023-09-08T20:55:41.228Z,,0,,,NaN,,,,,,false,,,,721893.4000000954,721892.9000000954,,721892.2000002861,,721900.794,8,400,,,
break_continue,html.Screen,4_115_2,2023-09-08T20:55:41.229Z,,0,,,NaN,,,,,,false,,,,721894.3000001907,721894,,721893.8000001907,,721900.794,8,400,,,
sequence,flow.Sequence,4_115,2023-09-08T20:55:41.230Z,,0,,,3635.204000000027,completion,,,,,false,,,,721894.8000001907,721894,718242.092,718254.7000002861,718258.796,721900.794,8,400,,,
trial,html.Screen,4_116_0,2023-09-08T20:55:45.923Z,,0,3,,4686.606000095373,response,ISIC_0072292.JPG,6,ISIC_1177153.JPG,ISIC_0072292.JPG,false,1,keypress(m),500,726587.9000000954,726587.4000000954,721884.09,721895.2000002861,721900.794,726595.332,8,400,17,,ISIC_1177153.JPG
break,html.Screen,4_116_1,2023-09-08T20:55:45.925Z,,0,,,NaN,,,,,,false,,,,726589.7000002861,726589.1000003815,,726588.4000000954,,726595.332,8,400,,,
break_continue,html.Screen,4_116_2,2023-09-08T20:55:45.926Z,,0,,,NaN,,,,,,false,,,,726590.5,726590.2000002861,,726590,,726595.332,8,400,,,
sequence,flow.Sequence,4_116,2023-09-08T20:55:45.926Z,,0,,,4689.406000286108,completion,,,,,false,,,,726591.1000003815,726590.2000002861,721884.09,721895.1000003815,721900.794,726595.332,8,400,,,
trial,html.Screen,4_117_0,2023-09-08T20:55:49.595Z,,0,3,,3664.167999999947,response,ISIC_0013626.JPG,7,ISIC_8298434.JPG,ISIC_8298434.JPG,false,0,keypress(z),500,730260.1000003815,730259.5,726578.628,726591.4000000954,726595.332,730270.762,8,400,18,,ISIC_0013626.JPG
break,html.Screen,4_117_1,2023-09-08T20:55:49.597Z,,0,,,NaN,,,,,,false,,,,730261.9000000954,730261.3000001907,,730260.6000003815,,730270.762,8,400,,,
break_continue,html.Screen,4_117_2,2023-09-08T20:55:49.598Z,,0,,,NaN,,,,,,false,,,,730262.8000001907,730262.5,,730262.3000001907,,730270.762,8,400,,,
sequence,flow.Sequence,4_117,2023-09-08T20:55:49.598Z,,0,,,3667.167999999947,completion,,,,,false,,,,730263.3000001907,730262.5,726578.628,726591.3000001907,726595.332,730270.762,8,400,,,
trial,html.Screen,4_118_0,2023-09-08T20:55:57.250Z,,0,3,,7643.838000381482,response,ISIC_2161864.JPG,6,ISIC_0011209.JPG,ISIC_2161864.JPG,false,1,keypress(m),500,737915.2000002861,737914.6000003815,730254.058,730263.7000002861,730270.762,737922.798,8,400,19,,ISIC_0011209.JPG
break,html.Screen,4_118_1,2023-09-08T20:55:57.252Z,,0,,,NaN,,,,,,false,,,,737917.4000000954,737916.7000002861,,737915.8000001907,,737922.798,8,400,,,
break_continue,html.Screen,4_118_2,2023-09-08T20:55:57.254Z,,0,,,NaN,,,,,,false,,,,737918.5,737918.2000002861,,737917.9000000954,,737922.798,8,400,,,
sequence,flow.Sequence,4_118,2023-09-08T20:55:57.254Z,,0,,,7647.438000286114,completion,,,,,false,,,,737919.1000003815,737918.2000002861,730254.058,730263.6000003815,730270.762,737922.798,8,400,,,
trial,html.Screen,4_119_0,2023-09-08T20:56:00.683Z,,0,3,,3424.102000095416,response,ISIC_0024732.JPG,6,ISIC_0069248.JPG,ISIC_0024732.JPG,false,1,keypress(m),500,741347.5,741346.9000000954,737906.089,737919.6000003815,737922.798,741364.181,8,400,20,,ISIC_0069248.JPG
break,html.Screen,4_119_1,2023-09-08T20:56:00.684Z,,0,,,NaN,,,,,,false,,,,741349.3000001907,741348.7000002861,,741348,,741364.181,8,400,,,
break_continue,html.Screen,4_119_2,2023-09-08T20:56:00.685Z,,0,,,NaN,,,,,,false,,,,741350.1000003815,741349.8000001907,,741349.6000003815,,741364.181,8,400,,,
sequence,flow.Sequence,4_119,2023-09-08T20:56:00.686Z,,0,,,3427.0020001907833,completion,,,,,false,,,,741350.6000003815,741349.8000001907,737906.089,737919.5,737922.798,741364.181,8,400,,,
trial,html.Screen,4_120_0,2023-09-08T20:56:05.347Z,,0,3,,4646.919000381487,response,ISIC_1504257.JPG,7,ISIC_2680640.JPG,ISIC_2680640.JPG,false,0,keypress(z),500,746011.7000002861,746011.1000003815,741347.476,741351,741364.181,746025.358,8,400,21,,ISIC_1504257.JPG
break,html.Screen,4_120_1,2023-09-08T20:56:05.348Z,,0,,,NaN,,,,,,false,,,,746013.4000000954,746012.8000001907,,746012.2000002861,,746025.358,8,400,,,
break_continue,html.Screen,4_120_2,2023-09-08T20:56:05.349Z,,0,,,NaN,,,,,,false,,,,746014.2000002861,746014,,746013.6000003815,,746025.358,8,400,,,
sequence,flow.Sequence,4_120,2023-09-08T20:56:05.350Z,,0,,,4649.819000000018,completion,,,,,false,,,,746014.7000002861,746014,741347.476,741350.9000000954,741364.181,746025.358,8,400,,,
trial,html.Screen,4_121_0,2023-09-08T20:56:11.219Z,,0,3,,5857.942000190727,response,ISIC_0029409.JPG,7,ISIC_5457229.JPG,ISIC_5457229.JPG,false,0,keypress(z),500,751883.9000000954,751883.3000001907,746008.652,746015.1000003815,746025.358,751889.336,8,400,22,,ISIC_0029409.JPG
break,html.Screen,4_121_1,2023-09-08T20:56:11.221Z,,0,,,NaN,,,,,,false,,,,751885.7000002861,751885.2000002861,,751884.4000000954,,751889.336,8,400,,,
break_continue,html.Screen,4_121_2,2023-09-08T20:56:11.222Z,,0,,,NaN,,,,,,false,,,,751886.5,751886.2000002861,,751886,,751889.336,8,400,,,
sequence,flow.Sequence,4_121,2023-09-08T20:56:11.222Z,,0,,,5860.842000286095,completion,,,,,false,,,,751887,751886.2000002861,746008.652,746014.9000000954,746025.358,751889.336,8,400,,,
trial,html.Screen,4_122_0,2023-09-08T20:56:16.298Z,,0,3,,5073.2640003814595,response,ISIC_0055549.JPG,6,ISIC_0448195.JPG,ISIC_0448195.JPG,false,0,keypress(z),500,756963.1000003815,756962.6000003815,751872.63,751887.4000000954,751889.336,756968.023,8,400,23,,ISIC_0055549.JPG
break,html.Screen,4_122_1,2023-09-08T20:56:16.300Z,,0,,,NaN,,,,,,false,,,,756964.9000000954,756964.4000000954,,756963.6000003815,,756968.023,8,400,,,
break_continue,html.Screen,4_122_2,2023-09-08T20:56:16.301Z,,0,,,NaN,,,,,,false,,,,756965.7000002861,756965.4000000954,,756965.1000003815,,756968.023,8,400,,,
sequence,flow.Sequence,4_122,2023-09-08T20:56:16.301Z,,0,,,5076.064000095357,completion,,,,,false,,,,756966.2000002861,756965.4000000954,751872.63,751887.3000001907,751889.336,756968.023,8,400,,,
trial,html.Screen,4_123_0,2023-09-08T20:56:24.427Z,,0,3,,8122.976999999955,response,ISIC_0021052.JPG,7,ISIC_1178518.JPG,ISIC_1178518.JPG,false,0,keypress(z),500,765091.5,765091,756951.318,756966.6000003815,756968.023,765104.176,8,400,24,,ISIC_0021052.JPG
break,html.Screen,4_123_1,2023-09-08T20:56:24.428Z,,0,,,NaN,,,,,,false,,,,765093.3000001907,765092.9000000954,,765092,,765104.176,8,400,,,
break_continue,html.Screen,4_123_2,2023-09-08T20:56:24.429Z,,0,,,NaN,,,,,,false,,,,765094.4000000954,765094,,765093.7000002861,,765104.176,8,400,,,
sequence,flow.Sequence,4_123,2023-09-08T20:56:24.430Z,,0,,,8125.976999999955,completion,,,,,false,,,,765094.8000001907,765094,756951.318,756966.5,756968.023,765104.176,8,400,,,
trial,html.Screen,4_124_0,2023-09-08T20:56:31.300Z,,0,3,,6859.124000190757,response,ISIC_0009236.JPG,6,ISIC_0069667.JPG,ISIC_0009236.JPG,false,1,keypress(m),500,771963.8000001907,771963.3000001907,765087.47,765095.2000002861,765104.176,771970.757,8,400,25,,ISIC_0069667.JPG
break,html.Screen,4_124_1,2023-09-08T20:56:31.302Z,,0,,,NaN,,,,,,false,,,,771965.8000001907,771965.4000000954,,771964.3000001907,,771970.757,8,400,,,
break_continue,html.Screen,4_124_2,2023-09-08T20:56:31.302Z,,0,,,NaN,,,,,,false,,,,771966.7000002861,771966.4000000954,,771966.2000002861,,771970.757,8,400,,,
sequence,flow.Sequence,4_124,2023-09-08T20:56:31.303Z,,0,,,6862.22400009539,completion,,,,,false,,,,771967.2000002861,771966.4000000954,765087.47,765095.1000003815,765104.176,771970.757,8,400,,,
trial,html.Screen,4_125_0,2023-09-08T20:56:35.132Z,,0,3,,3824.643000095384,response,ISIC_0071050.JPG,6,ISIC_6634951.JPG,ISIC_6634951.JPG,false,0,keypress(z),500,775796,775795.4000000954,771954.05,771968.1000003815,771970.757,775813.106,8,400,26,,ISIC_0071050.JPG
break,html.Screen,4_125_1,2023-09-08T20:56:35.133Z,,0,,,NaN,,,,,,false,,,,775797.7000002861,775797.3000001907,,775796.5,,775813.106,8,400,,,
