sender,sender_type,sender_id,timestamp,meta,,blockNo,condition,duration,ended_on,img_left,img_reveal,img_right,loser,practice,response,response_action,selection_duration,time_commit,time_end,time_render,time_run,time_show,time_switch,total_blocks,total_trials,trialNo,url,winner
informed_consent,html.Screen,0,2023-11-03T02:02:58.828Z,"{""labjs_version"":""20.2.4"",""labjs_build"":{""flavor"":""production"",""commit"":""f5b4a49f956347addd546a832a3327688c2c0fef""},""location"":""https://run.pavlovia.org/MurrayBennett/melanoma-2afc/?participant=67316&platform=sona"",""userAgent"":""Mozilla/5.0 (Windows NT 10.0; Win64; x64) AppleWebKit/537.36 (KHTML, like Gecko) Chrome/118.0.0.0 Safari/537.36 Edg/118.0.2088.69"",""platform"":""Win32"",""language"":""en-US"",""locale"":""en-US"",""timeZone"":""America/Chicago"",""timezoneOffset"":300,""screen_width"":1366,""screen_height"":768,""scroll_width"":1318,""scroll_height"":598,""window_innerWidth"":1318,""window_innerHeight"":646,""devicePixelRatio"":1}",,,,6226.274000047684,response,,,,,,consent,click button,,8103.299999952316,8100.700000047684,1841.157,1844.7000000476837,1874.426,8125.161,,,,"{""participant"":""67316"",""platform"":""sona""}",
Welcome,html.Screen,1,2023-11-03T02:03:21.277Z,,,,colourful,22425.638999952316,response,,,,,,continue,click button,,30552.099999904633,30550.799999952316,8089.652,8103.799999952316,8125.161,30567.182,,,,,
trial,html.Screen,2_0_0,2023-11-03T02:03:32.774Z,,0,0,,11513.703999999998,timeout,ISIC_0025593.JPG,,ISIC_0063388.JPG,,true,,,500,42049.200000047684,42048.799999952316,30550.435,30552.599999904633,30567.182,42080.886,1,6,1,,
sequence,flow.Sequence,2_0,2023-11-03T02:03:32.775Z,,0,,,11481.617999952316,completion,,,,,true,,,,42049.700000047684,42048.799999952316,30550.435,30552.5,30567.182,42080.886,1,6,,,
trial,html.Screen,2_1_0,2023-11-03T02:03:40.462Z,,0,0,,7656.213999904634,response,ISIC_0028178.JPG,,ISIC_1309015.JPG,ISIC_1309015.JPG,true,0,keypress(z),500,49737.40000009537,49737.09999990463,42064.024,42050,42080.886,49745.938,1,6,2,,ISIC_0028178.JPG
sequence,flow.Sequence,2_1,2023-11-03T02:03:40.463Z,,0,,,7656.213999904634,completion,,,,,true,,,,49737.90000009537,49737.09999990463,42064.024,42050,42080.886,49745.938,1,6,,,
trial,html.Screen,2_2_0,2023-11-03T02:03:44.199Z,,0,0,,3728.262000047682,response,ISIC_0031128.JPG,,ISIC_3314853.JPG,ISIC_3314853.JPG,true,0,keypress(z),500,53474.59999990463,53474.200000047684,49729,49738.200000047684,49745.938,53477.722,1,6,3,,ISIC_0031128.JPG
sequence,flow.Sequence,2_2,2023-11-03T02:03:44.200Z,,0,,,3728.262000047682,completion,,,,,true,,,,53475,53474.200000047684,49729,49738,49745.938,53477.722,1,6,,,
trial,html.Screen,2_3_0,2023-11-03T02:03:47.214Z,,0,0,,3010.678000095366,response,ISIC_0031612.JPG,,ISIC_8980141.JPG,ISIC_8980141.JPG,true,0,keypress(z),500,56488.799999952316,56488.40000009537,53461.307,53475.299999952316,53477.722,56493.623,1,6,4,,ISIC_0031612.JPG
sequence,flow.Sequence,2_3,2023-11-03T02:03:47.214Z,,0,,,3010.678000095366,completion,,,,,true,,,,56489.40000009537,56488.40000009537,53461.307,53475.299999952316,53477.722,56493.623,1,6,,,
trial,html.Screen,2_4_0,2023-11-03T02:03:50.772Z,,0,0,,3553.476999904633,response,ISIC_1197737.JPG,,ISIC_9721604.JPG,ISIC_9721604.JPG,true,0,keypress(z),500,60047.5,60047.09999990463,56477.049,56489.59999990463,56493.623,60059.309,1,6,5,,ISIC_1197737.JPG
sequence,flow.Sequence,2_4,2023-11-03T02:03:50.773Z,,0,,,3553.476999904633,completion,,,,,true,,,,60047.90000009537,60047.09999990463,56477.049,56489.59999990463,56493.623,60059.309,1,6,,,
trial,html.Screen,2_5_0,2023-11-03T02:03:54.862Z,,0,0,,4077.5910000953663,response,ISIC_0025346.JPG,,ISIC_0010681.JPG,ISIC_0010681.JPG,true,0,keypress(z),500,64137.200000047684,64136.90000009537,60043.109,60048.09999990463,60059.309,64141.569,1,6,6,,ISIC_0025346.JPG
sequence,flow.Sequence,2_5,2023-11-03T02:03:54.863Z,,0,,,4077.5910000953663,completion,,,,,true,,,,64137.700000047684,64136.90000009537,60043.109,60048,60059.309,64141.569,1,6,,,
loop,flow.Loop,2,2023-11-03T02:03:54.863Z,,,,,33569.71800009537,completion,,,,,true,,,,64138,64136.90000009537,30550.435,30552.299999952316,30567.182,64141.569,1,6,,,
exp_instructions,html.Screen,3,2023-11-03T02:03:57.402Z,,,,,2534.1310000476806,response,,,,,,continue,keypress(Space),,66677.09999990463,66675.70000004768,64124.874,64138.299999952316,64141.569,66692.464,,,,,
trial,html.Screen,4_0_0,2023-11-03T02:04:01.443Z,,0,1,,4025.43600009536,response,ISIC_9509813.JPG,10,ISIC_4382115.JPG,ISIC_9509813.JPG,false,1,keypress(m),500,70718.29999995232,70717.90000009537,66674.345,66677.5,66692.464,70723.539,8,400,1,,ISIC_4382115.JPG
break,html.Screen,4_0_1,2023-11-03T02:04:01.446Z,,0,,,NaN,,,,,,false,,,,70720.79999995232,70720.09999990463,,70718.5,,70723.539,8,400,,,
break_continue,html.Screen,4_0_2,2023-11-03T02:04:01.447Z,,0,,,NaN,,,,,,false,,,,70721.79999995232,70721.40000009537,,70721,,70723.539,8,400,,,
sequence,flow.Sequence,4_0,2023-11-03T02:04:01.447Z,,0,,,4028.93600009536,completion,,,,,false,,,,70722,70721.40000009537,66674.345,66677.5,66692.464,70723.539,8,400,,,
trial,html.Screen,4_1_0,2023-11-03T02:04:04.513Z,,0,1,,3063.4609999999957,response,ISIC_0062382.JPG,11,ISIC_0005655.JPG,ISIC_0005655.JPG,false,0,keypress(z),500,73787.59999990463,73787,70707.425,70722.20000004768,70723.539,73805.972,8,400,2,,ISIC_0062382.JPG
break,html.Screen,4_1_1,2023-11-03T02:04:04.515Z,,0,,,NaN,,,,,,false,,,,73789.70000004768,73789.09999990463,,73787.90000009537,,73805.972,8,400,,,
break_continue,html.Screen,4_1_2,2023-11-03T02:04:04.516Z,,0,,,NaN,,,,,,false,,,,73790.59999990463,73790.29999995232,,73790,,73805.972,8,400,,,
sequence,flow.Sequence,4_1,2023-11-03T02:04:04.516Z,,0,,,3066.760999952312,completion,,,,,false,,,,73790.90000009537,73790.29999995232,70707.425,70722.20000004768,70723.539,73805.972,8,400,,,
trial,html.Screen,4_2_0,2023-11-03T02:04:07.932Z,,0,1,,3400.428000095373,response,ISIC_5565517.JPG,12,ISIC_8692155.JPG,ISIC_8692155.JPG,false,0,keypress(z),500,77206.70000004768,77206.40000009537,73772.854,73791.20000004768,73805.972,77221.546,8,400,3,,ISIC_5565517.JPG
break,html.Screen,4_2_1,2023-11-03T02:04:07.934Z,,0,,,NaN,,,,,,false,,,,77208.59999990463,77208.20000004768,,77207,,77221.546,8,400,,,
break_continue,html.Screen,4_2_2,2023-11-03T02:04:07.934Z,,0,,,NaN,,,,,,false,,,,77209.29999995232,77209.09999990463,,77208.79999995232,,77221.546,8,400,,,
sequence,flow.Sequence,4_2,2023-11-03T02:04:07.935Z,,0,,,3403.1279999046383,completion,,,,,false,,,,77209.5,77209.09999990463,73772.854,73791.09999990463,73805.972,77221.546,8,400,,,
trial,html.Screen,4_3_0,2023-11-03T02:04:11.989Z,,0,1,,4041.753999952314,response,ISIC_2876073.JPG,5,ISIC_4412555.JPG,ISIC_2876073.JPG,false,1,keypress(m),500,81263.79999995232,81263.29999995232,77205.549,77209.79999995232,77221.546,81270.491,8,400,4,,ISIC_4412555.JPG
break,html.Screen,4_3_1,2023-11-03T02:04:11.991Z,,0,,,NaN,,,,,,false,,,,81265.79999995232,81265.40000009537,,81264.20000004768,,81270.491,8,400,,,
break_continue,html.Screen,4_3_2,2023-11-03T02:04:11.992Z,,0,,,NaN,,,,,,false,,,,81266.59999990463,81266.5,,81266.09999990463,,81270.491,8,400,,,
sequence,flow.Sequence,4_3,2023-11-03T02:04:11.992Z,,0,,,4044.953999999998,completion,,,,,false,,,,81266.90000009537,81266.5,77205.549,77209.59999990463,77221.546,81270.491,8,400,,,
trial,html.Screen,4_4_0,2023-11-03T02:04:16.224Z,,0,1,,4227.709000047689,response,ISIC_0030552.JPG,11,ISIC_7071944.JPG,ISIC_7071944.JPG,false,0,keypress(z),500,85498.5,85498.20000004768,81253.92,81267.09999990463,81270.491,85502.701,8,400,5,,ISIC_0030552.JPG
break,html.Screen,4_4_1,2023-11-03T02:04:16.226Z,,0,,,NaN,,,,,,false,,,,85500.59999990463,85500.09999990463,,85498.90000009537,,85502.701,8,400,,,
break_continue,html.Screen,4_4_2,2023-11-03T02:04:16.226Z,,0,,,NaN,,,,,,false,,,,85501.40000009537,85501.20000004768,,85500.79999995232,,85502.701,8,400,,,
sequence,flow.Sequence,4_4,2023-11-03T02:04:16.227Z,,0,,,4230.709000047689,completion,,,,,false,,,,85501.59999990463,85501.20000004768,81253.92,81267.09999990463,81270.491,85502.701,8,400,,,
trial,html.Screen,4_5_0,2023-11-03T02:04:19.127Z,,0,1,,2899.0989999523154,response,ISIC_0032590.JPG,5,ISIC_0027669.JPG,ISIC_0032590.JPG,false,1,keypress(m),500,88402.20000004768,88401.79999995232,85486.393,85501.79999995232,85502.701,88418.62,8,400,6,,ISIC_0027669.JPG
break,html.Screen,4_5_1,2023-11-03T02:04:19.129Z,,0,,,NaN,,,,,,false,,,,88404.20000004768,88403.70000004768,,88402.5,,88418.62,8,400,,,
break_continue,html.Screen,4_5_2,2023-11-03T02:04:19.130Z,,0,,,NaN,,,,,,false,,,,88405.09999990463,88404.79999995232,,88404.5,,88418.62,8,400,,,
sequence,flow.Sequence,4_5,2023-11-03T02:04:19.130Z,,0,,,2902.0989999523154,completion,,,,,false,,,,88405.40000009537,88404.79999995232,85486.393,85501.70000004768,85502.701,88418.62,8,400,,,
trial,html.Screen,4_6_0,2023-11-03T02:04:22.337Z,,0,1,,3192.679999952321,response,ISIC_3093026.JPG,10,ISIC_0011437.JPG,ISIC_0011437.JPG,false,0,keypress(z),500,91611.70000004768,91611.29999995232,88401.94,88405.59999990463,88418.62,91617.788,8,400,7,,ISIC_3093026.JPG
break,html.Screen,4_6_1,2023-11-03T02:04:22.339Z,,0,,,NaN,,,,,,false,,,,91614.09999990463,91613.5,,91612.09999990463,,91617.788,8,400,,,
break_continue,html.Screen,4_6_2,2023-11-03T02:04:22.340Z,,0,,,NaN,,,,,,false,,,,91615.09999990463,91614.90000009537,,91614.40000009537,,91617.788,8,400,,,
sequence,flow.Sequence,4_6,2023-11-03T02:04:22.340Z,,0,,,3196.280000095372,completion,,,,,false,,,,91615.5,91614.90000009537,88401.94,88405.5,88418.62,91617.788,8,400,,,
trial,html.Screen,4_7_0,2023-11-03T02:04:26.334Z,,0,1,,3991.311999904632,response,ISIC_0025702.JPG,10,ISIC_0067893.JPG,ISIC_0025702.JPG,false,1,keypress(m),500,95609.40000009537,95609.09999990463,91601.314,91615.70000004768,91617.788,95616.74,8,400,8,,ISIC_0067893.JPG
break,html.Screen,4_7_1,2023-11-03T02:04:26.337Z,,0,,,NaN,,,,,,false,,,,95611.70000004768,95611.09999990463,,95609.70000004768,,95616.74,8,400,,,
break_continue,html.Screen,4_7_2,2023-11-03T02:04:26.338Z,,0,,,NaN,,,,,,false,,,,95612.59999990463,95612.29999995232,,95611.90000009537,,95616.74,8,400,,,
sequence,flow.Sequence,4_7,2023-11-03T02:04:26.338Z,,0,,,3994.511999952316,completion,,,,,false,,,,95613,95612.29999995232,91601.314,91615.59999990463,91617.788,95616.74,8,400,,,
trial,html.Screen,4_8_0,2023-11-03T02:04:29.613Z,,0,1,,3270.7599999999948,response,ISIC_7271745.JPG,4,ISIC_9799596.JPG,ISIC_9799596.JPG,false,0,keypress(z),500,98887.90000009537,98887.5,95600.247,95613.29999995232,95616.74,98899.94,8,400,9,,ISIC_7271745.JPG
break,html.Screen,4_8_1,2023-11-03T02:04:29.615Z,,0,,,NaN,,,,,,false,,,,98890.40000009537,98889.59999990463,,98888.29999995232,,98899.94,8,400,,,
break_continue,html.Screen,4_8_2,2023-11-03T02:04:29.616Z,,0,,,NaN,,,,,,false,,,,98891.40000009537,98891.09999990463,,98890.70000004768,,98899.94,8,400,,,
sequence,flow.Sequence,4_8,2023-11-03T02:04:29.617Z,,0,,,3274.3599999046273,completion,,,,,false,,,,98891.70000004768,98891.09999990463,95600.247,95613.20000004768,95616.74,98899.94,8,400,,,
trial,html.Screen,4_9_0,2023-11-03T02:04:32.757Z,,0,1,,3131.859999952314,response,ISIC_0071481.JPG,10,ISIC_0026292.JPG,ISIC_0071481.JPG,false,1,keypress(m),500,102032.09999990463,102031.79999995232,98882.609,98891.79999995232,98899.94,102048.384,8,400,10,,ISIC_0026292.JPG
break,html.Screen,4_9_1,2023-11-03T02:04:32.759Z,,0,,,NaN,,,,,,false,,,,102034.09999990463,102033.5,,102032.40000009537,,102048.384,8,400,,,
break_continue,html.Screen,4_9_2,2023-11-03T02:04:32.760Z,,0,,,NaN,,,,,,false,,,,102034.79999995232,102034.59999990463,,102034.29999995232,,102048.384,8,400,,,
sequence,flow.Sequence,4_9,2023-11-03T02:04:32.760Z,,0,,,3134.6599999046302,completion,,,,,false,,,,102035.09999990463,102034.59999990463,98882.609,98891.79999995232,98899.94,102048.384,8,400,,,
trial,html.Screen,4_10_0,2023-11-03T02:04:37.052Z,,0,1,,4277.915999952311,response,ISIC_8478591.JPG,0,ISIC_2200197.JPG,ISIC_8478591.JPG,false,1,keypress(m),500,106326.5,106326.29999995232,102031.989,102035.29999995232,102048.384,106330.62,8,400,11,,ISIC_2200197.JPG
break,html.Screen,4_10_1,2023-11-03T02:04:37.053Z,,0,,,NaN,,,,,,false,,,,106328.29999995232,106327.90000009537,,106326.90000009537,,106330.62,8,400,,,
break_continue,html.Screen,4_10_2,2023-11-03T02:04:37.054Z,,0,,,NaN,,,,,,false,,,,106329.09999990463,106328.90000009537,,106328.5,,106330.62,8,400,,,
sequence,flow.Sequence,4_10,2023-11-03T02:04:37.054Z,,0,,,4280.516000095362,completion,,,,,false,,,,106329.29999995232,106328.90000009537,102031.989,102035.20000004768,102048.384,106330.62,8,400,,,
trial,html.Screen,4_11_0,2023-11-03T02:04:41.107Z,,0,1,,4051.280000095372,response,ISIC_7484771.JPG,7,ISIC_0029684.JPG,ISIC_0029684.JPG,false,0,keypress(z),500,110382.20000004768,110381.90000009537,106313.994,106329.5,106330.62,110396.177,8,400,12,,ISIC_7484771.JPG
break,html.Screen,4_11_1,2023-11-03T02:04:41.109Z,,0,,,NaN,,,,,,false,,,,110384.20000004768,110383.79999995232,,110382.59999990463,,110396.177,8,400,,,
break_continue,html.Screen,4_11_2,2023-11-03T02:04:41.110Z,,0,,,NaN,,,,,,false,,,,110385.20000004768,110385.09999990463,,110384.5,,110396.177,8,400,,,
sequence,flow.Sequence,4_11,2023-11-03T02:04:41.111Z,,0,,,4054.479999904637,completion,,,,,false,,,,110385.5,110385.09999990463,106313.994,106329.5,106330.62,110396.177,8,400,,,
trial,html.Screen,4_12_0,2023-11-03T02:04:45.856Z,,0,1,,4734.823000000004,response,ISIC_5539001.JPG,21,ISIC_2783450.JPG,ISIC_2783450.JPG,false,0,keypress(z),500,115131.40000009537,115131,110379.668,110385.70000004768,110396.177,115145.13,8,400,13,,ISIC_5539001.JPG
break,html.Screen,4_12_1,2023-11-03T02:04:45.859Z,,0,,,NaN,,,,,,false,,,,115133.70000004768,115133.09999990463,,115131.70000004768,,115145.13,8,400,,,
break_continue,html.Screen,4_12_2,2023-11-03T02:04:45.860Z,,0,,,NaN,,,,,,false,,,,115134.59999990463,115134.29999995232,,115133.90000009537,,115145.13,8,400,,,
sequence,flow.Sequence,4_12,2023-11-03T02:04:45.860Z,,0,,,4738.12299995232,completion,,,,,false,,,,115134.79999995232,115134.29999995232,110379.668,110385.70000004768,110396.177,115145.13,8,400,,,
trial,html.Screen,4_13_0,2023-11-03T02:04:48.862Z,,0,1,,2991.969999904628,response,ISIC_6366417.JPG,4,ISIC_0055759.JPG,ISIC_0055759.JPG,false,0,keypress(z),500,118137.5,118137.09999990463,115128.41,115135.09999990463,115145.13,118144.23,8,400,14,,ISIC_6366417.JPG
break,html.Screen,4_13_1,2023-11-03T02:04:48.864Z,,0,,,NaN,,,,,,false,,,,118139.40000009537,118138.90000009537,,118137.79999995232,,118144.23,8,400,,,
break_continue,html.Screen,4_13_2,2023-11-03T02:04:48.865Z,,0,,,NaN,,,,,,false,,,,118140.29999995232,118140,,118139.70000004768,,118144.23,8,400,,,
sequence,flow.Sequence,4_13,2023-11-03T02:04:48.866Z,,0,,,2994.8699999999953,completion,,,,,false,,,,118140.5,118140,115128.41,115134.90000009537,115145.13,118144.23,8,400,,,
trial,html.Screen,4_14_0,2023-11-03T02:04:52.747Z,,0,1,,3877.5699999523204,response,ISIC_6714923.JPG,40,ISIC_0025970.JPG,ISIC_0025970.JPG,false,0,keypress(z),500,122022.20000004768,122021.79999995232,118128.118,118140.70000004768,118144.23,122026.538,8,400,15,,ISIC_6714923.JPG
break,html.Screen,4_14_1,2023-11-03T02:04:52.749Z,,0,,,NaN,,,,,,false,,,,122023.90000009537,122023.5,,122022.40000009537,,122026.538,8,400,,,
break_continue,html.Screen,4_14_2,2023-11-03T02:04:52.750Z,,0,,,NaN,,,,,,false,,,,122024.59999990463,122024.40000009537,,122024.09999990463,,122026.538,8,400,,,
sequence,flow.Sequence,4_14,2023-11-03T02:04:52.750Z,,0,,,3880.1700000953715,completion,,,,,false,,,,122024.90000009537,122024.40000009537,118128.118,118140.70000004768,118144.23,122026.538,8,400,,,
trial,html.Screen,4_15_0,2023-11-03T02:04:56.258Z,,0,1,,3505.9619999999995,response,ISIC_8263489.JPG,11,ISIC_0029303.JPG,ISIC_0029303.JPG,false,0,keypress(z),500,125532.70000004768,125532.5,122009.935,122025.09999990463,122026.538,125542.225,8,400,16,,ISIC_8263489.JPG
break,html.Screen,4_15_1,2023-11-03T02:04:56.260Z,,0,,,NaN,,,,,,false,,,,125534.70000004768,125534.20000004768,,125533.09999990463,,125542.225,8,400,,,
break_continue,html.Screen,4_15_2,2023-11-03T02:04:56.261Z,,0,,,NaN,,,,,,false,,,,125535.70000004768,125535.5,,125535,,125542.225,8,400,,,
sequence,flow.Sequence,4_15,2023-11-03T02:04:56.261Z,,0,,,3508.9619999999995,completion,,,,,false,,,,125536.09999990463,125535.5,122009.935,122025,122026.538,125542.225,8,400,,,
trial,html.Screen,4_16_0,2023-11-03T02:04:59.392Z,,0,1,,3124.3749999046267,response,ISIC_5602826.JPG,26,ISIC_0032531.JPG,ISIC_0032531.JPG,false,0,keypress(z),500,128667,128666.59999990463,125525.743,125536.40000009537,125542.225,128675.131,8,400,17,,ISIC_5602826.JPG
break,html.Screen,4_16_1,2023-11-03T02:04:59.394Z,,0,,,NaN,,,,,,false,,,,128668.79999995232,128668.29999995232,,128667.29999995232,,128675.131,8,400,,,
break_continue,html.Screen,4_16_2,2023-11-03T02:04:59.395Z,,0,,,NaN,,,,,,false,,,,128669.59999990463,128669.40000009537,,128669,,128675.131,8,400,,,
sequence,flow.Sequence,4_16,2023-11-03T02:04:59.395Z,,0,,,3127.1750000953616,completion,,,,,false,,,,128669.79999995232,128669.40000009537,125525.743,125536.20000004768,125542.225,128675.131,8,400,,,
trial,html.Screen,4_17_0,2023-11-03T02:05:02.970Z,,0,1,,3569.369000000006,response,ISIC_0026112.JPG,6,ISIC_8502869.JPG,ISIC_8502869.JPG,false,0,keypress(z),500,132244.79999995232,132244.5,128658.137,128670,128675.131,132257.189,8,400,18,,ISIC_0026112.JPG
break,html.Screen,4_17_1,2023-11-03T02:05:02.972Z,,0,,,NaN,,,,,,false,,,,132246.79999995232,132246.29999995232,,132245.09999990463,,132257.189,8,400,,,
break_continue,html.Screen,4_17_2,2023-11-03T02:05:02.972Z,,0,,,NaN,,,,,,false,,,,132247.59999990463,132247.29999995232,,132247,,132257.189,8,400,,,
sequence,flow.Sequence,4_17,2023-11-03T02:05:02.973Z,,0,,,3572.1689999523223,completion,,,,,false,,,,132247.79999995232,132247.29999995232,128658.137,128669.90000009537,128675.131,132257.189,8,400,,,
trial,html.Screen,4_18_0,2023-11-03T02:05:06.326Z,,0,1,,3343.810999999987,response,ISIC_0029906.JPG,30,ISIC_6768006.JPG,ISIC_6768006.JPG,false,0,keypress(z),500,135601.40000009537,135601,132240.644,132247.90000009537,132257.189,135606.315,8,400,19,,ISIC_0029906.JPG
break,html.Screen,4_18_1,2023-11-03T02:05:06.328Z,,0,,,NaN,,,,,,false,,,,135603.40000009537,135602.90000009537,,135601.59999990463,,135606.315,8,400,,,
break_continue,html.Screen,4_18_2,2023-11-03T02:05:06.329Z,,0,,,NaN,,,,,,false,,,,135604.20000004768,135604,,135603.70000004768,,135606.315,8,400,,,
sequence,flow.Sequence,4_18,2023-11-03T02:05:06.329Z,,0,,,3346.810999999987,completion,,,,,false,,,,135604.40000009537,135604,132240.644,132247.90000009537,132257.189,135606.315,8,400,,,
trial,html.Screen,4_19_0,2023-11-03T02:05:09.298Z,,0,1,,2966.2849999046302,response,ISIC_0033304.JPG,4,ISIC_5297660.JPG,ISIC_0033304.JPG,false,1,keypress(m),500,138573.29999995232,138572.59999990463,135589.878,135604.59999990463,135606.315,138588.87,8,400,20,,ISIC_5297660.JPG
break,html.Screen,4_19_1,2023-11-03T02:05:09.300Z,,0,,,NaN,,,,,,false,,,,138575,138574.5,,138573.70000004768,,138588.87,8,400,,,
break_continue,html.Screen,4_19_2,2023-11-03T02:05:09.301Z,,0,,,NaN,,,,,,false,,,,138575.90000009537,138575.59999990463,,138575.20000004768,,138588.87,8,400,,,
sequence,flow.Sequence,4_19,2023-11-03T02:05:09.301Z,,0,,,2969.2849999046302,completion,,,,,false,,,,138576.20000004768,138575.59999990463,135589.878,135604.59999990463,135606.315,138588.87,8,400,,,
trial,html.Screen,4_20_0,2023-11-03T02:05:12.175Z,,0,1,,2860.729999904637,response,ISIC_9024724.JPG,10,ISIC_0056790.JPG,ISIC_0056790.JPG,false,0,keypress(z),500,141449.90000009537,141449.59999990463,138572.364,138576.29999995232,138588.87,141454.797,8,400,21,,ISIC_9024724.JPG
break,html.Screen,4_20_1,2023-11-03T02:05:12.177Z,,0,,,NaN,,,,,,false,,,,141451.79999995232,141451.29999995232,,141450.20000004768,,141454.797,8,400,,,
break_continue,html.Screen,4_20_2,2023-11-03T02:05:12.178Z,,0,,,NaN,,,,,,false,,,,141452.5,141452.40000009537,,141452.09999990463,,141454.797,8,400,,,
sequence,flow.Sequence,4_20,2023-11-03T02:05:12.178Z,,0,,,2863.530000095372,completion,,,,,false,,,,141452.79999995232,141452.40000009537,138572.364,138576.29999995232,138588.87,141454.797,8,400,,,
trial,html.Screen,4_21_0,2023-11-03T02:05:15.963Z,,0,1,,3782.502999952325,response,ISIC_3319229.JPG,5,ISIC_0001792.JPG,ISIC_3319229.JPG,false,1,keypress(m),500,145237.59999990463,145237.29999995232,141438.188,141453.09999990463,141454.797,145253.781,8,400,22,,ISIC_0001792.JPG
break,html.Screen,4_21_1,2023-11-03T02:05:15.965Z,,0,,,NaN,,,,,,false,,,,145239.90000009537,145239.29999995232,,145238,,145253.781,8,400,,,
break_continue,html.Screen,4_21_2,2023-11-03T02:05:15.966Z,,0,,,NaN,,,,,,false,,,,145240.90000009537,145240.59999990463,,145240.09999990463,,145253.781,8,400,,,
sequence,flow.Sequence,4_21,2023-11-03T02:05:15.966Z,,0,,,3785.802999904641,completion,,,,,false,,,,145241.29999995232,145240.59999990463,141438.188,141453,141454.797,145253.781,8,400,,,
trial,html.Screen,4_22_0,2023-11-03T02:05:21.110Z,,0,1,,5130.818999904644,response,ISIC_0013842.JPG,24,ISIC_0031914.JPG,ISIC_0031914.JPG,false,0,keypress(z),500,150384.90000009537,150384.59999990463,145237.457,145241.59999990463,145253.781,150402.694,8,400,23,,ISIC_0013842.JPG
break,html.Screen,4_22_1,2023-11-03T02:05:21.112Z,,0,,,NaN,,,,,,false,,,,150386.70000004768,150386.29999995232,,150385.20000004768,,150402.694,8,400,,,
break_continue,html.Screen,4_22_2,2023-11-03T02:05:21.112Z,,0,,,NaN,,,,,,false,,,,150387.5,150387.20000004768,,150387,,150402.694,8,400,,,
sequence,flow.Sequence,4_22,2023-11-03T02:05:21.113Z,,0,,,5133.419000047696,completion,,,,,false,,,,150387.70000004768,150387.20000004768,145237.457,145241.5,145253.781,150402.694,8,400,,,
trial,html.Screen,4_23_0,2023-11-03T02:05:24.430Z,,0,1,,3301.706000095379,response,ISIC_9232153.JPG,6,ISIC_3409824.JPG,ISIC_9232153.JPG,false,1,keypress(m),500,153704.79999995232,153704.40000009537,150370.13,150387.90000009537,150402.694,153718.201,8,400,24,,ISIC_3409824.JPG
break,html.Screen,4_23_1,2023-11-03T02:05:24.432Z,,0,,,NaN,,,,,,false,,,,153706.70000004768,153706.09999990463,,153705.09999990463,,153718.201,8,400,,,
break_continue,html.Screen,4_23_2,2023-11-03T02:05:24.433Z,,0,,,NaN,,,,,,false,,,,153707.59999990463,153707.29999995232,,153706.90000009537,,153718.201,8,400,,,
sequence,flow.Sequence,4_23,2023-11-03T02:05:24.433Z,,0,,,3304.6059999523277,completion,,,,,false,,,,153707.90000009537,153707.29999995232,150370.13,150387.90000009537,150402.694,153718.201,8,400,,,
trial,html.Screen,4_24_0,2023-11-03T02:05:27.093Z,,0,1,,2648.999000047683,response,ISIC_5585279.JPG,16,ISIC_0056849.JPG,ISIC_5585279.JPG,false,1,keypress(m),500,156367.70000004768,156367.20000004768,153701.808,153708.09999990463,153718.201,156384.228,8,400,25,,ISIC_0056849.JPG
break,html.Screen,4_24_1,2023-11-03T02:05:27.095Z,,0,,,NaN,,,,,,false,,,,156369.59999990463,156369.20000004768,,156367.90000009537,,156384.228,8,400,,,
break_continue,html.Screen,4_24_2,2023-11-03T02:05:27.095Z,,0,,,NaN,,,,,,false,,,,156370.40000009537,156370.29999995232,,156369.90000009537,,156384.228,8,400,,,
sequence,flow.Sequence,4_24,2023-11-03T02:05:27.096Z,,0,,,2652.0989999523154,completion,,,,,false,,,,156370.70000004768,156370.29999995232,153701.808,153708,153718.201,156384.228,8,400,,,
trial,html.Screen,4_25_0,2023-11-03T02:05:31.451Z,,0,1,,4341.271999999997,response,ISIC_9182285.JPG,6,ISIC_0033545.JPG,ISIC_9182285.JPG,false,1,keypress(m),500,160725.79999995232,160725.5,156367.456,156371,156384.228,160733.096,8,400,26,,ISIC_0033545.JPG
break,html.Screen,4_25_1,2023-11-03T02:05:31.453Z,,0,,,NaN,,,,,,false,,,,160727.90000009537,160727.40000009537,,160726.09999990463,,160733.096,8,400,,,
break_continue,html.Screen,4_25_2,2023-11-03T02:05:31.454Z,,0,,,NaN,,,,,,false,,,,160728.70000004768,160728.5,,160728,,160733.096,8,400,,,
sequence,flow.Sequence,4_25,2023-11-03T02:05:31.456Z,,0,,,4344.271999999997,completion,,,,,false,,,,160731,160728.5,156367.456,156370.90000009537,156384.228,160733.096,8,400,,,
trial,html.Screen,4_26_0,2023-11-03T02:05:34.998Z,,0,1,,3540.003999904642,response,ISIC_1389563.JPG,15,ISIC_0026664.JPG,ISIC_0026664.JPG,false,0,keypress(z),500,164273.5,164273.09999990463,160716.642,160731.29999995232,160733.096,164282.157,8,400,27,,ISIC_1389563.JPG
break,html.Screen,4_26_1,2023-11-03T02:05:35.000Z,,0,,,NaN,,,,,,false,,,,164275.20000004768,164274.90000009537,,164273.70000004768,,164282.157,8,400,,,
break_continue,html.Screen,4_26_2,2023-11-03T02:05:35.001Z,,0,,,NaN,,,,,,false,,,,164276,164275.70000004768,,164275.40000009537,,164282.157,8,400,,,
sequence,flow.Sequence,4_26,2023-11-03T02:05:35.001Z,,0,,,3542.6040000476933,completion,,,,,false,,,,164276.20000004768,164275.70000004768,160716.642,160731.20000004768,160733.096,164282.157,8,400,,,
trial,html.Screen,4_27_0,2023-11-03T02:05:39.277Z,,0,1,,4269.743000095361,response,ISIC_6954782.JPG,9,ISIC_6576397.JPG,ISIC_6954782.JPG,false,1,keypress(m),500,168552.20000004768,168551.90000009537,164265.993,164276.29999995232,164282.157,168567.952,8,400,28,,ISIC_6576397.JPG
break,html.Screen,4_27_1,2023-11-03T02:05:39.280Z,,0,,,NaN,,,,,,false,,,,168554.59999990463,168553.70000004768,,168552.59999990463,,168567.952,8,400,,,
break_continue,html.Screen,4_27_2,2023-11-03T02:05:39.281Z,,0,,,NaN,,,,,,false,,,,168555.59999990463,168555.29999995232,,168554.90000009537,,168567.952,8,400,,,
sequence,flow.Sequence,4_27,2023-11-03T02:05:39.281Z,,0,,,4273.14299995231,completion,,,,,false,,,,168555.90000009537,168555.29999995232,164265.993,164276.29999995232,164282.157,168567.952,8,400,,,
trial,html.Screen,4_28_0,2023-11-03T02:05:42.027Z,,0,1,,2733.6479999046423,response,ISIC_2470790.JPG,24,ISIC_0056979.JPG,ISIC_2470790.JPG,false,1,keypress(m),500,171301.90000009537,171301.59999990463,168547.891,168556.09999990463,168567.952,171313.623,8,400,29,,ISIC_0056979.JPG
break,html.Screen,4_28_1,2023-11-03T02:05:42.029Z,,0,,,NaN,,,,,,false,,,,171303.79999995232,171303.20000004768,,171302.20000004768,,171313.623,8,400,,,
break_continue,html.Screen,4_28_2,2023-11-03T02:05:42.030Z,,0,,,NaN,,,,,,false,,,,171304.70000004768,171304.5,,171304,,171313.623,8,400,,,
sequence,flow.Sequence,4_28,2023-11-03T02:05:42.030Z,,0,,,2736.54800000001,completion,,,,,false,,,,171304.90000009537,171304.5,168547.891,168556,168567.952,171313.623,8,400,,,
trial,html.Screen,4_29_0,2023-11-03T02:05:47.268Z,,0,1,,5228.877000000008,response,ISIC_0034211.JPG,6,ISIC_0031477.JPG,ISIC_0031477.JPG,false,0,keypress(z),500,176542.90000009537,176542.5,171297.069,171305.09999990463,171313.623,176545.655,8,400,30,,ISIC_0034211.JPG
break,html.Screen,4_29_1,2023-11-03T02:05:47.270Z,,0,,,NaN,,,,,,false,,,,176544.79999995232,176544.29999995232,,176543.20000004768,,176545.655,8,400,,,
break_continue,html.Screen,4_29_2,2023-11-03T02:05:47.271Z,,0,,,NaN,,,,,,false,,,,176545.90000009537,176545.5,,176545,,176545.655,8,400,,,
sequence,flow.Sequence,4_29,2023-11-03T02:05:47.271Z,,0,,,5231.877000000008,completion,,,,,false,,,,176546.59999990463,176545.5,171297.069,171305.09999990463,171313.623,176545.655,8,400,,,
trial,html.Screen,4_30_0,2023-11-03T02:05:49.924Z,,0,1,,2652.7450000953686,response,ISIC_0056790.JPG,8,ISIC_0014722.JPG,ISIC_0056790.JPG,false,1,keypress(m),500,179198.90000009537,179198.40000009537,176529.206,176546.79999995232,176545.655,179211.591,8,400,31,,ISIC_0014722.JPG
break,html.Screen,4_30_1,2023-11-03T02:05:49.926Z,,0,,,NaN,,,,,,false,,,,179200.79999995232,179200.20000004768,,179199.20000004768,,179211.591,8,400,,,
break_continue,html.Screen,4_30_2,2023-11-03T02:05:49.927Z,,0,,,NaN,,,,,,false,,,,179201.59999990463,179201.5,,179201.09999990463,,179211.591,8,400,,,
sequence,flow.Sequence,4_30,2023-11-03T02:05:49.927Z,,0,,,2655.845000000001,completion,,,,,false,,,,179202,179201.5,176529.206,176546.79999995232,176545.655,179211.591,8,400,,,
trial,html.Screen,4_31_0,2023-11-03T02:05:53.279Z,,0,1,,3342.609000047698,response,ISIC_7984080.JPG,6,ISIC_5370803.JPG,ISIC_5370803.JPG,false,0,keypress(z),500,182554.59999990463,182554.20000004768,179195.452,179202.09999990463,179211.591,182560.737,8,400,32,,ISIC_7984080.JPG
break,html.Screen,4_31_1,2023-11-03T02:05:53.281Z,,0,,,NaN,,,,,,false,,,,182556.5,182556.09999990463,,182554.90000009537,,182560.737,8,400,,,
break_continue,html.Screen,4_31_2,2023-11-03T02:05:53.282Z,,0,,,NaN,,,,,,false,,,,182557.20000004768,182557,,182556.70000004768,,182560.737,8,400,,,
sequence,flow.Sequence,4_31,2023-11-03T02:05:53.282Z,,0,,,3345.409000000014,completion,,,,,false,,,,182557.5,182557,179195.452,179202.09999990463,179211.591,182560.737,8,400,,,
trial,html.Screen,4_32_0,2023-11-03T02:05:56.103Z,,0,1,,2816.6630000953737,response,ISIC_0011516.JPG,12,ISIC_3495113.JPG,ISIC_3495113.JPG,false,0,keypress(z),500,185377.79999995232,185377.40000009537,182544.144,182557.70000004768,182560.737,185393.421,8,400,33,,ISIC_0011516.JPG
break,html.Screen,4_32_1,2023-11-03T02:05:56.105Z,,0,,,NaN,,,,,,false,,,,185379.70000004768,185379.20000004768,,185378.09999990463,,185393.421,8,400,,,
break_continue,html.Screen,4_32_2,2023-11-03T02:05:56.105Z,,0,,,NaN,,,,,,false,,,,185380.59999990463,185380.29999995232,,185379.90000009537,,185393.421,8,400,,,
sequence,flow.Sequence,4_32,2023-11-03T02:05:56.106Z,,0,,,2819.5629999523226,completion,,,,,false,,,,185380.90000009537,185380.29999995232,182544.144,182557.70000004768,182560.737,185393.421,8,400,,,
trial,html.Screen,4_33_0,2023-11-03T02:06:00.755Z,,0,1,,4635.878999952314,response,ISIC_6723937.JPG,6,ISIC_0064557.JPG,ISIC_0064557.JPG,false,0,keypress(z),500,190029.59999990463,190029.29999995232,185376.618,185381,185393.421,190042.086,8,400,34,,ISIC_6723937.JPG
break,html.Screen,4_33_1,2023-11-03T02:06:00.756Z,,0,,,NaN,,,,,,false,,,,190031.40000009537,190030.90000009537,,190029.90000009537,,190042.086,8,400,,,
break_continue,html.Screen,4_33_2,2023-11-03T02:06:00.757Z,,0,,,NaN,,,,,,false,,,,190032.09999990463,190031.90000009537,,190031.59999990463,,190042.086,8,400,,,
sequence,flow.Sequence,4_33,2023-11-03T02:06:00.757Z,,0,,,4638.479000095365,completion,,,,,false,,,,190032.40000009537,190031.90000009537,185376.618,185381,185393.421,190042.086,8,400,,,
trial,html.Screen,4_34_0,2023-11-03T02:06:04.041Z,,0,1,,3273.314000095357,response,ISIC_0659400.JPG,12,ISIC_5318217.JPG,ISIC_0659400.JPG,false,1,keypress(m),500,193315.59999990463,193315.40000009537,190025.305,190032.5,190042.086,193324.597,8,400,35,,ISIC_5318217.JPG
break,html.Screen,4_34_1,2023-11-03T02:06:04.042Z,,0,,,NaN,,,,,,false,,,,193317.59999990463,193317,,193315.90000009537,,193324.597,8,400,,,
break_continue,html.Screen,4_34_2,2023-11-03T02:06:04.045Z,,0,,,NaN,,,,,,false,,,,193320.09999990463,193319.59999990463,,193317.90000009537,,193324.597,8,400,,,
sequence,flow.Sequence,4_34,2023-11-03T02:06:04.045Z,,0,,,3277.5139999046223,completion,,,,,false,,,,193320.29999995232,193319.59999990463,190025.305,190032.40000009537,190042.086,193324.597,8,400,,,
trial,html.Screen,4_35_0,2023-11-03T02:06:07.173Z,,0,1,,3123.103000047675,response,ISIC_0061067.JPG,6,ISIC_8495875.JPG,ISIC_8495875.JPG,false,0,keypress(z),500,196448,196447.70000004768,193308.096,193320.5,193324.597,196457.697,8,400,36,,ISIC_0061067.JPG
break,html.Screen,4_35_1,2023-11-03T02:06:07.175Z,,0,,,NaN,,,,,,false,,,,196449.70000004768,196449.29999995232,,196448.29999995232,,196457.697,8,400,,,
break_continue,html.Screen,4_35_2,2023-11-03T02:06:07.175Z,,0,,,NaN,,,,,,false,,,,196450.40000009537,196450.29999995232,,196449.90000009537,,196457.697,8,400,,,
sequence,flow.Sequence,4_35,2023-11-03T02:06:07.176Z,,0,,,3125.7029999523074,completion,,,,,false,,,,196450.70000004768,196450.29999995232,193308.096,193320.5,193324.597,196457.697,8,400,,,
trial,html.Screen,4_36_0,2023-11-03T02:06:10.561Z,,0,1,,3378.402999904647,response,ISIC_0033359.JPG,12,ISIC_6208508.JPG,ISIC_6208508.JPG,false,0,keypress(z),500,199836.40000009537,199836.09999990463,196440.628,196450.90000009537,196457.697,199839.567,8,400,37,,ISIC_0033359.JPG
break,html.Screen,4_36_1,2023-11-03T02:06:10.563Z,,0,,,NaN,,,,,,false,,,,199838.20000004768,199837.70000004768,,199836.79999995232,,199839.567,8,400,,,
break_continue,html.Screen,4_36_2,2023-11-03T02:06:10.564Z,,0,,,NaN,,,,,,false,,,,199839,199838.79999995232,,199838.40000009537,,199839.567,8,400,,,
sequence,flow.Sequence,4_36,2023-11-03T02:06:10.564Z,,0,,,3381.1029999523307,completion,,,,,false,,,,199839.29999995232,199838.79999995232,196440.628,196450.79999995232,196457.697,199839.567,8,400,,,
trial,html.Screen,4_37_0,2023-11-03T02:06:14.012Z,,0,1,,3447.43299999999,response,ISIC_2126084.JPG,29,ISIC_0032377.JPG,ISIC_0032377.JPG,false,0,keypress(z),500,203287.29999995232,203287,199823.054,199839.5,199839.567,203305.317,8,400,38,,ISIC_2126084.JPG
break,html.Screen,4_37_1,2023-11-03T02:06:14.013Z,,0,,,NaN,,,,,,false,,,,203288.5,203288.20000004768,,203287.59999990463,,203305.317,8,400,,,
break_continue,html.Screen,4_37_2,2023-11-03T02:06:14.015Z,,0,,,NaN,,,,,,false,,,,203289.70000004768,203289.5,,203288.70000004768,,203305.317,8,400,,,
sequence,flow.Sequence,4_37,2023-11-03T02:06:14.015Z,,0,,,3449.93299999999,completion,,,,,false,,,,203290.09999990463,203289.5,199823.054,199839.5,199839.567,203305.317,8,400,,,
trial,html.Screen,4_38_0,2023-11-03T02:06:17.416Z,,0,1,,3384.9829999523063,response,ISIC_0014936.JPG,9,ISIC_0069995.JPG,ISIC_0014936.JPG,false,1,keypress(m),500,206690.79999995232,206690.29999995232,203288.672,203290.29999995232,203305.317,206704.432,8,400,39,,ISIC_0069995.JPG
break,html.Screen,4_38_1,2023-11-03T02:06:17.418Z,,0,,,NaN,,,,,,false,,,,206693.09999990463,206692.40000009537,,206691.20000004768,,206704.432,8,400,,,
break_continue,html.Screen,4_38_2,2023-11-03T02:06:17.419Z,,0,,,NaN,,,,,,false,,,,206693.90000009537,206693.70000004768,,206693.29999995232,,206704.432,8,400,,,
sequence,flow.Sequence,4_38,2023-11-03T02:06:17.419Z,,0,,,3388.3830000476737,completion,,,,,false,,,,206694.20000004768,206693.70000004768,203288.672,203290.20000004768,203305.317,206704.432,8,400,,,
trial,html.Screen,4_39_0,2023-11-03T02:06:21.359Z,,0,1,,3928.9680000953667,response,ISIC_5755836.JPG,14,ISIC_0010081.JPG,ISIC_5755836.JPG,false,1,keypress(m),500,210633.70000004768,210633.40000009537,206687.99,206694.5,206704.432,210636.764,8,400,40,,ISIC_0010081.JPG
break,html.Screen,4_39_1,2023-11-03T02:06:21.361Z,,0,,,NaN,,,,,,false,,,,210635.70000004768,210635.20000004768,,210634.09999990463,,210636.764,8,400,,,
break_continue,html.Screen,4_39_2,2023-11-03T02:06:21.361Z,,0,,,NaN,,,,,,false,,,,210636.40000009537,210636.20000004768,,210635.90000009537,,210636.764,8,400,,,
sequence,flow.Sequence,4_39,2023-11-03T02:06:21.362Z,,0,,,3931.768000047683,completion,,,,,false,,,,210636.79999995232,210636.20000004768,206687.99,206694.40000009537,206704.432,210636.764,8,400,,,
trial,html.Screen,4_40_0,2023-11-03T02:06:26.518Z,,0,1,,5155.936000047688,response,ISIC_5181177.JPG,12,ISIC_4614604.JPG,ISIC_4614604.JPG,false,0,keypress(z),500,215793.09999990463,215792.70000004768,210620.322,210637.09999990463,210636.764,215802.425,8,400,41,,ISIC_5181177.JPG
break,html.Screen,4_40_1,2023-11-03T02:06:26.520Z,,0,,,NaN,,,,,,false,,,,215794.79999995232,215794.40000009537,,215793.40000009537,,215802.425,8,400,,,
break_continue,html.Screen,4_40_2,2023-11-03T02:06:26.520Z,,0,,,NaN,,,,,,false,,,,215795.59999990463,215795.40000009537,,215795,,215802.425,8,400,,,
sequence,flow.Sequence,4_40,2023-11-03T02:06:26.521Z,,0,,,5158.636000095372,completion,,,,,false,,,,215795.79999995232,215795.40000009537,210620.322,210637,210636.764,215802.425,8,400,,,
trial,html.Screen,4_41_0,2023-11-03T02:06:29.232Z,,0,1,,2704.874999952328,response,ISIC_8814398.JPG,10,ISIC_0034199.JPG,ISIC_0034199.JPG,false,0,keypress(z),500,218507.59999990463,218507.29999995232,215785.621,215796,215802.425,218517.989,8,400,42,,ISIC_8814398.JPG
break,html.Screen,4_41_1,2023-11-03T02:06:29.234Z,,0,,,NaN,,,,,,false,,,,218509.40000009537,218508.90000009537,,218507.79999995232,,218517.989,8,400,,,
break_continue,html.Screen,4_41_2,2023-11-03T02:06:29.235Z,,0,,,NaN,,,,,,false,,,,218510.09999990463,218509.79999995232,,218509.5,,218517.989,8,400,,,
sequence,flow.Sequence,4_41,2023-11-03T02:06:29.235Z,,0,,,2707.374999952328,completion,,,,,false,,,,218510.29999995232,218509.79999995232,215785.621,215796,215802.425,218517.989,8,400,,,
trial,html.Screen,4_42_0,2023-11-03T02:06:31.958Z,,0,1,,2715.110999904631,response,ISIC_0027479.JPG,6,ISIC_3513288.JPG,ISIC_0027479.JPG,false,1,keypress(m),500,221233.29999995232,221233.09999990463,218501.776,218510.5,218517.989,221250.805,8,400,43,,ISIC_3513288.JPG
break,html.Screen,4_42_1,2023-11-03T02:06:31.960Z,,0,,,NaN,,,,,,false,,,,221235.09999990463,221234.70000004768,,221233.59999990463,,221250.805,8,400,,,
break_continue,html.Screen,4_42_2,2023-11-03T02:06:31.961Z,,0,,,NaN,,,,,,false,,,,221235.90000009537,221235.59999990463,,221235.29999995232,,221250.805,8,400,,,
sequence,flow.Sequence,4_42,2023-11-03T02:06:31.961Z,,0,,,2717.610999904631,completion,,,,,false,,,,221236.09999990463,221235.59999990463,218501.776,218510.40000009537,218517.989,221250.805,8,400,,,
trial,html.Screen,4_43_0,2023-11-03T02:06:35.026Z,,0,1,,3050.195000000007,response,ISIC_9288923.JPG,7,ISIC_6489993.JPG,ISIC_6489993.JPG,false,0,keypress(z),500,224301.29999995232,224301,221234.209,221236.29999995232,221250.805,224316.563,8,400,44,,ISIC_9288923.JPG
break,html.Screen,4_43_1,2023-11-03T02:06:35.028Z,,0,,,NaN,,,,,,false,,,,224302.59999990463,224302.29999995232,,224301.59999990463,,224316.563,8,400,,,
break_continue,html.Screen,4_43_2,2023-11-03T02:06:35.028Z,,0,,,NaN,,,,,,false,,,,224303.29999995232,224303.09999990463,,224302.79999995232,,224316.563,8,400,,,
sequence,flow.Sequence,4_43,2023-11-03T02:06:35.028Z,,0,,,3052.2949999046396,completion,,,,,false,,,,224303.5,224303.09999990463,221234.209,221236.29999995232,221250.805,224316.563,8,400,,,
trial,html.Screen,4_44_0,2023-11-03T02:06:40.137Z,,0,1,,5094.736999952322,response,ISIC_0010271.JPG,11,ISIC_8253326.JPG,ISIC_0010271.JPG,false,1,keypress(m),500,229411.70000004768,229411.29999995232,224299.847,224303.79999995232,224316.563,229415.207,8,400,45,,ISIC_8253326.JPG
break,html.Screen,4_44_1,2023-11-03T02:06:40.138Z,,0,,,NaN,,,,,,false,,,,229413.40000009537,229413,,229412,,229415.207,8,400,,,
break_continue,html.Screen,4_44_2,2023-11-03T02:06:40.139Z,,0,,,NaN,,,,,,false,,,,229414.09999990463,229413.90000009537,,229413.70000004768,,229415.207,8,400,,,
sequence,flow.Sequence,4_44,2023-11-03T02:06:40.139Z,,0,,,5097.337000095373,completion,,,,,false,,,,229414.40000009537,229413.90000009537,224299.847,224303.79999995232,224316.563,229415.207,8,400,,,
trial,html.Screen,4_45_0,2023-11-03T02:06:42.898Z,,0,1,,2757.293000000005,response,ISIC_0059336.JPG,11,ISIC_0062241.JPG,ISIC_0062241.JPG,false,0,keypress(z),500,232172.90000009537,232172.5,229398.739,229414.59999990463,229415.207,232181.246,8,400,46,,ISIC_0059336.JPG
break,html.Screen,4_45_1,2023-11-03T02:06:42.900Z,,0,,,NaN,,,,,,false,,,,232174.59999990463,232174.20000004768,,232173.20000004768,,232181.246,8,400,,,
break_continue,html.Screen,4_45_2,2023-11-03T02:06:42.900Z,,0,,,NaN,,,,,,false,,,,232175.29999995232,232175.20000004768,,232174.79999995232,,232181.246,8,400,,,
sequence,flow.Sequence,4_45,2023-11-03T02:06:42.901Z,,0,,,2759.993000047689,completion,,,,,false,,,,232175.59999990463,232175.20000004768,229398.739,229414.5,229415.207,232181.246,8,400,,,
trial,html.Screen,4_46_0,2023-11-03T02:06:48.557Z,,0,1,,5650.253999999986,response,ISIC_7466678.JPG,7,ISIC_0013636.JPG,ISIC_7466678.JPG,false,1,keypress(m),500,237831.90000009537,237831.5,232164.998,232175.79999995232,232181.246,237846.288,8,400,47,,ISIC_0013636.JPG
break,html.Screen,4_46_1,2023-11-03T02:06:48.559Z,,0,,,NaN,,,,,,false,,,,237833.79999995232,237833.40000009537,,237832.20000004768,,237846.288,8,400,,,
break_continue,html.Screen,4_46_2,2023-11-03T02:06:48.560Z,,0,,,NaN,,,,,,false,,,,237834.70000004768,237834.5,,237834.09999990463,,237846.288,8,400,,,
sequence,flow.Sequence,4_46,2023-11-03T02:06:48.560Z,,0,,,5653.253999999986,completion,,,,,false,,,,237835,237834.5,232164.998,232175.79999995232,232181.246,237846.288,8,400,,,
trial,html.Screen,4_47_0,2023-11-03T02:06:52.389Z,,0,1,,3817.7119999999995,response,ISIC_4887995.JPG,8,ISIC_0060390.JPG,ISIC_4887995.JPG,false,1,keypress(m),500,241664.40000009537,241664,237829.773,237835.20000004768,237846.288,241678.748,8,400,48,,ISIC_0060390.JPG
break,html.Screen,4_47_1,2023-11-03T02:06:52.391Z,,0,,,NaN,,,,,,false,,,,241666.29999995232,241665.79999995232,,241664.70000004768,,241678.748,8,400,,,
break_continue,html.Screen,4_47_2,2023-11-03T02:06:52.392Z,,0,,,NaN,,,,,,false,,,,241667.20000004768,241666.90000009537,,241666.59999990463,,241678.748,8,400,,,
sequence,flow.Sequence,4_47,2023-11-03T02:06:52.393Z,,0,,,3820.612000095367,completion,,,,,false,,,,241667.40000009537,241666.90000009537,237829.773,237835.09999990463,237846.288,241678.748,8,400,,,
trial,html.Screen,4_48_0,2023-11-03T02:06:55.377Z,,0,1,,2972.8519999046403,response,ISIC_9974299.JPG,22,ISIC_1368336.JPG,ISIC_9974299.JPG,false,1,keypress(m),500,244652,244651.59999990463,241662.047,241667.70000004768,241678.748,244661.212,8,400,49,,ISIC_1368336.JPG
break,html.Screen,4_48_1,2023-11-03T02:06:55.379Z,,0,,,NaN,,,,,,false,,,,244653.70000004768,244653.29999995232,,244652.20000004768,,244661.212,8,400,,,
break_continue,html.Screen,4_48_2,2023-11-03T02:06:55.379Z,,0,,,NaN,,,,,,false,,,,244654.40000009537,244654.09999990463,,244653.90000009537,,244661.212,8,400,,,
sequence,flow.Sequence,4_48,2023-11-03T02:06:55.380Z,,0,,,2975.3519999046403,completion,,,,,false,,,,244654.59999990463,244654.09999990463,241662.047,241667.59999990463,241678.748,244661.212,8,400,,,
trial,html.Screen,4_49_0,2023-11-03T02:06:59.562Z,,0,1,,4175.2880000000005,response,ISIC_8749288.JPG,8,ISIC_0015390.JPG,ISIC_8749288.JPG,false,1,keypress(m),500,248836.79999995232,248836.5,244644.681,244654.90000009537,244661.212,248844.242,8,400,50,,ISIC_0015390.JPG
break,html.Screen,4_49_1,2023-11-03T02:07:09.551Z,,0,,,9996.674999999988,timeout,,,,,false,,,,258826,258824.443,248827.219,248837.20000004768,248844.242,258840.917,8,400,,,
break_continue,html.Screen,4_49_2,2023-11-03T02:07:12.187Z,,0,,,2587.5830000000133,response,,,,,false,continue,keypress(Space),,261462,261428.5,258824.443,258826.29999995232,258840.917,261479.066,8,400,,,
sequence,flow.Sequence,4_49,2023-11-03T02:07:12.188Z,,0,,,16767.288,completion,,,,,false,,,,261462.5,261428.5,244644.681,244654.70000004768,244661.212,261479.066,8,400,,,
trial,html.Screen,4_50_0,2023-11-03T02:07:15.620Z,,0,2,,3415.834000095376,response,ISIC_2245069.JPG,9,ISIC_2238901.JPG,ISIC_2238901.JPG,false,0,keypress(z),500,264895.2999999523,264894.90000009537,261457.033,261462.59999990463,261479.066,264908.332,8,400,1,,ISIC_2245069.JPG
break,html.Screen,4_50_1,2023-11-03T02:07:15.622Z,,0,,,NaN,,,,,,false,,,,264897.2999999523,264896.7999999523,,264895.7000000477,,264908.332,8,400,,,
break_continue,html.Screen,4_50_2,2023-11-03T02:07:15.623Z,,0,,,NaN,,,,,,false,,,,264898.2000000477,264897.90000009537,,264897.59999990463,,264908.332,8,400,,,
sequence,flow.Sequence,4_50,2023-11-03T02:07:15.624Z,,0,,,3418.834000095376,completion,,,,,false,,,,264898.5,264897.90000009537,261457.033,261462.59999990463,261479.066,264908.332,8,400,,,
trial,html.Screen,4_51_0,2023-11-03T02:07:19.038Z,,0,2,,3404.0680000953726,response,ISIC_0001120.JPG,8,ISIC_8441905.JPG,ISIC_8441905.JPG,false,0,keypress(z),500,268312.7000000477,268312.40000009537,264889.327,264898.7000000477,264908.332,268321.722,8,400,2,,ISIC_0001120.JPG
break,html.Screen,4_51_1,2023-11-03T02:07:19.040Z,,0,,,NaN,,,,,,false,,,,268314.7000000477,268314.2000000477,,268313.09999990463,,268321.722,8,400,,,
break_continue,html.Screen,4_51_2,2023-11-03T02:07:19.041Z,,0,,,NaN,,,,,,false,,,,268315.40000009537,268315.2000000477,,268314.90000009537,,268321.722,8,400,,,
sequence,flow.Sequence,4_51,2023-11-03T02:07:19.041Z,,0,,,3406.868000047689,completion,,,,,false,,,,268315.7999999523,268315.2000000477,264889.327,264898.7000000477,264908.332,268321.722,8,400,,,
trial,html.Screen,4_52_0,2023-11-03T02:07:22.118Z,,0,2,,3070.5779999523074,response,ISIC_0029639.JPG,6,ISIC_1714941.JPG,ISIC_1714941.JPG,false,0,keypress(z),500,271392.7999999523,271392.2999999523,268305.32,268316,268321.722,271404.262,8,400,3,,ISIC_0029639.JPG
break,html.Screen,4_52_1,2023-11-03T02:07:22.120Z,,0,,,NaN,,,,,,false,,,,271394.90000009537,271394.40000009537,,271393.2000000477,,271404.262,8,400,,,
break_continue,html.Screen,4_52_2,2023-11-03T02:07:22.121Z,,0,,,NaN,,,,,,false,,,,271395.7999999523,271395.59999990463,,271395.09999990463,,271404.262,8,400,,,
sequence,flow.Sequence,4_52,2023-11-03T02:07:22.121Z,,0,,,3073.8779999046237,completion,,,,,false,,,,271396.09999990463,271395.59999990463,268305.32,268315.90000009537,268321.722,271404.262,8,400,,,
trial,html.Screen,4_53_0,2023-11-03T02:07:25.296Z,,0,2,,3165.938000047696,response,ISIC_7935989.JPG,21,ISIC_0001126.JPG,ISIC_7935989.JPG,false,1,keypress(m),500,274570.7000000477,274570.2000000477,271387.635,271396.40000009537,271404.262,274646.446,8,400,4,,ISIC_0001126.JPG
break,html.Screen,4_53_1,2023-11-03T02:07:25.298Z,,0,,,NaN,,,,,,false,,,,274572.7000000477,274572.2000000477,,274571.09999990463,,274646.446,8,400,,,
break_continue,html.Screen,4_53_2,2023-11-03T02:07:25.299Z,,0,,,NaN,,,,,,false,,,,274573.59999990463,274573.2999999523,,274573,,274646.446,8,400,,,
sequence,flow.Sequence,4_53,2023-11-03T02:07:25.299Z,,0,,,3169.0379999523284,completion,,,,,false,,,,274574,274573.2999999523,271387.635,271396.2000000477,271404.262,274646.446,8,400,,,
trial,html.Screen,4_54_0,2023-11-03T02:07:28.941Z,,0,2,,3569.35399995232,response,ISIC_0025313.JPG,10,ISIC_7670817.JPG,ISIC_0025313.JPG,false,1,keypress(m),500,278216.2000000477,278215.7999999523,274570.202,274574.2000000477,274646.446,278235.789,8,400,5,,ISIC_7670817.JPG
break,html.Screen,4_54_1,2023-11-03T02:07:28.943Z,,0,,,NaN,,,,,,false,,,,278217.7999999523,278217.40000009537,,278216.7000000477,,278235.789,8,400,,,
break_continue,html.Screen,4_54_2,2023-11-03T02:07:28.944Z,,0,,,NaN,,,,,,false,,,,278218.59999990463,278218.40000009537,,278218.09999990463,,278235.789,8,400,,,
sequence,flow.Sequence,4_54,2023-11-03T02:07:28.944Z,,0,,,3571.954000095371,completion,,,,,false,,,,278218.90000009537,278218.40000009537,274570.202,274574.09999990463,274646.446,278235.789,8,400,,,
trial,html.Screen,4_55_0,2023-11-03T02:07:32.360Z,,0,2,,3398.310999904643,response,ISIC_3070206.JPG,10,ISIC_1658623.JPG,ISIC_1658623.JPG,false,0,keypress(z),500,281634.5,281634.09999990463,278219.157,278219.2000000477,278235.789,281651.549,8,400,6,,ISIC_3070206.JPG
break,html.Screen,4_55_1,2023-11-03T02:07:32.362Z,,0,,,NaN,,,,,,false,,,,281636.7000000477,281636.2000000477,,281634.90000009537,,281651.549,8,400,,,
break_continue,html.Screen,4_55_2,2023-11-03T02:07:32.363Z,,0,,,NaN,,,,,,false,,,,281637.5,281637.2999999523,,281636.90000009537,,281651.549,8,400,,,
sequence,flow.Sequence,4_55,2023-11-03T02:07:32.363Z,,0,,,3401.5109999523265,completion,,,,,false,,,,281637.7999999523,281637.2999999523,278219.157,278219.09999990463,278235.789,281651.549,8,400,,,
trial,html.Screen,4_56_0,2023-11-03T02:07:35.278Z,,0,2,,2901.0509999046335,response,ISIC_0010860.JPG,10,ISIC_9291926.JPG,ISIC_9291926.JPG,false,0,keypress(z),500,284552.90000009537,284552.59999990463,281635.094,281638,281651.549,284584.193,8,400,7,,ISIC_0010860.JPG
break,html.Screen,4_56_1,2023-11-03T02:07:35.279Z,,0,,,NaN,,,,,,false,,,,284554.40000009537,284554,,284553.2000000477,,284584.193,8,400,,,
break_continue,html.Screen,4_56_2,2023-11-03T02:07:35.280Z,,0,,,NaN,,,,,,false,,,,284555.09999990463,284554.90000009537,,284554.5,,284584.193,8,400,,,
sequence,flow.Sequence,4_56,2023-11-03T02:07:35.280Z,,0,,,2903.3510000953684,completion,,,,,false,,,,284555.40000009537,284554.90000009537,281635.094,281638,281651.549,284584.193,8,400,,,
trial,html.Screen,4_57_0,2023-11-03T02:07:38.743Z,,0,2,,3433.3069999999716,response,ISIC_0070666.JPG,5,ISIC_1552232.JPG,ISIC_1552232.JPG,false,0,keypress(z),500,288017.7999999523,288017.5,284567.727,284555.59999990463,284584.193,288033.244,8,400,8,,ISIC_0070666.JPG
break,html.Screen,4_57_1,2023-11-03T02:07:38.744Z,,0,,,NaN,,,,,,false,,,,288019.2000000477,288018.7999999523,,288018.2000000477,,288033.244,8,400,,,
break_continue,html.Screen,4_57_2,2023-11-03T02:07:38.745Z,,0,,,NaN,,,,,,false,,,,288020,288019.7999999523,,288019.2999999523,,288033.244,8,400,,,
sequence,flow.Sequence,4_57,2023-11-03T02:07:38.745Z,,0,,,3435.606999952288,completion,,,,,false,,,,288020.2000000477,288019.7999999523,284567.727,284555.5,284584.193,288033.244,8,400,,,
trial,html.Screen,4_58_0,2023-11-03T02:07:42.077Z,,0,2,,3318.1560000953614,response,ISIC_0032133.JPG,11,ISIC_4107717.JPG,ISIC_4107717.JPG,false,0,keypress(z),500,291351.7999999523,291351.40000009537,288016.806,288020.5,288033.244,291365.678,8,400,9,,ISIC_0032133.JPG
break,html.Screen,4_58_1,2023-11-03T02:07:42.079Z,,0,,,NaN,,,,,,false,,,,291354.09999990463,291353.59999990463,,291352.2999999523,,291365.678,8,400,,,
break_continue,html.Screen,4_58_2,2023-11-03T02:07:42.080Z,,0,,,NaN,,,,,,false,,,,291354.90000009537,291354.59999990463,,291354.2999999523,,291365.678,8,400,,,
sequence,flow.Sequence,4_58,2023-11-03T02:07:42.080Z,,0,,,3321.3559999046265,completion,,,,,false,,,,291355.2000000477,291354.59999990463,288016.806,288020.2999999523,288033.244,291365.678,8,400,,,
trial,html.Screen,4_59_0,2023-11-03T02:07:45.959Z,,0,2,,3868.121999952302,response,ISIC_4912684.JPG,15,ISIC_3031102.JPG,ISIC_4912684.JPG,false,1,keypress(m),500,295234.2000000477,295233.7999999523,291349.306,291355.5,291365.678,295248.323,8,400,10,,ISIC_3031102.JPG
break,html.Screen,4_59_1,2023-11-03T02:07:45.961Z,,0,,,NaN,,,,,,false,,,,295236.2999999523,295235.7000000477,,295234.59999990463,,295248.323,8,400,,,
break_continue,html.Screen,4_59_2,2023-11-03T02:07:45.962Z,,0,,,NaN,,,,,,false,,,,295237,295236.90000009537,,295236.5,,295248.323,8,400,,,
sequence,flow.Sequence,4_59,2023-11-03T02:07:45.963Z,,0,,,3871.222000095353,completion,,,,,false,,,,295237.5,295236.90000009537,291349.306,291355.40000009537,291365.678,295248.323,8,400,,,
trial,html.Screen,4_60_0,2023-11-03T02:07:48.674Z,,0,2,,2699.5770000953926,response,ISIC_0000035.JPG,9,ISIC_7287540.JPG,ISIC_7287540.JPG,false,0,keypress(z),500,297948.5,297947.90000009537,295231.574,295237.7000000477,295248.323,297964.01,8,400,11,,ISIC_0000035.JPG
break,html.Screen,4_60_1,2023-11-03T02:07:48.675Z,,0,,,NaN,,,,,,false,,,,297949.90000009537,297949.5,,297948.90000009537,,297964.01,8,400,,,
break_continue,html.Screen,4_60_2,2023-11-03T02:07:48.676Z,,0,,,NaN,,,,,,false,,,,297950.59999990463,297950.40000009537,,297950.09999990463,,297964.01,8,400,,,
sequence,flow.Sequence,4_60,2023-11-03T02:07:48.676Z,,0,,,2702.0770000953926,completion,,,,,false,,,,297950.90000009537,297950.40000009537,295231.574,295237.59999990463,295248.323,297964.01,8,400,,,
trial,html.Screen,4_61_0,2023-11-03T02:07:52.089Z,,0,2,,3399.4899999999907,response,ISIC_0000434.JPG,7,ISIC_2887355.JPG,ISIC_2887355.JPG,false,0,keypress(z),500,301364.2999999523,301363.5,297947.666,297951.09999990463,297964.01,301379.772,8,400,12,,ISIC_0000434.JPG
break,html.Screen,4_61_1,2023-11-03T02:07:52.091Z,,0,,,NaN,,,,,,false,,,,301365.7999999523,301365.5,,301364.7000000477,,301379.772,8,400,,,
break_continue,html.Screen,4_61_2,2023-11-03T02:07:52.092Z,,0,,,NaN,,,,,,false,,,,301366.59999990463,301366.2999999523,,301366,,301379.772,8,400,,,
sequence,flow.Sequence,4_61,2023-11-03T02:07:52.092Z,,0,,,3402.289999952307,completion,,,,,false,,,,301366.7999999523,301366.2999999523,297947.666,297951,297964.01,301379.772,8,400,,,
trial,html.Screen,4_62_0,2023-11-03T02:07:57.292Z,,0,2,,5189.228000000003,response,ISIC_0031543.JPG,4,ISIC_0033518.JPG,ISIC_0031543.JPG,false,1,keypress(m),500,306569.2999999523,306569,301363.266,301367,301379.772,306578.458,8,400,13,,ISIC_0033518.JPG
break,html.Screen,4_62_1,2023-11-03T02:07:57.294Z,,0,,,NaN,,,,,,false,,,,306571.2000000477,306570.7000000477,,306569.59999990463,,306578.458,8,400,,,
break_continue,html.Screen,4_62_2,2023-11-03T02:07:57.295Z,,0,,,NaN,,,,,,false,,,,306571.90000009537,306571.59999990463,,306571.40000009537,,306578.458,8,400,,,
sequence,flow.Sequence,4_62,2023-11-03T02:07:57.295Z,,0,,,5191.827999904635,completion,,,,,false,,,,306572.09999990463,306571.59999990463,301363.266,301366.90000009537,301379.772,306578.458,8,400,,,
trial,html.Screen,4_63_0,2023-11-03T02:08:03.650Z,,0,2,,6348.141999904648,response,ISIC_8174951.JPG,7,ISIC_7623407.JPG,ISIC_8174951.JPG,false,1,keypress(m),500,312926.90000009537,312926.59999990463,306562.003,306572.2999999523,306578.458,312943.377,8,400,14,,ISIC_7623407.JPG
break,html.Screen,4_63_1,2023-11-03T02:08:03.652Z,,0,,,NaN,,,,,,false,,,,312928.7999999523,312928.2999999523,,312927.2999999523,,312943.377,8,400,,,
break_continue,html.Screen,4_63_2,2023-11-03T02:08:03.655Z,,0,,,NaN,,,,,,false,,,,312931.40000009537,312931,,312929,,312943.377,8,400,,,
sequence,flow.Sequence,4_63,2023-11-03T02:08:03.655Z,,0,,,6352.542000000016,completion,,,,,false,,,,312931.59999990463,312931,306562.003,306572.2000000477,306578.458,312943.377,8,400,,,
trial,html.Screen,4_64_0,2023-11-03T02:08:06.362Z,,0,2,,2695.722999904654,response,ISIC_0010960.JPG,12,ISIC_0033103.JPG,ISIC_0033103.JPG,false,0,keypress(z),500,315639.2999999523,315639.09999990463,312927.053,312931.90000009537,312943.377,315642.656,8,400,15,,ISIC_0010960.JPG
break,html.Screen,4_64_1,2023-11-03T02:08:06.364Z,,0,,,NaN,,,,,,false,,,,315640.40000009537,315640,,315639.40000009537,,315642.656,8,400,,,
break_continue,html.Screen,4_64_2,2023-11-03T02:08:06.364Z,,0,,,NaN,,,,,,false,,,,315640.90000009537,315640.7000000477,,315640.5,,315642.656,8,400,,,
sequence,flow.Sequence,4_64,2023-11-03T02:08:06.364Z,,0,,,2697.323000047705,completion,,,,,false,,,,315641.2000000477,315640.7000000477,312927.053,312931.90000009537,312943.377,315642.656,8,400,,,
trial,html.Screen,4_65_0,2023-11-03T02:08:09.569Z,,0,2,,3202.5440000476665,response,ISIC_0817140.JPG,12,ISIC_1761083.JPG,ISIC_0817140.JPG,false,1,keypress(m),500,318845.5,318845.2000000477,315626.016,315641.2000000477,315642.656,318858.541,8,400,16,,ISIC_1761083.JPG
break,html.Screen,4_65_1,2023-11-03T02:08:09.571Z,,0,,,NaN,,,,,,false,,,,318847.40000009537,318846.90000009537,,318845.90000009537,,318858.541,8,400,,,
break_continue,html.Screen,4_65_2,2023-11-03T02:08:09.571Z,,0,,,NaN,,,,,,false,,,,318848.40000009537,318848.09999990463,,318847.59999990463,,318858.541,8,400,,,
sequence,flow.Sequence,4_65,2023-11-03T02:08:09.572Z,,0,,,3205.4439999046153,completion,,,,,false,,,,318848.7000000477,318848.09999990463,315626.016,315641.2000000477,315642.656,318858.541,8,400,,,
trial,html.Screen,4_66_0,2023-11-03T02:08:12.887Z,,0,2,,3304.659000047657,response,ISIC_2007034.JPG,11,ISIC_0028543.JPG,ISIC_2007034.JPG,false,1,keypress(m),500,322163.59999990463,322163.2000000477,318842.196,318848.7999999523,318858.541,322177.553,8,400,17,,ISIC_0028543.JPG
break,html.Screen,4_66_1,2023-11-03T02:08:12.889Z,,0,,,NaN,,,,,,false,,,,322165.7000000477,322165.2000000477,,322163.90000009537,,322177.553,8,400,,,
break_continue,html.Screen,4_66_2,2023-11-03T02:08:12.890Z,,0,,,NaN,,,,,,false,,,,322166.59999990463,322166.2999999523,,322166,,322177.553,8,400,,,
sequence,flow.Sequence,4_66,2023-11-03T02:08:12.890Z,,0,,,3307.7589999522897,completion,,,,,false,,,,322166.90000009537,322166.2999999523,318842.196,318848.7999999523,318858.541,322177.553,8,400,,,
trial,html.Screen,4_67_0,2023-11-03T02:08:17.248Z,,0,2,,4347.046999904618,response,ISIC_0015969.JPG,7,ISIC_8814612.JPG,ISIC_8814612.JPG,false,0,keypress(z),500,326525,326524.59999990463,322157.839,322167.09999990463,322177.553,326544.102,8,400,18,,ISIC_0015969.JPG
break,html.Screen,4_67_1,2023-11-03T02:08:17.251Z,,0,,,NaN,,,,,,false,,,,326527.40000009537,326526.5,,326525.2999999523,,326544.102,8,400,,,
break_continue,html.Screen,4_67_2,2023-11-03T02:08:17.252Z,,0,,,NaN,,,,,,false,,,,326528.40000009537,326528.09999990463,,326527.7000000477,,326544.102,8,400,,,
sequence,flow.Sequence,4_67,2023-11-03T02:08:17.252Z,,0,,,4350.546999904618,completion,,,,,false,,,,326528.7999999523,326528.09999990463,322157.839,322167,322177.553,326544.102,8,400,,,
trial,html.Screen,4_68_0,2023-11-03T02:08:20.478Z,,0,2,,3210.3979999999865,response,ISIC_0027304.JPG,10,ISIC_0000303.JPG,ISIC_0027304.JPG,false,1,keypress(m),500,329754.90000009537,329754.5,326523.232,326528.90000009537,326544.102,329772.515,8,400,19,,ISIC_0000303.JPG
break,html.Screen,4_68_1,2023-11-03T02:08:20.480Z,,0,,,NaN,,,,,,false,,,,329756.7000000477,329756.2000000477,,329755.2000000477,,329772.515,8,400,,,
break_continue,html.Screen,4_68_2,2023-11-03T02:08:20.480Z,,0,,,NaN,,,,,,false,,,,329757.40000009537,329757.09999990463,,329756.7999999523,,329772.515,8,400,,,
sequence,flow.Sequence,4_68,2023-11-03T02:08:20.481Z,,0,,,3212.997999904619,completion,,,,,false,,,,329757.59999990463,329757.09999990463,326523.232,326528.90000009537,326544.102,329772.515,8,400,,,
trial,html.Screen,4_69_0,2023-11-03T02:08:23.897Z,,0,2,,3401.1850000476697,response,ISIC_0070814.JPG,10,ISIC_1177505.JPG,ISIC_1177505.JPG,false,0,keypress(z),500,333174,333173.7000000477,329755.884,329757.7999999523,329772.515,333188.138,8,400,20,,ISIC_0070814.JPG
break,html.Screen,4_69_1,2023-11-03T02:08:23.899Z,,0,,,NaN,,,,,,false,,,,333176,333175.40000009537,,333174.2999999523,,333188.138,8,400,,,
break_continue,html.Screen,4_69_2,2023-11-03T02:08:23.900Z,,0,,,NaN,,,,,,false,,,,333176.7999999523,333176.5,,333176.09999990463,,333188.138,8,400,,,
sequence,flow.Sequence,4_69,2023-11-03T02:08:23.900Z,,0,,,3403.984999999986,completion,,,,,false,,,,333177,333176.5,329755.884,329757.7000000477,329772.515,333188.138,8,400,,,
trial,html.Screen,4_70_0,2023-11-03T02:08:28.102Z,,0,2,,4190.76200009539,response,ISIC_1166678.JPG,9,ISIC_3826102.JPG,ISIC_1166678.JPG,false,1,keypress(m),500,337379.2999999523,337378.90000009537,333171.829,333177.2999999523,333188.138,337387.106,8,400,21,,ISIC_3826102.JPG
break,html.Screen,4_70_1,2023-11-03T02:08:28.104Z,,0,,,NaN,,,,,,false,,,,337381,337380.59999990463,,337379.5,,337387.106,8,400,,,
break_continue,html.Screen,4_70_2,2023-11-03T02:08:28.105Z,,0,,,NaN,,,,,,false,,,,337381.7000000477,337381.5,,337381.2000000477,,337387.106,8,400,,,
sequence,flow.Sequence,4_70,2023-11-03T02:08:28.105Z,,0,,,4193.362000000023,completion,,,,,false,,,,337382,337381.5,333171.829,333177.2000000477,333188.138,337387.106,8,400,,,
trial,html.Screen,4_71_0,2023-11-03T02:08:33.421Z,,0,2,,5309.993999904604,response,ISIC_0071168.JPG,4,ISIC_0060660.JPG,ISIC_0060660.JPG,false,0,keypress(z),500,342697.59999990463,342697.09999990463,337370.586,337382.2000000477,337387.106,342702.295,8,400,22,,ISIC_0071168.JPG
break,html.Screen,4_71_1,2023-11-03T02:08:33.422Z,,0,,,NaN,,,,,,false,,,,342699.2000000477,342698.90000009537,,342697.7999999523,,342702.295,8,400,,,
break_continue,html.Screen,4_71_2,2023-11-03T02:08:33.423Z,,0,,,NaN,,,,,,false,,,,342700,342699.7000000477,,342699.5,,342702.295,8,400,,,
sequence,flow.Sequence,4_71,2023-11-03T02:08:33.423Z,,0,,,5312.594000047655,completion,,,,,false,,,,342700.2999999523,342699.7000000477,337370.586,337382.09999990463,337387.106,342702.295,8,400,,,
trial,html.Screen,4_72_0,2023-11-03T02:08:36.887Z,,0,2,,3461.6050000953837,response,ISIC_0028930.JPG,11,ISIC_0315631.JPG,ISIC_0315631.JPG,false,0,keypress(z),500,346164.09999990463,346163.90000009537,342685.894,342700.5,342702.295,346168.111,8,400,23,,ISIC_0028930.JPG
break,html.Screen,4_72_1,2023-11-03T02:08:36.889Z,,0,,,NaN,,,,,,false,,,,346165.90000009537,346165.40000009537,,346164.5,,346168.111,8,400,,,
break_continue,html.Screen,4_72_2,2023-11-03T02:08:36.890Z,,0,,,NaN,,,,,,false,,,,346166.59999990463,346166.40000009537,,346166.09999990463,,346168.111,8,400,,,
sequence,flow.Sequence,4_72,2023-11-03T02:08:36.890Z,,0,,,3464.1050000953837,completion,,,,,false,,,,346166.90000009537,346166.40000009537,342685.894,342700.40000009537,342702.295,346168.111,8,400,,,
trial,html.Screen,4_73_0,2023-11-03T02:08:39.907Z,,0,2,,3015.289000095392,response,ISIC_9061511.JPG,7,ISIC_0010313.JPG,ISIC_0010313.JPG,false,0,keypress(z),500,349183.7000000477,349183.40000009537,346151.655,346167,346168.111,349200.63,8,400,24,,ISIC_9061511.JPG
break,html.Screen,4_73_1,2023-11-03T02:08:39.909Z,,0,,,NaN,,,,,,false,,,,349185.7000000477,349185.09999990463,,349184.09999990463,,349200.63,8,400,,,
break_continue,html.Screen,4_73_2,2023-11-03T02:08:39.910Z,,0,,,NaN,,,,,,false,,,,349186.5,349186.2000000477,,349185.90000009537,,349200.63,8,400,,,
sequence,flow.Sequence,4_73,2023-11-03T02:08:39.910Z,,0,,,3018.0890000477084,completion,,,,,false,,,,349186.7999999523,349186.2000000477,346151.655,346167,346168.111,349200.63,8,400,,,
trial,html.Screen,4_74_0,2023-11-03T02:08:43.040Z,,0,2,,3116.070000047679,response,ISIC_1217314.JPG,6,ISIC_9142919.JPG,ISIC_1217314.JPG,false,1,keypress(m),500,352316.90000009537,352316.7000000477,349184.055,349187,349200.63,352333.141,8,400,25,,ISIC_9142919.JPG
break,html.Screen,4_74_1,2023-11-03T02:08:43.041Z,,0,,,NaN,,,,,,false,,,,352318,352317.7000000477,,352317.09999990463,,352333.141,8,400,,,
break_continue,html.Screen,4_74_2,2023-11-03T02:08:43.042Z,,0,,,NaN,,,,,,false,,,,352318.5,352318.40000009537,,352318.2000000477,,352333.141,8,400,,,
sequence,flow.Sequence,4_74,2023-11-03T02:08:43.042Z,,0,,,3117.770000095363,completion,,,,,false,,,,352318.7000000477,352318.40000009537,349184.055,349187,349200.63,352333.141,8,400,,,
trial,html.Screen,4_75_0,2023-11-03T02:08:46.392Z,,0,2,,3335.4589999046293,response,ISIC_0008881.JPG,11,ISIC_0069946.JPG,ISIC_0008881.JPG,false,1,keypress(m),500,355668.7000000477,355668.59999990463,352316.479,352318.7000000477,352333.141,355682.235,8,400,26,,ISIC_0069946.JPG
break,html.Screen,4_75_1,2023-11-03T02:08:46.393Z,,0,,,NaN,,,,,,false,,,,355669.7999999523,355669.5,,355668.90000009537,,355682.235,8,400,,,
break_continue,html.Screen,4_75_2,2023-11-03T02:08:46.393Z,,0,,,NaN,,,,,,false,,,,355670.09999990463,355670.09999990463,,355669.90000009537,,355682.235,8,400,,,
sequence,flow.Sequence,4_75,2023-11-03T02:08:46.393Z,,0,,,3336.9589999046293,completion,,,,,false,,,,355670.2000000477,355670.09999990463,352316.479,352318.7000000477,352333.141,355682.235,8,400,,,
trial,html.Screen,4_76_0,2023-11-03T02:08:50.258Z,,0,2,,3852.0649999523303,response,ISIC_9593940.JPG,5,ISIC_8765068.JPG,ISIC_8765068.JPG,false,0,keypress(z),500,359534.5,359534.2999999523,355665.585,355670.40000009537,355682.235,359547.884,8,400,27,,ISIC_9593940.JPG
break,html.Screen,4_76_1,2023-11-03T02:08:50.259Z,,0,,,NaN,,,,,,false,,,,359535.59999990463,359535.2999999523,,359534.7000000477,,359547.884,8,400,,,
break_continue,html.Screen,4_76_2,2023-11-03T02:08:50.259Z,,0,,,NaN,,,,,,false,,,,359536.09999990463,359535.90000009537,,359535.7999999523,,359547.884,8,400,,,
sequence,flow.Sequence,4_76,2023-11-03T02:08:50.259Z,,0,,,3853.6650000953814,completion,,,,,false,,,,359536.2000000477,359535.90000009537,355665.585,355670.40000009537,355682.235,359547.884,8,400,,,
trial,html.Screen,4_77_0,2023-11-03T02:08:54.111Z,,0,2,,3837.5160000953474,response,ISIC_0029913.JPG,22,ISIC_9225640.JPG,ISIC_9225640.JPG,false,0,keypress(z),500,363385.59999990463,363385.40000009537,359531.219,359536.2999999523,359547.884,363396.888,8,400,28,,ISIC_0029913.JPG
break,html.Screen,4_77_1,2023-11-03T02:08:54.112Z,,0,,,NaN,,,,,,false,,,,363386.59999990463,363386.40000009537,,363385.7000000477,,363396.888,8,400,,,
break_continue,html.Screen,4_77_2,2023-11-03T02:08:54.112Z,,0,,,NaN,,,,,,false,,,,363387.09999990463,363386.90000009537,,363386.7999999523,,363396.888,8,400,,,
sequence,flow.Sequence,4_77,2023-11-03T02:08:54.112Z,,0,,,3839.0160000953474,completion,,,,,false,,,,363387.2999999523,363386.90000009537,359531.219,359536.2999999523,359547.884,363396.888,8,400,,,
trial,html.Screen,4_78_0,2023-11-03T02:09:01.236Z,,0,2,,7114.3120000477065,response,ISIC_3368468.JPG,10,ISIC_4153687.JPG,ISIC_4153687.JPG,false,0,keypress(z),500,370511.40000009537,370511.2000000477,363380.212,363387.2999999523,363396.888,370528.343,8,400,29,,ISIC_3368468.JPG
break,html.Screen,4_78_1,2023-11-03T02:09:01.237Z,,0,,,NaN,,,,,,false,,,,370512.2999999523,370512.09999990463,,370511.5,,370528.343,8,400,,,
break_continue,html.Screen,4_78_2,2023-11-03T02:09:01.238Z,,0,,,NaN,,,,,,false,,,,370512.7000000477,370512.59999990463,,370512.40000009537,,370528.343,8,400,,,
sequence,flow.Sequence,4_78,2023-11-03T02:09:01.238Z,,0,,,7115.711999904655,completion,,,,,false,,,,370512.7999999523,370512.59999990463,363380.212,363387.2999999523,363396.888,370528.343,8,400,,,
trial,html.Screen,4_79_0,2023-11-03T02:09:04.877Z,,0,2,,3623.456999952323,response,ISIC_0062389.JPG,11,ISIC_9978498.JPG,ISIC_0062389.JPG,false,1,keypress(m),500,374152,374151.7999999523,370511.837,370513,370528.343,374160.699,8,400,30,,ISIC_9978498.JPG
break,html.Screen,4_79_1,2023-11-03T02:09:04.878Z,,0,,,NaN,,,,,,false,,,,374153,374152.7000000477,,374152.09999990463,,374160.699,8,400,,,
break_continue,html.Screen,4_79_2,2023-11-03T02:09:04.878Z,,0,,,NaN,,,,,,false,,,,374153.2999999523,374153.2000000477,,374153.09999990463,,374160.699,8,400,,,
sequence,flow.Sequence,4_79,2023-11-03T02:09:04.878Z,,0,,,3624.8570000476902,completion,,,,,false,,,,374153.40000009537,374153.2000000477,370511.837,370512.90000009537,370528.343,374160.699,8,400,,,
trial,html.Screen,4_80_0,2023-11-03T02:09:07.830Z,,0,2,,2944.3009999999776,response,ISIC_0033625.JPG,12,ISIC_0013651.JPG,ISIC_0033625.JPG,false,1,keypress(m),500,377105.2000000477,377105,374144.151,374153.59999990463,374160.699,377110.422,8,400,31,,ISIC_0013651.JPG
break,html.Screen,4_80_1,2023-11-03T02:09:07.831Z,,0,,,NaN,,,,,,false,,,,377106.09999990463,377105.90000009537,,377105.2999999523,,377110.422,8,400,,,
break_continue,html.Screen,4_80_2,2023-11-03T02:09:07.832Z,,0,,,NaN,,,,,,false,,,,377106.59999990463,377106.5,,377106.2999999523,,377110.422,8,400,,,
sequence,flow.Sequence,4_80,2023-11-03T02:09:07.832Z,,0,,,2945.8009999999776,completion,,,,,false,,,,377106.7000000477,377106.5,374144.151,374153.5,374160.699,377110.422,8,400,,,
trial,html.Screen,4_81_0,2023-11-03T02:09:11.534Z,,0,2,,3698.677999904612,response,ISIC_0009721.JPG,12,ISIC_0056089.JPG,ISIC_0009721.JPG,false,1,keypress(m),500,380809.40000009537,380809.09999990463,377093.36,377106.7999999523,377110.422,380825.69,8,400,32,,ISIC_0056089.JPG
break,html.Screen,4_81_1,2023-11-03T02:09:11.535Z,,0,,,NaN,,,,,,false,,,,380810.2999999523,380810,,380809.40000009537,,380825.69,8,400,,,
break_continue,html.Screen,4_81_2,2023-11-03T02:09:11.536Z,,0,,,NaN,,,,,,false,,,,380810.7999999523,380810.59999990463,,380810.5,,380825.69,8,400,,,
sequence,flow.Sequence,4_81,2023-11-03T02:09:11.536Z,,0,,,3700.177999904612,completion,,,,,false,,,,380810.90000009537,380810.59999990463,377093.36,377106.7999999523,377110.422,380825.69,8,400,,,
trial,html.Screen,4_82_0,2023-11-03T02:09:15.826Z,,0,2,,4274.809999999998,response,ISIC_0305928.JPG,17,ISIC_0034209.JPG,ISIC_0034209.JPG,false,0,keypress(z),500,385100.7000000477,385100.5,380809,380811,380825.69,385107.858,8,400,33,,ISIC_0305928.JPG
break,html.Screen,4_82_1,2023-11-03T02:09:15.827Z,,0,,,NaN,,,,,,false,,,,385101.7000000477,385101.40000009537,,385100.90000009537,,385107.858,8,400,,,
break_continue,html.Screen,4_82_2,2023-11-03T02:09:15.827Z,,0,,,NaN,,,,,,false,,,,385102,385102,,385101.7999999523,,385107.858,8,400,,,
sequence,flow.Sequence,4_82,2023-11-03T02:09:15.827Z,,0,,,4276.309999999998,completion,,,,,false,,,,385102.2000000477,385102,380809,380810.90000009537,380825.69,385107.858,8,400,,,
trial,html.Screen,4_83_0,2023-11-03T02:09:21.850Z,,0,2,,6016.54200009536,response,ISIC_4393521.JPG,12,ISIC_4259290.JPG,ISIC_4393521.JPG,false,1,keypress(m),500,391124.59999990463,391124.40000009537,385091.232,385102.2999999523,385107.858,391139.667,8,400,34,,ISIC_4259290.JPG
break,html.Screen,4_83_1,2023-11-03T02:09:21.851Z,,0,,,NaN,,,,,,false,,,,391125.59999990463,391125.2999999523,,391124.7000000477,,391139.667,8,400,,,
break_continue,html.Screen,4_83_2,2023-11-03T02:09:21.851Z,,0,,,NaN,,,,,,false,,,,391126.09999990463,391125.90000009537,,391125.7000000477,,391139.667,8,400,,,
sequence,flow.Sequence,4_83,2023-11-03T02:09:21.851Z,,0,,,6018.04200009536,completion,,,,,false,,,,391126.09999990463,391125.90000009537,385091.232,385102.2999999523,385107.858,391139.667,8,400,,,
trial,html.Screen,4_84_0,2023-11-03T02:09:25.614Z,,0,2,,3748.7330000953516,response,ISIC_2598575.JPG,5,ISIC_0012263.JPG,ISIC_0012263.JPG,false,0,keypress(z),500,394888.59999990463,394888.40000009537,391122.99,391126.2999999523,391139.667,394905.361,8,400,35,,ISIC_2598575.JPG
break,html.Screen,4_84_1,2023-11-03T02:09:25.614Z,,0,,,NaN,,,,,,false,,,,394889.40000009537,394889.2000000477,,394888.7999999523,,394905.361,8,400,,,
break_continue,html.Screen,4_84_2,2023-11-03T02:09:25.615Z,,0,,,NaN,,,,,,false,,,,394889.7999999523,394889.7000000477,,394889.59999990463,,394905.361,8,400,,,
sequence,flow.Sequence,4_84,2023-11-03T02:09:25.615Z,,0,,,3750.033000047668,completion,,,,,false,,,,394890,394889.7000000477,391122.99,391126.2999999523,391139.667,394905.361,8,400,,,
trial,html.Screen,4_85_0,2023-11-03T02:09:31.988Z,,0,2,,6357.139000000025,response,ISIC_2558816.JPG,10,ISIC_6298228.JPG,ISIC_2558816.JPG,false,1,keypress(m),500,401262.7000000477,401262.5,394888.744,394890.09999990463,394905.361,401270.316,8,400,36,,ISIC_6298228.JPG
break,html.Screen,4_85_1,2023-11-03T02:09:31.989Z,,0,,,NaN,,,,,,false,,,,401263.90000009537,401263.59999990463,,401262.90000009537,,401270.316,8,400,,,
break_continue,html.Screen,4_85_2,2023-11-03T02:09:31.989Z,,0,,,NaN,,,,,,false,,,,401264.40000009537,401264.2000000477,,401264,,401270.316,8,400,,,
sequence,flow.Sequence,4_85,2023-11-03T02:09:31.989Z,,0,,,6358.839000047708,completion,,,,,false,,,,401264.5,401264.2000000477,394888.744,394890,394905.361,401270.316,8,400,,,
trial,html.Screen,4_86_0,2023-11-03T02:09:36.055Z,,0,2,,4059.9839999523247,response,ISIC_0025165.JPG,12,ISIC_0064997.JPG,ISIC_0025165.JPG,false,1,keypress(m),500,405330.40000009537,405330.2999999523,401253.646,401264.59999990463,401270.316,405336.243,8,400,37,,ISIC_0064997.JPG
break,html.Screen,4_86_1,2023-11-03T02:09:36.057Z,,0,,,NaN,,,,,,false,,,,405331.59999990463,405331.2999999523,,405330.59999990463,,405336.243,8,400,,,
break_continue,html.Screen,4_86_2,2023-11-03T02:09:36.057Z,,0,,,NaN,,,,,,false,,,,405332,405331.90000009537,,405331.7000000477,,405336.243,8,400,,,
sequence,flow.Sequence,4_86,2023-11-03T02:09:36.057Z,,0,,,4061.584000095376,completion,,,,,false,,,,405332.2000000477,405331.90000009537,401253.646,401264.59999990463,401270.316,405336.243,8,400,,,
trial,html.Screen,4_87_0,2023-11-03T02:09:39.374Z,,0,2,,3312.2569999999832,response,ISIC_0027641.JPG,3,ISIC_0034253.JPG,ISIC_0027641.JPG,false,1,keypress(m),500,408648.7000000477,408648.5,405319.257,405332.2000000477,405336.243,408651.731,8,400,38,,ISIC_0034253.JPG
break,html.Screen,4_87_1,2023-11-03T02:09:39.375Z,,0,,,NaN,,,,,,false,,,,408649.7000000477,408649.5,,408648.90000009537,,408651.731,8,400,,,
break_continue,html.Screen,4_87_2,2023-11-03T02:09:39.375Z,,0,,,NaN,,,,,,false,,,,408650.09999990463,408650,,408649.90000009537,,408651.731,8,400,,,
sequence,flow.Sequence,4_87,2023-11-03T02:09:39.375Z,,0,,,3313.7569999999832,completion,,,,,false,,,,408650.2999999523,408650,405319.257,405332.2000000477,405336.243,408651.731,8,400,,,
trial,html.Screen,4_88_0,2023-11-03T02:09:44.465Z,,0,2,,5088.169000095339,response,ISIC_2707664.JPG,11,ISIC_5934948.JPG,ISIC_2707664.JPG,false,1,keypress(m),500,413740,413739.90000009537,408635.149,408650.40000009537,408651.731,413750.418,8,400,39,,ISIC_5934948.JPG
break,html.Screen,4_88_1,2023-11-03T02:09:44.466Z,,0,,,NaN,,,,,,false,,,,413741.09999990463,413740.90000009537,,413740.2999999523,,413750.418,8,400,,,
break_continue,html.Screen,4_88_2,2023-11-03T02:09:44.467Z,,0,,,NaN,,,,,,false,,,,413741.7000000477,413741.5,,413741.2999999523,,413750.418,8,400,,,
sequence,flow.Sequence,4_88,2023-11-03T02:09:44.467Z,,0,,,5089.768999999971,completion,,,,,false,,,,413741.90000009537,413741.5,408635.149,408650.40000009537,408651.731,413750.418,8,400,,,
trial,html.Screen,4_89_0,2023-11-03T02:09:47.943Z,,0,2,,3467.4820000953623,response,ISIC_2071966.JPG,8,ISIC_1383822.JPG,ISIC_1383822.JPG,false,0,keypress(z),500,417218.09999990463,417217.90000009537,413733.822,413741.90000009537,413750.418,417232.863,8,400,40,,ISIC_2071966.JPG
break,html.Screen,4_89_1,2023-11-03T02:09:47.944Z,,0,,,NaN,,,,,,false,,,,417219.2000000477,417218.90000009537,,417218.2000000477,,417232.863,8,400,,,
break_continue,html.Screen,4_89_2,2023-11-03T02:09:47.945Z,,0,,,NaN,,,,,,false,,,,417219.7000000477,417219.5,,417219.2999999523,,417232.863,8,400,,,
sequence,flow.Sequence,4_89,2023-11-03T02:09:47.945Z,,0,,,3469.081999999995,completion,,,,,false,,,,417219.7999999523,417219.5,413733.822,413741.90000009537,413750.418,417232.863,8,400,,,
trial,html.Screen,4_90_0,2023-11-03T02:09:51.170Z,,0,2,,3212.136999999988,response,ISIC_0011039.JPG,28,ISIC_5364330.JPG,ISIC_5364330.JPG,false,0,keypress(z),500,420445.2000000477,420445,417216.157,417219.90000009537,417232.863,420448.887,8,400,41,,ISIC_0011039.JPG
break,html.Screen,4_90_1,2023-11-03T02:09:51.171Z,,0,,,NaN,,,,,,false,,,,420446.2000000477,420446,,420445.2999999523,,420448.887,8,400,,,
break_continue,html.Screen,4_90_2,2023-11-03T02:09:51.172Z,,0,,,NaN,,,,,,false,,,,420446.7000000477,420446.5,,420446.2999999523,,420448.887,8,400,,,
sequence,flow.Sequence,4_90,2023-11-03T02:09:51.172Z,,0,,,3213.636999999988,completion,,,,,false,,,,420446.7999999523,420446.5,417216.157,417219.7999999523,417232.863,420448.887,8,400,,,
trial,html.Screen,4_91_0,2023-11-03T02:09:57.612Z,,0,2,,6437.813000047696,response,ISIC_0059840.JPG,9,ISIC_0025006.JPG,ISIC_0025006.JPG,false,0,keypress(z),500,426886.90000009537,426886.7000000477,420431.956,420447,420448.887,426897.309,8,400,42,,ISIC_0059840.JPG
break,html.Screen,4_91_1,2023-11-03T02:09:57.613Z,,0,,,NaN,,,,,,false,,,,426887.7999999523,426887.7000000477,,426887.09999990463,,426897.309,8,400,,,
break_continue,html.Screen,4_91_2,2023-11-03T02:09:57.613Z,,0,,,NaN,,,,,,false,,,,426888.40000009537,426888.2000000477,,426888,,426897.309,8,400,,,
sequence,flow.Sequence,4_91,2023-11-03T02:09:57.614Z,,0,,,6439.313000047696,completion,,,,,false,,,,426888.7999999523,426888.2000000477,420431.956,420446.90000009537,420448.887,426897.309,8,400,,,
trial,html.Screen,4_92_0,2023-11-03T02:10:01.796Z,,0,2,,4173.790999904624,response,ISIC_0010773.JPG,11,ISIC_4973549.JPG,ISIC_4973549.JPG,false,0,keypress(z),500,431071.2000000477,431071.09999990463,426880.407,426889,426897.309,431079.261,8,400,43,,ISIC_0010773.JPG
break,html.Screen,4_92_1,2023-11-03T02:10:01.797Z,,0,,,NaN,,,,,,false,,,,431072.2000000477,431072,,431071.2999999523,,431079.261,8,400,,,
break_continue,html.Screen,4_92_2,2023-11-03T02:10:01.798Z,,0,,,NaN,,,,,,false,,,,431072.59999990463,431072.5,,431072.2000000477,,431079.261,8,400,,,
sequence,flow.Sequence,4_92,2023-11-03T02:10:01.798Z,,0,,,4175.190999999992,completion,,,,,false,,,,431072.7000000477,431072.5,426880.407,426889,426897.309,431079.261,8,400,,,
trial,html.Screen,4_93_0,2023-11-03T02:10:06.253Z,,0,2,,4448.538999952318,response,ISIC_0033813.JPG,3,ISIC_0014151.JPG,ISIC_0014151.JPG,false,0,keypress(z),500,435528,435527.7999999523,431062.545,431072.90000009537,431079.261,435544.75,8,400,44,,ISIC_0033813.JPG
break,html.Screen,4_93_1,2023-11-03T02:10:06.254Z,,0,,,NaN,,,,,,false,,,,435529.09999990463,435528.7999999523,,435528.2000000477,,435544.75,8,400,,,
break_continue,html.Screen,4_93_2,2023-11-03T02:10:06.255Z,,0,,,NaN,,,,,,false,,,,435529.5,435529.40000009537,,435529.2000000477,,435544.75,8,400,,,
sequence,flow.Sequence,4_93,2023-11-03T02:10:06.255Z,,0,,,4450.139000095369,completion,,,,,false,,,,435529.59999990463,435529.40000009537,431062.545,431072.7999999523,431079.261,435544.75,8,400,,,
trial,html.Screen,4_94_0,2023-11-03T02:10:10.649Z,,0,2,,4378.349999904633,response,ISIC_0069193.JPG,11,ISIC_7520843.JPG,ISIC_7520843.JPG,false,0,keypress(z),500,439923.5,439923.09999990463,435528.07,435529.7999999523,435544.75,439943.666,8,400,45,,ISIC_0069193.JPG
break,html.Screen,4_94_1,2023-11-03T02:10:10.650Z,,0,,,NaN,,,,,,false,,,,439925.09999990463,439924.7000000477,,439923.90000009537,,439943.666,8,400,,,
break_continue,html.Screen,4_94_2,2023-11-03T02:10:10.651Z,,0,,,NaN,,,,,,false,,,,439925.90000009537,439925.59999990463,,439925.2999999523,,439943.666,8,400,,,
sequence,flow.Sequence,4_94,2023-11-03T02:10:10.651Z,,0,,,4380.849999904633,completion,,,,,false,,,,439926.09999990463,439925.59999990463,435528.07,435529.7999999523,435544.75,439943.666,8,400,,,
trial,html.Screen,4_95_0,2023-11-03T02:10:13.552Z,,0,2,,2883.3339999999735,response,ISIC_0026586.JPG,32,ISIC_0030780.JPG,ISIC_0030780.JPG,false,0,keypress(z),500,442827.40000009537,442827,439927.008,439926.40000009537,439943.666,442842.923,8,400,46,,ISIC_0026586.JPG
break,html.Screen,4_95_1,2023-11-03T02:10:13.554Z,,0,,,NaN,,,,,,false,,,,442829.40000009537,442828.90000009537,,442827.7000000477,,442842.923,8,400,,,
break_continue,html.Screen,4_95_2,2023-11-03T02:10:13.556Z,,0,,,NaN,,,,,,false,,,,442830.5,442830.2999999523,,442829.7999999523,,442842.923,8,400,,,
sequence,flow.Sequence,4_95,2023-11-03T02:10:13.556Z,,0,,,2886.6339999522897,completion,,,,,false,,,,442830.7999999523,442830.2999999523,439927.008,439926.2999999523,439943.666,442842.923,8,400,,,
trial,html.Screen,4_96_0,2023-11-03T02:10:19.289Z,,0,2,,5720.176999904623,response,ISIC_0056531.JPG,8,ISIC_0679494.JPG,ISIC_0679494.JPG,false,0,keypress(z),500,448563.40000009537,448563.09999990463,442826.488,442831,442842.923,448575.007,8,400,47,,ISIC_0056531.JPG
break,html.Screen,4_96_1,2023-11-03T02:10:19.290Z,,0,,,NaN,,,,,,false,,,,448565.2000000477,448564.7999999523,,448563.7000000477,,448575.007,8,400,,,
break_continue,html.Screen,4_96_2,2023-11-03T02:10:19.291Z,,0,,,NaN,,,,,,false,,,,448565.90000009537,448565.7999999523,,448565.40000009537,,448575.007,8,400,,,
sequence,flow.Sequence,4_96,2023-11-03T02:10:19.291Z,,0,,,5722.8769999523065,completion,,,,,false,,,,448566.2000000477,448565.7999999523,442826.488,442831,442842.923,448575.007,8,400,,,
trial,html.Screen,4_97_0,2023-11-03T02:10:23.012Z,,0,2,,3711.9930000000168,response,ISIC_0011276.JPG,7,ISIC_2366652.JPG,ISIC_2366652.JPG,false,0,keypress(z),500,452287.40000009537,452287,448558.067,448566.40000009537,448575.007,452290.452,8,400,48,,ISIC_0011276.JPG
break,html.Screen,4_97_1,2023-11-03T02:10:23.014Z,,0,,,NaN,,,,,,false,,,,452289.40000009537,452288.7999999523,,452287.7000000477,,452290.452,8,400,,,
break_continue,html.Screen,4_97_2,2023-11-03T02:10:23.015Z,,0,,,NaN,,,,,,false,,,,452290.2000000477,452289.90000009537,,452289.5,,452290.452,8,400,,,
sequence,flow.Sequence,4_97,2023-11-03T02:10:23.016Z,,0,,,3714.893000095384,completion,,,,,false,,,,452290.7000000477,452289.90000009537,448558.067,448566.40000009537,448575.007,452290.452,8,400,,,
trial,html.Screen,4_98_0,2023-11-03T02:10:26.065Z,,0,2,,3048.847999952326,response,ISIC_0046773.JPG,29,ISIC_0011135.JPG,ISIC_0011135.JPG,false,0,keypress(z),500,455339.7000000477,455339.2999999523,452273.998,452291.40000009537,452290.452,455356.295,8,400,49,,ISIC_0046773.JPG
break,html.Screen,4_98_1,2023-11-03T02:10:26.067Z,,0,,,NaN,,,,,,false,,,,455341.59999990463,455341.2000000477,,455340.09999990463,,455356.295,8,400,,,
break_continue,html.Screen,4_98_2,2023-11-03T02:10:26.067Z,,0,,,NaN,,,,,,false,,,,455342.40000009537,455342.2000000477,,455341.7999999523,,455356.295,8,400,,,
sequence,flow.Sequence,4_98,2023-11-03T02:10:26.068Z,,0,,,3051.7480000476935,completion,,,,,false,,,,455342.7000000477,455342.2000000477,452273.998,452291.2999999523,452290.452,455356.295,8,400,,,
trial,html.Screen,4_99_0,2023-11-03T02:10:29.869Z,,0,2,,3787.0049999523326,response,ISIC_7492530.JPG,9,ISIC_0000473.JPG,ISIC_7492530.JPG,false,1,keypress(m),500,459143.7000000477,459143.2999999523,455339.884,455342.90000009537,455356.295,459155.292,8,400,50,,ISIC_0000473.JPG
break,html.Screen,4_99_1,2023-11-03T02:10:39.863Z,,0,,,9999.198999999964,timeout,,,,,false,,,,469137.59999990463,469136.28,459138.759,459144,459155.292,469154.491,8,400,,,
break_continue,html.Screen,4_99_2,2023-11-03T02:10:40.804Z,,0,,,862.00900000002,response,,,,,false,continue,keypress(Space),,470079,470016.5,469136.28,469137.7999999523,469154.491,470108.619,8,400,,,
sequence,flow.Sequence,4_99,2023-11-03T02:10:40.805Z,,0,,,14660.205000000016,completion,,,,,false,,,,470079.40000009537,470016.5,455339.884,455342.90000009537,455356.295,470108.619,8,400,,,
trial,html.Screen,4_100_0,2023-11-03T02:10:44.848Z,,0,3,,4014.2810000953614,response,ISIC_0200153.JPG,5,ISIC_5652135.JPG,ISIC_0200153.JPG,false,1,keypress(m),500,474123.2999999523,474122.90000009537,470088.476,470079.7000000477,470108.619,474135.202,8,400,1,,ISIC_5652135.JPG
break,html.Screen,4_100_1,2023-11-03T02:10:44.851Z,,0,,,NaN,,,,,,false,,,,474125.5,474125,,474123.59999990463,,474135.202,8,400,,,
break_continue,html.Screen,4_100_2,2023-11-03T02:10:44.851Z,,0,,,NaN,,,,,,false,,,,474126.40000009537,474126.09999990463,,474125.7999999523,,474135.202,8,400,,,
sequence,flow.Sequence,4_100,2023-11-03T02:10:44.852Z,,0,,,4017.4809999046265,completion,,,,,false,,,,474126.59999990463,474126.09999990463,470088.476,470079.7000000477,470108.619,474135.202,8,400,,,
trial,html.Screen,4_101_0,2023-11-03T02:10:49.164Z,,0,3,,4303.79800000001,response,ISIC_2957732.JPG,30,ISIC_7681490.JPG,ISIC_7681490.JPG,false,0,keypress(z),500,478439.09999990463,478439,474118.375,474126.90000009537,474135.202,478450.206,8,400,2,,ISIC_2957732.JPG
break,html.Screen,4_101_1,2023-11-03T02:10:49.165Z,,0,,,NaN,,,,,,false,,,,478440.2000000477,478439.90000009537,,478439.2999999523,,478450.206,8,400,,,
break_continue,html.Screen,4_101_2,2023-11-03T02:10:49.166Z,,0,,,NaN,,,,,,false,,,,478440.7000000477,478440.59999990463,,478440.2999999523,,478450.206,8,400,,,
sequence,flow.Sequence,4_101,2023-11-03T02:10:49.166Z,,0,,,4305.397999904642,completion,,,,,false,,,,478440.90000009537,478440.59999990463,474118.375,474126.90000009537,474135.202,478450.206,8,400,,,
trial,html.Screen,4_102_0,2023-11-03T02:10:51.907Z,,0,3,,2730.893999904627,response,ISIC_0055491.JPG,10,ISIC_0012435.JPG,ISIC_0012435.JPG,false,0,keypress(z),500,481181.5,481181.09999990463,478433.604,478441,478450.206,481199.799,8,400,3,,ISIC_0055491.JPG
break,html.Screen,4_102_1,2023-11-03T02:10:51.908Z,,0,,,NaN,,,,,,false,,,,481183.40000009537,481183,,481181.90000009537,,481199.799,8,400,,,
break_continue,html.Screen,4_102_2,2023-11-03T02:10:51.909Z,,0,,,NaN,,,,,,false,,,,481184.09999990463,481183.90000009537,,481183.59999990463,,481199.799,8,400,,,
sequence,flow.Sequence,4_102,2023-11-03T02:10:51.909Z,,0,,,2733.694000095362,completion,,,,,false,,,,481184.40000009537,481183.90000009537,478433.604,478440.90000009537,478450.206,481199.799,8,400,,,
trial,html.Screen,4_103_0,2023-11-03T02:10:56.992Z,,0,3,,5067.000999952317,response,ISIC_1247683.JPG,6,ISIC_6966001.JPG,ISIC_1247683.JPG,false,1,keypress(m),500,486267.2000000477,486266.7999999523,481166.511,481184.59999990463,481199.799,486311.132,8,400,4,,ISIC_6966001.JPG
break,html.Screen,4_103_1,2023-11-03T02:10:56.994Z,,0,,,NaN,,,,,,false,,,,486269.2000000477,486268.59999990463,,486267.5,,486311.132,8,400,,,
break_continue,html.Screen,4_103_2,2023-11-03T02:10:56.995Z,,0,,,NaN,,,,,,false,,,,486270.09999990463,486269.7999999523,,486269.40000009537,,486311.132,8,400,,,
sequence,flow.Sequence,4_103,2023-11-03T02:10:56.995Z,,0,,,5070.000999952317,completion,,,,,false,,,,486270.2999999523,486269.7999999523,481166.511,481184.59999990463,481199.799,486311.132,8,400,,,
trial,html.Screen,4_104_0,2023-11-03T02:11:00.791Z,,0,3,,3754.768000095384,response,ISIC_0063871.JPG,5,ISIC_5356775.JPG,ISIC_5356775.JPG,false,0,keypress(z),500,490066.40000009537,490065.90000009537,486265.003,486270.5,486311.132,490080.501,8,400,5,,ISIC_0063871.JPG
break,html.Screen,4_104_1,2023-11-03T02:11:00.793Z,,0,,,NaN,,,,,,false,,,,490068.09999990463,490067.7000000477,,490066.7000000477,,490080.501,8,400,,,
break_continue,html.Screen,4_104_2,2023-11-03T02:11:00.794Z,,0,,,NaN,,,,,,false,,,,490069,490068.7999999523,,490068.40000009537,,490080.501,8,400,,,
sequence,flow.Sequence,4_104,2023-11-03T02:11:00.794Z,,0,,,3757.667999952333,completion,,,,,false,,,,490069.2000000477,490068.7999999523,486265.003,486270.5,486311.132,490080.501,8,400,,,
trial,html.Screen,4_105_0,2023-11-03T02:11:04.399Z,,0,3,,3592.899000095378,response,ISIC_0026930.JPG,16,ISIC_3386656.JPG,ISIC_3386656.JPG,false,0,keypress(z),500,493673.7000000477,493673.40000009537,490064.078,490069.40000009537,490080.501,493679.637,8,400,6,,ISIC_0026930.JPG
break,html.Screen,4_105_1,2023-11-03T02:11:04.401Z,,0,,,NaN,,,,,,false,,,,493675.7000000477,493675.2000000477,,493674.09999990463,,493679.637,8,400,,,
break_continue,html.Screen,4_105_2,2023-11-03T02:11:04.401Z,,0,,,NaN,,,,,,false,,,,493676.40000009537,493676.2000000477,,493675.90000009537,,493679.637,8,400,,,
sequence,flow.Sequence,4_105,2023-11-03T02:11:04.402Z,,0,,,3595.6990000476944,completion,,,,,false,,,,493676.7000000477,493676.2000000477,490064.078,490069.2999999523,490080.501,493679.637,8,400,,,
trial,html.Screen,4_106_0,2023-11-03T02:11:08.332Z,,0,3,,3926.6629999523284,response,ISIC_3148533.JPG,8,ISIC_4175400.JPG,ISIC_4175400.JPG,false,0,keypress(z),500,497606.7000000477,497606.2999999523,493662.96,493676.7999999523,493679.637,497611.963,8,400,7,,ISIC_3148533.JPG
break,html.Screen,4_106_1,2023-11-03T02:11:08.333Z,,0,,,NaN,,,,,,false,,,,497608.40000009537,497608,,497606.90000009537,,497611.963,8,400,,,
break_continue,html.Screen,4_106_2,2023-11-03T02:11:08.334Z,,0,,,NaN,,,,,,false,,,,497609.09999990463,497608.90000009537,,497608.59999990463,,497611.963,8,400,,,
sequence,flow.Sequence,4_106,2023-11-03T02:11:08.334Z,,0,,,3929.2630000953795,completion,,,,,false,,,,497609.40000009537,497608.90000009537,493662.96,493676.7999999523,493679.637,497611.963,8,400,,,
trial,html.Screen,4_107_0,2023-11-03T02:11:11.812Z,,0,3,,3474.6369999046437,response,ISIC_0014745.JPG,6,ISIC_0057218.JPG,ISIC_0014745.JPG,false,1,keypress(m),500,501086.7999999523,501086.59999990463,497593.405,497609.59999990463,497611.963,501095.162,8,400,8,,ISIC_0057218.JPG
break,html.Screen,4_107_1,2023-11-03T02:11:11.814Z,,0,,,NaN,,,,,,false,,,,501088.7999999523,501088.40000009537,,501087.2000000477,,501095.162,8,400,,,
break_continue,html.Screen,4_107_2,2023-11-03T02:11:11.815Z,,0,,,NaN,,,,,,false,,,,501089.5,501089.2999999523,,501089.09999990463,,501095.162,8,400,,,
sequence,flow.Sequence,4_107,2023-11-03T02:11:11.815Z,,0,,,3477.3369999523275,completion,,,,,false,,,,501089.90000009537,501089.2999999523,497593.405,497609.5,497611.963,501095.162,8,400,,,
trial,html.Screen,4_108_0,2023-11-03T02:11:15.083Z,,0,3,,3262.137999952305,response,ISIC_4007322.JPG,12,ISIC_6298726.JPG,ISIC_6298726.JPG,false,0,keypress(z),500,504357.7000000477,504357.2999999523,501078.021,501090,501095.162,504360.197,8,400,9,,ISIC_4007322.JPG
break,html.Screen,4_108_1,2023-11-03T02:11:15.084Z,,0,,,NaN,,,,,,false,,,,504359.40000009537,504359,,504358,,504360.197,8,400,,,
break_continue,html.Screen,4_108_2,2023-11-03T02:11:15.085Z,,0,,,NaN,,,,,,false,,,,504360.2000000477,504359.90000009537,,504359.5,,504360.197,8,400,,,
sequence,flow.Sequence,4_108,2023-11-03T02:11:15.086Z,,0,,,3264.7380000953563,completion,,,,,false,,,,504360.7999999523,504359.90000009537,501078.021,501090,501095.162,504360.197,8,400,,,
trial,html.Screen,4_109_0,2023-11-03T02:11:18.531Z,,0,3,,3445.3030000000144,response,ISIC_1216139.JPG,2,ISIC_1924949.JPG,ISIC_1216139.JPG,false,1,keypress(m),500,507805.7999999523,507805.5,504349.691,504361,504360.197,507809.31,8,400,10,,ISIC_1924949.JPG
break,html.Screen,4_109_1,2023-11-03T02:11:18.533Z,,0,,,NaN,,,,,,false,,,,507807.7000000477,507807.2000000477,,507806.09999990463,,507809.31,8,400,,,
break_continue,html.Screen,4_109_2,2023-11-03T02:11:18.534Z,,0,,,NaN,,,,,,false,,,,507808.5,507808.2999999523,,507807.90000009537,,507809.31,8,400,,,
sequence,flow.Sequence,4_109,2023-11-03T02:11:18.534Z,,0,,,3448.1029999523307,completion,,,,,false,,,,507808.7000000477,507808.2999999523,504349.691,504361,504360.197,507809.31,8,400,,,
trial,html.Screen,4_110_0,2023-11-03T02:11:24.940Z,,0,3,,6405.09000009537,response,ISIC_0072893.JPG,5,ISIC_0013572.JPG,ISIC_0013572.JPG,false,0,keypress(z),500,514214.7000000477,514214.40000009537,507792.838,507808.90000009537,507809.31,514245.2,8,400,11,,ISIC_0072893.JPG
break,html.Screen,4_110_1,2023-11-03T02:11:24.941Z,,0,,,NaN,,,,,,false,,,,514215.90000009537,514215.59999990463,,514215,,514245.2,8,400,,,
break_continue,html.Screen,4_110_2,2023-11-03T02:11:24.942Z,,0,,,NaN,,,,,,false,,,,514216.59999990463,514216.40000009537,,514216.09999990463,,514245.2,8,400,,,
sequence,flow.Sequence,4_110,2023-11-03T02:11:24.942Z,,0,,,6407.09000009537,completion,,,,,false,,,,514216.90000009537,514216.40000009537,507792.838,507808.90000009537,507809.31,514245.2,8,400,,,
trial,html.Screen,4_111_0,2023-11-03T02:11:28.516Z,,0,3,,3545.7999999999884,response,ISIC_0004986.JPG,9,ISIC_0069379.JPG,ISIC_0004986.JPG,false,1,keypress(m),500,517791.2999999523,517791,514224.473,514217,514245.2,517806.695,8,400,12,,ISIC_0069379.JPG
break,html.Screen,4_111_1,2023-11-03T02:11:28.518Z,,0,,,NaN,,,,,,false,,,,517792.59999990463,517792.2000000477,,517791.5,,517806.695,8,400,,,
break_continue,html.Screen,4_111_2,2023-11-03T02:11:28.518Z,,0,,,NaN,,,,,,false,,,,517793.2000000477,517792.90000009537,,517792.7000000477,,517806.695,8,400,,,
sequence,flow.Sequence,4_111,2023-11-03T02:11:28.519Z,,0,,,3547.700000095356,completion,,,,,false,,,,517793.40000009537,517792.90000009537,514224.473,514216.90000009537,514245.2,517806.695,8,400,,,
trial,html.Screen,4_112_0,2023-11-03T02:11:31.357Z,,0,3,,2824.804999999993,response,ISIC_0033058.JPG,11,ISIC_0070463.JPG,ISIC_0033058.JPG,false,1,keypress(m),500,520631.7999999523,520631.5,517790.239,517793.59999990463,517806.695,520639.273,8,400,13,,ISIC_0070463.JPG
break,html.Screen,4_112_1,2023-11-03T02:11:31.358Z,,0,,,NaN,,,,,,false,,,,520633,520632.7000000477,,520631.90000009537,,520639.273,8,400,,,
break_continue,html.Screen,4_112_2,2023-11-03T02:11:31.359Z,,0,,,NaN,,,,,,false,,,,520633.5,520633.2999999523,,520633.09999990463,,520639.273,8,400,,,
sequence,flow.Sequence,4_112,2023-11-03T02:11:31.359Z,,0,,,2826.6049999523093,completion,,,,,false,,,,520633.7999999523,520633.2999999523,517790.239,517793.59999990463,517806.695,520639.273,8,400,,,
trial,html.Screen,4_113_0,2023-11-03T02:11:34.437Z,,0,3,,3072.02699995233,response,ISIC_4926788.JPG,13,ISIC_0058946.JPG,ISIC_4926788.JPG,false,1,keypress(m),500,523711.7000000477,523711.2999999523,520628.783,520633.90000009537,520639.273,523722.684,8,400,14,,ISIC_0058946.JPG
break,html.Screen,4_113_1,2023-11-03T02:11:34.439Z,,0,,,NaN,,,,,,false,,,,523713.5,523713,,523711.90000009537,,523722.684,8,400,,,
break_continue,html.Screen,4_113_2,2023-11-03T02:11:34.439Z,,0,,,NaN,,,,,,false,,,,523714.2000000477,523713.90000009537,,523713.7000000477,,523722.684,8,400,,,
sequence,flow.Sequence,4_113,2023-11-03T02:11:34.439Z,,0,,,3074.627000095381,completion,,,,,false,,,,523714.40000009537,523713.90000009537,520628.783,520633.7999999523,520639.273,523722.684,8,400,,,
trial,html.Screen,4_114_0,2023-11-03T02:11:37.133Z,,0,3,,2684.8159999999916,response,ISIC_0025451.JPG,7,ISIC_0000155.JPG,ISIC_0025451.JPG,false,1,keypress(m),500,526407.9000000954,526407.5,523705.115,523714.59999990463,523722.684,526421.101,8,400,15,,ISIC_0000155.JPG
break,html.Screen,4_114_1,2023-11-03T02:11:37.135Z,,0,,,NaN,,,,,,false,,,,526409.9000000954,526409.4000000954,,526408.2000000477,,526421.101,8,400,,,
break_continue,html.Screen,4_114_2,2023-11-03T02:11:37.136Z,,0,,,NaN,,,,,,false,,,,526410.7000000477,526410.5,,526410.0999999046,,526421.101,8,400,,,
sequence,flow.Sequence,4_114,2023-11-03T02:11:37.136Z,,0,,,2687.8159999999916,completion,,,,,false,,,,526411,526410.5,523705.115,523714.59999990463,523722.684,526421.101,8,400,,,
trial,html.Screen,4_115_0,2023-11-03T02:11:40.291Z,,0,3,,3144.398999999976,response,ISIC_5082596.JPG,6,ISIC_0010350.JPG,ISIC_5082596.JPG,false,1,keypress(m),500,529565.9000000954,529565.5,526402.896,526411.2000000477,526421.101,529570.314,8,400,16,,ISIC_0010350.JPG
break,html.Screen,4_115_1,2023-11-03T02:11:40.293Z,,0,,,NaN,,,,,,false,,,,529567.5999999046,529567.2000000477,,529566.2000000477,,529570.314,8,400,,,
break_continue,html.Screen,4_115_2,2023-11-03T02:11:40.293Z,,0,,,NaN,,,,,,false,,,,529568.4000000954,529568.0999999046,,529567.7999999523,,529570.314,8,400,,,
sequence,flow.Sequence,4_115,2023-11-03T02:11:40.294Z,,0,,,3146.9989999046084,completion,,,,,false,,,,529568.7000000477,529568.0999999046,526402.896,526411.0999999046,526421.101,529570.314,8,400,,,
trial,html.Screen,4_116_0,2023-11-03T02:11:44.430Z,,0,3,,4134.386000047671,response,ISIC_8104064.JPG,28,ISIC_1265382.JPG,ISIC_8104064.JPG,false,1,keypress(m),500,533705,533704.7000000477,529554.272,529568.7999999523,529570.314,533735.867,8,400,17,,ISIC_1265382.JPG
break,html.Screen,4_116_1,2023-11-03T02:11:44.431Z,,0,,,NaN,,,,,,false,,,,533706.4000000954,533705.9000000954,,533705.2999999523,,533735.867,8,400,,,
break_continue,html.Screen,4_116_2,2023-11-03T02:11:44.432Z,,0,,,NaN,,,,,,false,,,,533707,533706.7999999523,,533706.5,,533735.867,8,400,,,
sequence,flow.Sequence,4_116,2023-11-03T02:11:44.432Z,,0,,,4136.485999952303,completion,,,,,false,,,,533707.2999999523,533706.7999999523,529554.272,529568.7999999523,529570.314,533735.867,8,400,,,
trial,html.Screen,4_117_0,2023-11-03T02:11:47.189Z,,0,3,,2727.7329999046633,response,ISIC_0033386.JPG,7,ISIC_0032875.JPG,ISIC_0032875.JPG,false,0,keypress(z),500,536464,536463.5999999046,533719.426,533707.5,533735.867,536468.514,8,400,18,,ISIC_0033386.JPG
break,html.Screen,4_117_1,2023-11-03T02:11:47.191Z,,0,,,NaN,,,,,,false,,,,536466.2000000477,536465.5999999046,,536464.2999999523,,536468.514,8,400,,,
break_continue,html.Screen,4_117_2,2023-11-03T02:11:47.192Z,,0,,,NaN,,,,,,false,,,,536467,536466.7999999523,,536466.4000000954,,536468.514,8,400,,,
sequence,flow.Sequence,4_117,2023-11-03T02:11:47.192Z,,0,,,2730.932999952347,completion,,,,,false,,,,536467.2000000477,536466.7999999523,533719.426,533707.4000000954,533735.867,536468.514,8,400,,,
trial,html.Screen,4_118_0,2023-11-03T02:11:50.692Z,,0,3,,3497.6860000477172,response,ISIC_0015046.JPG,13,ISIC_2882945.JPG,ISIC_2882945.JPG,false,0,keypress(z),500,539966.5999999046,539966.2000000477,536452.06,536467.5,536468.514,539984.402,8,400,19,,ISIC_0015046.JPG
break,html.Screen,4_118_1,2023-11-03T02:11:50.694Z,,0,,,NaN,,,,,,false,,,,539968.5,539968,,539966.9000000954,,539984.402,8,400,,,
break_continue,html.Screen,4_118_2,2023-11-03T02:11:50.694Z,,0,,,NaN,,,,,,false,,,,539969.2000000477,539969.0999999046,,539968.7000000477,,539984.402,8,400,,,
sequence,flow.Sequence,4_118,2023-11-03T02:11:50.695Z,,0,,,3500.585999904666,completion,,,,,false,,,,539969.5,539969.0999999046,536452.06,536467.4000000954,536468.514,539984.402,8,400,,,
trial,html.Screen,4_119_0,2023-11-03T02:11:55.759Z,,0,3,,5049.897999952314,response,ISIC_8389839.JPG,11,ISIC_0010360.JPG,ISIC_8389839.JPG,false,1,keypress(m),500,545034.5999999046,545034.2999999523,539962.946,539969.7000000477,539984.402,545049.591,8,400,20,,ISIC_0010360.JPG
break,html.Screen,4_119_1,2023-11-03T02:11:55.762Z,,0,,,NaN,,,,,,false,,,,545036.5999999046,545035.9000000954,,545034.9000000954,,545049.591,8,400,,,
break_continue,html.Screen,4_119_2,2023-11-03T02:11:55.762Z,,0,,,NaN,,,,,,false,,,,545037.2999999523,545037.2000000477,,545036.7999999523,,545049.591,8,400,,,
sequence,flow.Sequence,4_119,2023-11-03T02:11:55.763Z,,0,,,5052.798000047682,completion,,,,,false,,,,545037.7000000477,545037.2000000477,539962.946,539969.5999999046,539984.402,545049.591,8,400,,,
trial,html.Screen,4_120_0,2023-11-03T02:11:59.321Z,,0,3,,3545.7089999523014,response,ISIC_9301346.JPG,5,ISIC_6448654.JPG,ISIC_9301346.JPG,false,1,keypress(m),500,548595.5999999046,548595.2999999523,545033.062,545037.7999999523,545049.591,548598.669,8,400,21,,ISIC_6448654.JPG
break,html.Screen,4_120_1,2023-11-03T02:11:59.322Z,,0,,,NaN,,,,,,false,,,,548597.4000000954,548596.9000000954,,548595.9000000954,,548598.669,8,400,,,
break_continue,html.Screen,4_120_2,2023-11-03T02:11:59.323Z,,0,,,NaN,,,,,,false,,,,548598.0999999046,548597.7999999523,,548597.5,,548598.669,8,400,,,
sequence,flow.Sequence,4_120,2023-11-03T02:11:59.323Z,,0,,,3548.2089999523014,completion,,,,,false,,,,548598.2999999523,548597.7999999523,545033.062,545037.7000000477,545049.591,548598.669,8,400,,,
trial,html.Screen,4_121_0,2023-11-03T02:12:02.579Z,,0,3,,3255.3310000000056,response,ISIC_0072601.JPG,21,ISIC_0024344.JPG,ISIC_0024344.JPG,false,0,keypress(z),500,551854.4000000954,551854,548587.698,548598.5999999046,548598.669,551864.485,8,400,22,,ISIC_0072601.JPG
break,html.Screen,4_121_1,2023-11-03T02:12:02.581Z,,0,,,NaN,,,,,,false,,,,551856.0999999046,551855.5999999046,,551854.5999999046,,551864.485,8,400,,,
break_continue,html.Screen,4_121_2,2023-11-03T02:12:02.582Z,,0,,,NaN,,,,,,false,,,,551857,551856.7999999523,,551856.5,,551864.485,8,400,,,
sequence,flow.Sequence,4_121,2023-11-03T02:12:02.582Z,,0,,,3258.130999952322,completion,,,,,false,,,,551857.4000000954,551856.7999999523,548587.698,548598.5,548598.669,551864.485,8,400,,,
trial,html.Screen,4_122_0,2023-11-03T02:12:05.921Z,,0,3,,3331.2150000476977,response,ISIC_3671963.JPG,8,ISIC_6556622.JPG,ISIC_3671963.JPG,false,1,keypress(m),500,555196,555195.7000000477,551848.061,551859.2000000477,551864.485,555230.446,8,400,23,,ISIC_6556622.JPG
break,html.Screen,4_122_1,2023-11-03T02:12:05.923Z,,0,,,NaN,,,,,,false,,,,555198.0999999046,555197.2999999523,,555196.2999999523,,555230.446,8,400,,,
break_continue,html.Screen,4_122_2,2023-11-03T02:12:05.924Z,,0,,,NaN,,,,,,false,,,,555199,555198.7000000477,,555198.4000000954,,555230.446,8,400,,,
sequence,flow.Sequence,4_122,2023-11-03T02:12:05.924Z,,0,,,3334.2150000476977,completion,,,,,false,,,,555199.4000000954,555198.7000000477,551848.061,551859.0999999046,551864.485,555230.446,8,400,,,
trial,html.Screen,4_123_0,2023-11-03T02:12:09.167Z,,0,3,,3211.35399995232,response,ISIC_2203247.JPG,14,ISIC_0024735.JPG,ISIC_0024735.JPG,false,0,keypress(z),500,558442.4000000954,558441.7999999523,555213.785,555199.7000000477,555230.446,558446.093,8,400,24,,ISIC_2203247.JPG
break,html.Screen,4_123_1,2023-11-03T02:12:09.169Z,,0,,,NaN,,,,,,false,,,,558443.7000000477,558443.4000000954,,558442.7000000477,,558446.093,8,400,,,
break_continue,html.Screen,4_123_2,2023-11-03T02:12:09.170Z,,0,,,NaN,,,,,,false,,,,558444.7000000477,558444.4000000954,,558444.0999999046,,558446.093,8,400,,,
sequence,flow.Sequence,4_123,2023-11-03T02:12:09.170Z,,0,,,3213.954000095371,completion,,,,,false,,,,558445,558444.4000000954,555213.785,555199.5999999046,555230.446,558446.093,8,400,,,
trial,html.Screen,4_124_0,2023-11-03T02:12:12.635Z,,0,3,,3463.706999952323,response,ISIC_0030139.JPG,5,ISIC_0070927.JPG,ISIC_0030139.JPG,false,1,keypress(m),500,561910.2000000477,561909.7999999523,558429.583,558445.2000000477,558446.093,561934.159,8,400,25,,ISIC_0070927.JPG
break,html.Screen,4_124_1,2023-11-03T02:12:12.637Z,,0,,,NaN,,,,,,false,,,,561912.4000000954,561911.9000000954,,561910.5,,561934.159,8,400,,,
break_continue,html.Screen,4_124_2,2023-11-03T02:12:12.638Z,,0,,,NaN,,,,,,false,,,,561913.2000000477,561913,,561912.5999999046,,561934.159,8,400,,,
sequence,flow.Sequence,4_124,2023-11-03T02:12:12.638Z,,0,,,3466.9070000000065,completion,,,,,false,,,,561913.5999999046,561913,558429.583,558445.0999999046,558446.093,561934.159,8,400,,,
trial,html.Screen,4_125_0,2023-11-03T02:12:16.649Z,,0,3,,3989.0410000476986,response,ISIC_4257634.JPG,24,ISIC_0057617.JPG,ISIC_4257634.JPG,false,1,keypress(m),500,565923.7999999523,565923.2000000477,561895.389,561913.7000000477,561934.159,565927.501,8,400,26,,ISIC_0057617.JPG
break,html.Screen,4_125_1,2023-11-03T02:12:16.651Z,,0,,,NaN,,,,,,false,,,,565926.0999999046,565925.5,,565924.2000000477,,565927.501,8,400,,,
