sender,sender_type,sender_id,timestamp,meta,,blockNo,condition,duration,ended_on,img_left,img_reveal,img_right,loser,practice,response,response_action,selection_duration,time_commit,time_end,time_render,time_run,time_show,time_switch,total_blocks,total_trials,trialNo,url,winner
informed_consent,html.Screen,0,2023-09-08T18:44:36.059Z,"{""labjs_version"":""20.2.4"",""labjs_build"":{""flavor"":""production"",""commit"":""f5b4a49f956347addd546a832a3327688c2c0fef""},""location"":""https://run.pavlovia.org/MurrayBennett/melanoma-2afc/?participant=62e750fa810b090c094dc2f0&STUDY_ID=64f8c92207ba404bcb356c90&SESSION_ID=64fb6b6afc9e1a870d8dbe8a&platform=prolific"",""userAgent"":""Mozilla/5.0 (Windows NT 10.0; Win64; x64) AppleWebKit/537.36 (KHTML, like Gecko) Chrome/117.0.0.0 Safari/537.36"",""platform"":""Win32"",""language"":""en-US"",""locale"":""en-US"",""timeZone"":""America/New_York"",""timezoneOffset"":240,""screen_width"":1920,""screen_height"":1080,""scroll_width"":958,""scroll_height"":913,""window_innerWidth"":958,""window_innerHeight"":961,""devicePixelRatio"":1}",,,,3736.273,response,,,,,,consent,click button,,6295.700000017881,6294.5,2541.649,2555.300000011921,2558.227,6308.409,,,,"{""participant"":""62e750fa810b090c094dc2f0"",""STUDY_ID"":""64f8c92207ba404bcb356c90"",""SESSION_ID"":""64fb6b6afc9e1a870d8dbe8a"",""platform"":""prolific""}",
Welcome,html.Screen,1,2023-09-08T18:45:34.325Z,,,,uniform,58251.99100000596,response,,,,,,continue,click button,,64561,64560.40000000596,6291.734,6296,6308.409,64577.114,,,,,
trial,html.Screen,2_0_0,2023-09-08T18:45:41.863Z,,0,0,,7522.1860000119195,response,ISIC_0025593.JPG,,ISIC_0063388.JPG,ISIC_0025593.JPG,true,1,keypress(m),500,72099.5,72099.30000001192,64560.268,64561.20000001788,64577.114,72110.445,1,6,1,,ISIC_0063388.JPG
sequence,flow.Sequence,2_0,2023-09-08T18:45:41.864Z,,0,,,7522.1860000119195,completion,,,,,true,,,,72099.70000001788,72099.30000001192,64560.268,64561.20000001788,64577.114,72110.445,1,6,,,
trial,html.Screen,2_1_0,2023-09-08T18:45:46.697Z,,0,0,,4822.355000011914,response,ISIC_0028178.JPG,,ISIC_1309015.JPG,ISIC_0028178.JPG,true,1,keypress(m),500,76932.90000000596,76932.80000001192,72093.893,72099.80000001192,72110.445,76943.911,1,6,2,,ISIC_1309015.JPG
sequence,flow.Sequence,2_1,2023-09-08T18:45:46.697Z,,0,,,4822.355000011914,completion,,,,,true,,,,76933.10000002384,76932.80000001192,72093.893,72099.80000001192,72110.445,76943.911,1,6,,,
trial,html.Screen,2_2_0,2023-09-08T18:45:52.043Z,,0,0,,5334.689000023849,response,ISIC_3314853.JPG,,ISIC_0031128.JPG,ISIC_3314853.JPG,true,1,keypress(m),500,82278.80000001192,82278.60000002384,76927.439,76933.10000002384,76943.911,82294.298,1,6,3,,ISIC_0031128.JPG
sequence,flow.Sequence,2_2,2023-09-08T18:45:52.043Z,,0,,,5334.689000023849,completion,,,,,true,,,,82279,82278.60000002384,76927.439,76933.10000002384,76943.911,82294.298,1,6,,,
trial,html.Screen,2_3_0,2023-09-08T18:45:56.317Z,,0,0,,4257.902000017886,response,ISIC_0031612.JPG,,ISIC_8980141.JPG,ISIC_8980141.JPG,true,0,keypress(z),500,86552.40000000596,86552.20000001788,82277.549,82279.10000002384,82294.298,86561.231,1,6,4,,ISIC_0031612.JPG
sequence,flow.Sequence,2_3,2023-09-08T18:45:56.317Z,,0,,,4257.902000017886,completion,,,,,true,,,,86552.60000002384,86552.20000001788,82277.549,82279.10000002384,82294.298,86561.231,1,6,,,
trial,html.Screen,2_4_0,2023-09-08T18:46:02.526Z,,0,0,,6200.569000011921,response,ISIC_9721604.JPG,,ISIC_1197737.JPG,ISIC_1197737.JPG,true,0,keypress(z),500,92762.10000002384,92761.80000001192,86544.385,86552.70000001788,86561.231,92777.932,1,6,5,,ISIC_9721604.JPG
sequence,flow.Sequence,2_4,2023-09-08T18:46:02.527Z,,0,,,6200.569000011921,completion,,,,,true,,,,92762.20000001788,92761.80000001192,86544.385,86552.70000001788,86561.231,92777.932,1,6,,,
trial,html.Screen,2_5_0,2023-09-08T18:46:06.881Z,,0,0,,4338.067999999999,response,ISIC_0025346.JPG,,ISIC_0010681.JPG,ISIC_0025346.JPG,true,1,keypress(m),500,97116.10000002384,97116,92761.051,92762.40000000596,92777.932,97128.02,1,6,6,,ISIC_0010681.JPG
sequence,flow.Sequence,2_5,2023-09-08T18:46:06.881Z,,0,,,4338.067999999999,completion,,,,,true,,,,97116.30000001192,97116,92761.051,92762.30000001192,92777.932,97128.02,1,6,,,
loop,flow.Loop,2,2023-09-08T18:46:06.881Z,,,,,32538.886,completion,,,,,true,,,,97116.5,97116,64560.268,64561.10000002384,64577.114,97128.02,1,6,,,
exp_instructions,html.Screen,3,2023-09-08T18:46:17.133Z,,,,,10240.180000017877,response,,,,,,continue,keypress(Space),,107368.60000002384,107368.20000001788,97111.519,97116.5,97128.02,107378.286,,,,,
trial,html.Screen,4_0_0,2023-09-08T18:46:20.897Z,,0,1,,3753.714000000007,response,ISIC_0060897.JPG,5,ISIC_0029591.JPG,ISIC_0060897.JPG,false,1,keypress(m),500,111132.20000001788,111132,107360.911,107368.70000001788,107378.286,111145,8,400,1,,ISIC_0029591.JPG
break,html.Screen,4_0_1,2023-09-08T18:46:20.898Z,,0,,,NaN,,,,,,false,,,,111133.80000001192,111133.60000002384,,111133.10000002384,,111145,8,400,,,
break_continue,html.Screen,4_0_2,2023-09-08T18:46:20.898Z,,0,,,NaN,,,,,,false,,,,111134.10000002384,111134,,111133.80000001192,,111145,8,400,,,
sequence,flow.Sequence,4_0,2023-09-08T18:46:20.899Z,,0,,,3755.714000000007,completion,,,,,false,,,,111134.20000001788,111134,107360.911,107368.70000001788,107378.286,111145,8,400,,,
trial,html.Screen,4_1_0,2023-09-08T18:46:26.260Z,,0,1,,5350.4000000059605,response,ISIC_9425937.JPG,5,ISIC_8659639.JPG,ISIC_8659639.JPG,false,0,keypress(z),500,116495.5,116495.40000000596,111128.416,111134.30000001192,111145,116511.953,8,400,2,,ISIC_9425937.JPG
break,html.Screen,4_1_1,2023-09-08T18:46:26.261Z,,0,,,NaN,,,,,,false,,,,116496.10000002384,116496,,116495.70000001788,,116511.953,8,400,,,
break_continue,html.Screen,4_1_2,2023-09-08T18:46:26.261Z,,0,,,NaN,,,,,,false,,,,116496.40000000596,116496.30000001192,,116496.20000001788,,116511.953,8,400,,,
sequence,flow.Sequence,4_1,2023-09-08T18:46:26.261Z,,0,,,5351.300000011921,completion,,,,,false,,,,116496.5,116496.30000001192,111128.416,111134.30000001192,111145,116511.953,8,400,,,
trial,html.Screen,4_2_0,2023-09-08T18:46:30.135Z,,0,1,,3858.647000023848,response,ISIC_4502605.JPG,4,ISIC_6803432.JPG,ISIC_6803432.JPG,false,0,keypress(z),500,120370.80000001192,120370.60000002384,116495.151,116496.60000002384,116511.953,120378.845,8,400,3,,ISIC_4502605.JPG
break,html.Screen,4_2_1,2023-09-08T18:46:30.136Z,,0,,,NaN,,,,,,false,,,,120371.40000000596,120371.20000001788,,120370.90000000596,,120378.845,8,400,,,
break_continue,html.Screen,4_2_2,2023-09-08T18:46:30.136Z,,0,,,NaN,,,,,,false,,,,120371.60000002384,120371.60000002384,,120371.40000000596,,120378.845,8,400,,,
sequence,flow.Sequence,4_2,2023-09-08T18:46:30.136Z,,0,,,3859.647000023848,completion,,,,,false,,,,120371.80000001192,120371.60000002384,116495.151,116496.60000002384,116511.953,120378.845,8,400,,,
trial,html.Screen,4_3_0,2023-09-08T18:46:35.722Z,,0,1,,5578.45500001192,response,ISIC_0025779.JPG,5,ISIC_0485881.JPG,ISIC_0485881.JPG,false,0,keypress(z),500,125957.40000000596,125957.30000001192,120362.06,120371.80000001192,120378.845,125962.319,8,400,4,,ISIC_0025779.JPG
break,html.Screen,4_3_1,2023-09-08T18:46:35.722Z,,0,,,NaN,,,,,,false,,,,125958,125957.90000000596,,125957.60000002384,,125962.319,8,400,,,
break_continue,html.Screen,4_3_2,2023-09-08T18:46:35.723Z,,0,,,NaN,,,,,,false,,,,125958.30000001192,125958.20000001788,,125958.10000002384,,125962.319,8,400,,,
sequence,flow.Sequence,4_3,2023-09-08T18:46:35.723Z,,0,,,5579.35500001788,completion,,,,,false,,,,125958.40000000596,125958.20000001788,120362.06,120371.80000001192,120378.845,125962.319,8,400,,,
trial,html.Screen,4_4_0,2023-09-08T18:46:40.493Z,,0,1,,4766.281000023839,response,ISIC_9944714.JPG,6,ISIC_1290821.JPG,ISIC_9944714.JPG,false,1,keypress(m),500,130728.80000001192,130728.60000002384,125945.573,125958.5,125962.319,130745.743,8,400,5,,ISIC_1290821.JPG
break,html.Screen,4_4_1,2023-09-08T18:46:40.494Z,,0,,,NaN,,,,,,false,,,,130729.5,130729.20000001788,,130728.80000001192,,130745.743,8,400,,,
break_continue,html.Screen,4_4_2,2023-09-08T18:46:40.495Z,,0,,,NaN,,,,,,false,,,,130730.40000000596,130730.40000000596,,130729.5,,130745.743,8,400,,,
sequence,flow.Sequence,4_4,2023-09-08T18:46:40.495Z,,0,,,4768.081000005957,completion,,,,,false,,,,130730.60000002384,130730.40000000596,125945.573,125958.40000000596,125962.319,130745.743,8,400,,,
trial,html.Screen,4_5_0,2023-09-08T18:46:45.680Z,,0,1,,5170.057000011919,response,ISIC_0027683.JPG,5,ISIC_1132788.JPG,ISIC_1132788.JPG,false,0,keypress(z),500,135916,135915.80000001192,130729.027,130730.60000002384,130745.743,135945.977,8,400,6,,ISIC_0027683.JPG
break,html.Screen,4_5_1,2023-09-08T18:46:45.681Z,,0,,,NaN,,,,,,false,,,,135916.5,135916.40000000596,,135916.10000002384,,135945.977,8,400,,,
break_continue,html.Screen,4_5_2,2023-09-08T18:46:45.681Z,,0,,,NaN,,,,,,false,,,,135916.70000001788,135916.70000001788,,135916.5,,135945.977,8,400,,,
sequence,flow.Sequence,4_5,2023-09-08T18:46:45.681Z,,0,,,5170.957000017879,completion,,,,,false,,,,135916.80000001192,135916.70000001788,130729.027,130730.60000002384,130745.743,135945.977,8,400,,,
trial,html.Screen,4_6_0,2023-09-08T18:46:48.786Z,,0,1,,3075.723000017868,response,ISIC_5671175.JPG,5,ISIC_3596877.JPG,ISIC_5671175.JPG,false,1,keypress(m),500,139021.80000001192,139021.70000001788,135929.287,135916.90000000596,135945.977,139029.477,8,400,7,,ISIC_3596877.JPG
break,html.Screen,4_6_1,2023-09-08T18:46:48.787Z,,0,,,NaN,,,,,,false,,,,139022.5,139022.40000000596,,139021.90000000596,,139029.477,8,400,,,
break_continue,html.Screen,4_6_2,2023-09-08T18:46:48.787Z,,0,,,NaN,,,,,,false,,,,139022.70000001788,139022.60000002384,,139022.5,,139029.477,8,400,,,
sequence,flow.Sequence,4_6,2023-09-08T18:46:48.787Z,,0,,,3076.6230000238284,completion,,,,,false,,,,139022.80000001192,139022.60000002384,135929.287,135916.90000000596,135945.977,139029.477,8,400,,,
trial,html.Screen,4_7_0,2023-09-08T18:46:54.582Z,,0,1,,5787.723000017868,response,ISIC_0046315.JPG,5,ISIC_6945634.JPG,ISIC_6945634.JPG,false,0,keypress(z),500,144817.40000000596,144817.20000001788,139012.651,139022.90000000596,139029.477,144829.406,8,400,8,,ISIC_0046315.JPG
break,html.Screen,4_7_1,2023-09-08T18:46:54.582Z,,0,,,NaN,,,,,,false,,,,144818,144817.90000000596,,144817.5,,144829.406,8,400,,,
break_continue,html.Screen,4_7_2,2023-09-08T18:46:54.583Z,,0,,,NaN,,,,,,false,,,,144818.30000001192,144818.20000001788,,144818,,144829.406,8,400,,,
sequence,flow.Sequence,4_7,2023-09-08T18:46:54.583Z,,0,,,5788.723000017868,completion,,,,,false,,,,144818.40000000596,144818.20000001788,139012.651,139022.80000001192,139029.477,144829.406,8,400,,,
trial,html.Screen,4_8_0,2023-09-08T18:46:59.512Z,,0,1,,4917.994000005972,response,ISIC_2668481.JPG,5,ISIC_0005681.JPG,ISIC_2668481.JPG,false,1,keypress(m),500,149747.60000002384,149747.40000000596,144812.944,144818.40000000596,144829.406,149762.901,8,400,9,,ISIC_0005681.JPG
break,html.Screen,4_8_1,2023-09-08T18:46:59.513Z,,0,,,NaN,,,,,,false,,,,149748.20000001788,149748.10000002384,,149747.70000001788,,149762.901,8,400,,,
break_continue,html.Screen,4_8_2,2023-09-08T18:46:59.513Z,,0,,,NaN,,,,,,false,,,,149748.5,149748.40000000596,,149748.20000001788,,149762.901,8,400,,,
sequence,flow.Sequence,4_8,2023-09-08T18:46:59.513Z,,0,,,4918.994000005972,completion,,,,,false,,,,149748.5,149748.40000000596,144812.944,144818.40000000596,144829.406,149762.901,8,400,,,
trial,html.Screen,4_9_0,2023-09-08T18:47:02.379Z,,0,1,,2851.799000017869,response,ISIC_0024999.JPG,6,ISIC_0031821.JPG,ISIC_0024999.JPG,false,1,keypress(m),500,152614.90000000596,152614.70000001788,149746.381,149748.60000002384,149762.901,152629.955,8,400,10,,ISIC_0031821.JPG
break,html.Screen,4_9_1,2023-09-08T18:47:02.380Z,,0,,,NaN,,,,,,false,,,,152615.60000002384,152615.40000000596,,152615,,152629.955,8,400,,,
break_continue,html.Screen,4_9_2,2023-09-08T18:47:02.380Z,,0,,,NaN,,,,,,false,,,,152615.80000001192,152615.70000001788,,152615.70000001788,,152629.955,8,400,,,
sequence,flow.Sequence,4_9,2023-09-08T18:47:02.380Z,,0,,,2852.799000017869,completion,,,,,false,,,,152616,152615.70000001788,149746.381,149748.60000002384,149762.901,152629.955,8,400,,,
trial,html.Screen,4_10_0,2023-09-08T18:47:06.366Z,,0,1,,3970.9450000059733,response,ISIC_0013165.JPG,5,ISIC_0033804.JPG,ISIC_0033804.JPG,false,0,keypress(z),500,156601.10000002384,156600.90000000596,152613.156,152616,152629.955,156613.129,8,400,11,,ISIC_0013165.JPG
break,html.Screen,4_10_1,2023-09-08T18:47:06.366Z,,0,,,NaN,,,,,,false,,,,156601.80000001192,156601.70000001788,,156601.30000001192,,156613.129,8,400,,,
break_continue,html.Screen,4_10_2,2023-09-08T18:47:06.366Z,,0,,,NaN,,,,,,false,,,,156602,156601.90000000596,,156601.80000001192,,156613.129,8,400,,,
sequence,flow.Sequence,4_10,2023-09-08T18:47:06.367Z,,0,,,3971.9450000059733,completion,,,,,false,,,,156602.20000001788,156601.90000000596,152613.156,152616,152629.955,156613.129,8,400,,,
trial,html.Screen,4_11_0,2023-09-08T18:47:09.584Z,,0,1,,3206.4710000238556,response,ISIC_4263521.JPG,4,ISIC_1977315.JPG,ISIC_4263521.JPG,false,1,keypress(m),500,159819.60000002384,159819.60000002384,156596.611,156602.20000001788,156613.129,159830.14,8,400,12,,ISIC_1977315.JPG
break,html.Screen,4_11_1,2023-09-08T18:47:09.585Z,,0,,,NaN,,,,,,false,,,,159820.20000001788,159820.10000002384,,159819.80000001192,,159830.14,8,400,,,
break_continue,html.Screen,4_11_2,2023-09-08T18:47:09.585Z,,0,,,NaN,,,,,,false,,,,159820.5,159820.5,,159820.40000000596,,159830.14,8,400,,,
sequence,flow.Sequence,4_11,2023-09-08T18:47:09.585Z,,0,,,3207.3710000000137,completion,,,,,false,,,,159820.70000001788,159820.5,156596.611,156602.20000001788,156613.129,159830.14,8,400,,,
trial,html.Screen,4_12_0,2023-09-08T18:47:12.883Z,,0,1,,3288.160000011907,response,ISIC_6628544.JPG,5,ISIC_0031546.JPG,ISIC_0031546.JPG,false,0,keypress(z),500,163118.40000000596,163118.30000001192,159813.274,159820.70000001788,159830.14,163130.07,8,400,13,,ISIC_6628544.JPG
break,html.Screen,4_12_1,2023-09-08T18:47:12.883Z,,0,,,NaN,,,,,,false,,,,163119,163118.80000001192,,163118.5,,163130.07,8,400,,,
break_continue,html.Screen,4_12_2,2023-09-08T18:47:12.884Z,,0,,,NaN,,,,,,false,,,,163119.20000001788,163119.20000001788,,163119,,163130.07,8,400,,,
sequence,flow.Sequence,4_12,2023-09-08T18:47:12.884Z,,0,,,3289.0600000178674,completion,,,,,false,,,,163119.40000000596,163119.20000001788,159813.274,159820.70000001788,159830.14,163130.07,8,400,,,
trial,html.Screen,4_13_0,2023-09-08T18:47:16.438Z,,0,1,,3543.429999999993,response,ISIC_8748070.JPG,5,ISIC_1685962.JPG,ISIC_1685962.JPG,false,0,keypress(z),500,166673.70000001788,166673.5,163113.314,163119.5,163130.07,166680.14,8,400,14,,ISIC_8748070.JPG
break,html.Screen,4_13_1,2023-09-08T18:47:16.439Z,,0,,,NaN,,,,,,false,,,,166674.40000000596,166674.20000001788,,166673.90000000596,,166680.14,8,400,,,
break_continue,html.Screen,4_13_2,2023-09-08T18:47:16.439Z,,0,,,NaN,,,,,,false,,,,166674.60000002384,166674.5,,166674.40000000596,,166680.14,8,400,,,
sequence,flow.Sequence,4_13,2023-09-08T18:47:16.439Z,,0,,,3544.429999999993,completion,,,,,false,,,,166674.70000001788,166674.5,163113.314,163119.40000000596,163130.07,166680.14,8,400,,,
trial,html.Screen,4_14_0,2023-09-08T18:47:20.425Z,,0,1,,3980.2600000059465,response,ISIC_4344870.JPG,5,ISIC_0063650.JPG,ISIC_0063650.JPG,false,0,keypress(z),500,170660.60000002384,170660.40000000596,166663.554,166674.80000001192,166680.14,170663.6,8,400,15,,ISIC_4344870.JPG
break,html.Screen,4_14_1,2023-09-08T18:47:20.426Z,,0,,,NaN,,,,,,false,,,,170661.10000002384,170661,,170660.70000001788,,170663.6,8,400,,,
break_continue,html.Screen,4_14_2,2023-09-08T18:47:20.426Z,,0,,,NaN,,,,,,false,,,,170661.5,170661.40000000596,,170661.30000001192,,170663.6,8,400,,,
sequence,flow.Sequence,4_14,2023-09-08T18:47:20.426Z,,0,,,3981.2600000059465,completion,,,,,false,,,,170661.60000002384,170661.40000000596,166663.554,166674.70000001788,166680.14,170663.6,8,400,,,
trial,html.Screen,4_15_0,2023-09-08T18:47:25.867Z,,0,1,,5438.800000005955,response,ISIC_1110583.JPG,6,ISIC_0064072.JPG,ISIC_0064072.JPG,false,0,keypress(z),500,176102.60000002384,176102.40000000596,170646.888,170661.60000002384,170663.6,176113.76,8,400,16,,ISIC_1110583.JPG
break,html.Screen,4_15_1,2023-09-08T18:47:25.868Z,,0,,,NaN,,,,,,false,,,,176103.20000001788,176103.10000002384,,176102.70000001788,,176113.76,8,400,,,
break_continue,html.Screen,4_15_2,2023-09-08T18:47:25.868Z,,0,,,NaN,,,,,,false,,,,176103.5,176103.5,,176103.30000001192,,176113.76,8,400,,,
sequence,flow.Sequence,4_15,2023-09-08T18:47:25.868Z,,0,,,5439.899999999994,completion,,,,,false,,,,176103.5,176103.5,170646.888,170661.60000002384,170663.6,176113.76,8,400,,,
trial,html.Screen,4_16_0,2023-09-08T18:47:28.782Z,,0,1,,2903.5400000119116,response,ISIC_0027149.JPG,5,ISIC_7746898.JPG,ISIC_0027149.JPG,false,1,keypress(m),500,179017.60000002384,179017.30000001192,176097.077,176103.60000002384,176113.76,179030.765,8,400,17,,ISIC_7746898.JPG
break,html.Screen,4_16_1,2023-09-08T18:47:28.783Z,,0,,,NaN,,,,,,false,,,,179018.10000002384,179018,,179017.70000001788,,179030.765,8,400,,,
break_continue,html.Screen,4_16_2,2023-09-08T18:47:28.783Z,,0,,,NaN,,,,,,false,,,,179018.30000001192,179018.30000001192,,179018.10000002384,,179030.765,8,400,,,
sequence,flow.Sequence,4_16,2023-09-08T18:47:28.783Z,,0,,,2904.5400000119116,completion,,,,,false,,,,179018.5,179018.30000001192,176097.077,176103.60000002384,176113.76,179030.765,8,400,,,
trial,html.Screen,4_17_0,2023-09-08T18:47:31.697Z,,0,1,,2901.234999999986,response,ISIC_0032820.JPG,6,ISIC_2027392.JPG,ISIC_0032820.JPG,false,1,keypress(m),500,181932.10000002384,181932,179014.024,179018.60000002384,179030.765,181947.365,8,400,18,,ISIC_2027392.JPG
break,html.Screen,4_17_1,2023-09-08T18:47:31.697Z,,0,,,NaN,,,,,,false,,,,181932.70000001788,181932.60000002384,,181932.20000001788,,181947.365,8,400,,,
break_continue,html.Screen,4_17_2,2023-09-08T18:47:31.697Z,,0,,,NaN,,,,,,false,,,,181932.90000000596,181932.80000001192,,181932.70000001788,,181947.365,8,400,,,
sequence,flow.Sequence,4_17,2023-09-08T18:47:31.697Z,,0,,,2902.035000011907,completion,,,,,false,,,,181933,181932.80000001192,179014.024,179018.5,179030.765,181947.365,8,400,,,
trial,html.Screen,4_18_0,2023-09-08T18:47:36.723Z,,0,1,,5011.43500001193,response,ISIC_6384927.JPG,5,ISIC_2238901.JPG,ISIC_2238901.JPG,false,0,keypress(z),500,186959,186958.80000001192,181930.757,181933.10000002384,181947.365,186964.264,8,400,19,,ISIC_6384927.JPG
break,html.Screen,4_18_1,2023-09-08T18:47:36.724Z,,0,,,NaN,,,,,,false,,,,186959.60000002384,186959.40000000596,,186959.10000002384,,186964.264,8,400,,,
break_continue,html.Screen,4_18_2,2023-09-08T18:47:36.724Z,,0,,,NaN,,,,,,false,,,,186959.90000000596,186959.70000001788,,186959.70000001788,,186964.264,8,400,,,
sequence,flow.Sequence,4_18,2023-09-08T18:47:36.724Z,,0,,,5012.335000017891,completion,,,,,false,,,,186960,186959.70000001788,181930.757,181933.10000002384,181947.365,186964.264,8,400,,,
trial,html.Screen,4_19_0,2023-09-08T18:47:39.719Z,,0,1,,2989.7360000000044,response,ISIC_8570555.JPG,5,ISIC_0071693.JPG,ISIC_0071693.JPG,false,0,keypress(z),500,189954.20000001788,189954,186947.401,186960,186964.264,189964.389,8,400,20,,ISIC_8570555.JPG
break,html.Screen,4_19_1,2023-09-08T18:47:39.719Z,,0,,,NaN,,,,,,false,,,,189954.70000001788,189954.70000001788,,189954.30000001192,,189964.389,8,400,,,
break_continue,html.Screen,4_19_2,2023-09-08T18:47:39.720Z,,0,,,NaN,,,,,,false,,,,189955.10000002384,189955,,189954.90000000596,,189964.389,8,400,,,
sequence,flow.Sequence,4_19,2023-09-08T18:47:39.720Z,,0,,,2990.7360000000044,completion,,,,,false,,,,189955.30000001192,189955,186947.401,186960,186964.264,189964.389,8,400,,,
trial,html.Screen,4_20_0,2023-09-08T18:47:42.969Z,,0,1,,3240.2110000238463,response,ISIC_5092834.JPG,6,ISIC_0065192.JPG,ISIC_0065192.JPG,false,0,keypress(z),500,193204.90000000596,193204.60000002384,189947.654,189955.30000001192,189964.389,193214.555,8,400,21,,ISIC_5092834.JPG
break,html.Screen,4_20_1,2023-09-08T18:47:42.970Z,,0,,,NaN,,,,,,false,,,,193205.40000000596,193205.30000001192,,193204.90000000596,,193214.555,8,400,,,
break_continue,html.Screen,4_20_2,2023-09-08T18:47:42.970Z,,0,,,NaN,,,,,,false,,,,193205.70000001788,193205.60000002384,,193205.5,,193214.555,8,400,,,
sequence,flow.Sequence,4_20,2023-09-08T18:47:42.970Z,,0,,,3241.2110000238463,completion,,,,,false,,,,193205.80000001192,193205.60000002384,189947.654,189955.30000001192,189964.389,193214.555,8,400,,,
trial,html.Screen,4_21_0,2023-09-08T18:47:45.917Z,,0,1,,2937.545000023849,response,ISIC_0009721.JPG,5,ISIC_9486313.JPG,ISIC_9486313.JPG,false,0,keypress(z),500,196152.20000001788,196152.10000002384,193197.786,193205.90000000596,193214.555,196164.666,8,400,22,,ISIC_0009721.JPG
break,html.Screen,4_21_1,2023-09-08T18:47:45.917Z,,0,,,NaN,,,,,,false,,,,196152.80000001192,196152.70000001788,,196152.30000001192,,196164.666,8,400,,,
break_continue,html.Screen,4_21_2,2023-09-08T18:47:45.918Z,,0,,,NaN,,,,,,false,,,,196153.10000002384,196153.10000002384,,196152.80000001192,,196164.666,8,400,,,
sequence,flow.Sequence,4_21,2023-09-08T18:47:45.918Z,,0,,,2938.545000023849,completion,,,,,false,,,,196153.30000001192,196153.10000002384,193197.786,193205.90000000596,193214.555,196164.666,8,400,,,
trial,html.Screen,4_22_0,2023-09-08T18:47:50.752Z,,0,1,,4823.234000005963,response,ISIC_0025215.JPG,5,ISIC_0025814.JPG,ISIC_0025814.JPG,false,0,keypress(z),500,200988.10000002384,200987.90000000596,196147.974,196154.20000001788,196164.666,200998.113,8,400,23,,ISIC_0025215.JPG
break,html.Screen,4_22_1,2023-09-08T18:47:50.753Z,,0,,,NaN,,,,,,false,,,,200988.60000002384,200988.5,,200988.10000002384,,200998.113,8,400,,,
break_continue,html.Screen,4_22_2,2023-09-08T18:47:50.753Z,,0,,,NaN,,,,,,false,,,,200988.90000000596,200988.80000001192,,200988.60000002384,,200998.113,8,400,,,
sequence,flow.Sequence,4_22,2023-09-08T18:47:50.753Z,,0,,,4824.1340000119235,completion,,,,,false,,,,200989,200988.80000001192,196147.974,196154.20000001788,196164.666,200998.113,8,400,,,
trial,html.Screen,4_23_0,2023-09-08T18:47:55.523Z,,0,1,,4759.98700002383,response,ISIC_7190243.JPG,4,ISIC_1532403.JPG,ISIC_1532403.JPG,false,0,keypress(z),500,205758.30000001192,205758.10000002384,200981.322,200989,200998.113,205764.738,8,400,24,,ISIC_7190243.JPG
break,html.Screen,4_23_1,2023-09-08T18:47:55.523Z,,0,,,NaN,,,,,,false,,,,205758.90000000596,205758.80000001192,,205758.40000000596,,205764.738,8,400,,,
break_continue,html.Screen,4_23_2,2023-09-08T18:47:55.524Z,,0,,,NaN,,,,,,false,,,,205759.10000002384,205759.10000002384,,205759,,205764.738,8,400,,,
sequence,flow.Sequence,4_23,2023-09-08T18:47:55.524Z,,0,,,4760.98700002383,completion,,,,,false,,,,205759.20000001788,205759.10000002384,200981.322,200989,200998.113,205764.738,8,400,,,
trial,html.Screen,4_24_0,2023-09-08T18:47:58.869Z,,0,1,,3339.8620000238298,response,ISIC_2864893.JPG,5,ISIC_0013678.JPG,ISIC_0013678.JPG,false,0,keypress(z),500,209104.70000001788,209104.60000002384,205748.019,205759.30000001192,205764.738,209114.821,8,400,25,,ISIC_2864893.JPG
break,html.Screen,4_24_1,2023-09-08T18:47:58.870Z,,0,,,NaN,,,,,,false,,,,209105.20000001788,209105.10000002384,,209104.80000001192,,209114.821,8,400,,,
break_continue,html.Screen,4_24_2,2023-09-08T18:47:58.870Z,,0,,,NaN,,,,,,false,,,,209105.5,209105.5,,209105.30000001192,,209114.821,8,400,,,
sequence,flow.Sequence,4_24,2023-09-08T18:47:58.870Z,,0,,,3340.761999999988,completion,,,,,false,,,,209105.60000002384,209105.5,205748.019,205759.30000001192,205764.738,209114.821,8,400,,,
trial,html.Screen,4_25_0,2023-09-08T18:48:04.567Z,,0,1,,5687.779000023846,response,ISIC_0033261.JPG,5,ISIC_0011512.JPG,ISIC_0033261.JPG,false,1,keypress(m),500,214802.70000001788,214802.60000002384,209098.264,209105.70000001788,209114.821,214815.004,8,400,26,,ISIC_0011512.JPG
break,html.Screen,4_25_1,2023-09-08T18:48:04.568Z,,0,,,NaN,,,,,,false,,,,214803.30000001192,214803.20000001788,,214802.90000000596,,214815.004,8,400,,,
break_continue,html.Screen,4_25_2,2023-09-08T18:48:04.568Z,,0,,,NaN,,,,,,false,,,,214803.60000002384,214803.5,,214803.40000000596,,214815.004,8,400,,,
sequence,flow.Sequence,4_25,2023-09-08T18:48:04.568Z,,0,,,5688.679000000004,completion,,,,,false,,,,214803.70000001788,214803.5,209098.264,209105.70000001788,209114.821,214815.004,8,400,,,
trial,html.Screen,4_26_0,2023-09-08T18:48:08.299Z,,0,1,,3719.696000017895,response,ISIC_3878174.JPG,5,ISIC_5703909.JPG,ISIC_5703909.JPG,false,0,keypress(z),500,218534.80000001192,218534.70000001788,214798.426,214803.80000001192,214815.004,218548.639,8,400,27,,ISIC_3878174.JPG
break,html.Screen,4_26_1,2023-09-08T18:48:08.300Z,,0,,,NaN,,,,,,false,,,,218535.40000000596,218535.30000001192,,218535,,218548.639,8,400,,,
break_continue,html.Screen,4_26_2,2023-09-08T18:48:08.300Z,,0,,,NaN,,,,,,false,,,,218535.60000002384,218535.5,,218535.40000000596,,218548.639,8,400,,,
sequence,flow.Sequence,4_26,2023-09-08T18:48:08.300Z,,0,,,3720.4960000000137,completion,,,,,false,,,,218535.70000001788,218535.5,214798.426,214803.70000001788,214815.004,218548.639,8,400,,,
trial,html.Screen,4_27_0,2023-09-08T18:48:11.086Z,,0,1,,2772.761000005965,response,ISIC_0069274.JPG,4,ISIC_2307760.JPG,ISIC_0069274.JPG,false,1,keypress(m),500,221321.5,221321.40000000596,218531.932,218535.80000001192,218548.639,221332.071,8,400,28,,ISIC_2307760.JPG
break,html.Screen,4_27_1,2023-09-08T18:48:11.086Z,,0,,,NaN,,,,,,false,,,,221322.10000002384,221322,,221321.70000001788,,221332.071,8,400,,,
break_continue,html.Screen,4_27_2,2023-09-08T18:48:11.087Z,,0,,,NaN,,,,,,false,,,,221322.40000000596,221322.30000001192,,221322.20000001788,,221332.071,8,400,,,
sequence,flow.Sequence,4_27,2023-09-08T18:48:11.087Z,,0,,,2773.6610000119254,completion,,,,,false,,,,221322.40000000596,221322.30000001192,218531.932,218535.80000001192,218548.639,221332.071,8,400,,,
trial,html.Screen,4_28_0,2023-09-08T18:48:15.793Z,,0,1,,4696.529000023846,response,ISIC_0000462.JPG,5,ISIC_6037869.JPG,ISIC_0000462.JPG,false,1,keypress(m),500,226028.70000001788,226028.60000002384,221315.176,221322.5,221332.071,226032.094,8,400,29,,ISIC_6037869.JPG
break,html.Screen,4_28_1,2023-09-08T18:48:15.794Z,,0,,,NaN,,,,,,false,,,,226029.30000001192,226029.20000001788,,226028.90000000596,,226032.094,8,400,,,
break_continue,html.Screen,4_28_2,2023-09-08T18:48:15.794Z,,0,,,NaN,,,,,,false,,,,226029.5,226029.5,,226029.40000000596,,226032.094,8,400,,,
sequence,flow.Sequence,4_28,2023-09-08T18:48:15.794Z,,0,,,4697.429000000004,completion,,,,,false,,,,226029.60000002384,226029.5,221315.176,221322.5,221332.071,226032.094,8,400,,,
trial,html.Screen,4_29_0,2023-09-08T18:48:18.563Z,,0,1,,2766.405999999988,response,ISIC_2153301.JPG,4,ISIC_0059768.JPG,ISIC_0059768.JPG,false,0,keypress(z),500,228798.70000001788,228798.5,226015.336,226029.70000001788,226032.094,228815.622,8,400,30,,ISIC_2153301.JPG
break,html.Screen,4_29_1,2023-09-08T18:48:18.564Z,,0,,,NaN,,,,,,false,,,,228799.20000001788,228799.20000001788,,228798.80000001192,,228815.622,8,400,,,
break_continue,html.Screen,4_29_2,2023-09-08T18:48:18.564Z,,0,,,NaN,,,,,,false,,,,228799.5,228799.5,,228799.30000001192,,228815.622,8,400,,,
sequence,flow.Sequence,4_29,2023-09-08T18:48:18.564Z,,0,,,2767.405999999988,completion,,,,,false,,,,228799.60000002384,228799.5,226015.336,226029.70000001788,226032.094,228815.622,8,400,,,
trial,html.Screen,4_30_0,2023-09-08T18:48:22.422Z,,0,1,,3841.877999999997,response,ISIC_0239949.JPG,6,ISIC_8751106.JPG,ISIC_8751106.JPG,false,0,keypress(z),500,232657.60000002384,232657.5,228798.914,228799.70000001788,228815.622,232665.612,8,400,31,,ISIC_0239949.JPG
break,html.Screen,4_30_1,2023-09-08T18:48:22.423Z,,0,,,NaN,,,,,,false,,,,232658.20000001788,232658.10000002384,,232657.70000001788,,232665.612,8,400,,,
break_continue,html.Screen,4_30_2,2023-09-08T18:48:22.423Z,,0,,,NaN,,,,,,false,,,,232658.5,232658.40000000596,,232658.30000001192,,232665.612,8,400,,,
sequence,flow.Sequence,4_30,2023-09-08T18:48:22.423Z,,0,,,3842.7780000059574,completion,,,,,false,,,,232658.60000002384,232658.40000000596,228798.914,228799.70000001788,228815.622,232665.612,8,400,,,
trial,html.Screen,4_31_0,2023-09-08T18:48:25.289Z,,0,1,,2858.988000023848,response,ISIC_0060355.JPG,5,ISIC_9667297.JPG,ISIC_0060355.JPG,false,1,keypress(m),500,235524.70000001788,235524.60000002384,232649.078,232658.70000001788,232665.612,235532.577,8,400,32,,ISIC_9667297.JPG
break,html.Screen,4_31_1,2023-09-08T18:48:25.290Z,,0,,,NaN,,,,,,false,,,,235525.30000001192,235525.20000001788,,235524.80000001192,,235532.577,8,400,,,
break_continue,html.Screen,4_31_2,2023-09-08T18:48:25.290Z,,0,,,NaN,,,,,,false,,,,235525.60000002384,235525.5,,235525.40000000596,,235532.577,8,400,,,
sequence,flow.Sequence,4_31,2023-09-08T18:48:25.290Z,,0,,,2859.8880000000063,completion,,,,,false,,,,235525.60000002384,235525.5,232649.078,232658.60000002384,232665.612,235532.577,8,400,,,
trial,html.Screen,4_32_0,2023-09-08T18:48:28.252Z,,0,1,,2954.92300000001,response,ISIC_2748736.JPG,5,ISIC_0218072.JPG,ISIC_0218072.JPG,false,0,keypress(z),500,238487.60000002384,238487.5,235515.679,235525.80000001192,235532.577,238499.341,8,400,33,,ISIC_2748736.JPG
break,html.Screen,4_32_1,2023-09-08T18:48:28.253Z,,0,,,NaN,,,,,,false,,,,238488.20000001788,238488.10000002384,,238487.70000001788,,238499.341,8,400,,,
break_continue,html.Screen,4_32_2,2023-09-08T18:48:28.253Z,,0,,,NaN,,,,,,false,,,,238488.5,238488.40000000596,,238488.20000001788,,238499.341,8,400,,,
sequence,flow.Sequence,4_32,2023-09-08T18:48:28.253Z,,0,,,2955.8230000059702,completion,,,,,false,,,,238488.5,238488.40000000596,235515.679,235525.70000001788,235532.577,238499.341,8,400,,,
trial,html.Screen,4_33_0,2023-09-08T18:48:32.094Z,,0,1,,3830.5590000059747,response,ISIC_0032812.JPG,5,ISIC_9106966.JPG,ISIC_0032812.JPG,false,1,keypress(m),500,242330.10000002384,242329.90000000596,238482.559,238488.60000002384,238499.341,242332.669,8,400,34,,ISIC_9106966.JPG
break,html.Screen,4_33_1,2023-09-08T18:48:32.095Z,,0,,,NaN,,,,,,false,,,,242330.70000001788,242330.60000002384,,242330.20000001788,,242332.669,8,400,,,
break_continue,html.Screen,4_33_2,2023-09-08T18:48:32.095Z,,0,,,NaN,,,,,,false,,,,242330.90000000596,242330.80000001192,,242330.80000001192,,242332.669,8,400,,,
sequence,flow.Sequence,4_33,2023-09-08T18:48:32.095Z,,0,,,3831.459000011935,completion,,,,,false,,,,242331,242330.80000001192,238482.559,238488.60000002384,238499.341,242332.669,8,400,,,
trial,html.Screen,4_34_0,2023-09-08T18:48:35.201Z,,0,1,,3103.9310000238474,response,ISIC_0024683.JPG,5,ISIC_0055781.JPG,ISIC_0055781.JPG,false,0,keypress(z),500,245436.80000001192,245436.60000002384,242315.975,242331.20000001788,242332.669,245465.997,8,400,35,,ISIC_0024683.JPG
break,html.Screen,4_34_1,2023-09-08T18:48:35.202Z,,0,,,NaN,,,,,,false,,,,245437.40000000596,245437.20000001788,,245436.90000000596,,245465.997,8,400,,,
break_continue,html.Screen,4_34_2,2023-09-08T18:48:35.202Z,,0,,,NaN,,,,,,false,,,,245437.60000002384,245437.5,,245437.40000000596,,245465.997,8,400,,,
sequence,flow.Sequence,4_34,2023-09-08T18:48:35.202Z,,0,,,3104.8310000000056,completion,,,,,false,,,,245437.60000002384,245437.5,242315.975,242331.10000002384,242332.669,245465.997,8,400,,,
trial,html.Screen,4_35_0,2023-09-08T18:48:38.212Z,,0,1,,2981.2030000178784,response,ISIC_5909451.JPG,5,ISIC_7236842.JPG,ISIC_5909451.JPG,false,1,keypress(m),500,248447.30000001192,248447.20000001788,245449.503,245437.70000001788,245465.997,248466.106,8,400,36,,ISIC_7236842.JPG
break,html.Screen,4_35_1,2023-09-08T18:48:38.212Z,,0,,,NaN,,,,,,false,,,,248447.80000001192,248447.80000001192,,248447.40000000596,,248466.106,8,400,,,
break_continue,html.Screen,4_35_2,2023-09-08T18:48:38.212Z,,0,,,NaN,,,,,,false,,,,248448,248448,,248447.80000001192,,248466.106,8,400,,,
sequence,flow.Sequence,4_35,2023-09-08T18:48:38.212Z,,0,,,2982.002999999997,completion,,,,,false,,,,248448.10000002384,248448,245449.503,245437.70000001788,245465.997,248466.106,8,400,,,
trial,html.Screen,4_36_0,2023-09-08T18:48:41.830Z,,0,1,,3599.5940000178816,response,ISIC_1332766.JPG,5,ISIC_7300631.JPG,ISIC_1332766.JPG,false,1,keypress(m),500,252065.90000000596,252065.70000001788,248449.555,248448.20000001788,248466.106,252083.004,8,400,37,,ISIC_7300631.JPG
break,html.Screen,4_36_1,2023-09-08T18:48:41.831Z,,0,,,NaN,,,,,,false,,,,252066.40000000596,252066.30000001192,,252066,,252083.004,8,400,,,
break_continue,html.Screen,4_36_2,2023-09-08T18:48:41.831Z,,0,,,NaN,,,,,,false,,,,252066.60000002384,252066.60000002384,,252066.5,,252083.004,8,400,,,
sequence,flow.Sequence,4_36,2023-09-08T18:48:41.831Z,,0,,,3600.494000023842,completion,,,,,false,,,,252066.70000001788,252066.60000002384,248449.555,248448.20000001788,248466.106,252083.004,8,400,,,
trial,html.Screen,4_37_0,2023-09-08T18:48:46.441Z,,0,1,,4593.696000017895,response,ISIC_1793624.JPG,5,ISIC_7161002.JPG,ISIC_7161002.JPG,false,0,keypress(z),500,256676.80000001192,256676.70000001788,252066.21,252066.80000001192,252083.004,256683.029,8,400,38,,ISIC_1793624.JPG
break,html.Screen,4_37_1,2023-09-08T18:48:46.442Z,,0,,,NaN,,,,,,false,,,,256677.40000000596,256677.30000001192,,256676.90000000596,,256683.029,8,400,,,
break_continue,html.Screen,4_37_2,2023-09-08T18:48:46.442Z,,0,,,NaN,,,,,,false,,,,256677.60000002384,256677.60000002384,,256677.40000000596,,256683.029,8,400,,,
sequence,flow.Sequence,4_37,2023-09-08T18:48:46.442Z,,0,,,4594.596000023856,completion,,,,,false,,,,256677.70000001788,256677.60000002384,252066.21,252066.80000001192,252083.004,256683.029,8,400,,,
trial,html.Screen,4_38_0,2023-09-08T18:48:49.788Z,,0,1,,3339.9709999999905,response,ISIC_0063601.JPG,4,ISIC_0000078.JPG,ISIC_0063601.JPG,false,1,keypress(m),500,260023.20000001788,260023,256666.442,256677.80000001192,256683.029,260033.196,8,400,39,,ISIC_0000078.JPG
break,html.Screen,4_38_1,2023-09-08T18:48:49.788Z,,0,,,NaN,,,,,,false,,,,260023.70000001788,260023.60000002384,,260023.20000001788,,260033.196,8,400,,,
break_continue,html.Screen,4_38_2,2023-09-08T18:48:49.788Z,,0,,,NaN,,,,,,false,,,,260024,260024,,260023.80000001192,,260033.196,8,400,,,
sequence,flow.Sequence,4_38,2023-09-08T18:48:49.789Z,,0,,,3340.9709999999905,completion,,,,,false,,,,260025,260024,256666.442,256677.80000001192,256683.029,260033.196,8,400,,,
trial,html.Screen,4_39_0,2023-09-08T18:48:55.295Z,,0,1,,5497.504000017885,response,ISIC_0071568.JPG,4,ISIC_0011793.JPG,ISIC_0071568.JPG,false,1,keypress(m),500,265530.90000000596,265530.7000000179,260016.62,260025.10000002384,260033.196,265533.347,8,400,40,,ISIC_0011793.JPG
break,html.Screen,4_39_1,2023-09-08T18:48:55.296Z,,0,,,NaN,,,,,,false,,,,265531.40000000596,265531.40000000596,,265531,,265533.347,8,400,,,
break_continue,html.Screen,4_39_2,2023-09-08T18:48:55.296Z,,0,,,NaN,,,,,,false,,,,265531.8000000119,265531.7000000179,,265531.60000002384,,265533.347,8,400,,,
sequence,flow.Sequence,4_39,2023-09-08T18:48:55.296Z,,0,,,5498.504000017885,completion,,,,,false,,,,265531.90000000596,265531.7000000179,260016.62,260025,260033.196,265533.347,8,400,,,
trial,html.Screen,4_40_0,2023-09-08T18:49:00.339Z,,0,1,,5041.152999999991,response,ISIC_6966001.JPG,5,ISIC_0046977.JPG,ISIC_0046977.JPG,false,0,keypress(z),500,270574.60000002384,270574.5,265516.712,265532,265533.347,270583.49,8,400,41,,ISIC_6966001.JPG
break,html.Screen,4_40_1,2023-09-08T18:49:00.340Z,,0,,,NaN,,,,,,false,,,,270575.2000000179,270575.2000000179,,270574.8000000119,,270583.49,8,400,,,
break_continue,html.Screen,4_40_2,2023-09-08T18:49:00.340Z,,0,,,NaN,,,,,,false,,,,270575.40000000596,270575.40000000596,,270575.3000000119,,270583.49,8,400,,,
sequence,flow.Sequence,4_40,2023-09-08T18:49:00.340Z,,0,,,5042.053000005952,completion,,,,,false,,,,270575.5,270575.40000000596,265516.712,265532,265533.347,270583.49,8,400,,,
trial,html.Screen,4_41_0,2023-09-08T18:49:03.126Z,,0,1,,2777.5100000000093,response,ISIC_0053816.JPG,5,ISIC_0014469.JPG,ISIC_0053816.JPG,false,1,keypress(m),500,273361.2000000179,273361,270566.989,270575.7000000179,270583.49,273367.045,8,400,42,,ISIC_0014469.JPG
break,html.Screen,4_41_1,2023-09-08T18:49:03.126Z,,0,,,NaN,,,,,,false,,,,273361.8000000119,273361.7000000179,,273361.3000000119,,273367.045,8,400,,,
break_continue,html.Screen,4_41_2,2023-09-08T18:49:03.126Z,,0,,,NaN,,,,,,false,,,,273362.10000002384,273362,,273361.90000000596,,273367.045,8,400,,,
sequence,flow.Sequence,4_41,2023-09-08T18:49:03.127Z,,0,,,2778.5100000000093,completion,,,,,false,,,,273362.2000000179,273362,270566.989,270575.7000000179,270583.49,273367.045,8,400,,,
trial,html.Screen,4_42_0,2023-09-08T18:49:06.089Z,,0,1,,2957.055000023858,response,ISIC_0032687.JPG,5,ISIC_5508076.JPG,ISIC_0032687.JPG,false,1,keypress(m),500,276324.3000000119,276324.10000002384,273350.342,273362.3000000119,273367.045,276333.859,8,400,43,,ISIC_5508076.JPG
break,html.Screen,4_42_1,2023-09-08T18:49:06.089Z,,0,,,NaN,,,,,,false,,,,276324.8000000119,276324.7000000179,,276324.3000000119,,276333.859,8,400,,,
break_continue,html.Screen,4_42_2,2023-09-08T18:49:06.089Z,,0,,,NaN,,,,,,false,,,,276325.10000002384,276325.10000002384,,276324.90000000596,,276333.859,8,400,,,
sequence,flow.Sequence,4_42,2023-09-08T18:49:06.090Z,,0,,,2958.055000023858,completion,,,,,false,,,,276325.10000002384,276325.10000002384,273350.342,273362.3000000119,273367.045,276333.859,8,400,,,
trial,html.Screen,4_43_0,2023-09-08T18:49:09.355Z,,0,1,,3256.441000011924,response,ISIC_4377208.JPG,5,ISIC_0057032.JPG,ISIC_0057032.JPG,false,0,keypress(z),500,279590.5,279590.3000000119,276317.096,276325.2000000179,276333.859,279600.657,8,400,44,,ISIC_4377208.JPG
break,html.Screen,4_43_1,2023-09-08T18:49:09.355Z,,0,,,NaN,,,,,,false,,,,279591.10000002384,279590.90000000596,,279590.60000002384,,279600.657,8,400,,,
break_continue,html.Screen,4_43_2,2023-09-08T18:49:09.356Z,,0,,,NaN,,,,,,false,,,,279591.2000000179,279591.2000000179,,279591.10000002384,,279600.657,8,400,,,
sequence,flow.Sequence,4_43,2023-09-08T18:49:09.356Z,,0,,,3257.3410000178847,completion,,,,,false,,,,279591.40000000596,279591.2000000179,276317.096,276325.2000000179,276333.859,279600.657,8,400,,,
trial,html.Screen,4_44_0,2023-09-08T18:49:13.853Z,,0,1,,4487.943000023835,response,ISIC_0057188.JPG,6,ISIC_0070940.JPG,ISIC_0070940.JPG,false,0,keypress(z),500,284088.8000000119,284088.60000002384,279583.891,279591.5,279600.657,284100.774,8,400,45,,ISIC_0057188.JPG
break,html.Screen,4_44_1,2023-09-08T18:49:13.854Z,,0,,,NaN,,,,,,false,,,,284089.40000000596,284089.3000000119,,284088.90000000596,,284100.774,8,400,,,
break_continue,html.Screen,4_44_2,2023-09-08T18:49:13.854Z,,0,,,NaN,,,,,,false,,,,284089.60000002384,284089.5,,284089.40000000596,,284100.774,8,400,,,
sequence,flow.Sequence,4_44,2023-09-08T18:49:13.854Z,,0,,,4488.8429999999935,completion,,,,,false,,,,284089.7000000179,284089.5,279583.891,279591.5,279600.657,284100.774,8,400,,,
trial,html.Screen,4_45_0,2023-09-08T18:49:16.864Z,,0,1,,2999.1260000059847,response,ISIC_0058033.JPG,5,ISIC_2238901.JPG,ISIC_0058033.JPG,false,1,keypress(m),500,287100,287099.90000000596,284084.011,284089.8000000119,284100.774,287117.476,8,400,46,,ISIC_2238901.JPG
break,html.Screen,4_45_1,2023-09-08T18:49:16.865Z,,0,,,NaN,,,,,,false,,,,287100.5,287100.5,,287100,,287117.476,8,400,,,
break_continue,html.Screen,4_45_2,2023-09-08T18:49:16.865Z,,0,,,NaN,,,,,,false,,,,287100.8000000119,287100.7000000179,,287100.60000002384,,287117.476,8,400,,,
sequence,flow.Sequence,4_45,2023-09-08T18:49:16.865Z,,0,,,2999.9260000179056,completion,,,,,false,,,,287100.90000000596,287100.7000000179,284084.011,284089.8000000119,284100.774,287117.476,8,400,,,
trial,html.Screen,4_46_0,2023-09-08T18:49:20.131Z,,0,1,,3249.1240000238176,response,ISIC_1870309.JPG,4,ISIC_6691962.JPG,ISIC_6691962.JPG,false,0,keypress(z),500,290366.7000000179,290366.60000002384,287084.135,287101,287117.476,290384.44,8,400,47,,ISIC_1870309.JPG
break,html.Screen,4_46_1,2023-09-08T18:49:20.132Z,,0,,,NaN,,,,,,false,,,,290367.3000000119,290367.2000000179,,290366.90000000596,,290384.44,8,400,,,
break_continue,html.Screen,4_46_2,2023-09-08T18:49:20.132Z,,0,,,NaN,,,,,,false,,,,290367.5,290367.5,,290367.3000000119,,290384.44,8,400,,,
sequence,flow.Sequence,4_46,2023-09-08T18:49:20.132Z,,0,,,3250.023999999976,completion,,,,,false,,,,290367.60000002384,290367.5,287084.135,287100.90000000596,287117.476,290384.44,8,400,,,
trial,html.Screen,4_47_0,2023-09-08T18:49:23.734Z,,0,1,,3584.960000005958,response,ISIC_0032531.JPG,5,ISIC_4646815.JPG,ISIC_0032531.JPG,false,1,keypress(m),500,293969.60000002384,293969.40000000596,290350.905,290367.60000002384,290384.44,294001.016,8,400,48,,ISIC_4646815.JPG
break,html.Screen,4_47_1,2023-09-08T18:49:23.734Z,,0,,,NaN,,,,,,false,,,,293970.10000002384,293970,,293969.7000000179,,294001.016,8,400,,,
break_continue,html.Screen,4_47_2,2023-09-08T18:49:23.735Z,,0,,,NaN,,,,,,false,,,,293970.3000000119,293970.3000000119,,293970.10000002384,,294001.016,8,400,,,
sequence,flow.Sequence,4_47,2023-09-08T18:49:23.735Z,,0,,,3585.8600000119186,completion,,,,,false,,,,293970.40000000596,293970.3000000119,290350.905,290367.60000002384,290384.44,294001.016,8,400,,,
trial,html.Screen,4_48_0,2023-09-08T18:49:27.641Z,,0,1,,3875.4839999999967,response,ISIC_9462979.JPG,5,ISIC_0069595.JPG,ISIC_0069595.JPG,false,0,keypress(z),500,297876.7000000179,297876.5,293984.358,293970.5,294001.016,297884.346,8,400,49,,ISIC_9462979.JPG
break,html.Screen,4_48_1,2023-09-08T18:49:27.642Z,,0,,,NaN,,,,,,false,,,,297877.2000000179,297877.10000002384,,297876.8000000119,,297884.346,8,400,,,
break_continue,html.Screen,4_48_2,2023-09-08T18:49:27.642Z,,0,,,NaN,,,,,,false,,,,297877.40000000596,297877.40000000596,,297877.3000000119,,297884.346,8,400,,,
sequence,flow.Sequence,4_48,2023-09-08T18:49:27.642Z,,0,,,3876.384000005957,completion,,,,,false,,,,297877.5,297877.40000000596,293984.358,293970.40000000596,294001.016,297884.346,8,400,,,
trial,html.Screen,4_49_0,2023-09-08T18:49:31.323Z,,0,1,,3674.554000005941,response,ISIC_8885809.JPG,6,ISIC_6507792.JPG,ISIC_6507792.JPG,false,0,keypress(z),500,301559,301558.90000000596,297867.812,297877.60000002384,297884.346,301567.775,8,400,50,,ISIC_8885809.JPG
break,html.Screen,4_49_1,2023-09-08T18:49:41.317Z,,0,,,10000.538,timeout,,,,,false,,,,311552.10000002384,311551.608,301551.262,301559.10000002384,301567.775,311568.313,8,400,,,
break_continue,html.Screen,4_49_2,2023-09-08T18:49:42.378Z,,0,,,1038.787000023818,response,,,,,false,continue,keypress(Space),,312613.7000000179,312607.10000002384,311551.608,311552.2000000179,311568.313,312618.157,8,400,,,
sequence,flow.Sequence,4_49,2023-09-08T18:49:42.378Z,,0,,,14722.754000023822,completion,,,,,false,,,,312613.8000000119,312607.10000002384,297867.812,297877.60000002384,297884.346,312618.157,8,400,,,
trial,html.Screen,4_50_0,2023-09-08T18:49:45.436Z,,0,2,,3053.243000005954,response,ISIC_6250970.JPG,6,ISIC_0071040.JPG,ISIC_0071040.JPG,false,0,keypress(z),500,315671.7000000179,315671.40000000596,312601.546,312613.8000000119,312618.157,315685.213,8,400,1,,ISIC_6250970.JPG
break,html.Screen,4_50_1,2023-09-08T18:49:45.437Z,,0,,,NaN,,,,,,false,,,,315672.3000000119,315672.10000002384,,315671.8000000119,,315685.213,8,400,,,
break_continue,html.Screen,4_50_2,2023-09-08T18:49:45.437Z,,0,,,NaN,,,,,,false,,,,315672.5,315672.40000000596,,315672.3000000119,,315685.213,8,400,,,
sequence,flow.Sequence,4_50,2023-09-08T18:49:45.437Z,,0,,,3054.243000005954,completion,,,,,false,,,,315672.5,315672.40000000596,312601.546,312613.8000000119,312618.157,315685.213,8,400,,,
trial,html.Screen,4_51_0,2023-09-08T18:49:48.863Z,,0,2,,3412.887000023853,response,ISIC_8249854.JPG,4,ISIC_0010971.JPG,ISIC_0010971.JPG,false,0,keypress(z),500,319098.2000000179,319098.10000002384,315668.193,315672.60000002384,315685.213,319101.678,8,400,2,,ISIC_8249854.JPG
break,html.Screen,4_51_1,2023-09-08T18:49:48.863Z,,0,,,NaN,,,,,,false,,,,319098.8000000119,319098.7000000179,,319098.3000000119,,319101.678,8,400,,,
break_continue,html.Screen,4_51_2,2023-09-08T18:49:48.863Z,,0,,,NaN,,,,,,false,,,,319099,319098.90000000596,,319098.8000000119,,319101.678,8,400,,,
sequence,flow.Sequence,4_51,2023-09-08T18:49:48.864Z,,0,,,3413.6870000059716,completion,,,,,false,,,,319099.2000000179,319098.90000000596,315668.193,315672.60000002384,315685.213,319101.678,8,400,,,
trial,html.Screen,4_52_0,2023-09-08T18:49:52.033Z,,0,2,,3167.022000017867,response,ISIC_6561111.JPG,5,ISIC_0268701.JPG,ISIC_6561111.JPG,false,1,keypress(m),500,322268.8000000119,322268.7000000179,319085.089,319099.2000000179,319101.678,322285.285,8,400,3,,ISIC_0268701.JPG
break,html.Screen,4_52_1,2023-09-08T18:49:52.034Z,,0,,,NaN,,,,,,false,,,,322269.40000000596,322269.3000000119,,322269,,322285.285,8,400,,,
break_continue,html.Screen,4_52_2,2023-09-08T18:49:52.034Z,,0,,,NaN,,,,,,false,,,,322269.7000000179,322269.60000002384,,322269.40000000596,,322285.285,8,400,,,
sequence,flow.Sequence,4_52,2023-09-08T18:49:52.034Z,,0,,,3167.9220000238274,completion,,,,,false,,,,322269.8000000119,322269.60000002384,319085.089,319099.2000000179,319101.678,322285.285,8,400,,,
trial,html.Screen,4_53_0,2023-09-08T18:49:55.108Z,,0,2,,3058.115000005986,response,ISIC_0068677.JPG,5,ISIC_5568834.JPG,ISIC_0068677.JPG,false,1,keypress(m),500,325343.5,325343.40000000596,322268.581,322269.90000000596,322285.285,325352.01,8,400,4,,ISIC_5568834.JPG
break,html.Screen,4_53_1,2023-09-08T18:49:55.108Z,,0,,,NaN,,,,,,false,,,,325344.10000002384,325344,,325343.60000002384,,325352.01,8,400,,,
break_continue,html.Screen,4_53_2,2023-09-08T18:49:55.109Z,,0,,,NaN,,,,,,false,,,,325344.3000000119,325344.2000000179,,325344.2000000179,,325352.01,8,400,,,
sequence,flow.Sequence,4_53,2023-09-08T18:49:55.109Z,,0,,,3058.915000017907,completion,,,,,false,,,,325344.40000000596,325344.2000000179,322268.581,322269.90000000596,322285.285,325352.01,8,400,,,
trial,html.Screen,4_54_0,2023-09-08T18:49:58.870Z,,0,2,,3753.4899999999907,response,ISIC_0024427.JPG,4,ISIC_0029843.JPG,ISIC_0029843.JPG,false,0,keypress(z),500,329105.5,329105.5,325335.357,325344.5,325352.01,329118.836,8,400,5,,ISIC_0024427.JPG
break,html.Screen,4_54_1,2023-09-08T18:49:58.870Z,,0,,,NaN,,,,,,false,,,,329106.10000002384,329106,,329105.7000000179,,329118.836,8,400,,,
break_continue,html.Screen,4_54_2,2023-09-08T18:49:58.871Z,,0,,,NaN,,,,,,false,,,,329106.40000000596,329106.3000000119,,329106.10000002384,,329118.836,8,400,,,
sequence,flow.Sequence,4_54,2023-09-08T18:49:58.871Z,,0,,,3754.2900000119116,completion,,,,,false,,,,329106.40000000596,329106.3000000119,325335.357,325344.5,325352.01,329118.836,8,400,,,
trial,html.Screen,4_55_0,2023-09-08T18:50:02.105Z,,0,2,,3221.2640000238316,response,ISIC_0025877.JPG,5,ISIC_1847556.JPG,ISIC_1847556.JPG,false,0,keypress(z),500,332340.3000000119,332340.10000002384,329102.064,329106.5,329118.836,332352.229,8,400,6,,ISIC_0025877.JPG
break,html.Screen,4_55_1,2023-09-08T18:50:02.105Z,,0,,,NaN,,,,,,false,,,,332340.8000000119,332340.8000000119,,332340.40000000596,,332352.229,8,400,,,
break_continue,html.Screen,4_55_2,2023-09-08T18:50:02.106Z,,0,,,NaN,,,,,,false,,,,332341.2000000179,332341.10000002384,,332340.90000000596,,332352.229,8,400,,,
sequence,flow.Sequence,4_55,2023-09-08T18:50:02.106Z,,0,,,3222.2640000238316,completion,,,,,false,,,,332341.2000000179,332341.10000002384,329102.064,329106.5,329118.836,332352.229,8,400,,,
trial,html.Screen,4_56_0,2023-09-08T18:50:05.531Z,,0,2,,3414.771000000008,response,ISIC_5934948.JPG,6,ISIC_0062547.JPG,ISIC_0062547.JPG,false,0,keypress(z),500,335767.10000002384,335767,332335.61,332341.3000000119,332352.229,335768.92,8,400,7,,ISIC_5934948.JPG
break,html.Screen,4_56_1,2023-09-08T18:50:05.532Z,,0,,,NaN,,,,,,false,,,,335767.7000000179,335767.60000002384,,335767.2000000179,,335768.92,8,400,,,
break_continue,html.Screen,4_56_2,2023-09-08T18:50:05.532Z,,0,,,NaN,,,,,,false,,,,335767.90000000596,335767.8000000119,,335767.7000000179,,335768.92,8,400,,,
sequence,flow.Sequence,4_56,2023-09-08T18:50:05.532Z,,0,,,3415.571000011929,completion,,,,,false,,,,335768.10000002384,335767.8000000119,332335.61,332341.3000000119,332352.229,335768.92,8,400,,,
trial,html.Screen,4_57_0,2023-09-08T18:50:08.432Z,,0,2,,2898.5800000000163,response,ISIC_3016754.JPG,5,ISIC_7505369.JPG,ISIC_3016754.JPG,false,1,keypress(m),500,338667.7000000179,338667.5,335752.339,335768.10000002384,335768.92,338669.171,8,400,8,,ISIC_7505369.JPG
break,html.Screen,4_57_1,2023-09-08T18:50:08.433Z,,0,,,NaN,,,,,,false,,,,338668.2000000179,338668.10000002384,,338667.7000000179,,338669.171,8,400,,,
break_continue,html.Screen,4_57_2,2023-09-08T18:50:08.433Z,,0,,,NaN,,,,,,false,,,,338668.5,338668.40000000596,,338668.2000000179,,338669.171,8,400,,,
sequence,flow.Sequence,4_57,2023-09-08T18:50:08.433Z,,0,,,2899.4800000059768,completion,,,,,false,,,,338668.60000002384,338668.40000000596,335752.339,335768.10000002384,335768.92,338669.171,8,400,,,
trial,html.Screen,4_58_0,2023-09-08T18:50:13.619Z,,0,2,,5185.129000011948,response,ISIC_0024525.JPG,5,ISIC_6709052.JPG,ISIC_0024525.JPG,false,1,keypress(m),500,343854.5,343854.3000000119,338652.442,338668.7000000179,338669.171,343869.355,8,400,9,,ISIC_6709052.JPG
break,html.Screen,4_58_1,2023-09-08T18:50:13.619Z,,0,,,NaN,,,,,,false,,,,343855,343854.90000000596,,343854.60000002384,,343869.355,8,400,,,
break_continue,html.Screen,4_58_2,2023-09-08T18:50:13.620Z,,0,,,NaN,,,,,,false,,,,343855.3000000119,343855.2000000179,,343855.10000002384,,343869.355,8,400,,,
sequence,flow.Sequence,4_58,2023-09-08T18:50:13.620Z,,0,,,5186.029000017908,completion,,,,,false,,,,343855.3000000119,343855.2000000179,338652.442,338668.60000002384,338669.171,343869.355,8,400,,,
trial,html.Screen,4_59_0,2023-09-08T18:50:16.518Z,,0,2,,2883.6450000000186,response,ISIC_0068744.JPG,5,ISIC_4468129.JPG,ISIC_0068744.JPG,false,1,keypress(m),500,346753.2000000179,346753,343852.578,343855.40000000596,343869.355,346769.415,8,400,10,,ISIC_4468129.JPG
break,html.Screen,4_59_1,2023-09-08T18:50:16.518Z,,0,,,NaN,,,,,,false,,,,346753.7000000179,346753.60000002384,,346753.3000000119,,346769.415,8,400,,,
break_continue,html.Screen,4_59_2,2023-09-08T18:50:16.518Z,,0,,,NaN,,,,,,false,,,,346753.90000000596,346753.8000000119,,346753.8000000119,,346769.415,8,400,,,
sequence,flow.Sequence,4_59,2023-09-08T18:50:16.518Z,,0,,,2884.4450000119396,completion,,,,,false,,,,346754.10000002384,346753.8000000119,343852.578,343855.40000000596,343869.355,346769.415,8,400,,,
trial,html.Screen,4_60_0,2023-09-08T18:50:19.128Z,,0,2,,2594.185000023863,response,ISIC_8647900.JPG,5,ISIC_0062114.JPG,ISIC_0062114.JPG,false,0,keypress(z),500,349363.8000000119,349363.60000002384,346752.698,346754.2000000179,346769.415,349369.513,8,400,11,,ISIC_8647900.JPG
break,html.Screen,4_60_1,2023-09-08T18:50:19.129Z,,0,,,NaN,,,,,,false,,,,349364.40000000596,349364.3000000119,,349363.90000000596,,349369.513,8,400,,,
break_continue,html.Screen,4_60_2,2023-09-08T18:50:19.129Z,,0,,,NaN,,,,,,false,,,,349364.7000000179,349364.60000002384,,349364.40000000596,,349369.513,8,400,,,
sequence,flow.Sequence,4_60,2023-09-08T18:50:19.129Z,,0,,,2595.185000023863,completion,,,,,false,,,,349364.8000000119,349364.60000002384,346752.698,346754.10000002384,346769.415,349369.513,8,400,,,
trial,html.Screen,4_61_0,2023-09-08T18:50:24.828Z,,0,2,,5693.387000005983,response,ISIC_8684147.JPG,4,ISIC_4882389.JPG,ISIC_8684147.JPG,false,1,keypress(m),500,355063.10000002384,355062.90000000596,349352.727,349364.90000000596,349369.513,355069.806,8,400,12,,ISIC_4882389.JPG
break,html.Screen,4_61_1,2023-09-08T18:50:24.828Z,,0,,,NaN,,,,,,false,,,,355063.7000000179,355063.60000002384,,355063.3000000119,,355069.806,8,400,,,
break_continue,html.Screen,4_61_2,2023-09-08T18:50:24.828Z,,0,,,NaN,,,,,,false,,,,355063.90000000596,355063.8000000119,,355063.8000000119,,355069.806,8,400,,,
sequence,flow.Sequence,4_61,2023-09-08T18:50:24.828Z,,0,,,5694.287000011944,completion,,,,,false,,,,355064,355063.8000000119,349352.727,349364.8000000119,349369.513,355069.806,8,400,,,
trial,html.Screen,4_62_0,2023-09-08T18:50:28.286Z,,0,2,,3451.4940000119386,response,ISIC_0063824.JPG,4,ISIC_8008242.JPG,ISIC_0063824.JPG,false,1,keypress(m),500,358521.40000000596,358521.3000000119,355052.921,355064,355069.806,358536.43,8,400,13,,ISIC_8008242.JPG
break,html.Screen,4_62_1,2023-09-08T18:50:28.286Z,,0,,,NaN,,,,,,false,,,,358522.10000002384,358522,,358521.60000002384,,358536.43,8,400,,,
break_continue,html.Screen,4_62_2,2023-09-08T18:50:28.287Z,,0,,,NaN,,,,,,false,,,,358522.3000000119,358522.2000000179,,358522.10000002384,,358536.43,8,400,,,
sequence,flow.Sequence,4_62,2023-09-08T18:50:28.287Z,,0,,,3452.394000017899,completion,,,,,false,,,,358522.40000000596,358522.2000000179,355052.921,355064,355069.806,358536.43,8,400,,,
trial,html.Screen,4_63_0,2023-09-08T18:50:32.481Z,,0,2,,4180.070000000007,response,ISIC_4923095.JPG,5,ISIC_2565986.JPG,ISIC_4923095.JPG,false,1,keypress(m),500,362716.60000002384,362716.5,358519.836,358522.40000000596,358536.43,362719.793,8,400,14,,ISIC_2565986.JPG
break,html.Screen,4_63_1,2023-09-08T18:50:32.482Z,,0,,,NaN,,,,,,false,,,,362717.2000000179,362717.10000002384,,362716.8000000119,,362719.793,8,400,,,
break_continue,html.Screen,4_63_2,2023-09-08T18:50:32.482Z,,0,,,NaN,,,,,,false,,,,362717.40000000596,362717.3000000119,,362717.2000000179,,362719.793,8,400,,,
sequence,flow.Sequence,4_63,2023-09-08T18:50:32.482Z,,0,,,4180.870000011928,completion,,,,,false,,,,362717.5,362717.3000000119,358519.836,358522.40000000596,358536.43,362719.793,8,400,,,
trial,html.Screen,4_64_0,2023-09-08T18:50:37.156Z,,0,2,,4671.206999999995,response,ISIC_4642695.JPG,5,ISIC_0010398.JPG,ISIC_0010398.JPG,false,0,keypress(z),500,367391.10000002384,367391,362703.203,362717.60000002384,362719.793,367403.416,8,400,15,,ISIC_4642695.JPG
break,html.Screen,4_64_1,2023-09-08T18:50:37.156Z,,0,,,NaN,,,,,,false,,,,367391.8000000119,367391.60000002384,,367391.2000000179,,367403.416,8,400,,,
break_continue,html.Screen,4_64_2,2023-09-08T18:50:37.156Z,,0,,,NaN,,,,,,false,,,,367391.90000000596,367391.90000000596,,367391.8000000119,,367403.416,8,400,,,
sequence,flow.Sequence,4_64,2023-09-08T18:50:37.156Z,,0,,,4672.107000005955,completion,,,,,false,,,,367392,367391.90000000596,362703.203,362717.60000002384,362719.793,367403.416,8,400,,,
trial,html.Screen,4_65_0,2023-09-08T18:50:40.727Z,,0,2,,3558.5839999999735,response,ISIC_0013865.JPG,5,ISIC_1034397.JPG,ISIC_1034397.JPG,false,0,keypress(z),500,370962.10000002384,370962,367386.731,367392.10000002384,367403.416,370970.128,8,400,16,,ISIC_0013865.JPG
break,html.Screen,4_65_1,2023-09-08T18:50:40.727Z,,0,,,NaN,,,,,,false,,,,370962.7000000179,370962.60000002384,,370962.3000000119,,370970.128,8,400,,,
break_continue,html.Screen,4_65_2,2023-09-08T18:50:40.727Z,,0,,,NaN,,,,,,false,,,,370962.90000000596,370962.8000000119,,370962.8000000119,,370970.128,8,400,,,
sequence,flow.Sequence,4_65,2023-09-08T18:50:40.727Z,,0,,,3559.3840000118944,completion,,,,,false,,,,370963,370962.8000000119,367386.731,367392.10000002384,367403.416,370970.128,8,400,,,
trial,html.Screen,4_66_0,2023-09-08T18:50:43.753Z,,0,2,,3017.972000023816,response,ISIC_0033258.JPG,5,ISIC_0296109.JPG,ISIC_0033258.JPG,false,1,keypress(m),500,373988.2000000179,373988.10000002384,370953.433,370963,370970.128,374003.531,8,400,17,,ISIC_0296109.JPG
break,html.Screen,4_66_1,2023-09-08T18:50:43.753Z,,0,,,NaN,,,,,,false,,,,373988.8000000119,373988.8000000119,,373988.40000000596,,374003.531,8,400,,,
break_continue,html.Screen,4_66_2,2023-09-08T18:50:43.753Z,,0,,,NaN,,,,,,false,,,,373989,373989,,373988.90000000596,,374003.531,8,400,,,
sequence,flow.Sequence,4_66,2023-09-08T18:50:43.754Z,,0,,,3018.871999999974,completion,,,,,false,,,,373989.2000000179,373989,370953.433,370963,370970.128,374003.531,8,400,,,
trial,html.Screen,4_67_0,2023-09-08T18:50:47.612Z,,0,2,,3843.7690000119037,response,ISIC_0009721.JPG,5,ISIC_0000040.JPG,ISIC_0000040.JPG,false,0,keypress(z),500,377847.5,377847.3000000119,373986.911,373989.3000000119,374003.531,377853.661,8,400,18,,ISIC_0009721.JPG
break,html.Screen,4_67_1,2023-09-08T18:50:47.613Z,,0,,,NaN,,,,,,false,,,,377848.2000000179,377848,,377847.60000002384,,377853.661,8,400,,,
break_continue,html.Screen,4_67_2,2023-09-08T18:50:47.613Z,,0,,,NaN,,,,,,false,,,,377848.5,377848.40000000596,,377848.2000000179,,377853.661,8,400,,,
sequence,flow.Sequence,4_67,2023-09-08T18:50:47.613Z,,0,,,3844.8690000059432,completion,,,,,false,,,,377848.60000002384,377848.40000000596,373986.911,373989.2000000179,374003.531,377853.661,8,400,,,
trial,html.Screen,4_68_0,2023-09-08T18:50:51.743Z,,0,2,,4124.639000011899,response,ISIC_3161477.JPG,5,ISIC_0029761.JPG,ISIC_3161477.JPG,false,1,keypress(m),500,381978.5,381978.3000000119,377837.048,377848.7000000179,377853.661,381987.215,8,400,19,,ISIC_0029761.JPG
break,html.Screen,4_68_1,2023-09-08T18:50:51.743Z,,0,,,NaN,,,,,,false,,,,381979.10000002384,381979,,381978.60000002384,,381987.215,8,400,,,
break_continue,html.Screen,4_68_2,2023-09-08T18:50:51.744Z,,0,,,NaN,,,,,,false,,,,381979.2000000179,381979.2000000179,,381979.10000002384,,381987.215,8,400,,,
sequence,flow.Sequence,4_68,2023-09-08T18:50:51.744Z,,0,,,4125.5390000178595,completion,,,,,false,,,,381979.40000000596,381979.2000000179,377837.048,377848.60000002384,377853.661,381987.215,8,400,,,
trial,html.Screen,4_69_0,2023-09-08T18:50:54.930Z,,0,2,,3178.185000005935,response,ISIC_0009958.JPG,5,ISIC_7775535.JPG,ISIC_7775535.JPG,false,0,keypress(z),500,385165.60000002384,385165.40000000596,381970.481,381979.5,381987.215,385170.488,8,400,20,,ISIC_0009958.JPG
break,html.Screen,4_69_1,2023-09-08T18:50:54.931Z,,0,,,NaN,,,,,,false,,,,385167,385166.90000000596,,385166.60000002384,,385170.488,8,400,,,
break_continue,html.Screen,4_69_2,2023-09-08T18:50:54.932Z,,0,,,NaN,,,,,,false,,,,385167.2000000179,385167.2000000179,,385167,,385170.488,8,400,,,
sequence,flow.Sequence,4_69,2023-09-08T18:50:54.932Z,,0,,,3179.985000017856,completion,,,,,false,,,,385167.3000000119,385167.2000000179,381970.481,381979.5,381987.215,385170.488,8,400,,,
trial,html.Screen,4_70_0,2023-09-08T18:50:58.102Z,,0,2,,3166.9120000059484,response,ISIC_4536407.JPG,5,ISIC_1496194.JPG,ISIC_1496194.JPG,false,0,keypress(z),500,388337.60000002384,388337.40000000596,385154.02,385167.5,385170.488,388354.139,8,400,21,,ISIC_4536407.JPG
break,html.Screen,4_70_1,2023-09-08T18:50:58.102Z,,0,,,NaN,,,,,,false,,,,388338.10000002384,388338,,388337.60000002384,,388354.139,8,400,,,
break_continue,html.Screen,4_70_2,2023-09-08T18:50:58.103Z,,0,,,NaN,,,,,,false,,,,388338.3000000119,388338.3000000119,,388338.10000002384,,388354.139,8,400,,,
sequence,flow.Sequence,4_70,2023-09-08T18:50:58.103Z,,0,,,3167.812000011909,completion,,,,,false,,,,388338.5,388338.3000000119,385154.02,385167.40000000596,385170.488,388354.139,8,400,,,
trial,html.Screen,4_71_0,2023-09-08T18:51:01.032Z,,0,2,,2913.461000023817,response,ISIC_0025535.JPG,5,ISIC_0032204.JPG,ISIC_0025535.JPG,false,1,keypress(m),500,391267.8000000119,391267.60000002384,388337.252,388338.5,388354.139,391270.8,8,400,22,,ISIC_0032204.JPG
break,html.Screen,4_71_1,2023-09-08T18:51:01.033Z,,0,,,NaN,,,,,,false,,,,391268.3000000119,391268.10000002384,,391267.8000000119,,391270.8,8,400,,,
break_continue,html.Screen,4_71_2,2023-09-08T18:51:01.033Z,,0,,,NaN,,,,,,false,,,,391268.60000002384,391268.5,,391268.40000000596,,391270.8,8,400,,,
sequence,flow.Sequence,4_71,2023-09-08T18:51:01.033Z,,0,,,2914.3609999999753,completion,,,,,false,,,,391268.7000000179,391268.5,388337.252,388338.5,388354.139,391270.8,8,400,,,
trial,html.Screen,4_72_0,2023-09-08T18:51:03.626Z,,0,2,,2590.600000005972,response,ISIC_6253295.JPG,6,ISIC_0063026.JPG,ISIC_0063026.JPG,false,0,keypress(z),500,393861.60000002384,393861.40000000596,391253.97,391268.7000000179,391270.8,393870.936,8,400,23,,ISIC_6253295.JPG
break,html.Screen,4_72_1,2023-09-08T18:51:03.627Z,,0,,,NaN,,,,,,false,,,,393862.2000000179,393862.10000002384,,393861.7000000179,,393870.936,8,400,,,
break_continue,html.Screen,4_72_2,2023-09-08T18:51:03.627Z,,0,,,NaN,,,,,,false,,,,393862.40000000596,393862.40000000596,,393862.2000000179,,393870.936,8,400,,,
sequence,flow.Sequence,4_72,2023-09-08T18:51:03.627Z,,0,,,2591.600000005972,completion,,,,,false,,,,393862.60000002384,393862.40000000596,391253.97,391268.7000000179,391270.8,393870.936,8,400,,,
trial,html.Screen,4_73_0,2023-09-08T18:51:07.613Z,,0,2,,3977.064000000013,response,ISIC_0033578.JPG,6,ISIC_0055737.JPG,ISIC_0033578.JPG,false,1,keypress(m),500,397848.3000000119,397848,393854.174,393862.60000002384,393870.936,397854.237,8,400,24,,ISIC_0055737.JPG
break,html.Screen,4_73_1,2023-09-08T18:51:07.613Z,,0,,,NaN,,,,,,false,,,,397848.8000000119,397848.7000000179,,397848.40000000596,,397854.237,8,400,,,
break_continue,html.Screen,4_73_2,2023-09-08T18:51:07.613Z,,0,,,NaN,,,,,,false,,,,397849.10000002384,397849,,397848.90000000596,,397854.237,8,400,,,
sequence,flow.Sequence,4_73,2023-09-08T18:51:07.614Z,,0,,,3978.064000000013,completion,,,,,false,,,,397849.2000000179,397849,393854.174,393862.60000002384,393870.936,397854.237,8,400,,,
trial,html.Screen,4_74_0,2023-09-08T18:51:10.735Z,,0,2,,3116.4630000178586,response,ISIC_0026727.JPG,4,ISIC_2658858.JPG,ISIC_2658858.JPG,false,0,keypress(z),500,400970.8000000119,400970.7000000179,397837.695,397849.2000000179,397854.237,400987.792,8,400,25,,ISIC_0026727.JPG
break,html.Screen,4_74_1,2023-09-08T18:51:10.736Z,,0,,,NaN,,,,,,false,,,,400971.40000000596,400971.3000000119,,400971,,400987.792,8,400,,,
break_continue,html.Screen,4_74_2,2023-09-08T18:51:10.736Z,,0,,,NaN,,,,,,false,,,,400971.7000000179,400971.60000002384,,400971.5,,400987.792,8,400,,,
sequence,flow.Sequence,4_74,2023-09-08T18:51:10.736Z,,0,,,3117.363000023819,completion,,,,,false,,,,400971.7000000179,400971.60000002384,397837.695,397849.2000000179,397854.237,400987.792,8,400,,,
trial,html.Screen,4_75_0,2023-09-08T18:51:13.826Z,,0,2,,3073.4080000178656,response,ISIC_8248922.JPG,4,ISIC_4707475.JPG,ISIC_4707475.JPG,false,0,keypress(z),500,404061.3000000119,404061.2000000179,400971.196,400971.8000000119,400987.792,404071.227,8,400,26,,ISIC_8248922.JPG
break,html.Screen,4_75_1,2023-09-08T18:51:13.826Z,,0,,,NaN,,,,,,false,,,,404061.90000000596,404061.8000000119,,404061.40000000596,,404071.227,8,400,,,
break_continue,html.Screen,4_75_2,2023-09-08T18:51:13.827Z,,0,,,NaN,,,,,,false,,,,404062.10000002384,404062.10000002384,,404061.90000000596,,404071.227,8,400,,,
sequence,flow.Sequence,4_75,2023-09-08T18:51:13.827Z,,0,,,3074.308000023826,completion,,,,,false,,,,404062.2000000179,404062.10000002384,400971.196,400971.8000000119,400987.792,404071.227,8,400,,,
trial,html.Screen,4_76_0,2023-09-08T18:51:18.388Z,,0,2,,4552.373000023828,response,ISIC_0032682.JPG,5,ISIC_9226193.JPG,ISIC_0032682.JPG,false,1,keypress(m),500,408623.60000002384,408623.60000002384,404054.54,404062.3000000119,404071.227,408638.133,8,400,27,,ISIC_9226193.JPG
break,html.Screen,4_76_1,2023-09-08T18:51:18.389Z,,0,,,NaN,,,,,,false,,,,408624.3000000119,408624.10000002384,,408623.90000000596,,408638.133,8,400,,,
break_continue,html.Screen,4_76_2,2023-09-08T18:51:18.389Z,,0,,,NaN,,,,,,false,,,,408624.60000002384,408624.60000002384,,408624.3000000119,,408638.133,8,400,,,
sequence,flow.Sequence,4_76,2023-09-08T18:51:18.389Z,,0,,,4553.373000023828,completion,,,,,false,,,,408624.7000000179,408624.60000002384,404054.54,404062.3000000119,404071.227,408638.133,8,400,,,
trial,html.Screen,4_77_0,2023-09-08T18:51:23.672Z,,0,2,,5269.067000017909,response,ISIC_6299036.JPG,4,ISIC_0032875.JPG,ISIC_0032875.JPG,false,0,keypress(z),500,413907.40000000596,413907.2000000179,408621.354,408624.8000000119,408638.133,413921.546,8,400,28,,ISIC_6299036.JPG
break,html.Screen,4_77_1,2023-09-08T18:51:23.672Z,,0,,,NaN,,,,,,false,,,,413907.90000000596,413907.7000000179,,413907.40000000596,,413921.546,8,400,,,
break_continue,html.Screen,4_77_2,2023-09-08T18:51:23.672Z,,0,,,NaN,,,,,,false,,,,413908.2000000179,413908.10000002384,,413907.90000000596,,413921.546,8,400,,,
sequence,flow.Sequence,4_77,2023-09-08T18:51:23.673Z,,0,,,5269.967000023869,completion,,,,,false,,,,413908.2000000179,413908.10000002384,408621.354,408624.8000000119,408638.133,413921.546,8,400,,,
trial,html.Screen,4_78_0,2023-09-08T18:51:26.699Z,,0,2,,3012.454000000027,response,ISIC_0057858.JPG,5,ISIC_0028768.JPG,ISIC_0057858.JPG,false,1,keypress(m),500,416934.2000000179,416934,413904.853,413908.3000000119,413921.546,416938.151,8,400,29,,ISIC_0028768.JPG
break,html.Screen,4_78_1,2023-09-08T18:51:26.699Z,,0,,,NaN,,,,,,false,,,,416934.8000000119,416934.7000000179,,416934.2000000179,,416938.151,8,400,,,
break_continue,html.Screen,4_78_2,2023-09-08T18:51:26.699Z,,0,,,NaN,,,,,,false,,,,416935,416935,,416934.90000000596,,416938.151,8,400,,,
sequence,flow.Sequence,4_78,2023-09-08T18:51:26.699Z,,0,,,3013.454000000027,completion,,,,,false,,,,416935.10000002384,416935,413904.853,413908.3000000119,413921.546,416938.151,8,400,,,
trial,html.Screen,4_79_0,2023-09-08T18:51:29.869Z,,0,2,,3166.549000017869,response,ISIC_4428769.JPG,5,ISIC_0030898.JPG,ISIC_0030898.JPG,false,0,keypress(z),500,420104.90000000596,420104.7000000179,416921.471,416935.2000000179,416938.151,420121.739,8,400,30,,ISIC_4428769.JPG
break,html.Screen,4_79_1,2023-09-08T18:51:29.870Z,,0,,,NaN,,,,,,false,,,,420105.40000000596,420105.40000000596,,420105,,420121.739,8,400,,,
break_continue,html.Screen,4_79_2,2023-09-08T18:51:29.870Z,,0,,,NaN,,,,,,false,,,,420105.7000000179,420105.60000002384,,420105.5,,420121.739,8,400,,,
sequence,flow.Sequence,4_79,2023-09-08T18:51:29.870Z,,0,,,3167.4490000238293,completion,,,,,false,,,,420105.8000000119,420105.60000002384,416921.471,416935.2000000179,416938.151,420121.739,8,400,,,
trial,html.Screen,4_80_0,2023-09-08T18:51:32.687Z,,0,2,,2800.8610000238405,response,ISIC_6210962.JPG,4,ISIC_9353514.JPG,ISIC_6210962.JPG,false,1,keypress(m),500,422922.7000000179,422922.60000002384,420105.117,420105.90000000596,420121.739,422938.375,8,400,31,,ISIC_9353514.JPG
break,html.Screen,4_80_1,2023-09-08T18:51:32.688Z,,0,,,NaN,,,,,,false,,,,422923.40000000596,422923.2000000179,,422922.8000000119,,422938.375,8,400,,,
break_continue,html.Screen,4_80_2,2023-09-08T18:51:32.688Z,,0,,,NaN,,,,,,false,,,,422923.8000000119,422923.7000000179,,422923.5,,422938.375,8,400,,,
sequence,flow.Sequence,4_80,2023-09-08T18:51:32.688Z,,0,,,2801.96100001788,completion,,,,,false,,,,422923.8000000119,422923.7000000179,420105.117,420105.8000000119,420121.739,422938.375,8,400,,,
trial,html.Screen,4_81_0,2023-09-08T18:51:35.314Z,,0,2,,2610.8250000178814,response,ISIC_6569060.JPG,5,ISIC_0055246.JPG,ISIC_0055246.JPG,false,0,keypress(z),500,425549.3000000119,425549.2000000179,422921.805,422924,422938.375,425555.199,8,400,32,,ISIC_6569060.JPG
break,html.Screen,4_81_1,2023-09-08T18:51:35.314Z,,0,,,NaN,,,,,,false,,,,425549.90000000596,425549.8000000119,,425549.40000000596,,425555.199,8,400,,,
break_continue,html.Screen,4_81_2,2023-09-08T18:51:35.314Z,,0,,,NaN,,,,,,false,,,,425550.2000000179,425550,,425550,,425555.199,8,400,,,
sequence,flow.Sequence,4_81,2023-09-08T18:51:35.315Z,,0,,,2611.625,completion,,,,,false,,,,425550.3000000119,425550,422921.805,422923.90000000596,422938.375,425555.199,8,400,,,
trial,html.Screen,4_82_0,2023-09-08T18:51:38.037Z,,0,2,,2716.8009999999776,response,ISIC_0029094.JPG,5,ISIC_2822718.JPG,ISIC_0029094.JPG,false,1,keypress(m),500,428272.2000000179,428272,425538.617,425550.3000000119,425555.199,428288.66,8,400,33,,ISIC_2822718.JPG
break,html.Screen,4_82_1,2023-09-08T18:51:38.037Z,,0,,,NaN,,,,,,false,,,,428272.7000000179,428272.60000002384,,428272.2000000179,,428288.66,8,400,,,
break_continue,html.Screen,4_82_2,2023-09-08T18:51:38.037Z,,0,,,NaN,,,,,,false,,,,428272.90000000596,428272.8000000119,,428272.7000000179,,428288.66,8,400,,,
sequence,flow.Sequence,4_82,2023-09-08T18:51:38.037Z,,0,,,2717.6010000118986,completion,,,,,false,,,,428273,428272.8000000119,425538.617,425550.3000000119,425555.199,428288.66,8,400,,,
trial,html.Screen,4_83_0,2023-09-08T18:51:40.871Z,,0,2,,2817.9400000238675,response,ISIC_0010213.JPG,5,ISIC_3495799.JPG,ISIC_0010213.JPG,false,1,keypress(m),500,431106.7000000179,431106.60000002384,428272.015,428273.2000000179,428288.66,431122.006,8,400,34,,ISIC_3495799.JPG
break,html.Screen,4_83_1,2023-09-08T18:51:40.872Z,,0,,,NaN,,,,,,false,,,,431107.3000000119,431107.10000002384,,431106.90000000596,,431122.006,8,400,,,
break_continue,html.Screen,4_83_2,2023-09-08T18:51:40.872Z,,0,,,NaN,,,,,,false,,,,431107.5,431107.40000000596,,431107.3000000119,,431122.006,8,400,,,
sequence,flow.Sequence,4_83,2023-09-08T18:51:40.872Z,,0,,,2818.740000005986,completion,,,,,false,,,,431107.60000002384,431107.40000000596,428272.015,428273.10000002384,428288.66,431122.006,8,400,,,
trial,html.Screen,4_84_0,2023-09-08T18:51:43.946Z,,0,2,,3059.294000011927,response,ISIC_0034183.JPG,5,ISIC_0033171.JPG,ISIC_0034183.JPG,false,1,keypress(m),500,434181.40000000596,434181.3000000119,431105.277,431107.60000002384,431122.006,434188.833,8,400,35,,ISIC_0033171.JPG
break,html.Screen,4_84_1,2023-09-08T18:51:43.946Z,,0,,,NaN,,,,,,false,,,,434182,434181.90000000596,,434181.5,,434188.833,8,400,,,
break_continue,html.Screen,4_84_2,2023-09-08T18:51:43.947Z,,0,,,NaN,,,,,,false,,,,434182.3000000119,434182.2000000179,,434182.10000002384,,434188.833,8,400,,,
sequence,flow.Sequence,4_84,2023-09-08T18:51:43.947Z,,0,,,3060.1940000178874,completion,,,,,false,,,,434182.3000000119,434182.2000000179,431105.277,431107.60000002384,431122.006,434188.833,8,400,,,
trial,html.Screen,4_85_0,2023-09-08T18:51:47.052Z,,0,2,,3098.667000000016,response,ISIC_0029056.JPG,5,ISIC_3067522.JPG,ISIC_3067522.JPG,false,0,keypress(z),500,437287.7000000179,437287.5,434172.172,434182.40000000596,434188.833,437306.643,8,400,36,,ISIC_0029056.JPG
break,html.Screen,4_85_1,2023-09-08T18:51:47.053Z,,0,,,NaN,,,,,,false,,,,437288.3000000119,437288.10000002384,,437287.8000000119,,437306.643,8,400,,,
break_continue,html.Screen,4_85_2,2023-09-08T18:51:47.054Z,,0,,,NaN,,,,,,false,,,,437289.40000000596,437289.3000000119,,437289.2000000179,,437306.643,8,400,,,
sequence,flow.Sequence,4_85,2023-09-08T18:51:47.054Z,,0,,,3100.4670000119368,completion,,,,,false,,,,437289.5,437289.3000000119,434172.172,434182.40000000596,434188.833,437306.643,8,400,,,
trial,html.Screen,4_86_0,2023-09-08T18:51:50.079Z,,0,2,,3007.7570000059786,response,ISIC_5272345.JPG,5,ISIC_0031379.JPG,ISIC_5272345.JPG,false,1,keypress(m),500,440314.60000002384,440314.40000000596,437272.245,437289.60000002384,437306.643,440322.383,8,400,37,,ISIC_0031379.JPG
break,html.Screen,4_86_1,2023-09-08T18:51:50.080Z,,0,,,NaN,,,,,,false,,,,440315.2000000179,440315.10000002384,,440314.8000000119,,440322.383,8,400,,,
break_continue,html.Screen,4_86_2,2023-09-08T18:51:50.080Z,,0,,,NaN,,,,,,false,,,,440315.5,440315.40000000596,,440315.3000000119,,440322.383,8,400,,,
sequence,flow.Sequence,4_86,2023-09-08T18:51:50.080Z,,0,,,3008.7570000059786,completion,,,,,false,,,,440315.60000002384,440315.40000000596,437272.245,437289.60000002384,437306.643,440322.383,8,400,,,
trial,html.Screen,4_87_0,2023-09-08T18:51:53.010Z,,0,2,,2922.9170000119484,response,ISIC_7912183.JPG,5,ISIC_0066483.JPG,ISIC_0066483.JPG,false,0,keypress(z),500,443245.40000000596,443245.3000000119,440305.535,440315.7000000179,440322.383,443255.65,8,400,38,,ISIC_7912183.JPG
break,html.Screen,4_87_1,2023-09-08T18:51:53.010Z,,0,,,NaN,,,,,,false,,,,443246,443245.90000000596,,443245.40000000596,,443255.65,8,400,,,
break_continue,html.Screen,4_87_2,2023-09-08T18:51:53.011Z,,0,,,NaN,,,,,,false,,,,443246.2000000179,443246.10000002384,,443246,,443255.65,8,400,,,
sequence,flow.Sequence,4_87,2023-09-08T18:51:53.011Z,,0,,,2923.7170000238693,completion,,,,,false,,,,443246.3000000119,443246.10000002384,440305.535,440315.60000002384,440322.383,443255.65,8,400,,,
trial,html.Screen,4_88_0,2023-09-08T18:51:56.452Z,,0,2,,3431.750000005937,response,ISIC_1757941.JPG,5,ISIC_8300954.JPG,ISIC_8300954.JPG,false,0,keypress(z),500,446687.60000002384,446687.40000000596,443239.217,443246.40000000596,443255.65,446689.202,8,400,39,,ISIC_1757941.JPG
break,html.Screen,4_88_1,2023-09-08T18:51:56.453Z,,0,,,NaN,,,,,,false,,,,446688.2000000179,446688,,446687.7000000179,,446689.202,8,400,,,
break_continue,html.Screen,4_88_2,2023-09-08T18:51:56.453Z,,0,,,NaN,,,,,,false,,,,446688.40000000596,446688.40000000596,,446688.3000000119,,446689.202,8,400,,,
sequence,flow.Sequence,4_88,2023-09-08T18:51:56.453Z,,0,,,3432.750000005937,completion,,,,,false,,,,446688.5,446688.40000000596,443239.217,443246.3000000119,443255.65,446689.202,8,400,,,
trial,html.Screen,4_89_0,2023-09-08T18:51:59.351Z,,0,2,,2896.998000017891,response,ISIC_5406677.JPG,5,ISIC_7860137.JPG,ISIC_5406677.JPG,false,1,keypress(m),500,449586.3000000119,449586.2000000179,446672.415,446688.7000000179,446689.202,449589.345,8,400,40,,ISIC_7860137.JPG
break,html.Screen,4_89_1,2023-09-08T18:51:59.351Z,,0,,,NaN,,,,,,false,,,,449586.90000000596,449586.8000000119,,449586.5,,449589.345,8,400,,,
break_continue,html.Screen,4_89_2,2023-09-08T18:51:59.352Z,,0,,,NaN,,,,,,false,,,,449587.10000002384,449587.10000002384,,449586.90000000596,,449589.345,8,400,,,
sequence,flow.Sequence,4_89,2023-09-08T18:51:59.352Z,,0,,,2897.8980000238516,completion,,,,,false,,,,449587.3000000119,449587.10000002384,446672.415,446688.60000002384,446689.202,449589.345,8,400,,,
trial,html.Screen,4_90_0,2023-09-08T18:52:01.849Z,,0,2,,2495.3550000179093,response,ISIC_6985114.JPG,6,ISIC_0033226.JPG,ISIC_0033226.JPG,false,0,keypress(z),500,452084.8000000119,452084.7000000179,449572.629,449587.3000000119,449589.345,452089.278,8,400,41,,ISIC_6985114.JPG
break,html.Screen,4_90_1,2023-09-08T18:52:01.850Z,,0,,,NaN,,,,,,false,,,,452085.5,452085.3000000119,,452085,,452089.278,8,400,,,
break_continue,html.Screen,4_90_2,2023-09-08T18:52:01.850Z,,0,,,NaN,,,,,,false,,,,452085.7000000179,452085.60000002384,,452085.60000002384,,452089.278,8,400,,,
sequence,flow.Sequence,4_90,2023-09-08T18:52:01.850Z,,0,,,2496.25500002387,completion,,,,,false,,,,452085.8000000119,452085.60000002384,449572.629,449587.3000000119,449589.345,452089.278,8,400,,,
trial,html.Screen,4_91_0,2023-09-08T18:52:04.812Z,,0,2,,2958.02200001193,response,ISIC_0011051.JPG,4,ISIC_2887355.JPG,ISIC_0011051.JPG,false,1,keypress(m),500,455047.40000000596,455047.3000000119,452072.761,452085.90000000596,452089.278,455056.156,8,400,42,,ISIC_2887355.JPG
break,html.Screen,4_91_1,2023-09-08T18:52:04.812Z,,0,,,NaN,,,,,,false,,,,455048,455047.90000000596,,455047.60000002384,,455056.156,8,400,,,
break_continue,html.Screen,4_91_2,2023-09-08T18:52:04.813Z,,0,,,NaN,,,,,,false,,,,455048.3000000119,455048.2000000179,,455048.10000002384,,455056.156,8,400,,,
sequence,flow.Sequence,4_91,2023-09-08T18:52:04.813Z,,0,,,2958.9220000178902,completion,,,,,false,,,,455048.40000000596,455048.2000000179,452072.761,452085.90000000596,452089.278,455056.156,8,400,,,
trial,html.Screen,4_92_0,2023-09-08T18:52:09.598Z,,0,2,,4777.644000011904,response,ISIC_6801988.JPG,5,ISIC_0011931.JPG,ISIC_0011931.JPG,false,0,keypress(z),500,459834.10000002384,459833.8000000119,455039.392,455048.40000000596,455056.156,459839.741,8,400,43,,ISIC_6801988.JPG
break,html.Screen,4_92_1,2023-09-08T18:52:09.599Z,,0,,,NaN,,,,,,false,,,,459834.60000002384,459834.5,,459834.10000002384,,459839.741,8,400,,,
break_continue,html.Screen,4_92_2,2023-09-08T18:52:09.599Z,,0,,,NaN,,,,,,false,,,,459834.90000000596,459834.8000000119,,459834.7000000179,,459839.741,8,400,,,
sequence,flow.Sequence,4_92,2023-09-08T18:52:09.599Z,,0,,,4778.644000011904,completion,,,,,false,,,,459835,459834.8000000119,455039.392,455048.40000000596,455056.156,459839.741,8,400,,,
trial,html.Screen,4_93_0,2023-09-08T18:52:12.929Z,,0,2,,3324.6590000059805,response,ISIC_0026613.JPG,5,ISIC_0014336.JPG,ISIC_0014336.JPG,false,0,keypress(z),500,463164.5,463164.40000000596,459822.996,459835,459839.741,463173.08,8,400,44,,ISIC_0026613.JPG
break,html.Screen,4_93_1,2023-09-08T18:52:12.930Z,,0,,,NaN,,,,,,false,,,,463165.10000002384,463165,,463164.60000002384,,463173.08,8,400,,,
break_continue,html.Screen,4_93_2,2023-09-08T18:52:12.930Z,,0,,,NaN,,,,,,false,,,,463165.3000000119,463165.3000000119,,463165.2000000179,,463173.08,8,400,,,
sequence,flow.Sequence,4_93,2023-09-08T18:52:12.930Z,,0,,,3325.559000011941,completion,,,,,false,,,,463165.5,463165.3000000119,459822.996,459835,459839.741,463173.08,8,400,,,
trial,html.Screen,4_94_0,2023-09-08T18:52:17.108Z,,0,2,,4170.020000023826,response,ISIC_0055841.JPG,5,ISIC_0033429.JPG,ISIC_0055841.JPG,false,1,keypress(m),500,467343.3000000119,467343.10000002384,463156.314,463165.5,463173.08,467356.456,8,400,45,,ISIC_0033429.JPG
break,html.Screen,4_94_1,2023-09-08T18:52:17.108Z,,0,,,NaN,,,,,,false,,,,467343.90000000596,467343.8000000119,,467343.40000000596,,467356.456,8,400,,,
break_continue,html.Screen,4_94_2,2023-09-08T18:52:17.109Z,,0,,,NaN,,,,,,false,,,,467344.2000000179,467344.10000002384,,467344,,467356.456,8,400,,,
sequence,flow.Sequence,4_94,2023-09-08T18:52:17.109Z,,0,,,4171.020000023826,completion,,,,,false,,,,467344.2000000179,467344.10000002384,463156.314,463165.5,463173.08,467356.456,8,400,,,
trial,html.Screen,4_95_0,2023-09-08T18:52:21.446Z,,0,2,,4325.144000023836,response,ISIC_0005854.JPG,5,ISIC_9244047.JPG,ISIC_9244047.JPG,false,0,keypress(z),500,471681.8000000119,471681.60000002384,467339.73,467344.3000000119,467356.456,471689.984,8,400,46,,ISIC_0005854.JPG
break,html.Screen,4_95_1,2023-09-08T18:52:21.447Z,,0,,,NaN,,,,,,false,,,,471682.3000000119,471682.2000000179,,471681.90000000596,,471689.984,8,400,,,
break_continue,html.Screen,4_95_2,2023-09-08T18:52:21.447Z,,0,,,NaN,,,,,,false,,,,471682.7000000179,471682.60000002384,,471682.5,,471689.984,8,400,,,
sequence,flow.Sequence,4_95,2023-09-08T18:52:21.447Z,,0,,,4326.144000023836,completion,,,,,false,,,,471682.8000000119,471682.60000002384,467339.73,467344.3000000119,467356.456,471689.984,8,400,,,
trial,html.Screen,4_96_0,2023-09-08T18:52:26.233Z,,0,2,,4778.616000023845,response,ISIC_8943906.JPG,4,ISIC_0070752.JPG,ISIC_8943906.JPG,false,1,keypress(m),500,476468.7000000179,476468.60000002384,471673.307,471682.90000000596,471689.984,476473.524,8,400,47,,ISIC_0070752.JPG
break,html.Screen,4_96_1,2023-09-08T18:52:26.234Z,,0,,,NaN,,,,,,false,,,,476469.3000000119,476469.2000000179,,476468.90000000596,,476473.524,8,400,,,
break_continue,html.Screen,4_96_2,2023-09-08T18:52:26.234Z,,0,,,NaN,,,,,,false,,,,476469.60000002384,476469.5,,476469.40000000596,,476473.524,8,400,,,
sequence,flow.Sequence,4_96,2023-09-08T18:52:26.234Z,,0,,,4779.516000000003,completion,,,,,false,,,,476469.60000002384,476469.5,471673.307,471682.90000000596,471689.984,476473.524,8,400,,,
trial,html.Screen,4_97_0,2023-09-08T18:52:29.356Z,,0,2,,3117.576000023866,response,ISIC_5897134.JPG,5,ISIC_2833213.JPG,ISIC_5897134.JPG,false,1,keypress(m),500,479591.3000000119,479591.10000002384,476456.874,476469.7000000179,476473.524,479607.013,8,400,48,,ISIC_2833213.JPG
break,html.Screen,4_97_1,2023-09-08T18:52:29.356Z,,0,,,NaN,,,,,,false,,,,479591.90000000596,479591.8000000119,,479591.40000000596,,479607.013,8,400,,,
break_continue,html.Screen,4_97_2,2023-09-08T18:52:29.357Z,,0,,,NaN,,,,,,false,,,,479592.10000002384,479592.10000002384,,479591.90000000596,,479607.013,8,400,,,
sequence,flow.Sequence,4_97,2023-09-08T18:52:29.357Z,,0,,,3118.576000023866,completion,,,,,false,,,,479592.2000000179,479592.10000002384,476456.874,476469.7000000179,476473.524,479607.013,8,400,,,
trial,html.Screen,4_98_0,2023-09-08T18:52:32.670Z,,0,2,,3298.0870000238647,response,ISIC_2633745.JPG,5,ISIC_1369967.JPG,ISIC_1369967.JPG,false,0,keypress(z),500,482905.3000000119,482905.10000002384,479590.194,479592.3000000119,479607.013,482906.997,8,400,49,,ISIC_2633745.JPG
break,html.Screen,4_98_1,2023-09-08T18:52:32.670Z,,0,,,NaN,,,,,,false,,,,482905.90000000596,482905.8000000119,,482905.5,,482906.997,8,400,,,
break_continue,html.Screen,4_98_2,2023-09-08T18:52:32.671Z,,0,,,NaN,,,,,,false,,,,482906.2000000179,482906,,482906,,482906.997,8,400,,,
sequence,flow.Sequence,4_98,2023-09-08T18:52:32.671Z,,0,,,3298.987000000023,completion,,,,,false,,,,482906.3000000119,482906,479590.194,479592.3000000119,479607.013,482906.997,8,400,,,
trial,html.Screen,4_99_0,2023-09-08T18:52:35.616Z,,0,2,,2944.803000011947,response,ISIC_0031746.JPG,6,ISIC_0073032.JPG,ISIC_0073032.JPG,false,0,keypress(z),500,485851.90000000596,485851.8000000119,482890.416,482906.40000000596,482906.997,485857.029,8,400,50,,ISIC_0031746.JPG
break,html.Screen,4_99_1,2023-09-08T18:52:45.606Z,,0,,,10000.530000000028,timeout,,,,,false,,,,495841.2000000179,495840.874,485840.599,485852,485857.029,495857.559,8,400,,,
break_continue,html.Screen,4_99_2,2023-09-08T18:52:51.813Z,,0,,,6179.940999999992,response,,,,,false,continue,keypress(Space),,502049.10000002384,502037.5,495840.874,495841.3000000119,495857.559,502057.736,8,400,,,
sequence,flow.Sequence,4_99,2023-09-08T18:52:51.813Z,,0,,,19130.503000000026,completion,,,,,false,,,,502049.2000000179,502037.5,482890.416,482906.40000000596,482906.997,502057.736,8,400,,,
trial,html.Screen,4_100_0,2023-09-08T18:52:55.287Z,,0,3,,3465.664000005985,response,ISIC_1189461.JPG,5,ISIC_5797942.JPG,ISIC_5797942.JPG,false,0,keypress(z),500,505523.60000002384,505523.40000000596,502040.983,502049.3000000119,502057.736,505541.626,8,400,1,,ISIC_1189461.JPG
break,html.Screen,4_100_1,2023-09-08T18:52:55.288Z,,0,,,NaN,,,,,,false,,,,505524.10000002384,505524,,505523.60000002384,,505541.626,8,400,,,
break_continue,html.Screen,4_100_2,2023-09-08T18:52:55.288Z,,0,,,NaN,,,,,,false,,,,505524.40000000596,505524.3000000119,,505524.10000002384,,505541.626,8,400,,,
sequence,flow.Sequence,4_100,2023-09-08T18:52:55.288Z,,0,,,3466.5640000119456,completion,,,,,false,,,,505524.5,505524.3000000119,502040.983,502049.3000000119,502057.736,505541.626,8,400,,,
trial,html.Screen,4_101_0,2023-09-08T18:52:57.850Z,,0,3,,2544.8740000000107,response,ISIC_7397447.JPG,6,ISIC_0011930.JPG,ISIC_0011930.JPG,false,0,keypress(z),500,508086.7000000179,508086.5,505507.777,505524.5,505541.626,508091.075,8,400,2,,ISIC_7397447.JPG
break,html.Screen,4_101_1,2023-09-08T18:52:57.851Z,,0,,,NaN,,,,,,false,,,,508087.3000000119,508087.2000000179,,508086.8000000119,,508091.075,8,400,,,
break_continue,html.Screen,4_101_2,2023-09-08T18:52:57.851Z,,0,,,NaN,,,,,,false,,,,508087.5,508087.5,,508087.3000000119,,508091.075,8,400,,,
sequence,flow.Sequence,4_101,2023-09-08T18:52:57.851Z,,0,,,2545.8740000000107,completion,,,,,false,,,,508087.60000002384,508087.5,505507.777,505524.5,505541.626,508091.075,8,400,,,
trial,html.Screen,4_102_0,2023-09-08T18:53:01.789Z,,0,3,,3934.1250000178698,response,ISIC_8483382.JPG,5,ISIC_0028075.JPG,ISIC_0028075.JPG,false,0,keypress(z),500,512025.3000000119,512025.2000000179,508074.528,508087.7000000179,508091.075,512041.394,8,400,3,,ISIC_8483382.JPG
break,html.Screen,4_102_1,2023-09-08T18:53:01.789Z,,0,,,NaN,,,,,,false,,,,512025.90000000596,512025.7000000179,,512025.40000000596,,512041.394,8,400,,,
break_continue,html.Screen,4_102_2,2023-09-08T18:53:01.790Z,,0,,,NaN,,,,,,false,,,,512026.10000002384,512026,,512025.90000000596,,512041.394,8,400,,,
sequence,flow.Sequence,4_102,2023-09-08T18:53:01.790Z,,0,,,3934.9249999999884,completion,,,,,false,,,,512026.2000000179,512026,508074.528,508087.7000000179,508091.075,512041.394,8,400,,,
trial,html.Screen,4_103_0,2023-09-08T18:53:04.992Z,,0,3,,3186.5060000059893,response,ISIC_0063493.JPG,5,ISIC_0046458.JPG,ISIC_0063493.JPG,false,1,keypress(m),500,515228.10000002384,515227.90000000596,512024.679,512026.3000000119,512041.394,515241.528,8,400,4,,ISIC_0046458.JPG
break,html.Screen,4_103_1,2023-09-08T18:53:04.992Z,,0,,,NaN,,,,,,false,,,,515228.7000000179,515228.5,,515228.2000000179,,515241.528,8,400,,,
break_continue,html.Screen,4_103_2,2023-09-08T18:53:04.992Z,,0,,,NaN,,,,,,false,,,,515229,515228.90000000596,,515228.7000000179,,515241.528,8,400,,,
sequence,flow.Sequence,4_103,2023-09-08T18:53:04.993Z,,0,,,3187.5060000059893,completion,,,,,false,,,,515229,515228.90000000596,512024.679,512026.3000000119,512041.394,515241.528,8,400,,,
trial,html.Screen,4_104_0,2023-09-08T18:53:07.986Z,,0,3,,2980.972000000009,response,ISIC_0016137.JPG,5,ISIC_0002811.JPG,ISIC_0016137.JPG,false,1,keypress(m),500,518222.60000002384,518222.5,515224.774,515229.10000002384,515241.528,518224.873,8,400,5,,ISIC_0002811.JPG
break,html.Screen,4_104_1,2023-09-08T18:53:07.987Z,,0,,,NaN,,,,,,false,,,,518223.10000002384,518223.10000002384,,518222.8000000119,,518224.873,8,400,,,
break_continue,html.Screen,4_104_2,2023-09-08T18:53:07.987Z,,0,,,NaN,,,,,,false,,,,518223.40000000596,518223.3000000119,,518223.2000000179,,518224.873,8,400,,,
sequence,flow.Sequence,4_104,2023-09-08T18:53:07.987Z,,0,,,2981.77200001193,completion,,,,,false,,,,518223.60000002384,518223.3000000119,515224.774,515229,515241.528,518224.873,8,400,,,
trial,html.Screen,4_105_0,2023-09-08T18:53:11.989Z,,0,3,,4000.2270000238204,response,ISIC_4168757.JPG,4,ISIC_7268804.JPG,ISIC_7268804.JPG,false,0,keypress(z),500,522225.3000000119,522225.10000002384,518208.207,518223.7000000179,518224.873,522241.597,8,400,6,,ISIC_4168757.JPG
break,html.Screen,4_105_1,2023-09-08T18:53:11.989Z,,0,,,NaN,,,,,,false,,,,522225.90000000596,522225.8000000119,,522225.5,,522241.597,8,400,,,
break_continue,html.Screen,4_105_2,2023-09-08T18:53:11.990Z,,0,,,NaN,,,,,,false,,,,522226.2000000179,522226.10000002384,,522225.90000000596,,522241.597,8,400,,,
sequence,flow.Sequence,4_105,2023-09-08T18:53:11.990Z,,0,,,4001.2270000238204,completion,,,,,false,,,,522226.3000000119,522226.10000002384,518208.207,518223.7000000179,518224.873,522241.597,8,400,,,
trial,html.Screen,4_106_0,2023-09-08T18:53:15.304Z,,0,3,,3298.902999999991,response,ISIC_5960641.JPG,6,ISIC_0204355.JPG,ISIC_0204355.JPG,false,0,keypress(z),500,525540.7000000179,525540.5,522224.999,522226.3000000119,522241.597,525559.473,8,400,7,,ISIC_5960641.JPG
break,html.Screen,4_106_1,2023-09-08T18:53:15.305Z,,0,,,NaN,,,,,,false,,,,525541.2000000179,525541.1000000238,,525540.8000000119,,525559.473,8,400,,,
break_continue,html.Screen,4_106_2,2023-09-08T18:53:15.305Z,,0,,,NaN,,,,,,false,,,,525541.5,525541.400000006,,525541.3000000119,,525559.473,8,400,,,
sequence,flow.Sequence,4_106,2023-09-08T18:53:15.305Z,,0,,,3299.8030000059516,completion,,,,,false,,,,525541.6000000238,525541.400000006,522224.999,522226.3000000119,522241.597,525559.473,8,400,,,
trial,html.Screen,4_107_0,2023-09-08T18:53:18.220Z,,0,3,,2896.327000011923,response,ISIC_0000179.JPG,5,ISIC_6960446.JPG,ISIC_0000179.JPG,false,1,keypress(m),500,528456,528455.8000000119,525525.107,525541.7000000179,525559.473,528458.506,8,400,8,,ISIC_6960446.JPG
break,html.Screen,4_107_1,2023-09-08T18:53:18.220Z,,0,,,NaN,,,,,,false,,,,528456.5,528456.5,,528456.1000000238,,528458.506,8,400,,,
break_continue,html.Screen,4_107_2,2023-09-08T18:53:18.220Z,,0,,,NaN,,,,,,false,,,,528456.8000000119,528456.7000000179,,528456.6000000238,,528458.506,8,400,,,
sequence,flow.Sequence,4_107,2023-09-08T18:53:18.220Z,,0,,,2897.2270000178833,completion,,,,,false,,,,528456.900000006,528456.7000000179,525525.107,525541.6000000238,525559.473,528458.506,8,400,,,
trial,html.Screen,4_108_0,2023-09-08T18:53:21.726Z,,0,3,,3503.8940000059083,response,ISIC_1761083.JPG,4,ISIC_8525786.JPG,ISIC_1761083.JPG,false,1,keypress(m),500,531962.6000000238,531962.400000006,528441.861,528456.900000006,528458.506,531975.369,8,400,9,,ISIC_8525786.JPG
break,html.Screen,4_108_1,2023-09-08T18:53:21.727Z,,0,,,NaN,,,,,,false,,,,531963.3000000119,531963.1000000238,,531962.7000000179,,531975.369,8,400,,,
break_continue,html.Screen,4_108_2,2023-09-08T18:53:21.727Z,,0,,,NaN,,,,,,false,,,,531963.5,531963.400000006,,531963.3000000119,,531975.369,8,400,,,
sequence,flow.Sequence,4_108,2023-09-08T18:53:21.727Z,,0,,,3504.8940000059083,completion,,,,,false,,,,531963.6000000238,531963.400000006,528441.861,528456.900000006,528458.506,531975.369,8,400,,,
trial,html.Screen,4_109_0,2023-09-08T18:53:25.456Z,,0,3,,3717.231000023894,response,ISIC_4271108.JPG,5,ISIC_3716504.JPG,ISIC_3716504.JPG,false,0,keypress(z),500,535692.7000000179,535692.6000000238,531958.651,531963.6000000238,531975.369,535708.82,8,400,10,,ISIC_4271108.JPG
break,html.Screen,4_109_1,2023-09-08T18:53:25.457Z,,0,,,NaN,,,,,,false,,,,535693.3000000119,535693.2000000179,,535692.8000000119,,535708.82,8,400,,,
break_continue,html.Screen,4_109_2,2023-09-08T18:53:25.457Z,,0,,,NaN,,,,,,false,,,,535693.6000000238,535693.5,,535693.400000006,,535708.82,8,400,,,
sequence,flow.Sequence,4_109,2023-09-08T18:53:25.457Z,,0,,,3718.131000000052,completion,,,,,false,,,,535693.7000000179,535693.5,531958.651,531963.6000000238,531975.369,535708.82,8,400,,,
trial,html.Screen,4_110_0,2023-09-08T18:53:28.052Z,,0,3,,2579.280000023893,response,ISIC_1733794.JPG,4,ISIC_0065421.JPG,ISIC_0065421.JPG,false,0,keypress(z),500,538288.3000000119,538288.1000000238,535692.099,535693.7000000179,535708.82,538292.072,8,400,11,,ISIC_1733794.JPG
break,html.Screen,4_110_1,2023-09-08T18:53:28.052Z,,0,,,NaN,,,,,,false,,,,538288.900000006,538288.7000000179,,538288.5,,538292.072,8,400,,,
break_continue,html.Screen,4_110_2,2023-09-08T18:53:28.053Z,,0,,,NaN,,,,,,false,,,,538289.1000000238,538289,,538289,,538292.072,8,400,,,
sequence,flow.Sequence,4_110,2023-09-08T18:53:28.053Z,,0,,,2580.180000000051,completion,,,,,false,,,,538289.2000000179,538289,535692.099,535693.7000000179,535708.82,538292.072,8,400,,,
trial,html.Screen,4_111_0,2023-09-08T18:53:31.143Z,,0,3,,3087.028000023798,response,ISIC_8911740.JPG,5,ISIC_0026352.JPG,ISIC_0026352.JPG,false,0,keypress(z),500,541379.3000000119,541379.1000000238,538275.615,538289.3000000119,538292.072,541392.358,8,400,12,,ISIC_8911740.JPG
break,html.Screen,4_111_1,2023-09-08T18:53:31.143Z,,0,,,NaN,,,,,,false,,,,541379.8000000119,541379.7000000179,,541379.400000006,,541392.358,8,400,,,
break_continue,html.Screen,4_111_2,2023-09-08T18:53:31.144Z,,0,,,NaN,,,,,,false,,,,541380.1000000238,541380,,541379.900000006,,541392.358,8,400,,,
sequence,flow.Sequence,4_111,2023-09-08T18:53:31.144Z,,0,,,3087.9279999999562,completion,,,,,false,,,,541380.1000000238,541380,538275.615,538289.3000000119,538292.072,541392.358,8,400,,,
trial,html.Screen,4_112_0,2023-09-08T18:53:33.673Z,,0,3,,2517.1419999999925,response,ISIC_1927858.JPG,6,ISIC_0806140.JPG,ISIC_0806140.JPG,false,0,keypress(z),500,543909.6000000238,543909.5,541375.54,541380.3000000119,541392.358,543925.75,8,400,13,,ISIC_1927858.JPG
break,html.Screen,4_112_1,2023-09-08T18:53:33.674Z,,0,,,NaN,,,,,,false,,,,543910.1000000238,543910,,543909.7000000179,,543925.75,8,400,,,
break_continue,html.Screen,4_112_2,2023-09-08T18:53:33.674Z,,0,,,NaN,,,,,,false,,,,543910.400000006,543910.400000006,,543910.2000000179,,543925.75,8,400,,,
sequence,flow.Sequence,4_112,2023-09-08T18:53:33.674Z,,0,,,2518.042000005953,completion,,,,,false,,,,543910.5,543910.400000006,541375.54,541380.2000000179,541392.358,543925.75,8,400,,,
trial,html.Screen,4_113_0,2023-09-08T18:53:36.843Z,,0,3,,3154.050000011921,response,ISIC_0033194.JPG,5,ISIC_4408559.JPG,ISIC_4408559.JPG,false,0,keypress(z),500,547079.900000006,547079.8000000119,543909.023,543910.6000000238,543925.75,547092.386,8,400,14,,ISIC_0033194.JPG
break,html.Screen,4_113_1,2023-09-08T18:53:36.844Z,,0,,,NaN,,,,,,false,,,,547080.5,547080.400000006,,547080,,547092.386,8,400,,,
break_continue,html.Screen,4_113_2,2023-09-08T18:53:36.844Z,,0,,,NaN,,,,,,false,,,,547080.8000000119,547080.7000000179,,547080.6000000238,,547092.386,8,400,,,
sequence,flow.Sequence,4_113,2023-09-08T18:53:36.844Z,,0,,,3154.9500000178814,completion,,,,,false,,,,547080.900000006,547080.7000000179,543909.023,543910.5,543925.75,547092.386,8,400,,,
trial,html.Screen,4_114_0,2023-09-08T18:53:39.438Z,,0,3,,2581.914000011864,response,ISIC_0015129.JPG,4,ISIC_0003703.JPG,ISIC_0003703.JPG,false,0,keypress(z),500,549674.5,549674.3000000119,547075.805,547080.900000006,547092.386,549692.974,8,400,15,,ISIC_0015129.JPG
break,html.Screen,4_114_1,2023-09-08T18:53:39.439Z,,0,,,NaN,,,,,,false,,,,549675,549675,,549674.6000000238,,549692.974,8,400,,,
break_continue,html.Screen,4_114_2,2023-09-08T18:53:39.439Z,,0,,,NaN,,,,,,false,,,,549675.3000000119,549675.3000000119,,549675.1000000238,,549692.974,8,400,,,
sequence,flow.Sequence,4_114,2023-09-08T18:53:39.439Z,,0,,,2582.914000011864,completion,,,,,false,,,,549675.5,549675.3000000119,547075.805,547080.900000006,547092.386,549692.974,8,400,,,
trial,html.Screen,4_115_0,2023-09-08T18:53:42.529Z,,0,3,,3072.0259999999544,response,ISIC_5536710.JPG,6,ISIC_0011612.JPG,ISIC_5536710.JPG,false,1,keypress(m),500,552765.1000000238,552765,549659.057,549675.5,549692.974,552776.086,8,400,16,,ISIC_0011612.JPG
break,html.Screen,4_115_1,2023-09-08T18:53:42.529Z,,0,,,NaN,,,,,,false,,,,552765.7000000179,552765.6000000238,,552765.2000000179,,552776.086,8,400,,,
break_continue,html.Screen,4_115_2,2023-09-08T18:53:42.529Z,,0,,,NaN,,,,,,false,,,,552766,552765.8000000119,,552765.8000000119,,552776.086,8,400,,,
sequence,flow.Sequence,4_115,2023-09-08T18:53:42.530Z,,0,,,3072.8260000118753,completion,,,,,false,,,,552766.1000000238,552765.8000000119,549659.057,549675.5,549692.974,552776.086,8,400,,,
trial,html.Screen,4_116_0,2023-09-08T18:53:47.091Z,,0,3,,4551.514000023832,response,ISIC_9685928.JPG,6,ISIC_8822738.JPG,ISIC_9685928.JPG,false,1,keypress(m),500,557327.8000000119,557327.6000000238,552759.313,552766.1000000238,552776.086,557342.899,8,400,17,,ISIC_8822738.JPG
break,html.Screen,4_116_1,2023-09-08T18:53:47.092Z,,0,,,NaN,,,,,,false,,,,557328.3000000119,557328.2000000179,,557327.900000006,,557342.899,8,400,,,
break_continue,html.Screen,4_116_2,2023-09-08T18:53:47.092Z,,0,,,NaN,,,,,,false,,,,557328.6000000238,557328.6000000238,,557328.5,,557342.899,8,400,,,
sequence,flow.Sequence,4_116,2023-09-08T18:53:47.092Z,,0,,,4552.514000023832,completion,,,,,false,,,,557328.7000000179,557328.6000000238,552759.313,552766.1000000238,552776.086,557342.899,8,400,,,
trial,html.Screen,4_117_0,2023-09-08T18:53:54.198Z,,0,3,,7090.901000011945,response,ISIC_4408559.JPG,5,ISIC_0024229.JPG,ISIC_0024229.JPG,false,0,keypress(z),500,564434,564433.8000000119,557326.151,557328.8000000119,557342.899,564442.898,8,400,18,,ISIC_4408559.JPG
break,html.Screen,4_117_1,2023-09-08T18:53:54.199Z,,0,,,NaN,,,,,,false,,,,564434.6000000238,564434.400000006,,564434.1000000238,,564442.898,8,400,,,
break_continue,html.Screen,4_117_2,2023-09-08T18:53:54.199Z,,0,,,NaN,,,,,,false,,,,564434.8000000119,564434.7000000179,,564434.7000000179,,564442.898,8,400,,,
sequence,flow.Sequence,4_117,2023-09-08T18:53:54.199Z,,0,,,7091.801000017906,completion,,,,,false,,,,564434.900000006,564434.7000000179,557326.151,557328.8000000119,557342.899,564442.898,8,400,,,
trial,html.Screen,4_118_0,2023-09-08T18:53:56.921Z,,0,3,,2714.0020000059158,response,ISIC_1233104.JPG,4,ISIC_7025487.JPG,ISIC_1233104.JPG,false,1,keypress(m),500,567157.1000000238,567156.900000006,564426.385,564435,564442.898,567159.814,8,400,19,,ISIC_7025487.JPG
break,html.Screen,4_118_1,2023-09-08T18:53:56.922Z,,0,,,NaN,,,,,,false,,,,567157.7000000179,567157.5,,567157.2000000179,,567159.814,8,400,,,
break_continue,html.Screen,4_118_2,2023-09-08T18:53:56.922Z,,0,,,NaN,,,,,,false,,,,567157.8000000119,567157.8000000119,,567157.7000000179,,567159.814,8,400,,,
sequence,flow.Sequence,4_118,2023-09-08T18:53:56.922Z,,0,,,2714.902000011876,completion,,,,,false,,,,567158,567157.8000000119,564426.385,564435,564442.898,567159.814,8,400,,,
trial,html.Screen,4_119_0,2023-09-08T18:54:00.781Z,,0,3,,3856.185999999987,response,ISIC_3327201.JPG,5,ISIC_0055624.JPG,ISIC_0055624.JPG,false,0,keypress(z),500,571016.3000000119,571016,567143.038,567158,567159.814,571026.445,8,400,20,,ISIC_3327201.JPG
break,html.Screen,4_119_1,2023-09-08T18:54:00.781Z,,0,,,NaN,,,,,,false,,,,571016.900000006,571016.7000000179,,571016.400000006,,571026.445,8,400,,,
break_continue,html.Screen,4_119_2,2023-09-08T18:54:00.782Z,,0,,,NaN,,,,,,false,,,,571017.2000000179,571017.2000000179,,571016.900000006,,571026.445,8,400,,,
sequence,flow.Sequence,4_119,2023-09-08T18:54:00.782Z,,0,,,3857.3860000178684,completion,,,,,false,,,,571017.3000000119,571017.2000000179,567143.038,567158,567159.814,571026.445,8,400,,,
trial,html.Screen,4_120_0,2023-09-08T18:54:03.472Z,,0,3,,2680.555000000051,response,ISIC_0011703.JPG,4,ISIC_9685480.JPG,ISIC_0011703.JPG,false,1,keypress(m),500,573707.3000000119,573707,571009.774,571017.400000006,571026.445,573709.956,8,400,21,,ISIC_9685480.JPG
break,html.Screen,4_120_1,2023-09-08T18:54:03.472Z,,0,,,NaN,,,,,,false,,,,573707.900000006,573707.8000000119,,573707.5,,573709.956,8,400,,,
break_continue,html.Screen,4_120_2,2023-09-08T18:54:03.473Z,,0,,,NaN,,,,,,false,,,,573708.1000000238,573708.1000000238,,573708,,573709.956,8,400,,,
sequence,flow.Sequence,4_120,2023-09-08T18:54:03.473Z,,0,,,2681.655000023893,completion,,,,,false,,,,573708.3000000119,573708.1000000238,571009.774,571017.400000006,571026.445,573709.956,8,400,,,
trial,html.Screen,4_121_0,2023-09-08T18:54:06.547Z,,0,3,,3072.5439999999944,response,ISIC_5881453.JPG,6,ISIC_0011726.JPG,ISIC_5881453.JPG,false,1,keypress(m),500,576782.7000000179,576782.5,573693.152,573708.3000000119,573709.956,576793.374,8,400,22,,ISIC_0011726.JPG
break,html.Screen,4_121_1,2023-09-08T18:54:06.548Z,,0,,,NaN,,,,,,false,,,,576783.3000000119,576783.1000000238,,576782.900000006,,576793.374,8,400,,,
break_continue,html.Screen,4_121_2,2023-09-08T18:54:06.548Z,,0,,,NaN,,,,,,false,,,,576783.5,576783.5,,576783.400000006,,576793.374,8,400,,,
sequence,flow.Sequence,4_121,2023-09-08T18:54:06.548Z,,0,,,3073.5439999999944,completion,,,,,false,,,,576783.6000000238,576783.5,573693.152,573708.3000000119,573709.956,576793.374,8,400,,,
trial,html.Screen,4_122_0,2023-09-08T18:54:11.397Z,,0,3,,4839.326000017929,response,ISIC_0025127.JPG,6,ISIC_0027033.JPG,ISIC_0025127.JPG,false,1,keypress(m),500,581632.8000000119,581632.7000000179,576776.781,576783.6000000238,576793.374,581643.696,8,400,23,,ISIC_0027033.JPG
break,html.Screen,4_122_1,2023-09-08T18:54:11.398Z,,0,,,NaN,,,,,,false,,,,581633.5,581633.400000006,,581633,,581643.696,8,400,,,
break_continue,html.Screen,4_122_2,2023-09-08T18:54:11.398Z,,0,,,NaN,,,,,,false,,,,581633.8000000119,581633.7000000179,,581633.5,,581643.696,8,400,,,
sequence,flow.Sequence,4_122,2023-09-08T18:54:11.398Z,,0,,,4840.326000017929,completion,,,,,false,,,,581633.900000006,581633.7000000179,576776.781,576783.6000000238,576793.374,581643.696,8,400,,,
trial,html.Screen,4_123_0,2023-09-08T18:54:14.583Z,,0,3,,3175.1040000119247,response,ISIC_8241457.JPG,5,ISIC_7904250.JPG,ISIC_8241457.JPG,false,1,keypress(m),500,584818.900000006,584818.8000000119,581626.99,581634,581643.696,584827.049,8,400,24,,ISIC_7904250.JPG
break,html.Screen,4_123_1,2023-09-08T18:54:14.584Z,,0,,,NaN,,,,,,false,,,,584819.6000000238,584819.5,,584819.1000000238,,584827.049,8,400,,,
break_continue,html.Screen,4_123_2,2023-09-08T18:54:14.584Z,,0,,,NaN,,,,,,false,,,,584819.900000006,584819.8000000119,,584819.6000000238,,584827.049,8,400,,,
sequence,flow.Sequence,4_123,2023-09-08T18:54:14.584Z,,0,,,3176.1040000119247,completion,,,,,false,,,,584819.900000006,584819.8000000119,581626.99,581633.900000006,581643.696,584827.049,8,400,,,
trial,html.Screen,4_124_0,2023-09-08T18:54:18.010Z,,0,3,,3418.8510000059614,response,ISIC_8693637.JPG,5,ISIC_0011800.JPG,ISIC_8693637.JPG,false,1,keypress(m),500,588246,588245.900000006,584810.219,584820,584827.049,588260.534,8,400,25,,ISIC_0011800.JPG
break,html.Screen,4_124_1,2023-09-08T18:54:18.011Z,,0,,,NaN,,,,,,false,,,,588246.6000000238,588246.5,,588246.2000000179,,588260.534,8,400,,,
break_continue,html.Screen,4_124_2,2023-09-08T18:54:18.011Z,,0,,,NaN,,,,,,false,,,,588247,588246.900000006,,588246.7000000179,,588260.534,8,400,,,
sequence,flow.Sequence,4_124,2023-09-08T18:54:18.012Z,,0,,,3419.8510000059614,completion,,,,,false,,,,588247.2000000179,588246.900000006,584810.219,584820,584827.049,588260.534,8,400,,,
trial,html.Screen,4_125_0,2023-09-08T18:54:21.342Z,,0,3,,3316.8660000059754,response,ISIC_0030443.JPG,5,ISIC_0062978.JPG,ISIC_0062978.JPG,false,0,keypress(z),500,591577.6000000238,591577.400000006,588243.737,588247.3000000119,588260.534,591593.829,8,400,26,,ISIC_0030443.JPG
break,html.Screen,4_125_1,2023-09-08T18:54:21.343Z,,0,,,NaN,,,,,,false,,,,591578.1000000238,591578.1000000238,,591577.7000000179,,591593.829,8,400,,,
