sender,sender_type,sender_id,timestamp,meta,,blockNo,condition,duration,ended_on,img_left,img_reveal,img_right,loser,practice,response,response_action,selection_duration,time_commit,time_end,time_render,time_run,time_show,time_switch,total_blocks,total_trials,trialNo,url,winner
informed_consent,html.Screen,0,2023-11-01T16:05:58.109Z,"{""labjs_version"":""20.2.4"",""labjs_build"":{""flavor"":""production"",""commit"":""f5b4a49f956347addd546a832a3327688c2c0fef""},""location"":""https://run.pavlovia.org/MurrayBennett/melanoma-2afc/?participant=66310&platform=sona"",""userAgent"":""Mozilla/5.0 (Macintosh; Intel Mac OS X 10_15_7) AppleWebKit/605.1.15 (KHTML, like Gecko) Version/16.6 Safari/605.1.15"",""platform"":""MacIntel"",""language"":""en-US"",""locale"":""en-US"",""timeZone"":""America/Chicago"",""timezoneOffset"":300,""screen_width"":1440,""screen_height"":900,""scroll_width"":1440,""scroll_height"":772,""window_innerWidth"":1440,""window_innerHeight"":820,""devicePixelRatio"":2}",,,,5542,response,,,,,,consent,click button,,7743,7721,2179,2173,2208,7794,,,,"{""participant"":""66310"",""platform"":""sona""}",
Welcome,html.Screen,1,2023-11-01T16:06:43.863Z,,,,asymmetry,45727.00000000001,response,,,,,,continue,click button,,53498.00000000001,53495.00000000001,7768,7743,7794,53548,,,,,
trial,html.Screen,2_0_0,2023-11-01T16:06:48.470Z,,0,0,,4591.000000000007,response,ISIC_0069348.JPG,,ISIC_6997061.JPG,ISIC_6997061.JPG,true,0,keypress(z),500,58106,58105.00000000001,53514,53499,53548,58144,1,6,1,,ISIC_0069348.JPG
sequence,flow.Sequence,2_0,2023-11-01T16:06:48.470Z,,0,,,4557.000000000007,completion,,,,,true,,,,58106,58105.00000000001,53514,53499,53548,58144,1,6,,,
trial,html.Screen,2_1_0,2023-11-01T16:06:52.423Z,,0,0,,3948.0000000000073,response,ISIC_0057368.JPG,,ISIC_0009529.JPG,ISIC_0009529.JPG,true,0,keypress(z),500,62059.00000000001,62059.00000000001,58111,58106,58144,62109,1,6,2,,ISIC_0057368.JPG
sequence,flow.Sequence,2_1,2023-11-01T16:06:52.423Z,,0,,,3915.0000000000073,completion,,,,,true,,,,62059.00000000001,62059.00000000001,58111,58106,58144,62109,1,6,,,
trial,html.Screen,2_2_0,2023-11-01T16:06:57.688Z,,0,0,,5248,response,ISIC_9758671.JPG,,ISIC_0064954.JPG,ISIC_9758671.JPG,true,1,keypress(m),500,67325,67324,62076,62059.00000000001,62109,67372,1,6,3,,ISIC_0064954.JPG
sequence,flow.Sequence,2_2,2023-11-01T16:06:57.689Z,,0,,,5215,completion,,,,,true,,,,67325,67324,62076,62059.00000000001,62109,67372,1,6,,,
trial,html.Screen,2_3_0,2023-11-01T16:07:02.259Z,,0,0,,4556,response,ISIC_0005785.JPG,,ISIC_0000080.JPG,ISIC_0005785.JPG,true,1,keypress(m),500,71895,71895,67339,67326.00000000001,67372,71935,1,6,4,,ISIC_0000080.JPG
sequence,flow.Sequence,2_3,2023-11-01T16:07:02.261Z,,0,,,4523,completion,,,,,true,,,,71898,71895,67339,67325,67372,71935,1,6,,,
trial,html.Screen,2_4_0,2023-11-01T16:07:06.309Z,,0,0,,4044,response,ISIC_5390060.JPG,,ISIC_7944028.JPG,ISIC_7944028.JPG,true,0,keypress(z),500,75946,75946,71902,71898,71935,75999,1,6,5,,ISIC_5390060.JPG
sequence,flow.Sequence,2_4,2023-11-01T16:07:06.309Z,,0,,,4011,completion,,,,,true,,,,75946,75946,71902,71898,71935,75999,1,6,,,
trial,html.Screen,2_5_0,2023-11-01T16:07:10.188Z,,0,0,,3859,response,ISIC_0010188.JPG,,ISIC_0794216.JPG,ISIC_0794216.JPG,true,0,keypress(z),500,79825,79825,75966,75946,75999,79863,1,6,6,,ISIC_0010188.JPG
sequence,flow.Sequence,2_5,2023-11-01T16:07:10.188Z,,0,,,3826,completion,,,,,true,,,,79825,79825,75966,75946,75999,79863,1,6,,,
loop,flow.Loop,2,2023-11-01T16:07:10.189Z,,,,,26277,completion,,,,,true,,,,79825,79825,53514,53499,53548,79863,1,6,,,
exp_instructions,html.Screen,3,2023-11-01T16:07:25.900Z,,,,,15720,response,,,,,,continue,keypress(Space),,95538,95550,79830,79826.00000000001,79863,95587,,,,,
trial,html.Screen,4_0_0,2023-11-01T16:07:29.764Z,,0,1,,3848,response,ISIC_8523143.JPG,7,ISIC_0056156.JPG,ISIC_8523143.JPG,false,1,keypress(m),500,99402,99401,95553,95538,95587,99451,8,400,1,,ISIC_0056156.JPG
break,html.Screen,4_0_1,2023-11-01T16:07:29.766Z,,0,,,NaN,,,,,,false,,,,99403,99403,,99402,,99451,8,400,,,
break_continue,html.Screen,4_0_2,2023-11-01T16:07:29.766Z,,0,,,NaN,,,,,,false,,,,99404,99403,,99403,,99451,8,400,,,
sequence,flow.Sequence,4_0,2023-11-01T16:07:29.766Z,,0,,,3816,completion,,,,,false,,,,99404,99403,95553,95538,95587,99451,8,400,,,
trial,html.Screen,4_1_0,2023-11-01T16:07:32.937Z,,0,1,,3158,response,ISIC_0071352.JPG,6,ISIC_0010347.JPG,ISIC_0010347.JPG,false,0,keypress(z),500,102575,102575,99417,99404,99451,102615,8,400,2,,ISIC_0071352.JPG
break,html.Screen,4_1_1,2023-11-01T16:07:32.938Z,,0,,,NaN,,,,,,false,,,,102576.00000000001,102576.00000000001,,102575,,102615,8,400,,,
break_continue,html.Screen,4_1_2,2023-11-01T16:07:32.938Z,,0,,,NaN,,,,,,false,,,,102576.00000000001,102576.00000000001,,102576.00000000001,,102615,8,400,,,
sequence,flow.Sequence,4_1,2023-11-01T16:07:32.939Z,,0,,,3125.0000000000146,completion,,,,,false,,,,102576.00000000001,102576.00000000001,99417,99404,99451,102615,8,400,,,
trial,html.Screen,4_2_0,2023-11-01T16:07:38.141Z,,0,1,,5197,response,ISIC_8773962.JPG,9,ISIC_0011633.JPG,ISIC_8773962.JPG,false,1,keypress(m),500,107780,107779,102582,102577,102615,107828,8,400,3,,ISIC_0011633.JPG
break,html.Screen,4_2_1,2023-11-01T16:07:38.142Z,,0,,,NaN,,,,,,false,,,,107780,107780,,107780,,107828,8,400,,,
break_continue,html.Screen,4_2_2,2023-11-01T16:07:38.142Z,,0,,,NaN,,,,,,false,,,,107780,107780,,107780,,107828,8,400,,,
sequence,flow.Sequence,4_2,2023-11-01T16:07:38.142Z,,0,,,5165,completion,,,,,false,,,,107780,107780,102582,102576.00000000001,102615,107828,8,400,,,
trial,html.Screen,4_3_0,2023-11-01T16:07:41.842Z,,0,1,,3684,response,ISIC_0057759.JPG,1,ISIC_8814672.JPG,ISIC_8814672.JPG,false,0,keypress(z),500,111480,111480,107796,107781,107828,111526,8,400,4,,ISIC_0057759.JPG
break,html.Screen,4_3_1,2023-11-01T16:07:41.843Z,,0,,,NaN,,,,,,false,,,,111481.00000000001,111481.00000000001,,111481.00000000001,,111526,8,400,,,
break_continue,html.Screen,4_3_2,2023-11-01T16:07:41.843Z,,0,,,NaN,,,,,,false,,,,111481.00000000001,111481.00000000001,,111481.00000000001,,111526,8,400,,,
sequence,flow.Sequence,4_3,2023-11-01T16:07:41.844Z,,0,,,3653.0000000000146,completion,,,,,false,,,,111482,111481.00000000001,107796,107781,107828,111526,8,400,,,
trial,html.Screen,4_4_0,2023-11-01T16:07:46.441Z,,0,1,,4587.000000000015,response,ISIC_0010995.JPG,10,ISIC_4587506.JPG,ISIC_4587506.JPG,false,0,keypress(z),500,116079.00000000001,116079.00000000001,111492,111482,111526,116122,8,400,5,,ISIC_0010995.JPG
break,html.Screen,4_4_1,2023-11-01T16:07:46.441Z,,0,,,NaN,,,,,,false,,,,116080,116079.00000000001,,116079.00000000001,,116122,8,400,,,
break_continue,html.Screen,4_4_2,2023-11-01T16:07:46.442Z,,0,,,NaN,,,,,,false,,,,116080,116080,,116080,,116122,8,400,,,
sequence,flow.Sequence,4_4,2023-11-01T16:07:46.442Z,,0,,,4554,completion,,,,,false,,,,116080,116080,111492,111482,111526,116122,8,400,,,
trial,html.Screen,4_5_0,2023-11-01T16:07:50.898Z,,0,1,,4447,response,ISIC_5599298.JPG,8,ISIC_0883408.JPG,ISIC_5599298.JPG,false,1,keypress(m),500,120537,120536,116089,116080,116122,120587,8,400,6,,ISIC_0883408.JPG
break,html.Screen,4_5_1,2023-11-01T16:07:50.899Z,,0,,,NaN,,,,,,false,,,,120537,120537,,120537,,120587,8,400,,,
break_continue,html.Screen,4_5_2,2023-11-01T16:07:50.899Z,,0,,,NaN,,,,,,false,,,,120538,120538,,120537,,120587,8,400,,,
sequence,flow.Sequence,4_5,2023-11-01T16:07:50.899Z,,0,,,4416,completion,,,,,false,,,,120538,120538,116089,116080,116122,120587,8,400,,,
trial,html.Screen,4_6_0,2023-11-01T16:07:54.595Z,,0,1,,3680,response,ISIC_3649632.JPG,5,ISIC_0028467.JPG,ISIC_0028467.JPG,false,0,keypress(z),500,124233,124233,120553,120538,120587,124284,8,400,7,,ISIC_3649632.JPG
break,html.Screen,4_6_1,2023-11-01T16:07:54.595Z,,0,,,NaN,,,,,,false,,,,124234.00000000001,124234.00000000001,,124234.00000000001,,124284,8,400,,,
break_continue,html.Screen,4_6_2,2023-11-01T16:07:54.596Z,,0,,,NaN,,,,,,false,,,,124234.00000000001,124234.00000000001,,124234.00000000001,,124284,8,400,,,
sequence,flow.Sequence,4_6,2023-11-01T16:07:54.596Z,,0,,,3647.0000000000146,completion,,,,,false,,,,124235,124234.00000000001,120553,120538,120587,124284,8,400,,,
trial,html.Screen,4_7_0,2023-11-01T16:07:58.736Z,,0,1,,4124,response,ISIC_0053574.JPG,15,ISIC_0067564.JPG,ISIC_0053574.JPG,false,1,keypress(m),500,128375,128375,124251,124235,124284,128415,8,400,8,,ISIC_0067564.JPG
break,html.Screen,4_7_1,2023-11-01T16:07:58.736Z,,0,,,NaN,,,,,,false,,,,128375,128375,,128375,,128415,8,400,,,
break_continue,html.Screen,4_7_2,2023-11-01T16:07:58.737Z,,0,,,NaN,,,,,,false,,,,128376,128376,,128375,,128415,8,400,,,
sequence,flow.Sequence,4_7,2023-11-01T16:07:58.737Z,,0,,,4092,completion,,,,,false,,,,128376,128376,124251,124235,124284,128415,8,400,,,
trial,html.Screen,4_8_0,2023-11-01T16:08:02.016Z,,0,1,,3273,response,ISIC_2957732.JPG,5,ISIC_1674754.JPG,ISIC_2957732.JPG,false,1,keypress(m),500,131655,131655,128382,128376,128415,131696,8,400,9,,ISIC_1674754.JPG
break,html.Screen,4_8_1,2023-11-01T16:08:02.016Z,,0,,,NaN,,,,,,false,,,,131655,131655,,131655,,131696,8,400,,,
break_continue,html.Screen,4_8_2,2023-11-01T16:08:02.017Z,,0,,,NaN,,,,,,false,,,,131656,131656,,131656,,131696,8,400,,,
sequence,flow.Sequence,4_8,2023-11-01T16:08:02.017Z,,0,,,3241,completion,,,,,false,,,,131656,131656,128382,128376,128415,131696,8,400,,,
trial,html.Screen,4_9_0,2023-11-01T16:08:07.164Z,,0,1,,5140,response,ISIC_0002184.JPG,4,ISIC_5697228.JPG,ISIC_0002184.JPG,false,1,keypress(m),500,136803,136803,131663,131656,131696,136843,8,400,10,,ISIC_5697228.JPG
break,html.Screen,4_9_1,2023-11-01T16:08:07.164Z,,0,,,NaN,,,,,,false,,,,136804,136803,,136803,,136843,8,400,,,
break_continue,html.Screen,4_9_2,2023-11-01T16:08:07.165Z,,0,,,NaN,,,,,,false,,,,136804,136804,,136804,,136843,8,400,,,
sequence,flow.Sequence,4_9,2023-11-01T16:08:07.165Z,,0,,,5108,completion,,,,,false,,,,136804,136804,131663,131656,131696,136843,8,400,,,
trial,html.Screen,4_10_0,2023-11-01T16:08:11.516Z,,0,1,,4347,response,ISIC_0011798.JPG,2,ISIC_0071826.JPG,ISIC_0011798.JPG,false,1,keypress(m),500,141156,141156,136809,136804,136843,141206,8,400,11,,ISIC_0071826.JPG
break,html.Screen,4_10_1,2023-11-01T16:08:11.517Z,,0,,,NaN,,,,,,false,,,,141157,141157,,141156,,141206,8,400,,,
break_continue,html.Screen,4_10_2,2023-11-01T16:08:11.518Z,,0,,,NaN,,,,,,false,,,,141157,141157,,141157,,141206,8,400,,,
sequence,flow.Sequence,4_10,2023-11-01T16:08:11.518Z,,0,,,4314,completion,,,,,false,,,,141157,141157,136809,136804,136843,141206,8,400,,,
trial,html.Screen,4_11_0,2023-11-01T16:08:15.410Z,,0,1,,3876,response,ISIC_5420979.JPG,13,ISIC_0009998.JPG,ISIC_5420979.JPG,false,1,keypress(m),500,145050,145049,141173,141158.00000000003,141206,145086,8,400,12,,ISIC_0009998.JPG
break,html.Screen,4_11_1,2023-11-01T16:08:15.411Z,,0,,,NaN,,,,,,false,,,,145050,145050,,145050,,145086,8,400,,,
break_continue,html.Screen,4_11_2,2023-11-01T16:08:15.411Z,,0,,,NaN,,,,,,false,,,,145050,145050,,145050,,145086,8,400,,,
sequence,flow.Sequence,4_11,2023-11-01T16:08:15.411Z,,0,,,3844,completion,,,,,false,,,,145051.00000000003,145050,141173,141158.00000000003,141206,145086,8,400,,,
trial,html.Screen,4_12_0,2023-11-01T16:08:18.935Z,,0,1,,3520,response,ISIC_0012395.JPG,5,ISIC_0758797.JPG,ISIC_0758797.JPG,false,0,keypress(z),500,148575.00000000003,148574,145054,145051.00000000003,145086,148618,8,400,13,,ISIC_0012395.JPG
break,html.Screen,4_12_1,2023-11-01T16:08:18.935Z,,0,,,NaN,,,,,,false,,,,148575.00000000003,148575.00000000003,,148575.00000000003,,148618,8,400,,,
break_continue,html.Screen,4_12_2,2023-11-01T16:08:18.936Z,,0,,,NaN,,,,,,false,,,,148575.00000000003,148575.00000000003,,148575.00000000003,,148618,8,400,,,
sequence,flow.Sequence,4_12,2023-11-01T16:08:18.936Z,,0,,,3489.000000000029,completion,,,,,false,,,,148575.00000000003,148575.00000000003,145054,145051.00000000003,145086,148618,8,400,,,
trial,html.Screen,4_13_0,2023-11-01T16:08:22.791Z,,0,1,,3845,response,ISIC_4804158.JPG,11,ISIC_5833015.JPG,ISIC_5833015.JPG,false,0,keypress(z),500,152431,152430,148585,148575.00000000003,148618,152482,8,400,14,,ISIC_4804158.JPG
break,html.Screen,4_13_1,2023-11-01T16:08:22.791Z,,0,,,NaN,,,,,,false,,,,152431,152431,,152431,,152482,8,400,,,
break_continue,html.Screen,4_13_2,2023-11-01T16:08:22.791Z,,0,,,NaN,,,,,,false,,,,152431,152431,,152431,,152482,8,400,,,
sequence,flow.Sequence,4_13,2023-11-01T16:08:22.792Z,,0,,,3813,completion,,,,,false,,,,152431,152431,148585,148575.00000000003,148618,152482,8,400,,,
trial,html.Screen,4_14_0,2023-11-01T16:08:28.374Z,,0,1,,5564,response,ISIC_0013917.JPG,0,ISIC_9476244.JPG,ISIC_0013917.JPG,false,1,keypress(m),500,158014,158013,152449,152431,152482,158062,8,400,15,,ISIC_9476244.JPG
break,html.Screen,4_14_1,2023-11-01T16:08:28.375Z,,0,,,NaN,,,,,,false,,,,158015.00000000003,158015.00000000003,,158014,,158062,8,400,,,
break_continue,html.Screen,4_14_2,2023-11-01T16:08:28.375Z,,0,,,NaN,,,,,,false,,,,158015.00000000003,158015.00000000003,,158015.00000000003,,158062,8,400,,,
sequence,flow.Sequence,4_14,2023-11-01T16:08:28.375Z,,0,,,5533.000000000029,completion,,,,,false,,,,158015.00000000003,158015.00000000003,152449,152431,152482,158062,8,400,,,
trial,html.Screen,4_15_0,2023-11-01T16:08:31.611Z,,0,1,,3222,response,ISIC_0055526.JPG,3,ISIC_0594534.JPG,ISIC_0594534.JPG,false,0,keypress(z),500,161251,161250,158028,158016,158062,161293,8,400,16,,ISIC_0055526.JPG
break,html.Screen,4_15_1,2023-11-01T16:08:31.611Z,,0,,,NaN,,,,,,false,,,,161252,161252,,161251,,161293,8,400,,,
break_continue,html.Screen,4_15_2,2023-11-01T16:08:31.612Z,,0,,,NaN,,,,,,false,,,,161252,161252,,161252,,161293,8,400,,,
sequence,flow.Sequence,4_15,2023-11-01T16:08:31.612Z,,0,,,3190,completion,,,,,false,,,,161252,161252,158028,158015.00000000003,158062,161293,8,400,,,
trial,html.Screen,4_16_0,2023-11-01T16:08:35.390Z,,0,1,,3770,response,ISIC_0033239.JPG,6,ISIC_2075546.JPG,ISIC_0033239.JPG,false,1,keypress(m),500,165031,165030,161260,161253,161293,165073,8,400,17,,ISIC_2075546.JPG
break,html.Screen,4_16_1,2023-11-01T16:08:35.391Z,,0,,,NaN,,,,,,false,,,,165031,165031,,165031,,165073,8,400,,,
break_continue,html.Screen,4_16_2,2023-11-01T16:08:35.391Z,,0,,,NaN,,,,,,false,,,,165031,165031,,165031,,165073,8,400,,,
sequence,flow.Sequence,4_16,2023-11-01T16:08:35.391Z,,0,,,3738,completion,,,,,false,,,,165032,165031,161260,161252,161293,165073,8,400,,,
trial,html.Screen,4_17_0,2023-11-01T16:08:39.458Z,,0,1,,4058,response,ISIC_1658623.JPG,15,ISIC_5309572.JPG,ISIC_1658623.JPG,false,1,keypress(m),500,169099,169099,165041,165032,165073,169138,8,400,18,,ISIC_5309572.JPG
break,html.Screen,4_17_1,2023-11-01T16:08:39.459Z,,0,,,NaN,,,,,,false,,,,169100,169099,,169099,,169138,8,400,,,
break_continue,html.Screen,4_17_2,2023-11-01T16:08:39.459Z,,0,,,NaN,,,,,,false,,,,169100,169100,,169100,,169138,8,400,,,
sequence,flow.Sequence,4_17,2023-11-01T16:08:39.460Z,,0,,,4027,completion,,,,,false,,,,169100,169100,165041,165032,165073,169138,8,400,,,
trial,html.Screen,4_18_0,2023-11-01T16:08:42.592Z,,0,1,,3129,response,ISIC_2660216.JPG,3,ISIC_4229473.JPG,ISIC_2660216.JPG,false,1,keypress(m),500,172233,172233,169104,169100,169138,172285,8,400,19,,ISIC_4229473.JPG
break,html.Screen,4_18_1,2023-11-01T16:08:42.593Z,,0,,,NaN,,,,,,false,,,,172234,172233,,172233,,172285,8,400,,,
break_continue,html.Screen,4_18_2,2023-11-01T16:08:42.593Z,,0,,,NaN,,,,,,false,,,,172234,172234,,172234,,172285,8,400,,,
sequence,flow.Sequence,4_18,2023-11-01T16:08:42.593Z,,0,,,3096,completion,,,,,false,,,,172234,172234,169104,169100,169138,172285,8,400,,,
trial,html.Screen,4_19_0,2023-11-01T16:08:46.299Z,,0,1,,3687,response,ISIC_0059905.JPG,7,ISIC_0010207.JPG,ISIC_0010207.JPG,false,0,keypress(z),500,175940,175939,172252,172234,172285,175984,8,400,20,,ISIC_0059905.JPG
break,html.Screen,4_19_1,2023-11-01T16:08:46.299Z,,0,,,NaN,,,,,,false,,,,175940,175940,,175940,,175984,8,400,,,
break_continue,html.Screen,4_19_2,2023-11-01T16:08:46.300Z,,0,,,NaN,,,,,,false,,,,175940,175940,,175940,,175984,8,400,,,
sequence,flow.Sequence,4_19,2023-11-01T16:08:46.300Z,,0,,,3655,completion,,,,,false,,,,175940,175940,172252,172234,172285,175984,8,400,,,
trial,html.Screen,4_20_0,2023-11-01T16:08:50.668Z,,0,1,,4359,response,ISIC_2974214.JPG,9,ISIC_9574101.JPG,ISIC_9574101.JPG,false,0,keypress(z),500,180309,180309,175950,175941,175984,180347,8,400,21,,ISIC_2974214.JPG
break,html.Screen,4_20_1,2023-11-01T16:08:50.669Z,,0,,,NaN,,,,,,false,,,,180310,180310,,180309,,180347,8,400,,,
break_continue,html.Screen,4_20_2,2023-11-01T16:08:50.669Z,,0,,,NaN,,,,,,false,,,,180310,180310,,180310,,180347,8,400,,,
sequence,flow.Sequence,4_20,2023-11-01T16:08:50.670Z,,0,,,4326,completion,,,,,false,,,,180311,180310,175950,175941,175984,180347,8,400,,,
trial,html.Screen,4_21_0,2023-11-01T16:08:58.362Z,,0,1,,7690,response,ISIC_6609484.JPG,3,ISIC_0028418.JPG,ISIC_0028418.JPG,false,0,keypress(z),500,188003,188003,180313,180311,180347,188042,8,400,22,,ISIC_6609484.JPG
break,html.Screen,4_21_1,2023-11-01T16:08:58.363Z,,0,,,NaN,,,,,,false,,,,188004,188004,,188003,,188042,8,400,,,
break_continue,html.Screen,4_21_2,2023-11-01T16:08:58.363Z,,0,,,NaN,,,,,,false,,,,188004,188004,,188004,,188042,8,400,,,
sequence,flow.Sequence,4_21,2023-11-01T16:08:58.363Z,,0,,,7657,completion,,,,,false,,,,188004,188004,180313,180311,180347,188042,8,400,,,
trial,html.Screen,4_22_0,2023-11-01T16:09:03.165Z,,0,1,,4797,response,ISIC_2372468.JPG,14,ISIC_0054792.JPG,ISIC_2372468.JPG,false,1,keypress(m),500,192806,192806,188009,188005,188042,192856,8,400,23,,ISIC_0054792.JPG
break,html.Screen,4_22_1,2023-11-01T16:09:03.165Z,,0,,,NaN,,,,,,false,,,,192807.00000000003,192807.00000000003,,192806,,192856,8,400,,,
break_continue,html.Screen,4_22_2,2023-11-01T16:09:03.165Z,,0,,,NaN,,,,,,false,,,,192807.00000000003,192807.00000000003,,192807.00000000003,,192856,8,400,,,
sequence,flow.Sequence,4_22,2023-11-01T16:09:03.166Z,,0,,,4765.000000000029,completion,,,,,false,,,,192807.00000000003,192807.00000000003,188009,188004,188042,192856,8,400,,,
trial,html.Screen,4_23_0,2023-11-01T16:09:07.094Z,,0,1,,3914,response,ISIC_5992826.JPG,5,ISIC_4527661.JPG,ISIC_4527661.JPG,false,0,keypress(z),500,196736,196736,192822,192807.00000000003,192856,196786,8,400,24,,ISIC_5992826.JPG
break,html.Screen,4_23_1,2023-11-01T16:09:07.095Z,,0,,,NaN,,,,,,false,,,,196737,196737,,196736,,196786,8,400,,,
break_continue,html.Screen,4_23_2,2023-11-01T16:09:07.095Z,,0,,,NaN,,,,,,false,,,,196737,196737,,196737,,196786,8,400,,,
sequence,flow.Sequence,4_23,2023-11-01T16:09:07.095Z,,0,,,3881,completion,,,,,false,,,,196737,196737,192822,192807.00000000003,192856,196786,8,400,,,
trial,html.Screen,4_24_0,2023-11-01T16:09:11.810Z,,0,1,,4700,response,ISIC_9936773.JPG,1,ISIC_9034574.JPG,ISIC_9936773.JPG,false,1,keypress(m),500,201452,201452,196752,196737,196786,201499,8,400,25,,ISIC_9034574.JPG
break,html.Screen,4_24_1,2023-11-01T16:09:11.811Z,,0,,,NaN,,,,,,false,,,,201453,201453,,201452,,201499,8,400,,,
break_continue,html.Screen,4_24_2,2023-11-01T16:09:11.811Z,,0,,,NaN,,,,,,false,,,,201453,201453,,201453,,201499,8,400,,,
sequence,flow.Sequence,4_24,2023-11-01T16:09:11.811Z,,0,,,4667,completion,,,,,false,,,,201453,201453,196752,196737,196786,201499,8,400,,,
trial,html.Screen,4_25_0,2023-11-01T16:09:16.510Z,,0,1,,4685,response,ISIC_2619533.JPG,3,ISIC_8897947.JPG,ISIC_8897947.JPG,false,0,keypress(z),500,206152.00000000003,206151,201466,201453,201499,206196,8,400,26,,ISIC_2619533.JPG
break,html.Screen,4_25_1,2023-11-01T16:09:16.510Z,,0,,,NaN,,,,,,false,,,,206152.00000000003,206152.00000000003,,206152.00000000003,,206196,8,400,,,
break_continue,html.Screen,4_25_2,2023-11-01T16:09:16.510Z,,0,,,NaN,,,,,,false,,,,206152.00000000003,206152.00000000003,,206152.00000000003,,206196,8,400,,,
sequence,flow.Sequence,4_25,2023-11-01T16:09:16.510Z,,0,,,4653.000000000029,completion,,,,,false,,,,206152.00000000003,206152.00000000003,201466,201453,201499,206196,8,400,,,
trial,html.Screen,4_26_0,2023-11-01T16:09:19.929Z,,0,1,,3408,response,ISIC_0650126.JPG,8,ISIC_9505595.JPG,ISIC_9505595.JPG,false,0,keypress(z),500,209571,209571,206163,206152.00000000003,206196,209611,8,400,27,,ISIC_0650126.JPG
break,html.Screen,4_26_1,2023-11-01T16:09:19.929Z,,0,,,NaN,,,,,,false,,,,209572,209571,,209571,,209611,8,400,,,
break_continue,html.Screen,4_26_2,2023-11-01T16:09:19.930Z,,0,,,NaN,,,,,,false,,,,209572,209572,,209572,,209611,8,400,,,
sequence,flow.Sequence,4_26,2023-11-01T16:09:19.930Z,,0,,,3376,completion,,,,,false,,,,209572,209572,206163,206152.00000000003,206196,209611,8,400,,,
trial,html.Screen,4_27_0,2023-11-01T16:09:26.433Z,,0,1,,6497.000000000029,response,ISIC_0068080.JPG,3,ISIC_8184471.JPG,ISIC_8184471.JPG,false,0,keypress(z),500,216075.00000000003,216075.00000000003,209578,209572,209611,216123,8,400,28,,ISIC_0068080.JPG
break,html.Screen,4_27_1,2023-11-01T16:09:26.433Z,,0,,,NaN,,,,,,false,,,,216076,216076,,216075.00000000003,,216123,8,400,,,
break_continue,html.Screen,4_27_2,2023-11-01T16:09:26.434Z,,0,,,NaN,,,,,,false,,,,216076,216076,,216076,,216123,8,400,,,
sequence,flow.Sequence,4_27,2023-11-01T16:09:26.434Z,,0,,,6465,completion,,,,,false,,,,216076,216076,209578,209572,209611,216123,8,400,,,
trial,html.Screen,4_28_0,2023-11-01T16:09:31.457Z,,0,1,,5010.000000000029,response,ISIC_0053469.JPG,5,ISIC_0027126.JPG,ISIC_0027126.JPG,false,0,keypress(z),500,221099.00000000003,221099.00000000003,216089,216076,216123,221153,8,400,29,,ISIC_0053469.JPG
break,html.Screen,4_28_1,2023-11-01T16:09:31.457Z,,0,,,NaN,,,,,,false,,,,221100,221100,,221099.00000000003,,221153,8,400,,,
break_continue,html.Screen,4_28_2,2023-11-01T16:09:31.458Z,,0,,,NaN,,,,,,false,,,,221100,221100,,221100,,221153,8,400,,,
sequence,flow.Sequence,4_28,2023-11-01T16:09:31.458Z,,0,,,4977,completion,,,,,false,,,,221100,221100,216089,216076,216123,221153,8,400,,,
trial,html.Screen,4_29_0,2023-11-01T16:09:34.930Z,,0,1,,3454,response,ISIC_0028445.JPG,0,ISIC_0060403.JPG,ISIC_0028445.JPG,false,1,keypress(m),500,224573,224573,221119,221100,221153,224618,8,400,30,,ISIC_0060403.JPG
break,html.Screen,4_29_1,2023-11-01T16:09:34.931Z,,0,,,NaN,,,,,,false,,,,224573,224573,,224573,,224618,8,400,,,
break_continue,html.Screen,4_29_2,2023-11-01T16:09:34.931Z,,0,,,NaN,,,,,,false,,,,224574,224573,,224573,,224618,8,400,,,
sequence,flow.Sequence,4_29,2023-11-01T16:09:34.931Z,,0,,,3420,completion,,,,,false,,,,224574,224573,221119,221100,221153,224618,8,400,,,
trial,html.Screen,4_30_0,2023-11-01T16:09:39.036Z,,0,1,,4094,response,ISIC_1373468.JPG,6,ISIC_0481702.JPG,ISIC_1373468.JPG,false,1,keypress(m),500,228679,228679,224585,224574,224618,228731,8,400,31,,ISIC_0481702.JPG
break,html.Screen,4_30_1,2023-11-01T16:09:39.036Z,,0,,,NaN,,,,,,false,,,,228679,228679,,228679,,228731,8,400,,,
break_continue,html.Screen,4_30_2,2023-11-01T16:09:39.037Z,,0,,,NaN,,,,,,false,,,,228680,228679,,228679,,228731,8,400,,,
sequence,flow.Sequence,4_30,2023-11-01T16:09:39.037Z,,0,,,4061,completion,,,,,false,,,,228680,228679,224585,224574,224618,228731,8,400,,,
trial,html.Screen,4_31_0,2023-11-01T16:09:42.747Z,,0,1,,3692.000000000029,response,ISIC_5388485.JPG,7,ISIC_5823292.JPG,ISIC_5388485.JPG,false,1,keypress(m),500,232390.00000000003,232390.00000000003,228698,228680,228731,232430,8,400,32,,ISIC_5823292.JPG
break,html.Screen,4_31_1,2023-11-01T16:09:42.747Z,,0,,,NaN,,,,,,false,,,,232390.00000000003,232390.00000000003,,232390.00000000003,,232430,8,400,,,
break_continue,html.Screen,4_31_2,2023-11-01T16:09:42.748Z,,0,,,NaN,,,,,,false,,,,232391,232391,,232390.00000000003,,232430,8,400,,,
sequence,flow.Sequence,4_31,2023-11-01T16:09:42.748Z,,0,,,3660,completion,,,,,false,,,,232391,232391,228698,228680,228731,232430,8,400,,,
trial,html.Screen,4_32_0,2023-11-01T16:09:46.932Z,,0,1,,4180.000000000029,response,ISIC_0025489.JPG,8,ISIC_0026498.JPG,ISIC_0026498.JPG,false,0,keypress(z),500,236575.00000000003,236575.00000000003,232395,232391,232430,236627,8,400,33,,ISIC_0025489.JPG
break,html.Screen,4_32_1,2023-11-01T16:09:46.933Z,,0,,,NaN,,,,,,false,,,,236576,236576,,236576,,236627,8,400,,,
break_continue,html.Screen,4_32_2,2023-11-01T16:09:46.933Z,,0,,,NaN,,,,,,false,,,,236576,236576,,236576,,236627,8,400,,,
sequence,flow.Sequence,4_32,2023-11-01T16:09:46.933Z,,0,,,4146,completion,,,,,false,,,,236577,236576,232395,232391,232430,236627,8,400,,,
trial,html.Screen,4_33_0,2023-11-01T16:09:49.898Z,,0,1,,2949,response,ISIC_0026208.JPG,8,ISIC_0061300.JPG,ISIC_0026208.JPG,false,1,keypress(m),500,239542,239542,236593,236577,236627,239591,8,400,34,,ISIC_0061300.JPG
break,html.Screen,4_33_1,2023-11-01T16:09:49.899Z,,0,,,NaN,,,,,,false,,,,239542,239542,,239542,,239591,8,400,,,
break_continue,html.Screen,4_33_2,2023-11-01T16:09:49.899Z,,0,,,NaN,,,,,,false,,,,239542,239542,,239542,,239591,8,400,,,
sequence,flow.Sequence,4_33,2023-11-01T16:09:49.899Z,,0,,,2915,completion,,,,,false,,,,239543,239542,236593,236577,236627,239591,8,400,,,
trial,html.Screen,4_34_0,2023-11-01T16:09:53.483Z,,0,1,,3568,response,ISIC_9317483.JPG,5,ISIC_7566505.JPG,ISIC_7566505.JPG,false,0,keypress(z),500,243126,243126,239558,239543,239591,243172,8,400,35,,ISIC_9317483.JPG
break,html.Screen,4_34_1,2023-11-01T16:09:53.483Z,,0,,,NaN,,,,,,false,,,,243127,243127,,243126,,243172,8,400,,,
break_continue,html.Screen,4_34_2,2023-11-01T16:09:53.483Z,,0,,,NaN,,,,,,false,,,,243127,243127,,243127,,243172,8,400,,,
sequence,flow.Sequence,4_34,2023-11-01T16:09:53.483Z,,0,,,3536,completion,,,,,false,,,,243127,243127,239558,239543,239591,243172,8,400,,,
trial,html.Screen,4_35_0,2023-11-01T16:09:57.173Z,,0,1,,3677,response,ISIC_0033476.JPG,8,ISIC_0033017.JPG,ISIC_0033476.JPG,false,1,keypress(m),500,246816,246816,243139,243127,243172,246870,8,400,36,,ISIC_0033017.JPG
break,html.Screen,4_35_1,2023-11-01T16:09:57.173Z,,0,,,NaN,,,,,,false,,,,246817,246817,,246816,,246870,8,400,,,
break_continue,html.Screen,4_35_2,2023-11-01T16:09:57.174Z,,0,,,NaN,,,,,,false,,,,246817,246817,,246817,,246870,8,400,,,
sequence,flow.Sequence,4_35,2023-11-01T16:09:57.174Z,,0,,,3645,completion,,,,,false,,,,246817,246817,243139,243127,243172,246870,8,400,,,
trial,html.Screen,4_36_0,2023-11-01T16:10:00.547Z,,0,1,,3355,response,ISIC_0032945.JPG,2,ISIC_0059943.JPG,ISIC_0032945.JPG,false,1,keypress(m),500,250191,250191,246836,246818,246870,250234,8,400,37,,ISIC_0059943.JPG
break,html.Screen,4_36_1,2023-11-01T16:10:00.548Z,,0,,,NaN,,,,,,false,,,,250192,250192,,250191,,250234,8,400,,,
break_continue,html.Screen,4_36_2,2023-11-01T16:10:00.548Z,,0,,,NaN,,,,,,false,,,,250192,250192,,250192,,250234,8,400,,,
sequence,flow.Sequence,4_36,2023-11-01T16:10:00.548Z,,0,,,3322,completion,,,,,false,,,,250192,250192,246836,246818,246870,250234,8,400,,,
trial,html.Screen,4_37_0,2023-11-01T16:10:03.958Z,,0,1,,3402,response,ISIC_0000466.JPG,0,ISIC_0005377.JPG,ISIC_0005377.JPG,false,0,keypress(z),500,253602,253602,250200,250192,250234,253648,8,400,38,,ISIC_0000466.JPG
break,html.Screen,4_37_1,2023-11-01T16:10:03.958Z,,0,,,NaN,,,,,,false,,,,253602,253602,,253602,,253648,8,400,,,
break_continue,html.Screen,4_37_2,2023-11-01T16:10:03.959Z,,0,,,NaN,,,,,,false,,,,253602,253602,,253602,,253648,8,400,,,
sequence,flow.Sequence,4_37,2023-11-01T16:10:03.959Z,,0,,,3368,completion,,,,,false,,,,253603,253602,250200,250192,250234,253648,8,400,,,
trial,html.Screen,4_38_0,2023-11-01T16:10:07.927Z,,0,1,,3955.000000000029,response,ISIC_0031674.JPG,15,ISIC_5578239.JPG,ISIC_0031674.JPG,false,1,keypress(m),500,257571.00000000003,257571.00000000003,253616,253603,253648,257613,8,400,39,,ISIC_5578239.JPG
break,html.Screen,4_38_1,2023-11-01T16:10:07.927Z,,0,,,NaN,,,,,,false,,,,257572,257571.00000000003,,257571.00000000003,,257613,8,400,,,
break_continue,html.Screen,4_38_2,2023-11-01T16:10:07.928Z,,0,,,NaN,,,,,,false,,,,257572,257572,,257572,,257613,8,400,,,
sequence,flow.Sequence,4_38,2023-11-01T16:10:07.928Z,,0,,,3924,completion,,,,,false,,,,257572,257572,253616,253603,253648,257613,8,400,,,
trial,html.Screen,4_39_0,2023-11-01T16:10:11.423Z,,0,1,,3488,response,ISIC_3251773.JPG,3,ISIC_7223327.JPG,ISIC_3251773.JPG,false,1,keypress(m),500,261067,261067,257579,257572,257613,261110,8,400,40,,ISIC_7223327.JPG
break,html.Screen,4_39_1,2023-11-01T16:10:11.423Z,,0,,,NaN,,,,,,false,,,,261067,261067,,261067,,261110,8,400,,,
break_continue,html.Screen,4_39_2,2023-11-01T16:10:11.423Z,,0,,,NaN,,,,,,false,,,,261067.99999999997,261067.99999999997,,261067,,261110,8,400,,,
sequence,flow.Sequence,4_39,2023-11-01T16:10:11.424Z,,0,,,3454.999999999971,completion,,,,,false,,,,261067.99999999997,261067.99999999997,257579,257572,257613,261110,8,400,,,
trial,html.Screen,4_40_0,2023-11-01T16:10:14.713Z,,0,1,,3280,response,ISIC_0025382.JPG,15,ISIC_0062649.JPG,ISIC_0025382.JPG,false,1,keypress(m),500,264358,264357,261077,261067.99999999997,261110,264408,8,400,41,,ISIC_0062649.JPG
break,html.Screen,4_40_1,2023-11-01T16:10:14.714Z,,0,,,NaN,,,,,,false,,,,264358,264358,,264358,,264408,8,400,,,
break_continue,html.Screen,4_40_2,2023-11-01T16:10:14.714Z,,0,,,NaN,,,,,,false,,,,264358,264358,,264358,,264408,8,400,,,
sequence,flow.Sequence,4_40,2023-11-01T16:10:14.714Z,,0,,,3248,completion,,,,,false,,,,264358,264358,261077,261067.99999999997,261110,264408,8,400,,,
trial,html.Screen,4_41_0,2023-11-01T16:10:17.628Z,,0,1,,2897,response,ISIC_1434141.JPG,6,ISIC_0011150.JPG,ISIC_1434141.JPG,false,1,keypress(m),500,267273,267273,264376,264358,264408,267323,8,400,42,,ISIC_0011150.JPG
break,html.Screen,4_41_1,2023-11-01T16:10:17.629Z,,0,,,NaN,,,,,,false,,,,267273,267273,,267273,,267323,8,400,,,
break_continue,html.Screen,4_41_2,2023-11-01T16:10:17.629Z,,0,,,NaN,,,,,,false,,,,267273,267273,,267273,,267323,8,400,,,
sequence,flow.Sequence,4_41,2023-11-01T16:10:17.629Z,,0,,,2865,completion,,,,,false,,,,267273,267273,264376,264358,264408,267323,8,400,,,
trial,html.Screen,4_42_0,2023-11-01T16:10:21.519Z,,0,1,,3874,response,ISIC_9061511.JPG,15,ISIC_0010262.JPG,ISIC_9061511.JPG,false,1,keypress(m),500,271164,271164,267290,267274,267323,271203,8,400,43,,ISIC_0010262.JPG
break,html.Screen,4_42_1,2023-11-01T16:10:21.520Z,,0,,,NaN,,,,,,false,,,,271164,271164,,271164,,271203,8,400,,,
break_continue,html.Screen,4_42_2,2023-11-01T16:10:21.520Z,,0,,,NaN,,,,,,false,,,,271164,271164,,271164,,271203,8,400,,,
sequence,flow.Sequence,4_42,2023-11-01T16:10:21.520Z,,0,,,3841,completion,,,,,false,,,,271165,271164,267290,267274,267323,271203,8,400,,,
trial,html.Screen,4_43_0,2023-11-01T16:10:25.136Z,,0,1,,3611,response,ISIC_0067427.JPG,6,ISIC_0014392.JPG,ISIC_0067427.JPG,false,1,keypress(m),500,274781,274781,271170,271165,271203,274835,8,400,44,,ISIC_0014392.JPG
break,html.Screen,4_43_1,2023-11-01T16:10:25.137Z,,0,,,NaN,,,,,,false,,,,274781,274781,,274781,,274835,8,400,,,
break_continue,html.Screen,4_43_2,2023-11-01T16:10:25.137Z,,0,,,NaN,,,,,,false,,,,274782,274782,,274782,,274835,8,400,,,
sequence,flow.Sequence,4_43,2023-11-01T16:10:25.137Z,,0,,,3579,completion,,,,,false,,,,274782,274782,271170,271165,271203,274835,8,400,,,
trial,html.Screen,4_44_0,2023-11-01T16:10:27.949Z,,0,1,,2792,response,ISIC_0059314.JPG,6,ISIC_0719631.JPG,ISIC_0719631.JPG,false,0,keypress(z),500,277594,277593,274801,274782,274835,277632,8,400,45,,ISIC_0059314.JPG
break,html.Screen,4_44_1,2023-11-01T16:10:27.949Z,,0,,,NaN,,,,,,false,,,,277594,277594,,277594,,277632,8,400,,,
break_continue,html.Screen,4_44_2,2023-11-01T16:10:27.950Z,,0,,,NaN,,,,,,false,,,,277594,277594,,277594,,277632,8,400,,,
sequence,flow.Sequence,4_44,2023-11-01T16:10:27.950Z,,0,,,2759,completion,,,,,false,,,,277595,277594,274801,274782,274835,277632,8,400,,,
trial,html.Screen,4_45_0,2023-11-01T16:10:31.286Z,,0,1,,3332,response,ISIC_0014127.JPG,6,ISIC_9081663.JPG,ISIC_9081663.JPG,false,0,keypress(z),500,280931,280931,277599,277595,277632,280981,8,400,46,,ISIC_0014127.JPG
break,html.Screen,4_45_1,2023-11-01T16:10:31.286Z,,0,,,NaN,,,,,,false,,,,280931,280931,,280931,,280981,8,400,,,
break_continue,html.Screen,4_45_2,2023-11-01T16:10:31.287Z,,0,,,NaN,,,,,,false,,,,280932,280931,,280931,,280981,8,400,,,
sequence,flow.Sequence,4_45,2023-11-01T16:10:31.287Z,,0,,,3299,completion,,,,,false,,,,280932,280931,277599,277595,277632,280981,8,400,,,
trial,html.Screen,4_46_0,2023-11-01T16:10:34.347Z,,0,1,,3045,response,ISIC_0060946.JPG,8,ISIC_0066203.JPG,ISIC_0066203.JPG,false,0,keypress(z),500,283992,283992,280947,280932,280981,284045,8,400,47,,ISIC_0060946.JPG
break,html.Screen,4_46_1,2023-11-01T16:10:34.348Z,,0,,,NaN,,,,,,false,,,,283993,283993,,283992,,284045,8,400,,,
break_continue,html.Screen,4_46_2,2023-11-01T16:10:34.348Z,,0,,,NaN,,,,,,false,,,,283993,283993,,283993,,284045,8,400,,,
sequence,flow.Sequence,4_46,2023-11-01T16:10:34.348Z,,0,,,3012,completion,,,,,false,,,,283993,283993,280947,280932,280981,284045,8,400,,,
trial,html.Screen,4_47_0,2023-11-01T16:10:37.382Z,,0,1,,3016,response,ISIC_0766328.JPG,1,ISIC_3596877.JPG,ISIC_3596877.JPG,false,0,keypress(z),500,287028,287027,284011,283993,284045,287077,8,400,48,,ISIC_0766328.JPG
break,html.Screen,4_47_1,2023-11-01T16:10:37.383Z,,0,,,NaN,,,,,,false,,,,287028,287028,,287028,,287077,8,400,,,
break_continue,html.Screen,4_47_2,2023-11-01T16:10:37.383Z,,0,,,NaN,,,,,,false,,,,287029,287028,,287028,,287077,8,400,,,
sequence,flow.Sequence,4_47,2023-11-01T16:10:37.383Z,,0,,,2983,completion,,,,,false,,,,287029,287028,284011,283993,284045,287077,8,400,,,
trial,html.Screen,4_48_0,2023-11-01T16:10:40.432Z,,0,1,,3034,response,ISIC_0034207.JPG,14,ISIC_5267208.JPG,ISIC_0034207.JPG,false,1,keypress(m),500,290077,290077,287043,287029,287077,290125,8,400,49,,ISIC_5267208.JPG
break,html.Screen,4_48_1,2023-11-01T16:10:40.432Z,,0,,,NaN,,,,,,false,,,,290078.00000000006,290078.00000000006,,290077,,290125,8,400,,,
break_continue,html.Screen,4_48_2,2023-11-01T16:10:40.433Z,,0,,,NaN,,,,,,false,,,,290078.00000000006,290078.00000000006,,290078.00000000006,,290125,8,400,,,
sequence,flow.Sequence,4_48,2023-11-01T16:10:40.433Z,,0,,,3001.000000000058,completion,,,,,false,,,,290078.00000000006,290078.00000000006,287043,287029,287077,290125,8,400,,,
trial,html.Screen,4_49_0,2023-11-01T16:10:43.620Z,,0,1,,3174,response,ISIC_5498651.JPG,11,ISIC_0000346.JPG,ISIC_5498651.JPG,false,1,keypress(m),500,293265,293265,290091,290078.00000000006,290125,293305,8,400,50,,ISIC_0000346.JPG
break,html.Screen,4_49_1,2023-11-01T16:10:53.619Z,,0,,,9994,timeout,,,,,false,,,,303265,303265,293272,293265,293305,303299,8,400,,,
break_continue,html.Screen,4_49_2,2023-11-01T16:10:57.627Z,,0,,,4026,response,,,,,false,continue,keypress(Space),,307273,307291,303265,303265,303299,307312,8,400,,,
sequence,flow.Sequence,4_49,2023-11-01T16:10:57.627Z,,0,,,17166,completion,,,,,false,,,,307273,307291,290091,290078.00000000006,290125,307312,8,400,,,
trial,html.Screen,4_50_0,2023-11-01T16:11:01.539Z,,0,2,,3906,response,ISIC_1739667.JPG,0,ISIC_4926448.JPG,ISIC_4926448.JPG,false,0,keypress(z),500,311185,311185,307279,307273,307312,311226,8,400,1,,ISIC_1739667.JPG
break,html.Screen,4_50_1,2023-11-01T16:11:01.539Z,,0,,,NaN,,,,,,false,,,,311186,311186,,311185,,311226,8,400,,,
break_continue,html.Screen,4_50_2,2023-11-01T16:11:01.540Z,,0,,,NaN,,,,,,false,,,,311186,311186,,311186,,311226,8,400,,,
sequence,flow.Sequence,4_50,2023-11-01T16:11:01.540Z,,0,,,3874,completion,,,,,false,,,,311186,311186,307279,307273,307312,311226,8,400,,,
trial,html.Screen,4_51_0,2023-11-01T16:11:04.243Z,,0,2,,2695,response,ISIC_0327406.JPG,4,ISIC_3871225.JPG,ISIC_0327406.JPG,false,1,keypress(m),500,313890,313889,311194,311186,311226,313941,8,400,2,,ISIC_3871225.JPG
break,html.Screen,4_51_1,2023-11-01T16:11:04.244Z,,0,,,NaN,,,,,,false,,,,313890,313890,,313890,,313941,8,400,,,
break_continue,html.Screen,4_51_2,2023-11-01T16:11:04.244Z,,0,,,NaN,,,,,,false,,,,313890,313890,,313890,,313941,8,400,,,
sequence,flow.Sequence,4_51,2023-11-01T16:11:04.244Z,,0,,,2664,completion,,,,,false,,,,313890,313890,311194,311186,311226,313941,8,400,,,
trial,html.Screen,4_52_0,2023-11-01T16:11:06.967Z,,0,2,,2705,response,ISIC_0033640.JPG,6,ISIC_0014217.JPG,ISIC_0033640.JPG,false,1,keypress(m),500,316613,316613,313908,313890,313941,316657,8,400,3,,ISIC_0014217.JPG
break,html.Screen,4_52_1,2023-11-01T16:11:06.967Z,,0,,,NaN,,,,,,false,,,,316614.00000000006,316614.00000000006,,316613,,316657,8,400,,,
break_continue,html.Screen,4_52_2,2023-11-01T16:11:06.967Z,,0,,,NaN,,,,,,false,,,,316614.00000000006,316614.00000000006,,316614.00000000006,,316657,8,400,,,
sequence,flow.Sequence,4_52,2023-11-01T16:11:06.968Z,,0,,,2673.000000000058,completion,,,,,false,,,,316614.00000000006,316614.00000000006,313908,313890,313941,316657,8,400,,,
trial,html.Screen,4_53_0,2023-11-01T16:11:10.076Z,,0,2,,3098,response,ISIC_4965832.JPG,5,ISIC_9030482.JPG,ISIC_9030482.JPG,false,0,keypress(z),500,319722,319722,316624,316614.00000000006,316657,319772,8,400,4,,ISIC_4965832.JPG
break,html.Screen,4_53_1,2023-11-01T16:11:10.076Z,,0,,,NaN,,,,,,false,,,,319723,319723,,319722,,319772,8,400,,,
break_continue,html.Screen,4_53_2,2023-11-01T16:11:10.076Z,,0,,,NaN,,,,,,false,,,,319723,319723,,319723,,319772,8,400,,,
sequence,flow.Sequence,4_53,2023-11-01T16:11:10.076Z,,0,,,3066,completion,,,,,false,,,,319723,319723,316624,316614.00000000006,316657,319772,8,400,,,
trial,html.Screen,4_54_0,2023-11-01T16:11:13.700Z,,0,2,,3608,response,ISIC_0064307.JPG,13,ISIC_3777798.JPG,ISIC_0064307.JPG,false,1,keypress(m),500,323346,323346,319738,319723,319772,323386,8,400,5,,ISIC_3777798.JPG
break,html.Screen,4_54_1,2023-11-01T16:11:13.700Z,,0,,,NaN,,,,,,false,,,,323347,323347,,323346,,323386,8,400,,,
break_continue,html.Screen,4_54_2,2023-11-01T16:11:13.700Z,,0,,,NaN,,,,,,false,,,,323347,323347,,323347,,323386,8,400,,,
sequence,flow.Sequence,4_54,2023-11-01T16:11:13.700Z,,0,,,3575,completion,,,,,false,,,,323347,323347,319738,319723,319772,323386,8,400,,,
trial,html.Screen,4_55_0,2023-11-01T16:11:16.929Z,,0,2,,3223,response,ISIC_9028997.JPG,5,ISIC_3361955.JPG,ISIC_3361955.JPG,false,0,keypress(z),500,326576,326575,323352,323347,323386,326617,8,400,6,,ISIC_9028997.JPG
break,html.Screen,4_55_1,2023-11-01T16:11:16.929Z,,0,,,NaN,,,,,,false,,,,326576,326576,,326576,,326617,8,400,,,
break_continue,html.Screen,4_55_2,2023-11-01T16:11:16.929Z,,0,,,NaN,,,,,,false,,,,326576,326576,,326576,,326617,8,400,,,
sequence,flow.Sequence,4_55,2023-11-01T16:11:16.929Z,,0,,,3190,completion,,,,,false,,,,326576,326576,323352,323347,323386,326617,8,400,,,
trial,html.Screen,4_56_0,2023-11-01T16:11:20.333Z,,0,2,,3396,response,ISIC_2720426.JPG,4,ISIC_6985859.JPG,ISIC_2720426.JPG,false,1,keypress(m),500,329980,329980,326584,326576,326617,330032,8,400,7,,ISIC_6985859.JPG
break,html.Screen,4_56_1,2023-11-01T16:11:20.334Z,,0,,,NaN,,,,,,false,,,,329981,329981,,329980,,330032,8,400,,,
break_continue,html.Screen,4_56_2,2023-11-01T16:11:20.334Z,,0,,,NaN,,,,,,false,,,,329981,329981,,329981,,330032,8,400,,,
sequence,flow.Sequence,4_56,2023-11-01T16:11:20.334Z,,0,,,3364,completion,,,,,false,,,,329981,329981,326584,326576,326617,330032,8,400,,,
trial,html.Screen,4_57_0,2023-11-01T16:11:24.216Z,,0,2,,3864,response,ISIC_0667763.JPG,9,ISIC_0028515.JPG,ISIC_0028515.JPG,false,0,keypress(z),500,333863,333863,329999,329982,330032,333912,8,400,8,,ISIC_0667763.JPG
break,html.Screen,4_57_1,2023-11-01T16:11:24.217Z,,0,,,NaN,,,,,,false,,,,333864.00000000006,333864.00000000006,,333863,,333912,8,400,,,
break_continue,html.Screen,4_57_2,2023-11-01T16:11:24.217Z,,0,,,NaN,,,,,,false,,,,333864.00000000006,333864.00000000006,,333864.00000000006,,333912,8,400,,,
sequence,flow.Sequence,4_57,2023-11-01T16:11:24.217Z,,0,,,3832.000000000058,completion,,,,,false,,,,333864.00000000006,333864.00000000006,329999,329982,330032,333912,8,400,,,
trial,html.Screen,4_58_0,2023-11-01T16:11:28.270Z,,0,2,,4035,response,ISIC_1674754.JPG,10,ISIC_8104064.JPG,ISIC_8104064.JPG,false,0,keypress(z),500,337917.00000000006,337914,333879,333864.00000000006,333912,337960,8,400,9,,ISIC_1674754.JPG
break,html.Screen,4_58_1,2023-11-01T16:11:28.271Z,,0,,,NaN,,,,,,false,,,,337918,337918,,337917.00000000006,,337960,8,400,,,
break_continue,html.Screen,4_58_2,2023-11-01T16:11:28.271Z,,0,,,NaN,,,,,,false,,,,337918,337918,,337918,,337960,8,400,,,
sequence,flow.Sequence,4_58,2023-11-01T16:11:28.271Z,,0,,,4006,completion,,,,,false,,,,337919,337918,333879,333864.00000000006,333912,337960,8,400,,,
trial,html.Screen,4_59_0,2023-11-01T16:11:33.589Z,,0,2,,5310,response,ISIC_0064033.JPG,7,ISIC_8671453.JPG,ISIC_8671453.JPG,false,0,keypress(z),500,343236,343236,337926,337919,337960,343288,8,400,10,,ISIC_0064033.JPG
break,html.Screen,4_59_1,2023-11-01T16:11:33.589Z,,0,,,NaN,,,,,,false,,,,343237,343237,,343236,,343288,8,400,,,
break_continue,html.Screen,4_59_2,2023-11-01T16:11:33.590Z,,0,,,NaN,,,,,,false,,,,343237,343237,,343237,,343288,8,400,,,
sequence,flow.Sequence,4_59,2023-11-01T16:11:33.590Z,,0,,,5277,completion,,,,,false,,,,343237,343237,337926,337919,337960,343288,8,400,,,
trial,html.Screen,4_60_0,2023-11-01T16:11:38.900Z,,0,2,,5292,response,ISIC_0028976.JPG,0,ISIC_0026401.JPG,ISIC_0028976.JPG,false,1,keypress(m),500,348548,348548,343256,343237,343288,348586,8,400,11,,ISIC_0026401.JPG
break,html.Screen,4_60_1,2023-11-01T16:11:38.901Z,,0,,,NaN,,,,,,false,,,,348549.00000000006,348548,,348548,,348586,8,400,,,
break_continue,html.Screen,4_60_2,2023-11-01T16:11:38.901Z,,0,,,NaN,,,,,,false,,,,348549.00000000006,348549.00000000006,,348549.00000000006,,348586,8,400,,,
sequence,flow.Sequence,4_60,2023-11-01T16:11:38.901Z,,0,,,5261.000000000058,completion,,,,,false,,,,348549.00000000006,348549.00000000006,343256,343237,343288,348586,8,400,,,
trial,html.Screen,4_61_0,2023-11-01T16:11:41.999Z,,0,2,,3094,response,ISIC_1432058.JPG,8,ISIC_0014171.JPG,ISIC_1432058.JPG,false,1,keypress(m),500,351647,351646,348552,348549.00000000006,348586,351699,8,400,12,,ISIC_0014171.JPG
break,html.Screen,4_61_1,2023-11-01T16:11:42.000Z,,0,,,NaN,,,,,,false,,,,351648,351647,,351647,,351699,8,400,,,
break_continue,html.Screen,4_61_2,2023-11-01T16:11:42.000Z,,0,,,NaN,,,,,,false,,,,351648,351648,,351648,,351699,8,400,,,
sequence,flow.Sequence,4_61,2023-11-01T16:11:42.000Z,,0,,,3062,completion,,,,,false,,,,351648,351648,348552,348549.00000000006,348586,351699,8,400,,,
trial,html.Screen,4_62_0,2023-11-01T16:11:45.060Z,,0,2,,3041,response,ISIC_8290994.JPG,8,ISIC_5705973.JPG,ISIC_5705973.JPG,false,0,keypress(z),500,354708,354707,351666,351648,351699,354749,8,400,13,,ISIC_8290994.JPG
break,html.Screen,4_62_1,2023-11-01T16:11:45.061Z,,0,,,NaN,,,,,,false,,,,354709,354709,,354708,,354749,8,400,,,
break_continue,html.Screen,4_62_2,2023-11-01T16:11:45.061Z,,0,,,NaN,,,,,,false,,,,354709,354709,,354709,,354749,8,400,,,
sequence,flow.Sequence,4_62,2023-11-01T16:11:45.061Z,,0,,,3010,completion,,,,,false,,,,354709,354709,351666,351648,351699,354749,8,400,,,
trial,html.Screen,4_63_0,2023-11-01T16:11:48.399Z,,0,2,,3333,response,ISIC_0032357.JPG,4,ISIC_0001572.JPG,ISIC_0001572.JPG,false,0,keypress(z),500,358048,358047,354714,354709,354749,358095,8,400,14,,ISIC_0032357.JPG
break,html.Screen,4_63_1,2023-11-01T16:11:48.400Z,,0,,,NaN,,,,,,false,,,,358048,358048,,358048,,358095,8,400,,,
break_continue,html.Screen,4_63_2,2023-11-01T16:11:48.400Z,,0,,,NaN,,,,,,false,,,,358048,358048,,358048,,358095,8,400,,,
sequence,flow.Sequence,4_63,2023-11-01T16:11:48.400Z,,0,,,3299,completion,,,,,false,,,,358048,358048,354714,354709,354749,358095,8,400,,,
trial,html.Screen,4_64_0,2023-11-01T16:11:52.908Z,,0,2,,4493,response,ISIC_0024757.JPG,13,ISIC_0469314.JPG,ISIC_0469314.JPG,false,0,keypress(z),500,362556,362556,358063,358048,358095,362609,8,400,15,,ISIC_0024757.JPG
break,html.Screen,4_64_1,2023-11-01T16:11:52.908Z,,0,,,NaN,,,,,,false,,,,362556,362556,,362556,,362609,8,400,,,
break_continue,html.Screen,4_64_2,2023-11-01T16:11:52.908Z,,0,,,NaN,,,,,,false,,,,362557,362557,,362557,,362609,8,400,,,
sequence,flow.Sequence,4_64,2023-11-01T16:11:52.909Z,,0,,,4462,completion,,,,,false,,,,362557,362557,358063,358048,358095,362609,8,400,,,
trial,html.Screen,4_65_0,2023-11-01T16:11:56.156Z,,0,2,,3229,response,ISIC_9499787.JPG,6,ISIC_6298726.JPG,ISIC_6298726.JPG,false,0,keypress(z),500,365805,365805,362576,362557,362609,365858,8,400,16,,ISIC_9499787.JPG
break,html.Screen,4_65_1,2023-11-01T16:11:56.157Z,,0,,,NaN,,,,,,false,,,,365806,365806,,365805,,365858,8,400,,,
break_continue,html.Screen,4_65_2,2023-11-01T16:11:56.158Z,,0,,,NaN,,,,,,false,,,,365806,365806,,365806,,365858,8,400,,,
sequence,flow.Sequence,4_65,2023-11-01T16:11:56.158Z,,0,,,3197,completion,,,,,false,,,,365806,365806,362576,362557,362609,365858,8,400,,,
trial,html.Screen,4_66_0,2023-11-01T16:12:00.087Z,,0,2,,3911,response,ISIC_5063476.JPG,1,ISIC_0031626.JPG,ISIC_0031626.JPG,false,0,keypress(z),500,369735,369735,365824,365806,365858,369788,8,400,17,,ISIC_5063476.JPG
break,html.Screen,4_66_1,2023-11-01T16:12:00.087Z,,0,,,NaN,,,,,,false,,,,369736,369736,,369736,,369788,8,400,,,
break_continue,html.Screen,4_66_2,2023-11-01T16:12:00.088Z,,0,,,NaN,,,,,,false,,,,369736,369736,,369736,,369788,8,400,,,
sequence,flow.Sequence,4_66,2023-11-01T16:12:00.088Z,,0,,,3878,completion,,,,,false,,,,369736,369736,365824,365806,365858,369788,8,400,,,
trial,html.Screen,4_67_0,2023-11-01T16:12:04.683Z,,0,2,,4578,response,ISIC_0031386.JPG,6,ISIC_1858237.JPG,ISIC_1858237.JPG,false,0,keypress(z),500,374332,374332,369754,369736,369788,374385,8,400,18,,ISIC_0031386.JPG
break,html.Screen,4_67_1,2023-11-01T16:12:04.684Z,,0,,,NaN,,,,,,false,,,,374333,374333,,374332,,374385,8,400,,,
break_continue,html.Screen,4_67_2,2023-11-01T16:12:04.684Z,,0,,,NaN,,,,,,false,,,,374333,374333,,374333,,374385,8,400,,,
sequence,flow.Sequence,4_67,2023-11-01T16:12:04.685Z,,0,,,4545,completion,,,,,false,,,,374333,374333,369754,369736,369788,374385,8,400,,,
trial,html.Screen,4_68_0,2023-11-01T16:12:08.911Z,,0,2,,4208,response,ISIC_1026382.JPG,0,ISIC_3902917.JPG,ISIC_1026382.JPG,false,1,keypress(m),500,378560,378560,374352,374333,374385,378599,8,400,19,,ISIC_3902917.JPG
break,html.Screen,4_68_1,2023-11-01T16:12:08.912Z,,0,,,NaN,,,,,,false,,,,378561.00000000006,378561.00000000006,,378560,,378599,8,400,,,
break_continue,html.Screen,4_68_2,2023-11-01T16:12:08.912Z,,0,,,NaN,,,,,,false,,,,378561.00000000006,378561.00000000006,,378561.00000000006,,378599,8,400,,,
sequence,flow.Sequence,4_68,2023-11-01T16:12:08.912Z,,0,,,4176.000000000058,completion,,,,,false,,,,378561.00000000006,378561.00000000006,374352,374333,374385,378599,8,400,,,
trial,html.Screen,4_69_0,2023-11-01T16:12:11.709Z,,0,2,,2792,response,ISIC_0189336.JPG,3,ISIC_0069210.JPG,ISIC_0189336.JPG,false,1,keypress(m),500,381358,381358,378566,378561.00000000006,378599,381397,8,400,20,,ISIC_0069210.JPG
break,html.Screen,4_69_1,2023-11-01T16:12:11.710Z,,0,,,NaN,,,,,,false,,,,381359,381359,,381359,,381397,8,400,,,
break_continue,html.Screen,4_69_2,2023-11-01T16:12:11.710Z,,0,,,NaN,,,,,,false,,,,381359,381359,,381359,,381397,8,400,,,
sequence,flow.Sequence,4_69,2023-11-01T16:12:11.710Z,,0,,,2760,completion,,,,,false,,,,381359,381359,378566,378561.00000000006,378599,381397,8,400,,,
trial,html.Screen,4_70_0,2023-11-01T16:12:15.166Z,,0,2,,3451,response,ISIC_6722934.JPG,4,ISIC_6703027.JPG,ISIC_6703027.JPG,false,0,keypress(z),500,384815,384815,381364,381359,381397,384862,8,400,21,,ISIC_6722934.JPG
break,html.Screen,4_70_1,2023-11-01T16:12:15.167Z,,0,,,NaN,,,,,,false,,,,384816.00000000006,384816.00000000006,,384815,,384862,8,400,,,
break_continue,html.Screen,4_70_2,2023-11-01T16:12:15.167Z,,0,,,NaN,,,,,,false,,,,384816.00000000006,384816.00000000006,,384816.00000000006,,384862,8,400,,,
sequence,flow.Sequence,4_70,2023-11-01T16:12:15.167Z,,0,,,3419.000000000058,completion,,,,,false,,,,384816.00000000006,384816.00000000006,381364,381359,381397,384862,8,400,,,
trial,html.Screen,4_71_0,2023-11-01T16:12:18.330Z,,0,2,,3150,response,ISIC_3685448.JPG,6,ISIC_0029322.JPG,ISIC_3685448.JPG,false,1,keypress(m),500,387980,387979,384829,384816.00000000006,384862,388026,8,400,22,,ISIC_0029322.JPG
break,html.Screen,4_71_1,2023-11-01T16:12:18.331Z,,0,,,NaN,,,,,,false,,,,387980,387980,,387980,,388026,8,400,,,
break_continue,html.Screen,4_71_2,2023-11-01T16:12:18.331Z,,0,,,NaN,,,,,,false,,,,387980,387980,,387980,,388026,8,400,,,
sequence,flow.Sequence,4_71,2023-11-01T16:12:18.331Z,,0,,,3118,completion,,,,,false,,,,387980,387980,384829,384816.00000000006,384862,388026,8,400,,,
trial,html.Screen,4_72_0,2023-11-01T16:12:22.339Z,,0,2,,3995,response,ISIC_0014211.JPG,7,ISIC_0062084.JPG,ISIC_0062084.JPG,false,0,keypress(z),500,391989.00000000006,391988,387993,387981,388026,392039,8,400,23,,ISIC_0014211.JPG
break,html.Screen,4_72_1,2023-11-01T16:12:22.340Z,,0,,,NaN,,,,,,false,,,,391989.00000000006,391989.00000000006,,391989.00000000006,,392039,8,400,,,
break_continue,html.Screen,4_72_2,2023-11-01T16:12:22.340Z,,0,,,NaN,,,,,,false,,,,391989.00000000006,391989.00000000006,,391989.00000000006,,392039,8,400,,,
sequence,flow.Sequence,4_72,2023-11-01T16:12:22.340Z,,0,,,3963.000000000058,completion,,,,,false,,,,391989.00000000006,391989.00000000006,387993,387981,388026,392039,8,400,,,
trial,html.Screen,4_73_0,2023-11-01T16:12:25.336Z,,0,2,,2978,response,ISIC_9568138.JPG,5,ISIC_5510604.JPG,ISIC_5510604.JPG,false,0,keypress(z),500,394985,394985,392007,391990,392039,395038,8,400,24,,ISIC_9568138.JPG
break,html.Screen,4_73_1,2023-11-01T16:12:25.336Z,,0,,,NaN,,,,,,false,,,,394986,394986,,394985,,395038,8,400,,,
break_continue,html.Screen,4_73_2,2023-11-01T16:12:25.337Z,,0,,,NaN,,,,,,false,,,,394986,394986,,394986,,395038,8,400,,,
sequence,flow.Sequence,4_73,2023-11-01T16:12:25.337Z,,0,,,2947,completion,,,,,false,,,,394986,394986,392007,391989.00000000006,392039,395038,8,400,,,
trial,html.Screen,4_74_0,2023-11-01T16:12:29.171Z,,0,2,,3816,response,ISIC_3922580.JPG,0,ISIC_8627293.JPG,ISIC_8627293.JPG,false,0,keypress(z),500,398821,398821,395005,394986,395038,398868,8,400,25,,ISIC_3922580.JPG
break,html.Screen,4_74_1,2023-11-01T16:12:29.172Z,,0,,,NaN,,,,,,false,,,,398822,398821,,398821,,398868,8,400,,,
break_continue,html.Screen,4_74_2,2023-11-01T16:12:29.172Z,,0,,,NaN,,,,,,false,,,,398822,398822,,398822,,398868,8,400,,,
sequence,flow.Sequence,4_74,2023-11-01T16:12:29.172Z,,0,,,3784,completion,,,,,false,,,,398822,398822,395005,394986,395038,398868,8,400,,,
trial,html.Screen,4_75_0,2023-11-01T16:12:33.778Z,,0,2,,4592,response,ISIC_0032690.JPG,2,ISIC_9699426.JPG,ISIC_0032690.JPG,false,1,keypress(m),500,403428,403427,398835,398822,398868,403466,8,400,26,,ISIC_9699426.JPG
break,html.Screen,4_75_1,2023-11-01T16:12:33.779Z,,0,,,NaN,,,,,,false,,,,403429.00000000006,403428,,403428,,403466,8,400,,,
break_continue,html.Screen,4_75_2,2023-11-01T16:12:33.779Z,,0,,,NaN,,,,,,false,,,,403429.00000000006,403429.00000000006,,403429.00000000006,,403466,8,400,,,
sequence,flow.Sequence,4_75,2023-11-01T16:12:33.779Z,,0,,,4561.000000000058,completion,,,,,false,,,,403429.00000000006,403429.00000000006,398835,398822,398868,403466,8,400,,,
trial,html.Screen,4_76_0,2023-11-01T16:12:38.098Z,,0,2,,4316,response,ISIC_6366417.JPG,2,ISIC_0015969.JPG,ISIC_6366417.JPG,false,1,keypress(m),500,407748,407748,403432,403429.00000000006,403466,407796,8,400,27,,ISIC_0015969.JPG
break,html.Screen,4_76_1,2023-11-01T16:12:38.099Z,,0,,,NaN,,,,,,false,,,,407749,407748,,407748,,407796,8,400,,,
break_continue,html.Screen,4_76_2,2023-11-01T16:12:38.099Z,,0,,,NaN,,,,,,false,,,,407749,407749,,407749,,407796,8,400,,,
sequence,flow.Sequence,4_76,2023-11-01T16:12:38.099Z,,0,,,4283,completion,,,,,false,,,,407749,407749,403432,403429.00000000006,403466,407796,8,400,,,
trial,html.Screen,4_77_0,2023-11-01T16:12:42.224Z,,0,2,,4112,response,ISIC_0033950.JPG,11,ISIC_9745562.JPG,ISIC_0033950.JPG,false,1,keypress(m),500,411875,411875,407763,407749,407796,411926,8,400,28,,ISIC_9745562.JPG
break,html.Screen,4_77_1,2023-11-01T16:12:42.225Z,,0,,,NaN,,,,,,false,,,,411875,411875,,411875,,411926,8,400,,,
break_continue,html.Screen,4_77_2,2023-11-01T16:12:42.225Z,,0,,,NaN,,,,,,false,,,,411875,411875,,411875,,411926,8,400,,,
sequence,flow.Sequence,4_77,2023-11-01T16:12:42.225Z,,0,,,4079,completion,,,,,false,,,,411875,411875,407763,407749,407796,411926,8,400,,,
trial,html.Screen,4_78_0,2023-11-01T16:12:46.154Z,,0,2,,3911.000000000058,response,ISIC_0055675.JPG,15,ISIC_0064941.JPG,ISIC_0064941.JPG,false,0,keypress(z),500,415804.00000000006,415804.00000000006,411893,411876.00000000006,411926,415858,8,400,29,,ISIC_0055675.JPG
break,html.Screen,4_78_1,2023-11-01T16:12:46.155Z,,0,,,NaN,,,,,,false,,,,415805,415805,,415805,,415858,8,400,,,
break_continue,html.Screen,4_78_2,2023-11-01T16:12:46.155Z,,0,,,NaN,,,,,,false,,,,415805,415805,,415805,,415858,8,400,,,
sequence,flow.Sequence,4_78,2023-11-01T16:12:46.155Z,,0,,,3879,completion,,,,,false,,,,415805,415805,411893,411876.00000000006,411926,415858,8,400,,,
trial,html.Screen,4_79_0,2023-11-01T16:12:50.541Z,,0,2,,4367.000000000058,response,ISIC_0029562.JPG,7,ISIC_7697022.JPG,ISIC_7697022.JPG,false,0,keypress(z),500,420191.00000000006,420191.00000000006,415824,415805,415858,420238,8,400,30,,ISIC_0029562.JPG
break,html.Screen,4_79_1,2023-11-01T16:12:50.541Z,,0,,,NaN,,,,,,false,,,,420192,420192,,420191.00000000006,,420238,8,400,,,
break_continue,html.Screen,4_79_2,2023-11-01T16:12:50.541Z,,0,,,NaN,,,,,,false,,,,420192,420192,,420192,,420238,8,400,,,
sequence,flow.Sequence,4_79,2023-11-01T16:12:50.542Z,,0,,,4334,completion,,,,,false,,,,420192,420192,415824,415805,415858,420238,8,400,,,
trial,html.Screen,4_80_0,2023-11-01T16:12:53.503Z,,0,2,,2950,response,ISIC_5948805.JPG,1,ISIC_1638436.JPG,ISIC_1638436.JPG,false,0,keypress(z),500,423154,423154,420204,420192,420238,423202,8,400,31,,ISIC_5948805.JPG
break,html.Screen,4_80_1,2023-11-01T16:12:53.504Z,,0,,,NaN,,,,,,false,,,,423154,423154,,423154,,423202,8,400,,,
break_continue,html.Screen,4_80_2,2023-11-01T16:12:53.504Z,,0,,,NaN,,,,,,false,,,,423155.00000000006,423155.00000000006,,423155.00000000006,,423202,8,400,,,
sequence,flow.Sequence,4_80,2023-11-01T16:12:53.504Z,,0,,,2917.000000000058,completion,,,,,false,,,,423155.00000000006,423155.00000000006,420204,420192,420238,423202,8,400,,,
trial,html.Screen,4_81_0,2023-11-01T16:12:58.828Z,,0,2,,5309,response,ISIC_0032331.JPG,9,ISIC_3105924.JPG,ISIC_0032331.JPG,false,1,keypress(m),500,428479,428479,423170,423155.00000000006,423202,428532,8,400,32,,ISIC_3105924.JPG
break,html.Screen,4_81_1,2023-11-01T16:12:58.829Z,,0,,,NaN,,,,,,false,,,,428480,428480,,428479,,428532,8,400,,,
break_continue,html.Screen,4_81_2,2023-11-01T16:12:58.829Z,,0,,,NaN,,,,,,false,,,,428480,428480,,428480,,428532,8,400,,,
sequence,flow.Sequence,4_81,2023-11-01T16:12:58.829Z,,0,,,5278,completion,,,,,false,,,,428480,428480,423170,423155.00000000006,423202,428532,8,400,,,
trial,html.Screen,4_82_0,2023-11-01T16:13:02.991Z,,0,2,,4142,response,ISIC_5895384.JPG,5,ISIC_5822017.JPG,ISIC_5822017.JPG,false,0,keypress(z),500,432642,432641,428499,428480,428532,432680,8,400,33,,ISIC_5895384.JPG
break,html.Screen,4_82_1,2023-11-01T16:13:02.991Z,,0,,,NaN,,,,,,false,,,,432642,432642,,432642,,432680,8,400,,,
break_continue,html.Screen,4_82_2,2023-11-01T16:13:02.991Z,,0,,,NaN,,,,,,false,,,,432642,432642,,432642,,432680,8,400,,,
sequence,flow.Sequence,4_82,2023-11-01T16:13:02.991Z,,0,,,4110,completion,,,,,false,,,,432643,432642,428499,428480,428532,432680,8,400,,,
trial,html.Screen,4_83_0,2023-11-01T16:13:08.118Z,,0,2,,5123,response,ISIC_0998962.JPG,2,ISIC_0024288.JPG,ISIC_0998962.JPG,false,1,keypress(m),500,437769,437769,432646,432643,432680,437809,8,400,34,,ISIC_0024288.JPG
break,html.Screen,4_83_1,2023-11-01T16:13:08.119Z,,0,,,NaN,,,,,,false,,,,437770,437770,,437770,,437809,8,400,,,
break_continue,html.Screen,4_83_2,2023-11-01T16:13:08.119Z,,0,,,NaN,,,,,,false,,,,437770,437770,,437770,,437809,8,400,,,
sequence,flow.Sequence,4_83,2023-11-01T16:13:08.119Z,,0,,,5090,completion,,,,,false,,,,437770,437770,432646,432643,432680,437809,8,400,,,
trial,html.Screen,4_84_0,2023-11-01T16:13:13.705Z,,0,2,,5581,response,ISIC_6507492.JPG,5,ISIC_0034032.JPG,ISIC_0034032.JPG,false,0,keypress(z),500,443357,443357,437776,437771,437809,443407,8,400,35,,ISIC_6507492.JPG
break,html.Screen,4_84_1,2023-11-01T16:13:13.706Z,,0,,,NaN,,,,,,false,,,,443357,443357,,443357,,443407,8,400,,,
break_continue,html.Screen,4_84_2,2023-11-01T16:13:13.706Z,,0,,,NaN,,,,,,false,,,,443358,443358,,443357,,443407,8,400,,,
sequence,flow.Sequence,4_84,2023-11-01T16:13:13.706Z,,0,,,5549,completion,,,,,false,,,,443358,443358,437776,437771,437809,443407,8,400,,,
trial,html.Screen,4_85_0,2023-11-01T16:13:18.708Z,,0,2,,4988,response,ISIC_0061624.JPG,4,ISIC_0062576.JPG,ISIC_0062576.JPG,false,0,keypress(z),500,448360,448360,443372,443358,443407,448403,8,400,36,,ISIC_0061624.JPG
break,html.Screen,4_85_1,2023-11-01T16:13:18.709Z,,0,,,NaN,,,,,,false,,,,448361,448360,,448360,,448403,8,400,,,
break_continue,html.Screen,4_85_2,2023-11-01T16:13:18.709Z,,0,,,NaN,,,,,,false,,,,448361,448361,,448361,,448403,8,400,,,
sequence,flow.Sequence,4_85,2023-11-01T16:13:18.709Z,,0,,,4954,completion,,,,,false,,,,448361,448361,443372,443358,443407,448403,8,400,,,
trial,html.Screen,4_86_0,2023-11-01T16:13:23.082Z,,0,2,,4364,response,ISIC_0061315.JPG,9,ISIC_5547318.JPG,ISIC_0061315.JPG,false,1,keypress(m),500,452734.00000000006,452733,448369,448361,448403,452783,8,400,37,,ISIC_5547318.JPG
break,html.Screen,4_86_1,2023-11-01T16:13:23.082Z,,0,,,NaN,,,,,,false,,,,452734.00000000006,452734.00000000006,,452734.00000000006,,452783,8,400,,,
break_continue,html.Screen,4_86_2,2023-11-01T16:13:23.083Z,,0,,,NaN,,,,,,false,,,,452734.00000000006,452734.00000000006,,452734.00000000006,,452783,8,400,,,
sequence,flow.Sequence,4_86,2023-11-01T16:13:23.083Z,,0,,,4331.000000000058,completion,,,,,false,,,,452735,452734.00000000006,448369,448361,448403,452783,8,400,,,
trial,html.Screen,4_87_0,2023-11-01T16:13:27.267Z,,0,2,,4168,response,ISIC_4864523.JPG,5,ISIC_0033268.JPG,ISIC_0033268.JPG,false,0,keypress(z),500,456919,456918,452750,452735,452783,456964,8,400,38,,ISIC_4864523.JPG
break,html.Screen,4_87_1,2023-11-01T16:13:27.267Z,,0,,,NaN,,,,,,false,,,,456919,456919,,456919,,456964,8,400,,,
break_continue,html.Screen,4_87_2,2023-11-01T16:13:27.268Z,,0,,,NaN,,,,,,false,,,,456920,456919,,456919,,456964,8,400,,,
sequence,flow.Sequence,4_87,2023-11-01T16:13:27.268Z,,0,,,4136,completion,,,,,false,,,,456920,456919,452750,452735,452783,456964,8,400,,,
trial,html.Screen,4_88_0,2023-11-01T16:13:32.021Z,,0,2,,4742,response,ISIC_0062505.JPG,8,ISIC_7670817.JPG,ISIC_0062505.JPG,false,1,keypress(m),500,461674.00000000006,461673,456931,456920,456964,461727,8,400,39,,ISIC_7670817.JPG
break,html.Screen,4_88_1,2023-11-01T16:13:32.022Z,,0,,,NaN,,,,,,false,,,,461674.00000000006,461674.00000000006,,461674.00000000006,,461727,8,400,,,
break_continue,html.Screen,4_88_2,2023-11-01T16:13:32.022Z,,0,,,NaN,,,,,,false,,,,461674.00000000006,461674.00000000006,,461674.00000000006,,461727,8,400,,,
sequence,flow.Sequence,4_88,2023-11-01T16:13:32.022Z,,0,,,4710.000000000058,completion,,,,,false,,,,461674.00000000006,461674.00000000006,456931,456920,456964,461727,8,400,,,
trial,html.Screen,4_89_0,2023-11-01T16:13:37.202Z,,0,2,,5161,response,ISIC_0015206.JPG,3,ISIC_7820005.JPG,ISIC_7820005.JPG,false,0,keypress(z),500,466855,466854,461693,461674.00000000006,461727,466906,8,400,40,,ISIC_0015206.JPG
break,html.Screen,4_89_1,2023-11-01T16:13:37.203Z,,0,,,NaN,,,,,,false,,,,466855,466855,,466855,,466906,8,400,,,
break_continue,html.Screen,4_89_2,2023-11-01T16:13:37.203Z,,0,,,NaN,,,,,,false,,,,466855,466855,,466855,,466906,8,400,,,
sequence,flow.Sequence,4_89,2023-11-01T16:13:37.203Z,,0,,,5128,completion,,,,,false,,,,466856,466855,461693,461674.00000000006,461727,466906,8,400,,,
trial,html.Screen,4_90_0,2023-11-01T16:13:44.398Z,,0,2,,7178,response,ISIC_0060817.JPG,3,ISIC_4654443.JPG,ISIC_4654443.JPG,false,0,keypress(z),500,474051,474051,466873,466856,466906,474102,8,400,41,,ISIC_0060817.JPG
break,html.Screen,4_90_1,2023-11-01T16:13:44.399Z,,0,,,NaN,,,,,,false,,,,474051,474051,,474051,,474102,8,400,,,
break_continue,html.Screen,4_90_2,2023-11-01T16:13:44.399Z,,0,,,NaN,,,,,,false,,,,474051,474051,,474051,,474102,8,400,,,
sequence,flow.Sequence,4_90,2023-11-01T16:13:44.399Z,,0,,,7145,completion,,,,,false,,,,474052,474051,466873,466856,466906,474102,8,400,,,
trial,html.Screen,4_91_0,2023-11-01T16:13:49.791Z,,0,2,,5374,response,ISIC_7945429.JPG,8,ISIC_4541530.JPG,ISIC_4541530.JPG,false,0,keypress(z),500,479444,479444,474070,474052,474102,479482,8,400,42,,ISIC_7945429.JPG
break,html.Screen,4_91_1,2023-11-01T16:13:49.792Z,,0,,,NaN,,,,,,false,,,,479445,479445,,479444,,479482,8,400,,,
break_continue,html.Screen,4_91_2,2023-11-01T16:13:49.792Z,,0,,,NaN,,,,,,false,,,,479445,479445,,479445,,479482,8,400,,,
sequence,flow.Sequence,4_91,2023-11-01T16:13:49.793Z,,0,,,5343,completion,,,,,false,,,,479446,479445,474070,474052,474102,479482,8,400,,,
trial,html.Screen,4_92_0,2023-11-01T16:13:52.638Z,,0,2,,2842,response,ISIC_0014049.JPG,11,ISIC_7761711.JPG,ISIC_7761711.JPG,false,0,keypress(z),500,482291,482290,479448,479446,479482,482331,8,400,43,,ISIC_0014049.JPG
break,html.Screen,4_92_1,2023-11-01T16:13:52.638Z,,0,,,NaN,,,,,,false,,,,482291,482291,,482291,,482331,8,400,,,
break_continue,html.Screen,4_92_2,2023-11-01T16:13:52.638Z,,0,,,NaN,,,,,,false,,,,482291,482291,,482291,,482331,8,400,,,
sequence,flow.Sequence,4_92,2023-11-01T16:13:52.638Z,,0,,,2809,completion,,,,,false,,,,482291,482291,479448,479446,479482,482331,8,400,,,
trial,html.Screen,4_93_0,2023-11-01T16:13:55.441Z,,0,2,,2797,response,ISIC_0034087.JPG,5,ISIC_0065658.JPG,ISIC_0034087.JPG,false,1,keypress(m),500,485094,485094,482297,482291,482331,485145,8,400,44,,ISIC_0065658.JPG
break,html.Screen,4_93_1,2023-11-01T16:13:55.441Z,,0,,,NaN,,,,,,false,,,,485094,485094,,485094,,485145,8,400,,,
break_continue,html.Screen,4_93_2,2023-11-01T16:13:55.441Z,,0,,,NaN,,,,,,false,,,,485095,485095,,485094,,485145,8,400,,,
sequence,flow.Sequence,4_93,2023-11-01T16:13:55.442Z,,0,,,2764,completion,,,,,false,,,,485095,485095,482297,482291,482331,485145,8,400,,,
trial,html.Screen,4_94_0,2023-11-01T16:13:58.462Z,,0,2,,3005,response,ISIC_1533305.JPG,8,ISIC_9542544.JPG,ISIC_9542544.JPG,false,0,keypress(z),500,488116,488116,485111,485095,485145,488160,8,400,45,,ISIC_1533305.JPG
break,html.Screen,4_94_1,2023-11-01T16:13:58.463Z,,0,,,NaN,,,,,,false,,,,488116,488116,,488116,,488160,8,400,,,
break_continue,html.Screen,4_94_2,2023-11-01T16:13:58.463Z,,0,,,NaN,,,,,,false,,,,488116,488116,,488116,,488160,8,400,,,
sequence,flow.Sequence,4_94,2023-11-01T16:13:58.463Z,,0,,,2971,completion,,,,,false,,,,488117,488116,485111,485095,485145,488160,8,400,,,
trial,html.Screen,4_95_0,2023-11-01T16:14:01.478Z,,0,2,,3005,response,ISIC_0057988.JPG,5,ISIC_0033805.JPG,ISIC_0033805.JPG,false,0,keypress(z),500,491132,491131,488126,488117,488160,491174,8,400,46,,ISIC_0057988.JPG
break,html.Screen,4_95_1,2023-11-01T16:14:01.479Z,,0,,,NaN,,,,,,false,,,,491132,491132,,491132,,491174,8,400,,,
break_continue,html.Screen,4_95_2,2023-11-01T16:14:01.479Z,,0,,,NaN,,,,,,false,,,,491133.00000000006,491132,,491132,,491174,8,400,,,
sequence,flow.Sequence,4_95,2023-11-01T16:14:01.479Z,,0,,,2972,completion,,,,,false,,,,491133.00000000006,491132,488126,488117,488160,491174,8,400,,,
trial,html.Screen,4_96_0,2023-11-01T16:14:04.411Z,,0,2,,2923,response,ISIC_8398000.JPG,7,ISIC_5406677.JPG,ISIC_8398000.JPG,false,1,keypress(m),500,494064,494064,491141,491133.00000000006,491174,494105,8,400,47,,ISIC_5406677.JPG
break,html.Screen,4_96_1,2023-11-01T16:14:04.412Z,,0,,,NaN,,,,,,false,,,,494065,494065,,494064,,494105,8,400,,,
break_continue,html.Screen,4_96_2,2023-11-01T16:14:04.412Z,,0,,,NaN,,,,,,false,,,,494065,494065,,494065,,494105,8,400,,,
sequence,flow.Sequence,4_96,2023-11-01T16:14:04.412Z,,0,,,2891,completion,,,,,false,,,,494065,494065,491141,491133.00000000006,491174,494105,8,400,,,
trial,html.Screen,4_97_0,2023-11-01T16:14:07.273Z,,0,2,,2853,response,ISIC_7612992.JPG,3,ISIC_0028009.JPG,ISIC_0028009.JPG,false,0,keypress(z),500,496926,496926,494073,494066.00000000006,494105,496970,8,400,48,,ISIC_7612992.JPG
break,html.Screen,4_97_1,2023-11-01T16:14:07.273Z,,0,,,NaN,,,,,,false,,,,496927,496927,,496926,,496970,8,400,,,
break_continue,html.Screen,4_97_2,2023-11-01T16:14:07.274Z,,0,,,NaN,,,,,,false,,,,496927,496927,,496927,,496970,8,400,,,
sequence,flow.Sequence,4_97,2023-11-01T16:14:07.274Z,,0,,,2822,completion,,,,,false,,,,496927,496927,494073,494065,494105,496970,8,400,,,
trial,html.Screen,4_98_0,2023-11-01T16:14:10.379Z,,0,2,,3096,response,ISIC_4425657.JPG,4,ISIC_0030101.JPG,ISIC_0030101.JPG,false,0,keypress(z),500,500033,500033,496937,496928,496970,500085,8,400,49,,ISIC_4425657.JPG
break,html.Screen,4_98_1,2023-11-01T16:14:10.380Z,,0,,,NaN,,,,,,false,,,,500034,500033,,500033,,500085,8,400,,,
break_continue,html.Screen,4_98_2,2023-11-01T16:14:10.380Z,,0,,,NaN,,,,,,false,,,,500034,500034,,500034,,500085,8,400,,,
sequence,flow.Sequence,4_98,2023-11-01T16:14:10.380Z,,0,,,3064,completion,,,,,false,,,,500034,500034,496937,496928,496970,500085,8,400,,,
trial,html.Screen,4_99_0,2023-11-01T16:14:14.103Z,,0,2,,3705,response,ISIC_0069505.JPG,11,ISIC_1850388.JPG,ISIC_1850388.JPG,false,0,keypress(z),500,503757,503757,500052,500034,500085,503799,8,400,50,,ISIC_0069505.JPG
break,html.Screen,4_99_1,2023-11-01T16:14:24.106Z,,0,,,9994,timeout,,,,,false,,,,513760,513760,503766,503757,503799,513793,8,400,,,
break_continue,html.Screen,4_99_2,2023-11-01T16:14:25.433Z,,0,,,1355,response,,,,,false,continue,keypress(Space),,515087.99999999994,515115,513760,513760,513793,515125,8,400,,,
sequence,flow.Sequence,4_99,2023-11-01T16:14:25.433Z,,0,,,15030,completion,,,,,false,,,,515087.99999999994,515115,500052,500034,500085,515125,8,400,,,
trial,html.Screen,4_100_0,2023-11-01T16:14:28.362Z,,0,3,,2925.000000000058,response,ISIC_7364041.JPG,6,ISIC_0011234.JPG,ISIC_0011234.JPG,false,0,keypress(z),500,518017.00000000006,518017.00000000006,515092,515087.99999999994,515125,518057,8,400,1,,ISIC_7364041.JPG
break,html.Screen,4_100_1,2023-11-01T16:14:28.363Z,,0,,,NaN,,,,,,false,,,,518017.00000000006,518017.00000000006,,518017.00000000006,,518057,8,400,,,
break_continue,html.Screen,4_100_2,2023-11-01T16:14:28.363Z,,0,,,NaN,,,,,,false,,,,518018,518018,,518018,,518057,8,400,,,
sequence,flow.Sequence,4_100,2023-11-01T16:14:28.363Z,,0,,,2893,completion,,,,,false,,,,518018,518018,515092,515087.99999999994,515125,518057,8,400,,,
trial,html.Screen,4_101_0,2023-11-01T16:14:31.712Z,,0,3,,3343,response,ISIC_3744940.JPG,2,ISIC_3767325.JPG,ISIC_3744940.JPG,false,1,keypress(m),500,521366,521366,518023,518018,518057,521404,8,400,2,,ISIC_3767325.JPG
break,html.Screen,4_101_1,2023-11-01T16:14:31.712Z,,0,,,NaN,,,,,,false,,,,521366.99999999994,521366.99999999994,,521366,,521404,8,400,,,
break_continue,html.Screen,4_101_2,2023-11-01T16:14:31.712Z,,0,,,NaN,,,,,,false,,,,521366.99999999994,521366.99999999994,,521366.99999999994,,521404,8,400,,,
sequence,flow.Sequence,4_101,2023-11-01T16:14:31.713Z,,0,,,3309.999999999942,completion,,,,,false,,,,521366.99999999994,521366.99999999994,518023,518018,518057,521404,8,400,,,
trial,html.Screen,4_102_0,2023-11-01T16:14:34.371Z,,0,3,,2652,response,ISIC_9513918.JPG,2,ISIC_0000283.JPG,ISIC_0000283.JPG,false,0,keypress(z),500,524026.00000000006,524023,521371,521366.99999999994,521404,524069,8,400,3,,ISIC_9513918.JPG
break,html.Screen,4_102_1,2023-11-01T16:14:34.371Z,,0,,,NaN,,,,,,false,,,,524026.00000000006,524026.00000000006,,524026.00000000006,,524069,8,400,,,
break_continue,html.Screen,4_102_2,2023-11-01T16:14:34.372Z,,0,,,NaN,,,,,,false,,,,524026.00000000006,524026.00000000006,,524026.00000000006,,524069,8,400,,,
sequence,flow.Sequence,4_102,2023-11-01T16:14:34.372Z,,0,,,2622.000000000058,completion,,,,,false,,,,524026.00000000006,524026.00000000006,521371,521366.99999999994,521404,524069,8,400,,,
trial,html.Screen,4_103_0,2023-11-01T16:14:36.914Z,,0,3,,2534,response,ISIC_7883190.JPG,2,ISIC_3520709.JPG,ISIC_7883190.JPG,false,1,keypress(m),500,526569,526569,524035,524027.00000000006,524069,526617,8,400,4,,ISIC_3520709.JPG
break,html.Screen,4_103_1,2023-11-01T16:14:36.915Z,,0,,,NaN,,,,,,false,,,,526570,526570,,526569,,526617,8,400,,,
break_continue,html.Screen,4_103_2,2023-11-01T16:14:36.915Z,,0,,,NaN,,,,,,false,,,,526570,526570,,526570,,526617,8,400,,,
sequence,flow.Sequence,4_103,2023-11-01T16:14:36.915Z,,0,,,2501,completion,,,,,false,,,,526570,526570,524035,524026.00000000006,524069,526617,8,400,,,
trial,html.Screen,4_104_0,2023-11-01T16:14:39.886Z,,0,3,,2956,response,ISIC_0010503.JPG,12,ISIC_0651114.JPG,ISIC_0651114.JPG,false,0,keypress(z),500,529541,529541,526585,526570,526617,529582,8,400,5,,ISIC_0010503.JPG
break,html.Screen,4_104_1,2023-11-01T16:14:39.887Z,,0,,,NaN,,,,,,false,,,,529542,529542,,529541,,529582,8,400,,,
break_continue,html.Screen,4_104_2,2023-11-01T16:14:39.887Z,,0,,,NaN,,,,,,false,,,,529542,529542,,529542,,529582,8,400,,,
sequence,flow.Sequence,4_104,2023-11-01T16:14:39.888Z,,0,,,2925,completion,,,,,false,,,,529542,529542,526585,526570,526617,529582,8,400,,,
trial,html.Screen,4_105_0,2023-11-01T16:14:42.958Z,,0,3,,3064,response,ISIC_4477599.JPG,8,ISIC_9775430.JPG,ISIC_4477599.JPG,false,1,keypress(m),500,532614,532613,529549,529543,529582,532664,8,400,6,,ISIC_9775430.JPG
break,html.Screen,4_105_1,2023-11-01T16:14:42.959Z,,0,,,NaN,,,,,,false,,,,532614,532614,,532614,,532664,8,400,,,
break_continue,html.Screen,4_105_2,2023-11-01T16:14:42.959Z,,0,,,NaN,,,,,,false,,,,532614,532614,,532614,,532664,8,400,,,
sequence,flow.Sequence,4_105,2023-11-01T16:14:42.959Z,,0,,,3032,completion,,,,,false,,,,532615,532614,529549,529543,529582,532664,8,400,,,
trial,html.Screen,4_106_0,2023-11-01T16:14:45.879Z,,0,3,,2904,response,ISIC_0032190.JPG,6,ISIC_2152875.JPG,ISIC_2152875.JPG,false,0,keypress(z),500,535534,535534,532630,532615,532664,535579,8,400,7,,ISIC_0032190.JPG
break,html.Screen,4_106_1,2023-11-01T16:14:45.879Z,,0,,,NaN,,,,,,false,,,,535535,535535,,535534,,535579,8,400,,,
break_continue,html.Screen,4_106_2,2023-11-01T16:14:45.880Z,,0,,,NaN,,,,,,false,,,,535535,535535,,535535,,535579,8,400,,,
sequence,flow.Sequence,4_106,2023-11-01T16:14:45.880Z,,0,,,2871,completion,,,,,false,,,,535535,535535,532630,532615,532664,535579,8,400,,,
trial,html.Screen,4_107_0,2023-11-01T16:14:49.591Z,,0,3,,3701,response,ISIC_0012722.JPG,2,ISIC_6993129.JPG,ISIC_0012722.JPG,false,1,keypress(m),500,539246,539246,535545,535535,535579,539293,8,400,8,,ISIC_6993129.JPG
break,html.Screen,4_107_1,2023-11-01T16:14:49.591Z,,0,,,NaN,,,,,,false,,,,539247,539247,,539246,,539293,8,400,,,
break_continue,html.Screen,4_107_2,2023-11-01T16:14:49.591Z,,0,,,NaN,,,,,,false,,,,539247,539247,,539247,,539293,8,400,,,
sequence,flow.Sequence,4_107,2023-11-01T16:14:49.592Z,,0,,,3668,completion,,,,,false,,,,539247,539247,535545,535535,535579,539293,8,400,,,
trial,html.Screen,4_108_0,2023-11-01T16:14:52.842Z,,0,3,,3238,response,ISIC_0029212.JPG,5,ISIC_0070009.JPG,ISIC_0070009.JPG,false,0,keypress(z),500,542497,542497,539259,539247,539293,542541,8,400,9,,ISIC_0029212.JPG
break,html.Screen,4_108_1,2023-11-01T16:14:52.842Z,,0,,,NaN,,,,,,false,,,,542498,542497,,542497,,542541,8,400,,,
break_continue,html.Screen,4_108_2,2023-11-01T16:14:52.842Z,,0,,,NaN,,,,,,false,,,,542498,542498,,542498,,542541,8,400,,,
sequence,flow.Sequence,4_108,2023-11-01T16:14:52.843Z,,0,,,3205,completion,,,,,false,,,,542498,542498,539259,539247,539293,542541,8,400,,,
trial,html.Screen,4_109_0,2023-11-01T16:14:55.764Z,,0,3,,2912,response,ISIC_0032441.JPG,5,ISIC_0031337.JPG,ISIC_0031337.JPG,false,0,keypress(z),500,545419,545419,542507,542498,542541,545455,8,400,10,,ISIC_0032441.JPG
break,html.Screen,4_109_1,2023-11-01T16:14:55.764Z,,0,,,NaN,,,,,,false,,,,545420,545420,,545420,,545455,8,400,,,
break_continue,html.Screen,4_109_2,2023-11-01T16:14:55.764Z,,0,,,NaN,,,,,,false,,,,545420,545420,,545420,,545455,8,400,,,
sequence,flow.Sequence,4_109,2023-11-01T16:14:55.765Z,,0,,,2879,completion,,,,,false,,,,545420,545420,542507,542498,542541,545455,8,400,,,
trial,html.Screen,4_110_0,2023-11-01T16:14:59.588Z,,0,3,,3821,response,ISIC_6443984.JPG,9,ISIC_3690890.JPG,ISIC_3690890.JPG,false,0,keypress(z),500,549243,549243,545422,545420,545455,549286,8,400,11,,ISIC_6443984.JPG
break,html.Screen,4_110_1,2023-11-01T16:14:59.588Z,,0,,,NaN,,,,,,false,,,,549244,549244,,549243,,549286,8,400,,,
break_continue,html.Screen,4_110_2,2023-11-01T16:14:59.588Z,,0,,,NaN,,,,,,false,,,,549244,549244,,549244,,549286,8,400,,,
sequence,flow.Sequence,4_110,2023-11-01T16:14:59.588Z,,0,,,3789,completion,,,,,false,,,,549244,549244,545422,545420,545455,549286,8,400,,,
trial,html.Screen,4_111_0,2023-11-01T16:15:04.364Z,,0,3,,4767,response,ISIC_0011801.JPG,8,ISIC_8138363.JPG,ISIC_0011801.JPG,false,1,keypress(m),500,554019,554019,549252,549244,549286,554066,8,400,12,,ISIC_8138363.JPG
break,html.Screen,4_111_1,2023-11-01T16:15:04.364Z,,0,,,NaN,,,,,,false,,,,554020,554020,,554020,,554066,8,400,,,
break_continue,html.Screen,4_111_2,2023-11-01T16:15:04.364Z,,0,,,NaN,,,,,,false,,,,554020,554020,,554020,,554066,8,400,,,
sequence,flow.Sequence,4_111,2023-11-01T16:15:04.364Z,,0,,,4734,completion,,,,,false,,,,554020,554020,549252,549244,549286,554066,8,400,,,
trial,html.Screen,4_112_0,2023-11-01T16:15:07.206Z,,0,3,,2829,response,ISIC_9694020.JPG,1,ISIC_3428523.JPG,ISIC_3428523.JPG,false,0,keypress(z),500,556862,556862,554033,554020,554066,556914,8,400,13,,ISIC_9694020.JPG
break,html.Screen,4_112_1,2023-11-01T16:15:07.207Z,,0,,,NaN,,,,,,false,,,,556863,556863,,556862,,556914,8,400,,,
break_continue,html.Screen,4_112_2,2023-11-01T16:15:07.207Z,,0,,,NaN,,,,,,false,,,,556863,556863,,556863,,556914,8,400,,,
sequence,flow.Sequence,4_112,2023-11-01T16:15:07.207Z,,0,,,2797,completion,,,,,false,,,,556864,556863,554033,554020,554066,556914,8,400,,,
trial,html.Screen,4_113_0,2023-11-01T16:15:09.994Z,,0,3,,2769,response,ISIC_0000036.JPG,0,ISIC_7759913.JPG,ISIC_7759913.JPG,false,0,keypress(z),500,559650,559650,556881,556864,556914,559696,8,400,14,,ISIC_0000036.JPG
break,html.Screen,4_113_1,2023-11-01T16:15:09.995Z,,0,,,NaN,,,,,,false,,,,559651.0000000001,559651.0000000001,,559650,,559696,8,400,,,
break_continue,html.Screen,4_113_2,2023-11-01T16:15:09.995Z,,0,,,NaN,,,,,,false,,,,559651.0000000001,559651.0000000001,,559651.0000000001,,559696,8,400,,,
sequence,flow.Sequence,4_113,2023-11-01T16:15:09.995Z,,0,,,2737.0000000001164,completion,,,,,false,,,,559651.0000000001,559651.0000000001,556881,556864,556914,559696,8,400,,,
trial,html.Screen,4_114_0,2023-11-01T16:15:12.734Z,,0,3,,2728,response,ISIC_0014366.JPG,12,ISIC_0865706.JPG,ISIC_0865706.JPG,false,0,keypress(z),500,562390,562390,559662,559651.0000000001,559696,562443,8,400,15,,ISIC_0014366.JPG
break,html.Screen,4_114_1,2023-11-01T16:15:12.735Z,,0,,,NaN,,,,,,false,,,,562391,562391,,562390,,562443,8,400,,,
break_continue,html.Screen,4_114_2,2023-11-01T16:15:12.735Z,,0,,,NaN,,,,,,false,,,,562391,562391,,562391,,562443,8,400,,,
sequence,flow.Sequence,4_114,2023-11-01T16:15:12.735Z,,0,,,2695,completion,,,,,false,,,,562391,562391,559662,559651.0000000001,559696,562443,8,400,,,
trial,html.Screen,4_115_0,2023-11-01T16:15:15.844Z,,0,3,,3090,response,ISIC_0028746.JPG,8,ISIC_0004955.JPG,ISIC_0004955.JPG,false,0,keypress(z),500,565501,565500,562410,562391,562443,565542,8,400,16,,ISIC_0028746.JPG
break,html.Screen,4_115_1,2023-11-01T16:15:15.845Z,,0,,,NaN,,,,,,false,,,,565501,565501,,565501,,565542,8,400,,,
break_continue,html.Screen,4_115_2,2023-11-01T16:15:15.845Z,,0,,,NaN,,,,,,false,,,,565501,565501,,565501,,565542,8,400,,,
sequence,flow.Sequence,4_115,2023-11-01T16:15:15.845Z,,0,,,3058,completion,,,,,false,,,,565501,565501,562410,562391,562443,565542,8,400,,,
trial,html.Screen,4_116_0,2023-11-01T16:15:19.115Z,,0,3,,3262,response,ISIC_2768787.JPG,7,ISIC_0011801.JPG,ISIC_0011801.JPG,false,0,keypress(z),500,568771,568771,565509,565501,565542,568823,8,400,17,,ISIC_2768787.JPG
break,html.Screen,4_116_1,2023-11-01T16:15:19.115Z,,0,,,NaN,,,,,,false,,,,568772,568772,,568771,,568823,8,400,,,
break_continue,html.Screen,4_116_2,2023-11-01T16:15:19.115Z,,0,,,NaN,,,,,,false,,,,568772,568772,,568772,,568823,8,400,,,
sequence,flow.Sequence,4_116,2023-11-01T16:15:19.116Z,,0,,,3230,completion,,,,,false,,,,568772,568772,565509,565501,565542,568823,8,400,,,
trial,html.Screen,4_117_0,2023-11-01T16:15:22.252Z,,0,3,,3119,response,ISIC_1264725.JPG,0,ISIC_0004789.JPG,ISIC_0004789.JPG,false,0,keypress(z),500,571909,571909,568790,568772,568823,571954,8,400,18,,ISIC_1264725.JPG
break,html.Screen,4_117_1,2023-11-01T16:15:22.253Z,,0,,,NaN,,,,,,false,,,,571910,571910,,571909,,571954,8,400,,,
break_continue,html.Screen,4_117_2,2023-11-01T16:15:22.254Z,,0,,,NaN,,,,,,false,,,,571910,571910,,571910,,571954,8,400,,,
sequence,flow.Sequence,4_117,2023-11-01T16:15:22.254Z,,0,,,3087,completion,,,,,false,,,,571910,571910,568790,568772,568823,571954,8,400,,,
trial,html.Screen,4_118_0,2023-11-01T16:15:25.232Z,,0,3,,2967,response,ISIC_2521424.JPG,10,ISIC_7507286.JPG,ISIC_2521424.JPG,false,1,keypress(m),500,574889,574888,571921,571911,571954,574936,8,400,19,,ISIC_7507286.JPG
break,html.Screen,4_118_1,2023-11-01T16:15:25.232Z,,0,,,NaN,,,,,,false,,,,574889,574889,,574889,,574936,8,400,,,
break_continue,html.Screen,4_118_2,2023-11-01T16:15:25.233Z,,0,,,NaN,,,,,,false,,,,574889,574889,,574889,,574936,8,400,,,
sequence,flow.Sequence,4_118,2023-11-01T16:15:25.233Z,,0,,,2935,completion,,,,,false,,,,574890,574889,571921,571911,571954,574936,8,400,,,
trial,html.Screen,4_119_0,2023-11-01T16:15:28.049Z,,0,3,,2804,response,ISIC_0000135.JPG,8,ISIC_5519357.JPG,ISIC_0000135.JPG,false,1,keypress(m),500,577706,577706,574902,574890,574936,577750,8,400,20,,ISIC_5519357.JPG
break,html.Screen,4_119_1,2023-11-01T16:15:28.050Z,,0,,,NaN,,,,,,false,,,,577707,577707,,577706,,577750,8,400,,,
break_continue,html.Screen,4_119_2,2023-11-01T16:15:28.050Z,,0,,,NaN,,,,,,false,,,,577707,577707,,577707,,577750,8,400,,,
sequence,flow.Sequence,4_119,2023-11-01T16:15:28.050Z,,0,,,2771,completion,,,,,false,,,,577707,577707,574902,574890,574936,577750,8,400,,,
trial,html.Screen,4_120_0,2023-11-01T16:15:31.296Z,,0,3,,3235,response,ISIC_6188469.JPG,7,ISIC_0033530.JPG,ISIC_6188469.JPG,false,1,keypress(m),500,580953,580952,577717,577707,577750,580998,8,400,21,,ISIC_0033530.JPG
break,html.Screen,4_120_1,2023-11-01T16:15:31.296Z,,0,,,NaN,,,,,,false,,,,580954.0000000001,580953,,580953,,580998,8,400,,,
break_continue,html.Screen,4_120_2,2023-11-01T16:15:31.297Z,,0,,,NaN,,,,,,false,,,,580954.0000000001,580954.0000000001,,580954.0000000001,,580998,8,400,,,
sequence,flow.Sequence,4_120,2023-11-01T16:15:31.297Z,,0,,,3204.0000000001164,completion,,,,,false,,,,580954.0000000001,580954.0000000001,577717,577707,577750,580998,8,400,,,
trial,html.Screen,4_121_0,2023-11-01T16:15:34.017Z,,0,3,,2709,response,ISIC_9409255.JPG,9,ISIC_0027817.JPG,ISIC_0027817.JPG,false,0,keypress(z),500,583674,583674,580965,580954.0000000001,580998,583713,8,400,22,,ISIC_9409255.JPG
break,html.Screen,4_121_1,2023-11-01T16:15:34.017Z,,0,,,NaN,,,,,,false,,,,583674,583674,,583674,,583713,8,400,,,
break_continue,html.Screen,4_121_2,2023-11-01T16:15:34.018Z,,0,,,NaN,,,,,,false,,,,583675.0000000001,583675.0000000001,,583675.0000000001,,583713,8,400,,,
sequence,flow.Sequence,4_121,2023-11-01T16:15:34.018Z,,0,,,2677.0000000001164,completion,,,,,false,,,,583675.0000000001,583675.0000000001,580965,580954.0000000001,580998,583713,8,400,,,
trial,html.Screen,4_122_0,2023-11-01T16:15:36.746Z,,0,3,,2720,response,ISIC_0192893.JPG,4,ISIC_0026086.JPG,ISIC_0192893.JPG,false,1,keypress(m),500,586403,586400,583680,583675.0000000001,583713,586445,8,400,23,,ISIC_0026086.JPG
break,html.Screen,4_122_1,2023-11-01T16:15:36.746Z,,0,,,NaN,,,,,,false,,,,586403,586403,,586403,,586445,8,400,,,
break_continue,html.Screen,4_122_2,2023-11-01T16:15:36.746Z,,0,,,NaN,,,,,,false,,,,586404,586404,,586404,,586445,8,400,,,
sequence,flow.Sequence,4_122,2023-11-01T16:15:36.747Z,,0,,,2691,completion,,,,,false,,,,586404,586404,583680,583675.0000000001,583713,586445,8,400,,,
trial,html.Screen,4_123_0,2023-11-01T16:15:39.283Z,,0,3,,2529,response,ISIC_3688407.JPG,5,ISIC_7413149.JPG,ISIC_7413149.JPG,false,0,keypress(z),500,588940,588940,586411,586404,586445,588992,8,400,24,,ISIC_3688407.JPG
break,html.Screen,4_123_1,2023-11-01T16:15:39.283Z,,0,,,NaN,,,,,,false,,,,588941,588941,,588940,,588992,8,400,,,
break_continue,html.Screen,4_123_2,2023-11-01T16:15:39.284Z,,0,,,NaN,,,,,,false,,,,588941,588941,,588941,,588992,8,400,,,
sequence,flow.Sequence,4_123,2023-11-01T16:15:39.284Z,,0,,,2496,completion,,,,,false,,,,588941,588941,586411,586404,586445,588992,8,400,,,
trial,html.Screen,4_124_0,2023-11-01T16:15:42.578Z,,0,3,,3276,response,ISIC_0055251.JPG,7,ISIC_6722934.JPG,ISIC_6722934.JPG,false,0,keypress(z),500,592235,592235,588959,588941,588992,592274,8,400,25,,ISIC_0055251.JPG
break,html.Screen,4_124_1,2023-11-01T16:15:42.578Z,,0,,,NaN,,,,,,false,,,,592236,592236,,592236,,592274,8,400,,,
break_continue,html.Screen,4_124_2,2023-11-01T16:15:42.579Z,,0,,,NaN,,,,,,false,,,,592236,592236,,592236,,592274,8,400,,,
sequence,flow.Sequence,4_124,2023-11-01T16:15:42.579Z,,0,,,3244,completion,,,,,false,,,,592236,592236,588959,588941,588992,592274,8,400,,,
trial,html.Screen,4_125_0,2023-11-01T16:15:45.551Z,,0,3,,2968,response,ISIC_0000142.JPG,2,ISIC_0033245.JPG,ISIC_0000142.JPG,false,1,keypress(m),500,595208,595208,592240,592236,592274,595256,8,400,26,,ISIC_0033245.JPG
break,html.Screen,4_125_1,2023-11-01T16:15:45.551Z,,0,,,NaN,,,,,,false,,,,595209.0000000001,595209.0000000001,,595209.0000000001,,595256,8,400,,,
break_continue,html.Screen,4_125_2,2023-11-01T16:15:45.552Z,,0,,,NaN,,,,,,false,,,,595209.0000000001,595209.0000000001,,595209.0000000001,,595256,8,400,,,
sequence,flow.Sequence,4_125,2023-11-01T16:15:45.552Z,,0,,,2935.0000000001164,completion,,,,,false,,,,595209.0000000001,595209.0000000001,592240,592236,592274,595256,8,400,,,
trial,html.Screen,4_126_0,2023-11-01T16:15:48.945Z,,0,3,,3381.0000000001164,response,ISIC_3157046.JPG,9,ISIC_3701563.JPG,ISIC_3701563.JPG,false,0,keypress(z),500,598603.0000000001,598603.0000000001,595222,595210,595256,598654,8,400,27,,ISIC_3157046.JPG
break,html.Screen,4_126_1,2023-11-01T16:15:48.946Z,,0,,,NaN,,,,,,false,,,,598604,598604,,598603.0000000001,,598654,8,400,,,
break_continue,html.Screen,4_126_2,2023-11-01T16:15:48.946Z,,0,,,NaN,,,,,,false,,,,598604,598604,,598604,,598654,8,400,,,
sequence,flow.Sequence,4_126,2023-11-01T16:15:48.946Z,,0,,,3348,completion,,,,,false,,,,598604,598604,595222,595210,595256,598654,8,400,,,
trial,html.Screen,4_127_0,2023-11-01T16:15:51.999Z,,0,3,,3037.0000000001164,response,ISIC_0013831.JPG,16,ISIC_0053791.JPG,ISIC_0013831.JPG,false,1,keypress(m),500,601656.0000000001,601656.0000000001,598619,598604,598654,601701,8,400,28,,ISIC_0053791.JPG
break,html.Screen,4_127_1,2023-11-01T16:15:51.999Z,,0,,,NaN,,,,,,false,,,,601657,601657,,601656.0000000001,,601701,8,400,,,
break_continue,html.Screen,4_127_2,2023-11-01T16:15:51.999Z,,0,,,NaN,,,,,,false,,,,601657,601657,,601657,,601701,8,400,,,
sequence,flow.Sequence,4_127,2023-11-01T16:15:51.999Z,,0,,,3003,completion,,,,,false,,,,601657,601657,598619,598604,598654,601701,8,400,,,
trial,html.Screen,4_128_0,2023-11-01T16:15:54.790Z,,0,3,,2780,response,ISIC_6913045.JPG,2,ISIC_6356522.JPG,ISIC_6913045.JPG,false,1,keypress(m),500,604448,604448,601668,601657,601701,604499,8,400,29,,ISIC_6356522.JPG
break,html.Screen,4_128_1,2023-11-01T16:15:54.791Z,,0,,,NaN,,,,,,false,,,,604449.0000000001,604449.0000000001,,604449.0000000001,,604499,8,400,,,
break_continue,html.Screen,4_128_2,2023-11-01T16:15:54.791Z,,0,,,NaN,,,,,,false,,,,604449.0000000001,604449.0000000001,,604449.0000000001,,604499,8,400,,,
sequence,flow.Sequence,4_128,2023-11-01T16:15:54.791Z,,0,,,2748.0000000001164,completion,,,,,false,,,,604449.0000000001,604449.0000000001,601668,601657,601701,604499,8,400,,,
trial,html.Screen,4_129_0,2023-11-01T16:15:57.900Z,,0,3,,3092,response,ISIC_0033911.JPG,15,ISIC_0799535.JPG,ISIC_0799535.JPG,false,0,keypress(z),500,607558,607558,604466,604449.0000000001,604499,607598,8,400,30,,ISIC_0033911.JPG
break,html.Screen,4_129_1,2023-11-01T16:15:57.900Z,,0,,,NaN,,,,,,false,,,,607558,607558,,607558,,607598,8,400,,,
break_continue,html.Screen,4_129_2,2023-11-01T16:15:57.900Z,,0,,,NaN,,,,,,false,,,,607558,607558,,607558,,607598,8,400,,,
sequence,flow.Sequence,4_129,2023-11-01T16:15:57.900Z,,0,,,3059,completion,,,,,false,,,,607559,607558,604466,604449.0000000001,604499,607598,8,400,,,
trial,html.Screen,4_130_0,2023-11-01T16:16:00.441Z,,0,3,,2535,response,ISIC_0011490.JPG,5,ISIC_1985436.JPG,ISIC_1985436.JPG,false,0,keypress(z),500,610099,610099,607564,607559,607598,610146,8,400,31,,ISIC_0011490.JPG
break,html.Screen,4_130_1,2023-11-01T16:16:00.441Z,,0,,,NaN,,,,,,false,,,,610099,610099,,610099,,610146,8,400,,,
break_continue,html.Screen,4_130_2,2023-11-01T16:16:00.441Z,,0,,,NaN,,,,,,false,,,,610100,610100,,610100,,610146,8,400,,,
sequence,flow.Sequence,4_130,2023-11-01T16:16:00.442Z,,0,,,2502,completion,,,,,false,,,,610100,610100,607564,607559,607598,610146,8,400,,,
trial,html.Screen,4_131_0,2023-11-01T16:16:03.168Z,,0,3,,2714,response,ISIC_0064095.JPG,9,ISIC_0026596.JPG,ISIC_0026596.JPG,false,0,keypress(z),500,612826,612826,610112,610100,610146,612877,8,400,32,,ISIC_0064095.JPG
break,html.Screen,4_131_1,2023-11-01T16:16:03.168Z,,0,,,NaN,,,,,,false,,,,612826,612826,,612826,,612877,8,400,,,
break_continue,html.Screen,4_131_2,2023-11-01T16:16:03.168Z,,0,,,NaN,,,,,,false,,,,612827,612827,,612826,,612877,8,400,,,
sequence,flow.Sequence,4_131,2023-11-01T16:16:03.168Z,,0,,,2681,completion,,,,,false,,,,612827,612827,610112,610100,610146,612877,8,400,,,
trial,html.Screen,4_132_0,2023-11-01T16:16:05.814Z,,0,3,,2628,response,ISIC_6801988.JPG,1,ISIC_0055361.JPG,ISIC_6801988.JPG,false,1,keypress(m),500,615472,615472,612844,612827,612877,615526,8,400,33,,ISIC_0055361.JPG
break,html.Screen,4_132_1,2023-11-01T16:16:05.814Z,,0,,,NaN,,,,,,false,,,,615473,615472,,615472,,615526,8,400,,,
break_continue,html.Screen,4_132_2,2023-11-01T16:16:05.814Z,,0,,,NaN,,,,,,false,,,,615473,615473,,615473,,615526,8,400,,,
sequence,flow.Sequence,4_132,2023-11-01T16:16:05.814Z,,0,,,2596,completion,,,,,false,,,,615473,615473,612844,612827,612877,615526,8,400,,,
trial,html.Screen,4_133_0,2023-11-01T16:16:09.557Z,,0,3,,3724,response,ISIC_0027122.JPG,9,ISIC_0062204.JPG,ISIC_0062204.JPG,false,0,keypress(z),500,619216,619215,615491,615473,615526,619256,8,400,34,,ISIC_0027122.JPG
break,html.Screen,4_133_1,2023-11-01T16:16:09.558Z,,0,,,NaN,,,,,,false,,,,619216,619216,,619216,,619256,8,400,,,
break_continue,html.Screen,4_133_2,2023-11-01T16:16:09.558Z,,0,,,NaN,,,,,,false,,,,619217,619217,,619216,,619256,8,400,,,
sequence,flow.Sequence,4_133,2023-11-01T16:16:09.558Z,,0,,,3691,completion,,,,,false,,,,619217,619217,615491,615473,615526,619256,8,400,,,
trial,html.Screen,4_134_0,2023-11-01T16:16:12.361Z,,0,3,,2797,response,ISIC_0013244.JPG,5,ISIC_0256715.JPG,ISIC_0256715.JPG,false,0,keypress(z),500,622019,622019,619222,619217,619256,622071,8,400,35,,ISIC_0013244.JPG
break,html.Screen,4_134_1,2023-11-01T16:16:12.361Z,,0,,,NaN,,,,,,false,,,,622020,622020,,622020,,622071,8,400,,,
break_continue,html.Screen,4_134_2,2023-11-01T16:16:12.361Z,,0,,,NaN,,,,,,false,,,,622020,622020,,622020,,622071,8,400,,,
sequence,flow.Sequence,4_134,2023-11-01T16:16:12.362Z,,0,,,2764,completion,,,,,false,,,,622020,622020,619222,619217,619256,622071,8,400,,,
trial,html.Screen,4_135_0,2023-11-01T16:16:15.171Z,,0,3,,2791.0000000001164,response,ISIC_0028211.JPG,6,ISIC_0026664.JPG,ISIC_0026664.JPG,false,0,keypress(z),500,624830,624829.0000000001,622038,622020,622071,624869,8,400,36,,ISIC_0028211.JPG
break,html.Screen,4_135_1,2023-11-01T16:16:15.171Z,,0,,,NaN,,,,,,false,,,,624830,624830,,624830,,624869,8,400,,,
break_continue,html.Screen,4_135_2,2023-11-01T16:16:15.172Z,,0,,,NaN,,,,,,false,,,,624830,624830,,624830,,624869,8,400,,,
sequence,flow.Sequence,4_135,2023-11-01T16:16:15.172Z,,0,,,2759,completion,,,,,false,,,,624830,624830,622038,622020,622071,624869,8,400,,,
trial,html.Screen,4_136_0,2023-11-01T16:16:18.123Z,,0,3,,2945.0000000001164,response,ISIC_5415761.JPG,5,ISIC_0028152.JPG,ISIC_0028152.JPG,false,0,keypress(z),500,627781.0000000001,627781.0000000001,624836,624830,624869,627833,8,400,37,,ISIC_5415761.JPG
break,html.Screen,4_136_1,2023-11-01T16:16:18.123Z,,0,,,NaN,,,,,,false,,,,627782,627782,,627782,,627833,8,400,,,
break_continue,html.Screen,4_136_2,2023-11-01T16:16:18.123Z,,0,,,NaN,,,,,,false,,,,627782,627782,,627782,,627833,8,400,,,
sequence,flow.Sequence,4_136,2023-11-01T16:16:18.124Z,,0,,,2913,completion,,,,,false,,,,627782,627782,624836,624830,624869,627833,8,400,,,
trial,html.Screen,4_137_0,2023-11-01T16:16:20.887Z,,0,3,,2746,response,ISIC_0027110.JPG,0,ISIC_0010614.JPG,ISIC_0010614.JPG,false,0,keypress(z),500,630546,630546,627800,627783,627833,630599,8,400,38,,ISIC_0027110.JPG
break,html.Screen,4_137_1,2023-11-01T16:16:20.888Z,,0,,,NaN,,,,,,false,,,,630547,630547,,630546,,630599,8,400,,,
break_continue,html.Screen,4_137_2,2023-11-01T16:16:20.888Z,,0,,,NaN,,,,,,false,,,,630547,630547,,630547,,630599,8,400,,,
sequence,flow.Sequence,4_137,2023-11-01T16:16:20.888Z,,0,,,2714,completion,,,,,false,,,,630547,630547,627800,627783,627833,630599,8,400,,,
trial,html.Screen,4_138_0,2023-11-01T16:16:24.472Z,,0,3,,3566,response,ISIC_4067693.JPG,6,ISIC_1806179.JPG,ISIC_1806179.JPG,false,0,keypress(z),500,634132.0000000001,634131,630565,630547,630599,634180,8,400,39,,ISIC_4067693.JPG
break,html.Screen,4_138_1,2023-11-01T16:16:24.473Z,,0,,,NaN,,,,,,false,,,,634132.0000000001,634132.0000000001,,634132.0000000001,,634180,8,400,,,
break_continue,html.Screen,4_138_2,2023-11-01T16:16:24.473Z,,0,,,NaN,,,,,,false,,,,634133,634132.0000000001,,634132.0000000001,,634180,8,400,,,
sequence,flow.Sequence,4_138,2023-11-01T16:16:24.473Z,,0,,,3533.0000000001164,completion,,,,,false,,,,634133,634132.0000000001,630565,630547,630599,634180,8,400,,,
trial,html.Screen,4_139_0,2023-11-01T16:16:28.170Z,,0,3,,3682.0000000001164,response,ISIC_1460932.JPG,13,ISIC_0063300.JPG,ISIC_0063300.JPG,false,0,keypress(z),500,637829.0000000001,637829.0000000001,634147,634133,634180,637877,8,400,40,,ISIC_1460932.JPG
break,html.Screen,4_139_1,2023-11-01T16:16:28.170Z,,0,,,NaN,,,,,,false,,,,637830,637829.0000000001,,637829.0000000001,,637877,8,400,,,
break_continue,html.Screen,4_139_2,2023-11-01T16:16:28.170Z,,0,,,NaN,,,,,,false,,,,637830,637830,,637830,,637877,8,400,,,
sequence,flow.Sequence,4_139,2023-11-01T16:16:28.171Z,,0,,,3650,completion,,,,,false,,,,637830,637830,634147,634133,634180,637877,8,400,,,
trial,html.Screen,4_140_0,2023-11-01T16:16:31.181Z,,0,3,,2996,response,ISIC_8366864.JPG,0,ISIC_0028127.JPG,ISIC_8366864.JPG,false,1,keypress(m),500,640840,640840,637844,637830,637877,640892,8,400,41,,ISIC_0028127.JPG
break,html.Screen,4_140_1,2023-11-01T16:16:31.182Z,,0,,,NaN,,,,,,false,,,,640841,640841,,640840,,640892,8,400,,,
break_continue,html.Screen,4_140_2,2023-11-01T16:16:31.182Z,,0,,,NaN,,,,,,false,,,,640842,640841,,640841,,640892,8,400,,,
sequence,flow.Sequence,4_140,2023-11-01T16:16:31.182Z,,0,,,2964,completion,,,,,false,,,,640842,640841,637844,637830,637877,640892,8,400,,,
trial,html.Screen,4_141_0,2023-11-01T16:16:34.092Z,,0,3,,2893.0000000001164,response,ISIC_2979268.JPG,4,ISIC_0071951.JPG,ISIC_0071951.JPG,false,0,keypress(z),500,643752.0000000001,643752.0000000001,640859,640842,640892,643789,8,400,42,,ISIC_2979268.JPG
break,html.Screen,4_141_1,2023-11-01T16:16:34.093Z,,0,,,NaN,,,,,,false,,,,643753,643752.0000000001,,643752.0000000001,,643789,8,400,,,
break_continue,html.Screen,4_141_2,2023-11-01T16:16:34.093Z,,0,,,NaN,,,,,,false,,,,643753,643753,,643753,,643789,8,400,,,
sequence,flow.Sequence,4_141,2023-11-01T16:16:34.093Z,,0,,,2861,completion,,,,,false,,,,643753,643753,640859,640842,640892,643789,8,400,,,
trial,html.Screen,4_142_0,2023-11-01T16:16:37.467Z,,0,3,,3371.0000000001164,response,ISIC_3552318.JPG,7,ISIC_2486088.JPG,ISIC_3552318.JPG,false,1,keypress(m),500,647127.0000000001,647127.0000000001,643756,643753,643789,647171,8,400,43,,ISIC_2486088.JPG
break,html.Screen,4_142_1,2023-11-01T16:16:37.468Z,,0,,,NaN,,,,,,false,,,,647127.0000000001,647127.0000000001,,647127.0000000001,,647171,8,400,,,
break_continue,html.Screen,4_142_2,2023-11-01T16:16:37.468Z,,0,,,NaN,,,,,,false,,,,647128,647128,,647128,,647171,8,400,,,
sequence,flow.Sequence,4_142,2023-11-01T16:16:37.468Z,,0,,,3339,completion,,,,,false,,,,647128,647128,643756,643753,643789,647171,8,400,,,
trial,html.Screen,4_143_0,2023-11-01T16:16:40.330Z,,0,3,,2851,response,ISIC_2395624.JPG,9,ISIC_0024525.JPG,ISIC_2395624.JPG,false,1,keypress(m),500,649989,649989,647138,647128,647171,650036,8,400,44,,ISIC_0024525.JPG
break,html.Screen,4_143_1,2023-11-01T16:16:40.330Z,,0,,,NaN,,,,,,false,,,,649990,649990,,649989,,650036,8,400,,,
break_continue,html.Screen,4_143_2,2023-11-01T16:16:40.330Z,,0,,,NaN,,,,,,false,,,,649990,649990,,649990,,650036,8,400,,,
sequence,flow.Sequence,4_143,2023-11-01T16:16:40.330Z,,0,,,2819,completion,,,,,false,,,,649990,649990,647138,647128,647171,650036,8,400,,,
trial,html.Screen,4_144_0,2023-11-01T16:16:43.655Z,,0,3,,3312,response,ISIC_0010581.JPG,5,ISIC_1927858.JPG,ISIC_1927858.JPG,false,0,keypress(z),500,653315,653315,650003,649990,650036,653367,8,400,45,,ISIC_0010581.JPG
break,html.Screen,4_144_1,2023-11-01T16:16:43.655Z,,0,,,NaN,,,,,,false,,,,653315,653315,,653315,,653367,8,400,,,
break_continue,html.Screen,4_144_2,2023-11-01T16:16:43.656Z,,0,,,NaN,,,,,,false,,,,653316,653315,,653315,,653367,8,400,,,
sequence,flow.Sequence,4_144,2023-11-01T16:16:43.656Z,,0,,,3279,completion,,,,,false,,,,653316,653315,650003,649990,650036,653367,8,400,,,
trial,html.Screen,4_145_0,2023-11-01T16:16:46.659Z,,0,3,,2984,response,ISIC_5290521.JPG,1,ISIC_0001140.JPG,ISIC_0001140.JPG,false,0,keypress(z),500,656319,656318,653334,653316,653367,656365,8,400,46,,ISIC_5290521.JPG
break,html.Screen,4_145_1,2023-11-01T16:16:46.659Z,,0,,,NaN,,,,,,false,,,,656319,656319,,656319,,656365,8,400,,,
break_continue,html.Screen,4_145_2,2023-11-01T16:16:46.660Z,,0,,,NaN,,,,,,false,,,,656320,656320,,656319,,656365,8,400,,,
sequence,flow.Sequence,4_145,2023-11-01T16:16:46.660Z,,0,,,2953,completion,,,,,false,,,,656320,656320,653334,653316,653367,656365,8,400,,,
trial,html.Screen,4_146_0,2023-11-01T16:16:49.666Z,,0,3,,2994,response,ISIC_0028691.JPG,8,ISIC_0059609.JPG,ISIC_0059609.JPG,false,0,keypress(z),500,659326,659326,656332,656320,656365,659380,8,400,47,,ISIC_0028691.JPG
break,html.Screen,4_146_1,2023-11-01T16:16:49.666Z,,0,,,NaN,,,,,,false,,,,659327,659327,,659326,,659380,8,400,,,
break_continue,html.Screen,4_146_2,2023-11-01T16:16:49.667Z,,0,,,NaN,,,,,,false,,,,659327,659327,,659327,,659380,8,400,,,
sequence,flow.Sequence,4_146,2023-11-01T16:16:49.667Z,,0,,,2962,completion,,,,,false,,,,659327,659327,656332,656320,656365,659380,8,400,,,
trial,html.Screen,4_147_0,2023-11-01T16:16:52.606Z,,0,3,,2921,response,ISIC_9745492.JPG,7,ISIC_0030194.JPG,ISIC_0030194.JPG,false,0,keypress(z),500,662266,662266,659345,659327,659380,662311,8,400,48,,ISIC_9745492.JPG
break,html.Screen,4_147_1,2023-11-01T16:16:52.607Z,,0,,,NaN,,,,,,false,,,,662267,662267,,662266,,662311,8,400,,,
break_continue,html.Screen,4_147_2,2023-11-01T16:16:52.607Z,,0,,,NaN,,,,,,false,,,,662267,662267,,662267,,662311,8,400,,,
sequence,flow.Sequence,4_147,2023-11-01T16:16:52.607Z,,0,,,2887,completion,,,,,false,,,,662267,662267,659345,659327,659380,662311,8,400,,,
trial,html.Screen,4_148_0,2023-11-01T16:16:56.691Z,,0,3,,4074,response,ISIC_3877643.JPG,5,ISIC_0222299.JPG,ISIC_3877643.JPG,false,1,keypress(m),500,666351,666351,662277,662267,662311,666392,8,400,49,,ISIC_0222299.JPG
break,html.Screen,4_148_1,2023-11-01T16:16:56.691Z,,0,,,NaN,,,,,,false,,,,666352,666352,,666351,,666392,8,400,,,
break_continue,html.Screen,4_148_2,2023-11-01T16:16:56.692Z,,0,,,NaN,,,,,,false,,,,666352,666352,,666352,,666392,8,400,,,
sequence,flow.Sequence,4_148,2023-11-01T16:16:56.692Z,,0,,,4041,completion,,,,,false,,,,666352,666352,662277,662267,662311,666392,8,400,,,
trial,html.Screen,4_149_0,2023-11-01T16:16:59.475Z,,0,3,,2777,response,ISIC_0031146.JPG,5,ISIC_0014108.JPG,ISIC_0014108.JPG,false,0,keypress(z),500,669136,669136,666359,666352,666392,669189,8,400,50,,ISIC_0031146.JPG
break,html.Screen,4_149_1,2023-11-01T16:17:09.488Z,,0,,,9995,timeout,,,,,false,,,,679149,679149,669157,669136,669189,679184,8,400,,,
break_continue,html.Screen,4_149_2,2023-11-01T21:02:11.273Z,,0,,,4249069,response,,,,,false,continue,keypress(Space),,4928231,4928218,679149,679149,679184,4928266,8,400,,,
sequence,flow.Sequence,4_149,2023-11-01T21:02:11.274Z,,0,,,4261826,completion,,,,,false,,,,4928231,4928218,666359,666352,666392,4928266,8,400,,,
trial,html.Screen,4_150_0,2023-11-01T21:02:15.578Z,,0,4,,4298,response,ISIC_0034039.JPG,26,ISIC_0066750.JPG,ISIC_0034039.JPG,false,1,keypress(m),500,4932534,4932534,4928236,4928231,4928266,4932580,8,400,1,,ISIC_0066750.JPG
break,html.Screen,4_150_1,2023-11-01T21:02:15.579Z,,0,,,NaN,,,,,,false,,,,4932535,4932535,,4932535,,4932580,8,400,,,
break_continue,html.Screen,4_150_2,2023-11-01T21:02:15.579Z,,0,,,NaN,,,,,,false,,,,4932535,4932535,,4932535,,4932580,8,400,,,
sequence,flow.Sequence,4_150,2023-11-01T21:02:15.579Z,,0,,,4269,completion,,,,,false,,,,4932535,4932535,4928236,4928231,4928266,4932580,8,400,,,
trial,html.Screen,4_151_0,2023-11-01T21:02:19.109Z,,0,4,,3517,response,ISIC_0014221.JPG,13,ISIC_0002939.JPG,ISIC_0002939.JPG,false,0,keypress(z),500,4936064,4936064,4932547,4932535,4932580,4936128,8,400,2,,ISIC_0014221.JPG
break,html.Screen,4_151_1,2023-11-01T21:02:19.110Z,,0,,,NaN,,,,,,false,,,,4936065.000000001,4936064,,4936064,,4936128,8,400,,,
break_continue,html.Screen,4_151_2,2023-11-01T21:02:19.110Z,,0,,,NaN,,,,,,false,,,,4936065.000000001,4936065.000000001,,4936065.000000001,,4936128,8,400,,,
sequence,flow.Sequence,4_151,2023-11-01T21:02:19.111Z,,0,,,3485.0000000009313,completion,,,,,false,,,,4936065.000000001,4936065.000000001,4932547,4932535,4932580,4936128,8,400,,,
trial,html.Screen,4_152_0,2023-11-01T21:02:21.759Z,,0,4,,2618,response,ISIC_0032044.JPG,23,ISIC_0002939.JPG,ISIC_0002939.JPG,false,0,keypress(z),500,4938713,4938713,4936095,4936066,4936128,4938759,8,400,3,,ISIC_0032044.JPG
break,html.Screen,4_152_1,2023-11-01T21:02:21.760Z,,0,,,NaN,,,,,,false,,,,4938714,4938714,,4938713,,4938759,8,400,,,
break_continue,html.Screen,4_152_2,2023-11-01T21:02:21.760Z,,0,,,NaN,,,,,,false,,,,4938714,4938714,,4938714,,4938759,8,400,,,
sequence,flow.Sequence,4_152,2023-11-01T21:02:21.760Z,,0,,,2586,completion,,,,,false,,,,4938714,4938714,4936095,4936066,4936128,4938759,8,400,,,
trial,html.Screen,4_153_0,2023-11-01T21:02:24.280Z,,0,4,,2509,response,ISIC_0013334.JPG,14,ISIC_1869829.JPG,ISIC_1869829.JPG,false,0,keypress(z),500,4941234,4941234,4938725,4938714,4938759,4941275,8,400,4,,ISIC_0013334.JPG
break,html.Screen,4_153_1,2023-11-01T21:02:24.281Z,,0,,,NaN,,,,,,false,,,,4941234,4941234,,4941234,,4941275,8,400,,,
break_continue,html.Screen,4_153_2,2023-11-01T21:02:24.281Z,,0,,,NaN,,,,,,false,,,,4941234,4941234,,4941234,,4941275,8,400,,,
sequence,flow.Sequence,4_153,2023-11-01T21:02:24.281Z,,0,,,2475,completion,,,,,false,,,,4941235,4941234,4938725,4938714,4938759,4941275,8,400,,,
trial,html.Screen,4_154_0,2023-11-01T21:02:26.903Z,,0,4,,2615,response,ISIC_7152347.JPG,14,ISIC_8943855.JPG,ISIC_7152347.JPG,false,1,keypress(m),500,4943856,4943856,4941241,4941235,4941275,4943905,8,400,5,,ISIC_8943855.JPG
break,html.Screen,4_154_1,2023-11-01T21:02:26.903Z,,0,,,NaN,,,,,,false,,,,4943856,4943856,,4943856,,4943905,8,400,,,
break_continue,html.Screen,4_154_2,2023-11-01T21:02:26.903Z,,0,,,NaN,,,,,,false,,,,4943857,4943857,,4943856,,4943905,8,400,,,
sequence,flow.Sequence,4_154,2023-11-01T21:02:26.904Z,,0,,,2582,completion,,,,,false,,,,4943857,4943857,4941241,4941235,4941275,4943905,8,400,,,
trial,html.Screen,4_155_0,2023-11-01T21:02:30.227Z,,0,4,,3307,response,ISIC_5157799.JPG,2,ISIC_5910595.JPG,ISIC_5157799.JPG,false,1,keypress(m),500,4947180,4947180,4943873,4943857,4943905,4947220,8,400,6,,ISIC_5910595.JPG
break,html.Screen,4_155_1,2023-11-01T21:02:30.228Z,,0,,,NaN,,,,,,false,,,,4947181.000000001,4947180,,4947180,,4947220,8,400,,,
break_continue,html.Screen,4_155_2,2023-11-01T21:02:30.228Z,,0,,,NaN,,,,,,false,,,,4947181.000000001,4947181.000000001,,4947181.000000001,,4947220,8,400,,,
