sender,sender_type,sender_id,timestamp,meta,,blockNo,condition,duration,ended_on,img_left,img_reveal,img_right,loser,practice,response,response_action,selection_duration,time_commit,time_end,time_render,time_run,time_show,time_switch,total_blocks,total_trials,trialNo,url,winner
informed_consent,html.Screen,0,2023-10-31T20:39:21.902Z,"{""labjs_version"":""20.2.4"",""labjs_build"":{""flavor"":""production"",""commit"":""f5b4a49f956347addd546a832a3327688c2c0fef""},""location"":""https://run.pavlovia.org/MurrayBennett/melanoma-2afc/?participant=67194&platform=sona"",""userAgent"":""Mozilla/5.0 (Windows NT 10.0; Win64; x64) AppleWebKit/537.36 (KHTML, like Gecko) Chrome/118.0.0.0 Safari/537.36"",""platform"":""Win32"",""language"":""en-US"",""locale"":""en-US"",""timeZone"":""America/Chicago"",""timezoneOffset"":300,""screen_width"":1280,""screen_height"":720,""scroll_width"":1280,""scroll_height"":563,""window_innerWidth"":1280,""window_innerHeight"":563,""devicePixelRatio"":1.5}",,,,3947.620999976158,response,,,,,,consent,click button,,5871.399999976158,5870.399999976158,1906.12,1910.3000000715256,1922.779,5896.227,,,,"{""participant"":""67194"",""platform"":""sona""}",
Welcome,html.Screen,1,2023-10-31T21:56:00.120Z,,,,asymmetry,4598192.672999976,response,,,,,,continue,click button,,4604089.5,4604088.899999976,5855.281,5871.700000047684,5896.227,4604098.744,,,,,
trial,html.Screen,2_0_0,2023-10-31T21:56:11.611Z,,0,0,,11512.878999999724,timeout,ISIC_0069348.JPG,,ISIC_6997061.JPG,,true,,,500,4615580.899999976,4615580.8000000715,4604082.341,4604089.8000000715,4604098.744,4615611.623,1,6,1,,
sequence,flow.Sequence,2_0,2023-10-31T21:56:11.611Z,,0,,,11482.056000071578,completion,,,,,true,,,,4615581.100000024,4615580.8000000715,4604082.341,4604089.700000048,4604098.744,4615611.623,1,6,,,
trial,html.Screen,2_1_0,2023-10-31T21:56:23.375Z,,0,0,,21609.02100000065,timeout,ISIC_0057368.JPG,,ISIC_0009529.JPG,,true,,,500,4627344.899999976,4627344.700000048,4615594.942,4615581.200000048,4615611.623,4637220.644,1,6,2,,
sequence,flow.Sequence,2_1,2023-10-31T21:56:23.375Z,,0,,,11733.077000048012,completion,,,,,true,,,,4627345,4627344.700000048,4615594.942,4615581.200000048,4615611.623,4637220.644,1,6,,,
trial,html.Screen,2_2_0,2023-10-31T21:56:45.378Z,,0,0,,74558.08299999963,timeout,ISIC_0064954.JPG,,ISIC_9758671.JPG,,true,,,500,4649345.899999976,4649345.600000024,4637204.227,4627345.100000024,4637220.644,4711778.727,1,6,3,,
sequence,flow.Sequence,2_2,2023-10-31T21:56:45.378Z,,0,,,12124.956000023521,completion,,,,,true,,,,4649346.200000048,4649345.600000024,4637204.227,4627345,4637220.644,4711778.727,1,6,,,
trial,html.Screen,2_3_0,2023-10-31T21:57:52.296Z,,0,0,,4486.373000023887,response,ISIC_0000080.JPG,,ISIC_0005785.JPG,ISIC_0000080.JPG,true,1,keypress(m),500,4716265.3000000715,4716265.100000024,4711762.062,4649346.399999976,4711778.727,4716277.212,1,6,4,,ISIC_0005785.JPG
sequence,flow.Sequence,2_3,2023-10-31T21:57:52.296Z,,0,,,4486.373000023887,completion,,,,,true,,,,4716265.5,4716265.100000024,4711762.062,4649346.3000000715,4711778.727,4716277.212,1,6,,,
trial,html.Screen,2_4_0,2023-10-31T21:57:56.066Z,,0,0,,3758.088000071235,response,ISIC_7944028.JPG,,ISIC_5390060.JPG,ISIC_7944028.JPG,true,1,keypress(m),500,4720035.5,4720035.3000000715,4716260.544,4716265.600000024,4716277.212,4720042.953,1,6,5,,ISIC_5390060.JPG
sequence,flow.Sequence,2_4,2023-10-31T21:57:56.066Z,,0,,,3758.088000071235,completion,,,,,true,,,,4720035.700000048,4720035.3000000715,4716260.544,4716265.600000024,4716277.212,4720042.953,1,6,,,
trial,html.Screen,2_5_0,2023-10-31T21:57:59.032Z,,0,0,,2958.4469999764115,response,ISIC_0010188.JPG,,ISIC_0794216.JPG,ISIC_0794216.JPG,true,0,keypress(z),500,4723001.5,4723001.399999976,4720024.547,4720035.8000000715,4720042.953,4723008.443,1,6,6,,ISIC_0010188.JPG
sequence,flow.Sequence,2_5,2023-10-31T21:57:59.032Z,,0,,,2958.4469999764115,completion,,,,,true,,,,4723001.600000024,4723001.399999976,4720024.547,4720035.700000048,4720042.953,4723008.443,1,6,,,
loop,flow.Loop,2,2023-10-31T21:57:59.032Z,,,,,118902.65599997621,completion,,,,,true,,,,4723001.8000000715,4723001.399999976,4604082.341,4604089.700000048,4604098.744,4723008.443,1,6,,,
exp_instructions,html.Screen,3,2023-10-31T21:58:01.296Z,,,,,2256.7570000477135,response,,,,,,continue,keypress(Space),,4725265.700000048,4725265.200000048,4722992.462,4723001.8000000715,4723008.443,4725274.149,,,,,
trial,html.Screen,4_0_0,2023-10-31T21:58:07.656Z,,0,1,,6351.2509999759495,response,ISIC_8742407.JPG,9,ISIC_0031386.JPG,ISIC_8742407.JPG,false,1,keypress(m),500,4731625.5,4731625.399999976,4725255.826,4725265.899999976,4725274.149,4731639.337,8,400,1,,ISIC_0031386.JPG
break,html.Screen,4_0_1,2023-10-31T21:58:07.657Z,,0,,,NaN,,,,,,false,,,,4731626.3000000715,4731626,,4731625.600000024,,4731639.337,8,400,,,
break_continue,html.Screen,4_0_2,2023-10-31T21:58:07.657Z,,0,,,NaN,,,,,,false,,,,4731626.600000024,4731626.5,,4731626.3000000715,,4731639.337,8,400,,,
sequence,flow.Sequence,4_0,2023-10-31T21:58:07.657Z,,0,,,6352.350999999791,completion,,,,,false,,,,4731626.600000024,4731626.5,4725255.826,4725265.899999976,4725274.149,4731639.337,8,400,,,
trial,html.Screen,4_1_0,2023-10-31T21:58:13.279Z,,0,1,,5609.062999975868,response,ISIC_0014695.JPG,13,ISIC_0010478.JPG,ISIC_0010478.JPG,false,0,keypress(z),500,4737248.5,4737248.399999976,4731622.46,4731626.700000048,4731639.337,4737253.428,8,400,2,,ISIC_0014695.JPG
break,html.Screen,4_1_1,2023-10-31T21:58:13.280Z,,0,,,NaN,,,,,,false,,,,4737249,4737248.8000000715,,4737248.600000024,,4737253.428,8,400,,,
break_continue,html.Screen,4_1_2,2023-10-31T21:58:13.280Z,,0,,,NaN,,,,,,false,,,,4737249.3000000715,4737249.200000048,,4737249.100000024,,4737253.428,8,400,,,
sequence,flow.Sequence,4_1,2023-10-31T21:58:13.280Z,,0,,,5609.863000047393,completion,,,,,false,,,,4737249.3000000715,4737249.200000048,4731622.46,4731626.700000048,4731639.337,4737253.428,8,400,,,
trial,html.Screen,4_2_0,2023-10-31T21:58:20.067Z,,0,1,,6782.471999975853,response,ISIC_8274622.JPG,9,ISIC_0693902.JPG,ISIC_0693902.JPG,false,0,keypress(z),500,4744036.100000024,4744035.899999976,4737236.917,4737249.399999976,4737253.428,4744051.783,8,400,3,,ISIC_8274622.JPG
break,html.Screen,4_2_1,2023-10-31T21:58:20.067Z,,0,,,NaN,,,,,,false,,,,4744036.700000048,4744036.5,,4744036.200000048,,4744051.783,8,400,,,
break_continue,html.Screen,4_2_2,2023-10-31T21:58:20.068Z,,0,,,NaN,,,,,,false,,,,4744037,4744037,,4744036.899999976,,4744051.783,8,400,,,
sequence,flow.Sequence,4_2,2023-10-31T21:58:20.068Z,,0,,,6783.5719999996945,completion,,,,,false,,,,4744037.100000024,4744037,4737236.917,4737249.399999976,4737253.428,4744051.783,8,400,,,
trial,html.Screen,4_3_0,2023-10-31T21:58:23.049Z,,0,1,,2966.717000000179,response,ISIC_1369967.JPG,8,ISIC_7137773.JPG,ISIC_7137773.JPG,false,0,keypress(z),500,4747018.600000024,4747018.5,4744033.731,4744037.100000024,4744051.783,4747034.115,8,400,4,,ISIC_1369967.JPG
break,html.Screen,4_3_1,2023-10-31T21:58:23.050Z,,0,,,NaN,,,,,,false,,,,4747019.3000000715,4747019,,4747018.700000048,,4747034.115,8,400,,,
break_continue,html.Screen,4_3_2,2023-10-31T21:58:23.050Z,,0,,,NaN,,,,,,false,,,,4747019.5,4747019.399999976,,4747019.3000000715,,4747034.115,8,400,,,
sequence,flow.Sequence,4_3,2023-10-31T21:58:23.050Z,,0,,,2967.616999976337,completion,,,,,false,,,,4747019.600000024,4747019.399999976,4744033.731,4744037.100000024,4744051.783,4747034.115,8,400,,,
trial,html.Screen,4_4_0,2023-10-31T21:58:26.370Z,,0,1,,3305.185000071302,response,ISIC_0026595.JPG,13,ISIC_0033129.JPG,ISIC_0026595.JPG,false,1,keypress(m),500,4750339.399999976,4750339.3000000715,4747016.467,4747019.600000024,4747034.115,4750349.575,8,400,5,,ISIC_0033129.JPG
break,html.Screen,4_4_1,2023-10-31T21:58:26.371Z,,0,,,NaN,,,,,,false,,,,4750340.100000024,4750339.899999976,,4750339.700000048,,4750349.575,8,400,,,
break_continue,html.Screen,4_4_2,2023-10-31T21:58:26.371Z,,0,,,NaN,,,,,,false,,,,4750340.399999976,4750340.3000000715,,4750340.200000048,,4750349.575,8,400,,,
sequence,flow.Sequence,4_4,2023-10-31T21:58:26.371Z,,0,,,3306.185000071302,completion,,,,,false,,,,4750340.399999976,4750340.3000000715,4747016.467,4747019.600000024,4747034.115,4750349.575,8,400,,,
trial,html.Screen,4_5_0,2023-10-31T21:58:29.815Z,,0,1,,3434.5250000236556,response,ISIC_0067417.JPG,11,ISIC_0647224.JPG,ISIC_0647224.JPG,false,0,keypress(z),500,4753784.3000000715,4753784.100000024,4750333.266,4750340.5,4750349.575,4753798.484,8,400,6,,ISIC_0067417.JPG
break,html.Screen,4_5_1,2023-10-31T21:58:29.815Z,,0,,,NaN,,,,,,false,,,,4753784.8000000715,4753784.600000024,,4753784.3000000715,,4753798.484,8,400,,,
break_continue,html.Screen,4_5_2,2023-10-31T21:58:29.816Z,,0,,,NaN,,,,,,false,,,,4753785.100000024,4753785.100000024,,4753784.899999976,,4753798.484,8,400,,,
sequence,flow.Sequence,4_5,2023-10-31T21:58:29.816Z,,0,,,3435.5250000236556,completion,,,,,false,,,,4753785.200000048,4753785.100000024,4750333.266,4750340.5,4750349.575,4753798.484,8,400,,,
trial,html.Screen,4_6_0,2023-10-31T21:58:34.203Z,,0,1,,4373.915999975987,response,ISIC_3728352.JPG,14,ISIC_7455460.JPG,ISIC_3728352.JPG,false,1,keypress(m),500,4758172.5,4758172.399999976,4753783.624,4753785.3000000715,4753798.484,4758180.255,8,400,7,,ISIC_7455460.JPG
break,html.Screen,4_6_1,2023-10-31T21:58:34.203Z,,0,,,NaN,,,,,,false,,,,4758172.899999976,4758172.8000000715,,4758172.600000024,,4758180.255,8,400,,,
break_continue,html.Screen,4_6_2,2023-10-31T21:58:34.204Z,,0,,,NaN,,,,,,false,,,,4758173.200000048,4758173.200000048,,4758173,,4758180.255,8,400,,,
sequence,flow.Sequence,4_6,2023-10-31T21:58:34.204Z,,0,,,4374.716000047512,completion,,,,,false,,,,4758173.200000048,4758173.200000048,4753783.624,4753785.3000000715,4753798.484,4758180.255,8,400,,,
trial,html.Screen,4_7_0,2023-10-31T21:58:37.379Z,,0,1,,3168.3450000239536,response,ISIC_9261199.JPG,9,ISIC_0061011.JPG,ISIC_9261199.JPG,false,1,keypress(m),500,4761348.8000000715,4761348.600000024,4758162.326,4758173.3000000715,4758180.255,4761362.578,8,400,8,,ISIC_0061011.JPG
break,html.Screen,4_7_1,2023-10-31T21:58:37.380Z,,0,,,NaN,,,,,,false,,,,4761349.5,4761349.200000048,,4761348.899999976,,4761362.578,8,400,,,
break_continue,html.Screen,4_7_2,2023-10-31T21:58:37.380Z,,0,,,NaN,,,,,,false,,,,4761349.700000048,4761349.700000048,,4761349.600000024,,4761362.578,8,400,,,
sequence,flow.Sequence,4_7,2023-10-31T21:58:37.380Z,,0,,,3169.4450000477955,completion,,,,,false,,,,4761349.8000000715,4761349.700000048,4758162.326,4758173.3000000715,4758180.255,4761362.578,8,400,,,
trial,html.Screen,4_8_0,2023-10-31T21:58:41.196Z,,0,1,,3802.222000071779,response,ISIC_8535451.JPG,5,ISIC_5559730.JPG,ISIC_8535451.JPG,false,1,keypress(m),500,4765165.100000024,4765164.8000000715,4761345.953,4761349.8000000715,4761362.578,4765177.922,8,400,9,,ISIC_5559730.JPG
break,html.Screen,4_8_1,2023-10-31T21:58:41.196Z,,0,,,NaN,,,,,,false,,,,4765165.8000000715,4765165.399999976,,4765165.100000024,,4765177.922,8,400,,,
break_continue,html.Screen,4_8_2,2023-10-31T21:58:41.197Z,,0,,,NaN,,,,,,false,,,,4765166.100000024,4765165.899999976,,4765165.8000000715,,4765177.922,8,400,,,
sequence,flow.Sequence,4_8,2023-10-31T21:58:41.197Z,,0,,,3803.3219999764115,completion,,,,,false,,,,4765166.200000048,4765165.899999976,4761345.953,4761349.8000000715,4761362.578,4765177.922,8,400,,,
trial,html.Screen,4_9_0,2023-10-31T21:58:46.083Z,,0,1,,4874.1780000235885,response,ISIC_6793603.JPG,12,ISIC_5671175.JPG,ISIC_6793603.JPG,false,1,keypress(m),500,4770052.3000000715,4770052.100000024,4765161.437,4765166.200000048,4765177.922,4770059.323,8,400,10,,ISIC_5671175.JPG
break,html.Screen,4_9_1,2023-10-31T21:58:46.083Z,,0,,,NaN,,,,,,false,,,,4770052.899999976,4770052.700000048,,4770052.3000000715,,4770059.323,8,400,,,
break_continue,html.Screen,4_9_2,2023-10-31T21:58:46.084Z,,0,,,NaN,,,,,,false,,,,4770053.200000048,4770053.100000024,,4770053,,4770059.323,8,400,,,
sequence,flow.Sequence,4_9,2023-10-31T21:58:46.084Z,,0,,,4875.1780000235885,completion,,,,,false,,,,4770053.3000000715,4770053.100000024,4765161.437,4765166.200000048,4765177.922,4770059.323,8,400,,,
trial,html.Screen,4_10_0,2023-10-31T21:58:50.377Z,,0,1,,4285.477000071667,response,ISIC_0000013.JPG,11,ISIC_3926305.JPG,ISIC_3926305.JPG,false,0,keypress(z),500,4774344.899999976,4774344.8000000715,4770042.686,4770053.3000000715,4770059.323,4774358.187,8,400,11,,ISIC_0000013.JPG
break,html.Screen,4_10_1,2023-10-31T21:58:50.377Z,,0,,,NaN,,,,,,false,,,,4774345.5,4774345.3000000715,,4774345,,4774358.187,8,400,,,
break_continue,html.Screen,4_10_2,2023-10-31T21:58:50.378Z,,0,,,NaN,,,,,,false,,,,4774345.8000000715,4774345.8000000715,,4774345.600000024,,4774358.187,8,400,,,
sequence,flow.Sequence,4_10,2023-10-31T21:58:50.378Z,,0,,,4286.477000071667,completion,,,,,false,,,,4774345.899999976,4774345.8000000715,4770042.686,4770053.3000000715,4770059.323,4774358.187,8,400,,,
trial,html.Screen,4_11_0,2023-10-31T21:58:54.801Z,,0,1,,4410.513000047766,response,ISIC_0056466.JPG,9,ISIC_0053541.JPG,ISIC_0056466.JPG,false,1,keypress(m),500,4778768.8000000715,4778768.700000048,4774342.003,4774346,4774358.187,4778772.711,8,400,12,,ISIC_0053541.JPG
break,html.Screen,4_11_1,2023-10-31T21:58:54.801Z,,0,,,NaN,,,,,,false,,,,4778769.5,4778769.3000000715,,4778768.899999976,,4778772.711,8,400,,,
break_continue,html.Screen,4_11_2,2023-10-31T21:58:54.802Z,,0,,,NaN,,,,,,false,,,,4778769.8000000715,4778769.700000048,,4778769.600000024,,4778772.711,8,400,,,
sequence,flow.Sequence,4_11,2023-10-31T21:58:54.802Z,,0,,,4411.513000047766,completion,,,,,false,,,,4778769.899999976,4778769.700000048,4774342.003,4774346,4774358.187,4778772.711,8,400,,,
trial,html.Screen,4_12_0,2023-10-31T21:58:57.960Z,,0,1,,3155.7889999998733,response,ISIC_0057048.JPG,12,ISIC_5360921.JPG,ISIC_5360921.JPG,false,0,keypress(z),500,4781928.5,4781928.5,4778756.666,4778769.899999976,4778772.711,4781938.628,8,400,13,,ISIC_0057048.JPG
break,html.Screen,4_12_1,2023-10-31T21:58:57.961Z,,0,,,NaN,,,,,,false,,,,4781929.399999976,4781929.100000024,,4781928.700000048,,4781938.628,8,400,,,
break_continue,html.Screen,4_12_2,2023-10-31T21:58:57.961Z,,0,,,NaN,,,,,,false,,,,4781929.600000024,4781929.5,,4781929.5,,4781938.628,8,400,,,
sequence,flow.Sequence,4_12,2023-10-31T21:58:57.961Z,,0,,,3156.7889999998733,completion,,,,,false,,,,4781929.700000048,4781929.5,4778756.666,4778769.899999976,4778772.711,4781938.628,8,400,,,
trial,html.Screen,4_13_0,2023-10-31T21:59:01.040Z,,0,1,,3069.4720000242814,response,ISIC_4277207.JPG,8,ISIC_0011211.JPG,ISIC_4277207.JPG,false,1,keypress(m),500,4785008.3000000715,4785008.100000024,4781923.218,4781929.8000000715,4781938.628,4785021.233,8,400,14,,ISIC_0011211.JPG
break,html.Screen,4_13_1,2023-10-31T21:59:01.040Z,,0,,,NaN,,,,,,false,,,,4785008.8000000715,4785008.600000024,,4785008.399999976,,4785021.233,8,400,,,
break_continue,html.Screen,4_13_2,2023-10-31T21:59:01.041Z,,0,,,NaN,,,,,,false,,,,4785009,4785009,,4785008.899999976,,4785021.233,8,400,,,
sequence,flow.Sequence,4_13,2023-10-31T21:59:01.041Z,,0,,,3070.3720000004396,completion,,,,,false,,,,4785009.100000024,4785009,4781923.218,4781929.8000000715,4781938.628,4785021.233,8,400,,,
trial,html.Screen,4_14_0,2023-10-31T21:59:05.477Z,,0,1,,4423.367000023834,response,ISIC_8775014.JPG,10,ISIC_0027576.JPG,ISIC_8775014.JPG,false,1,keypress(m),500,4789444.8000000715,4789444.600000024,4785004.577,4785009.200000048,4785021.233,4789452.614,8,400,15,,ISIC_0027576.JPG
break,html.Screen,4_14_1,2023-10-31T21:59:05.477Z,,0,,,NaN,,,,,,false,,,,4789445.3000000715,4789445.200000048,,4789444.899999976,,4789452.614,8,400,,,
break_continue,html.Screen,4_14_2,2023-10-31T21:59:05.477Z,,0,,,NaN,,,,,,false,,,,4789445.600000024,4789445.600000024,,4789445.5,,4789452.614,8,400,,,
sequence,flow.Sequence,4_14,2023-10-31T21:59:05.477Z,,0,,,4424.367000023834,completion,,,,,false,,,,4789445.8000000715,4789445.600000024,4785004.577,4785009.200000048,4785021.233,4789452.614,8,400,,,
trial,html.Screen,4_15_0,2023-10-31T21:59:08.847Z,,0,1,,3362.186000071466,response,ISIC_8911683.JPG,7,ISIC_0012369.JPG,ISIC_8911683.JPG,false,1,keypress(m),500,4792815,4792814.8000000715,4789437.777,4789445.8000000715,4789452.614,4792818.046,8,400,16,,ISIC_0012369.JPG
break,html.Screen,4_15_1,2023-10-31T21:59:08.847Z,,0,,,NaN,,,,,,false,,,,4792815.600000024,4792815.3000000715,,4792815,,4792818.046,8,400,,,
break_continue,html.Screen,4_15_2,2023-10-31T21:59:08.848Z,,0,,,NaN,,,,,,false,,,,4792815.8000000715,4792815.8000000715,,4792815.600000024,,4792818.046,8,400,,,
sequence,flow.Sequence,4_15,2023-10-31T21:59:08.848Z,,0,,,3363.186000071466,completion,,,,,false,,,,4792815.899999976,4792815.8000000715,4789437.777,4789445.8000000715,4789452.614,4792818.046,8,400,,,
trial,html.Screen,4_16_0,2023-10-31T21:59:12.249Z,,0,1,,3398.754000071436,response,ISIC_4517738.JPG,12,ISIC_0069633.JPG,ISIC_0069633.JPG,false,0,keypress(z),500,4796217.100000024,4796216.8000000715,4792800.89,4792816,4792818.046,4796233.447,8,400,17,,ISIC_4517738.JPG
break,html.Screen,4_16_1,2023-10-31T21:59:12.251Z,,0,,,NaN,,,,,,false,,,,4796219.3000000715,4796217.899999976,,4796217.100000024,,4796233.447,8,400,,,
break_continue,html.Screen,4_16_2,2023-10-31T21:59:12.252Z,,0,,,NaN,,,,,,false,,,,4796219.899999976,4796219.8000000715,,4796219.5,,4796233.447,8,400,,,
sequence,flow.Sequence,4_16,2023-10-31T21:59:12.252Z,,0,,,3401.754000071436,completion,,,,,false,,,,4796220.100000024,4796219.8000000715,4792800.89,4792816,4792818.046,4796233.447,8,400,,,
trial,html.Screen,4_17_0,2023-10-31T21:59:15.421Z,,0,1,,3155.853000071831,response,ISIC_0070588.JPG,6,ISIC_6876281.JPG,ISIC_6876281.JPG,false,0,keypress(z),500,4799389.399999976,4799389.3000000715,4796216.382,4796220.3000000715,4796233.447,4799415.689,8,400,18,,ISIC_0070588.JPG
break,html.Screen,4_17_1,2023-10-31T21:59:15.421Z,,0,,,NaN,,,,,,false,,,,4799389.700000048,4799389.600000024,,4799389.5,,4799415.689,8,400,,,
break_continue,html.Screen,4_17_2,2023-10-31T21:59:15.422Z,,0,,,NaN,,,,,,false,,,,4799389.899999976,4799389.899999976,,4799389.8000000715,,4799415.689,8,400,,,
sequence,flow.Sequence,4_17,2023-10-31T21:59:15.422Z,,0,,,3156.4529999764636,completion,,,,,false,,,,4799390,4799389.899999976,4796216.382,4796220.3000000715,4796233.447,4799415.689,8,400,,,
trial,html.Screen,4_18_0,2023-10-31T21:59:21.812Z,,0,1,,6364.911000023596,response,ISIC_0029814.JPG,11,ISIC_4363603.JPG,ISIC_4363603.JPG,false,0,keypress(z),500,4805780.700000048,4805780.600000024,4799399.352,4799390.100000024,4799415.689,4805797.45,8,400,19,,ISIC_0029814.JPG
break,html.Screen,4_18_1,2023-10-31T21:59:21.813Z,,0,,,NaN,,,,,,false,,,,4805781.200000048,4805781.100000024,,4805780.8000000715,,4805797.45,8,400,,,
break_continue,html.Screen,4_18_2,2023-10-31T21:59:21.813Z,,0,,,NaN,,,,,,false,,,,4805781.5,4805781.399999976,,4805781.3000000715,,4805797.45,8,400,,,
sequence,flow.Sequence,4_18,2023-10-31T21:59:21.813Z,,0,,,6365.710999975912,completion,,,,,false,,,,4805781.600000024,4805781.399999976,4799399.352,4799390.100000024,4799415.689,4805797.45,8,400,,,
trial,html.Screen,4_19_0,2023-10-31T21:59:25.851Z,,0,1,,4021.3500000713393,response,ISIC_5507066.JPG,6,ISIC_2225927.JPG,ISIC_5507066.JPG,false,1,keypress(m),500,4809819,4809818.8000000715,4805780.766,4805781.600000024,4805797.45,4809829.051,8,400,20,,ISIC_2225927.JPG
break,html.Screen,4_19_1,2023-10-31T21:59:25.851Z,,0,,,NaN,,,,,,false,,,,4809819.600000024,4809819.399999976,,4809819.100000024,,4809829.051,8,400,,,
break_continue,html.Screen,4_19_2,2023-10-31T21:59:25.852Z,,0,,,NaN,,,,,,false,,,,4809819.899999976,4809819.8000000715,,4809819.600000024,,4809829.051,8,400,,,
sequence,flow.Sequence,4_19,2023-10-31T21:59:25.852Z,,0,,,4022.3500000713393,completion,,,,,false,,,,4809819.899999976,4809819.8000000715,4805780.766,4805781.600000024,4805797.45,4809829.051,8,400,,,
trial,html.Screen,4_20_0,2023-10-31T21:59:29.429Z,,0,1,,3568.4490000000224,response,ISIC_0057420.JPG,8,ISIC_0027683.JPG,ISIC_0027683.JPG,false,0,keypress(z),500,4813397.600000024,4813397.5,4809812.673,4809820,4809829.051,4813411.617,8,400,21,,ISIC_0057420.JPG
break,html.Screen,4_20_1,2023-10-31T21:59:29.430Z,,0,,,NaN,,,,,,false,,,,4813398.3000000715,4813398,,4813397.700000048,,4813411.617,8,400,,,
break_continue,html.Screen,4_20_2,2023-10-31T21:59:29.430Z,,0,,,NaN,,,,,,false,,,,4813398.5,4813398.399999976,,4813398.3000000715,,4813411.617,8,400,,,
sequence,flow.Sequence,4_20,2023-10-31T21:59:29.430Z,,0,,,3569.3489999761805,completion,,,,,false,,,,4813398.600000024,4813398.399999976,4809812.673,4809820,4809829.051,4813411.617,8,400,,,
trial,html.Screen,4_21_0,2023-10-31T21:59:35.934Z,,0,1,,6490.083000048064,response,ISIC_6562871.JPG,9,ISIC_0021713.JPG,ISIC_0021713.JPG,false,0,keypress(z),500,4819901.8000000715,4819901.700000048,4813395.384,4813398.600000024,4813411.617,4819908.921,8,400,22,,ISIC_6562871.JPG
break,html.Screen,4_21_1,2023-10-31T21:59:35.934Z,,0,,,NaN,,,,,,false,,,,4819902.600000024,4819902.200000048,,4819901.899999976,,4819908.921,8,400,,,
break_continue,html.Screen,4_21_2,2023-10-31T21:59:35.935Z,,0,,,NaN,,,,,,false,,,,4819902.899999976,4819902.899999976,,4819902.700000048,,4819908.921,8,400,,,
sequence,flow.Sequence,4_21,2023-10-31T21:59:35.935Z,,0,,,6491.282999976538,completion,,,,,false,,,,4819903,4819902.899999976,4813395.384,4813398.600000024,4813411.617,4819908.921,8,400,,,
trial,html.Screen,4_22_0,2023-10-31T21:59:39.207Z,,0,1,,3266.2790000475943,response,ISIC_8953848.JPG,7,ISIC_0013817.JPG,ISIC_0013817.JPG,false,0,keypress(z),500,4823175.399999976,4823175.200000048,4819892.814,4819903.100000024,4819908.921,4823191.714,8,400,23,,ISIC_8953848.JPG
break,html.Screen,4_22_1,2023-10-31T21:59:39.208Z,,0,,,NaN,,,,,,false,,,,4823175.899999976,4823175.700000048,,4823175.399999976,,4823191.714,8,400,,,
break_continue,html.Screen,4_22_2,2023-10-31T21:59:39.208Z,,0,,,NaN,,,,,,false,,,,4823176.200000048,4823176.100000024,,4823176,,4823191.714,8,400,,,
sequence,flow.Sequence,4_22,2023-10-31T21:59:39.208Z,,0,,,3267.1790000237525,completion,,,,,false,,,,4823176.3000000715,4823176.100000024,4819892.814,4819903.100000024,4819908.921,4823191.714,8,400,,,
trial,html.Screen,4_23_0,2023-10-31T21:59:43.777Z,,0,1,,4553.5860000718385,response,ISIC_4220326.JPG,6,ISIC_6440229.JPG,ISIC_6440229.JPG,false,0,keypress(z),500,4827745.399999976,4827745.3000000715,4823159.846,4823176.399999976,4823191.714,4827756.625,8,400,24,,ISIC_4220326.JPG
break,html.Screen,4_23_1,2023-10-31T21:59:43.778Z,,0,,,NaN,,,,,,false,,,,4827746.3000000715,4827745.899999976,,4827745.600000024,,4827756.625,8,400,,,
break_continue,html.Screen,4_23_2,2023-10-31T21:59:43.778Z,,0,,,NaN,,,,,,false,,,,4827746.600000024,4827746.5,,4827746.399999976,,4827756.625,8,400,,,
sequence,flow.Sequence,4_23,2023-10-31T21:59:43.778Z,,0,,,4554.786000000313,completion,,,,,false,,,,4827746.600000024,4827746.5,4823159.846,4823176.3000000715,4823191.714,4827756.625,8,400,,,
trial,html.Screen,4_24_0,2023-10-31T21:59:46.440Z,,0,1,,2651.975000023842,response,ISIC_6756517.JPG,7,ISIC_0034032.JPG,ISIC_6756517.JPG,false,1,keypress(m),500,4830408.700000048,4830408.600000024,4827740.144,4827746.600000024,4827756.625,4830422.526,8,400,25,,ISIC_0034032.JPG
break,html.Screen,4_24_1,2023-10-31T21:59:46.441Z,,0,,,NaN,,,,,,false,,,,4830409.3000000715,4830409.100000024,,4830408.899999976,,4830422.526,8,400,,,
break_continue,html.Screen,4_24_2,2023-10-31T21:59:46.441Z,,0,,,NaN,,,,,,false,,,,4830409.600000024,4830409.5,,4830409.399999976,,4830422.526,8,400,,,
sequence,flow.Sequence,4_24,2023-10-31T21:59:46.441Z,,0,,,2652.875,completion,,,,,false,,,,4830409.700000048,4830409.5,4827740.144,4827746.600000024,4827756.625,4830422.526,8,400,,,
trial,html.Screen,4_25_0,2023-10-31T21:59:50.207Z,,0,1,,3752.1740000480786,response,ISIC_0000155.JPG,8,ISIC_0054334.JPG,ISIC_0000155.JPG,false,1,keypress(m),500,4834174.899999976,4834174.700000048,4830405.104,4830409.8000000715,4830422.526,4834187.915,8,400,26,,ISIC_0054334.JPG
break,html.Screen,4_25_1,2023-10-31T21:59:50.207Z,,0,,,NaN,,,,,,false,,,,4834175.5,4834175.3000000715,,4834175,,4834187.915,8,400,,,
break_continue,html.Screen,4_25_2,2023-10-31T21:59:50.207Z,,0,,,NaN,,,,,,false,,,,4834175.8000000715,4834175.700000048,,4834175.600000024,,4834187.915,8,400,,,
sequence,flow.Sequence,4_25,2023-10-31T21:59:50.208Z,,0,,,3753.1740000480786,completion,,,,,false,,,,4834175.899999976,4834175.700000048,4830405.104,4830409.8000000715,4830422.526,4834187.915,8,400,,,
trial,html.Screen,4_26_0,2023-10-31T21:59:54.394Z,,0,1,,4173.7850000476465,response,ISIC_0000555.JPG,12,ISIC_4468129.JPG,ISIC_4468129.JPG,false,0,keypress(z),500,4838361.899999976,4838361.700000048,4834170.201,4834175.899999976,4834187.915,4838369.284,8,400,27,,ISIC_0000555.JPG
break,html.Screen,4_26_1,2023-10-31T21:59:54.394Z,,0,,,NaN,,,,,,false,,,,4838362.399999976,4838362.200000048,,4838361.899999976,,4838369.284,8,400,,,
break_continue,html.Screen,4_26_2,2023-10-31T21:59:54.394Z,,0,,,NaN,,,,,,false,,,,4838362.700000048,4838362.600000024,,4838362.5,,4838369.284,8,400,,,
sequence,flow.Sequence,4_26,2023-10-31T21:59:54.395Z,,0,,,4174.685000023805,completion,,,,,false,,,,4838362.8000000715,4838362.600000024,4834170.201,4834175.899999976,4834187.915,4838369.284,8,400,,,
trial,html.Screen,4_27_0,2023-10-31T21:59:57.521Z,,0,1,,3119.716000000015,response,ISIC_2075121.JPG,7,ISIC_6915759.JPG,ISIC_2075121.JPG,false,1,keypress(m),500,4841489.100000024,4841489,4838352.802,4838362.899999976,4838369.284,4841501.716,8,400,28,,ISIC_6915759.JPG
break,html.Screen,4_27_1,2023-10-31T21:59:57.522Z,,0,,,NaN,,,,,,false,,,,4841489.899999976,4841489.600000024,,4841489.200000048,,4841501.716,8,400,,,
break_continue,html.Screen,4_27_2,2023-10-31T21:59:57.522Z,,0,,,NaN,,,,,,false,,,,4841490.200000048,4841490.100000024,,4841490,,4841501.716,8,400,,,
sequence,flow.Sequence,4_27,2023-10-31T21:59:57.522Z,,0,,,3120.8160000238568,completion,,,,,false,,,,4841490.3000000715,4841490.100000024,4838352.802,4838362.899999976,4838369.284,4841501.716,8,400,,,
trial,html.Screen,4_28_0,2023-10-31T22:00:01.527Z,,0,1,,3993.1839999761432,response,ISIC_4933735.JPG,6,ISIC_2605120.JPG,ISIC_4933735.JPG,false,1,keypress(m),500,4845495,4845494.899999976,4841485.433,4841490.3000000715,4841501.716,4845500.371,8,400,29,,ISIC_2605120.JPG
break,html.Screen,4_28_1,2023-10-31T22:00:01.527Z,,0,,,NaN,,,,,,false,,,,4845495.5,4845495.399999976,,4845495.100000024,,4845500.371,8,400,,,
break_continue,html.Screen,4_28_2,2023-10-31T22:00:01.528Z,,0,,,NaN,,,,,,false,,,,4845495.8000000715,4845495.8000000715,,4845495.600000024,,4845500.371,8,400,,,
sequence,flow.Sequence,4_28,2023-10-31T22:00:01.528Z,,0,,,3994.0840000715107,completion,,,,,false,,,,4845495.899999976,4845495.8000000715,4841485.433,4841490.3000000715,4841501.716,4845500.371,8,400,,,
trial,html.Screen,4_29_0,2023-10-31T22:00:04.779Z,,0,1,,3246.92900007125,response,ISIC_0025531.JPG,9,ISIC_3652884.JPG,ISIC_3652884.JPG,false,0,keypress(z),500,4848747.399999976,4848747.3000000715,4845485.861,4845496,4845500.371,4848772.188,8,400,30,,ISIC_0025531.JPG
break,html.Screen,4_29_1,2023-10-31T22:00:04.780Z,,0,,,NaN,,,,,,false,,,,4848748,4848747.8000000715,,4848747.5,,4848772.188,8,400,,,
break_continue,html.Screen,4_29_2,2023-10-31T22:00:04.780Z,,0,,,NaN,,,,,,false,,,,4848748.3000000715,4848748.3000000715,,4848748.100000024,,4848772.188,8,400,,,
sequence,flow.Sequence,4_29,2023-10-31T22:00:04.780Z,,0,,,3247.92900007125,completion,,,,,false,,,,4848748.399999976,4848748.3000000715,4845485.861,4845495.899999976,4845500.371,4848772.188,8,400,,,
trial,html.Screen,4_30_0,2023-10-31T22:00:07.952Z,,0,1,,3148.1120000714436,response,ISIC_0058716.JPG,9,ISIC_9041897.JPG,ISIC_9041897.JPG,false,0,keypress(z),500,4851920.399999976,4851920.3000000715,4848732.787,4848748.399999976,4848772.188,4851931.89,8,400,31,,ISIC_0058716.JPG
break,html.Screen,4_30_1,2023-10-31T22:00:07.953Z,,0,,,NaN,,,,,,false,,,,4851921.600000024,4851921.399999976,,4851920.5,,4851931.89,8,400,,,
break_continue,html.Screen,4_30_2,2023-10-31T22:00:07.954Z,,0,,,NaN,,,,,,false,,,,4851921.8000000715,4851921.700000048,,4851921.700000048,,4851931.89,8,400,,,
sequence,flow.Sequence,4_30,2023-10-31T22:00:07.954Z,,0,,,3149.5120000476018,completion,,,,,false,,,,4851921.899999976,4851921.700000048,4848732.787,4848748.399999976,4848772.188,4851931.89,8,400,,,
trial,html.Screen,4_31_0,2023-10-31T22:00:12.057Z,,0,1,,4093.0099999764934,response,ISIC_0004691.JPG,9,ISIC_0025931.JPG,ISIC_0004691.JPG,false,1,keypress(m),500,4856025,4856024.899999976,4851914.493,4851921.899999976,4851931.89,4856030.049,8,400,32,,ISIC_0025931.JPG
break,html.Screen,4_31_1,2023-10-31T22:00:12.057Z,,0,,,NaN,,,,,,false,,,,4856025.600000024,4856025.399999976,,4856025.200000048,,4856030.049,8,400,,,
break_continue,html.Screen,4_31_2,2023-10-31T22:00:12.058Z,,0,,,NaN,,,,,,false,,,,4856025.899999976,4856025.899999976,,4856025.700000048,,4856030.049,8,400,,,
sequence,flow.Sequence,4_31,2023-10-31T22:00:12.058Z,,0,,,4094.0099999764934,completion,,,,,false,,,,4856026,4856025.899999976,4851914.493,4851921.899999976,4851931.89,4856030.049,8,400,,,
trial,html.Screen,4_32_0,2023-10-31T22:00:15.634Z,,0,1,,3572.051000024192,response,ISIC_0068413.JPG,9,ISIC_0231167.JPG,ISIC_0231167.JPG,false,0,keypress(z),500,4859602.3000000715,4859602.100000024,4856014.182,4856026.100000024,4856030.049,4859612.324,8,400,33,,ISIC_0068413.JPG
break,html.Screen,4_32_1,2023-10-31T22:00:15.635Z,,0,,,NaN,,,,,,false,,,,4859602.8000000715,4859602.700000048,,4859602.399999976,,4859612.324,8,400,,,
break_continue,html.Screen,4_32_2,2023-10-31T22:00:15.635Z,,0,,,NaN,,,,,,false,,,,4859603.100000024,4859603.100000024,,4859602.899999976,,4859612.324,8,400,,,
sequence,flow.Sequence,4_32,2023-10-31T22:00:15.635Z,,0,,,3573.051000024192,completion,,,,,false,,,,4859603.3000000715,4859603.100000024,4856014.182,4856026.100000024,4856030.049,4859612.324,8,400,,,
trial,html.Screen,4_33_0,2023-10-31T22:00:19.741Z,,0,1,,4096.2760000238195,response,ISIC_0030122.JPG,12,ISIC_0029593.JPG,ISIC_0029593.JPG,false,0,keypress(z),500,4863708.8000000715,4863708.600000024,4859597.885,4859603.3000000715,4859612.324,4863710.576,8,400,34,,ISIC_0030122.JPG
break,html.Screen,4_33_1,2023-10-31T22:00:19.741Z,,0,,,NaN,,,,,,false,,,,4863709.600000024,4863709.3000000715,,4863708.899999976,,4863710.576,8,400,,,
break_continue,html.Screen,4_33_2,2023-10-31T22:00:19.742Z,,0,,,NaN,,,,,,false,,,,4863709.8000000715,4863709.8000000715,,4863709.600000024,,4863710.576,8,400,,,
sequence,flow.Sequence,4_33,2023-10-31T22:00:19.742Z,,0,,,4097.476000071503,completion,,,,,false,,,,4863709.899999976,4863709.8000000715,4859597.885,4859603.3000000715,4859612.324,4863710.576,8,400,,,
trial,html.Screen,4_34_0,2023-10-31T22:00:22.802Z,,0,1,,3059.1240000473335,response,ISIC_0024808.JPG,12,ISIC_0056156.JPG,ISIC_0024808.JPG,false,1,keypress(m),500,4866769.899999976,4866769.700000048,4863695.176,4863710,4863710.576,4866776.374,8,400,35,,ISIC_0056156.JPG
break,html.Screen,4_34_1,2023-10-31T22:00:22.802Z,,0,,,NaN,,,,,,false,,,,4866770.399999976,4866770.200000048,,4866770,,4866776.374,8,400,,,
break_continue,html.Screen,4_34_2,2023-10-31T22:00:22.802Z,,0,,,NaN,,,,,,false,,,,4866770.700000048,4866770.700000048,,4866770.5,,4866776.374,8,400,,,
sequence,flow.Sequence,4_34,2023-10-31T22:00:22.803Z,,0,,,3060.1240000473335,completion,,,,,false,,,,4866770.899999976,4866770.700000048,4863695.176,4863710,4863710.576,4866776.374,8,400,,,
trial,html.Screen,4_35_0,2023-10-31T22:00:25.930Z,,0,1,,3122.025999976322,response,ISIC_0027387.JPG,11,ISIC_0032751.JPG,ISIC_0027387.JPG,false,1,keypress(m),500,4869898.5,4869898.399999976,4866759.706,4866770.899999976,4866776.374,4869908.905,8,400,36,,ISIC_0032751.JPG
break,html.Screen,4_35_1,2023-10-31T22:00:25.931Z,,0,,,NaN,,,,,,false,,,,4869899,4869898.8000000715,,4869898.600000024,,4869908.905,8,400,,,
break_continue,html.Screen,4_35_2,2023-10-31T22:00:25.931Z,,0,,,NaN,,,,,,false,,,,4869899.399999976,4869899.200000048,,4869899.100000024,,4869908.905,8,400,,,
sequence,flow.Sequence,4_35,2023-10-31T22:00:25.931Z,,0,,,3122.8260000478476,completion,,,,,false,,,,4869899.5,4869899.200000048,4866759.706,4866770.899999976,4866776.374,4869908.905,8,400,,,
trial,html.Screen,4_36_0,2023-10-31T22:00:29.667Z,,0,1,,3726.695000023581,response,ISIC_7885531.JPG,9,ISIC_7795549.JPG,ISIC_7795549.JPG,false,0,keypress(z),500,4873635.600000024,4873635.600000024,4869892.675,4869899.5,4869908.905,4873657.868,8,400,37,,ISIC_7885531.JPG
break,html.Screen,4_36_1,2023-10-31T22:00:29.668Z,,0,,,NaN,,,,,,false,,,,4873636.100000024,4873636.100000024,,4873635.8000000715,,4873657.868,8,400,,,
break_continue,html.Screen,4_36_2,2023-10-31T22:00:29.668Z,,0,,,NaN,,,,,,false,,,,4873636.399999976,4873636.3000000715,,4873636.200000048,,4873657.868,8,400,,,
sequence,flow.Sequence,4_36,2023-10-31T22:00:29.668Z,,0,,,3727.395000071265,completion,,,,,false,,,,4873636.5,4873636.3000000715,4869892.675,4869899.5,4869908.905,4873657.868,8,400,,,
trial,html.Screen,4_37_0,2023-10-31T22:00:33.277Z,,0,1,,3587.732000024058,response,ISIC_0070048.JPG,7,ISIC_0026548.JPG,ISIC_0026548.JPG,false,0,keypress(z),500,4877245.700000048,4877245.600000024,4873641.199,4873636.5,4873657.868,4877256.457,8,400,38,,ISIC_0070048.JPG
break,html.Screen,4_37_1,2023-10-31T22:00:33.278Z,,0,,,NaN,,,,,,false,,,,4877246.200000048,4877246.100000024,,4877245.8000000715,,4877256.457,8,400,,,
break_continue,html.Screen,4_37_2,2023-10-31T22:00:33.278Z,,0,,,NaN,,,,,,false,,,,4877246.5,4877246.399999976,,4877246.200000048,,4877256.457,8,400,,,
sequence,flow.Sequence,4_37,2023-10-31T22:00:33.278Z,,0,,,3588.531999976374,completion,,,,,false,,,,4877246.600000024,4877246.399999976,4873641.199,4873636.5,4873657.868,4877256.457,8,400,,,
trial,html.Screen,4_38_0,2023-10-31T22:00:36.677Z,,0,1,,3388.5429999995977,response,ISIC_0061188.JPG,7,ISIC_0065872.JPG,ISIC_0061188.JPG,false,1,keypress(m),500,4880645.200000048,4880645,4877240.571,4877246.600000024,4877256.457,4880655.251,8,400,39,,ISIC_0065872.JPG
break,html.Screen,4_38_1,2023-10-31T22:00:36.677Z,,0,,,NaN,,,,,,false,,,,4880645.700000048,4880645.5,,4880645.200000048,,4880655.251,8,400,,,
break_continue,html.Screen,4_38_2,2023-10-31T22:00:36.678Z,,0,,,NaN,,,,,,false,,,,4880646,4880645.899999976,,4880645.8000000715,,4880655.251,8,400,,,
sequence,flow.Sequence,4_38,2023-10-31T22:00:36.678Z,,0,,,3389.442999975756,completion,,,,,false,,,,4880646.100000024,4880645.899999976,4877240.571,4877246.600000024,4877256.457,4880655.251,8,400,,,
trial,html.Screen,4_39_0,2023-10-31T22:00:39.454Z,,0,1,,2766.5490000713617,response,ISIC_0031674.JPG,8,ISIC_0862350.JPG,ISIC_0031674.JPG,false,1,keypress(m),500,4883421.899999976,4883421.8000000715,4880639.13,4880646.200000048,4880655.251,4883437.901,8,400,40,,ISIC_0862350.JPG
break,html.Screen,4_39_1,2023-10-31T22:00:39.454Z,,0,,,NaN,,,,,,false,,,,4883422.700000048,4883422.399999976,,4883422.100000024,,4883437.901,8,400,,,
break_continue,html.Screen,4_39_2,2023-10-31T22:00:39.455Z,,0,,,NaN,,,,,,false,,,,4883423,4883423,,4883422.899999976,,4883437.901,8,400,,,
sequence,flow.Sequence,4_39,2023-10-31T22:00:39.455Z,,0,,,2767.748999999836,completion,,,,,false,,,,4883423,4883423,4880639.13,4880646.200000048,4880655.251,4883437.901,8,400,,,
trial,html.Screen,4_40_0,2023-10-31T22:00:42.664Z,,0,1,,3194.099000000395,response,ISIC_0001134.JPG,8,ISIC_5307086.JPG,ISIC_5307086.JPG,false,0,keypress(z),500,4886632.100000024,4886632,4883421.48,4883423.100000024,4883437.901,4886636.343,8,400,41,,ISIC_0001134.JPG
break,html.Screen,4_40_1,2023-10-31T22:00:42.664Z,,0,,,NaN,,,,,,false,,,,4886632.600000024,4886632.399999976,,4886632.200000048,,4886636.343,8,400,,,
break_continue,html.Screen,4_40_2,2023-10-31T22:00:42.665Z,,0,,,NaN,,,,,,false,,,,4886632.899999976,4886632.8000000715,,4886632.700000048,,4886636.343,8,400,,,
sequence,flow.Sequence,4_40,2023-10-31T22:00:42.665Z,,0,,,3194.8990000719205,completion,,,,,false,,,,4886633,4886632.8000000715,4883421.48,4883423.100000024,4883437.901,4886636.343,8,400,,,
trial,html.Screen,4_41_0,2023-10-31T22:00:48.560Z,,0,1,,5892.156999999657,response,ISIC_0001875.JPG,9,ISIC_0030128.JPG,ISIC_0001875.JPG,false,1,keypress(m),500,4892528.600000024,4892528.5,4886620.237,4886633,4886636.343,4892534.176,8,400,42,,ISIC_0030128.JPG
break,html.Screen,4_41_1,2023-10-31T22:00:48.561Z,,0,,,NaN,,,,,,false,,,,4892529.100000024,4892529,,4892528.700000048,,4892534.176,8,400,,,
break_continue,html.Screen,4_41_2,2023-10-31T22:00:48.561Z,,0,,,NaN,,,,,,false,,,,4892529.200000048,4892529.200000048,,4892529.100000024,,4892534.176,8,400,,,
sequence,flow.Sequence,4_41,2023-10-31T22:00:48.561Z,,0,,,5892.857000047341,completion,,,,,false,,,,4892529.3000000715,4892529.200000048,4886620.237,4886633,4886636.343,4892534.176,8,400,,,
trial,html.Screen,4_42_0,2023-10-31T22:00:54.394Z,,0,1,,5828.124000071548,response,ISIC_9445053.JPG,9,ISIC_3688362.JPG,ISIC_9445053.JPG,false,1,keypress(m),500,4898362.399999976,4898362.3000000715,4892517.93,4892529.3000000715,4892534.176,4898365.516,8,400,43,,ISIC_3688362.JPG
break,html.Screen,4_42_1,2023-10-31T22:00:54.395Z,,0,,,NaN,,,,,,false,,,,4898363,4898362.8000000715,,4898362.5,,4898365.516,8,400,,,
break_continue,html.Screen,4_42_2,2023-10-31T22:00:54.395Z,,0,,,NaN,,,,,,false,,,,4898363.3000000715,4898363.200000048,,4898363,,4898365.516,8,400,,,
sequence,flow.Sequence,4_42,2023-10-31T22:00:54.395Z,,0,,,5829.024000047706,completion,,,,,false,,,,4898363.3000000715,4898363.200000048,4892517.93,4892529.3000000715,4892534.176,4898365.516,8,400,,,
trial,html.Screen,4_43_0,2023-10-31T22:00:57.461Z,,0,1,,3063.784000071697,response,ISIC_5982769.JPG,7,ISIC_4604654.JPG,ISIC_5982769.JPG,false,1,keypress(m),500,4901429.5,4901429.3000000715,4898350.201,4898363.399999976,4898365.516,4901431.168,8,400,44,,ISIC_4604654.JPG
break,html.Screen,4_43_1,2023-10-31T22:00:57.462Z,,0,,,NaN,,,,,,false,,,,4901429.899999976,4901429.8000000715,,4901429.5,,4901431.168,8,400,,,
break_continue,html.Screen,4_43_2,2023-10-31T22:00:57.462Z,,0,,,NaN,,,,,,false,,,,4901430.100000024,4901430.100000024,,4901429.899999976,,4901431.168,8,400,,,
sequence,flow.Sequence,4_43,2023-10-31T22:00:57.462Z,,0,,,3064.584000024013,completion,,,,,false,,,,4901430.200000048,4901430.100000024,4898350.201,4898363.399999976,4898365.516,4901431.168,8,400,,,
trial,html.Screen,4_44_0,2023-10-31T22:01:00.490Z,,0,1,,3027.132000071928,response,ISIC_6228963.JPG,7,ISIC_3503213.JPG,ISIC_3503213.JPG,false,0,keypress(z),500,4904458.399999976,4904458.3000000715,4901414.56,4901430.200000048,4901431.168,4904463.492,8,400,45,,ISIC_6228963.JPG
break,html.Screen,4_44_1,2023-10-31T22:01:00.491Z,,0,,,NaN,,,,,,false,,,,4904459,4904458.8000000715,,4904458.5,,4904463.492,8,400,,,
break_continue,html.Screen,4_44_2,2023-10-31T22:01:00.491Z,,0,,,NaN,,,,,,false,,,,4904459.200000048,4904459.100000024,,4904459,,4904463.492,8,400,,,
sequence,flow.Sequence,4_44,2023-10-31T22:01:00.491Z,,0,,,3027.932000024244,completion,,,,,false,,,,4904459.3000000715,4904459.100000024,4901414.56,4901430.200000048,4901431.168,4904463.492,8,400,,,
trial,html.Screen,4_45_0,2023-10-31T22:01:03.520Z,,0,1,,3024.8080000719056,response,ISIC_0010778.JPG,10,ISIC_1258763.JPG,ISIC_1258763.JPG,false,0,keypress(z),500,4907488.5,4907488.3000000715,4904447.018,4904459.399999976,4904463.492,4907496.029,8,400,46,,ISIC_0010778.JPG
break,html.Screen,4_45_1,2023-10-31T22:01:03.521Z,,0,,,NaN,,,,,,false,,,,4907489.100000024,4907488.899999976,,4907488.600000024,,4907496.029,8,400,,,
break_continue,html.Screen,4_45_2,2023-10-31T22:01:03.521Z,,0,,,NaN,,,,,,false,,,,4907489.399999976,4907489.3000000715,,4907489.200000048,,4907496.029,8,400,,,
sequence,flow.Sequence,4_45,2023-10-31T22:01:03.521Z,,0,,,3025.8080000719056,completion,,,,,false,,,,4907489.5,4907489.3000000715,4904447.018,4904459.3000000715,4904463.492,4907496.029,8,400,,,
trial,html.Screen,4_46_0,2023-10-31T22:01:06.971Z,,0,1,,3442.7710000714287,response,ISIC_8705622.JPG,11,ISIC_0054395.JPG,ISIC_8705622.JPG,false,1,keypress(m),500,4910938.899999976,4910938.8000000715,4907480.031,4907489.5,4907496.029,4910944.677,8,400,47,,ISIC_0054395.JPG
break,html.Screen,4_46_1,2023-10-31T22:01:06.971Z,,0,,,NaN,,,,,,false,,,,4910939.5,4910939.3000000715,,4910939,,4910944.677,8,400,,,
break_continue,html.Screen,4_46_2,2023-10-31T22:01:06.972Z,,0,,,NaN,,,,,,false,,,,4910939.700000048,4910939.700000048,,4910939.5,,4910944.677,8,400,,,
sequence,flow.Sequence,4_46,2023-10-31T22:01:06.972Z,,0,,,3443.671000047587,completion,,,,,false,,,,4910939.899999976,4910939.700000048,4907480.031,4907489.5,4907496.029,4910944.677,8,400,,,
trial,html.Screen,4_47_0,2023-10-31T22:01:10.101Z,,0,1,,3124.123000071384,response,ISIC_0046450.JPG,9,ISIC_0055251.JPG,ISIC_0046450.JPG,false,1,keypress(m),500,4914068.899999976,4914068.8000000715,4910929.114,4910940,4910944.677,4914076.833,8,400,48,,ISIC_0055251.JPG
break,html.Screen,4_47_1,2023-10-31T22:01:10.101Z,,0,,,NaN,,,,,,false,,,,4914069.5,4914069.200000048,,4914069,,4914076.833,8,400,,,
break_continue,html.Screen,4_47_2,2023-10-31T22:01:10.102Z,,0,,,NaN,,,,,,false,,,,4914069.8000000715,4914069.700000048,,4914069.600000024,,4914076.833,8,400,,,
sequence,flow.Sequence,4_47,2023-10-31T22:01:10.102Z,,0,,,3125.023000047542,completion,,,,,false,,,,4914069.899999976,4914069.700000048,4910929.114,4910939.899999976,4910944.677,4914076.833,8,400,,,
trial,html.Screen,4_48_0,2023-10-31T22:01:13.464Z,,0,1,,3355.167000000365,response,ISIC_0033779.JPG,11,ISIC_0024661.JPG,ISIC_0033779.JPG,false,1,keypress(m),500,4917432.100000024,4917432,4914060.716,4914069.899999976,4914076.833,4917459.066,8,400,49,,ISIC_0024661.JPG
break,html.Screen,4_48_1,2023-10-31T22:01:13.464Z,,0,,,NaN,,,,,,false,,,,4917432.600000024,4917432.399999976,,4917432.3000000715,,4917459.066,8,400,,,
break_continue,html.Screen,4_48_2,2023-10-31T22:01:13.465Z,,0,,,NaN,,,,,,false,,,,4917432.8000000715,4917432.8000000715,,4917432.600000024,,4917459.066,8,400,,,
sequence,flow.Sequence,4_48,2023-10-31T22:01:13.465Z,,0,,,3355.9670000718907,completion,,,,,false,,,,4917432.899999976,4917432.8000000715,4914060.716,4914069.899999976,4914076.833,4917459.066,8,400,,,
trial,html.Screen,4_49_0,2023-10-31T22:01:16.987Z,,0,1,,3495.734000071883,response,ISIC_0014366.JPG,9,ISIC_0067006.JPG,ISIC_0014366.JPG,false,1,keypress(m),500,4920954.899999976,4920954.8000000715,4917442.996,4917432.899999976,4917459.066,4920957.856,8,400,50,,ISIC_0067006.JPG
break,html.Screen,4_49_1,2023-10-31T22:01:26.971Z,,0,,,9997.266999999993,timeout,,,,,false,,,,4930938.899999976,4930938.466,4920941.832,4920955,4920957.856,4930955.123,8,400,,,
break_continue,html.Screen,4_49_2,2023-10-31T22:01:28.753Z,,0,,,1760.776999976486,response,,,,,false,continue,keypress(Space),,4932721.700000048,4932715.899999976,4930938.466,4930939,4930955.123,4932737.557,8,400,,,
sequence,flow.Sequence,4_49,2023-10-31T22:01:28.754Z,,0,,,15256.833999976516,completion,,,,,false,,,,4932721.700000048,4932715.899999976,4917442.996,4917432.899999976,4917459.066,4932737.557,8,400,,,
trial,html.Screen,4_50_0,2023-10-31T22:01:31.784Z,,0,2,,3015.043000023812,response,ISIC_4069690.JPG,9,ISIC_0028338.JPG,ISIC_4069690.JPG,false,1,keypress(m),500,4935752.700000048,4935752.600000024,4932721.689,4932721.8000000715,4932737.557,4935769.534,8,400,1,,ISIC_0028338.JPG
break,html.Screen,4_50_1,2023-10-31T22:01:31.785Z,,0,,,NaN,,,,,,false,,,,4935753.3000000715,4935753,,4935752.8000000715,,4935769.534,8,400,,,
break_continue,html.Screen,4_50_2,2023-10-31T22:01:31.785Z,,0,,,NaN,,,,,,false,,,,4935753.5,4935753.399999976,,4935753.3000000715,,4935769.534,8,400,,,
sequence,flow.Sequence,4_50,2023-10-31T22:01:31.785Z,,0,,,3015.8429999761283,completion,,,,,false,,,,4935753.700000048,4935753.399999976,4932721.689,4932721.8000000715,4932737.557,4935769.534,8,400,,,
trial,html.Screen,4_51_0,2023-10-31T22:01:34.403Z,,0,2,,2601.466000000015,response,ISIC_5503634.JPG,6,ISIC_0062991.JPG,ISIC_0062991.JPG,false,0,keypress(z),500,4938371.100000024,4938371,4935753.119,4935753.700000048,4935769.534,4938385.916,8,400,2,,ISIC_5503634.JPG
break,html.Screen,4_51_1,2023-10-31T22:01:34.403Z,,0,,,NaN,,,,,,false,,,,4938371.700000048,4938371.5,,4938371.200000048,,4938385.916,8,400,,,
break_continue,html.Screen,4_51_2,2023-10-31T22:01:34.404Z,,0,,,NaN,,,,,,false,,,,4938371.899999976,4938371.899999976,,4938371.700000048,,4938385.916,8,400,,,
sequence,flow.Sequence,4_51,2023-10-31T22:01:34.404Z,,0,,,2602.365999976173,completion,,,,,false,,,,4938372,4938371.899999976,4935753.119,4935753.700000048,4935769.534,4938385.916,8,400,,,
trial,html.Screen,4_52_0,2023-10-31T22:01:37.373Z,,0,2,,2955.1840000236407,response,ISIC_3401631.JPG,12,ISIC_5671175.JPG,ISIC_5671175.JPG,false,0,keypress(z),500,4941341.399999976,4941341.100000024,4938369.01,4938372,4938385.916,4941350.964,8,400,3,,ISIC_3401631.JPG
break,html.Screen,4_52_1,2023-10-31T22:01:37.374Z,,0,,,NaN,,,,,,false,,,,4941341.899999976,4941341.700000048,,4941341.5,,4941350.964,8,400,,,
break_continue,html.Screen,4_52_2,2023-10-31T22:01:37.374Z,,0,,,NaN,,,,,,false,,,,4941342.200000048,4941342.200000048,,4941342,,4941350.964,8,400,,,
sequence,flow.Sequence,4_52,2023-10-31T22:01:37.374Z,,0,,,2956.2840000474826,completion,,,,,false,,,,4941342.399999976,4941342.200000048,4938369.01,4938372,4938385.916,4941350.964,8,400,,,
trial,html.Screen,4_53_0,2023-10-31T22:01:40.210Z,,0,2,,2827.536000000313,response,ISIC_8791729.JPG,10,ISIC_0033678.JPG,ISIC_8791729.JPG,false,1,keypress(m),500,4944178.600000024,4944178.5,4941335.045,4941342.399999976,4941350.964,4944183.53,8,400,4,,ISIC_0033678.JPG
break,html.Screen,4_53_1,2023-10-31T22:01:40.211Z,,0,,,NaN,,,,,,false,,,,4944179.3000000715,4944179.100000024,,4944178.700000048,,4944183.53,8,400,,,
break_continue,html.Screen,4_53_2,2023-10-31T22:01:40.211Z,,0,,,NaN,,,,,,false,,,,4944179.5,4944179.5,,4944179.3000000715,,4944183.53,8,400,,,
sequence,flow.Sequence,4_53,2023-10-31T22:01:40.211Z,,0,,,2828.536000000313,completion,,,,,false,,,,4944179.5,4944179.5,4941335.045,4941342.399999976,4941350.964,4944183.53,8,400,,,
trial,html.Screen,4_54_0,2023-10-31T22:01:42.844Z,,0,2,,2628.170000047423,response,ISIC_0032965.JPG,12,ISIC_6345354.JPG,ISIC_6345354.JPG,false,0,keypress(z),500,4946811.8000000715,4946811.700000048,4944167.258,4944179.600000024,4944183.53,4946816.051,8,400,5,,ISIC_0032965.JPG
break,html.Screen,4_54_1,2023-10-31T22:01:42.844Z,,0,,,NaN,,,,,,false,,,,4946812.3000000715,4946812.100000024,,4946811.899999976,,4946816.051,8,400,,,
break_continue,html.Screen,4_54_2,2023-10-31T22:01:42.844Z,,0,,,NaN,,,,,,false,,,,4946812.700000048,4946812.600000024,,4946812.399999976,,4946816.051,8,400,,,
sequence,flow.Sequence,4_54,2023-10-31T22:01:42.845Z,,0,,,2629.070000023581,completion,,,,,false,,,,4946812.700000048,4946812.600000024,4944167.258,4944179.600000024,4944183.53,4946816.051,8,400,,,
trial,html.Screen,4_55_0,2023-10-31T22:01:47.936Z,,0,2,,5088.3489999761805,response,ISIC_0058496.JPG,6,ISIC_9906799.JPG,ISIC_9906799.JPG,false,0,keypress(z),500,4951904.600000024,4951904.399999976,4946799.62,4946812.700000048,4946816.051,4951914.25,8,400,6,,ISIC_0058496.JPG
break,html.Screen,4_55_1,2023-10-31T22:01:47.937Z,,0,,,NaN,,,,,,false,,,,4951905.200000048,4951905,,4951904.700000048,,4951914.25,8,400,,,
break_continue,html.Screen,4_55_2,2023-10-31T22:01:47.937Z,,0,,,NaN,,,,,,false,,,,4951905.5,4951905.399999976,,4951905.200000048,,4951914.25,8,400,,,
sequence,flow.Sequence,4_55,2023-10-31T22:01:47.937Z,,0,,,5089.3489999761805,completion,,,,,false,,,,4951905.600000024,4951905.399999976,4946799.62,4946812.700000048,4946816.051,4951914.25,8,400,,,
trial,html.Screen,4_56_0,2023-10-31T22:01:51.671Z,,0,2,,3724.5500000715256,response,ISIC_0656395.JPG,6,ISIC_1996356.JPG,ISIC_0656395.JPG,false,1,keypress(m),500,4955639,4955638.8000000715,4951897.961,4951905.700000048,4951914.25,4955646.151,8,400,7,,ISIC_1996356.JPG
break,html.Screen,4_56_1,2023-10-31T22:01:51.671Z,,0,,,NaN,,,,,,false,,,,4955639.5,4955639.399999976,,4955639.100000024,,4955646.151,8,400,,,
break_continue,html.Screen,4_56_2,2023-10-31T22:01:51.671Z,,0,,,NaN,,,,,,false,,,,4955639.8000000715,4955639.8000000715,,4955639.700000048,,4955646.151,8,400,,,
sequence,flow.Sequence,4_56,2023-10-31T22:01:51.672Z,,0,,,3725.5500000715256,completion,,,,,false,,,,4955639.899999976,4955639.8000000715,4951897.961,4951905.600000024,4951914.25,4955646.151,8,400,,,
trial,html.Screen,4_57_0,2023-10-31T22:01:58.190Z,,0,2,,6512.049000048079,response,ISIC_1906141.JPG,7,ISIC_4055833.JPG,ISIC_4055833.JPG,false,0,keypress(z),500,4962158.399999976,4962158.200000048,4955630.223,4955640,4955646.151,4962160.584,8,400,8,,ISIC_1906141.JPG
break,html.Screen,4_57_1,2023-10-31T22:01:58.191Z,,0,,,NaN,,,,,,false,,,,4962158.899999976,4962158.8000000715,,4962158.5,,4962160.584,8,400,,,
break_continue,html.Screen,4_57_2,2023-10-31T22:01:58.191Z,,0,,,NaN,,,,,,false,,,,4962159.899999976,4962159.8000000715,,4962159.600000024,,4962160.584,8,400,,,
sequence,flow.Sequence,4_57,2023-10-31T22:01:58.192Z,,0,,,6513.64900007192,completion,,,,,false,,,,4962160,4962159.8000000715,4955630.223,4955640,4955646.151,4962160.584,8,400,,,
trial,html.Screen,4_58_0,2023-10-31T22:02:02.598Z,,0,2,,4405.216000071727,response,ISIC_0033224.JPG,5,ISIC_0032996.JPG,ISIC_0033224.JPG,false,1,keypress(m),500,4966565.899999976,4966565.8000000715,4962144.563,4962160,4962160.584,4966575.902,8,400,9,,ISIC_0032996.JPG
break,html.Screen,4_58_1,2023-10-31T22:02:02.598Z,,0,,,NaN,,,,,,false,,,,4966566.700000048,4966566.5,,4966566.100000024,,4966575.902,8,400,,,
break_continue,html.Screen,4_58_2,2023-10-31T22:02:02.599Z,,0,,,NaN,,,,,,false,,,,4966567,4966566.899999976,,4966566.8000000715,,4966575.902,8,400,,,
sequence,flow.Sequence,4_58,2023-10-31T22:02:02.599Z,,0,,,4406.315999976359,completion,,,,,false,,,,4966567,4966566.899999976,4962144.563,4962160,4962160.584,4966575.902,8,400,,,
trial,html.Screen,4_59_0,2023-10-31T22:02:05.917Z,,0,2,,3308.997999976389,response,ISIC_9728003.JPG,7,ISIC_6644659.JPG,ISIC_9728003.JPG,false,1,keypress(m),500,4969885,4969884.899999976,4966559.372,4966567.100000024,4966575.902,4969891.271,8,400,10,,ISIC_6644659.JPG
break,html.Screen,4_59_1,2023-10-31T22:02:05.917Z,,0,,,NaN,,,,,,false,,,,4969885.600000024,4969885.399999976,,4969885.200000048,,4969891.271,8,400,,,
break_continue,html.Screen,4_59_2,2023-10-31T22:02:05.917Z,,0,,,NaN,,,,,,false,,,,4969885.899999976,4969885.8000000715,,4969885.600000024,,4969891.271,8,400,,,
sequence,flow.Sequence,4_59,2023-10-31T22:02:05.918Z,,0,,,3309.8980000717565,completion,,,,,false,,,,4969886,4969885.8000000715,4966559.372,4966567.100000024,4966575.902,4969891.271,8,400,,,
trial,html.Screen,4_60_0,2023-10-31T22:02:12.032Z,,0,2,,6108.729000000283,response,ISIC_8478591.JPG,9,ISIC_0029885.JPG,ISIC_0029885.JPG,false,0,keypress(z),500,4976000.200000048,4976000,4969875.063,4969886.100000024,4969891.271,4976005.872,8,400,11,,ISIC_8478591.JPG
break,html.Screen,4_60_1,2023-10-31T22:02:12.032Z,,0,,,NaN,,,,,,false,,,,4976000.8000000715,4976000.600000024,,4976000.3000000715,,4976005.872,8,400,,,
break_continue,html.Screen,4_60_2,2023-10-31T22:02:12.033Z,,0,,,NaN,,,,,,false,,,,4976001,4976001,,4976000.8000000715,,4976005.872,8,400,,,
sequence,flow.Sequence,4_60,2023-10-31T22:02:12.033Z,,0,,,6109.729000000283,completion,,,,,false,,,,4976001.100000024,4976001,4969875.063,4969886.100000024,4969891.271,4976005.872,8,400,,,
trial,html.Screen,4_61_0,2023-10-31T22:02:15.957Z,,0,2,,3919.1279999995604,response,ISIC_0027081.JPG,7,ISIC_0028410.JPG,ISIC_0028410.JPG,false,0,keypress(z),500,4979925.100000024,4979925,4975989.764,4976001.200000048,4976005.872,4979938.53,8,400,12,,ISIC_0027081.JPG
break,html.Screen,4_61_1,2023-10-31T22:02:15.957Z,,0,,,NaN,,,,,,false,,,,4979925.8000000715,4979925.5,,4979925.3000000715,,4979938.53,8,400,,,
break_continue,html.Screen,4_61_2,2023-10-31T22:02:15.958Z,,0,,,NaN,,,,,,false,,,,4979926.100000024,4979926,,4979925.899999976,,4979938.53,8,400,,,
sequence,flow.Sequence,4_61,2023-10-31T22:02:15.958Z,,0,,,3920.1279999995604,completion,,,,,false,,,,4979926.100000024,4979926,4975989.764,4976001.100000024,4976005.872,4979938.53,8,400,,,
trial,html.Screen,4_62_0,2023-10-31T22:02:20.616Z,,0,2,,4645.670000047423,response,ISIC_2809019.JPG,7,ISIC_0008945.JPG,ISIC_0008945.JPG,false,0,keypress(z),500,4984584.3000000715,4984584.200000048,4979921.939,4979926.200000048,4979938.53,4984586.284,8,400,13,,ISIC_2809019.JPG
break,html.Screen,4_62_1,2023-10-31T22:02:20.616Z,,0,,,NaN,,,,,,false,,,,4984584.899999976,4984584.700000048,,4984584.399999976,,4984586.284,8,400,,,
break_continue,html.Screen,4_62_2,2023-10-31T22:02:20.617Z,,0,,,NaN,,,,,,false,,,,4984585.200000048,4984585.100000024,,4984584.899999976,,4984586.284,8,400,,,
sequence,flow.Sequence,4_62,2023-10-31T22:02:20.617Z,,0,,,4646.570000023581,completion,,,,,false,,,,4984585.3000000715,4984585.100000024,4979921.939,4979926.200000048,4979938.53,4984586.284,8,400,,,
trial,html.Screen,4_63_0,2023-10-31T22:02:26.925Z,,0,2,,6307.416000047699,response,ISIC_0026613.JPG,6,ISIC_1377409.JPG,ISIC_1377409.JPG,false,0,keypress(z),500,4990893.899999976,4990893.700000048,4984569.953,4984585.3000000715,4984586.284,4990901.033,8,400,14,,ISIC_0026613.JPG
break,html.Screen,4_63_1,2023-10-31T22:02:26.926Z,,0,,,NaN,,,,,,false,,,,4990894.5,4990894.3000000715,,4990894,,4990901.033,8,400,,,
break_continue,html.Screen,4_63_2,2023-10-31T22:02:26.926Z,,0,,,NaN,,,,,,false,,,,4990894.8000000715,4990894.600000024,,4990894.5,,4990901.033,8,400,,,
sequence,flow.Sequence,4_63,2023-10-31T22:02:26.926Z,,0,,,6308.316000023857,completion,,,,,false,,,,4990894.8000000715,4990894.600000024,4984569.953,4984585.3000000715,4984586.284,4990901.033,8,400,,,
trial,html.Screen,4_64_0,2023-10-31T22:02:30.231Z,,0,2,,3297.967000000179,response,ISIC_0069050.JPG,5,ISIC_0054886.JPG,ISIC_0069050.JPG,false,1,keypress(m),500,4994199.100000024,4994199,4990884.46,4990894.899999976,4990901.033,4994233.015,8,400,15,,ISIC_0054886.JPG
break,html.Screen,4_64_1,2023-10-31T22:02:30.231Z,,0,,,NaN,,,,,,false,,,,4994199.8000000715,4994199.399999976,,4994199.200000048,,4994233.015,8,400,,,
break_continue,html.Screen,4_64_2,2023-10-31T22:02:30.232Z,,0,,,NaN,,,,,,false,,,,4994200.100000024,4994200.100000024,,4994199.899999976,,4994233.015,8,400,,,
sequence,flow.Sequence,4_64,2023-10-31T22:02:30.232Z,,0,,,3299.0670000240207,completion,,,,,false,,,,4994200.200000048,4994200.100000024,4990884.46,4990894.899999976,4990901.033,4994233.015,8,400,,,
trial,html.Screen,4_65_0,2023-10-31T22:02:34.217Z,,0,2,,3952.685000048019,response,ISIC_0009441.JPG,11,ISIC_0071576.JPG,ISIC_0009441.JPG,false,1,keypress(m),500,4998185.8000000715,4998185.700000048,4994216.809,4994200.200000048,4994233.015,4998199,8,400,16,,ISIC_0071576.JPG
break,html.Screen,4_65_1,2023-10-31T22:02:34.218Z,,0,,,NaN,,,,,,false,,,,4998186.5,4998186.200000048,,4998185.899999976,,4998199,8,400,,,
break_continue,html.Screen,4_65_2,2023-10-31T22:02:34.218Z,,0,,,NaN,,,,,,false,,,,4998186.700000048,4998186.700000048,,4998186.5,,4998199,8,400,,,
sequence,flow.Sequence,4_65,2023-10-31T22:02:34.218Z,,0,,,3953.685000048019,completion,,,,,false,,,,4998186.8000000715,4998186.700000048,4994216.809,4994200.200000048,4994233.015,4998199,8,400,,,
trial,html.Screen,4_66_0,2023-10-31T22:02:37.875Z,,0,2,,3644.100000023842,response,ISIC_0028181.JPG,7,ISIC_0056406.JPG,ISIC_0028181.JPG,false,1,keypress(m),500,5001843.3000000715,5001843.100000024,4998182.741,4998186.899999976,4998199,5001847.135,8,400,17,,ISIC_0056406.JPG
break,html.Screen,4_66_1,2023-10-31T22:02:37.875Z,,0,,,NaN,,,,,,false,,,,5001843.700000048,5001843.600000024,,5001843.399999976,,5001847.135,8,400,,,
break_continue,html.Screen,4_66_2,2023-10-31T22:02:37.876Z,,0,,,NaN,,,,,,false,,,,5001844.100000024,5001844,,5001843.899999976,,5001847.135,8,400,,,
sequence,flow.Sequence,4_66,2023-10-31T22:02:37.876Z,,0,,,3645,completion,,,,,false,,,,5001844.200000048,5001844,4998182.741,4998186.899999976,4998199,5001847.135,8,400,,,
trial,html.Screen,4_67_0,2023-10-31T22:02:40.982Z,,0,2,,3103.165000071749,response,ISIC_0028418.JPG,10,ISIC_0033229.JPG,ISIC_0033229.JPG,false,0,keypress(z),500,5004950.399999976,5004950.3000000715,5001831.093,5001844.3000000715,5001847.135,5004963.33,8,400,18,,ISIC_0028418.JPG
break,html.Screen,4_67_1,2023-10-31T22:02:40.983Z,,0,,,NaN,,,,,,false,,,,5004951.200000048,5004950.899999976,,5004950.5,,5004963.33,8,400,,,
break_continue,html.Screen,4_67_2,2023-10-31T22:02:40.983Z,,0,,,NaN,,,,,,false,,,,5004951.5,5004951.399999976,,5004951.399999976,,5004963.33,8,400,,,
sequence,flow.Sequence,4_67,2023-10-31T22:02:40.983Z,,0,,,3104.2649999763817,completion,,,,,false,,,,5004951.600000024,5004951.399999976,5001831.093,5001844.3000000715,5001847.135,5004963.33,8,400,,,
trial,html.Screen,4_68_0,2023-10-31T22:02:45.322Z,,0,2,,4326.569999976084,response,ISIC_0056793.JPG,6,ISIC_0063930.JPG,ISIC_0063930.JPG,false,0,keypress(z),500,5009290.100000024,5009289.899999976,5004946.693,5004951.600000024,5004963.33,5009294.694,8,400,19,,ISIC_0056793.JPG
break,html.Screen,4_68_1,2023-10-31T22:02:45.322Z,,0,,,NaN,,,,,,false,,,,5009290.5,5009290.399999976,,5009290.100000024,,5009294.694,8,400,,,
break_continue,html.Screen,4_68_2,2023-10-31T22:02:45.322Z,,0,,,NaN,,,,,,false,,,,5009290.899999976,5009290.899999976,,5009290.700000048,,5009294.694,8,400,,,
sequence,flow.Sequence,4_68,2023-10-31T22:02:45.323Z,,0,,,4327.569999976084,completion,,,,,false,,,,5009291,5009290.899999976,5004946.693,5004951.600000024,5004963.33,5009294.694,8,400,,,
trial,html.Screen,4_69_0,2023-10-31T22:02:48.350Z,,0,2,,3023.305999999866,response,ISIC_0200153.JPG,6,ISIC_0000466.JPG,ISIC_0200153.JPG,false,1,keypress(m),500,5012318.200000048,5012318,5009277.918,5009291,5009294.694,5012327.023,8,400,20,,ISIC_0000466.JPG
break,html.Screen,4_69_1,2023-10-31T22:02:48.350Z,,0,,,NaN,,,,,,false,,,,5012318.700000048,5012318.5,,5012318.3000000715,,5012327.023,8,400,,,
break_continue,html.Screen,4_69_2,2023-10-31T22:02:48.351Z,,0,,,NaN,,,,,,false,,,,5012319,5012319,,5012318.8000000715,,5012327.023,8,400,,,
sequence,flow.Sequence,4_69,2023-10-31T22:02:48.351Z,,0,,,3024.305999999866,completion,,,,,false,,,,5012319.100000024,5012319,5009277.918,5009291,5009294.694,5012327.023,8,400,,,
trial,html.Screen,4_70_0,2023-10-31T22:02:51.571Z,,0,2,,3212.177000047639,response,ISIC_4495099.JPG,9,ISIC_6026759.JPG,ISIC_4495099.JPG,false,1,keypress(m),500,5015539.399999976,5015539.200000048,5012310.698,5012319.100000024,5012327.023,5015542.521,8,400,21,,ISIC_6026759.JPG
break,html.Screen,4_70_1,2023-10-31T22:02:51.572Z,,0,,,NaN,,,,,,false,,,,5015540,5015539.8000000715,,5015539.399999976,,5015542.521,8,400,,,
break_continue,html.Screen,4_70_2,2023-10-31T22:02:51.572Z,,0,,,NaN,,,,,,false,,,,5015540.3000000715,5015540.200000048,,5015540.100000024,,5015542.521,8,400,,,
sequence,flow.Sequence,4_70,2023-10-31T22:02:51.572Z,,0,,,3213.177000047639,completion,,,,,false,,,,5015540.3000000715,5015540.200000048,5012310.698,5012319.100000024,5012327.023,5015542.521,8,400,,,
trial,html.Screen,4_71_0,2023-10-31T22:02:55.994Z,,0,2,,4419.479000000283,response,ISIC_0068239.JPG,6,ISIC_0058021.JPG,ISIC_0058021.JPG,false,0,keypress(z),500,5019962.200000048,5019962,5015526.112,5015540.399999976,5015542.521,5019974.957,8,400,22,,ISIC_0068239.JPG
break,html.Screen,4_71_1,2023-10-31T22:02:55.994Z,,0,,,NaN,,,,,,false,,,,5019962.8000000715,5019962.600000024,,5019962.3000000715,,5019974.957,8,400,,,
break_continue,html.Screen,4_71_2,2023-10-31T22:02:55.995Z,,0,,,NaN,,,,,,false,,,,5019963,5019963,,5019962.899999976,,5019974.957,8,400,,,
sequence,flow.Sequence,4_71,2023-10-31T22:02:55.995Z,,0,,,4420.479000000283,completion,,,,,false,,,,5019963.200000048,5019963,5015526.112,5015540.3000000715,5015542.521,5019974.957,8,400,,,
trial,html.Screen,4_72_0,2023-10-31T22:03:01.967Z,,0,2,,5959.942999975756,response,ISIC_7641956.JPG,12,ISIC_3598244.JPG,ISIC_3598244.JPG,false,0,keypress(z),500,5025935,5025934.899999976,5019958.391,5019963.200000048,5019974.957,5025939.069,8,400,23,,ISIC_7641956.JPG
break,html.Screen,4_72_1,2023-10-31T22:03:01.967Z,,0,,,NaN,,,,,,false,,,,5025935.399999976,5025935.399999976,,5025935.100000024,,5025939.069,8,400,,,
break_continue,html.Screen,4_72_2,2023-10-31T22:03:01.967Z,,0,,,NaN,,,,,,false,,,,5025935.600000024,5025935.600000024,,5025935.5,,5025939.069,8,400,,,
sequence,flow.Sequence,4_72,2023-10-31T22:03:01.967Z,,0,,,5960.6430000234395,completion,,,,,false,,,,5025935.700000048,5025935.600000024,5019958.391,5019963.200000048,5019974.957,5025939.069,8,400,,,
trial,html.Screen,4_73_0,2023-10-31T22:03:07.144Z,,0,2,,5173.13100004755,response,ISIC_0010164.JPG,13,ISIC_2271767.JPG,ISIC_2271767.JPG,false,0,keypress(z),500,5031112.399999976,5031112.200000048,5025923.027,5025935.700000048,5025939.069,5031120.926,8,400,24,,ISIC_0010164.JPG
break,html.Screen,4_73_1,2023-10-31T22:03:07.145Z,,0,,,NaN,,,,,,false,,,,5031112.899999976,5031112.700000048,,5031112.5,,5031120.926,8,400,,,
break_continue,html.Screen,4_73_2,2023-10-31T22:03:07.145Z,,0,,,NaN,,,,,,false,,,,5031113.3000000715,5031113.200000048,,5031113.100000024,,5031120.926,8,400,,,
sequence,flow.Sequence,4_73,2023-10-31T22:03:07.145Z,,0,,,5174.13100004755,completion,,,,,false,,,,5031113.399999976,5031113.200000048,5025923.027,5025935.700000048,5025939.069,5031120.926,8,400,,,
trial,html.Screen,4_74_0,2023-10-31T22:03:10.157Z,,0,2,,3004.0740000000224,response,ISIC_3677945.JPG,8,ISIC_0010663.JPG,ISIC_3677945.JPG,false,1,keypress(m),500,5034125.200000048,5034125,5031104.132,5031113.399999976,5031120.926,5034136.786,8,400,25,,ISIC_0010663.JPG
break,html.Screen,4_74_1,2023-10-31T22:03:10.157Z,,0,,,NaN,,,,,,false,,,,5034125.700000048,5034125.600000024,,5034125.3000000715,,5034136.786,8,400,,,
break_continue,html.Screen,4_74_2,2023-10-31T22:03:10.158Z,,0,,,NaN,,,,,,false,,,,5034126.100000024,5034125.899999976,,5034125.8000000715,,5034136.786,8,400,,,
sequence,flow.Sequence,4_74,2023-10-31T22:03:10.158Z,,0,,,3004.9739999761805,completion,,,,,false,,,,5034126.100000024,5034125.899999976,5031104.132,5031113.399999976,5031120.926,5034136.786,8,400,,,
trial,html.Screen,4_75_0,2023-10-31T22:03:16.004Z,,0,2,,5835.314000023529,response,ISIC_9668514.JPG,12,ISIC_0005304.JPG,ISIC_0005304.JPG,false,0,keypress(z),500,5039972.3000000715,5039972.100000024,5034119.739,5034126.100000024,5034136.786,5039984.838,8,400,26,,ISIC_9668514.JPG
break,html.Screen,4_75_1,2023-10-31T22:03:16.005Z,,0,,,NaN,,,,,,false,,,,5039972.899999976,5039972.600000024,,5039972.399999976,,5039984.838,8,400,,,
break_continue,html.Screen,4_75_2,2023-10-31T22:03:16.005Z,,0,,,NaN,,,,,,false,,,,5039973.200000048,5039973.100000024,,5039972.899999976,,5039984.838,8,400,,,
sequence,flow.Sequence,4_75,2023-10-31T22:03:16.005Z,,0,,,5836.314000023529,completion,,,,,false,,,,5039973.200000048,5039973.100000024,5034119.739,5034126.100000024,5034136.786,5039984.838,8,400,,,
trial,html.Screen,4_76_0,2023-10-31T22:03:18.984Z,,0,2,,2967.5619999757037,response,ISIC_7404937.JPG,8,ISIC_2123159.JPG,ISIC_2123159.JPG,false,0,keypress(z),500,5042952.600000024,5042952.399999976,5039968.144,5039973.200000048,5039984.838,5042967.173,8,400,27,,ISIC_7404937.JPG
break,html.Screen,4_76_1,2023-10-31T22:03:18.985Z,,0,,,NaN,,,,,,false,,,,5042953.100000024,5042953,,5042952.600000024,,5042967.173,8,400,,,
break_continue,html.Screen,4_76_2,2023-10-31T22:03:18.985Z,,0,,,NaN,,,,,,false,,,,5042953.399999976,5042953.3000000715,,5042953.200000048,,5042967.173,8,400,,,
sequence,flow.Sequence,4_76,2023-10-31T22:03:18.985Z,,0,,,2968.462000071071,completion,,,,,false,,,,5042953.5,5042953.3000000715,5039968.144,5039973.200000048,5039984.838,5042967.173,8,400,,,
trial,html.Screen,4_77_0,2023-10-31T22:03:21.731Z,,0,2,,2732.1270000711083,response,ISIC_0027101.JPG,11,ISIC_0004217.JPG,ISIC_0004217.JPG,false,0,keypress(z),500,5045699.5,5045699.3000000715,5042950.597,5042953.600000024,5042967.173,5045715.537,8,400,28,,ISIC_0027101.JPG
break,html.Screen,4_77_1,2023-10-31T22:03:21.732Z,,0,,,NaN,,,,,,false,,,,5045700,5045699.8000000715,,5045699.600000024,,5045715.537,8,400,,,
break_continue,html.Screen,4_77_2,2023-10-31T22:03:21.732Z,,0,,,NaN,,,,,,false,,,,5045700.3000000715,5045700.3000000715,,5045700.100000024,,5045715.537,8,400,,,
sequence,flow.Sequence,4_77,2023-10-31T22:03:21.732Z,,0,,,2733.1270000711083,completion,,,,,false,,,,5045700.399999976,5045700.3000000715,5042950.597,5042953.600000024,5042967.173,5045715.537,8,400,,,
trial,html.Screen,4_78_0,2023-10-31T22:03:27.163Z,,0,2,,5416.063000024296,response,ISIC_7215208.JPG,10,ISIC_1706912.JPG,ISIC_1706912.JPG,false,0,keypress(z),500,5051131.700000048,5051131.600000024,5045699.476,5045700.399999976,5045715.537,5051147.728,8,400,29,,ISIC_7215208.JPG
break,html.Screen,4_78_1,2023-10-31T22:03:27.164Z,,0,,,NaN,,,,,,false,,,,5051132.399999976,5051132.200000048,,5051131.899999976,,5051147.728,8,400,,,
break_continue,html.Screen,4_78_2,2023-10-31T22:03:27.164Z,,0,,,NaN,,,,,,false,,,,5051132.600000024,5051132.600000024,,5051132.5,,5051147.728,8,400,,,
sequence,flow.Sequence,4_78,2023-10-31T22:03:27.164Z,,0,,,5417.063000024296,completion,,,,,false,,,,5051132.8000000715,5051132.600000024,5045699.476,5045700.399999976,5045715.537,5051147.728,8,400,,,
trial,html.Screen,4_79_0,2023-10-31T22:03:30.114Z,,0,2,,2934.0720000714064,response,ISIC_0000239.JPG,12,ISIC_0054777.JPG,ISIC_0000239.JPG,false,1,keypress(m),500,5054082,5054081.8000000715,5051130.604,5051132.8000000715,5051147.728,5054096.736,8,400,30,,ISIC_0054777.JPG
break,html.Screen,4_79_1,2023-10-31T22:03:30.114Z,,0,,,NaN,,,,,,false,,,,5054082.5,5054082.399999976,,5054082,,5054096.736,8,400,,,
break_continue,html.Screen,4_79_2,2023-10-31T22:03:30.114Z,,0,,,NaN,,,,,,false,,,,5054082.8000000715,5054082.700000048,,5054082.600000024,,5054096.736,8,400,,,
sequence,flow.Sequence,4_79,2023-10-31T22:03:30.115Z,,0,,,2934.9720000475645,completion,,,,,false,,,,5054082.8000000715,5054082.700000048,5051130.604,5051132.8000000715,5051147.728,5054096.736,8,400,,,
trial,html.Screen,4_80_0,2023-10-31T22:03:33.944Z,,0,2,,3815.264000000432,response,ISIC_7528996.JPG,8,ISIC_5194331.JPG,ISIC_5194331.JPG,false,0,keypress(z),500,5057912.200000048,5057912,5054079.358,5054082.899999976,5054096.736,5057928.789,8,400,31,,ISIC_7528996.JPG
break,html.Screen,4_80_1,2023-10-31T22:03:33.945Z,,0,,,NaN,,,,,,false,,,,5057912.8000000715,5057912.5,,5057912.3000000715,,5057928.789,8,400,,,
break_continue,html.Screen,4_80_2,2023-10-31T22:03:33.945Z,,0,,,NaN,,,,,,false,,,,5057913.100000024,5057913,,5057912.899999976,,5057928.789,8,400,,,
sequence,flow.Sequence,4_80,2023-10-31T22:03:33.945Z,,0,,,3816.264000000432,completion,,,,,false,,,,5057913.200000048,5057913,5054079.358,5054082.899999976,5054096.736,5057928.789,8,400,,,
trial,html.Screen,4_81_0,2023-10-31T22:03:37.340Z,,0,2,,3379.3110000239685,response,ISIC_0033359.JPG,12,ISIC_0015256.JPG,ISIC_0033359.JPG,false,1,keypress(m),500,5061308.200000048,5061308.100000024,5057912.031,5057913.200000048,5057928.789,5061310.288,8,400,32,,ISIC_0015256.JPG
break,html.Screen,4_81_1,2023-10-31T22:03:37.340Z,,0,,,NaN,,,,,,false,,,,5061308.700000048,5061308.600000024,,5061308.3000000715,,5061310.288,8,400,,,
break_continue,html.Screen,4_81_2,2023-10-31T22:03:37.341Z,,0,,,NaN,,,,,,false,,,,5061309.100000024,5061309,,5061308.8000000715,,5061310.288,8,400,,,
sequence,flow.Sequence,4_81,2023-10-31T22:03:37.341Z,,0,,,3380.2110000001267,completion,,,,,false,,,,5061309.200000048,5061309,5057912.031,5057913.200000048,5057928.789,5061310.288,8,400,,,
trial,html.Screen,4_82_0,2023-10-31T22:03:42.610Z,,0,2,,5268.212000000291,response,ISIC_0033881.JPG,7,ISIC_0070585.JPG,ISIC_0070585.JPG,false,0,keypress(z),500,5066578.700000048,5066578.5,5061294.161,5061309.200000048,5061310.288,5066592.504,8,400,33,,ISIC_0033881.JPG
break,html.Screen,4_82_1,2023-10-31T22:03:42.611Z,,0,,,NaN,,,,,,false,,,,5066579.3000000715,5066579.100000024,,5066578.700000048,,5066592.504,8,400,,,
break_continue,html.Screen,4_82_2,2023-10-31T22:03:42.611Z,,0,,,NaN,,,,,,false,,,,5066579.600000024,5066579.5,,5066579.3000000715,,5066592.504,8,400,,,
sequence,flow.Sequence,4_82,2023-10-31T22:03:42.611Z,,0,,,5269.212000000291,completion,,,,,false,,,,5066579.600000024,5066579.5,5061294.161,5061309.200000048,5061310.288,5066592.504,8,400,,,
trial,html.Screen,4_83_0,2023-10-31T22:03:45.787Z,,0,2,,3162.6960000479594,response,ISIC_1504257.JPG,5,ISIC_9775430.JPG,ISIC_1504257.JPG,false,1,keypress(m),500,5069755.3000000715,5069755.200000048,5066575.688,5066579.700000048,5066592.504,5069757.435,8,400,34,,ISIC_9775430.JPG
break,html.Screen,4_83_1,2023-10-31T22:03:45.788Z,,0,,,NaN,,,,,,false,,,,5069755.899999976,5069755.700000048,,5069755.5,,5069757.435,8,400,,,
break_continue,html.Screen,4_83_2,2023-10-31T22:03:45.788Z,,0,,,NaN,,,,,,false,,,,5069756.200000048,5069756.100000024,,5069756,,5069757.435,8,400,,,
sequence,flow.Sequence,4_83,2023-10-31T22:03:45.788Z,,0,,,3163.5960000241175,completion,,,,,false,,,,5069756.3000000715,5069756.100000024,5066575.688,5066579.600000024,5066592.504,5069757.435,8,400,,,
trial,html.Screen,4_84_0,2023-10-31T22:03:48.610Z,,0,2,,2820.7650000480935,response,ISIC_2577938.JPG,12,ISIC_0031204.JPG,ISIC_2577938.JPG,false,1,keypress(m),500,5072578.399999976,5072578.200000048,5069741.271,5069756.399999976,5069757.435,5072590.452,8,400,35,,ISIC_0031204.JPG
break,html.Screen,4_84_1,2023-10-31T22:03:48.611Z,,0,,,NaN,,,,,,false,,,,5072578.899999976,5072578.700000048,,5072578.5,,5072590.452,8,400,,,
break_continue,html.Screen,4_84_2,2023-10-31T22:03:48.611Z,,0,,,NaN,,,,,,false,,,,5072579.100000024,5072579,,5072578.899999976,,5072590.452,8,400,,,
sequence,flow.Sequence,4_84,2023-10-31T22:03:48.611Z,,0,,,2821.56500000041,completion,,,,,false,,,,5072579.200000048,5072579,5069741.271,5069756.399999976,5069757.435,5072590.452,8,400,,,
trial,html.Screen,4_85_0,2023-10-31T22:03:51.274Z,,0,2,,2652.148000024259,response,ISIC_1520897.JPG,9,ISIC_3764173.JPG,ISIC_3764173.JPG,false,0,keypress(z),500,5075242.700000048,5075242.600000024,5072573.545,5072579.200000048,5072590.452,5075256.225,8,400,36,,ISIC_1520897.JPG
break,html.Screen,4_85_1,2023-10-31T22:03:51.275Z,,0,,,NaN,,,,,,false,,,,5075243.200000048,5075243.100000024,,5075242.8000000715,,5075256.225,8,400,,,
break_continue,html.Screen,4_85_2,2023-10-31T22:03:51.275Z,,0,,,NaN,,,,,,false,,,,5075243.600000024,5075243.5,,5075243.399999976,,5075256.225,8,400,,,
sequence,flow.Sequence,4_85,2023-10-31T22:03:51.275Z,,0,,,2653.0480000004172,completion,,,,,false,,,,5075243.700000048,5075243.5,5072573.545,5072579.200000048,5072590.452,5075256.225,8,400,,,
trial,html.Screen,4_86_0,2023-10-31T22:03:55.314Z,,0,2,,4025.575000071898,response,ISIC_4166490.JPG,8,ISIC_6828587.JPG,ISIC_6828587.JPG,false,0,keypress(z),500,5079281.899999976,5079281.8000000715,5075239.474,5075243.700000048,5075256.225,5079304.793,8,400,37,,ISIC_4166490.JPG
break,html.Screen,4_86_1,2023-10-31T22:03:55.314Z,,0,,,NaN,,,,,,false,,,,5079282.5,5079282.3000000715,,5079282,,5079304.793,8,400,,,
break_continue,html.Screen,4_86_2,2023-10-31T22:03:55.314Z,,0,,,NaN,,,,,,false,,,,5079282.8000000715,5079282.600000024,,5079282.5,,5079304.793,8,400,,,
sequence,flow.Sequence,4_86,2023-10-31T22:03:55.315Z,,0,,,4026.3750000242144,completion,,,,,false,,,,5079282.8000000715,5079282.600000024,5075239.474,5075243.700000048,5075256.225,5079304.793,8,400,,,
trial,html.Screen,4_87_0,2023-10-31T22:03:58.377Z,,0,2,,3039.907000048086,response,ISIC_2536779.JPG,9,ISIC_0073102.JPG,ISIC_2536779.JPG,false,1,keypress(m),500,5082344.899999976,5082344.700000048,5079271.192,5079282.899999976,5079304.793,5082353.211,8,400,38,,ISIC_0073102.JPG
break,html.Screen,4_87_1,2023-10-31T22:03:58.377Z,,0,,,NaN,,,,,,false,,,,5082345.5,5082345.3000000715,,5082345,,5082353.211,8,400,,,
break_continue,html.Screen,4_87_2,2023-10-31T22:03:58.377Z,,0,,,NaN,,,,,,false,,,,5082345.700000048,5082345.700000048,,5082345.5,,5082353.211,8,400,,,
sequence,flow.Sequence,4_87,2023-10-31T22:03:58.377Z,,0,,,3040.907000048086,completion,,,,,false,,,,5082345.8000000715,5082345.700000048,5079271.192,5079282.8000000715,5079304.793,5082353.211,8,400,,,
trial,html.Screen,4_88_0,2023-10-31T22:04:03.101Z,,0,2,,4715.989000047557,response,ISIC_6414435.JPG,7,ISIC_0059303.JPG,ISIC_6414435.JPG,false,1,keypress(m),500,5087069.3000000715,5087069.200000048,5082337.303,5082345.8000000715,5082353.211,5087085.554,8,400,39,,ISIC_0059303.JPG
break,html.Screen,4_88_1,2023-10-31T22:04:03.102Z,,0,,,NaN,,,,,,false,,,,5087069.899999976,5087069.600000024,,5087069.3000000715,,5087085.554,8,400,,,
break_continue,html.Screen,4_88_2,2023-10-31T22:04:03.102Z,,0,,,NaN,,,,,,false,,,,5087070.100000024,5087070.100000024,,5087069.899999976,,5087085.554,8,400,,,
sequence,flow.Sequence,4_88,2023-10-31T22:04:03.102Z,,0,,,4716.889000023715,completion,,,,,false,,,,5087070.3000000715,5087070.100000024,5082337.303,5082345.8000000715,5082353.211,5087085.554,8,400,,,
trial,html.Screen,4_89_0,2023-10-31T22:04:05.953Z,,0,2,,2836.1460000481457,response,ISIC_0028338.JPG,8,ISIC_8160596.JPG,ISIC_0028338.JPG,false,1,keypress(m),500,5089921.8000000715,5089921.700000048,5087069.009,5087070.3000000715,5087085.554,5089934.586,8,400,40,,ISIC_8160596.JPG
break,html.Screen,4_89_1,2023-10-31T22:04:05.954Z,,0,,,NaN,,,,,,false,,,,5089922.399999976,5089922.200000048,,5089921.899999976,,5089934.586,8,400,,,
break_continue,html.Screen,4_89_2,2023-10-31T22:04:05.954Z,,0,,,NaN,,,,,,false,,,,5089922.600000024,5089922.600000024,,5089922.399999976,,5089934.586,8,400,,,
sequence,flow.Sequence,4_89,2023-10-31T22:04:05.954Z,,0,,,2837.046000024304,completion,,,,,false,,,,5089922.8000000715,5089922.600000024,5087069.009,5087070.3000000715,5087085.554,5089934.586,8,400,,,
trial,html.Screen,4_90_0,2023-10-31T22:04:08.571Z,,0,2,,2604.3139999760315,response,ISIC_0026188.JPG,12,ISIC_0535416.JPG,ISIC_0535416.JPG,false,0,keypress(z),500,5092539.100000024,5092538.899999976,5089917.865,5089922.8000000715,5089934.586,5092550.357,8,400,41,,ISIC_0026188.JPG
break,html.Screen,4_90_1,2023-10-31T22:04:08.571Z,,0,,,NaN,,,,,,false,,,,5092539.5,5092539.399999976,,5092539.100000024,,5092550.357,8,400,,,
break_continue,html.Screen,4_90_2,2023-10-31T22:04:08.572Z,,0,,,NaN,,,,,,false,,,,5092539.8000000715,5092539.8000000715,,5092539.600000024,,5092550.357,8,400,,,
sequence,flow.Sequence,4_90,2023-10-31T22:04:08.572Z,,0,,,2605.214000071399,completion,,,,,false,,,,5092539.899999976,5092539.8000000715,5089917.865,5089922.8000000715,5089934.586,5092550.357,8,400,,,
trial,html.Screen,4_91_0,2023-10-31T22:04:11.646Z,,0,2,,3063.6430000001565,response,ISIC_2545299.JPG,8,ISIC_9407690.JPG,ISIC_2545299.JPG,false,1,keypress(m),500,5095614.100000024,5095614,5092533.358,5092539.899999976,5092550.357,5095637.944,8,400,42,,ISIC_9407690.JPG
break,html.Screen,4_91_1,2023-10-31T22:04:11.646Z,,0,,,NaN,,,,,,false,,,,5095614.600000024,5095614.399999976,,5095614.200000048,,5095637.944,8,400,,,
break_continue,html.Screen,4_91_2,2023-10-31T22:04:11.647Z,,0,,,NaN,,,,,,false,,,,5095614.899999976,5095614.899999976,,5095614.700000048,,5095637.944,8,400,,,
sequence,flow.Sequence,4_91,2023-10-31T22:04:11.647Z,,0,,,3064.5429999763146,completion,,,,,false,,,,5095615.100000024,5095614.899999976,5092533.358,5092539.899999976,5092550.357,5095637.944,8,400,,,
trial,html.Screen,4_92_0,2023-10-31T22:04:14.564Z,,0,2,,2894.2560000475496,response,ISIC_0056790.JPG,10,ISIC_1819358.JPG,ISIC_0056790.JPG,false,1,keypress(m),500,5098532.3000000715,5098532.200000048,5095599.114,5095615.100000024,5095637.944,5098548.334,8,400,43,,ISIC_1819358.JPG
break,html.Screen,4_92_1,2023-10-31T22:04:14.565Z,,0,,,NaN,,,,,,false,,,,5098532.8000000715,5098532.700000048,,5098532.399999976,,5098548.334,8,400,,,
break_continue,html.Screen,4_92_2,2023-10-31T22:04:14.565Z,,0,,,NaN,,,,,,false,,,,5098533.200000048,5098533.100000024,,5098532.899999976,,5098548.334,8,400,,,
sequence,flow.Sequence,4_92,2023-10-31T22:04:14.565Z,,0,,,2895.1560000237077,completion,,,,,false,,,,5098533.3000000715,5098533.100000024,5095599.114,5095615.100000024,5095637.944,5098548.334,8,400,,,
trial,html.Screen,4_93_0,2023-10-31T22:04:19.927Z,,0,2,,5347.166000000201,response,ISIC_0010772.JPG,9,ISIC_0011702.JPG,ISIC_0011702.JPG,false,0,keypress(z),500,5103895.700000048,5103895.5,5098531.767,5098533.3000000715,5098548.334,5103912.526,8,400,44,,ISIC_0010772.JPG
break,html.Screen,4_93_1,2023-10-31T22:04:19.928Z,,0,,,NaN,,,,,,false,,,,5103896.3000000715,5103896.100000024,,5103895.8000000715,,5103912.526,8,400,,,
break_continue,html.Screen,4_93_2,2023-10-31T22:04:19.928Z,,0,,,NaN,,,,,,false,,,,5103896.600000024,5103896.5,,5103896.399999976,,5103912.526,8,400,,,
sequence,flow.Sequence,4_93,2023-10-31T22:04:19.928Z,,0,,,5348.166000000201,completion,,,,,false,,,,5103896.700000048,5103896.5,5098531.767,5098533.3000000715,5098548.334,5103912.526,8,400,,,
trial,html.Screen,4_94_0,2023-10-31T22:04:23.247Z,,0,2,,3302.5740000242367,response,ISIC_0268701.JPG,11,ISIC_0429825.JPG,ISIC_0268701.JPG,false,1,keypress(m),500,5107215.200000048,5107215.100000024,5103879.776,5103896.700000048,5103912.526,5107228.272,8,400,45,,ISIC_0429825.JPG
break,html.Screen,4_94_1,2023-10-31T22:04:23.247Z,,0,,,NaN,,,,,,false,,,,5107215.600000024,5107215.5,,5107215.3000000715,,5107228.272,8,400,,,
break_continue,html.Screen,4_94_2,2023-10-31T22:04:23.248Z,,0,,,NaN,,,,,,false,,,,5107215.8000000715,5107215.700000048,,5107215.600000024,,5107228.272,8,400,,,
sequence,flow.Sequence,4_94,2023-10-31T22:04:23.248Z,,0,,,3303.1740000480786,completion,,,,,false,,,,5107215.8000000715,5107215.700000048,5103879.776,5103896.700000048,5103912.526,5107228.272,8,400,,,
trial,html.Screen,4_95_0,2023-10-31T22:04:26.146Z,,0,2,,2886.328000023961,response,ISIC_0033239.JPG,8,ISIC_6652978.JPG,ISIC_0033239.JPG,false,1,keypress(m),500,5110114.700000048,5110114.600000024,5107212,5107215.899999976,5107228.272,5110127.746,8,400,46,,ISIC_6652978.JPG
break,html.Screen,4_95_1,2023-10-31T22:04:26.147Z,,0,,,NaN,,,,,,false,,,,5110115.3000000715,5110115.100000024,,5110114.8000000715,,5110127.746,8,400,,,
break_continue,html.Screen,4_95_2,2023-10-31T22:04:26.147Z,,0,,,NaN,,,,,,false,,,,5110115.700000048,5110115.600000024,,5110115.399999976,,5110127.746,8,400,,,
sequence,flow.Sequence,4_95,2023-10-31T22:04:26.147Z,,0,,,2887.328000023961,completion,,,,,false,,,,5110115.8000000715,5110115.600000024,5107212,5107215.899999976,5107228.272,5110127.746,8,400,,,
trial,html.Screen,4_96_0,2023-10-31T22:04:30.186Z,,0,2,,4026.55400007125,response,ISIC_5005961.JPG,12,ISIC_0026996.JPG,ISIC_5005961.JPG,false,1,keypress(m),500,5114154.399999976,5114154.3000000715,5110111.098,5110115.8000000715,5110127.746,5114159.191,8,400,47,,ISIC_0026996.JPG
break,html.Screen,4_96_1,2023-10-31T22:04:30.187Z,,0,,,NaN,,,,,,false,,,,5114155,5114154.8000000715,,5114154.5,,5114159.191,8,400,,,
break_continue,html.Screen,4_96_2,2023-10-31T22:04:30.187Z,,0,,,NaN,,,,,,false,,,,5114155.3000000715,5114155.200000048,,5114155.100000024,,5114159.191,8,400,,,
sequence,flow.Sequence,4_96,2023-10-31T22:04:30.187Z,,0,,,4027.454000047408,completion,,,,,false,,,,5114155.399999976,5114155.200000048,5110111.098,5110115.8000000715,5110127.746,5114159.191,8,400,,,
trial,html.Screen,4_97_0,2023-10-31T22:04:34.257Z,,0,2,,4066.2089999765158,response,ISIC_2159510.JPG,10,ISIC_1744817.JPG,ISIC_2159510.JPG,false,1,keypress(m),500,5118225.600000024,5118225.399999976,5114143.169,5114155.5,5114159.191,5118241.677,8,400,48,,ISIC_1744817.JPG
break,html.Screen,4_97_1,2023-10-31T22:04:34.258Z,,0,,,NaN,,,,,,false,,,,5118226,5118225.8000000715,,5118225.600000024,,5118241.677,8,400,,,
break_continue,html.Screen,4_97_2,2023-10-31T22:04:34.258Z,,0,,,NaN,,,,,,false,,,,5118226.200000048,5118226.100000024,,5118226,,5118241.677,8,400,,,
sequence,flow.Sequence,4_97,2023-10-31T22:04:34.258Z,,0,,,4066.9090000241995,completion,,,,,false,,,,5118226.3000000715,5118226.100000024,5114143.169,5114155.399999976,5114159.191,5118241.677,8,400,,,
trial,html.Screen,4_98_0,2023-10-31T22:04:37.417Z,,0,2,,3143.4230000237003,response,ISIC_8785329.JPG,13,ISIC_3485482.JPG,ISIC_8785329.JPG,false,1,keypress(m),500,5121385.200000048,5121385.100000024,5118224.911,5118226.399999976,5118241.677,5121390.339,8,400,49,,ISIC_3485482.JPG
break,html.Screen,4_98_1,2023-10-31T22:04:37.418Z,,0,,,NaN,,,,,,false,,,,5121385.899999976,5121385.700000048,,5121385.399999976,,5121390.339,8,400,,,
break_continue,html.Screen,4_98_2,2023-10-31T22:04:37.418Z,,0,,,NaN,,,,,,false,,,,5121386.3000000715,5121386.100000024,,5121386,,5121390.339,8,400,,,
sequence,flow.Sequence,4_98,2023-10-31T22:04:37.418Z,,0,,,3144.4230000237003,completion,,,,,false,,,,5121386.3000000715,5121386.100000024,5118224.911,5118226.3000000715,5118241.677,5121390.339,8,400,,,
trial,html.Screen,4_99_0,2023-10-31T22:04:41.790Z,,0,2,,4367.9610000718385,response,ISIC_1809444.JPG,11,ISIC_0011073.JPG,ISIC_0011073.JPG,false,0,keypress(z),500,5125758.399999976,5125758.3000000715,5121373.819,5121386.399999976,5121390.339,5125772.412,8,400,50,,ISIC_1809444.JPG
break,html.Screen,4_99_1,2023-10-31T22:04:51.783Z,,0,,,9996.6520000007,timeout,,,,,false,,,,5135752.8000000715,5135752.398,5125755.619,5125758.5,5125772.412,5135769.064,8,400,,,
break_continue,html.Screen,4_99_2,2023-10-31T22:04:53.179Z,,0,,,1372.1360000474378,response,,,,,false,continue,keypress(Space),,5137148.700000048,5137141.200000048,5135752.398,5135752.899999976,5135769.064,5137151.211,8,400,,,
sequence,flow.Sequence,4_99,2023-10-31T22:04:53.179Z,,0,,,15750.861000047997,completion,,,,,false,,,,5137148.8000000715,5137141.200000048,5121373.819,5121386.3000000715,5121390.339,5137151.211,8,400,,,
trial,html.Screen,4_100_0,2023-10-31T22:04:56.174Z,,0,3,,2992.1889999760315,response,ISIC_7747998.JPG,7,ISIC_0059336.JPG,ISIC_7747998.JPG,false,1,keypress(m),500,5140143.5,5140143.399999976,5137135.338,5137148.8000000715,5137151.211,5140150.419,8,400,1,,ISIC_0059336.JPG
break,html.Screen,4_100_1,2023-10-31T22:04:56.174Z,,0,,,NaN,,,,,,false,,,,5140144.100000024,5140143.899999976,,5140143.600000024,,5140150.419,8,400,,,
break_continue,html.Screen,4_100_2,2023-10-31T22:04:56.174Z,,0,,,NaN,,,,,,false,,,,5140144.399999976,5140144.3000000715,,5140144.200000048,,5140150.419,8,400,,,
sequence,flow.Sequence,4_100,2023-10-31T22:04:56.175Z,,0,,,2993.089000071399,completion,,,,,false,,,,5140144.5,5140144.3000000715,5137135.338,5137148.8000000715,5137151.211,5140150.419,8,400,,,
trial,html.Screen,4_101_0,2023-10-31T22:04:59.812Z,,0,3,,3631.781000047922,response,ISIC_8438811.JPG,6,ISIC_7740744.JPG,ISIC_8438811.JPG,false,1,keypress(m),500,5143782.399999976,5143782.200000048,5140134.182,5140144.5,5140150.419,5143815.699,8,400,2,,ISIC_7740744.JPG
break,html.Screen,4_101_1,2023-10-31T22:04:59.813Z,,0,,,NaN,,,,,,false,,,,5143783,5143782.700000048,,5143782.5,,5143815.699,8,400,,,
break_continue,html.Screen,4_101_2,2023-10-31T22:04:59.814Z,,0,,,NaN,,,,,,false,,,,5143783.899999976,5143783.200000048,,5143783,,5143815.699,8,400,,,
sequence,flow.Sequence,4_101,2023-10-31T22:04:59.814Z,,0,,,3632.781000047922,completion,,,,,false,,,,5143784,5143783.200000048,5140134.182,5140144.5,5140150.419,5143815.699,8,400,,,
trial,html.Screen,4_102_0,2023-10-31T22:05:02.959Z,,0,3,,3112.700999976136,response,ISIC_0033333.JPG,8,ISIC_0072516.JPG,ISIC_0033333.JPG,false,1,keypress(m),500,5146928.700000048,5146928.399999976,5143799.29,5143784.200000048,5143815.699,5146931.302,8,400,3,,ISIC_0072516.JPG
break,html.Screen,4_102_1,2023-10-31T22:05:02.960Z,,0,,,NaN,,,,,,false,,,,5146929.5,5146929.200000048,,5146928.8000000715,,5146931.302,8,400,,,
break_continue,html.Screen,4_102_2,2023-10-31T22:05:02.960Z,,0,,,NaN,,,,,,false,,,,5146929.700000048,5146929.700000048,,5146929.600000024,,5146931.302,8,400,,,
sequence,flow.Sequence,4_102,2023-10-31T22:05:02.960Z,,0,,,3114.0010000476614,completion,,,,,false,,,,5146929.8000000715,5146929.700000048,5143799.29,5143784.100000024,5143815.699,5146931.302,8,400,,,
trial,html.Screen,4_103_0,2023-10-31T22:05:05.605Z,,0,3,,2643.7980000237003,response,ISIC_0033729.JPG,6,ISIC_0031203.JPG,ISIC_0033729.JPG,false,1,keypress(m),500,5149575.200000048,5149575.100000024,5146914.628,5146929.899999976,5146931.302,5149580.356,8,400,4,,ISIC_0031203.JPG
break,html.Screen,4_103_1,2023-10-31T22:05:05.606Z,,0,,,NaN,,,,,,false,,,,5149575.8000000715,5149575.700000048,,5149575.399999976,,5149580.356,8,400,,,
break_continue,html.Screen,4_103_2,2023-10-31T22:05:05.606Z,,0,,,NaN,,,,,,false,,,,5149576.100000024,5149576,,5149575.899999976,,5149580.356,8,400,,,
sequence,flow.Sequence,4_103,2023-10-31T22:05:05.606Z,,0,,,2644.6979999998584,completion,,,,,false,,,,5149576.200000048,5149576,5146914.628,5146929.8000000715,5146931.302,5149580.356,8,400,,,
trial,html.Screen,4_104_0,2023-10-31T22:05:09.578Z,,0,3,,3967.2440000241622,response,ISIC_0013364.JPG,8,ISIC_9590080.JPG,ISIC_0013364.JPG,false,1,keypress(m),500,5153547.8000000715,5153547.600000024,5149563.706,5149576.200000048,5149580.356,5153563.024,8,400,5,,ISIC_9590080.JPG
break,html.Screen,4_104_1,2023-10-31T22:05:09.578Z,,0,,,NaN,,,,,,false,,,,5153548.3000000715,5153548.100000024,,5153547.899999976,,5153563.024,8,400,,,
break_continue,html.Screen,4_104_2,2023-10-31T22:05:09.579Z,,0,,,NaN,,,,,,false,,,,5153548.600000024,5153548.600000024,,5153548.399999976,,5153563.024,8,400,,,
sequence,flow.Sequence,4_104,2023-10-31T22:05:09.579Z,,0,,,3968.2440000241622,completion,,,,,false,,,,5153548.700000048,5153548.600000024,5149563.706,5149576.200000048,5149580.356,5153563.024,8,400,,,
trial,html.Screen,4_105_0,2023-10-31T22:05:12.831Z,,0,3,,3237.9759999997914,response,ISIC_1444154.JPG,5,ISIC_0355177.JPG,ISIC_0355177.JPG,false,0,keypress(z),500,5156801.200000048,5156801,5153546.378,5153548.8000000715,5153563.024,5156827.954,8,400,6,,ISIC_1444154.JPG
break,html.Screen,4_105_1,2023-10-31T22:05:12.832Z,,0,,,NaN,,,,,,false,,,,5156801.700000048,5156801.5,,5156801.3000000715,,5156827.954,8,400,,,
break_continue,html.Screen,4_105_2,2023-10-31T22:05:12.832Z,,0,,,NaN,,,,,,false,,,,5156801.8000000715,5156801.8000000715,,5156801.700000048,,5156827.954,8,400,,,
sequence,flow.Sequence,4_105,2023-10-31T22:05:12.832Z,,0,,,3238.776000071317,completion,,,,,false,,,,5156801.899999976,5156801.8000000715,5153546.378,5153548.8000000715,5153563.024,5156827.954,8,400,,,
trial,html.Screen,4_106_0,2023-10-31T22:05:16.514Z,,0,3,,3655.9459999762475,response,ISIC_0056309.JPG,12,ISIC_7702483.JPG,ISIC_7702483.JPG,false,0,keypress(z),500,5160484,5160483.899999976,5156811.886,5156802,5156827.954,5160493.779,8,400,7,,ISIC_0056309.JPG
break,html.Screen,4_106_1,2023-10-31T22:05:16.515Z,,0,,,NaN,,,,,,false,,,,5160484.600000024,5160484.399999976,,5160484.200000048,,5160493.779,8,400,,,
break_continue,html.Screen,4_106_2,2023-10-31T22:05:16.515Z,,0,,,NaN,,,,,,false,,,,5160484.899999976,5160484.8000000715,,5160484.700000048,,5160493.779,8,400,,,
sequence,flow.Sequence,4_106,2023-10-31T22:05:16.515Z,,0,,,3656.846000071615,completion,,,,,false,,,,5160485,5160484.8000000715,5156811.886,5156802,5156827.954,5160493.779,8,400,,,
trial,html.Screen,4_107_0,2023-10-31T22:05:22.476Z,,0,3,,5951.720999999903,response,ISIC_0030291.JPG,10,ISIC_4541530.JPG,ISIC_0030291.JPG,false,1,keypress(m),500,5166445.600000024,5166445.5,5160477.147,5160485,5160493.779,5166458.336,8,400,8,,ISIC_4541530.JPG
break,html.Screen,4_107_1,2023-10-31T22:05:22.476Z,,0,,,NaN,,,,,,false,,,,5166446.200000048,5166446,,5166445.700000048,,5166458.336,8,400,,,
break_continue,html.Screen,4_107_2,2023-10-31T22:05:22.477Z,,0,,,NaN,,,,,,false,,,,5166446.5,5166446.399999976,,5166446.200000048,,5166458.336,8,400,,,
sequence,flow.Sequence,4_107,2023-10-31T22:05:22.477Z,,0,,,5952.620999976061,completion,,,,,false,,,,5166446.600000024,5166446.399999976,5160477.147,5160485,5160493.779,5166458.336,8,400,,,
trial,html.Screen,4_108_0,2023-10-31T22:05:27.012Z,,0,3,,4523.764000023715,response,ISIC_6406517.JPG,12,ISIC_5127759.JPG,ISIC_6406517.JPG,false,1,keypress(m),500,5170982.200000048,5170982.100000024,5166441.961,5166446.600000024,5166458.336,5170990.059,8,400,9,,ISIC_5127759.JPG
break,html.Screen,4_108_1,2023-10-31T22:05:27.013Z,,0,,,NaN,,,,,,false,,,,5170982.8000000715,5170982.5,,5170982.200000048,,5170990.059,8,400,,,
break_continue,html.Screen,4_108_2,2023-10-31T22:05:27.013Z,,0,,,NaN,,,,,,false,,,,5170983,5170983,,5170982.8000000715,,5170990.059,8,400,,,
sequence,flow.Sequence,4_108,2023-10-31T22:05:27.013Z,,0,,,4524.663999999873,completion,,,,,false,,,,5170983,5170983,5166441.961,5166446.600000024,5166458.336,5170990.059,8,400,,,
trial,html.Screen,4_109_0,2023-10-31T22:05:30.040Z,,0,3,,3019.9409999996424,response,ISIC_0015015.JPG,11,ISIC_3824206.JPG,ISIC_3824206.JPG,false,0,keypress(z),500,5174010.100000024,5174010,5170973.815,5170983.100000024,5170990.059,5174022.747,8,400,10,,ISIC_0015015.JPG
break,html.Screen,4_109_1,2023-10-31T22:05:30.041Z,,0,,,NaN,,,,,,false,,,,5174010.600000024,5174010.399999976,,5174010.200000048,,5174022.747,8,400,,,
break_continue,html.Screen,4_109_2,2023-10-31T22:05:30.041Z,,0,,,NaN,,,,,,false,,,,5174010.899999976,5174010.8000000715,,5174010.8000000715,,5174022.747,8,400,,,
sequence,flow.Sequence,4_109,2023-10-31T22:05:30.041Z,,0,,,3020.741000071168,completion,,,,,false,,,,5174011,5174010.8000000715,5170973.815,5170983.100000024,5170990.059,5174022.747,8,400,,,
trial,html.Screen,4_110_0,2023-10-31T22:05:33.298Z,,0,3,,3245.1529999757186,response,ISIC_2851852.JPG,7,ISIC_1696845.JPG,ISIC_2851852.JPG,false,1,keypress(m),500,5177268,5177267.899999976,5174006.086,5174011.100000024,5174022.747,5177270.98,8,400,11,,ISIC_1696845.JPG
break,html.Screen,4_110_1,2023-10-31T22:05:33.298Z,,0,,,NaN,,,,,,false,,,,5177268.5,5177268.3000000715,,5177268,,5177270.98,8,400,,,
break_continue,html.Screen,4_110_2,2023-10-31T22:05:33.299Z,,0,,,NaN,,,,,,false,,,,5177268.700000048,5177268.600000024,,5177268.5,,5177270.98,8,400,,,
sequence,flow.Sequence,4_110,2023-10-31T22:05:33.299Z,,0,,,3245.8530000234023,completion,,,,,false,,,,5177268.8000000715,5177268.600000024,5174006.086,5174011,5174022.747,5177270.98,8,400,,,
trial,html.Screen,4_111_0,2023-10-31T22:05:36.683Z,,0,3,,3381.419999975711,response,ISIC_2287151.JPG,7,ISIC_5754023.JPG,ISIC_5754023.JPG,false,0,keypress(z),500,5180652.5,5180652.399999976,5177256.363,5177268.8000000715,5177270.98,5180669.901,8,400,12,,ISIC_2287151.JPG
break,html.Screen,4_111_1,2023-10-31T22:05:36.683Z,,0,,,NaN,,,,,,false,,,,5180653.100000024,5180652.899999976,,5180652.600000024,,5180669.901,8,400,,,
break_continue,html.Screen,4_111_2,2023-10-31T22:05:36.683Z,,0,,,NaN,,,,,,false,,,,5180653.399999976,5180653.3000000715,,5180653.200000048,,5180669.901,8,400,,,
sequence,flow.Sequence,4_111,2023-10-31T22:05:36.684Z,,0,,,3382.3200000710785,completion,,,,,false,,,,5180653.5,5180653.3000000715,5177256.363,5177268.8000000715,5177270.98,5180669.901,8,400,,,
trial,html.Screen,4_112_0,2023-10-31T22:05:39.917Z,,0,3,,3216.498999976553,response,ISIC_0000154.JPG,8,ISIC_0029017.JPG,ISIC_0029017.JPG,false,0,keypress(z),500,5183886.5,5183886.399999976,5180636.854,5180653.600000024,5180669.901,5183902.771,8,400,13,,ISIC_0000154.JPG
break,html.Screen,4_112_1,2023-10-31T22:05:39.917Z,,0,,,NaN,,,,,,false,,,,5183887.100000024,5183886.899999976,,5183886.5,,5183902.771,8,400,,,
break_continue,html.Screen,4_112_2,2023-10-31T22:05:39.917Z,,0,,,NaN,,,,,,false,,,,5183887.3000000715,5183887.200000048,,5183887.200000048,,5183902.771,8,400,,,
sequence,flow.Sequence,4_112,2023-10-31T22:05:39.917Z,,0,,,3217.2990000480786,completion,,,,,false,,,,5183887.399999976,5183887.200000048,5180636.854,5180653.5,5180669.901,5183902.771,8,400,,,
trial,html.Screen,4_113_0,2023-10-31T22:05:43.343Z,,0,3,,3410.5290000718087,response,ISIC_0029212.JPG,11,ISIC_0002899.JPG,ISIC_0002899.JPG,false,0,keypress(z),500,5187313.399999976,5187313.3000000715,5183886.093,5183887.399999976,5183902.771,5187317.676,8,400,14,,ISIC_0029212.JPG
break,html.Screen,4_113_1,2023-10-31T22:05:43.344Z,,0,,,NaN,,,,,,false,,,,5187314.200000048,5187313.8000000715,,5187313.5,,5187317.676,8,400,,,
break_continue,html.Screen,4_113_2,2023-10-31T22:05:43.345Z,,0,,,NaN,,,,,,false,,,,5187314.5,5187314.399999976,,5187314.3000000715,,5187317.676,8,400,,,
sequence,flow.Sequence,4_113,2023-10-31T22:05:43.345Z,,0,,,3411.6289999764413,completion,,,,,false,,,,5187314.700000048,5187314.399999976,5183886.093,5183887.399999976,5183902.771,5187317.676,8,400,,,
trial,html.Screen,4_114_0,2023-10-31T22:05:46.659Z,,0,3,,3311.524000047706,response,ISIC_0056089.JPG,10,ISIC_9260499.JPG,ISIC_9260499.JPG,false,0,keypress(z),500,5190629.3000000715,5190629.200000048,5187301.447,5187314.8000000715,5187317.676,5190649.83,8,400,15,,ISIC_0056089.JPG
break,html.Screen,4_114_1,2023-10-31T22:05:46.660Z,,0,,,NaN,,,,,,false,,,,5190629.600000024,5190629.600000024,,5190629.3000000715,,5190649.83,8,400,,,
break_continue,html.Screen,4_114_2,2023-10-31T22:05:46.660Z,,0,,,NaN,,,,,,false,,,,5190629.899999976,5190629.8000000715,,5190629.8000000715,,5190649.83,8,400,,,
sequence,flow.Sequence,4_114,2023-10-31T22:05:46.660Z,,0,,,3312.124000071548,completion,,,,,false,,,,5190629.899999976,5190629.8000000715,5187301.447,5187314.700000048,5187317.676,5190649.83,8,400,,,
trial,html.Screen,4_115_0,2023-10-31T22:05:49.485Z,,0,3,,2805.370000047609,response,ISIC_0011295.JPG,9,ISIC_0032759.JPG,ISIC_0032759.JPG,false,0,keypress(z),500,5193455.3000000715,5193455.200000048,5190633.705,5190630,5190649.83,5193465.887,8,400,16,,ISIC_0011295.JPG
break,html.Screen,4_115_1,2023-10-31T22:05:49.487Z,,0,,,NaN,,,,,,false,,,,5193456.5,5193455.700000048,,5193455.399999976,,5193465.887,8,400,,,
break_continue,html.Screen,4_115_2,2023-10-31T22:05:49.487Z,,0,,,NaN,,,,,,false,,,,5193456.899999976,5193456.8000000715,,5193456.700000048,,5193465.887,8,400,,,
sequence,flow.Sequence,4_115,2023-10-31T22:05:49.487Z,,0,,,2806.970000071451,completion,,,,,false,,,,5193457,5193456.8000000715,5190633.705,5190630,5190649.83,5193465.887,8,400,,,
trial,html.Screen,4_116_0,2023-10-31T22:05:53.384Z,,0,3,,3886.7130000237375,response,ISIC_0015179.JPG,7,ISIC_4354896.JPG,ISIC_4354896.JPG,false,0,keypress(z),500,5197352.700000048,5197352.600000024,5193449.294,5193457.100000024,5193465.887,5197364.405,8,400,17,,ISIC_0015179.JPG
break,html.Screen,4_116_1,2023-10-31T22:05:53.385Z,,0,,,NaN,,,,,,false,,,,5197353.399999976,5197353.100000024,,5197352.8000000715,,5197364.405,8,400,,,
break_continue,html.Screen,4_116_2,2023-10-31T22:05:53.385Z,,0,,,NaN,,,,,,false,,,,5197353.700000048,5197353.600000024,,5197353.5,,5197364.405,8,400,,,
sequence,flow.Sequence,4_116,2023-10-31T22:05:53.385Z,,0,,,3887.7130000237375,completion,,,,,false,,,,5197353.8000000715,5197353.600000024,5193449.294,5193457,5193465.887,5197364.405,8,400,,,
trial,html.Screen,4_117_0,2023-10-31T22:05:56.609Z,,0,3,,3213.195000023581,response,ISIC_0033708.JPG,6,ISIC_4697037.JPG,ISIC_4697037.JPG,false,0,keypress(z),500,5200577.700000048,5200577.600000024,5197348.209,5197353.8000000715,5197364.405,5200597.09,8,400,18,,ISIC_0033708.JPG
break,html.Screen,4_117_1,2023-10-31T22:05:56.610Z,,0,,,NaN,,,,,,false,,,,5200578.200000048,5200578.100000024,,5200577.8000000715,,5200597.09,8,400,,,
break_continue,html.Screen,4_117_2,2023-10-31T22:05:56.610Z,,0,,,NaN,,,,,,false,,,,5200578.5,5200578.3000000715,,5200578.3000000715,,5200597.09,8,400,,,
sequence,flow.Sequence,4_117,2023-10-31T22:05:56.610Z,,0,,,3213.895000071265,completion,,,,,false,,,,5200578.5,5200578.3000000715,5197348.209,5197353.8000000715,5197364.405,5200597.09,8,400,,,
trial,html.Screen,4_118_0,2023-10-31T22:05:59.364Z,,0,3,,2735.410000000149,response,ISIC_0071050.JPG,13,ISIC_0014129.JPG,ISIC_0014129.JPG,false,0,keypress(z),500,5203332.700000048,5203332.5,5200579.85,5200578.5,5200597.09,5203362.458,8,400,19,,ISIC_0071050.JPG
break,html.Screen,4_118_1,2023-10-31T22:05:59.365Z,,0,,,NaN,,,,,,false,,,,5203333.200000048,5203333.100000024,,5203332.899999976,,5203362.458,8,400,,,
break_continue,html.Screen,4_118_2,2023-10-31T22:05:59.365Z,,0,,,NaN,,,,,,false,,,,5203333.399999976,5203333.399999976,,5203333.200000048,,5203362.458,8,400,,,
sequence,flow.Sequence,4_118,2023-10-31T22:05:59.365Z,,0,,,2736.309999976307,completion,,,,,false,,,,5203333.5,5203333.399999976,5200579.85,5200578.5,5200597.09,5203362.458,8,400,,,
trial,html.Screen,4_119_0,2023-10-31T22:06:02.411Z,,0,3,,3016.642000024207,response,ISIC_0013817.JPG,8,ISIC_0072375.JPG,ISIC_0013817.JPG,false,1,keypress(m),500,5206379.200000048,5206379.100000024,5203346.131,5203333.5,5203362.458,5206395.129,8,400,20,,ISIC_0072375.JPG
break,html.Screen,4_119_1,2023-10-31T22:06:02.411Z,,0,,,NaN,,,,,,false,,,,5206379.8000000715,5206379.600000024,,5206379.3000000715,,5206395.129,8,400,,,
break_continue,html.Screen,4_119_2,2023-10-31T22:06:02.412Z,,0,,,NaN,,,,,,false,,,,5206380.100000024,5206380,,5206379.899999976,,5206395.129,8,400,,,
sequence,flow.Sequence,4_119,2023-10-31T22:06:02.412Z,,0,,,3017.542000000365,completion,,,,,false,,,,5206380.100000024,5206380,5203346.131,5203333.5,5203362.458,5206395.129,8,400,,,
trial,html.Screen,4_120_0,2023-10-31T22:06:05.141Z,,0,3,,2713.8710000002757,response,ISIC_7268804.JPG,12,ISIC_0011505.JPG,ISIC_7268804.JPG,false,1,keypress(m),500,5209109.100000024,5209109,5206378.472,5206380.200000048,5206395.129,5209132.918,8,400,21,,ISIC_0011505.JPG
break,html.Screen,4_120_1,2023-10-31T22:06:05.141Z,,0,,,NaN,,,,,,false,,,,5209109.700000048,5209109.5,,5209109.200000048,,5209132.918,8,400,,,
break_continue,html.Screen,4_120_2,2023-10-31T22:06:05.142Z,,0,,,NaN,,,,,,false,,,,5209110,5209109.899999976,,5209109.8000000715,,5209132.918,8,400,,,
sequence,flow.Sequence,4_120,2023-10-31T22:06:05.142Z,,0,,,2714.770999976434,completion,,,,,false,,,,5209110.100000024,5209109.899999976,5206378.472,5206380.200000048,5206395.129,5209132.918,8,400,,,
trial,html.Screen,4_121_0,2023-10-31T22:06:07.806Z,,0,3,,2641.182000024244,response,ISIC_0011757.JPG,11,ISIC_1373468.JPG,ISIC_1373468.JPG,false,0,keypress(z),500,5211774.3000000715,5211774.100000024,5209094.178,5209110.100000024,5209132.918,5211776.009,8,400,22,,ISIC_0011757.JPG
break,html.Screen,4_121_1,2023-10-31T22:06:07.807Z,,0,,,NaN,,,,,,false,,,,5211775,5211774.700000048,,5211774.399999976,,5211776.009,8,400,,,
break_continue,html.Screen,4_121_2,2023-10-31T22:06:07.807Z,,0,,,NaN,,,,,,false,,,,5211775.3000000715,5211775.200000048,,5211775.200000048,,5211776.009,8,400,,,
sequence,flow.Sequence,4_121,2023-10-31T22:06:07.807Z,,0,,,2642.282000048086,completion,,,,,false,,,,5211775.399999976,5211775.200000048,5209094.178,5209110.100000024,5209132.918,5211776.009,8,400,,,
trial,html.Screen,4_122_0,2023-10-31T22:06:10.710Z,,0,3,,2902.0910000242293,response,ISIC_9053988.JPG,11,ISIC_0000186.JPG,ISIC_0000186.JPG,false,0,keypress(z),500,5214678.200000048,5214678.100000024,5211759.887,5211775.5,5211776.009,5214692.281,8,400,23,,ISIC_9053988.JPG
break,html.Screen,4_122_1,2023-10-31T22:06:10.711Z,,0,,,NaN,,,,,,false,,,,5214678.899999976,5214678.600000024,,5214678.399999976,,5214692.281,8,400,,,
break_continue,html.Screen,4_122_2,2023-10-31T22:06:10.711Z,,0,,,NaN,,,,,,false,,,,5214679.200000048,5214679.200000048,,5214679,,5214692.281,8,400,,,
sequence,flow.Sequence,4_122,2023-10-31T22:06:10.711Z,,0,,,2903.191000048071,completion,,,,,false,,,,5214679.3000000715,5214679.200000048,5211759.887,5211775.5,5211776.009,5214692.281,8,400,,,
trial,html.Screen,4_123_0,2023-10-31T22:06:14.687Z,,0,3,,3962.519000071101,response,ISIC_0031356.JPG,10,ISIC_0027325.JPG,ISIC_0031356.JPG,false,1,keypress(m),500,5218655,5218654.8000000715,5214675.537,5214679.399999976,5214692.281,5218657.018,8,400,24,,ISIC_0027325.JPG
break,html.Screen,4_123_1,2023-10-31T22:06:14.687Z,,0,,,NaN,,,,,,false,,,,5218655.600000024,5218655.399999976,,5218655.100000024,,5218657.018,8,400,,,
break_continue,html.Screen,4_123_2,2023-10-31T22:06:14.688Z,,0,,,NaN,,,,,,false,,,,5218656,5218655.899999976,,5218655.700000048,,5218657.018,8,400,,,
sequence,flow.Sequence,4_123,2023-10-31T22:06:14.688Z,,0,,,3963.6189999757335,completion,,,,,false,,,,5218656.600000024,5218655.899999976,5214675.537,5214679.399999976,5214692.281,5218657.018,8,400,,,
trial,html.Screen,4_124_0,2023-10-31T22:06:17.286Z,,0,3,,2596.782000071369,response,ISIC_0026694.JPG,8,ISIC_0025061.JPG,ISIC_0025061.JPG,false,0,keypress(z),500,5221253.899999976,5221253.8000000715,5218640.995,5218656.700000048,5218657.018,5221256.119,8,400,25,,ISIC_0026694.JPG
