sender,sender_type,sender_id,timestamp,meta,,blockNo,condition,duration,ended_on,img_left,img_reveal,img_right,loser,practice,response,response_action,selection_duration,time_commit,time_end,time_render,time_run,time_show,time_switch,total_blocks,total_trials,trialNo,url,winner
informed_consent,html.Screen,0,2023-09-15T01:40:31.634Z,"{""labjs_version"":""20.2.4"",""labjs_build"":{""flavor"":""production"",""commit"":""f5b4a49f956347addd546a832a3327688c2c0fef""},""location"":""https://run.pavlovia.org/MurrayBennett/melanoma-2afc/?participant=67361&platform=sona"",""userAgent"":""Mozilla/5.0 (Windows NT 10.0; Win64; x64) AppleWebKit/537.36 (KHTML, like Gecko) Chrome/116.0.0.0 Safari/537.36"",""platform"":""Win32"",""language"":""en-US"",""locale"":""en-US"",""timeZone"":""America/Chicago"",""timezoneOffset"":300,""screen_width"":1366,""screen_height"":768,""scroll_width"":1366,""scroll_height"":571,""window_innerWidth"":1366,""window_innerHeight"":619,""devicePixelRatio"":1}",,,,3645.525,response,,,,,,consent,click button,,5817.20000000298,5816,2153.633,2148.3000000044703,2170.475,5820.126,,,,"{""participant"":""67361"",""platform"":""sona""}",
Welcome,html.Screen,1,2023-09-15T01:42:03.546Z,,,,asymmetry,91912.57400000298,response,,,,,,continue,click button,,97733.80000000447,97732.70000000298,5803.49,5817.5,5820.126,97749.268,,,,,
trial,html.Screen,2_0_0,2023-09-15T01:42:10.484Z,,0,0,,6922.632000005964,response,ISIC_0069348.JPG,,ISIC_6997061.JPG,ISIC_6997061.JPG,true,0,keypress(z),500,104672,104671.90000000596,97732.721,97734.10000000149,97749.268,104682.229,1,6,1,,ISIC_0069348.JPG
sequence,flow.Sequence,2_0,2023-09-15T01:42:10.484Z,,0,,,6922.632000005964,completion,,,,,true,,,,104672.20000000298,104671.90000000596,97732.721,97734.10000000149,97749.268,104682.229,1,6,,,
trial,html.Screen,2_1_0,2023-09-15T01:42:15.755Z,,0,0,,5260.171000005954,response,ISIC_0057368.JPG,,ISIC_0009529.JPG,ISIC_0009529.JPG,true,0,keypress(z),500,109942.70000000298,109942.40000000596,104665.602,104672.30000000447,104682.229,109948.686,1,6,2,,ISIC_0057368.JPG
sequence,flow.Sequence,2_1,2023-09-15T01:42:15.755Z,,0,,,5260.171000005954,completion,,,,,true,,,,109943,109942.40000000596,104665.602,104672.30000000447,104682.229,109948.686,1,6,,,
trial,html.Screen,2_2_0,2023-09-15T01:42:20.881Z,,0,0,,5119.614000004469,response,ISIC_9758671.JPG,,ISIC_0064954.JPG,ISIC_0064954.JPG,true,0,keypress(z),500,115068.60000000149,115068.30000000447,109932.28,109943.20000000298,109948.686,115081.751,1,6,3,,ISIC_9758671.JPG
sequence,flow.Sequence,2_2,2023-09-15T01:42:20.881Z,,0,,,5119.614000004469,completion,,,,,true,,,,115068.80000000447,115068.30000000447,109932.28,109943.10000000149,109948.686,115081.751,1,6,,,
trial,html.Screen,2_3_0,2023-09-15T01:42:26.456Z,,0,0,,5561.748999999996,response,ISIC_0000080.JPG,,ISIC_0005785.JPG,ISIC_0000080.JPG,true,1,keypress(m),500,120643.80000000447,120643.5,115065.189,115069.10000000149,115081.751,120648.237,1,6,4,,ISIC_0005785.JPG
sequence,flow.Sequence,2_3,2023-09-15T01:42:26.456Z,,0,,,5561.748999999996,completion,,,,,true,,,,120644.20000000298,120643.5,115065.189,115069,115081.751,120648.237,1,6,,,
trial,html.Screen,2_4_0,2023-09-15T01:42:30.221Z,,0,0,,3760.3630000014964,response,ISIC_7944028.JPG,,ISIC_5390060.JPG,ISIC_7944028.JPG,true,1,keypress(m),500,124408.90000000596,124408.60000000149,120631.775,120644.40000000596,120648.237,124414.697,1,6,5,,ISIC_5390060.JPG
sequence,flow.Sequence,2_4,2023-09-15T01:42:30.221Z,,0,,,3760.3630000014964,completion,,,,,true,,,,124409.30000000447,124408.60000000149,120631.775,120644.30000000447,120648.237,124414.697,1,6,,,
trial,html.Screen,2_5_0,2023-09-15T01:42:35.439Z,,0,0,,5212.00300000298,response,ISIC_0794216.JPG,,ISIC_0010188.JPG,ISIC_0794216.JPG,true,1,keypress(m),500,129627,129626.70000000298,124398.203,124409.40000000596,124414.697,129631.092,1,6,6,,ISIC_0010188.JPG
sequence,flow.Sequence,2_5,2023-09-15T01:42:35.440Z,,0,,,5212.00300000298,completion,,,,,true,,,,129627.30000000447,129626.70000000298,124398.203,124409.40000000596,124414.697,129631.092,1,6,,,
loop,flow.Loop,2,2023-09-15T01:42:35.440Z,,,,,31877.432000002984,completion,,,,,true,,,,129627.60000000149,129626.70000000298,97732.721,97734,97749.268,129631.092,1,6,,,
exp_instructions,html.Screen,3,2023-09-15T01:42:47.037Z,,,,,11592.808000005956,response,,,,,,continue,keypress(Space),,141224.6000000015,141223.90000000596,129614.5,129627.60000000149,129631.092,141230.591,,,,,
trial,html.Screen,4_0_0,2023-09-15T01:42:52.775Z,,0,1,,5732.509000001504,response,ISIC_0002349.JPG,4,ISIC_2993517.JPG,ISIC_0002349.JPG,false,1,keypress(m),500,146963.30000000447,146963.1000000015,141213.895,141224.80000000447,141230.591,146980.315,8,400,1,,ISIC_2993517.JPG
break,html.Screen,4_0_1,2023-09-15T01:42:52.777Z,,0,,,NaN,,,,,,false,,,,146964.5,146964.1000000015,,146963.5,,146980.315,8,400,,,
break_continue,html.Screen,4_0_2,2023-09-15T01:42:52.777Z,,0,,,NaN,,,,,,false,,,,146964.80000000447,146964.70000000298,,146964.5,,146980.315,8,400,,,
sequence,flow.Sequence,4_0,2023-09-15T01:42:52.777Z,,0,,,5734.109000002994,completion,,,,,false,,,,146965,146964.70000000298,141213.895,141224.80000000447,141230.591,146980.315,8,400,,,
trial,html.Screen,4_1_0,2023-09-15T01:42:59.550Z,,0,1,,6758.085000005958,response,ISIC_0065746.JPG,5,ISIC_0014860.JPG,ISIC_0014860.JPG,false,0,keypress(z),500,153738.5,153738.40000000596,146963.687,146965.1000000015,146980.315,153746.787,8,400,2,,ISIC_0065746.JPG
break,html.Screen,4_1_1,2023-09-15T01:42:59.551Z,,0,,,NaN,,,,,,false,,,,153739.40000000596,153739.20000000298,,153738.70000000298,,153746.787,8,400,,,
break_continue,html.Screen,4_1_2,2023-09-15T01:42:59.551Z,,0,,,NaN,,,,,,false,,,,153739.80000000447,153739.6000000015,,153739.5,,153746.787,8,400,,,
sequence,flow.Sequence,4_1,2023-09-15T01:42:59.551Z,,0,,,6759.285000001488,completion,,,,,false,,,,153739.90000000596,153739.6000000015,146963.687,146965.1000000015,146980.315,153746.787,8,400,,,
trial,html.Screen,4_2_0,2023-09-15T01:43:07.508Z,,0,1,,7949.113000005949,response,ISIC_1850388.JPG,5,ISIC_1513720.JPG,ISIC_1850388.JPG,false,1,keypress(m),500,161696.1000000015,161695.90000000596,153730.064,153740,153746.787,161713.088,8,400,3,,ISIC_1513720.JPG
break,html.Screen,4_2_1,2023-09-15T01:43:07.508Z,,0,,,NaN,,,,,,false,,,,161697,161696.70000000298,,161696.40000000596,,161713.088,8,400,,,
break_continue,html.Screen,4_2_2,2023-09-15T01:43:07.509Z,,0,,,NaN,,,,,,false,,,,161697.30000000447,161697.20000000298,,161697.1000000015,,161713.088,8,400,,,
sequence,flow.Sequence,4_2,2023-09-15T01:43:07.509Z,,0,,,7950.413000002969,completion,,,,,false,,,,161697.5,161697.20000000298,153730.064,153739.90000000596,153746.787,161713.088,8,400,,,
trial,html.Screen,4_3_0,2023-09-15T01:43:17.291Z,,0,1,,9766.212000004482,response,ISIC_0024423.JPG,4,ISIC_9511832.JPG,ISIC_0024423.JPG,false,1,keypress(m),500,171479.6000000015,171479.30000000447,161696.419,161697.6000000015,161713.088,171496.055,8,400,4,,ISIC_9511832.JPG
break,html.Screen,4_3_1,2023-09-15T01:43:17.292Z,,0,,,NaN,,,,,,false,,,,171480.5,171480.20000000298,,171479.80000000447,,171496.055,8,400,,,
break_continue,html.Screen,4_3_2,2023-09-15T01:43:17.292Z,,0,,,NaN,,,,,,false,,,,171480.90000000596,171480.80000000447,,171480.6000000015,,171496.055,8,400,,,
sequence,flow.Sequence,4_3,2023-09-15T01:43:17.293Z,,0,,,9767.712000004482,completion,,,,,false,,,,171481.1000000015,171480.80000000447,161696.419,161697.5,161713.088,171496.055,8,400,,,
trial,html.Screen,4_4_0,2023-09-15T01:43:24.895Z,,0,1,,7587.245000004477,response,ISIC_0029814.JPG,5,ISIC_0026392.JPG,ISIC_0029814.JPG,false,1,keypress(m),500,179083.5,179083.30000000447,171479.385,171481.20000000298,171496.055,179095.526,8,400,5,,ISIC_0026392.JPG
break,html.Screen,4_4_1,2023-09-15T01:43:24.896Z,,0,,,NaN,,,,,,false,,,,179084.30000000447,179084.1000000015,,179083.70000000298,,179095.526,8,400,,,
break_continue,html.Screen,4_4_2,2023-09-15T01:43:24.896Z,,0,,,NaN,,,,,,false,,,,179084.70000000298,179084.6000000015,,179084.40000000596,,179095.526,8,400,,,
sequence,flow.Sequence,4_4,2023-09-15T01:43:24.896Z,,0,,,7588.545000001497,completion,,,,,false,,,,179084.90000000596,179084.6000000015,171479.385,171481.20000000298,171496.055,179095.526,8,400,,,
trial,html.Screen,4_5_0,2023-09-15T01:43:33.780Z,,0,1,,8873.274000004458,response,ISIC_9134566.JPG,5,ISIC_0374029.JPG,ISIC_0374029.JPG,false,0,keypress(z),500,187968.90000000596,187968.80000000447,179079.051,179085,179095.526,187978.502,8,400,6,,ISIC_9134566.JPG
break,html.Screen,4_5_1,2023-09-15T01:43:33.782Z,,0,,,NaN,,,,,,false,,,,187970,187969.6000000015,,187969.20000000298,,187978.502,8,400,,,
break_continue,html.Screen,4_5_2,2023-09-15T01:43:33.782Z,,0,,,NaN,,,,,,false,,,,187970.40000000596,187970.40000000596,,187970.20000000298,,187978.502,8,400,,,
sequence,flow.Sequence,4_5,2023-09-15T01:43:33.782Z,,0,,,8874.874000005948,completion,,,,,false,,,,187970.6000000015,187970.40000000596,179079.051,179085,179095.526,187978.502,8,400,,,
trial,html.Screen,4_6_0,2023-09-15T01:43:40.222Z,,0,1,,6431.598000001482,response,ISIC_4248013.JPG,5,ISIC_0029998.JPG,ISIC_4248013.JPG,false,1,keypress(m),500,194410.30000000447,194410.1000000015,187961.928,187970.70000000298,187978.502,194428.604,8,400,7,,ISIC_0029998.JPG
break,html.Screen,4_6_1,2023-09-15T01:43:40.223Z,,0,,,NaN,,,,,,false,,,,194411.1000000015,194411,,194410.5,,194428.604,8,400,,,
break_continue,html.Screen,4_6_2,2023-09-15T01:43:40.223Z,,0,,,NaN,,,,,,false,,,,194411.5,194411.40000000596,,194411.30000000447,,194428.604,8,400,,,
sequence,flow.Sequence,4_6,2023-09-15T01:43:40.223Z,,0,,,6432.898000005953,completion,,,,,false,,,,194411.6000000015,194411.40000000596,187961.928,187970.6000000015,187978.502,194428.604,8,400,,,
trial,html.Screen,4_7_0,2023-09-15T01:43:46.529Z,,0,1,,6288.596000002988,response,ISIC_0805941.JPG,4,ISIC_0013634.JPG,ISIC_0013634.JPG,false,0,keypress(z),500,200717.30000000447,200717.20000000298,194395.04,194411.80000000447,194428.604,200727.804,8,400,8,,ISIC_0805941.JPG
break,html.Screen,4_7_1,2023-09-15T01:43:46.529Z,,0,,,NaN,,,,,,false,,,,200717.70000000298,200717.6000000015,,200717.40000000596,,200727.804,8,400,,,
break_continue,html.Screen,4_7_2,2023-09-15T01:43:46.529Z,,0,,,NaN,,,,,,false,,,,200717.80000000447,200717.80000000447,,200717.80000000447,,200727.804,8,400,,,
sequence,flow.Sequence,4_7,2023-09-15T01:43:46.529Z,,0,,,6289.196000004478,completion,,,,,false,,,,200717.90000000596,200717.80000000447,194395.04,194411.70000000298,194428.604,200727.804,8,400,,,
trial,html.Screen,4_8_0,2023-09-15T01:43:51.945Z,,0,1,,5405.695999999996,response,ISIC_0034194.JPG,5,ISIC_0025015.JPG,ISIC_0034194.JPG,false,1,keypress(m),500,206133.70000000298,206133.5,200711.286,200718,200727.804,206144.496,8,400,9,,ISIC_0025015.JPG
break,html.Screen,4_8_1,2023-09-15T01:43:51.946Z,,0,,,NaN,,,,,,false,,,,206134.5,206134.40000000596,,206133.90000000596,,206144.496,8,400,,,
break_continue,html.Screen,4_8_2,2023-09-15T01:43:51.946Z,,0,,,NaN,,,,,,false,,,,206134.90000000596,206134.90000000596,,206134.70000000298,,206144.496,8,400,,,
sequence,flow.Sequence,4_8,2023-09-15T01:43:51.947Z,,0,,,5407.096000005957,completion,,,,,false,,,,206136,206134.90000000596,200711.286,200717.90000000596,200727.804,206144.496,8,400,,,
trial,html.Screen,4_9_0,2023-09-15T01:43:59.726Z,,0,1,,7769.304000004457,response,ISIC_0070974.JPG,5,ISIC_5223280.JPG,ISIC_0070974.JPG,false,1,keypress(m),500,213914,213913.80000000447,206127.807,206136.20000000298,206144.496,213927.242,8,400,10,,ISIC_5223280.JPG
break,html.Screen,4_9_1,2023-09-15T01:43:59.726Z,,0,,,NaN,,,,,,false,,,,213914.90000000596,213914.70000000298,,213914.30000000447,,213927.242,8,400,,,
break_continue,html.Screen,4_9_2,2023-09-15T01:43:59.727Z,,0,,,NaN,,,,,,false,,,,213915.20000000298,213915.1000000015,,213915,,213927.242,8,400,,,
sequence,flow.Sequence,4_9,2023-09-15T01:43:59.727Z,,0,,,7770.604000001476,completion,,,,,false,,,,213915.40000000596,213915.1000000015,206127.807,206136.20000000298,206144.496,213927.242,8,400,,,
trial,html.Screen,4_10_0,2023-09-15T01:44:06.417Z,,0,1,,6677.858000001492,response,ISIC_3471815.JPG,5,ISIC_0010596.JPG,ISIC_3471815.JPG,false,1,keypress(m),500,220605.30000000447,220605.1000000015,213910.596,213915.5,213927.242,220610.24,8,400,11,,ISIC_0010596.JPG
break,html.Screen,4_10_1,2023-09-15T01:44:06.418Z,,0,,,NaN,,,,,,false,,,,220606.1000000015,220605.80000000447,,220605.5,,220610.24,8,400,,,
break_continue,html.Screen,4_10_2,2023-09-15T01:44:06.418Z,,0,,,NaN,,,,,,false,,,,220606.5,220606.30000000447,,220606.20000000298,,220610.24,8,400,,,
sequence,flow.Sequence,4_10,2023-09-15T01:44:06.418Z,,0,,,6679.058000004472,completion,,,,,false,,,,220606.5,220606.30000000447,213910.596,213915.40000000596,213927.242,220610.24,8,400,,,
trial,html.Screen,4_11_0,2023-09-15T01:44:13.897Z,,0,1,,7474.860000001499,response,ISIC_0003150.JPG,5,ISIC_0006983.JPG,ISIC_0006983.JPG,false,0,keypress(z),500,228085.30000000447,228085.1000000015,220593.764,220606.70000000298,220610.24,228093.276,8,400,12,,ISIC_0003150.JPG
break,html.Screen,4_11_1,2023-09-15T01:44:13.898Z,,0,,,NaN,,,,,,false,,,,228086.1000000015,228085.90000000596,,228085.5,,228093.276,8,400,,,
break_continue,html.Screen,4_11_2,2023-09-15T01:44:13.898Z,,0,,,NaN,,,,,,false,,,,228086.5,228086.30000000447,,228086.20000000298,,228093.276,8,400,,,
sequence,flow.Sequence,4_11,2023-09-15T01:44:13.898Z,,0,,,7476.06000000448,completion,,,,,false,,,,228086.6000000015,228086.30000000447,220593.764,220606.6000000015,220610.24,228093.276,8,400,,,
trial,html.Screen,4_12_0,2023-09-15T01:44:19.804Z,,0,1,,5899.3240000014775,response,ISIC_0031843.JPG,4,ISIC_0055048.JPG,ISIC_0055048.JPG,false,0,keypress(z),500,233992.80000000447,233992.6000000015,228076.785,228086.70000000298,228093.276,234009.645,8,400,13,,ISIC_0031843.JPG
break,html.Screen,4_12_1,2023-09-15T01:44:19.805Z,,0,,,NaN,,,,,,false,,,,233993.6000000015,233993.40000000596,,233992.90000000596,,234009.645,8,400,,,
break_continue,html.Screen,4_12_2,2023-09-15T01:44:19.805Z,,0,,,NaN,,,,,,false,,,,233994,233993.80000000447,,233993.70000000298,,234009.645,8,400,,,
sequence,flow.Sequence,4_12,2023-09-15T01:44:19.806Z,,0,,,5900.524000004458,completion,,,,,false,,,,233994,233993.80000000447,228076.785,228086.6000000015,228093.276,234009.645,8,400,,,
trial,html.Screen,4_13_0,2023-09-15T01:44:26.229Z,,0,1,,6407.655000004481,response,ISIC_0026120.JPG,6,ISIC_0057009.JPG,ISIC_0026120.JPG,false,1,keypress(m),500,240417.5,240417.30000000447,233993.077,233994.1000000015,234009.645,240426.049,8,400,14,,ISIC_0057009.JPG
break,html.Screen,4_13_1,2023-09-15T01:44:26.230Z,,0,,,NaN,,,,,,false,,,,240418.30000000447,240418.1000000015,,240417.70000000298,,240426.049,8,400,,,
break_continue,html.Screen,4_13_2,2023-09-15T01:44:26.230Z,,0,,,NaN,,,,,,false,,,,240418.70000000298,240418.6000000015,,240418.40000000596,,240426.049,8,400,,,
sequence,flow.Sequence,4_13,2023-09-15T01:44:26.230Z,,0,,,6408.955000001501,completion,,,,,false,,,,240418.90000000596,240418.6000000015,233993.077,233994.1000000015,234009.645,240426.049,8,400,,,
trial,html.Screen,4_14_0,2023-09-15T01:44:32.317Z,,0,1,,6078.851000005961,response,ISIC_8175453.JPG,5,ISIC_0025812.JPG,ISIC_0025812.JPG,false,0,keypress(z),500,246505.20000000298,246504.90000000596,240409.394,240419,240426.049,246509,8,400,15,,ISIC_8175453.JPG
break,html.Screen,4_14_1,2023-09-15T01:44:32.318Z,,0,,,NaN,,,,,,false,,,,246506.1000000015,246505.90000000596,,246505.40000000596,,246509,8,400,,,
break_continue,html.Screen,4_14_2,2023-09-15T01:44:32.318Z,,0,,,NaN,,,,,,false,,,,246506.40000000596,246506.40000000596,,246506.20000000298,,246509,8,400,,,
sequence,flow.Sequence,4_14,2023-09-15T01:44:32.318Z,,0,,,6080.351000005961,completion,,,,,false,,,,246506.6000000015,246506.40000000596,240409.394,240418.90000000596,240426.049,246509,8,400,,,
trial,html.Screen,4_15_0,2023-09-15T01:44:36.870Z,,0,1,,4549.70000000298,response,ISIC_9241732.JPG,4,ISIC_0034100.JPG,ISIC_9241732.JPG,false,1,keypress(m),500,251058.90000000596,251058.70000000298,246492.599,246506.70000000298,246509,251075.546,8,400,16,,ISIC_0034100.JPG
break,html.Screen,4_15_1,2023-09-15T01:44:36.871Z,,0,,,NaN,,,,,,false,,,,251059.80000000447,251059.6000000015,,251059.20000000298,,251075.546,8,400,,,
break_continue,html.Screen,4_15_2,2023-09-15T01:44:36.872Z,,0,,,NaN,,,,,,false,,,,251060.20000000298,251060.1000000015,,251059.90000000596,,251075.546,8,400,,,
sequence,flow.Sequence,4_15,2023-09-15T01:44:36.872Z,,0,,,4551.10000000149,completion,,,,,false,,,,251060.30000000447,251060.1000000015,246492.599,246506.70000000298,246509,251075.546,8,400,,,
trial,html.Screen,4_16_0,2023-09-15T01:44:43.674Z,,0,1,,6786.654000002978,response,ISIC_0026185.JPG,5,ISIC_6731470.JPG,ISIC_6731470.JPG,false,0,keypress(z),500,257862.40000000596,257862.20000000298,251059.068,251060.5,251075.546,257875.335,8,400,17,,ISIC_0026185.JPG
break,html.Screen,4_16_1,2023-09-15T01:44:43.675Z,,0,,,NaN,,,,,,false,,,,257863.30000000447,257863,,257862.6000000015,,257875.335,8,400,,,
break_continue,html.Screen,4_16_2,2023-09-15T01:44:43.675Z,,0,,,NaN,,,,,,false,,,,257863.70000000298,257863.5,,257863.5,,257875.335,8,400,,,
sequence,flow.Sequence,4_16,2023-09-15T01:44:43.675Z,,0,,,6787.953999999998,completion,,,,,false,,,,257863.90000000596,257863.5,251059.068,251060.5,251075.546,257875.335,8,400,,,
trial,html.Screen,4_17_0,2023-09-15T01:44:47.966Z,,0,1,,4279.165000000008,response,ISIC_9685928.JPG,5,ISIC_0010094.JPG,ISIC_0010094.JPG,false,0,keypress(z),500,262154.80000000447,262154.5,257858.51,257864,257875.335,262158.378,8,400,18,,ISIC_9685928.JPG
break,html.Screen,4_17_1,2023-09-15T01:44:47.967Z,,0,,,NaN,,,,,,false,,,,262155.5,262155.30000000447,,262155,,262158.378,8,400,,,
break_continue,html.Screen,4_17_2,2023-09-15T01:44:47.967Z,,0,,,NaN,,,,,,false,,,,262155.90000000596,262155.80000000447,,262155.6000000015,,262158.378,8,400,,,
sequence,flow.Sequence,4_17,2023-09-15T01:44:47.967Z,,0,,,4280.4650000044785,completion,,,,,false,,,,262156,262155.80000000447,257858.51,257863.90000000596,257875.335,262158.378,8,400,,,
trial,html.Screen,4_18_0,2023-09-15T01:44:51.142Z,,0,1,,3172.222000001464,response,ISIC_8082460.JPG,5,ISIC_3809998.JPG,ISIC_8082460.JPG,false,1,keypress(m),500,265330.90000000596,265330.6000000015,262141.764,262156.1000000015,262158.378,265341.758,8,400,19,,ISIC_3809998.JPG
break,html.Screen,4_18_1,2023-09-15T01:44:51.143Z,,0,,,NaN,,,,,,false,,,,265331.700000003,265331.5,,265331.1000000015,,265341.758,8,400,,,
break_continue,html.Screen,4_18_2,2023-09-15T01:44:51.144Z,,0,,,NaN,,,,,,false,,,,265332,265332,,265331.90000000596,,265341.758,8,400,,,
sequence,flow.Sequence,4_18,2023-09-15T01:44:51.144Z,,0,,,3173.621999999974,completion,,,,,false,,,,265332.200000003,265332,262141.764,262156.1000000015,262158.378,265341.758,8,400,,,
trial,html.Screen,4_19_0,2023-09-15T01:44:54.107Z,,0,1,,2954.142000005988,response,ISIC_1470245.JPG,6,ISIC_7503950.JPG,ISIC_7503950.JPG,false,0,keypress(z),500,268296,268295.90000000596,265324.965,265332.30000000447,265341.758,268308.018,8,400,20,,ISIC_1470245.JPG
break,html.Screen,4_19_1,2023-09-15T01:44:54.108Z,,0,,,NaN,,,,,,false,,,,268296.30000000447,268296.30000000447,,268296.1000000015,,268308.018,8,400,,,
break_continue,html.Screen,4_19_2,2023-09-15T01:44:54.108Z,,0,,,NaN,,,,,,false,,,,268296.5,268296.40000000596,,268296.40000000596,,268308.018,8,400,,,
sequence,flow.Sequence,4_19,2023-09-15T01:44:54.108Z,,0,,,2954.642000005988,completion,,,,,false,,,,268296.5,268296.40000000596,265324.965,265332.30000000447,265341.758,268308.018,8,400,,,
trial,html.Screen,4_20_0,2023-09-15T01:44:58.237Z,,0,1,,4116.982000000018,response,ISIC_0011491.JPG,5,ISIC_4938994.JPG,ISIC_4938994.JPG,false,0,keypress(z),500,272425.200000003,272425,268291.48,268296.6000000015,268308.018,272441.418,8,400,21,,ISIC_0011491.JPG
break,html.Screen,4_20_1,2023-09-15T01:44:58.238Z,,0,,,NaN,,,,,,false,,,,272426.1000000015,272425.90000000596,,272425.40000000596,,272441.418,8,400,,,
break_continue,html.Screen,4_20_2,2023-09-15T01:44:58.238Z,,0,,,NaN,,,,,,false,,,,272426.5,272426.30000000447,,272426.200000003,,272441.418,8,400,,,
sequence,flow.Sequence,4_20,2023-09-15T01:44:58.238Z,,0,,,4118.2820000044885,completion,,,,,false,,,,272426.700000003,272426.30000000447,268291.48,268296.5,268308.018,272441.418,8,400,,,
trial,html.Screen,4_21_0,2023-09-15T01:45:02.304Z,,0,1,,4051.081999999995,response,ISIC_0010322.JPG,5,ISIC_4789784.JPG,ISIC_4789784.JPG,false,0,keypress(z),500,276492.700000003,276492.5,272424.704,272426.80000000447,272441.418,276507.68,8,400,22,,ISIC_0010322.JPG
break,html.Screen,4_21_1,2023-09-15T01:45:02.305Z,,0,,,NaN,,,,,,false,,,,276493.5,276493.30000000447,,276492.90000000596,,276507.68,8,400,,,
break_continue,html.Screen,4_21_2,2023-09-15T01:45:02.305Z,,0,,,NaN,,,,,,false,,,,276493.90000000596,276493.80000000447,,276493.700000003,,276507.68,8,400,,,
sequence,flow.Sequence,4_21,2023-09-15T01:45:02.306Z,,0,,,4052.382000004465,completion,,,,,false,,,,276494,276493.80000000447,272424.704,272426.700000003,272441.418,276507.68,8,400,,,
trial,html.Screen,4_22_0,2023-09-15T01:45:06.408Z,,0,1,,4088.520000002987,response,ISIC_1008609.JPG,4,ISIC_0032476.JPG,ISIC_1008609.JPG,false,1,keypress(m),500,280596.40000000596,280596.200000003,276491.227,276494.1000000015,276507.68,280607.519,8,400,23,,ISIC_0032476.JPG
break,html.Screen,4_22_1,2023-09-15T01:45:06.409Z,,0,,,NaN,,,,,,false,,,,280597.200000003,280597,,280596.6000000015,,280607.519,8,400,,,
break_continue,html.Screen,4_22_2,2023-09-15T01:45:06.409Z,,0,,,NaN,,,,,,false,,,,280597.6000000015,280597.5,,280597.30000000447,,280607.519,8,400,,,
sequence,flow.Sequence,4_22,2023-09-15T01:45:06.409Z,,0,,,4089.820000000007,completion,,,,,false,,,,280597.700000003,280597.5,276491.227,276494.1000000015,276507.68,280607.519,8,400,,,
trial,html.Screen,4_23_0,2023-09-15T01:45:11.387Z,,0,1,,4967.581000001519,response,ISIC_8837880.JPG,5,ISIC_7062293.JPG,ISIC_7062293.JPG,false,0,keypress(z),500,285575.30000000447,285575.1000000015,280590.773,280597.80000000447,280607.519,285590.815,8,400,24,,ISIC_8837880.JPG
break,html.Screen,4_23_1,2023-09-15T01:45:11.388Z,,0,,,NaN,,,,,,false,,,,285576.200000003,285576,,285575.5,,285590.815,8,400,,,
break_continue,html.Screen,4_23_2,2023-09-15T01:45:11.388Z,,0,,,NaN,,,,,,false,,,,285576.5,285576.40000000596,,285576.30000000447,,285590.815,8,400,,,
sequence,flow.Sequence,4_23,2023-09-15T01:45:11.388Z,,0,,,4968.881000005989,completion,,,,,false,,,,285576.700000003,285576.40000000596,280590.773,280597.80000000447,280607.519,285590.815,8,400,,,
trial,html.Screen,4_24_0,2023-09-15T01:45:15.949Z,,0,1,,4546.885000002978,response,ISIC_2860618.JPG,5,ISIC_7428248.JPG,ISIC_7428248.JPG,false,0,keypress(z),500,290137.90000000596,290137.700000003,285574.145,285576.80000000447,285590.815,290140.407,8,400,25,,ISIC_2860618.JPG
break,html.Screen,4_24_1,2023-09-15T01:45:15.950Z,,0,,,NaN,,,,,,false,,,,290138.80000000447,290138.6000000015,,290138.1000000015,,290140.407,8,400,,,
break_continue,html.Screen,4_24_2,2023-09-15T01:45:15.951Z,,0,,,NaN,,,,,,false,,,,290139.200000003,290139.1000000015,,290139,,290140.407,8,400,,,
sequence,flow.Sequence,4_24,2023-09-15T01:45:15.951Z,,0,,,4548.285000001488,completion,,,,,false,,,,290139.40000000596,290139.1000000015,285574.145,285576.80000000447,285590.815,290140.407,8,400,,,
trial,html.Screen,4_25_0,2023-09-15T01:45:21.953Z,,0,1,,6000.793000002974,response,ISIC_9881460.JPG,5,ISIC_6931712.JPG,ISIC_9881460.JPG,false,1,keypress(m),500,296141.40000000596,296141.200000003,290123.739,290139.6000000015,290140.407,296156.995,8,400,26,,ISIC_6931712.JPG
break,html.Screen,4_25_1,2023-09-15T01:45:21.954Z,,0,,,NaN,,,,,,false,,,,296142,296141.80000000447,,296141.5,,296156.995,8,400,,,
break_continue,html.Screen,4_25_2,2023-09-15T01:45:21.954Z,,0,,,NaN,,,,,,false,,,,296142.40000000596,296142.30000000447,,296142.200000003,,296156.995,8,400,,,
sequence,flow.Sequence,4_25,2023-09-15T01:45:21.954Z,,0,,,6001.893000004464,completion,,,,,false,,,,296142.5,296142.30000000447,290123.739,290139.6000000015,290140.407,296156.995,8,400,,,
trial,html.Screen,4_26_0,2023-09-15T01:45:25.526Z,,0,1,,3557.105000001495,response,ISIC_7881017.JPG,4,ISIC_0032873.JPG,ISIC_7881017.JPG,false,1,keypress(m),500,299714.30000000447,299714.1000000015,296140.158,296142.6000000015,296156.995,299723.31,8,400,27,,ISIC_0032873.JPG
break,html.Screen,4_26_1,2023-09-15T01:45:25.527Z,,0,,,NaN,,,,,,false,,,,299715.200000003,299715,,299714.6000000015,,299723.31,8,400,,,
break_continue,html.Screen,4_26_2,2023-09-15T01:45:25.527Z,,0,,,NaN,,,,,,false,,,,299715.6000000015,299715.5,,299715.200000003,,299723.31,8,400,,,
sequence,flow.Sequence,4_26,2023-09-15T01:45:25.527Z,,0,,,3558.5050000000047,completion,,,,,false,,,,299715.6000000015,299715.5,296140.158,296142.6000000015,296156.995,299723.31,8,400,,,
trial,html.Screen,4_27_0,2023-09-15T01:45:37.018Z,,0,1,,11516.17200000002,timeout,ISIC_2843245.JPG,5,ISIC_0028407.JPG,ISIC_0028407.JPG,false,,,500,311207.1000000015,311206.80000000447,299706.663,299715.80000000447,299723.31,311239.482,8,400,28,,ISIC_2843245.JPG
break,html.Screen,4_27_1,2023-09-15T01:45:37.019Z,,0,,,NaN,,,,,,false,,,,311207.700000003,311207.6000000015,,311207.200000003,,311239.482,8,400,,,
break_continue,html.Screen,4_27_2,2023-09-15T01:45:37.020Z,,0,,,NaN,,,,,,false,,,,311208.1000000015,311208,,311207.90000000596,,311239.482,8,400,,,
sequence,flow.Sequence,4_27,2023-09-15T01:45:37.020Z,,0,,,11484.690000000002,completion,,,,,false,,,,311208.30000000447,311208,299706.663,299715.80000000447,299723.31,311239.482,8,400,,,
trial,html.Screen,4_28_0,2023-09-15T01:45:40.835Z,,0,1,,3784.118000001472,response,ISIC_2131707.JPG,5,ISIC_2175855.JPG,ISIC_2131707.JPG,false,1,keypress(m),500,315023.90000000596,315023.6000000015,311222.826,311208.30000000447,311239.482,315039.459,8,400,29,,ISIC_2175855.JPG
break,html.Screen,4_28_1,2023-09-15T01:45:40.836Z,,0,,,NaN,,,,,,false,,,,315024.80000000447,315024.6000000015,,315024.1000000015,,315039.459,8,400,,,
break_continue,html.Screen,4_28_2,2023-09-15T01:45:40.837Z,,0,,,NaN,,,,,,false,,,,315025.200000003,315025.1000000015,,315025,,315039.459,8,400,,,
sequence,flow.Sequence,4_28,2023-09-15T01:45:40.837Z,,0,,,3785.618000001472,completion,,,,,false,,,,315025.30000000447,315025.1000000015,311222.826,311208.30000000447,311239.482,315039.459,8,400,,,
trial,html.Screen,4_29_0,2023-09-15T01:45:43.607Z,,0,1,,2755.941000005987,response,ISIC_0063642.JPG,6,ISIC_1197584.JPG,ISIC_1197584.JPG,false,0,keypress(z),500,317795.6000000015,317795.40000000596,315022.755,315025.40000000596,315039.459,317806.005,8,400,30,,ISIC_0063642.JPG
break,html.Screen,4_29_1,2023-09-15T01:45:43.608Z,,0,,,NaN,,,,,,false,,,,317796.5,317796.30000000447,,317795.80000000447,,317806.005,8,400,,,
break_continue,html.Screen,4_29_2,2023-09-15T01:45:43.608Z,,0,,,NaN,,,,,,false,,,,317797,317796.90000000596,,317796.700000003,,317806.005,8,400,,,
sequence,flow.Sequence,4_29,2023-09-15T01:45:43.609Z,,0,,,2757.441000005987,completion,,,,,false,,,,317797.1000000015,317796.90000000596,315022.755,315025.40000000596,315039.459,317806.005,8,400,,,
trial,html.Screen,4_30_0,2023-09-15T01:45:46.590Z,,0,1,,2972.1950000029756,response,ISIC_6487069.JPG,5,ISIC_9303594.JPG,ISIC_6487069.JPG,false,1,keypress(m),500,320778.40000000596,320778.200000003,317789.325,317797.200000003,317806.005,320789.176,8,400,31,,ISIC_9303594.JPG
break,html.Screen,4_30_1,2023-09-15T01:45:46.591Z,,0,,,NaN,,,,,,false,,,,320779.30000000447,320779,,320778.6000000015,,320789.176,8,400,,,
break_continue,html.Screen,4_30_2,2023-09-15T01:45:46.591Z,,0,,,NaN,,,,,,false,,,,320779.700000003,320779.6000000015,,320779.40000000596,,320789.176,8,400,,,
sequence,flow.Sequence,4_30,2023-09-15T01:45:46.591Z,,0,,,2973.5950000014855,completion,,,,,false,,,,320779.90000000596,320779.6000000015,317789.325,317797.200000003,317806.005,320789.176,8,400,,,
trial,html.Screen,4_31_0,2023-09-15T01:45:50.033Z,,0,1,,3432.224000005983,response,ISIC_5634573.JPG,5,ISIC_0024607.JPG,ISIC_0024607.JPG,false,0,keypress(z),500,324221.6000000015,324221.40000000596,320772.395,320780,320789.176,324255.67,8,400,32,,ISIC_5634573.JPG
break,html.Screen,4_31_1,2023-09-15T01:45:50.034Z,,0,,,NaN,,,,,,false,,,,324222.40000000596,324222.30000000447,,324221.80000000447,,324255.67,8,400,,,
break_continue,html.Screen,4_31_2,2023-09-15T01:45:50.034Z,,0,,,NaN,,,,,,false,,,,324222.80000000447,324222.700000003,,324222.5,,324255.67,8,400,,,
sequence,flow.Sequence,4_31,2023-09-15T01:45:50.034Z,,0,,,3433.5240000030026,completion,,,,,false,,,,324223,324222.700000003,320772.395,320779.90000000596,320789.176,324255.67,8,400,,,
trial,html.Screen,4_32_0,2023-09-15T01:45:53.028Z,,0,1,,2960.3300000000163,response,ISIC_0060629.JPG,5,ISIC_2431690.JPG,ISIC_2431690.JPG,false,0,keypress(z),500,327216.30000000447,327216,324239.03,324223,324255.67,327222.112,8,400,33,,ISIC_0060629.JPG
break,html.Screen,4_32_1,2023-09-15T01:45:53.029Z,,0,,,NaN,,,,,,false,,,,327217,327216.90000000596,,327216.5,,327222.112,8,400,,,
break_continue,html.Screen,4_32_2,2023-09-15T01:45:53.029Z,,0,,,NaN,,,,,,false,,,,327217.40000000596,327217.30000000447,,327217.1000000015,,327222.112,8,400,,,
sequence,flow.Sequence,4_32,2023-09-15T01:45:53.029Z,,0,,,2961.6300000044866,completion,,,,,false,,,,327217.5,327217.30000000447,324239.03,324223,324255.67,327222.112,8,400,,,
trial,html.Screen,4_33_0,2023-09-15T01:45:55.868Z,,0,1,,2833.9880000014673,response,ISIC_0008952.JPG,5,ISIC_0056689.JPG,ISIC_0008952.JPG,false,1,keypress(m),500,330056.30000000447,330056.1000000015,327205.377,327217.700000003,327222.112,330072.094,8,400,34,,ISIC_0056689.JPG
break,html.Screen,4_33_1,2023-09-15T01:45:55.869Z,,0,,,NaN,,,,,,false,,,,330057.200000003,330057,,330056.5,,330072.094,8,400,,,
break_continue,html.Screen,4_33_2,2023-09-15T01:45:55.869Z,,0,,,NaN,,,,,,false,,,,330057.6000000015,330057.5,,330057.30000000447,,330072.094,8,400,,,
sequence,flow.Sequence,4_33,2023-09-15T01:45:55.869Z,,0,,,2835.387999999977,completion,,,,,false,,,,330057.700000003,330057.5,327205.377,327217.6000000015,327222.112,330072.094,8,400,,,
trial,html.Screen,4_34_0,2023-09-15T01:45:59.055Z,,0,1,,3171.1060000029975,response,ISIC_2856521.JPG,5,ISIC_0013969.JPG,ISIC_0013969.JPG,false,0,keypress(z),500,333243.40000000596,333243.200000003,330055.257,330057.80000000447,330072.094,333255.176,8,400,35,,ISIC_2856521.JPG
break,html.Screen,4_34_1,2023-09-15T01:45:59.056Z,,0,,,NaN,,,,,,false,,,,333244.200000003,333244,,333243.6000000015,,333255.176,8,400,,,
break_continue,html.Screen,4_34_2,2023-09-15T01:45:59.056Z,,0,,,NaN,,,,,,false,,,,333244.5,333244.5,,333244.30000000447,,333255.176,8,400,,,
sequence,flow.Sequence,4_34,2023-09-15T01:45:59.056Z,,0,,,3172.4060000000172,completion,,,,,false,,,,333244.700000003,333244.5,330055.257,330057.80000000447,330072.094,333255.176,8,400,,,
trial,html.Screen,4_35_0,2023-09-15T01:46:02.033Z,,0,1,,2966.724000005983,response,ISIC_5377693.JPG,4,ISIC_1154109.JPG,ISIC_1154109.JPG,false,0,keypress(z),500,336222,336221.90000000596,333238.49,333244.80000000447,333255.176,336238.186,8,400,36,,ISIC_5377693.JPG
break,html.Screen,4_35_1,2023-09-15T01:46:02.034Z,,0,,,NaN,,,,,,false,,,,336222.40000000596,336222.200000003,,336222.1000000015,,336238.186,8,400,,,
break_continue,html.Screen,4_35_2,2023-09-15T01:46:02.034Z,,0,,,NaN,,,,,,false,,,,336222.5,336222.5,,336222.40000000596,,336238.186,8,400,,,
sequence,flow.Sequence,4_35,2023-09-15T01:46:02.034Z,,0,,,2967.3240000000224,completion,,,,,false,,,,336222.6000000015,336222.5,333238.49,333244.80000000447,333255.176,336238.186,8,400,,,
trial,html.Screen,4_36_0,2023-09-15T01:46:04.803Z,,0,1,,2752.814000000013,response,ISIC_0014765.JPG,6,ISIC_6793983.JPG,ISIC_0014765.JPG,false,1,keypress(m),500,338991.30000000447,338991,336221.664,336222.6000000015,336238.186,339005.013,8,400,37,,ISIC_6793983.JPG
break,html.Screen,4_36_1,2023-09-15T01:46:04.803Z,,0,,,NaN,,,,,,false,,,,338992.1000000015,338991.80000000447,,338991.5,,339005.013,8,400,,,
break_continue,html.Screen,4_36_2,2023-09-15T01:46:04.804Z,,0,,,NaN,,,,,,false,,,,338992.40000000596,338992.30000000447,,338992.200000003,,339005.013,8,400,,,
sequence,flow.Sequence,4_36,2023-09-15T01:46:04.804Z,,0,,,2754.1140000044834,completion,,,,,false,,,,338992.5,338992.30000000447,336221.664,336222.6000000015,336238.186,339005.013,8,400,,,
trial,html.Screen,4_37_0,2023-09-15T01:46:07.658Z,,0,1,,2840.8870000059833,response,ISIC_0014093.JPG,5,ISIC_2394181.JPG,ISIC_2394181.JPG,false,0,keypress(z),500,341846.200000003,341845.90000000596,338988.349,338992.700000003,339005.013,341854.892,8,400,38,,ISIC_0014093.JPG
break,html.Screen,4_37_1,2023-09-15T01:46:07.658Z,,0,,,NaN,,,,,,false,,,,341847,341846.80000000447,,341846.30000000447,,341854.892,8,400,,,
break_continue,html.Screen,4_37_2,2023-09-15T01:46:07.659Z,,0,,,NaN,,,,,,false,,,,341847.40000000596,341847.200000003,,341847.1000000015,,341854.892,8,400,,,
sequence,flow.Sequence,4_37,2023-09-15T01:46:07.659Z,,0,,,2842.187000003003,completion,,,,,false,,,,341847.5,341847.200000003,338988.349,338992.6000000015,339005.013,341854.892,8,400,,,
trial,html.Screen,4_38_0,2023-09-15T01:46:10.796Z,,0,1,,3130.008000005968,response,ISIC_5583159.JPG,5,ISIC_0014707.JPG,ISIC_5583159.JPG,false,1,keypress(m),500,344985.1000000015,344984.90000000596,341838.215,341847.6000000015,341854.892,344987.829,8,400,39,,ISIC_0014707.JPG
break,html.Screen,4_38_1,2023-09-15T01:46:10.797Z,,0,,,NaN,,,,,,false,,,,344985.90000000596,344985.80000000447,,344985.30000000447,,344987.829,8,400,,,
break_continue,html.Screen,4_38_2,2023-09-15T01:46:10.798Z,,0,,,NaN,,,,,,false,,,,344986.30000000447,344986.1000000015,,344986.1000000015,,344987.829,8,400,,,
sequence,flow.Sequence,4_38,2023-09-15T01:46:10.798Z,,0,,,3131.2080000014976,completion,,,,,false,,,,344986.40000000596,344986.1000000015,341838.215,341847.6000000015,341854.892,344987.829,8,400,,,
trial,html.Screen,4_39_0,2023-09-15T01:46:13.888Z,,0,1,,3088.670999999973,response,ISIC_6228963.JPG,5,ISIC_0034172.JPG,ISIC_0034172.JPG,false,0,keypress(z),500,348076.700000003,348076.5,344971.185,344986.5,344987.829,348087.641,8,400,40,,ISIC_6228963.JPG
break,html.Screen,4_39_1,2023-09-15T01:46:13.889Z,,0,,,NaN,,,,,,false,,,,348077.30000000447,348077.1000000015,,348076.90000000596,,348087.641,8,400,,,
break_continue,html.Screen,4_39_2,2023-09-15T01:46:13.889Z,,0,,,NaN,,,,,,false,,,,348077.5,348077.5,,348077.40000000596,,348087.641,8,400,,,
sequence,flow.Sequence,4_39,2023-09-15T01:46:13.889Z,,0,,,3089.670999999973,completion,,,,,false,,,,348077.6000000015,348077.5,344971.185,344986.5,344987.829,348087.641,8,400,,,
trial,html.Screen,4_40_0,2023-09-15T01:46:17.267Z,,0,1,,3367.559000002977,response,ISIC_0010347.JPG,5,ISIC_0067969.JPG,ISIC_0010347.JPG,false,1,keypress(m),500,351455.40000000596,351455.200000003,348071.249,348077.6000000015,348087.641,351471.101,8,400,41,,ISIC_0067969.JPG
break,html.Screen,4_40_1,2023-09-15T01:46:17.268Z,,0,,,NaN,,,,,,false,,,,351456.30000000447,351456.1000000015,,351455.700000003,,351471.101,8,400,,,
break_continue,html.Screen,4_40_2,2023-09-15T01:46:17.268Z,,0,,,NaN,,,,,,false,,,,351456.700000003,351456.6000000015,,351456.40000000596,,351471.101,8,400,,,
sequence,flow.Sequence,4_40,2023-09-15T01:46:17.268Z,,0,,,3368.959000001487,completion,,,,,false,,,,351456.80000000447,351456.6000000015,348071.249,348077.6000000015,348087.641,351471.101,8,400,,,
trial,html.Screen,4_41_0,2023-09-15T01:46:20.151Z,,0,1,,2868.599000002956,response,ISIC_0026231.JPG,4,ISIC_0028768.JPG,ISIC_0028768.JPG,false,0,keypress(z),500,354339.90000000596,354339.700000003,351454.361,351456.90000000596,351471.101,354354.298,8,400,42,,ISIC_0026231.JPG
break,html.Screen,4_41_1,2023-09-15T01:46:20.152Z,,0,,,NaN,,,,,,false,,,,354340.80000000447,354340.6000000015,,354340.200000003,,354354.298,8,400,,,
break_continue,html.Screen,4_41_2,2023-09-15T01:46:20.153Z,,0,,,NaN,,,,,,false,,,,354341.200000003,354341,,354340.90000000596,,354354.298,8,400,,,
sequence,flow.Sequence,4_41,2023-09-15T01:46:20.153Z,,0,,,2869.898999999976,completion,,,,,false,,,,354341.30000000447,354341,351454.361,351456.90000000596,351471.101,354354.298,8,400,,,
trial,html.Screen,4_42_0,2023-09-15T01:46:23.450Z,,0,1,,3284.5020000044606,response,ISIC_0068627.JPG,5,ISIC_7852890.JPG,ISIC_7852890.JPG,false,0,keypress(z),500,357639,357638.80000000447,354337.634,354341.5,354354.298,357654.016,8,400,43,,ISIC_0068627.JPG
break,html.Screen,4_42_1,2023-09-15T01:46:23.451Z,,0,,,NaN,,,,,,false,,,,357639.80000000447,357639.6000000015,,357639.1000000015,,357654.016,8,400,,,
break_continue,html.Screen,4_42_2,2023-09-15T01:46:23.452Z,,0,,,NaN,,,,,,false,,,,357640.200000003,357640.1000000015,,357639.90000000596,,357654.016,8,400,,,
sequence,flow.Sequence,4_42,2023-09-15T01:46:23.452Z,,0,,,3285.8020000014803,completion,,,,,false,,,,357640.30000000447,357640.1000000015,354337.634,354341.40000000596,354354.298,357654.016,8,400,,,
trial,html.Screen,4_43_0,2023-09-15T01:46:27.491Z,,0,1,,4025.4839999999967,response,ISIC_3124612.JPG,5,ISIC_1952749.JPG,ISIC_1952749.JPG,false,0,keypress(z),500,361679.700000003,361679.5,357637.288,357640.40000000596,357654.016,361687.118,8,400,44,,ISIC_3124612.JPG
break,html.Screen,4_43_1,2023-09-15T01:46:27.492Z,,0,,,NaN,,,,,,false,,,,361680.5,361680.30000000447,,361679.90000000596,,361687.118,8,400,,,
break_continue,html.Screen,4_43_2,2023-09-15T01:46:27.492Z,,0,,,NaN,,,,,,false,,,,361680.90000000596,361680.80000000447,,361680.6000000015,,361687.118,8,400,,,
sequence,flow.Sequence,4_43,2023-09-15T01:46:27.492Z,,0,,,4026.784000004467,completion,,,,,false,,,,361681.1000000015,361680.80000000447,357637.288,357640.40000000596,357654.016,361687.118,8,400,,,
trial,html.Screen,4_44_0,2023-09-15T01:46:30.598Z,,0,1,,3098.9820000014734,response,ISIC_8909957.JPG,5,ISIC_0059390.JPG,ISIC_0059390.JPG,false,0,keypress(z),500,364786.30000000447,364786.1000000015,361670.554,361681.1000000015,361687.118,364803.581,8,400,45,,ISIC_8909957.JPG
break,html.Screen,4_44_1,2023-09-15T01:46:30.599Z,,0,,,NaN,,,,,,false,,,,364787.200000003,364786.90000000596,,364786.5,,364803.581,8,400,,,
break_continue,html.Screen,4_44_2,2023-09-15T01:46:30.599Z,,0,,,NaN,,,,,,false,,,,364787.5,364787.40000000596,,364787.30000000447,,364803.581,8,400,,,
sequence,flow.Sequence,4_44,2023-09-15T01:46:30.599Z,,0,,,3100.2820000059437,completion,,,,,false,,,,364787.6000000015,364787.40000000596,361670.554,361681.1000000015,361687.118,364803.581,8,400,,,
trial,html.Screen,4_45_0,2023-09-15T01:46:35.663Z,,0,1,,5047.819000005955,response,ISIC_0046671.JPG,5,ISIC_8108870.JPG,ISIC_0046671.JPG,false,1,keypress(m),500,369851.6000000015,369851.40000000596,364786.994,364787.700000003,364803.581,369871.28,8,400,46,,ISIC_8108870.JPG
break,html.Screen,4_45_1,2023-09-15T01:46:35.664Z,,0,,,NaN,,,,,,false,,,,369852.6000000015,369852.30000000447,,369851.90000000596,,369871.28,8,400,,,
break_continue,html.Screen,4_45_2,2023-09-15T01:46:35.664Z,,0,,,NaN,,,,,,false,,,,369852.90000000596,369852.80000000447,,369852.6000000015,,369871.28,8,400,,,
sequence,flow.Sequence,4_45,2023-09-15T01:46:35.664Z,,0,,,5049.219000004465,completion,,,,,false,,,,369853,369852.80000000447,364786.994,364787.700000003,364803.581,369871.28,8,400,,,
trial,html.Screen,4_46_0,2023-09-15T01:46:39.269Z,,0,1,,3586.320000001462,response,ISIC_0032987.JPG,5,ISIC_0609067.JPG,ISIC_0609067.JPG,false,0,keypress(z),500,373457.90000000596,373457.6000000015,369836.945,369853.200000003,369871.28,373470.079,8,400,47,,ISIC_0032987.JPG
break,html.Screen,4_46_1,2023-09-15T01:46:39.270Z,,0,,,NaN,,,,,,false,,,,373458.700000003,373458.5,,373458,,373470.079,8,400,,,
break_continue,html.Screen,4_46_2,2023-09-15T01:46:39.270Z,,0,,,NaN,,,,,,false,,,,373459,373459,,373458.80000000447,,373470.079,8,400,,,
sequence,flow.Sequence,4_46,2023-09-15T01:46:39.271Z,,0,,,3587.719999999972,completion,,,,,false,,,,373459.30000000447,373459,369836.945,369853.1000000015,369871.28,373470.079,8,400,,,
trial,html.Screen,4_47_0,2023-09-15T01:46:44.157Z,,0,1,,4875.521000001463,response,ISIC_0026802.JPG,5,ISIC_0014559.JPG,ISIC_0014559.JPG,false,0,keypress(z),500,378345.80000000447,378345.6000000015,373453.122,373459.40000000596,373470.079,378352.968,8,400,48,,ISIC_0026802.JPG
break,html.Screen,4_47_1,2023-09-15T01:46:44.158Z,,0,,,NaN,,,,,,false,,,,378346.6000000015,378346.40000000596,,378346,,378352.968,8,400,,,
break_continue,html.Screen,4_47_2,2023-09-15T01:46:44.158Z,,0,,,NaN,,,,,,false,,,,378347,378346.90000000596,,378346.80000000447,,378352.968,8,400,,,
sequence,flow.Sequence,4_47,2023-09-15T01:46:44.159Z,,0,,,4876.8210000059335,completion,,,,,false,,,,378347.1000000015,378346.90000000596,373453.122,373459.30000000447,373470.079,378352.968,8,400,,,
trial,html.Screen,4_48_0,2023-09-15T01:46:48.245Z,,0,1,,4079.932000005967,response,ISIC_9792592.JPG,5,ISIC_5530598.JPG,ISIC_9792592.JPG,false,1,keypress(m),500,382433.200000003,382432.90000000596,378336.299,378347.1000000015,378352.968,382436.758,8,400,49,,ISIC_5530598.JPG
break,html.Screen,4_48_1,2023-09-15T01:46:48.245Z,,0,,,NaN,,,,,,false,,,,382433.90000000596,382433.700000003,,382433.30000000447,,382436.758,8,400,,,
break_continue,html.Screen,4_48_2,2023-09-15T01:46:48.246Z,,0,,,NaN,,,,,,false,,,,382434.30000000447,382434.200000003,,382434.1000000015,,382436.758,8,400,,,
sequence,flow.Sequence,4_48,2023-09-15T01:46:48.246Z,,0,,,4081.2320000029868,completion,,,,,false,,,,382434.40000000596,382434.200000003,378336.299,378347.1000000015,378352.968,382436.758,8,400,,,
trial,html.Screen,4_49_0,2023-09-15T01:46:52.487Z,,0,1,,4238.842000001518,response,ISIC_2826766.JPG,5,ISIC_0009916.JPG,ISIC_2826766.JPG,false,1,keypress(m),500,386675.90000000596,386675.6000000015,382419.509,382434.6000000015,382436.758,386685.93,8,400,50,,ISIC_0009916.JPG
break,html.Screen,4_49_1,2023-09-15T01:47:02.480Z,,0,,,9999.495999999985,timeout,,,,,false,,,,396669.5,396668.876,386669.322,386676.1000000015,386685.93,396685.426,8,400,,,
break_continue,html.Screen,4_49_2,2023-09-15T01:47:03.590Z,,0,,,1090.1740000015125,response,,,,,false,continue,keypress(Space),,397778.80000000447,397775.6000000015,396668.876,396669.6000000015,396685.426,397785.377,8,400,,,
sequence,flow.Sequence,4_49,2023-09-15T01:47:03.590Z,,0,,,15338.842000001518,completion,,,,,false,,,,397778.90000000596,397775.6000000015,382419.509,382434.5,382436.758,397785.377,8,400,,,
trial,html.Screen,4_50_0,2023-09-15T01:47:09.640Z,,0,2,,6043.523000005982,response,ISIC_8431648.JPG,5,ISIC_0072382.JPG,ISIC_8431648.JPG,false,1,keypress(m),500,403829.1000000015,403828.90000000596,397768.678,397778.90000000596,397785.377,403835.173,8,400,1,,ISIC_0072382.JPG
break,html.Screen,4_50_1,2023-09-15T01:47:09.641Z,,0,,,NaN,,,,,,false,,,,403829.90000000596,403829.700000003,,403829.30000000447,,403835.173,8,400,,,
break_continue,html.Screen,4_50_2,2023-09-15T01:47:09.641Z,,0,,,NaN,,,,,,false,,,,403830.30000000447,403830.200000003,,403830.1000000015,,403835.173,8,400,,,
sequence,flow.Sequence,4_50,2023-09-15T01:47:09.641Z,,0,,,6044.823000003002,completion,,,,,false,,,,403830.40000000596,403830.200000003,397768.678,397778.90000000596,397785.377,403835.173,8,400,,,
trial,html.Screen,4_51_0,2023-09-15T01:47:13.003Z,,0,2,,3356.9270000014803,response,ISIC_9286292.JPG,5,ISIC_5993530.JPG,ISIC_5993530.JPG,false,0,keypress(z),500,407192.30000000447,407192.1000000015,403818.599,403830.6000000015,403835.173,407202.27,8,400,2,,ISIC_9286292.JPG
break,html.Screen,4_51_1,2023-09-15T01:47:13.004Z,,0,,,NaN,,,,,,false,,,,407193.1000000015,407192.90000000596,,407192.5,,407202.27,8,400,,,
break_continue,html.Screen,4_51_2,2023-09-15T01:47:13.004Z,,0,,,NaN,,,,,,false,,,,407193.5,407193.40000000596,,407193.200000003,,407202.27,8,400,,,
sequence,flow.Sequence,4_51,2023-09-15T01:47:13.004Z,,0,,,3358.2270000059507,completion,,,,,false,,,,407193.6000000015,407193.40000000596,403818.599,403830.5,403835.173,407202.27,8,400,,,
trial,html.Screen,4_52_0,2023-09-15T01:47:16.610Z,,0,2,,3596.2299999999814,response,ISIC_0025499.JPG,5,ISIC_0000398.JPG,ISIC_0025499.JPG,false,1,keypress(m),500,410798.700000003,410798.5,407184.974,407193.700000003,407202.27,410801.458,8,400,3,,ISIC_0000398.JPG
break,html.Screen,4_52_1,2023-09-15T01:47:16.610Z,,0,,,NaN,,,,,,false,,,,410799.5,410799.30000000447,,410798.90000000596,,410801.458,8,400,,,
break_continue,html.Screen,4_52_2,2023-09-15T01:47:16.611Z,,0,,,NaN,,,,,,false,,,,410800,410799.80000000447,,410799.700000003,,410801.458,8,400,,,
sequence,flow.Sequence,4_52,2023-09-15T01:47:16.611Z,,0,,,3597.5300000044517,completion,,,,,false,,,,410800.1000000015,410799.80000000447,407184.974,407193.6000000015,407202.27,410801.458,8,400,,,
trial,html.Screen,4_53_0,2023-09-15T01:47:19.285Z,,0,2,,2672.4420000059763,response,ISIC_0010752.JPG,4,ISIC_5122220.JPG,ISIC_5122220.JPG,false,0,keypress(z),500,413474.200000003,413473.90000000596,410784.969,410800.200000003,410801.458,413484.94,8,400,4,,ISIC_0010752.JPG
break,html.Screen,4_53_1,2023-09-15T01:47:19.286Z,,0,,,NaN,,,,,,false,,,,413475.1000000015,413474.90000000596,,413474.5,,413484.94,8,400,,,
break_continue,html.Screen,4_53_2,2023-09-15T01:47:19.286Z,,0,,,NaN,,,,,,false,,,,413475.6000000015,413475.40000000596,,413475.30000000447,,413484.94,8,400,,,
sequence,flow.Sequence,4_53,2023-09-15T01:47:19.286Z,,0,,,2673.9420000059763,completion,,,,,false,,,,413475.700000003,413475.40000000596,410784.969,410800.200000003,410801.458,413484.94,8,400,,,
trial,html.Screen,4_54_0,2023-09-15T01:47:21.965Z,,0,2,,2668.5599999999977,response,ISIC_0061418.JPG,5,ISIC_0222299.JPG,ISIC_0222299.JPG,false,0,keypress(z),500,416153.80000000447,416153.5,413468.255,413475.80000000447,413484.94,416167.959,8,400,5,,ISIC_0061418.JPG
break,html.Screen,4_54_1,2023-09-15T01:47:21.965Z,,0,,,NaN,,,,,,false,,,,416154.6000000015,416154.40000000596,,416154,,416167.959,8,400,,,
break_continue,html.Screen,4_54_2,2023-09-15T01:47:21.966Z,,0,,,NaN,,,,,,false,,,,416154.90000000596,416154.80000000447,,416154.700000003,,416167.959,8,400,,,
sequence,flow.Sequence,4_54,2023-09-15T01:47:21.966Z,,0,,,2669.860000004468,completion,,,,,false,,,,416155,416154.80000000447,413468.255,413475.80000000447,413484.94,416167.959,8,400,,,
trial,html.Screen,4_55_0,2023-09-15T01:47:25.030Z,,0,2,,3050.841000004497,response,ISIC_0062463.JPG,5,ISIC_0012047.JPG,ISIC_0062463.JPG,false,1,keypress(m),500,419219,419218.80000000447,416151.383,416155.1000000015,416167.959,419234.396,8,400,6,,ISIC_0012047.JPG
break,html.Screen,4_55_1,2023-09-15T01:47:25.031Z,,0,,,NaN,,,,,,false,,,,419219.80000000447,419219.6000000015,,419219.30000000447,,419234.396,8,400,,,
break_continue,html.Screen,4_55_2,2023-09-15T01:47:25.031Z,,0,,,NaN,,,,,,false,,,,419220.200000003,419220.1000000015,,419220,,419234.396,8,400,,,
sequence,flow.Sequence,4_55,2023-09-15T01:47:25.031Z,,0,,,3052.1410000015167,completion,,,,,false,,,,419220.40000000596,419220.1000000015,416151.383,416155.1000000015,416167.959,419234.396,8,400,,,
trial,html.Screen,4_56_0,2023-09-15T01:47:28.681Z,,0,2,,3635.603999999992,response,ISIC_4786412.JPG,5,ISIC_0034187.JPG,ISIC_0034187.JPG,false,0,keypress(z),500,422870.200000003,422870,419217.984,419220.5,419234.396,422884.372,8,400,7,,ISIC_4786412.JPG
break,html.Screen,4_56_1,2023-09-15T01:47:28.682Z,,0,,,NaN,,,,,,false,,,,422871.1000000015,422870.80000000447,,422870.40000000596,,422884.372,8,400,,,
break_continue,html.Screen,4_56_2,2023-09-15T01:47:28.682Z,,0,,,NaN,,,,,,false,,,,422871.40000000596,422871.30000000447,,422871.1000000015,,422884.372,8,400,,,
sequence,flow.Sequence,4_56,2023-09-15T01:47:28.682Z,,0,,,3636.9040000044624,completion,,,,,false,,,,422871.6000000015,422871.30000000447,419217.984,419220.5,419234.396,422884.372,8,400,,,
trial,html.Screen,4_57_0,2023-09-15T01:47:32.128Z,,0,2,,3432.4280000044964,response,ISIC_0024529.JPG,5,ISIC_0010817.JPG,ISIC_0010817.JPG,false,0,keypress(z),500,426317,426316.80000000447,422867.806,422871.700000003,422884.372,426334.132,8,400,8,,ISIC_0024529.JPG
break,html.Screen,4_57_1,2023-09-15T01:47:32.129Z,,0,,,NaN,,,,,,false,,,,426317.90000000596,426317.6000000015,,426317.200000003,,426334.132,8,400,,,
break_continue,html.Screen,4_57_2,2023-09-15T01:47:32.129Z,,0,,,NaN,,,,,,false,,,,426318.200000003,426318.1000000015,,426318,,426334.132,8,400,,,
sequence,flow.Sequence,4_57,2023-09-15T01:47:32.129Z,,0,,,3433.728000001516,completion,,,,,false,,,,426318.30000000447,426318.1000000015,422867.806,422871.6000000015,422884.372,426334.132,8,400,,,
trial,html.Screen,4_58_0,2023-09-15T01:47:35.078Z,,0,2,,2932.7680000059772,response,ISIC_2364150.JPG,4,ISIC_0000462.JPG,ISIC_0000462.JPG,false,0,keypress(z),500,429267.1000000015,429266.90000000596,426317.654,426318.40000000596,426334.132,429284.181,8,400,9,,ISIC_2364150.JPG
break,html.Screen,4_58_1,2023-09-15T01:47:35.079Z,,0,,,NaN,,,,,,false,,,,429268,429267.80000000447,,429267.40000000596,,429284.181,8,400,,,
break_continue,html.Screen,4_58_2,2023-09-15T01:47:35.079Z,,0,,,NaN,,,,,,false,,,,429268.40000000596,429268.30000000447,,429268.200000003,,429284.181,8,400,,,
sequence,flow.Sequence,4_58,2023-09-15T01:47:35.079Z,,0,,,2934.168000004487,completion,,,,,false,,,,429268.6000000015,429268.30000000447,426317.654,426318.40000000596,426334.132,429284.181,8,400,,,
trial,html.Screen,4_59_0,2023-09-15T01:47:39.146Z,,0,2,,4051.3190000000177,response,ISIC_8010862.JPG,5,ISIC_0011092.JPG,ISIC_8010862.JPG,false,1,keypress(m),500,433335.700000003,433335.5,429267.531,429268.6000000015,429284.181,433350.596,8,400,10,,ISIC_0011092.JPG
break,html.Screen,4_59_1,2023-09-15T01:47:39.147Z,,0,,,NaN,,,,,,false,,,,433336.40000000596,433336.30000000447,,433335.80000000447,,433350.596,8,400,,,
break_continue,html.Screen,4_59_2,2023-09-15T01:47:39.148Z,,0,,,NaN,,,,,,false,,,,433336.80000000447,433336.700000003,,433336.5,,433350.596,8,400,,,
sequence,flow.Sequence,4_59,2023-09-15T01:47:39.148Z,,0,,,4052.519000002998,completion,,,,,false,,,,433336.90000000596,433336.700000003,429267.531,429268.6000000015,429284.181,433350.596,8,400,,,
trial,html.Screen,4_60_0,2023-09-15T01:47:42.082Z,,0,2,,2920.0040000014706,response,ISIC_4964478.JPG,5,ISIC_4226395.JPG,ISIC_4226395.JPG,false,0,keypress(z),500,436270.90000000596,436270.6000000015,433333.859,433337.1000000015,433350.596,436300.559,8,400,11,,ISIC_4964478.JPG
break,html.Screen,4_60_1,2023-09-15T01:47:42.082Z,,0,,,NaN,,,,,,false,,,,436271.700000003,436271.40000000596,,436271.1000000015,,436300.559,8,400,,,
break_continue,html.Screen,4_60_2,2023-09-15T01:47:42.083Z,,0,,,NaN,,,,,,false,,,,436272,436271.90000000596,,436271.700000003,,436300.559,8,400,,,
sequence,flow.Sequence,4_60,2023-09-15T01:47:42.083Z,,0,,,2921.304000005941,completion,,,,,false,,,,436272.1000000015,436271.90000000596,433333.859,433337.1000000015,433350.596,436300.559,8,400,,,
trial,html.Screen,4_61_0,2023-09-15T01:47:46.965Z,,0,2,,4853.440999999992,response,ISIC_0000569.JPG,5,ISIC_8159779.JPG,ISIC_8159779.JPG,false,0,keypress(z),500,441154.30000000447,441154,436283.804,436272.30000000447,436300.559,441166.87,8,400,12,,ISIC_0000569.JPG
break,html.Screen,4_61_1,2023-09-15T01:47:46.966Z,,0,,,NaN,,,,,,false,,,,441155.1000000015,441154.90000000596,,441154.5,,441166.87,8,400,,,
break_continue,html.Screen,4_61_2,2023-09-15T01:47:46.966Z,,0,,,NaN,,,,,,false,,,,441155.5,441155.40000000596,,441155.200000003,,441166.87,8,400,,,
sequence,flow.Sequence,4_61,2023-09-15T01:47:46.966Z,,0,,,4854.841000005952,completion,,,,,false,,,,441155.700000003,441155.40000000596,436283.804,436272.200000003,436300.559,441166.87,8,400,,,
trial,html.Screen,4_62_0,2023-09-15T01:47:50.077Z,,0,2,,3098.930000004475,response,ISIC_0069204.JPG,5,ISIC_4620053.JPG,ISIC_0069204.JPG,false,1,keypress(m),500,444266,444265.80000000447,441150.211,441155.80000000447,441166.87,444300.162,8,400,13,,ISIC_4620053.JPG
break,html.Screen,4_62_1,2023-09-15T01:47:50.078Z,,0,,,NaN,,,,,,false,,,,444266.90000000596,444266.700000003,,444266.30000000447,,444300.162,8,400,,,
break_continue,html.Screen,4_62_2,2023-09-15T01:47:50.078Z,,0,,,NaN,,,,,,false,,,,444267.40000000596,444267.200000003,,444267,,444300.162,8,400,,,
sequence,flow.Sequence,4_62,2023-09-15T01:47:50.078Z,,0,,,3100.330000002985,completion,,,,,false,,,,444267.5,444267.200000003,441150.211,441155.700000003,441166.87,444300.162,8,400,,,
trial,html.Screen,4_63_0,2023-09-15T01:47:53.539Z,,0,2,,3427.938000001479,response,ISIC_7025208.JPG,5,ISIC_9322551.JPG,ISIC_7025208.JPG,false,1,keypress(m),500,447728.40000000596,447728.1000000015,444283.341,444267.6000000015,444300.162,447733.181,8,400,14,,ISIC_9322551.JPG
break,html.Screen,4_63_1,2023-09-15T01:47:53.540Z,,0,,,NaN,,,,,,false,,,,447729.1000000015,447728.90000000596,,447728.5,,447733.181,8,400,,,
break_continue,html.Screen,4_63_2,2023-09-15T01:47:53.540Z,,0,,,NaN,,,,,,false,,,,447729.40000000596,447729.40000000596,,447729.200000003,,447733.181,8,400,,,
sequence,flow.Sequence,4_63,2023-09-15T01:47:53.540Z,,0,,,3429.2380000059493,completion,,,,,false,,,,447729.6000000015,447729.40000000596,444283.341,444267.5,444300.162,447733.181,8,400,,,
trial,html.Screen,4_64_0,2023-09-15T01:47:58.475Z,,0,2,,4930.119000004488,response,ISIC_1343433.JPG,5,ISIC_0030749.JPG,ISIC_1343433.JPG,false,1,keypress(m),500,452663.5,452663.30000000447,447716.584,447729.700000003,447733.181,452666.188,8,400,15,,ISIC_0030749.JPG
break,html.Screen,4_64_1,2023-09-15T01:47:58.476Z,,0,,,NaN,,,,,,false,,,,452664.30000000447,452664.1000000015,,452663.700000003,,452666.188,8,400,,,
break_continue,html.Screen,4_64_2,2023-09-15T01:47:58.476Z,,0,,,NaN,,,,,,false,,,,452664.700000003,452664.6000000015,,452664.40000000596,,452666.188,8,400,,,
sequence,flow.Sequence,4_64,2023-09-15T01:47:58.476Z,,0,,,4931.419000001508,completion,,,,,false,,,,452664.80000000447,452664.6000000015,447716.584,447729.6000000015,447733.181,452666.188,8,400,,,
trial,html.Screen,4_65_0,2023-09-15T01:48:01.950Z,,0,2,,3472.2120000059367,response,ISIC_0033485.JPG,5,ISIC_1522266.JPG,ISIC_1522266.JPG,false,0,keypress(z),500,456138.700000003,456138.40000000596,452649.523,452664.90000000596,452666.188,456149.607,8,400,16,,ISIC_0033485.JPG
break,html.Screen,4_65_1,2023-09-15T01:48:01.951Z,,0,,,NaN,,,,,,false,,,,456139.40000000596,456139.200000003,,456138.80000000447,,456149.607,8,400,,,
break_continue,html.Screen,4_65_2,2023-09-15T01:48:01.951Z,,0,,,NaN,,,,,,false,,,,456139.80000000447,456139.700000003,,456139.5,,456149.607,8,400,,,
sequence,flow.Sequence,4_65,2023-09-15T01:48:01.951Z,,0,,,3473.5120000029565,completion,,,,,false,,,,456139.90000000596,456139.700000003,452649.523,452664.90000000596,452666.188,456149.607,8,400,,,
trial,html.Screen,4_66_0,2023-09-15T01:48:05.633Z,,0,2,,3671.993000001472,response,ISIC_3736075.JPG,5,ISIC_8773478.JPG,ISIC_8773478.JPG,false,0,keypress(z),500,459821.80000000447,459821.6000000015,456132.635,456140,456149.607,459832.55,8,400,17,,ISIC_3736075.JPG
break,html.Screen,4_66_1,2023-09-15T01:48:05.634Z,,0,,,NaN,,,,,,false,,,,459822.700000003,459822.40000000596,,459822,,459832.55,8,400,,,
break_continue,html.Screen,4_66_2,2023-09-15T01:48:05.635Z,,0,,,NaN,,,,,,false,,,,459823.1000000015,459823,,459822.80000000447,,459832.55,8,400,,,
sequence,flow.Sequence,4_66,2023-09-15T01:48:05.635Z,,0,,,3673.392999999982,completion,,,,,false,,,,459823.30000000447,459823,456132.635,456140,456149.607,459832.55,8,400,,,
trial,html.Screen,4_67_0,2023-09-15T01:48:09.157Z,,0,2,,3512.650000002992,response,ISIC_4468129.JPG,6,ISIC_2214766.JPG,ISIC_2214766.JPG,false,0,keypress(z),500,463345.30000000447,463345.200000003,459815.922,459823.40000000596,459832.55,463349.071,8,400,18,,ISIC_4468129.JPG
break,html.Screen,4_67_1,2023-09-15T01:48:09.158Z,,0,,,NaN,,,,,,false,,,,463346.1000000015,463345.90000000596,,463345.6000000015,,463349.071,8,400,,,
break_continue,html.Screen,4_67_2,2023-09-15T01:48:09.158Z,,0,,,NaN,,,,,,false,,,,463346.40000000596,463346.40000000596,,463346.200000003,,463349.071,8,400,,,
sequence,flow.Sequence,4_67,2023-09-15T01:48:09.158Z,,0,,,3513.850000005972,completion,,,,,false,,,,463346.6000000015,463346.40000000596,459815.922,459823.30000000447,459832.55,463349.071,8,400,,,
trial,html.Screen,4_68_0,2023-09-15T01:48:13.831Z,,0,2,,4670.529000001494,response,ISIC_0027620.JPG,4,ISIC_0010433.JPG,ISIC_0010433.JPG,false,0,keypress(z),500,468019.80000000447,468019.6000000015,463332.498,463346.700000003,463349.071,468032.4,8,400,19,,ISIC_0027620.JPG
break,html.Screen,4_68_1,2023-09-15T01:48:13.832Z,,0,,,NaN,,,,,,false,,,,468020.80000000447,468020.6000000015,,468020.1000000015,,468032.4,8,400,,,
break_continue,html.Screen,4_68_2,2023-09-15T01:48:13.833Z,,0,,,NaN,,,,,,false,,,,468021.200000003,468021,,468020.90000000596,,468032.4,8,400,,,
sequence,flow.Sequence,4_68,2023-09-15T01:48:13.833Z,,0,,,4671.929000000004,completion,,,,,false,,,,468021.30000000447,468021,463332.498,463346.700000003,463349.071,468032.4,8,400,,,
trial,html.Screen,4_69_0,2023-09-15T01:48:17.451Z,,0,2,,3606.900000004447,response,ISIC_2940684.JPG,5,ISIC_8711854.JPG,ISIC_8711854.JPG,false,0,keypress(z),500,471639.6000000015,471639.30000000447,468015.727,468021.40000000596,468032.4,471648.685,8,400,20,,ISIC_2940684.JPG
break,html.Screen,4_69_1,2023-09-15T01:48:17.452Z,,0,,,NaN,,,,,,false,,,,471640.40000000596,471640.200000003,,471639.80000000447,,471648.685,8,400,,,
break_continue,html.Screen,4_69_2,2023-09-15T01:48:17.452Z,,0,,,NaN,,,,,,false,,,,471640.80000000447,471640.700000003,,471640.5,,471648.685,8,400,,,
sequence,flow.Sequence,4_69,2023-09-15T01:48:17.452Z,,0,,,3608.300000002957,completion,,,,,false,,,,471640.90000000596,471640.700000003,468015.727,468021.40000000596,468032.4,471648.685,8,400,,,
trial,html.Screen,4_70_0,2023-09-15T01:48:20.996Z,,0,2,,3535.6150000044727,response,ISIC_0034000.JPG,5,ISIC_2075546.JPG,ISIC_2075546.JPG,false,0,keypress(z),500,475184.5,475184.30000000447,471632.226,471641.1000000015,471648.685,475198.569,8,400,21,,ISIC_0034000.JPG
break,html.Screen,4_70_1,2023-09-15T01:48:20.997Z,,0,,,NaN,,,,,,false,,,,475185.30000000447,475185.1000000015,,475184.700000003,,475198.569,8,400,,,
break_continue,html.Screen,4_70_2,2023-09-15T01:48:20.997Z,,0,,,NaN,,,,,,false,,,,475185.700000003,475185.6000000015,,475185.40000000596,,475198.569,8,400,,,
sequence,flow.Sequence,4_70,2023-09-15T01:48:20.997Z,,0,,,3536.9150000014924,completion,,,,,false,,,,475185.80000000447,475185.6000000015,471632.226,471641,471648.685,475198.569,8,400,,,
trial,html.Screen,4_71_0,2023-09-15T01:48:24.183Z,,0,2,,3173.1310000029625,response,ISIC_3506204.JPG,5,ISIC_1611503.JPG,ISIC_1611503.JPG,false,0,keypress(z),500,478372,478371.700000003,475181.864,475185.90000000596,475198.569,478381.952,8,400,22,,ISIC_3506204.JPG
break,html.Screen,4_71_1,2023-09-15T01:48:24.184Z,,0,,,NaN,,,,,,false,,,,478372.80000000447,478372.6000000015,,478372.200000003,,478381.952,8,400,,,
break_continue,html.Screen,4_71_2,2023-09-15T01:48:24.185Z,,0,,,NaN,,,,,,false,,,,478373.200000003,478373.1000000015,,478372.90000000596,,478381.952,8,400,,,
sequence,flow.Sequence,4_71,2023-09-15T01:48:24.185Z,,0,,,3174.5310000014724,completion,,,,,false,,,,478373.30000000447,478373.1000000015,475181.864,475185.90000000596,475198.569,478381.952,8,400,,,
trial,html.Screen,4_72_0,2023-09-15T01:48:27.019Z,,0,2,,2825.6480000015,response,ISIC_0066671.JPG,5,ISIC_0057518.JPG,ISIC_0066671.JPG,false,1,keypress(m),500,481207.700000003,481207.6000000015,478365.233,478373.40000000596,478381.952,481214.877,8,400,23,,ISIC_0057518.JPG
break,html.Screen,4_72_1,2023-09-15T01:48:27.020Z,,0,,,NaN,,,,,,false,,,,481208.6000000015,481208.30000000447,,481208,,481214.877,8,400,,,
break_continue,html.Screen,4_72_2,2023-09-15T01:48:27.020Z,,0,,,NaN,,,,,,false,,,,481209,481208.80000000447,,481208.700000003,,481214.877,8,400,,,
sequence,flow.Sequence,4_72,2023-09-15T01:48:27.021Z,,0,,,2826.84800000448,completion,,,,,false,,,,481209.1000000015,481208.80000000447,478365.233,478373.30000000447,478381.952,481214.877,8,400,,,
trial,html.Screen,4_73_0,2023-09-15T01:48:30.302Z,,0,2,,3275.6230000000214,response,ISIC_0032875.JPG,5,ISIC_0655635.JPG,ISIC_0655635.JPG,false,0,keypress(z),500,484490.6000000015,484490.5,481198.461,481209.200000003,481214.877,484497.994,8,400,24,,ISIC_0032875.JPG
break,html.Screen,4_73_1,2023-09-15T01:48:30.302Z,,0,,,NaN,,,,,,false,,,,484491.1000000015,484491,,484490.700000003,,484497.994,8,400,,,
break_continue,html.Screen,4_73_2,2023-09-15T01:48:30.303Z,,0,,,NaN,,,,,,false,,,,484491.30000000447,484491.200000003,,484491.1000000015,,484497.994,8,400,,,
sequence,flow.Sequence,4_73,2023-09-15T01:48:30.303Z,,0,,,3276.3230000030017,completion,,,,,false,,,,484491.30000000447,484491.200000003,481198.461,481209.200000003,481214.877,484497.994,8,400,,,
trial,html.Screen,4_74_0,2023-09-15T01:48:33.057Z,,0,2,,2747.3060000044643,response,ISIC_0065525.JPG,4,ISIC_0592973.JPG,ISIC_0592973.JPG,false,0,keypress(z),500,487245.30000000447,487245.30000000447,484481.595,484491.30000000447,484497.994,487247.891,8,400,25,,ISIC_0065525.JPG
break,html.Screen,4_74_1,2023-09-15T01:48:33.057Z,,0,,,NaN,,,,,,false,,,,487245.700000003,487245.700000003,,487245.40000000596,,487247.891,8,400,,,
break_continue,html.Screen,4_74_2,2023-09-15T01:48:33.057Z,,0,,,NaN,,,,,,false,,,,487245.90000000596,487245.80000000447,,487245.700000003,,487247.891,8,400,,,
sequence,flow.Sequence,4_74,2023-09-15T01:48:33.057Z,,0,,,2747.8060000044643,completion,,,,,false,,,,487246,487245.80000000447,484481.595,484491.30000000447,484497.994,487247.891,8,400,,,
trial,html.Screen,4_75_0,2023-09-15T01:48:35.939Z,,0,2,,2879.309000002977,response,ISIC_5971574.JPG,4,ISIC_0033329.JPG,ISIC_0033329.JPG,false,0,keypress(z),500,490127.40000000596,490127.200000003,487231.301,487246,487247.891,490131.376,8,400,26,,ISIC_5971574.JPG
break,html.Screen,4_75_1,2023-09-15T01:48:35.940Z,,0,,,NaN,,,,,,false,,,,490128.30000000447,490128.1000000015,,490127.6000000015,,490131.376,8,400,,,
break_continue,html.Screen,4_75_2,2023-09-15T01:48:35.940Z,,0,,,NaN,,,,,,false,,,,490128.700000003,490128.6000000015,,490128.5,,490131.376,8,400,,,
sequence,flow.Sequence,4_75,2023-09-15T01:48:35.940Z,,0,,,2880.709000001487,completion,,,,,false,,,,490128.80000000447,490128.6000000015,487231.301,487246,487247.891,490131.376,8,400,,,
trial,html.Screen,4_76_0,2023-09-15T01:48:38.908Z,,0,2,,2964.6240000000107,response,ISIC_0058224.JPG,5,ISIC_0072418.JPG,ISIC_0072418.JPG,false,0,keypress(z),500,493096.1000000015,493096,490114.587,490128.90000000596,490131.376,493115.378,8,400,27,,ISIC_0058224.JPG
break,html.Screen,4_76_1,2023-09-15T01:48:38.908Z,,0,,,NaN,,,,,,false,,,,493096.90000000596,493096.80000000447,,493096.30000000447,,493115.378,8,400,,,
break_continue,html.Screen,4_76_2,2023-09-15T01:48:38.909Z,,0,,,NaN,,,,,,false,,,,493097.30000000447,493097.200000003,,493097,,493115.378,8,400,,,
sequence,flow.Sequence,4_76,2023-09-15T01:48:38.909Z,,0,,,2965.824000002991,completion,,,,,false,,,,493097.40000000596,493097.200000003,490114.587,490128.90000000596,490131.376,493115.378,8,400,,,
trial,html.Screen,4_77_0,2023-09-15T01:48:41.777Z,,0,2,,2849.822000002954,response,ISIC_4568084.JPG,5,ISIC_5457229.JPG,ISIC_5457229.JPG,false,0,keypress(z),500,495965.40000000596,495965.200000003,493081.018,493097.40000000596,493115.378,495981.114,8,400,28,,ISIC_4568084.JPG
break,html.Screen,4_77_1,2023-09-15T01:48:41.778Z,,0,,,NaN,,,,,,false,,,,495966.200000003,495966,,495965.700000003,,495981.114,8,400,,,
break_continue,html.Screen,4_77_2,2023-09-15T01:48:41.778Z,,0,,,NaN,,,,,,false,,,,495966.6000000015,495966.5,,495966.30000000447,,495981.114,8,400,,,
sequence,flow.Sequence,4_77,2023-09-15T01:48:41.778Z,,0,,,2851.121999999974,completion,,,,,false,,,,495966.90000000596,495966.5,493081.018,493097.40000000596,493115.378,495981.114,8,400,,,
trial,html.Screen,4_78_0,2023-09-15T01:48:45.067Z,,0,2,,3273.9860000014887,response,ISIC_7503950.JPG,4,ISIC_0024631.JPG,ISIC_7503950.JPG,false,1,keypress(m),500,499255.30000000447,499255.1000000015,495964.282,495967,495981.114,499264.268,8,400,29,,ISIC_0024631.JPG
break,html.Screen,4_78_1,2023-09-15T01:48:45.068Z,,0,,,NaN,,,,,,false,,,,499256.200000003,499256,,499255.5,,499264.268,8,400,,,
break_continue,html.Screen,4_78_2,2023-09-15T01:48:45.068Z,,0,,,NaN,,,,,,false,,,,499256.6000000015,499256.5,,499256.30000000447,,499264.268,8,400,,,
sequence,flow.Sequence,4_78,2023-09-15T01:48:45.068Z,,0,,,3275.3859999999986,completion,,,,,false,,,,499256.700000003,499256.5,495964.282,495967,495981.114,499264.268,8,400,,,
trial,html.Screen,4_79_0,2023-09-15T01:48:48.421Z,,0,2,,3344.8320000015083,response,ISIC_0054670.JPG,4,ISIC_0026402.JPG,ISIC_0026402.JPG,false,0,keypress(z),500,502609.30000000447,502609.1000000015,499247.515,499256.80000000447,499264.268,502613.84,8,400,30,,ISIC_0054670.JPG
break,html.Screen,4_79_1,2023-09-15T01:48:48.422Z,,0,,,NaN,,,,,,false,,,,502610.200000003,502610,,502609.5,,502613.84,8,400,,,
break_continue,html.Screen,4_79_2,2023-09-15T01:48:48.422Z,,0,,,NaN,,,,,,false,,,,502610.5,502610.40000000596,,502610.200000003,,502613.84,8,400,,,
sequence,flow.Sequence,4_79,2023-09-15T01:48:48.422Z,,0,,,3346.1320000059786,completion,,,,,false,,,,502610.700000003,502610.40000000596,499247.515,499256.80000000447,499264.268,502613.84,8,400,,,
trial,html.Screen,4_80_0,2023-09-15T01:48:52.072Z,,0,2,,3646.560000005935,response,ISIC_7942881.JPG,4,ISIC_7536704.JPG,ISIC_7536704.JPG,false,0,keypress(z),500,506260.6000000015,506260.40000000596,502597.463,502610.80000000447,502613.84,506263.729,8,400,31,,ISIC_7942881.JPG
break,html.Screen,4_80_1,2023-09-15T01:48:52.073Z,,0,,,NaN,,,,,,false,,,,506261.40000000596,506261.200000003,,506260.80000000447,,506263.729,8,400,,,
break_continue,html.Screen,4_80_2,2023-09-15T01:48:52.074Z,,0,,,NaN,,,,,,false,,,,506262.80000000447,506262.700000003,,506262.5,,506263.729,8,400,,,
sequence,flow.Sequence,4_80,2023-09-15T01:48:52.074Z,,0,,,3648.8600000029546,completion,,,,,false,,,,506262.90000000596,506262.700000003,502597.463,502610.700000003,502613.84,506263.729,8,400,,,
trial,html.Screen,4_81_0,2023-09-15T01:48:56.366Z,,0,2,,4290.871000001498,response,ISIC_0034092.JPG,6,ISIC_0058906.JPG,ISIC_0058906.JPG,false,0,keypress(z),500,510554.80000000447,510554.6000000015,506247.282,506263.1000000015,506263.729,510563.532,8,400,32,,ISIC_0034092.JPG
break,html.Screen,4_81_1,2023-09-15T01:48:56.367Z,,0,,,NaN,,,,,,false,,,,510555.700000003,510555.5,,510555.1000000015,,510563.532,8,400,,,
break_continue,html.Screen,4_81_2,2023-09-15T01:48:56.368Z,,0,,,NaN,,,,,,false,,,,510556.1000000015,510556,,510555.90000000596,,510563.532,8,400,,,
sequence,flow.Sequence,4_81,2023-09-15T01:48:56.368Z,,0,,,4292.271000000008,completion,,,,,false,,,,510556.30000000447,510556,506247.282,506263,506263.729,510563.532,8,400,,,
trial,html.Screen,4_82_0,2023-09-15T01:48:59.953Z,,0,2,,3577.868000005954,response,ISIC_0011051.JPG,5,ISIC_0029397.JPG,ISIC_0011051.JPG,false,1,keypress(m),500,514141.6000000015,514141.40000000596,510547.099,510556.5,510563.532,514146.677,8,400,33,,ISIC_0029397.JPG
break,html.Screen,4_82_1,2023-09-15T01:48:59.954Z,,0,,,NaN,,,,,,false,,,,514142.5,514142.200000003,,514141.80000000447,,514146.677,8,400,,,
break_continue,html.Screen,4_82_2,2023-09-15T01:48:59.954Z,,0,,,NaN,,,,,,false,,,,514142.80000000447,514142.700000003,,514142.5,,514146.677,8,400,,,
sequence,flow.Sequence,4_82,2023-09-15T01:48:59.954Z,,0,,,3579.1680000029737,completion,,,,,false,,,,514142.90000000596,514142.700000003,510547.099,510556.40000000596,510563.532,514146.677,8,400,,,
trial,html.Screen,4_83_0,2023-09-15T01:49:03.092Z,,0,2,,3133.322999999975,response,ISIC_0025744.JPG,5,ISIC_0054792.JPG,ISIC_0054792.JPG,false,0,keypress(z),500,517280.200000003,517280,514130.111,514143.1000000015,514146.677,517296.805,8,400,34,,ISIC_0025744.JPG
break,html.Screen,4_83_1,2023-09-15T01:49:03.092Z,,0,,,NaN,,,,,,false,,,,517281.1000000015,517280.80000000447,,517280.30000000447,,517296.805,8,400,,,
break_continue,html.Screen,4_83_2,2023-09-15T01:49:03.093Z,,0,,,NaN,,,,,,false,,,,517281.40000000596,517281.30000000447,,517281.1000000015,,517296.805,8,400,,,
sequence,flow.Sequence,4_83,2023-09-15T01:49:03.093Z,,0,,,3134.623000004445,completion,,,,,false,,,,517281.6000000015,517281.30000000447,514130.111,514143,514146.677,517296.805,8,400,,,
trial,html.Screen,4_84_0,2023-09-15T01:49:06.055Z,,0,2,,2946.895000002987,response,ISIC_0054974.JPG,4,ISIC_5559730.JPG,ISIC_5559730.JPG,false,0,keypress(z),500,520243.90000000596,520243.700000003,517280.061,517281.700000003,517296.805,520246.383,8,400,35,,ISIC_0054974.JPG
break,html.Screen,4_84_1,2023-09-15T01:49:06.056Z,,0,,,NaN,,,,,,false,,,,520244.700000003,520244.6000000015,,520244.1000000015,,520246.383,8,400,,,
break_continue,html.Screen,4_84_2,2023-09-15T01:49:06.056Z,,0,,,NaN,,,,,,false,,,,520245.1000000015,520244.90000000596,,520244.80000000447,,520246.383,8,400,,,
sequence,flow.Sequence,4_84,2023-09-15T01:49:06.057Z,,0,,,2948.0950000059674,completion,,,,,false,,,,520245.200000003,520244.90000000596,517280.061,517281.6000000015,517296.805,520246.383,8,400,,,
trial,html.Screen,4_85_0,2023-09-15T01:49:08.897Z,,0,2,,2839.517000005988,response,ISIC_0071957.JPG,5,ISIC_6017148.JPG,ISIC_0071957.JPG,false,1,keypress(m),500,523086,523085.90000000596,520229.751,520245.30000000447,520246.383,523096.53,8,400,36,,ISIC_6017148.JPG
break,html.Screen,4_85_1,2023-09-15T01:49:08.898Z,,0,,,NaN,,,,,,false,,,,523086.90000000596,523086.700000003,,523086.30000000447,,523096.53,8,400,,,
break_continue,html.Screen,4_85_2,2023-09-15T01:49:08.899Z,,0,,,NaN,,,,,,false,,,,523087.200000003,523087.1000000015,,523086.90000000596,,523096.53,8,400,,,
sequence,flow.Sequence,4_85,2023-09-15T01:49:08.899Z,,0,,,2840.7170000015176,completion,,,,,false,,,,523087.30000000447,523087.1000000015,520229.751,520245.30000000447,520246.383,523096.53,8,400,,,
trial,html.Screen,4_86_0,2023-09-15T01:49:12.409Z,,0,2,,3500.469999999972,response,ISIC_0009791.JPG,6,ISIC_0033226.JPG,ISIC_0009791.JPG,false,1,keypress(m),500,526597.3000000045,526597,523079.712,523087.40000000596,523096.53,526612.872,8,400,37,,ISIC_0033226.JPG
break,html.Screen,4_86_1,2023-09-15T01:49:12.410Z,,0,,,NaN,,,,,,false,,,,526598.200000003,526597.900000006,,526597.5,,526612.872,8,400,,,
break_continue,html.Screen,4_86_2,2023-09-15T01:49:12.410Z,,0,,,NaN,,,,,,false,,,,526598.6000000015,526598.5,,526598.3000000045,,526612.872,8,400,,,
sequence,flow.Sequence,4_86,2023-09-15T01:49:12.410Z,,0,,,3501.969999999972,completion,,,,,false,,,,526598.700000003,526598.5,523079.712,523087.40000000596,523096.53,526612.872,8,400,,,
trial,html.Screen,4_87_0,2023-09-15T01:49:15.325Z,,0,2,,2901.0280000059865,response,ISIC_0010825.JPG,4,ISIC_0030780.JPG,ISIC_0030780.JPG,false,0,keypress(z),500,529514,529513.900000006,526596.259,526598.8000000045,526612.872,529529.554,8,400,38,,ISIC_0010825.JPG
break,html.Screen,4_87_1,2023-09-15T01:49:15.326Z,,0,,,NaN,,,,,,false,,,,529514.400000006,529514.400000006,,529514.1000000015,,529529.554,8,400,,,
break_continue,html.Screen,4_87_2,2023-09-15T01:49:15.326Z,,0,,,NaN,,,,,,false,,,,529514.6000000015,529514.5,,529514.5,,529529.554,8,400,,,
sequence,flow.Sequence,4_87,2023-09-15T01:49:15.326Z,,0,,,2901.628000000026,completion,,,,,false,,,,529514.6000000015,529514.5,526596.259,526598.8000000045,526612.872,529529.554,8,400,,,
trial,html.Screen,4_88_0,2023-09-15T01:49:18.737Z,,0,2,,3395.4459999999963,response,ISIC_0012672.JPG,5,ISIC_0070412.JPG,ISIC_0012672.JPG,false,1,keypress(m),500,532925.3000000045,532925,529512.882,529514.700000003,529529.554,532945.848,8,400,39,,ISIC_0070412.JPG
break,html.Screen,4_88_1,2023-09-15T01:49:18.737Z,,0,,,NaN,,,,,,false,,,,532926,532925.8000000045,,532925.400000006,,532945.848,8,400,,,
break_continue,html.Screen,4_88_2,2023-09-15T01:49:18.738Z,,0,,,NaN,,,,,,false,,,,532926.3000000045,532926.200000003,,532926.1000000015,,532945.848,8,400,,,
sequence,flow.Sequence,4_88,2023-09-15T01:49:18.738Z,,0,,,3396.6460000029765,completion,,,,,false,,,,532926.5,532926.200000003,529512.882,529514.700000003,529529.554,532945.848,8,400,,,
trial,html.Screen,4_89_0,2023-09-15T01:49:21.524Z,,0,2,,2766.452000004472,response,ISIC_8406262.JPG,6,ISIC_1208705.JPG,ISIC_1208705.JPG,false,0,keypress(z),500,535712.5,535712.3000000045,532929.222,532926.5,532945.848,535729.231,8,400,40,,ISIC_8406262.JPG
break,html.Screen,4_89_1,2023-09-15T01:49:21.525Z,,0,,,NaN,,,,,,false,,,,535713.400000006,535713.1000000015,,535712.700000003,,535729.231,8,400,,,
break_continue,html.Screen,4_89_2,2023-09-15T01:49:21.525Z,,0,,,NaN,,,,,,false,,,,535713.700000003,535713.6000000015,,535713.400000006,,535729.231,8,400,,,
sequence,flow.Sequence,4_89,2023-09-15T01:49:21.525Z,,0,,,2767.752000001492,completion,,,,,false,,,,535713.900000006,535713.6000000015,532929.222,532926.5,532945.848,535729.231,8,400,,,
trial,html.Screen,4_90_0,2023-09-15T01:49:26.107Z,,0,2,,4566.0690000044415,response,ISIC_4752144.JPG,5,ISIC_0071196.JPG,ISIC_0071196.JPG,false,0,keypress(z),500,540295.6000000015,540295.3000000045,535712.514,535713.900000006,535729.231,540312.402,8,400,41,,ISIC_4752144.JPG
break,html.Screen,4_90_1,2023-09-15T01:49:26.108Z,,0,,,NaN,,,,,,false,,,,540296.400000006,540296.200000003,,540295.700000003,,540312.402,8,400,,,
break_continue,html.Screen,4_90_2,2023-09-15T01:49:26.108Z,,0,,,NaN,,,,,,false,,,,540296.700000003,540296.6000000015,,540296.5,,540312.402,8,400,,,
sequence,flow.Sequence,4_90,2023-09-15T01:49:26.108Z,,0,,,4567.369000001461,completion,,,,,false,,,,540296.8000000045,540296.6000000015,535712.514,535713.900000006,535729.231,540312.402,8,400,,,
trial,html.Screen,4_91_0,2023-09-15T01:49:29.999Z,,0,2,,3875.1980000014883,response,ISIC_6496765.JPG,5,ISIC_9141817.JPG,ISIC_6496765.JPG,false,1,keypress(m),500,544187.8000000045,544187.6000000015,540295.601,540296.900000006,540312.402,544195.473,8,400,42,,ISIC_9141817.JPG
break,html.Screen,4_91_1,2023-09-15T01:49:30.000Z,,0,,,NaN,,,,,,false,,,,544188.700000003,544188.5,,544188.1000000015,,544195.473,8,400,,,
break_continue,html.Screen,4_91_2,2023-09-15T01:49:30.000Z,,0,,,NaN,,,,,,false,,,,544189,544188.900000006,,544188.8000000045,,544195.473,8,400,,,
sequence,flow.Sequence,4_91,2023-09-15T01:49:30.001Z,,0,,,3876.4980000059586,completion,,,,,false,,,,544189.1000000015,544188.900000006,540295.601,540296.900000006,540312.402,544195.473,8,400,,,
trial,html.Screen,4_92_0,2023-09-15T01:49:33.410Z,,0,2,,3403.327000004472,response,ISIC_7530414.JPG,4,ISIC_0029395.JPG,ISIC_0029395.JPG,false,0,keypress(z),500,547599.1000000015,547598.8000000045,544178.833,544189.3000000045,544195.473,547611.803,8,400,43,,ISIC_7530414.JPG
break,html.Screen,4_92_1,2023-09-15T01:49:33.411Z,,0,,,NaN,,,,,,false,,,,547599.900000006,547599.700000003,,547599.3000000045,,547611.803,8,400,,,
break_continue,html.Screen,4_92_2,2023-09-15T01:49:33.412Z,,0,,,NaN,,,,,,false,,,,547600.3000000045,547600.1000000015,,547600,,547611.803,8,400,,,
sequence,flow.Sequence,4_92,2023-09-15T01:49:33.412Z,,0,,,3404.627000001492,completion,,,,,false,,,,547600.400000006,547600.1000000015,544178.833,544189.200000003,544195.473,547611.803,8,400,,,
trial,html.Screen,4_93_0,2023-09-15T01:49:39.382Z,,0,2,,5958.097000006004,response,ISIC_0063871.JPG,5,ISIC_0069667.JPG,ISIC_0069667.JPG,false,0,keypress(z),500,553570.1000000015,553569.900000006,547595.316,547600.5,547611.803,553578.361,8,400,44,,ISIC_0063871.JPG
break,html.Screen,4_93_1,2023-09-15T01:49:39.382Z,,0,,,NaN,,,,,,false,,,,553571,553570.700000003,,553570.3000000045,,553578.361,8,400,,,
break_continue,html.Screen,4_93_2,2023-09-15T01:49:39.383Z,,0,,,NaN,,,,,,false,,,,553571.400000006,553571.3000000045,,553571.1000000015,,553578.361,8,400,,,
sequence,flow.Sequence,4_93,2023-09-15T01:49:39.383Z,,0,,,5959.497000004514,completion,,,,,false,,,,553571.5,553571.3000000045,547595.316,547600.5,547611.803,553578.361,8,400,,,
trial,html.Screen,4_94_0,2023-09-15T01:49:42.585Z,,0,2,,3195.039000005927,response,ISIC_2418276.JPG,6,ISIC_0060033.JPG,ISIC_0060033.JPG,false,0,keypress(z),500,556773.700000003,556773.400000006,553561.634,553571.6000000015,553578.361,556778.067,8,400,45,,ISIC_2418276.JPG
break,html.Screen,4_94_1,2023-09-15T01:49:42.586Z,,0,,,NaN,,,,,,false,,,,556774.5,556774.3000000045,,556773.8000000045,,556778.067,8,400,,,
break_continue,html.Screen,4_94_2,2023-09-15T01:49:42.586Z,,0,,,NaN,,,,,,false,,,,556774.900000006,556774.8000000045,,556774.6000000015,,556778.067,8,400,,,
sequence,flow.Sequence,4_94,2023-09-15T01:49:42.586Z,,0,,,3196.439000004437,completion,,,,,false,,,,556775,556774.8000000045,553561.634,553571.6000000015,553578.361,556778.067,8,400,,,
trial,html.Screen,4_95_0,2023-09-15T01:49:45.805Z,,0,2,,3215.7330000044312,response,ISIC_5397483.JPG,5,ISIC_0015950.JPG,ISIC_0015950.JPG,false,0,keypress(z),500,559994,559993.8000000045,556761.331,556775.1000000015,556778.067,560011.512,8,400,46,,ISIC_5397483.JPG
break,html.Screen,4_95_1,2023-09-15T01:49:45.806Z,,0,,,NaN,,,,,,false,,,,559994.900000006,559994.700000003,,559994.200000003,,560011.512,8,400,,,
break_continue,html.Screen,4_95_2,2023-09-15T01:49:45.807Z,,0,,,NaN,,,,,,false,,,,559995.3000000045,559995.200000003,,559995,,560011.512,8,400,,,
sequence,flow.Sequence,4_95,2023-09-15T01:49:45.807Z,,0,,,3217.133000002941,completion,,,,,false,,,,559995.5,559995.200000003,556761.331,556775.1000000015,556778.067,560011.512,8,400,,,
trial,html.Screen,4_96_0,2023-09-15T01:49:49.735Z,,0,2,,3912.2880000044825,response,ISIC_1231419.JPG,5,ISIC_0064694.JPG,ISIC_1231419.JPG,false,1,keypress(m),500,563924,563923.8000000045,559994.498,559995.5,560011.512,563927.743,8,400,47,,ISIC_0064694.JPG
break,html.Screen,4_96_1,2023-09-15T01:49:49.736Z,,0,,,NaN,,,,,,false,,,,563924.900000006,563924.6000000015,,563924.200000003,,563927.743,8,400,,,
break_continue,html.Screen,4_96_2,2023-09-15T01:49:49.737Z,,0,,,NaN,,,,,,false,,,,563925.200000003,563925.1000000015,,563925,,563927.743,8,400,,,
sequence,flow.Sequence,4_96,2023-09-15T01:49:49.737Z,,0,,,3913.588000001502,completion,,,,,false,,,,563925.3000000045,563925.1000000015,559994.498,559995.5,560011.512,563927.743,8,400,,,
trial,html.Screen,4_97_0,2023-09-15T01:49:52.954Z,,0,2,,3214.7569999999832,response,ISIC_0028565.JPG,5,ISIC_7100755.JPG,ISIC_7100755.JPG,false,0,keypress(z),500,567142.700000003,567142.5,563911.181,563925.400000006,563927.743,567161.47,8,400,48,,ISIC_0028565.JPG
break,html.Screen,4_97_1,2023-09-15T01:49:52.955Z,,0,,,NaN,,,,,,false,,,,567143.5,567143.400000006,,567143,,567161.47,8,400,,,
break_continue,html.Screen,4_97_2,2023-09-15T01:49:52.955Z,,0,,,NaN,,,,,,false,,,,567144,567143.8000000045,,567143.700000003,,567161.47,8,400,,,
sequence,flow.Sequence,4_97,2023-09-15T01:49:52.955Z,,0,,,3216.0570000044536,completion,,,,,false,,,,567144.1000000015,567143.8000000045,563911.181,563925.400000006,563927.743,567161.47,8,400,,,
trial,html.Screen,4_98_0,2023-09-15T01:49:57.165Z,,0,2,,4192.030000000028,response,ISIC_1883330.JPG,5,ISIC_4220010.JPG,ISIC_1883330.JPG,false,1,keypress(m),500,571353.700000003,571353.5,567127.559,567144.200000003,567161.47,571360.939,8,400,49,,ISIC_4220010.JPG
break,html.Screen,4_98_1,2023-09-15T01:49:57.166Z,,0,,,NaN,,,,,,false,,,,571354.5,571354.3000000045,,571353.900000006,,571360.939,8,400,,,
break_continue,html.Screen,4_98_2,2023-09-15T01:49:57.166Z,,0,,,NaN,,,,,,false,,,,571354.8000000045,571354.700000003,,571354.6000000015,,571360.939,8,400,,,
sequence,flow.Sequence,4_98,2023-09-15T01:49:57.166Z,,0,,,4193.230000003008,completion,,,,,false,,,,571354.8000000045,571354.700000003,567127.559,567144.200000003,567161.47,571360.939,8,400,,,
trial,html.Screen,4_99_0,2023-09-15T01:50:00.183Z,,0,2,,3010.161000001477,response,ISIC_6458982.JPG,4,ISIC_0011904.JPG,ISIC_0011904.JPG,false,0,keypress(z),500,574371.3000000045,574371.1000000015,571344.136,571354.900000006,571360.939,574377.389,8,400,50,,ISIC_6458982.JPG
break,html.Screen,4_99_1,2023-09-15T01:50:10.172Z,,0,,,9999.650000000023,timeout,,,,,false,,,,584361,584360.237,574360.671,574371.5,574377.389,584377.039,8,400,,,
break_continue,html.Screen,4_99_2,2023-09-15T01:50:13.624Z,,0,,,3425.4610000000102,response,,,,,false,continue,keypress(Space),,587812.200000003,587802.5,584360.237,584361.1000000015,584377.039,587826.586,8,400,,,
sequence,flow.Sequence,4_99,2023-09-15T01:50:13.624Z,,0,,,16441.560999999987,completion,,,,,false,,,,587812.200000003,587802.5,571344.136,571354.900000006,571360.939,587826.586,8,400,,,
trial,html.Screen,4_100_0,2023-09-15T01:50:18.206Z,,0,3,,4567.91399999999,response,ISIC_7215208.JPG,5,ISIC_9927486.JPG,ISIC_9927486.JPG,false,0,keypress(z),500,592394.8000000045,592394.5,587810.038,587812.200000003,587826.586,592409.964,8,400,1,,ISIC_7215208.JPG
break,html.Screen,4_100_1,2023-09-15T01:50:18.207Z,,0,,,NaN,,,,,,false,,,,592395.6000000015,592395.400000006,,592395,,592409.964,8,400,,,
break_continue,html.Screen,4_100_2,2023-09-15T01:50:18.207Z,,0,,,NaN,,,,,,false,,,,592396.1000000015,592395.900000006,,592395.8000000045,,592409.964,8,400,,,
sequence,flow.Sequence,4_100,2023-09-15T01:50:18.208Z,,0,,,4569.31400000595,completion,,,,,false,,,,592396.200000003,592395.900000006,587810.038,587812.200000003,587826.586,592409.964,8,400,,,
trial,html.Screen,4_101_0,2023-09-15T01:50:21.665Z,,0,3,,3443.936000005924,response,ISIC_9906799.JPG,5,ISIC_0024355.JPG,ISIC_0024355.JPG,false,0,keypress(z),500,595854.1000000015,595853.900000006,592393.311,592396.3000000045,592409.964,595859.586,8,400,2,,ISIC_9906799.JPG
break,html.Screen,4_101_1,2023-09-15T01:50:21.666Z,,0,,,NaN,,,,,,false,,,,595854.900000006,595854.6000000015,,595854.3000000045,,595859.586,8,400,,,
break_continue,html.Screen,4_101_2,2023-09-15T01:50:21.667Z,,0,,,NaN,,,,,,false,,,,595855.200000003,595855.1000000015,,595855,,595859.586,8,400,,,
sequence,flow.Sequence,4_101,2023-09-15T01:50:21.667Z,,0,,,3445.136000001454,completion,,,,,false,,,,595855.3000000045,595855.1000000015,592393.311,592396.3000000045,592409.964,595859.586,8,400,,,
trial,html.Screen,4_102_0,2023-09-15T01:50:24.726Z,,0,3,,3054.4139999999898,response,ISIC_0031972.JPG,5,ISIC_5960641.JPG,ISIC_5960641.JPG,false,0,keypress(z),500,598914.3000000045,598914,595843.096,595855.5,595859.586,598926.11,8,400,3,,ISIC_0031972.JPG
break,html.Screen,4_102_1,2023-09-15T01:50:24.726Z,,0,,,NaN,,,,,,false,,,,598915,598914.900000006,,598914.400000006,,598926.11,8,400,,,
break_continue,html.Screen,4_102_2,2023-09-15T01:50:24.727Z,,0,,,NaN,,,,,,false,,,,598915.400000006,598915.3000000045,,598915.200000003,,598926.11,8,400,,,
sequence,flow.Sequence,4_102,2023-09-15T01:50:24.727Z,,0,,,3055.71400000446,completion,,,,,false,,,,598915.6000000015,598915.3000000045,595843.096,595855.400000006,595859.586,598926.11,8,400,,,
trial,html.Screen,4_103_0,2023-09-15T01:50:28.572Z,,0,3,,3834.390000000014,response,ISIC_4762702.JPG,4,ISIC_0011336.JPG,ISIC_0011336.JPG,false,0,keypress(z),500,602760.700000003,602760.5,598909.642,598915.6000000015,598926.11,602776.158,8,400,4,,ISIC_4762702.JPG
break,html.Screen,4_103_1,2023-09-15T01:50:28.573Z,,0,,,NaN,,,,,,false,,,,602761.5,602761.200000003,,602760.900000006,,602776.158,8,400,,,
break_continue,html.Screen,4_103_2,2023-09-15T01:50:28.573Z,,0,,,NaN,,,,,,false,,,,602761.900000006,602761.700000003,,602761.6000000015,,602776.158,8,400,,,
sequence,flow.Sequence,4_103,2023-09-15T01:50:28.573Z,,0,,,3835.590000002994,completion,,,,,false,,,,602762,602761.700000003,598909.642,598915.6000000015,598926.11,602776.158,8,400,,,
trial,html.Screen,4_104_0,2023-09-15T01:50:32.543Z,,0,3,,3955.542000002926,response,ISIC_0024739.JPG,4,ISIC_0027591.JPG,ISIC_0027591.JPG,false,0,keypress(z),500,606731.8000000045,606731.700000003,602759.202,602762.1000000015,602776.158,606742.678,8,400,5,,ISIC_0024739.JPG
break,html.Screen,4_104_1,2023-09-15T01:50:32.544Z,,0,,,NaN,,,,,,false,,,,606732.200000003,606732.1000000015,,606731.8000000045,,606742.678,8,400,,,
break_continue,html.Screen,4_104_2,2023-09-15T01:50:32.544Z,,0,,,NaN,,,,,,false,,,,606732.3000000045,606732.200000003,,606732.200000003,,606742.678,8,400,,,
sequence,flow.Sequence,4_104,2023-09-15T01:50:32.544Z,,0,,,3956.042000002926,completion,,,,,false,,,,606732.3000000045,606732.200000003,602759.202,602762.1000000015,602776.158,606742.678,8,400,,,
trial,html.Screen,4_105_0,2023-09-15T01:50:36.965Z,,0,3,,4410.522000003024,response,ISIC_0033087.JPG,5,ISIC_0067667.JPG,ISIC_0033087.JPG,false,1,keypress(m),500,611153.3000000045,611153.200000003,606725.942,606732.400000006,606742.678,611158.903,8,400,6,,ISIC_0067667.JPG
break,html.Screen,4_105_1,2023-09-15T01:50:36.966Z,,0,,,NaN,,,,,,false,,,,611154.200000003,611153.900000006,,611153.6000000015,,611158.903,8,400,,,
break_continue,html.Screen,4_105_2,2023-09-15T01:50:36.966Z,,0,,,NaN,,,,,,false,,,,611154.5,611154.400000006,,611154.3000000045,,611158.903,8,400,,,
sequence,flow.Sequence,4_105,2023-09-15T01:50:36.966Z,,0,,,4411.722000006004,completion,,,,,false,,,,611154.6000000015,611154.400000006,606725.942,606732.400000006,606742.678,611158.903,8,400,,,
trial,html.Screen,4_106_0,2023-09-15T01:50:40.503Z,,0,3,,3532.897000004421,response,ISIC_0007148.JPG,4,ISIC_0047022.JPG,ISIC_0007148.JPG,false,1,keypress(m),500,614692,614691.8000000045,611142.456,611154.8000000045,611158.903,614708.808,8,400,7,,ISIC_0047022.JPG
break,html.Screen,4_106_1,2023-09-15T01:50:40.504Z,,0,,,NaN,,,,,,false,,,,614692.8000000045,614692.700000003,,614692.200000003,,614708.808,8,400,,,
break_continue,html.Screen,4_106_2,2023-09-15T01:50:40.505Z,,0,,,NaN,,,,,,false,,,,614693.200000003,614693.1000000015,,614692.900000006,,614708.808,8,400,,,
sequence,flow.Sequence,4_106,2023-09-15T01:50:40.505Z,,0,,,3534.1970000014408,completion,,,,,false,,,,614693.400000006,614693.1000000015,611142.456,611154.8000000045,611158.903,614708.808,8,400,,,
trial,html.Screen,4_107_0,2023-09-15T01:50:43.595Z,,0,3,,3074.7920000015292,response,ISIC_0026683.JPG,5,ISIC_0065775.JPG,ISIC_0026683.JPG,false,1,keypress(m),500,617783.8000000045,617783.6000000015,614691.97,614693.5,614708.808,617792.165,8,400,8,,ISIC_0065775.JPG
break,html.Screen,4_107_1,2023-09-15T01:50:43.596Z,,0,,,NaN,,,,,,false,,,,617784.5,617784.400000006,,617784,,617792.165,8,400,,,
break_continue,html.Screen,4_107_2,2023-09-15T01:50:43.596Z,,0,,,NaN,,,,,,false,,,,617784.900000006,617784.8000000045,,617784.700000003,,617792.165,8,400,,,
sequence,flow.Sequence,4_107,2023-09-15T01:50:43.596Z,,0,,,3075.9920000045095,completion,,,,,false,,,,617785,617784.8000000045,614691.97,614693.400000006,614708.808,617792.165,8,400,,,
trial,html.Screen,4_108_0,2023-09-15T01:50:46.702Z,,0,3,,3097.935000001453,response,ISIC_0001602.JPG,4,ISIC_7341401.JPG,ISIC_0001602.JPG,false,1,keypress(m),500,620890.3000000045,620890.1000000015,617775.512,617785.1000000015,617792.165,620909.172,8,400,9,,ISIC_7341401.JPG
break,html.Screen,4_108_1,2023-09-15T01:50:46.702Z,,0,,,NaN,,,,,,false,,,,620891.1000000015,620890.900000006,,620890.5,,620909.172,8,400,,,
break_continue,html.Screen,4_108_2,2023-09-15T01:50:46.703Z,,0,,,NaN,,,,,,false,,,,620891.400000006,620891.3000000045,,620891.200000003,,620909.172,8,400,,,
sequence,flow.Sequence,4_108,2023-09-15T01:50:46.703Z,,0,,,3099.135000004433,completion,,,,,false,,,,620891.6000000015,620891.3000000045,617775.512,617785.1000000015,617792.165,620909.172,8,400,,,
trial,html.Screen,4_109_0,2023-09-15T01:50:50.098Z,,0,3,,3376.8279999999795,response,ISIC_4401524.JPG,5,ISIC_0010313.JPG,ISIC_0010313.JPG,false,0,keypress(z),500,624286.200000003,624286,620875.141,620891.700000003,620909.172,624291.596,8,400,10,,ISIC_4401524.JPG
break,html.Screen,4_109_1,2023-09-15T01:50:50.098Z,,0,,,NaN,,,,,,false,,,,624287.1000000015,624286.8000000045,,624286.400000006,,624291.596,8,400,,,
break_continue,html.Screen,4_109_2,2023-09-15T01:50:50.099Z,,0,,,NaN,,,,,,false,,,,624287.5,624287.400000006,,624287.200000003,,624291.596,8,400,,,
sequence,flow.Sequence,4_109,2023-09-15T01:50:50.099Z,,0,,,3378.22800000594,completion,,,,,false,,,,624287.6000000015,624287.400000006,620875.141,620891.6000000015,620909.172,624291.596,8,400,,,
trial,html.Screen,4_110_0,2023-09-15T01:50:53.029Z,,0,3,,2925.4039999999804,response,ISIC_3992223.JPG,4,ISIC_0024720.JPG,ISIC_3992223.JPG,false,1,keypress(m),500,627217.200000003,627217,624275.067,624287.700000003,624291.596,627225.055,8,400,11,,ISIC_0024720.JPG
break,html.Screen,4_110_1,2023-09-15T01:50:53.029Z,,0,,,NaN,,,,,,false,,,,627218,627217.8000000045,,627217.400000006,,627225.055,8,400,,,
break_continue,html.Screen,4_110_2,2023-09-15T01:50:53.030Z,,0,,,NaN,,,,,,false,,,,627218.3000000045,627218.3000000045,,627218.1000000015,,627225.055,8,400,,,
sequence,flow.Sequence,4_110,2023-09-15T01:50:53.030Z,,0,,,2926.704000004451,completion,,,,,false,,,,627218.5,627218.3000000045,624275.067,624287.700000003,624291.596,627225.055,8,400,,,
trial,html.Screen,4_111_0,2023-09-15T01:50:56.910Z,,0,3,,3872.8450000059092,response,ISIC_0644590.JPG,4,ISIC_0028019.JPG,ISIC_0644590.JPG,false,1,keypress(m),500,631098.200000003,631097.900000006,627208.259,627218.6000000015,627225.055,631108.051,8,400,12,,ISIC_0028019.JPG
break,html.Screen,4_111_1,2023-09-15T01:50:56.910Z,,0,,,NaN,,,,,,false,,,,631099,631098.8000000045,,631098.400000006,,631108.051,8,400,,,
break_continue,html.Screen,4_111_2,2023-09-15T01:50:56.911Z,,0,,,NaN,,,,,,false,,,,631099.400000006,631099.3000000045,,631099.1000000015,,631108.051,8,400,,,
sequence,flow.Sequence,4_111,2023-09-15T01:50:56.911Z,,0,,,3874.245000004419,completion,,,,,false,,,,631099.6000000015,631099.3000000045,627208.259,627218.6000000015,627225.055,631108.051,8,400,,,
trial,html.Screen,4_112_0,2023-09-15T01:50:59.713Z,,0,3,,2793.1490000030026,response,ISIC_2075546.JPG,4,ISIC_2717192.JPG,ISIC_2717192.JPG,false,0,keypress(z),500,633901.400000006,633901.200000003,631091.54,631099.6000000015,631108.051,633908.013,8,400,13,,ISIC_2075546.JPG
break,html.Screen,4_112_1,2023-09-15T01:50:59.714Z,,0,,,NaN,,,,,,false,,,,633902.200000003,633902.1000000015,,633901.6000000015,,633908.013,8,400,,,
break_continue,html.Screen,4_112_2,2023-09-15T01:50:59.714Z,,0,,,NaN,,,,,,false,,,,633902.6000000015,633902.5,,633902.400000006,,633908.013,8,400,,,
sequence,flow.Sequence,4_112,2023-09-15T01:50:59.714Z,,0,,,2794.4490000000224,completion,,,,,false,,,,633902.700000003,633902.5,631091.54,631099.6000000015,631108.051,633908.013,8,400,,,
trial,html.Screen,4_113_0,2023-09-15T01:51:03.368Z,,0,3,,3648.387000005925,response,ISIC_5377237.JPG,5,ISIC_3295750.JPG,ISIC_3295750.JPG,false,0,keypress(z),500,637556.6000000015,637556.400000006,633891.251,633902.900000006,633908.013,637574.88,8,400,14,,ISIC_5377237.JPG
break,html.Screen,4_113_1,2023-09-15T01:51:03.369Z,,0,,,NaN,,,,,,false,,,,637557.400000006,637557.200000003,,637556.8000000045,,637574.88,8,400,,,
break_continue,html.Screen,4_113_2,2023-09-15T01:51:03.369Z,,0,,,NaN,,,,,,false,,,,637557.8000000045,637557.700000003,,637557.5,,637574.88,8,400,,,
sequence,flow.Sequence,4_113,2023-09-15T01:51:03.369Z,,0,,,3649.687000002945,completion,,,,,false,,,,637557.900000006,637557.700000003,633891.251,633902.8000000045,633908.013,637574.88,8,400,,,
trial,html.Screen,4_114_0,2023-09-15T01:51:08.139Z,,0,3,,4752.119999999995,response,ISIC_1870415.JPG,5,ISIC_0055759.JPG,ISIC_1870415.JPG,false,1,keypress(m),500,642327.3000000045,642327,637541.23,637558,637574.88,642341.026,8,400,15,,ISIC_0055759.JPG
break,html.Screen,4_114_1,2023-09-15T01:51:08.140Z,,0,,,NaN,,,,,,false,,,,642328.200000003,642327.8000000045,,642327.5,,642341.026,8,400,,,
break_continue,html.Screen,4_114_2,2023-09-15T01:51:08.140Z,,0,,,NaN,,,,,,false,,,,642328.5,642328.400000006,,642328.200000003,,642341.026,8,400,,,
sequence,flow.Sequence,4_114,2023-09-15T01:51:08.140Z,,0,,,4753.520000005956,completion,,,,,false,,,,642328.6000000015,642328.400000006,637541.23,637558,637574.88,642341.026,8,400,,,
trial,html.Screen,4_115_0,2023-09-15T01:51:11.966Z,,0,3,,3813.174000003026,response,ISIC_0962121.JPG,5,ISIC_0026120.JPG,ISIC_0962121.JPG,false,1,keypress(m),500,646154.400000006,646154.200000003,642324.184,642328.700000003,642341.026,646157.269,8,400,16,,ISIC_0026120.JPG
break,html.Screen,4_115_1,2023-09-15T01:51:11.967Z,,0,,,NaN,,,,,,false,,,,646155.3000000045,646155.1000000015,,646154.6000000015,,646157.269,8,400,,,
break_continue,html.Screen,4_115_2,2023-09-15T01:51:11.967Z,,0,,,NaN,,,,,,false,,,,646155.6000000015,646155.5,,646155.400000006,,646157.269,8,400,,,
sequence,flow.Sequence,4_115,2023-09-15T01:51:11.967Z,,0,,,3814.4740000000456,completion,,,,,false,,,,646155.8000000045,646155.5,642324.184,642328.6000000015,642341.026,646157.269,8,400,,,
trial,html.Screen,4_116_0,2023-09-15T01:51:16.628Z,,0,3,,4658.931000003009,response,ISIC_2011145.JPG,5,ISIC_0015166.JPG,ISIC_0015166.JPG,false,0,keypress(z),500,650816.200000003,650816.200000003,646140.737,646155.900000006,646157.269,650823.768,8,400,17,,ISIC_2011145.JPG
break,html.Screen,4_116_1,2023-09-15T01:51:16.628Z,,0,,,NaN,,,,,,false,,,,650816.700000003,650816.6000000015,,650816.400000006,,650823.768,8,400,,,
break_continue,html.Screen,4_116_2,2023-09-15T01:51:16.628Z,,0,,,NaN,,,,,,false,,,,650816.8000000045,650816.8000000045,,650816.700000003,,650823.768,8,400,,,
sequence,flow.Sequence,4_116,2023-09-15T01:51:16.628Z,,0,,,4659.531000004499,completion,,,,,false,,,,650816.8000000045,650816.8000000045,646140.737,646155.8000000045,646157.269,650823.768,8,400,,,
trial,html.Screen,4_117_0,2023-09-15T01:51:20.406Z,,0,3,,3770.1320000059204,response,ISIC_0024296.JPG,5,ISIC_3471815.JPG,ISIC_3471815.JPG,false,0,keypress(z),500,654594.1000000015,654593.900000006,650807.294,650817,650823.768,654606.888,8,400,18,,ISIC_0024296.JPG
break,html.Screen,4_117_1,2023-09-15T01:51:20.406Z,,0,,,NaN,,,,,,false,,,,654595,654594.700000003,,654594.3000000045,,654606.888,8,400,,,
break_continue,html.Screen,4_117_2,2023-09-15T01:51:20.407Z,,0,,,NaN,,,,,,false,,,,654595.400000006,654595.200000003,,654595.1000000015,,654606.888,8,400,,,
sequence,flow.Sequence,4_117,2023-09-15T01:51:20.407Z,,0,,,3771.43200000294,completion,,,,,false,,,,654595.5,654595.200000003,650807.294,650816.900000006,650823.768,654606.888,8,400,,,
trial,html.Screen,4_118_0,2023-09-15T01:51:24.512Z,,0,3,,4093.412000004435,response,ISIC_0064107.JPG,5,ISIC_2089231.JPG,ISIC_2089231.JPG,false,0,keypress(z),500,658700.6000000015,658700.3000000045,654590.34,654595.6000000015,654606.888,658706.742,8,400,19,,ISIC_0064107.JPG
break,html.Screen,4_118_1,2023-09-15T01:51:24.513Z,,0,,,NaN,,,,,,false,,,,658701.400000006,658701.1000000015,,658700.8000000045,,658706.742,8,400,,,
break_continue,html.Screen,4_118_2,2023-09-15T01:51:24.513Z,,0,,,NaN,,,,,,false,,,,658701.700000003,658701.6000000015,,658701.5,,658706.742,8,400,,,
sequence,flow.Sequence,4_118,2023-09-15T01:51:24.513Z,,0,,,4094.7120000014547,completion,,,,,false,,,,658701.8000000045,658701.6000000015,654590.34,654595.5,654606.888,658706.742,8,400,,,
trial,html.Screen,4_119_0,2023-09-15T01:51:28.855Z,,0,3,,4336.858000001521,response,ISIC_0561249.JPG,5,ISIC_0032140.JPG,ISIC_0561249.JPG,false,1,keypress(m),500,663043.900000006,663043.6000000015,658690.198,658701.900000006,658706.742,663056.625,8,400,20,,ISIC_0032140.JPG
break,html.Screen,4_119_1,2023-09-15T01:51:28.856Z,,0,,,NaN,,,,,,false,,,,663044.700000003,663044.5,,663044,,663056.625,8,400,,,
break_continue,html.Screen,4_119_2,2023-09-15T01:51:28.856Z,,0,,,NaN,,,,,,false,,,,663045,663044.900000006,,663044.8000000045,,663056.625,8,400,,,
sequence,flow.Sequence,4_119,2023-09-15T01:51:28.857Z,,0,,,4338.158000005991,completion,,,,,false,,,,663045.200000003,663044.900000006,658690.198,658701.900000006,658706.742,663056.625,8,400,,,
trial,html.Screen,4_120_0,2023-09-15T01:51:32.542Z,,0,3,,3673.2750000059605,response,ISIC_5559730.JPG,5,ISIC_0030852.JPG,ISIC_5559730.JPG,false,1,keypress(m),500,666730.200000003,666729.900000006,663039.777,663045.3000000045,663056.625,666739.9,8,400,21,,ISIC_0030852.JPG
break,html.Screen,4_120_1,2023-09-15T01:51:32.542Z,,0,,,NaN,,,,,,false,,,,666730.900000006,666730.8000000045,,666730.400000006,,666739.9,8,400,,,
break_continue,html.Screen,4_120_2,2023-09-15T01:51:32.543Z,,0,,,NaN,,,,,,false,,,,666731.3000000045,666731.200000003,,666731.1000000015,,666739.9,8,400,,,
sequence,flow.Sequence,4_120,2023-09-15T01:51:32.543Z,,0,,,3674.5750000029802,completion,,,,,false,,,,666731.400000006,666731.200000003,663039.777,663045.3000000045,663056.625,666739.9,8,400,,,
trial,html.Screen,4_121_0,2023-09-15T01:51:36.102Z,,0,3,,3550.800000002957,response,ISIC_7107030.JPG,5,ISIC_8066660.JPG,ISIC_7107030.JPG,false,1,keypress(m),500,670290.900000006,670290.700000003,666723.254,666731.6000000015,666739.9,670306.385,8,400,22,,ISIC_8066660.JPG
break,html.Screen,4_121_1,2023-09-15T01:51:36.103Z,,0,,,NaN,,,,,,false,,,,670291.8000000045,670291.6000000015,,670291.1000000015,,670306.385,8,400,,,
break_continue,html.Screen,4_121_2,2023-09-15T01:51:36.104Z,,0,,,NaN,,,,,,false,,,,670292.200000003,670292.1000000015,,670291.900000006,,670306.385,8,400,,,
sequence,flow.Sequence,4_121,2023-09-15T01:51:36.104Z,,0,,,3552.200000001467,completion,,,,,false,,,,670292.200000003,670292.1000000015,666723.254,666731.5,666739.9,670306.385,8,400,,,
trial,html.Screen,4_122_0,2023-09-15T01:51:38.864Z,,0,3,,2746.015000005951,response,ISIC_0033819.JPG,6,ISIC_0032847.JPG,ISIC_0032847.JPG,false,0,keypress(z),500,673052.700000003,673052.400000006,670289.575,670292.400000006,670306.385,673072.756,8,400,23,,ISIC_0033819.JPG
break,html.Screen,4_122_1,2023-09-15T01:51:38.865Z,,0,,,NaN,,,,,,false,,,,673053.5,673053.3000000045,,673052.900000006,,673072.756,8,400,,,
break_continue,html.Screen,4_122_2,2023-09-15T01:51:38.865Z,,0,,,NaN,,,,,,false,,,,673053.8000000045,673053.8000000045,,673053.6000000015,,673072.756,8,400,,,
sequence,flow.Sequence,4_122,2023-09-15T01:51:38.865Z,,0,,,2747.415000004461,completion,,,,,false,,,,673054,673053.8000000045,670289.575,670292.400000006,670306.385,673072.756,8,400,,,
trial,html.Screen,4_123_0,2023-09-15T01:51:41.795Z,,0,3,,2910.844000001438,response,ISIC_0066203.JPG,5,ISIC_2366172.JPG,ISIC_2366172.JPG,false,0,keypress(z),500,675983.700000003,675983.6000000015,673056.053,673054.200000003,673072.756,675989.279,8,400,24,,ISIC_0066203.JPG
break,html.Screen,4_123_1,2023-09-15T01:51:41.796Z,,0,,,NaN,,,,,,false,,,,675984.5,675984.3000000045,,675984,,675989.279,8,400,,,
break_continue,html.Screen,4_123_2,2023-09-15T01:51:41.796Z,,0,,,NaN,,,,,,false,,,,675984.900000006,675984.8000000045,,675984.700000003,,675989.279,8,400,,,
sequence,flow.Sequence,4_123,2023-09-15T01:51:41.796Z,,0,,,2912.044000004418,completion,,,,,false,,,,675985,675984.8000000045,673056.053,673054.1000000015,673072.756,675989.279,8,400,,,
trial,html.Screen,4_124_0,2023-09-15T01:51:45.990Z,,0,3,,4189.52100000449,response,ISIC_0027024.JPG,5,ISIC_0068234.JPG,ISIC_0027024.JPG,false,1,keypress(m),500,680179,680178.8000000045,675972.657,675985.1000000015,675989.279,680205.912,8,400,25,,ISIC_0068234.JPG
break,html.Screen,4_124_1,2023-09-15T01:51:45.991Z,,0,,,NaN,,,,,,false,,,,680179.8000000045,680179.6000000015,,680179.200000003,,680205.912,8,400,,,
break_continue,html.Screen,4_124_2,2023-09-15T01:51:45.992Z,,0,,,NaN,,,,,,false,,,,680180.200000003,680180,,680179.900000006,,680205.912,8,400,,,
sequence,flow.Sequence,4_124,2023-09-15T01:51:45.992Z,,0,,,4190.72100000002,completion,,,,,false,,,,680180.3000000045,680180,675972.657,675985.1000000015,675989.279,680205.912,8,400,,,
trial,html.Screen,4_125_0,2023-09-15T01:51:49.504Z,,0,3,,3486.587999999989,response,ISIC_9072567.JPG,5,ISIC_0060975.JPG,ISIC_0060975.JPG,false,0,keypress(z),500,683692.700000003,683692.5,680189.081,680180.400000006,680205.912,683705.793,8,400,26,,ISIC_9072567.JPG
break,html.Screen,4_125_1,2023-09-15T01:51:49.505Z,,0,,,NaN,,,,,,false,,,,683693.6000000015,683693.400000006,,683692.900000006,,683705.793,8,400,,,
break_continue,html.Screen,4_125_2,2023-09-15T01:51:49.505Z,,0,,,NaN,,,,,,false,,,,683694,683693.900000006,,683693.700000003,,683705.793,8,400,,,
sequence,flow.Sequence,4_125,2023-09-15T01:51:49.506Z,,0,,,3487.9880000059493,completion,,,,,false,,,,683694.1000000015,683693.900000006,680189.081,680180.400000006,680205.912,683705.793,8,400,,,
trial,html.Screen,4_126_0,2023-09-15T01:51:52.947Z,,0,3,,3429.5070000045234,response,ISIC_5526879.JPG,5,ISIC_0239178.JPG,ISIC_0239178.JPG,false,0,keypress(z),500,687135.5,687135.3000000045,683689.003,683694.200000003,683705.793,687138.711,8,400,27,,ISIC_5526879.JPG
