sender,sender_type,sender_id,timestamp,meta,,blockNo,condition,duration,ended_on,img_left,img_reveal,img_right,loser,practice,response,response_action,selection_duration,time_commit,time_end,time_render,time_run,time_show,time_switch,total_blocks,total_trials,trialNo,url,winner
informed_consent,html.Screen,0,2023-11-01T18:02:24.118Z,"{""labjs_version"":""20.2.4"",""labjs_build"":{""flavor"":""production"",""commit"":""f5b4a49f956347addd546a832a3327688c2c0fef""},""location"":""https://run.pavlovia.org/MurrayBennett/melanoma-2afc/?participant=66242&platform=sona"",""userAgent"":""Mozilla/5.0 (Macintosh; Intel Mac OS X 10_15_7) AppleWebKit/537.36 (KHTML, like Gecko) Chrome/117.0.0.0 Safari/537.36"",""platform"":""MacIntel"",""language"":""en-US"",""locale"":""en-US"",""timeZone"":""America/Chicago"",""timezoneOffset"":300,""screen_width"":1440,""screen_height"":900,""scroll_width"":799,""scroll_height"":655,""window_innerWidth"":799,""window_innerHeight"":703,""devicePixelRatio"":2}",,,,7534.627000047683,response,,,,,,consent,click button,,9533.200000047684,9518.700000047684,1417.429,1990.1000000238419,1984.073,9567.372,,,,"{""participant"":""66242"",""platform"":""sona""}",
Welcome,html.Screen,1,2023-11-01T18:02:59.696Z,,,,symmetry,35531.628,response,,,,,,continue,click button,,45110.200000047684,45099,9517.374,9533.5,9567.372,45116.663,,,,,
trial,html.Screen,2_0_0,2023-11-01T18:03:04.454Z,,0,0,,4751.037000047683,response,ISIC_6997061.JPG,,ISIC_0069348.JPG,ISIC_0069348.JPG,true,0,keypress(z),500,49868.10000002384,49867.700000047684,45099.997,45110.89999997616,45116.663,49883.402,1,6,1,,ISIC_6997061.JPG
sequence,flow.Sequence,2_0,2023-11-01T18:03:04.454Z,,0,,,4751.037000047683,completion,,,,,true,,,,49868.799999952316,49867.700000047684,45099.997,45110.799999952316,45116.663,49883.402,1,6,,,
trial,html.Screen,2_1_0,2023-11-01T18:03:08.080Z,,0,0,,3610.3979999523144,response,ISIC_0057368.JPG,,ISIC_0009529.JPG,ISIC_0057368.JPG,true,1,keypress(m),500,53494,53493.799999952316,49866.736,49869,49883.402,53499.924,1,6,2,,ISIC_0009529.JPG
sequence,flow.Sequence,2_1,2023-11-01T18:03:08.080Z,,0,,,3610.3979999523144,completion,,,,,true,,,,53494.5,53493.799999952316,49866.736,49869,49883.402,53499.924,1,6,,,
trial,html.Screen,2_2_0,2023-11-01T18:03:11.426Z,,0,0,,3340.475999976159,response,ISIC_0064954.JPG,,ISIC_9758671.JPG,ISIC_9758671.JPG,true,0,keypress(z),500,56840.799999952316,56840.39999997616,53483.258,53494.700000047684,53499.924,56850.06,1,6,3,,ISIC_0064954.JPG
sequence,flow.Sequence,2_2,2023-11-01T18:03:11.427Z,,0,,,3340.475999976159,completion,,,,,true,,,,56841.299999952316,56840.39999997616,53483.258,53494.60000002384,53499.924,56850.06,1,6,,,
trial,html.Screen,2_3_0,2023-11-01T18:03:14.678Z,,0,0,,3242.2399999523186,response,ISIC_0005785.JPG,,ISIC_0000080.JPG,ISIC_0005785.JPG,true,1,keypress(m),500,60092.700000047684,60092.299999952316,56833.394,56841.60000002384,56850.06,60099.93,1,6,4,,ISIC_0000080.JPG
sequence,flow.Sequence,2_3,2023-11-01T18:03:14.679Z,,0,,,3242.2399999523186,completion,,,,,true,,,,60093.200000047684,60092.299999952316,56833.394,56841.5,56850.06,60099.93,1,6,,,
trial,html.Screen,2_4_0,2023-11-01T18:03:18.428Z,,0,0,,3741.7700000476834,response,ISIC_7944028.JPG,,ISIC_5390060.JPG,ISIC_5390060.JPG,true,0,keypress(z),500,63842,63841.700000047684,60083.264,60093.39999997616,60099.93,63849.78,1,6,5,,ISIC_7944028.JPG
sequence,flow.Sequence,2_4,2023-11-01T18:03:18.428Z,,0,,,3741.7700000476834,completion,,,,,true,,,,63842.39999997616,63841.700000047684,60083.264,60093.39999997616,60099.93,63849.78,1,6,,,
trial,html.Screen,2_5_0,2023-11-01T18:03:21.298Z,,0,0,,2861.5199999523174,response,ISIC_0794216.JPG,,ISIC_0010188.JPG,ISIC_0010188.JPG,true,0,keypress(z),500,66711.79999995232,66711.29999995232,63833.114,63843.39999997616,63849.78,66716.332,1,6,6,,ISIC_0794216.JPG
sequence,flow.Sequence,2_5,2023-11-01T18:03:21.298Z,,0,,,2861.5199999523174,completion,,,,,true,,,,66712.10000002384,66711.29999995232,63833.114,63843.299999952316,63849.78,66716.332,1,6,,,
loop,flow.Loop,2,2023-11-01T18:03:21.298Z,,,,,21594.636999952316,completion,,,,,true,,,,66712.39999997616,66711.29999995232,45099.997,45110.700000047684,45116.663,66716.332,1,6,,,
exp_instructions,html.Screen,3,2023-11-01T18:03:30.071Z,,,,,8761.268000023847,response,,,,,,continue,keypress(Space),,75485.5,75477.60000002384,66699.666,66712.5,66716.332,75499.585,,,,,
trial,html.Screen,4_0_0,2023-11-01T18:03:34.684Z,,0,1,,4597.814999976152,response,ISIC_0015950.JPG,9,ISIC_0032549.JPG,ISIC_0032549.JPG,false,0,keypress(z),500,80097.70000004768,80097.39999997616,75482.919,75485.60000002384,75499.585,80099.67,8,400,1,,ISIC_0015950.JPG
break,html.Screen,4_0_1,2023-11-01T18:03:34.685Z,,0,,,NaN,,,,,,false,,,,80098.70000004768,80098.39999997616,,80097.89999997616,,80099.67,8,400,,,
break_continue,html.Screen,4_0_2,2023-11-01T18:03:34.685Z,,0,,,NaN,,,,,,false,,,,80099.20000004768,80099.10000002384,,80098.89999997616,,80099.67,8,400,,,
sequence,flow.Sequence,4_0,2023-11-01T18:03:34.686Z,,0,,,4599.5150000238355,completion,,,,,false,,,,80099.39999997616,80099.10000002384,75482.919,75485.60000002384,75499.585,80099.67,8,400,,,
trial,html.Screen,4_1_0,2023-11-01T18:03:37.666Z,,0,1,,2979.4300000238436,response,ISIC_2445475.JPG,6,ISIC_0057184.JPG,ISIC_2445475.JPG,false,1,keypress(m),500,83079.60000002384,83079.10000002384,80083.004,80099.60000002384,80099.67,83082.884,8,400,2,,ISIC_0057184.JPG
break,html.Screen,4_1_1,2023-11-01T18:03:37.667Z,,0,,,NaN,,,,,,false,,,,83080.70000004768,83080.39999997616,,83080,,83082.884,8,400,,,
break_continue,html.Screen,4_1_2,2023-11-01T18:03:37.668Z,,0,,,NaN,,,,,,false,,,,83082,83082,,83081.79999995232,,83082.884,8,400,,,
sequence,flow.Sequence,4_1,2023-11-01T18:03:37.669Z,,0,,,2982.3300000000017,completion,,,,,false,,,,83082.29999995232,83082,80083.004,80099.60000002384,80099.67,83082.884,8,400,,,
trial,html.Screen,4_2_0,2023-11-01T18:03:40.960Z,,0,1,,3290.6159999999945,response,ISIC_6380209.JPG,6,ISIC_6400714.JPG,ISIC_6400714.JPG,false,0,keypress(z),500,86373.79999995232,86373.5,83066.218,83082.39999997616,83082.884,86382.752,8,400,3,,ISIC_6380209.JPG
break,html.Screen,4_2_1,2023-11-01T18:03:40.961Z,,0,,,NaN,,,,,,false,,,,86374.79999995232,86374.39999997616,,86374,,86382.752,8,400,,,
break_continue,html.Screen,4_2_2,2023-11-01T18:03:40.961Z,,0,,,NaN,,,,,,false,,,,86375.20000004768,86375,,86374.89999997616,,86382.752,8,400,,,
sequence,flow.Sequence,4_2,2023-11-01T18:03:40.962Z,,0,,,3292.1159999999945,completion,,,,,false,,,,86375.29999995232,86375,83066.218,83082.29999995232,83082.884,86382.752,8,400,,,
trial,html.Screen,4_3_0,2023-11-01T18:03:43.735Z,,0,1,,2765.248000000007,response,ISIC_8929288.JPG,5,ISIC_0033444.JPG,ISIC_8929288.JPG,false,1,keypress(m),500,89148.20000004768,89148,86366.086,86375.5,86382.752,89149.58,8,400,4,,ISIC_0033444.JPG
break,html.Screen,4_3_1,2023-11-01T18:03:43.735Z,,0,,,NaN,,,,,,false,,,,89149.10000002384,89148.79999995232,,89148.5,,89149.58,8,400,,,
break_continue,html.Screen,4_3_2,2023-11-01T18:03:43.736Z,,0,,,NaN,,,,,,false,,,,89149.5,89149.39999997616,,89149.29999995232,,89149.58,8,400,,,
sequence,flow.Sequence,4_3,2023-11-01T18:03:43.736Z,,0,,,2766.647999976165,completion,,,,,false,,,,89149.70000004768,89149.39999997616,86366.086,86375.5,86382.752,89149.58,8,400,,,
trial,html.Screen,4_4_0,2023-11-01T18:03:47.149Z,,0,1,,3412.3199999761564,response,ISIC_0008423.JPG,5,ISIC_0016080.JPG,ISIC_0016080.JPG,false,0,keypress(z),500,92562.10000002384,92561.89999997616,89132.914,89149.79999995232,89149.58,92566.11,8,400,5,,ISIC_0008423.JPG
break,html.Screen,4_4_1,2023-11-01T18:03:47.149Z,,0,,,NaN,,,,,,false,,,,92563,92562.79999995232,,92562.29999995232,,92566.11,8,400,,,
break_continue,html.Screen,4_4_2,2023-11-01T18:03:47.150Z,,0,,,NaN,,,,,,false,,,,92563.39999997616,92563.29999995232,,92563.10000002384,,92566.11,8,400,,,
sequence,flow.Sequence,4_4,2023-11-01T18:03:47.150Z,,0,,,3413.7199999523145,completion,,,,,false,,,,92563.60000002384,92563.29999995232,89132.914,89149.79999995232,89149.58,92566.11,8,400,,,
trial,html.Screen,4_5_0,2023-11-01T18:03:50.674Z,,0,1,,3521.090000047683,response,ISIC_8428097.JPG,7,ISIC_0033492.JPG,ISIC_0033492.JPG,false,0,keypress(z),500,96087.60000002384,96087.20000004768,92549.444,92563.70000004768,92566.11,96099.302,8,400,6,,ISIC_8428097.JPG
break,html.Screen,4_5_1,2023-11-01T18:03:50.675Z,,0,,,NaN,,,,,,false,,,,96088.5,96088.20000004768,,96087.79999995232,,96099.302,8,400,,,
break_continue,html.Screen,4_5_2,2023-11-01T18:03:50.675Z,,0,,,NaN,,,,,,false,,,,96088.89999997616,96088.70000004768,,96088.60000002384,,96099.302,8,400,,,
sequence,flow.Sequence,4_5,2023-11-01T18:03:50.676Z,,0,,,3522.590000047683,completion,,,,,false,,,,96089.10000002384,96088.70000004768,92549.444,92563.70000004768,92566.11,96099.302,8,400,,,
trial,html.Screen,4_6_0,2023-11-01T18:03:53.575Z,,0,1,,2888.798000023846,response,ISIC_0033233.JPG,6,ISIC_4848047.JPG,ISIC_0033233.JPG,false,1,keypress(m),500,98988.29999995232,98988.10000002384,96082.636,96089.20000004768,96099.302,99016.119,8,400,7,,ISIC_4848047.JPG
break,html.Screen,4_6_1,2023-11-01T18:03:53.576Z,,0,,,NaN,,,,,,false,,,,98989.10000002384,98988.89999997616,,98988.60000002384,,99016.119,8,400,,,
break_continue,html.Screen,4_6_2,2023-11-01T18:03:53.576Z,,0,,,NaN,,,,,,false,,,,98989.5,98989.39999997616,,98989.20000004768,,99016.119,8,400,,,
sequence,flow.Sequence,4_6,2023-11-01T18:03:53.576Z,,0,,,2890.097999976162,completion,,,,,false,,,,98989.70000004768,98989.39999997616,96082.636,96089.20000004768,96099.302,99016.119,8,400,,,
trial,html.Screen,4_7_0,2023-11-01T18:03:56.721Z,,0,1,,3117.5810000476777,response,ISIC_8284685.JPG,7,ISIC_9047184.JPG,ISIC_9047184.JPG,false,0,keypress(z),500,102134,102133.70000004768,98999.453,98989.79999995232,99016.119,102149.327,8,400,8,,ISIC_8284685.JPG
break,html.Screen,4_7_1,2023-11-01T18:03:56.722Z,,0,,,NaN,,,,,,false,,,,102134.89999997616,102134.70000004768,,102134.20000004768,,102149.327,8,400,,,
break_continue,html.Screen,4_7_2,2023-11-01T18:03:56.722Z,,0,,,NaN,,,,,,false,,,,102135.39999997616,102135.20000004768,,102135,,102149.327,8,400,,,
sequence,flow.Sequence,4_7,2023-11-01T18:03:56.722Z,,0,,,3119.0810000476777,completion,,,,,false,,,,102135.39999997616,102135.20000004768,98999.453,98989.79999995232,99016.119,102149.327,8,400,,,
trial,html.Screen,4_8_0,2023-11-01T18:03:59.656Z,,0,1,,2919.672999999995,response,ISIC_5335139.JPG,8,ISIC_0016161.JPG,ISIC_5335139.JPG,false,1,keypress(m),500,105069.29999995232,105069,102132.661,102135.70000004768,102149.327,105082.543,8,400,9,,ISIC_0016161.JPG
break,html.Screen,4_8_1,2023-11-01T18:03:59.657Z,,0,,,NaN,,,,,,false,,,,105070.10000002384,105069.79999995232,,105069.5,,105082.543,8,400,,,
break_continue,html.Screen,4_8_2,2023-11-01T18:03:59.657Z,,0,,,NaN,,,,,,false,,,,105070.5,105070.29999995232,,105070.29999995232,,105082.543,8,400,,,
sequence,flow.Sequence,4_8,2023-11-01T18:03:59.657Z,,0,,,2920.9729999523115,completion,,,,,false,,,,105070.60000002384,105070.29999995232,102132.661,102135.60000002384,102149.327,105082.543,8,400,,,
trial,html.Screen,4_9_0,2023-11-01T18:04:03.137Z,,0,1,,3466.956999999995,response,ISIC_7667157.JPG,9,ISIC_7242542.JPG,ISIC_7667157.JPG,false,1,keypress(m),500,108549.89999997616,108549.5,105065.877,105070.79999995232,105082.543,108566.01,8,400,10,,ISIC_7242542.JPG
break,html.Screen,4_9_1,2023-11-01T18:04:03.138Z,,0,,,NaN,,,,,,false,,,,108551.10000002384,108550.89999997616,,108550.20000004768,,108566.01,8,400,,,
break_continue,html.Screen,4_9_2,2023-11-01T18:04:03.138Z,,0,,,NaN,,,,,,false,,,,108551.5,108551.29999995232,,108551.20000004768,,108566.01,8,400,,,
sequence,flow.Sequence,4_9,2023-11-01T18:04:03.138Z,,0,,,3468.756999952311,completion,,,,,false,,,,108551.70000004768,108551.29999995232,105065.877,105070.79999995232,105082.543,108566.01,8,400,,,
trial,html.Screen,4_10_0,2023-11-01T18:04:06.759Z,,0,1,,3605.4900000000052,response,ISIC_6128108.JPG,8,ISIC_0027749.JPG,ISIC_6128108.JPG,false,1,keypress(m),500,112171.70000004768,112171.5,108549.344,108551.79999995232,108566.01,112199.198,8,400,11,,ISIC_0027749.JPG
break,html.Screen,4_10_1,2023-11-01T18:04:06.760Z,,0,,,NaN,,,,,,false,,,,112172.5,112172.29999995232,,112171.89999997616,,112199.198,8,400,,,
break_continue,html.Screen,4_10_2,2023-11-01T18:04:06.760Z,,0,,,NaN,,,,,,false,,,,112173,112172.89999997616,,112172.70000004768,,112199.198,8,400,,,
sequence,flow.Sequence,4_10,2023-11-01T18:04:06.760Z,,0,,,3606.8899999761634,completion,,,,,false,,,,112173.10000002384,112172.89999997616,108549.344,108551.70000004768,108566.01,112199.198,8,400,,,
trial,html.Screen,4_11_0,2023-11-01T18:04:12.271Z,,0,1,,5484.201999976154,response,ISIC_8011058.JPG,8,ISIC_1113629.JPG,ISIC_8011058.JPG,false,1,keypress(m),500,117683.70000004768,117683.39999997616,112182.532,112173.20000004768,112199.198,117698.978,8,400,12,,ISIC_1113629.JPG
break,html.Screen,4_11_1,2023-11-01T18:04:12.272Z,,0,,,NaN,,,,,,false,,,,117684.70000004768,117684.39999997616,,117684,,117698.978,8,400,,,
break_continue,html.Screen,4_11_2,2023-11-01T18:04:12.272Z,,0,,,NaN,,,,,,false,,,,117685.10000002384,117684.89999997616,,117684.79999995232,,117698.978,8,400,,,
sequence,flow.Sequence,4_11,2023-11-01T18:04:12.272Z,,0,,,5485.701999976154,completion,,,,,false,,,,117685.29999995232,117684.89999997616,112182.532,112173.20000004768,112199.198,117698.978,8,400,,,
trial,html.Screen,4_12_0,2023-11-01T18:04:16.294Z,,0,1,,4007.8219999523135,response,ISIC_0028009.JPG,5,ISIC_0060380.JPG,ISIC_0060380.JPG,false,0,keypress(z),500,121707.10000002384,121706.79999995232,117682.312,117685.39999997616,117698.978,121715.755,8,400,13,,ISIC_0028009.JPG
break,html.Screen,4_12_1,2023-11-01T18:04:16.295Z,,0,,,NaN,,,,,,false,,,,121708,121707.70000004768,,121707.39999997616,,121715.755,8,400,,,
break_continue,html.Screen,4_12_2,2023-11-01T18:04:16.296Z,,0,,,NaN,,,,,,false,,,,121708.39999997616,121708.29999995232,,121708.20000004768,,121715.755,8,400,,,
sequence,flow.Sequence,4_12,2023-11-01T18:04:16.296Z,,0,,,4009.3219999523135,completion,,,,,false,,,,121708.70000004768,121708.29999995232,117682.312,117685.29999995232,117698.978,121715.755,8,400,,,
trial,html.Screen,4_13_0,2023-11-01T18:04:19.980Z,,0,1,,3677.1449999761535,response,ISIC_0919467.JPG,5,ISIC_9086288.JPG,ISIC_9086288.JPG,false,0,keypress(z),500,125393.10000002384,125392.89999997616,121699.089,121708.70000004768,121715.755,125398.941,8,400,14,,ISIC_0919467.JPG
break,html.Screen,4_13_1,2023-11-01T18:04:19.981Z,,0,,,NaN,,,,,,false,,,,125394,125393.79999995232,,125393.29999995232,,125398.941,8,400,,,
break_continue,html.Screen,4_13_2,2023-11-01T18:04:19.982Z,,0,,,NaN,,,,,,false,,,,125394.5,125394.29999995232,,125394.20000004768,,125398.941,8,400,,,
sequence,flow.Sequence,4_13,2023-11-01T18:04:19.982Z,,0,,,3678.5449999523116,completion,,,,,false,,,,125394.60000002384,125394.29999995232,121699.089,121708.70000004768,121715.755,125398.941,8,400,,,
trial,html.Screen,4_14_0,2023-11-01T18:04:23.543Z,,0,1,,3556.058999999994,response,ISIC_4642695.JPG,7,ISIC_6446753.JPG,ISIC_6446753.JPG,false,0,keypress(z),500,128955.29999995232,128955,125382.275,125394.79999995232,125398.941,128965.729,8,400,15,,ISIC_4642695.JPG
break,html.Screen,4_14_1,2023-11-01T18:04:23.544Z,,0,,,NaN,,,,,,false,,,,128956.20000004768,128955.89999997616,,128955.5,,128965.729,8,400,,,
break_continue,html.Screen,4_14_2,2023-11-01T18:04:23.544Z,,0,,,NaN,,,,,,false,,,,128956.79999995232,128956.70000004768,,128956.5,,128965.729,8,400,,,
sequence,flow.Sequence,4_14,2023-11-01T18:04:23.544Z,,0,,,3557.7590000476775,completion,,,,,false,,,,128957,128956.70000004768,125382.275,125394.70000004768,125398.941,128965.729,8,400,,,
trial,html.Screen,4_15_0,2023-11-01T18:04:26.862Z,,0,1,,3308.1709999761515,response,ISIC_6124481.JPG,8,ISIC_0030150.JPG,ISIC_0030150.JPG,false,0,keypress(z),500,132274.10000002384,132273.89999997616,128949.063,128957.10000002384,128965.729,132282.263,8,400,16,,ISIC_6124481.JPG
break,html.Screen,4_15_1,2023-11-01T18:04:26.862Z,,0,,,NaN,,,,,,false,,,,132275,132274.70000004768,,132274.39999997616,,132282.263,8,400,,,
break_continue,html.Screen,4_15_2,2023-11-01T18:04:26.863Z,,0,,,NaN,,,,,,false,,,,132275.39999997616,132275.29999995232,,132275.10000002384,,132282.263,8,400,,,
sequence,flow.Sequence,4_15,2023-11-01T18:04:26.863Z,,0,,,3309.5709999523096,completion,,,,,false,,,,132275.60000002384,132275.29999995232,128949.063,128957,128965.729,132282.263,8,400,,,
trial,html.Screen,4_16_0,2023-11-01T18:04:30.262Z,,0,1,,3392.136999976152,response,ISIC_0046305.JPG,6,ISIC_0030434.JPG,ISIC_0046305.JPG,false,1,keypress(m),500,135674.70000004768,135674.39999997616,132265.597,132275.70000004768,132282.263,135682.127,8,400,17,,ISIC_0030434.JPG
break,html.Screen,4_16_1,2023-11-01T18:04:30.263Z,,0,,,NaN,,,,,,false,,,,135675.70000004768,135675.39999997616,,135674.89999997616,,135682.127,8,400,,,
break_continue,html.Screen,4_16_2,2023-11-01T18:04:30.264Z,,0,,,NaN,,,,,,false,,,,135676.10000002384,135676,,135675.79999995232,,135682.127,8,400,,,
sequence,flow.Sequence,4_16,2023-11-01T18:04:30.264Z,,0,,,3393.7369999999937,completion,,,,,false,,,,135676.10000002384,135676,132265.597,132275.70000004768,132282.263,135682.127,8,400,,,
trial,html.Screen,4_17_0,2023-11-01T18:04:33.582Z,,0,1,,3311.6729999523086,response,ISIC_5536710.JPG,7,ISIC_3716686.JPG,ISIC_5536710.JPG,false,1,keypress(m),500,138994,138993.79999995232,135665.461,135676.20000004768,135682.127,139015.589,8,400,18,,ISIC_3716686.JPG
break,html.Screen,4_17_1,2023-11-01T18:04:33.582Z,,0,,,NaN,,,,,,false,,,,138994.79999995232,138994.60000002384,,138994.29999995232,,139015.589,8,400,,,
break_continue,html.Screen,4_17_2,2023-11-01T18:04:33.583Z,,0,,,NaN,,,,,,false,,,,138995.29999995232,138995.10000002384,,138995,,139015.589,8,400,,,
sequence,flow.Sequence,4_17,2023-11-01T18:04:33.583Z,,0,,,3312.973000023834,completion,,,,,false,,,,138995.5,138995.10000002384,135665.461,135676.20000004768,135682.127,139015.589,8,400,,,
trial,html.Screen,4_18_0,2023-11-01T18:04:36.643Z,,0,1,,3039.910999999993,response,ISIC_0000541.JPG,6,ISIC_0073119.JPG,ISIC_0000541.JPG,false,1,keypress(m),500,142055.70000004768,142055.5,138998.923,138995.70000004768,139015.589,142065.467,8,400,19,,ISIC_0073119.JPG
break,html.Screen,4_18_1,2023-11-01T18:04:36.644Z,,0,,,NaN,,,,,,false,,,,142056.79999995232,142056.5,,142055.89999997616,,142065.467,8,400,,,
break_continue,html.Screen,4_18_2,2023-11-01T18:04:36.645Z,,0,,,NaN,,,,,,false,,,,142057.10000002384,142057.10000002384,,142056.89999997616,,142065.467,8,400,,,
sequence,flow.Sequence,4_18,2023-11-01T18:04:36.645Z,,0,,,3041.5110000238346,completion,,,,,false,,,,142057.39999997616,142057.10000002384,138998.923,138995.60000002384,139015.589,142065.467,8,400,,,
trial,html.Screen,4_19_0,2023-11-01T18:04:40.264Z,,0,1,,3610.6330000238377,response,ISIC_0962121.JPG,6,ISIC_6860222.JPG,ISIC_6860222.JPG,false,0,keypress(z),500,145676.29999995232,145676.10000002384,142048.801,142057.5,142065.467,145698.655,8,400,20,,ISIC_0962121.JPG
break,html.Screen,4_19_1,2023-11-01T18:04:40.265Z,,0,,,NaN,,,,,,false,,,,145677.20000004768,145677.10000002384,,145676.70000004768,,145698.655,8,400,,,
break_continue,html.Screen,4_19_2,2023-11-01T18:04:40.265Z,,0,,,NaN,,,,,,false,,,,145677.60000002384,145677.5,,145677.39999997616,,145698.655,8,400,,,
sequence,flow.Sequence,4_19,2023-11-01T18:04:40.266Z,,0,,,3612.032999999996,completion,,,,,false,,,,145677.79999995232,145677.5,142048.801,142057.5,142065.467,145698.655,8,400,,,
trial,html.Screen,4_20_0,2023-11-01T18:04:43.421Z,,0,1,,3134.445000023843,response,ISIC_6839272.JPG,7,ISIC_6020636.JPG,ISIC_6839272.JPG,false,1,keypress(m),500,148833.39999997616,148833.10000002384,145681.989,145678,145698.655,148848.529,8,400,21,,ISIC_6020636.JPG
break,html.Screen,4_20_1,2023-11-01T18:04:43.422Z,,0,,,NaN,,,,,,false,,,,148834.5,148834.10000002384,,148833.70000004768,,148848.529,8,400,,,
break_continue,html.Screen,4_20_2,2023-11-01T18:04:43.423Z,,0,,,NaN,,,,,,false,,,,148835.5,148835.20000004768,,148834.60000002384,,148848.529,8,400,,,
sequence,flow.Sequence,4_20,2023-11-01T18:04:43.423Z,,0,,,3136.545000047685,completion,,,,,false,,,,148835.70000004768,148835.20000004768,145681.989,145677.89999997616,145698.655,148848.529,8,400,,,
trial,html.Screen,4_21_0,2023-11-01T18:04:46.202Z,,0,1,,2765.2709999523067,response,ISIC_0015291.JPG,7,ISIC_0031013.JPG,ISIC_0031013.JPG,false,0,keypress(z),500,151614.10000002384,151613.79999995232,148831.863,148837.20000004768,148848.529,151632.022,8,400,22,,ISIC_0015291.JPG
break,html.Screen,4_21_1,2023-11-01T18:04:46.203Z,,0,,,NaN,,,,,,false,,,,151614.79999995232,151614.60000002384,,151614.29999995232,,151632.022,8,400,,,
break_continue,html.Screen,4_21_2,2023-11-01T18:04:46.203Z,,0,,,NaN,,,,,,false,,,,151615.20000004768,151615.10000002384,,151614.89999997616,,151632.022,8,400,,,
sequence,flow.Sequence,4_21,2023-11-01T18:04:46.203Z,,0,,,2766.5710000238323,completion,,,,,false,,,,151615.39999997616,151615.10000002384,148831.863,148837.10000002384,148848.529,151632.022,8,400,,,
trial,html.Screen,4_22_0,2023-11-01T18:04:49.318Z,,0,1,,3097.377999976161,response,ISIC_0029910.JPG,6,ISIC_0011458.JPG,ISIC_0011458.JPG,false,0,keypress(z),500,154729.79999995232,154729.39999997616,151615.356,151615.60000002384,151632.022,154731.898,8,400,23,,ISIC_0029910.JPG
break,html.Screen,4_22_1,2023-11-01T18:04:49.319Z,,0,,,NaN,,,,,,false,,,,154730.60000002384,154730.39999997616,,154729.89999997616,,154731.898,8,400,,,
break_continue,html.Screen,4_22_2,2023-11-01T18:04:49.319Z,,0,,,NaN,,,,,,false,,,,154731,154730.89999997616,,154730.70000004768,,154731.898,8,400,,,
sequence,flow.Sequence,4_22,2023-11-01T18:04:49.319Z,,0,,,3098.877999976161,completion,,,,,false,,,,154731.29999995232,154730.89999997616,151615.356,151615.60000002384,151632.022,154731.898,8,400,,,
trial,html.Screen,4_23_0,2023-11-01T18:04:52.283Z,,0,1,,2962.90199995233,response,ISIC_0024679.JPG,7,ISIC_2436560.JPG,ISIC_0024679.JPG,false,1,keypress(m),500,157695.20000004768,157694.79999995232,154715.232,154731.29999995232,154731.898,157698.446,8,400,24,,ISIC_2436560.JPG
break,html.Screen,4_23_1,2023-11-01T18:04:52.284Z,,0,,,NaN,,,,,,false,,,,157696.10000002384,157695.79999995232,,157695.39999997616,,157698.446,8,400,,,
break_continue,html.Screen,4_23_2,2023-11-01T18:04:52.285Z,,0,,,NaN,,,,,,false,,,,157696.39999997616,157696.39999997616,,157696.20000004768,,157698.446,8,400,,,
sequence,flow.Sequence,4_23,2023-11-01T18:04:52.285Z,,0,,,2964.5019999761716,completion,,,,,false,,,,157696.60000002384,157696.39999997616,154715.232,154731.29999995232,154731.898,157698.446,8,400,,,
trial,html.Screen,4_24_0,2023-11-01T18:04:55.218Z,,0,1,,2931.5540000000037,response,ISIC_6344073.JPG,7,ISIC_0013731.JPG,ISIC_0013731.JPG,false,0,keypress(z),500,160630.39999997616,160630,157681.78,157696.70000004768,157698.446,160631.933,8,400,25,,ISIC_6344073.JPG
break,html.Screen,4_24_1,2023-11-01T18:04:55.219Z,,0,,,NaN,,,,,,false,,,,160631.20000004768,160631,,160630.60000002384,,160631.933,8,400,,,
break_continue,html.Screen,4_24_2,2023-11-01T18:04:55.220Z,,0,,,NaN,,,,,,false,,,,160631.70000004768,160631.60000002384,,160631.39999997616,,160631.933,8,400,,,
sequence,flow.Sequence,4_24,2023-11-01T18:04:55.220Z,,0,,,2933.1540000238456,completion,,,,,false,,,,160631.89999997616,160631.60000002384,157681.78,157696.70000004768,157698.446,160631.933,8,400,,,
trial,html.Screen,4_25_0,2023-11-01T18:04:58.173Z,,0,1,,2952.466999976168,response,ISIC_2528656.JPG,8,ISIC_3763984.JPG,ISIC_3763984.JPG,false,0,keypress(z),500,163584.70000004768,163584.39999997616,160615.267,160632,160631.933,163598.481,8,400,26,,ISIC_2528656.JPG
break,html.Screen,4_25_1,2023-11-01T18:04:58.174Z,,0,,,NaN,,,,,,false,,,,163585.60000002384,163585.39999997616,,163584.89999997616,,163598.481,8,400,,,
break_continue,html.Screen,4_25_2,2023-11-01T18:04:58.174Z,,0,,,NaN,,,,,,false,,,,163586.10000002384,163585.89999997616,,163585.79999995232,,163598.481,8,400,,,
sequence,flow.Sequence,4_25,2023-11-01T18:04:58.174Z,,0,,,2953.966999976168,completion,,,,,false,,,,163586.20000004768,163585.89999997616,160615.267,160632,160631.933,163598.481,8,400,,,
trial,html.Screen,4_26_0,2023-11-01T18:05:01.159Z,,0,1,,2971.719000047684,response,ISIC_8287726.JPG,6,ISIC_0014093.JPG,ISIC_8287726.JPG,false,1,keypress(m),500,166570.60000002384,166570.20000004768,163581.815,163587.60000002384,163598.481,166581.695,8,400,27,,ISIC_0014093.JPG
break,html.Screen,4_26_1,2023-11-01T18:05:01.160Z,,0,,,NaN,,,,,,false,,,,166571.5,166571.20000004768,,166570.79999995232,,166581.695,8,400,,,
break_continue,html.Screen,4_26_2,2023-11-01T18:05:01.160Z,,0,,,NaN,,,,,,false,,,,166571.89999997616,166571.70000004768,,166571.60000002384,,166581.695,8,400,,,
sequence,flow.Sequence,4_26,2023-11-01T18:05:01.160Z,,0,,,2973.219000047684,completion,,,,,false,,,,166572.10000002384,166571.70000004768,163581.815,163587.5,163598.481,166581.695,8,400,,,
trial,html.Screen,4_27_0,2023-11-01T18:05:04.081Z,,0,1,,2910.304999999993,response,ISIC_0032152.JPG,8,ISIC_5065360.JPG,ISIC_0032152.JPG,false,1,keypress(m),500,169492.20000004768,169492,166565.029,166572.20000004768,166581.695,169498.245,8,400,28,,ISIC_5065360.JPG
break,html.Screen,4_27_1,2023-11-01T18:05:04.081Z,,0,,,NaN,,,,,,false,,,,169493,169492.79999995232,,169492.39999997616,,169498.245,8,400,,,
break_continue,html.Screen,4_27_2,2023-11-01T18:05:04.082Z,,0,,,NaN,,,,,,false,,,,169493.39999997616,169493.20000004768,,169493.10000002384,,169498.245,8,400,,,
sequence,flow.Sequence,4_27,2023-11-01T18:05:04.082Z,,0,,,2911.5050000476767,completion,,,,,false,,,,169493.5,169493.20000004768,166565.029,166572.20000004768,166581.695,169498.245,8,400,,,
trial,html.Screen,4_28_0,2023-11-01T18:05:07.384Z,,0,1,,3297.2550000000047,response,ISIC_0011434.JPG,5,ISIC_0061848.JPG,ISIC_0061848.JPG,false,0,keypress(z),500,172795.70000004768,172795.5,169481.579,169493.70000004768,169498.245,172798.382,8,400,29,,ISIC_0011434.JPG
break,html.Screen,4_28_1,2023-11-01T18:05:07.385Z,,0,,,NaN,,,,,,false,,,,172796.60000002384,172796.5,,172796,,172798.382,8,400,,,
break_continue,html.Screen,4_28_2,2023-11-01T18:05:07.386Z,,0,,,NaN,,,,,,false,,,,172797.10000002384,172796.89999997616,,172796.79999995232,,172798.382,8,400,,,
sequence,flow.Sequence,4_28,2023-11-01T18:05:07.386Z,,0,,,3298.654999976163,completion,,,,,false,,,,172797.20000004768,172796.89999997616,169481.579,169493.60000002384,169498.245,172798.382,8,400,,,
trial,html.Screen,4_29_0,2023-11-01T18:05:10.654Z,,0,1,,3267.017999976146,response,ISIC_4099428.JPG,7,ISIC_0031463.JPG,ISIC_0031463.JPG,false,0,keypress(z),500,176065.70000004768,176065.39999997616,172781.716,172797.29999995232,172798.382,176081.584,8,400,30,,ISIC_4099428.JPG
break,html.Screen,4_29_1,2023-11-01T18:05:10.655Z,,0,,,NaN,,,,,,false,,,,176066.70000004768,176066.5,,176066.10000002384,,176081.584,8,400,,,
break_continue,html.Screen,4_29_2,2023-11-01T18:05:10.656Z,,0,,,NaN,,,,,,false,,,,176067,176066.89999997616,,176066.79999995232,,176081.584,8,400,,,
sequence,flow.Sequence,4_29,2023-11-01T18:05:10.656Z,,0,,,3268.517999976146,completion,,,,,false,,,,176067.20000004768,176066.89999997616,172781.716,172797.29999995232,172798.382,176081.584,8,400,,,
trial,html.Screen,4_30_0,2023-11-01T18:05:13.479Z,,0,1,,2808.116000047681,response,ISIC_7008335.JPG,7,ISIC_0025900.JPG,ISIC_7008335.JPG,false,1,keypress(m),500,178890.10000002384,178889.70000004768,176064.918,176067.29999995232,176081.584,178898.138,8,400,31,,ISIC_0025900.JPG
break,html.Screen,4_30_1,2023-11-01T18:05:13.480Z,,0,,,NaN,,,,,,false,,,,178890.89999997616,178890.70000004768,,178890.20000004768,,178898.138,8,400,,,
break_continue,html.Screen,4_30_2,2023-11-01T18:05:13.480Z,,0,,,NaN,,,,,,false,,,,178891.29999995232,178891.20000004768,,178891.10000002384,,178898.138,8,400,,,
sequence,flow.Sequence,4_30,2023-11-01T18:05:13.480Z,,0,,,2809.616000047681,completion,,,,,false,,,,178891.5,178891.20000004768,176064.918,176067.29999995232,176081.584,178898.138,8,400,,,
trial,html.Screen,4_31_0,2023-11-01T18:05:16.574Z,,0,1,,3087.0620000476774,response,ISIC_5422940.JPG,8,ISIC_3947876.JPG,ISIC_5422940.JPG,false,1,keypress(m),500,181985.5,181985.20000004768,178881.472,178892.89999997616,178898.138,181998.287,8,400,32,,ISIC_3947876.JPG
break,html.Screen,4_31_1,2023-11-01T18:05:16.575Z,,0,,,NaN,,,,,,false,,,,181986.5,181986.20000004768,,181985.70000004768,,181998.287,8,400,,,
break_continue,html.Screen,4_31_2,2023-11-01T18:05:16.576Z,,0,,,NaN,,,,,,false,,,,181986.89999997616,181986.70000004768,,181986.60000002384,,181998.287,8,400,,,
sequence,flow.Sequence,4_31,2023-11-01T18:05:16.576Z,,0,,,3088.5620000476774,completion,,,,,false,,,,181987,181986.70000004768,178881.472,178892.89999997616,178898.138,181998.287,8,400,,,
trial,html.Screen,4_32_0,2023-11-01T18:05:19.652Z,,0,1,,3064.9130000476725,response,ISIC_0027537.JPG,7,ISIC_9107280.JPG,ISIC_9107280.JPG,false,0,keypress(z),500,185063.39999997616,185063.20000004768,181981.621,181987.20000004768,181998.287,185064.831,8,400,33,,ISIC_0027537.JPG
break,html.Screen,4_32_1,2023-11-01T18:05:19.653Z,,0,,,NaN,,,,,,false,,,,185064.29999995232,185064,,185063.60000002384,,185064.831,8,400,,,
break_continue,html.Screen,4_32_2,2023-11-01T18:05:19.653Z,,0,,,NaN,,,,,,false,,,,185064.70000004768,185064.5,,185064.5,,185064.831,8,400,,,
sequence,flow.Sequence,4_32,2023-11-01T18:05:19.654Z,,0,,,3066.212999999989,completion,,,,,false,,,,185064.79999995232,185064.5,181981.621,181987.20000004768,181998.287,185064.831,8,400,,,
trial,html.Screen,4_33_0,2023-11-01T18:05:23.386Z,,0,1,,3731.6689999999944,response,ISIC_8419663.JPG,6,ISIC_7096389.JPG,ISIC_7096389.JPG,false,0,keypress(z),500,188796.70000004768,188796.5,185048.165,185065,185064.831,188814.681,8,400,34,,ISIC_8419663.JPG
break,html.Screen,4_33_1,2023-11-01T18:05:23.386Z,,0,,,NaN,,,,,,false,,,,188797.60000002384,188797.29999995232,,188797,,188814.681,8,400,,,
break_continue,html.Screen,4_33_2,2023-11-01T18:05:23.387Z,,0,,,NaN,,,,,,false,,,,188797.89999997616,188797.79999995232,,188797.60000002384,,188814.681,8,400,,,
sequence,flow.Sequence,4_33,2023-11-01T18:05:23.387Z,,0,,,3732.9689999523107,completion,,,,,false,,,,188798.10000002384,188797.79999995232,185048.165,185065,185064.831,188814.681,8,400,,,
trial,html.Screen,4_34_0,2023-11-01T18:05:26.799Z,,0,1,,3395.118999952305,response,ISIC_7892362.JPG,7,ISIC_6239663.JPG,ISIC_7892362.JPG,false,1,keypress(m),500,192210.20000004768,192209.79999995232,188798.015,188798.29999995232,188814.681,192214.817,8,400,35,,ISIC_6239663.JPG
break,html.Screen,4_34_1,2023-11-01T18:05:26.800Z,,0,,,NaN,,,,,,false,,,,192211,192210.79999995232,,192210.29999995232,,192214.817,8,400,,,
break_continue,html.Screen,4_34_2,2023-11-01T18:05:26.800Z,,0,,,NaN,,,,,,false,,,,192211.39999997616,192211.29999995232,,192211.20000004768,,192214.817,8,400,,,
sequence,flow.Sequence,4_34,2023-11-01T18:05:26.800Z,,0,,,3396.618999952305,completion,,,,,false,,,,192211.5,192211.29999995232,188798.015,188798.20000004768,188814.681,192214.817,8,400,,,
trial,html.Screen,4_35_0,2023-11-01T18:05:30.408Z,,0,1,,3604.283000023832,response,ISIC_0032005.JPG,7,ISIC_0057328.JPG,ISIC_0057328.JPG,false,0,keypress(z),500,195819.29999995232,195819.10000002384,192198.151,192211.70000004768,192214.817,195831.339,8,400,36,,ISIC_0032005.JPG
break,html.Screen,4_35_1,2023-11-01T18:05:30.409Z,,0,,,NaN,,,,,,false,,,,195820.39999997616,195819.89999997616,,195819.60000002384,,195831.339,8,400,,,
break_continue,html.Screen,4_35_2,2023-11-01T18:05:30.410Z,,0,,,NaN,,,,,,false,,,,195820.70000004768,195820.70000004768,,195820.5,,195831.339,8,400,,,
sequence,flow.Sequence,4_35,2023-11-01T18:05:30.410Z,,0,,,3605.8830000476737,completion,,,,,false,,,,195820.89999997616,195820.70000004768,192198.151,192211.60000002384,192214.817,195831.339,8,400,,,
trial,html.Screen,4_36_0,2023-11-01T18:05:35.249Z,,0,1,,4827.960999952309,response,ISIC_3649766.JPG,8,ISIC_2331656.JPG,ISIC_3649766.JPG,false,1,keypress(m),500,200659.5,200659.29999995232,195814.673,195821.10000002384,195831.339,200664.479,8,400,37,,ISIC_2331656.JPG
break,html.Screen,4_36_1,2023-11-01T18:05:35.249Z,,0,,,NaN,,,,,,false,,,,200660.20000004768,200660.10000002384,,200659.79999995232,,200664.479,8,400,,,
break_continue,html.Screen,4_36_2,2023-11-01T18:05:35.250Z,,0,,,NaN,,,,,,false,,,,200660.60000002384,200660.5,,200660.39999997616,,200664.479,8,400,,,
sequence,flow.Sequence,4_36,2023-11-01T18:05:35.250Z,,0,,,4829.160999999993,completion,,,,,false,,,,200660.79999995232,200660.5,195814.673,195821,195831.339,200664.479,8,400,,,
trial,html.Screen,4_37_0,2023-11-01T18:05:38.901Z,,0,1,,3646.7210000476916,response,ISIC_0011276.JPG,6,ISIC_0011797.JPG,ISIC_0011276.JPG,false,1,keypress(m),500,204311.39999997616,204311.20000004768,200647.813,200660.89999997616,200664.479,204314.603,8,400,38,,ISIC_0011797.JPG
break,html.Screen,4_37_1,2023-11-01T18:05:38.902Z,,0,,,NaN,,,,,,false,,,,204312.29999995232,204312.10000002384,,204311.70000004768,,204314.603,8,400,,,
break_continue,html.Screen,4_37_2,2023-11-01T18:05:38.902Z,,0,,,NaN,,,,,,false,,,,204312.79999995232,204312.70000004768,,204312.60000002384,,204314.603,8,400,,,
sequence,flow.Sequence,4_37,2023-11-01T18:05:38.902Z,,0,,,3648.2210000476916,completion,,,,,false,,,,204312.89999997616,204312.70000004768,200647.813,200660.79999995232,200664.479,204314.603,8,400,,,
trial,html.Screen,4_38_0,2023-11-01T18:05:42.125Z,,0,1,,3220.597000047681,response,ISIC_0062497.JPG,5,ISIC_0002862.JPG,ISIC_0062497.JPG,false,1,keypress(m),500,207535.5,207535.20000004768,204297.937,204313.10000002384,204314.603,207547.807,8,400,39,,ISIC_0002862.JPG
break,html.Screen,4_38_1,2023-11-01T18:05:42.126Z,,0,,,NaN,,,,,,false,,,,207536.39999997616,207536.20000004768,,207535.70000004768,,207547.807,8,400,,,
break_continue,html.Screen,4_38_2,2023-11-01T18:05:42.126Z,,0,,,NaN,,,,,,false,,,,207536.79999995232,207536.70000004768,,207536.5,,207547.807,8,400,,,
sequence,flow.Sequence,4_38,2023-11-01T18:05:42.126Z,,0,,,3222.097000047681,completion,,,,,false,,,,207537,207536.70000004768,204297.937,204313.10000002384,204314.603,207547.807,8,400,,,
trial,html.Screen,4_39_0,2023-11-01T18:05:45.876Z,,0,1,,3738.1929999999993,response,ISIC_0056660.JPG,8,ISIC_0014826.JPG,ISIC_0056660.JPG,false,1,keypress(m),500,211286.29999995232,211286,207531.141,207537.20000004768,207547.807,211297.922,8,400,40,,ISIC_0014826.JPG
break,html.Screen,4_39_1,2023-11-01T18:05:45.877Z,,0,,,NaN,,,,,,false,,,,211287.20000004768,211286.89999997616,,211286.5,,211297.922,8,400,,,
break_continue,html.Screen,4_39_2,2023-11-01T18:05:45.877Z,,0,,,NaN,,,,,,false,,,,211287.60000002384,211287.5,,211287.29999995232,,211297.922,8,400,,,
sequence,flow.Sequence,4_39,2023-11-01T18:05:45.877Z,,0,,,3739.6929999999993,completion,,,,,false,,,,211287.70000004768,211287.5,207531.141,207537.10000002384,207547.807,211297.922,8,400,,,
trial,html.Screen,4_40_0,2023-11-01T18:05:48.986Z,,0,1,,3098.4779999761668,response,ISIC_0010397.JPG,7,ISIC_8284685.JPG,ISIC_0010397.JPG,false,1,keypress(m),500,214396.70000004768,214396.39999997616,211281.256,211287.89999997616,211297.922,214397.798,8,400,41,,ISIC_8284685.JPG
break,html.Screen,4_40_1,2023-11-01T18:05:48.987Z,,0,,,NaN,,,,,,false,,,,214397.60000002384,214397.39999997616,,214397,,214397.798,8,400,,,
break_continue,html.Screen,4_40_2,2023-11-01T18:05:48.988Z,,0,,,NaN,,,,,,false,,,,214398,214398,,214397.79999995232,,214397.798,8,400,,,
sequence,flow.Sequence,4_40,2023-11-01T18:05:48.988Z,,0,,,3100.0780000000086,completion,,,,,false,,,,214398.20000004768,214398,211281.256,211287.89999997616,211297.922,214397.798,8,400,,,
trial,html.Screen,4_41_0,2023-11-01T18:05:52.848Z,,0,1,,3860.0019999523065,response,ISIC_0006772.JPG,6,ISIC_0973194.JPG,ISIC_0973194.JPG,false,0,keypress(z),500,218258.10000002384,218257.79999995232,214381.132,214398.39999997616,214397.798,218264.31,8,400,42,,ISIC_0006772.JPG
break,html.Screen,4_41_1,2023-11-01T18:05:52.849Z,,0,,,NaN,,,,,,false,,,,218258.89999997616,218258.70000004768,,218258.29999995232,,218264.31,8,400,,,
break_continue,html.Screen,4_41_2,2023-11-01T18:05:52.849Z,,0,,,NaN,,,,,,false,,,,218259.39999997616,218259.20000004768,,218259.10000002384,,218264.31,8,400,,,
sequence,flow.Sequence,4_41,2023-11-01T18:05:52.849Z,,0,,,3861.402000047674,completion,,,,,false,,,,218259.60000002384,218259.20000004768,214381.132,214398.29999995232,214397.798,218264.31,8,400,,,
trial,html.Screen,4_42_0,2023-11-01T18:05:56.152Z,,0,1,,3297.4899999523186,response,ISIC_0000848.JPG,7,ISIC_0028019.JPG,ISIC_0028019.JPG,false,0,keypress(z),500,221562.10000002384,221561.79999995232,218247.644,218259.70000004768,218264.31,221564.447,8,400,43,,ISIC_0000848.JPG
break,html.Screen,4_42_1,2023-11-01T18:05:56.153Z,,0,,,NaN,,,,,,false,,,,221562.89999997616,221562.70000004768,,221562.29999995232,,221564.447,8,400,,,
break_continue,html.Screen,4_42_2,2023-11-01T18:05:56.153Z,,0,,,NaN,,,,,,false,,,,221563.39999997616,221563.29999995232,,221563.10000002384,,221564.447,8,400,,,
sequence,flow.Sequence,4_42,2023-11-01T18:05:56.153Z,,0,,,3298.9899999523186,completion,,,,,false,,,,221563.60000002384,221563.29999995232,218247.644,218259.70000004768,218264.31,221564.447,8,400,,,
trial,html.Screen,4_43_0,2023-11-01T18:05:59.710Z,,0,1,,3555.1530000238563,response,ISIC_0283957.JPG,6,ISIC_5961092.JPG,ISIC_5961092.JPG,false,0,keypress(z),500,225119.89999997616,225119.60000002384,221547.781,221563.70000004768,221564.447,225130.971,8,400,44,,ISIC_0283957.JPG
break,html.Screen,4_43_1,2023-11-01T18:05:59.710Z,,0,,,NaN,,,,,,false,,,,225120.79999995232,225120.5,,225120.10000002384,,225130.971,8,400,,,
break_continue,html.Screen,4_43_2,2023-11-01T18:05:59.711Z,,0,,,NaN,,,,,,false,,,,225121.20000004768,225121,,225120.89999997616,,225130.971,8,400,,,
sequence,flow.Sequence,4_43,2023-11-01T18:05:59.711Z,,0,,,3556.5530000000144,completion,,,,,false,,,,225121.39999997616,225121,221547.781,221563.70000004768,221564.447,225130.971,8,400,,,
trial,html.Screen,4_44_0,2023-11-01T18:06:03.958Z,,0,1,,4236.629000023851,response,ISIC_0010783.JPG,8,ISIC_2513933.JPG,ISIC_0010783.JPG,false,1,keypress(m),500,229367.79999995232,229367.60000002384,225114.305,225121.5,225130.971,229380.801,8,400,45,,ISIC_2513933.JPG
break,html.Screen,4_44_1,2023-11-01T18:06:03.959Z,,0,,,NaN,,,,,,false,,,,229368.70000004768,229368.5,,229368.10000002384,,229380.801,8,400,,,
break_continue,html.Screen,4_44_2,2023-11-01T18:06:03.959Z,,0,,,NaN,,,,,,false,,,,229369.20000004768,229369.10000002384,,229368.89999997616,,229380.801,8,400,,,
sequence,flow.Sequence,4_44,2023-11-01T18:06:03.959Z,,0,,,4238.129000023851,completion,,,,,false,,,,229369.39999997616,229369.10000002384,225114.305,225121.39999997616,225130.971,229380.801,8,400,,,
trial,html.Screen,4_45_0,2023-11-01T18:06:08.396Z,,0,1,,4424.9989999523095,response,ISIC_5423896.JPG,6,ISIC_0026244.JPG,ISIC_0026244.JPG,false,0,keypress(z),500,233806.10000002384,233805.79999995232,229364.135,229369.5,229380.801,233814.227,8,400,46,,ISIC_5423896.JPG
break,html.Screen,4_45_1,2023-11-01T18:06:08.397Z,,0,,,NaN,,,,,,false,,,,233807,233806.79999995232,,233806.29999995232,,233814.227,8,400,,,
break_continue,html.Screen,4_45_2,2023-11-01T18:06:08.397Z,,0,,,NaN,,,,,,false,,,,233807.39999997616,233807.39999997616,,233807.20000004768,,233814.227,8,400,,,
sequence,flow.Sequence,4_45,2023-11-01T18:06:08.398Z,,0,,,4426.598999976151,completion,,,,,false,,,,233807.60000002384,233807.39999997616,229364.135,229369.5,229380.801,233814.227,8,400,,,
trial,html.Screen,4_46_0,2023-11-01T18:06:12.085Z,,0,1,,3680.6729999761446,response,ISIC_0000446.JPG,6,ISIC_8796456.JPG,ISIC_0000446.JPG,false,1,keypress(m),500,237495.29999995232,237494.89999997616,233797.561,233807.70000004768,233814.227,237497.413,8,400,47,,ISIC_8796456.JPG
break,html.Screen,4_46_1,2023-11-01T18:06:12.086Z,,0,,,NaN,,,,,,false,,,,237496.10000002384,237495.89999997616,,237495.5,,237497.413,8,400,,,
break_continue,html.Screen,4_46_2,2023-11-01T18:06:12.087Z,,0,,,NaN,,,,,,false,,,,237496.5,237496.39999997616,,237496.29999995232,,237497.413,8,400,,,
sequence,flow.Sequence,4_46,2023-11-01T18:06:12.087Z,,0,,,3682.1729999761446,completion,,,,,false,,,,237496.70000004768,237496.39999997616,233797.561,233807.70000004768,233814.227,237497.413,8,400,,,
trial,html.Screen,4_47_0,2023-11-01T18:06:15.243Z,,0,1,,3154.7870000476833,response,ISIC_0057702.JPG,6,ISIC_7184722.JPG,ISIC_7184722.JPG,false,0,keypress(z),500,240653,240652.20000004768,237480.747,237496.89999997616,237497.413,240663.953,8,400,48,,ISIC_0057702.JPG
break,html.Screen,4_47_1,2023-11-01T18:06:15.244Z,,0,,,NaN,,,,,,false,,,,240654,240653.70000004768,,240653.29999995232,,240663.953,8,400,,,
break_continue,html.Screen,4_47_2,2023-11-01T18:06:15.245Z,,0,,,NaN,,,,,,false,,,,240654.5,240654.29999995232,,240654.20000004768,,240663.953,8,400,,,
sequence,flow.Sequence,4_47,2023-11-01T18:06:15.245Z,,0,,,3156.886999952316,completion,,,,,false,,,,240654.60000002384,240654.29999995232,237480.747,237496.89999997616,237497.413,240663.953,8,400,,,
trial,html.Screen,4_48_0,2023-11-01T18:06:18.416Z,,0,1,,3161.9469999761495,response,ISIC_0031077.JPG,5,ISIC_0029212.JPG,ISIC_0031077.JPG,false,1,keypress(m),500,243826,243825.89999997616,240647.287,240654.70000004768,240663.953,243830.762,8,400,49,,ISIC_0029212.JPG
break,html.Screen,4_48_1,2023-11-01T18:06:18.417Z,,0,,,NaN,,,,,,false,,,,243826.5,243826.29999995232,,243826.20000004768,,243830.762,8,400,,,
break_continue,html.Screen,4_48_2,2023-11-01T18:06:18.417Z,,0,,,NaN,,,,,,false,,,,243826.70000004768,243826.70000004768,,243826.5,,243830.762,8,400,,,
sequence,flow.Sequence,4_48,2023-11-01T18:06:18.417Z,,0,,,3162.747000047675,completion,,,,,false,,,,243826.79999995232,243826.70000004768,240647.287,240654.70000004768,240663.953,243830.762,8,400,,,
trial,html.Screen,4_49_0,2023-11-01T18:06:24.501Z,,0,1,,6079.738000000012,response,ISIC_0070711.JPG,7,ISIC_3430447.JPG,ISIC_0070711.JPG,false,1,keypress(m),500,249910.79999995232,249910.5,243814.096,243826.89999997616,243830.762,249913.852,8,400,50,,ISIC_3430447.JPG
break,html.Screen,4_49_1,2023-11-01T18:06:34.492Z,,0,,,9999.862999999983,timeout,,,,,false,,,,259901,259897.049,249897.186,249911.10000002384,249913.852,259913.715,8,400,,,
break_continue,html.Screen,4_49_2,2023-11-01T18:06:46.341Z,,0,,,11818.184999976162,response,,,,,false,continue,keypress(Space),,271750.2000000477,271731.89999997616,259897.049,259901.20000004768,259913.715,271763.241,8,400,,,
sequence,flow.Sequence,4_49,2023-11-01T18:06:46.341Z,,0,,,27901.13799997617,completion,,,,,false,,,,271750.2999999523,271731.89999997616,243814.096,243826.89999997616,243830.762,271763.241,8,400,,,
trial,html.Screen,4_50_0,2023-11-01T18:06:49.385Z,,0,2,,3030.75900000002,response,ISIC_0054146.JPG,8,ISIC_0231167.JPG,ISIC_0054146.JPG,false,1,keypress(m),500,274794.2000000477,274794,271746.575,271750.2999999523,271763.241,274796.977,8,400,1,,ISIC_0231167.JPG
break,html.Screen,4_50_1,2023-11-01T18:06:49.386Z,,0,,,NaN,,,,,,false,,,,274795.10000002384,274794.89999997616,,274794.5,,274796.977,8,400,,,
break_continue,html.Screen,4_50_2,2023-11-01T18:06:49.387Z,,0,,,NaN,,,,,,false,,,,274795.60000002384,274795.5,,274795.39999997616,,274796.977,8,400,,,
sequence,flow.Sequence,4_50,2023-11-01T18:06:49.387Z,,0,,,3032.25900000002,completion,,,,,false,,,,274795.89999997616,274795.5,271746.575,271750.2999999523,271763.241,274796.977,8,400,,,
trial,html.Screen,4_51_0,2023-11-01T18:06:52.621Z,,0,2,,3233.1230000238284,response,ISIC_5564757.JPG,7,ISIC_0000411.JPG,ISIC_0000411.JPG,false,0,keypress(z),500,278030.39999997616,278030.10000002384,274780.311,274796,274796.977,278046.847,8,400,2,,ISIC_5564757.JPG
break,html.Screen,4_51_1,2023-11-01T18:06:52.622Z,,0,,,NaN,,,,,,false,,,,278031.2999999523,278031,,278030.60000002384,,278046.847,8,400,,,
break_continue,html.Screen,4_51_2,2023-11-01T18:06:52.623Z,,0,,,NaN,,,,,,false,,,,278031.60000002384,278031.60000002384,,278031.39999997616,,278046.847,8,400,,,
sequence,flow.Sequence,4_51,2023-11-01T18:06:52.623Z,,0,,,3234.6230000238284,completion,,,,,false,,,,278031.7999999523,278031.60000002384,274780.311,274796,274796.977,278046.847,8,400,,,
trial,html.Screen,4_52_0,2023-11-01T18:06:55.910Z,,0,2,,3272.0529999761493,response,ISIC_6271218.JPG,8,ISIC_0654846.JPG,ISIC_0654846.JPG,false,0,keypress(z),500,281319.2000000477,281318.89999997616,278030.181,278031.89999997616,278046.847,281330.049,8,400,3,,ISIC_6271218.JPG
break,html.Screen,4_52_1,2023-11-01T18:06:55.911Z,,0,,,NaN,,,,,,false,,,,281320.10000002384,281319.89999997616,,281319.39999997616,,281330.049,8,400,,,
break_continue,html.Screen,4_52_2,2023-11-01T18:06:55.912Z,,0,,,NaN,,,,,,false,,,,281320.60000002384,281320.39999997616,,281320.2999999523,,281330.049,8,400,,,
sequence,flow.Sequence,4_52,2023-11-01T18:06:55.912Z,,0,,,3273.5529999761493,completion,,,,,false,,,,281320.7000000477,281320.39999997616,278030.181,278031.89999997616,278046.847,281330.049,8,400,,,
trial,html.Screen,4_53_0,2023-11-01T18:06:59.020Z,,0,2,,3098.551000023843,response,ISIC_6373689.JPG,7,ISIC_0028692.JPG,ISIC_0028692.JPG,false,0,keypress(z),500,284428.89999997616,284428.60000002384,281313.383,281320.89999997616,281330.049,284430.202,8,400,4,,ISIC_6373689.JPG
break,html.Screen,4_53_1,2023-11-01T18:06:59.021Z,,0,,,NaN,,,,,,false,,,,284429.7000000477,284429.5,,284429.10000002384,,284430.202,8,400,,,
break_continue,html.Screen,4_53_2,2023-11-01T18:06:59.021Z,,0,,,NaN,,,,,,false,,,,284430.10000002384,284430,,284429.89999997616,,284430.202,8,400,,,
sequence,flow.Sequence,4_53,2023-11-01T18:06:59.021Z,,0,,,3099.951000000001,completion,,,,,false,,,,284430.2999999523,284430,281313.383,281320.7999999523,281330.049,284430.202,8,400,,,
trial,html.Screen,4_54_0,2023-11-01T18:07:02.225Z,,0,2,,3203.597999952326,response,ISIC_0033250.JPG,7,ISIC_4821309.JPG,ISIC_4821309.JPG,false,0,keypress(z),500,287634.10000002384,287633.7999999523,284413.536,284430.39999997616,284430.202,287646.74,8,400,5,,ISIC_0033250.JPG
break,html.Screen,4_54_1,2023-11-01T18:07:02.226Z,,0,,,NaN,,,,,,false,,,,287635,287634.7000000477,,287634.2999999523,,287646.74,8,400,,,
break_continue,html.Screen,4_54_2,2023-11-01T18:07:02.227Z,,0,,,NaN,,,,,,false,,,,287635.39999997616,287635.2000000477,,287635.2000000477,,287646.74,8,400,,,
sequence,flow.Sequence,4_54,2023-11-01T18:07:02.227Z,,0,,,3204.9980000476935,completion,,,,,false,,,,287635.5,287635.2000000477,284413.536,284430.39999997616,284430.202,287646.74,8,400,,,
trial,html.Screen,4_55_0,2023-11-01T18:07:05.228Z,,0,2,,2989.7600000000093,response,ISIC_6773367.JPG,7,ISIC_5325805.JPG,ISIC_6773367.JPG,false,1,keypress(m),500,290636.7999999523,290636.5,287630.074,287635.7999999523,287646.74,290646.62,8,400,6,,ISIC_5325805.JPG
break,html.Screen,4_55_1,2023-11-01T18:07:05.229Z,,0,,,NaN,,,,,,false,,,,290637.60000002384,290637.5,,290637,,290646.62,8,400,,,
break_continue,html.Screen,4_55_2,2023-11-01T18:07:05.229Z,,0,,,NaN,,,,,,false,,,,290638.10000002384,290638,,290637.7000000477,,290646.62,8,400,,,
sequence,flow.Sequence,4_55,2023-11-01T18:07:05.230Z,,0,,,2991.2600000000093,completion,,,,,false,,,,290638.2000000477,290638,287630.074,287635.7000000477,287646.74,290646.62,8,400,,,
trial,html.Screen,4_56_0,2023-11-01T18:07:08.049Z,,0,2,,2810.8800000000047,response,ISIC_1983754.JPG,7,ISIC_0033804.JPG,ISIC_1983754.JPG,false,1,keypress(m),500,293457.7000000477,293457.5,290629.954,290638.2999999523,290646.62,293463.452,8,400,7,,ISIC_0033804.JPG
break,html.Screen,4_56_1,2023-11-01T18:07:08.050Z,,0,,,NaN,,,,,,false,,,,293458.10000002384,293458,,293457.7999999523,,293463.452,8,400,,,
break_continue,html.Screen,4_56_2,2023-11-01T18:07:08.050Z,,0,,,NaN,,,,,,false,,,,293458.39999997616,293458.39999997616,,293458.2999999523,,293463.452,8,400,,,
sequence,flow.Sequence,4_56,2023-11-01T18:07:08.050Z,,0,,,2811.779999976163,completion,,,,,false,,,,293458.5,293458.39999997616,290629.954,290638.2999999523,290646.62,293463.452,8,400,,,
trial,html.Screen,4_57_0,2023-11-01T18:07:10.851Z,,0,2,,2799.04800000001,response,ISIC_4249893.JPG,7,ISIC_3691320.JPG,ISIC_3691320.JPG,false,0,keypress(z),500,296262.7999999523,296262.5,293446.786,293458.60000002384,293463.452,296280.006,8,400,8,,ISIC_4249893.JPG
break,html.Screen,4_57_1,2023-11-01T18:07:10.852Z,,0,,,NaN,,,,,,false,,,,296263.7000000477,296263.39999997616,,296262.89999997616,,296280.006,8,400,,,
break_continue,html.Screen,4_57_2,2023-11-01T18:07:10.853Z,,0,,,NaN,,,,,,false,,,,296264.10000002384,296264,,296263.89999997616,,296280.006,8,400,,,
sequence,flow.Sequence,4_57,2023-11-01T18:07:10.853Z,,0,,,2800.54800000001,completion,,,,,false,,,,296264.2999999523,296264,293446.786,293458.60000002384,293463.452,296280.006,8,400,,,
trial,html.Screen,4_58_0,2023-11-01T18:07:13.817Z,,0,2,,2949.994000000006,response,ISIC_0068627.JPG,6,ISIC_0031807.JPG,ISIC_0068627.JPG,false,1,keypress(m),500,299230.2999999523,299230,296263.34,296264.5,296280.006,299246.554,8,400,9,,ISIC_0031807.JPG
break,html.Screen,4_58_1,2023-11-01T18:07:13.817Z,,0,,,NaN,,,,,,false,,,,299231.10000002384,299230.7999999523,,299230.39999997616,,299246.554,8,400,,,
break_continue,html.Screen,4_58_2,2023-11-01T18:07:13.818Z,,0,,,NaN,,,,,,false,,,,299231.5,299231.39999997616,,299231.2000000477,,299246.554,8,400,,,
sequence,flow.Sequence,4_58,2023-11-01T18:07:13.818Z,,0,,,2951.393999976164,completion,,,,,false,,,,299231.7000000477,299231.39999997616,296263.34,296264.39999997616,296280.006,299246.554,8,400,,,
trial,html.Screen,4_59_0,2023-11-01T18:07:16.720Z,,0,2,,2888.4459999999963,response,ISIC_0033759.JPG,4,ISIC_0069743.JPG,ISIC_0033759.JPG,false,1,keypress(m),500,302135.39999997616,302135,299229.888,299231.7000000477,299246.554,302146.438,8,400,10,,ISIC_0069743.JPG
break,html.Screen,4_59_1,2023-11-01T18:07:16.721Z,,0,,,NaN,,,,,,false,,,,302136.5,302136.2000000477,,302135.89999997616,,302146.438,8,400,,,
break_continue,html.Screen,4_59_2,2023-11-01T18:07:16.722Z,,0,,,NaN,,,,,,false,,,,302137,302136.89999997616,,302136.7999999523,,302146.438,8,400,,,
sequence,flow.Sequence,4_59,2023-11-01T18:07:16.722Z,,0,,,2890.3459999761544,completion,,,,,false,,,,302137.2999999523,302136.89999997616,299229.888,299231.7000000477,299246.554,302146.438,8,400,,,
trial,html.Screen,4_60_0,2023-11-01T18:07:19.716Z,,0,2,,2986.662000023818,response,ISIC_0899961.JPG,5,ISIC_0031935.JPG,ISIC_0899961.JPG,false,1,keypress(m),500,305133.39999997616,305133.10000002384,302129.772,302137.39999997616,302146.438,305146.585,8,400,11,,ISIC_0031935.JPG
break,html.Screen,4_60_1,2023-11-01T18:07:19.717Z,,0,,,NaN,,,,,,false,,,,305134.2000000477,305134,,305133.7000000477,,305146.585,8,400,,,
break_continue,html.Screen,4_60_2,2023-11-01T18:07:19.718Z,,0,,,NaN,,,,,,false,,,,305134.5,305134.5,,305134.39999997616,,305146.585,8,400,,,
sequence,flow.Sequence,4_60,2023-11-01T18:07:19.718Z,,0,,,2988.0619999999763,completion,,,,,false,,,,305134.7999999523,305134.5,302129.772,302137.2999999523,302146.438,305146.585,8,400,,,
trial,html.Screen,4_61_0,2023-11-01T18:07:22.488Z,,0,2,,2759.314999976137,response,ISIC_9719936.JPG,4,ISIC_8775014.JPG,ISIC_9719936.JPG,false,1,keypress(m),500,307906.10000002384,307905.89999997616,305129.919,305134.89999997616,305146.585,307913.141,8,400,12,,ISIC_8775014.JPG
break,html.Screen,4_61_1,2023-11-01T18:07:22.489Z,,0,,,NaN,,,,,,false,,,,307907,307906.7000000477,,307906.2999999523,,307913.141,8,400,,,
break_continue,html.Screen,4_61_2,2023-11-01T18:07:22.489Z,,0,,,NaN,,,,,,false,,,,307907.2999999523,307907.2999999523,,307907.10000002384,,307913.141,8,400,,,
sequence,flow.Sequence,4_61,2023-11-01T18:07:22.489Z,,0,,,2760.7149999522953,completion,,,,,false,,,,307907.60000002384,307907.2999999523,305129.919,305134.7999999523,305146.585,307913.141,8,400,,,
trial,html.Screen,4_62_0,2023-11-01T18:07:25.484Z,,0,2,,2990.0590000476805,response,ISIC_5437785.JPG,6,ISIC_0497390.JPG,ISIC_0497390.JPG,false,0,keypress(z),500,310903.5,310903.2000000477,307896.475,307907.7000000477,307913.141,310913.021,8,400,13,,ISIC_5437785.JPG
break,html.Screen,4_62_1,2023-11-01T18:07:25.485Z,,0,,,NaN,,,,,,false,,,,310904.2999999523,310904.10000002384,,310903.7000000477,,310913.021,8,400,,,
break_continue,html.Screen,4_62_2,2023-11-01T18:07:25.485Z,,0,,,NaN,,,,,,false,,,,310904.7000000477,310904.5,,310904.5,,310913.021,8,400,,,
sequence,flow.Sequence,4_62,2023-11-01T18:07:25.486Z,,0,,,2991.3589999999967,completion,,,,,false,,,,310904.89999997616,310904.5,307896.475,307907.60000002384,307913.141,310913.021,8,400,,,
trial,html.Screen,4_63_0,2023-11-01T18:07:28.625Z,,0,2,,3131.478999999992,response,ISIC_0070860.JPG,7,ISIC_4154293.JPG,ISIC_0070860.JPG,false,1,keypress(m),500,314044.7999999523,314044.5,310896.355,310905,310913.021,314046.5,8,400,14,,ISIC_4154293.JPG
break,html.Screen,4_63_1,2023-11-01T18:07:28.625Z,,0,,,NaN,,,,,,false,,,,314045.60000002384,314045.39999997616,,314045,,314046.5,8,400,,,
break_continue,html.Screen,4_63_2,2023-11-01T18:07:28.626Z,,0,,,NaN,,,,,,false,,,,314046.10000002384,314046,,314045.7999999523,,314046.5,8,400,,,
sequence,flow.Sequence,4_63,2023-11-01T18:07:28.626Z,,0,,,3132.978999999992,completion,,,,,false,,,,314046.2000000477,314046,310896.355,310905,310913.021,314046.5,8,400,,,
trial,html.Screen,4_64_0,2023-11-01T18:07:31.578Z,,0,2,,2952.600000023842,response,ISIC_0013243.JPG,6,ISIC_9300579.JPG,ISIC_0013243.JPG,false,1,keypress(m),500,316999.2999999523,316999.10000002384,314029.834,314046.39999997616,314046.5,317013.048,8,400,15,,ISIC_9300579.JPG
break,html.Screen,4_64_1,2023-11-01T18:07:31.579Z,,0,,,NaN,,,,,,false,,,,317000.2000000477,317000,,316999.5,,317013.048,8,400,,,
break_continue,html.Screen,4_64_2,2023-11-01T18:07:31.580Z,,0,,,NaN,,,,,,false,,,,317000.60000002384,317000.5,,317000.39999997616,,317013.048,8,400,,,
sequence,flow.Sequence,4_64,2023-11-01T18:07:31.580Z,,0,,,2954,completion,,,,,false,,,,317000.7999999523,317000.5,314029.834,314046.2999999523,314046.5,317013.048,8,400,,,
trial,html.Screen,4_65_0,2023-11-01T18:07:34.452Z,,0,2,,2860.652000047674,response,ISIC_7235128.JPG,6,ISIC_0056391.JPG,ISIC_7235128.JPG,false,1,keypress(m),500,319873.89999997616,319873.7000000477,316996.382,317000.89999997616,317013.048,319879.6,8,400,16,,ISIC_0056391.JPG
break,html.Screen,4_65_1,2023-11-01T18:07:34.453Z,,0,,,NaN,,,,,,false,,,,319874.7999999523,319874.60000002384,,319874.10000002384,,319879.6,8,400,,,
break_continue,html.Screen,4_65_2,2023-11-01T18:07:34.454Z,,0,,,NaN,,,,,,false,,,,319875.2000000477,319875.10000002384,,319874.89999997616,,319879.6,8,400,,,
sequence,flow.Sequence,4_65,2023-11-01T18:07:34.454Z,,0,,,2862.052000023832,completion,,,,,false,,,,319875.2999999523,319875.10000002384,316996.382,317000.89999997616,317013.048,319879.6,8,400,,,
trial,html.Screen,4_66_0,2023-11-01T18:07:38.025Z,,0,2,,3567.600000047707,response,ISIC_0012222.JPG,6,ISIC_0008630.JPG,ISIC_0012222.JPG,false,1,keypress(m),500,323447.5,323447.2000000477,319862.934,319875.5,319879.6,323462.79,8,400,17,,ISIC_0008630.JPG
break,html.Screen,4_66_1,2023-11-01T18:07:38.026Z,,0,,,NaN,,,,,,false,,,,323448.2999999523,323448.10000002384,,323447.60000002384,,323462.79,8,400,,,
break_continue,html.Screen,4_66_2,2023-11-01T18:07:38.027Z,,0,,,NaN,,,,,,false,,,,323448.7000000477,323448.60000002384,,323448.5,,323462.79,8,400,,,
sequence,flow.Sequence,4_66,2023-11-01T18:07:38.027Z,,0,,,3569.000000023865,completion,,,,,false,,,,323448.89999997616,323448.60000002384,319862.934,319875.5,319879.6,323462.79,8,400,,,
trial,html.Screen,4_67_0,2023-11-01T18:07:40.862Z,,0,2,,2821.710000000021,response,ISIC_7637597.JPG,5,ISIC_0055311.JPG,ISIC_0055311.JPG,false,0,keypress(z),500,326284.7999999523,326284.5,323446.124,323449,323462.79,326296.281,8,400,18,,ISIC_7637597.JPG
break,html.Screen,4_67_1,2023-11-01T18:07:40.863Z,,0,,,NaN,,,,,,false,,,,326285.7999999523,326285.39999997616,,326285.10000002384,,326296.281,8,400,,,
break_continue,html.Screen,4_67_2,2023-11-01T18:07:40.864Z,,0,,,NaN,,,,,,false,,,,326286.2000000477,326286,,326285.89999997616,,326296.281,8,400,,,
sequence,flow.Sequence,4_67,2023-11-01T18:07:40.864Z,,0,,,2823.210000000021,completion,,,,,false,,,,326286.39999997616,326286,323446.124,323448.89999997616,323462.79,326296.281,8,400,,,
trial,html.Screen,4_68_0,2023-11-01T18:07:44.724Z,,0,2,,3849.618999976141,response,ISIC_0056330.JPG,6,ISIC_0060946.JPG,ISIC_0060946.JPG,false,0,keypress(z),500,330146.10000002384,330145.89999997616,326279.615,326286.5,326296.281,330162.793,8,400,19,,ISIC_0056330.JPG
break,html.Screen,4_68_1,2023-11-01T18:07:44.724Z,,0,,,NaN,,,,,,false,,,,330147,330146.7000000477,,330146.39999997616,,330162.793,8,400,,,
break_continue,html.Screen,4_68_2,2023-11-01T18:07:44.725Z,,0,,,NaN,,,,,,false,,,,330147.39999997616,330147.2999999523,,330147.10000002384,,330162.793,8,400,,,
sequence,flow.Sequence,4_68,2023-11-01T18:07:44.725Z,,0,,,3851.018999952299,completion,,,,,false,,,,330147.60000002384,330147.2999999523,326279.615,326286.5,326296.281,330162.793,8,400,,,
trial,html.Screen,4_69_0,2023-11-01T18:07:49.321Z,,0,2,,4580.307000023837,response,ISIC_5789994.JPG,6,ISIC_5454766.JPG,ISIC_5454766.JPG,false,0,keypress(z),500,334743.5,334743.10000002384,330146.127,330147.7000000477,330162.793,334746.214,8,400,20,,ISIC_5789994.JPG
break,html.Screen,4_69_1,2023-11-01T18:07:49.321Z,,0,,,NaN,,,,,,false,,,,334744.2999999523,334744,,334743.60000002384,,334746.214,8,400,,,
break_continue,html.Screen,4_69_2,2023-11-01T18:07:49.322Z,,0,,,NaN,,,,,,false,,,,334744.7000000477,334744.60000002384,,334744.5,,334746.214,8,400,,,
sequence,flow.Sequence,4_69,2023-11-01T18:07:49.322Z,,0,,,4581.807000023837,completion,,,,,false,,,,334744.89999997616,334744.60000002384,330146.127,330147.60000002384,330162.793,334746.214,8,400,,,
trial,html.Screen,4_70_0,2023-11-01T18:07:52.928Z,,0,2,,3604.9860000477056,response,ISIC_0033879.JPG,5,ISIC_9786863.JPG,ISIC_9786863.JPG,false,0,keypress(z),500,338351.5,338351.2000000477,334729.548,334745,334746.214,338362.736,8,400,21,,ISIC_0033879.JPG
break,html.Screen,4_70_1,2023-11-01T18:07:52.929Z,,0,,,NaN,,,,,,false,,,,338352.39999997616,338352.10000002384,,338351.7000000477,,338362.736,8,400,,,
break_continue,html.Screen,4_70_2,2023-11-01T18:07:52.930Z,,0,,,NaN,,,,,,false,,,,338352.7999999523,338352.7000000477,,338352.5,,338362.736,8,400,,,
sequence,flow.Sequence,4_70,2023-11-01T18:07:52.930Z,,0,,,3606.4860000477056,completion,,,,,false,,,,338353,338352.7000000477,334729.548,334744.89999997616,334746.214,338362.736,8,400,,,
trial,html.Screen,4_71_0,2023-11-01T18:07:55.752Z,,0,2,,2811.8640000238665,response,ISIC_0067521.JPG,7,ISIC_4713698.JPG,ISIC_0067521.JPG,false,1,keypress(m),500,341174.89999997616,341174.60000002384,338346.07,338353.10000002384,338362.736,341179.29,8,400,22,,ISIC_4713698.JPG
break,html.Screen,4_71_1,2023-11-01T18:07:55.753Z,,0,,,NaN,,,,,,false,,,,341175.7999999523,341175.5,,341175.2000000477,,341179.29,8,400,,,
break_continue,html.Screen,4_71_2,2023-11-01T18:07:55.753Z,,0,,,NaN,,,,,,false,,,,341176.2000000477,341176,,341175.89999997616,,341179.29,8,400,,,
sequence,flow.Sequence,4_71,2023-11-01T18:07:55.753Z,,0,,,2813.2640000000247,completion,,,,,false,,,,341176.39999997616,341176,338346.07,338353.10000002384,338362.736,341179.29,8,400,,,
trial,html.Screen,4_72_0,2023-11-01T18:07:58.558Z,,0,2,,2801.109999976179,response,ISIC_0002041.JPG,7,ISIC_0031146.JPG,ISIC_0031146.JPG,false,0,keypress(z),500,343980.7999999523,343980.39999997616,341162.624,341176.5,341179.29,343995.844,8,400,23,,ISIC_0002041.JPG
break,html.Screen,4_72_1,2023-11-01T18:07:58.558Z,,0,,,NaN,,,,,,false,,,,343981.60000002384,343981.39999997616,,343981,,343995.844,8,400,,,
break_continue,html.Screen,4_72_2,2023-11-01T18:07:58.559Z,,0,,,NaN,,,,,,false,,,,343982,343981.89999997616,,343981.7999999523,,343995.844,8,400,,,
sequence,flow.Sequence,4_72,2023-11-01T18:07:58.559Z,,0,,,2802.609999976179,completion,,,,,false,,,,343982.2999999523,343981.89999997616,341162.624,341176.39999997616,341179.29,343995.844,8,400,,,
trial,html.Screen,4_73_0,2023-11-01T18:08:02.312Z,,0,2,,3739.1560000000172,response,ISIC_0059423.JPG,6,ISIC_3289098.JPG,ISIC_3289098.JPG,false,0,keypress(z),500,347735.2999999523,347735,343979.178,343982.2999999523,343995.844,347745.964,8,400,24,,ISIC_0059423.JPG
break,html.Screen,4_73_1,2023-11-01T18:08:02.313Z,,0,,,NaN,,,,,,false,,,,347736.2000000477,347735.89999997616,,347735.5,,347745.964,8,400,,,
break_continue,html.Screen,4_73_2,2023-11-01T18:08:02.313Z,,0,,,NaN,,,,,,false,,,,347736.60000002384,347736.5,,347736.2999999523,,347745.964,8,400,,,
sequence,flow.Sequence,4_73,2023-11-01T18:08:02.314Z,,0,,,3740.6560000000172,completion,,,,,false,,,,347736.7999999523,347736.5,343979.178,343982.2999999523,343995.844,347745.964,8,400,,,
trial,html.Screen,4_74_0,2023-11-01T18:08:05.309Z,,0,2,,2985.7360000477056,response,ISIC_0067308.JPG,7,ISIC_4136832.JPG,ISIC_4136832.JPG,false,0,keypress(z),500,350732.39999997616,350731.7000000477,347729.298,347736.89999997616,347745.964,350745.844,8,400,25,,ISIC_0067308.JPG
break,html.Screen,4_74_1,2023-11-01T18:08:05.310Z,,0,,,NaN,,,,,,false,,,,350733.60000002384,350733.39999997616,,350732.7999999523,,350745.844,8,400,,,
break_continue,html.Screen,4_74_2,2023-11-01T18:08:05.311Z,,0,,,NaN,,,,,,false,,,,350734,350733.89999997616,,350733.7000000477,,350745.844,8,400,,,
sequence,flow.Sequence,4_74,2023-11-01T18:08:05.311Z,,0,,,2987.93599997618,completion,,,,,false,,,,350734.2999999523,350733.89999997616,347729.298,347736.7999999523,347745.964,350745.844,8,400,,,
trial,html.Screen,4_75_0,2023-11-01T18:08:08.131Z,,0,2,,2807.856000047701,response,ISIC_3067885.JPG,6,ISIC_0058946.JPG,ISIC_3067885.JPG,false,1,keypress(m),500,353553.89999997616,353553.7000000477,350729.178,350734.5,350745.844,353562.398,8,400,26,,ISIC_0058946.JPG
break,html.Screen,4_75_1,2023-11-01T18:08:08.132Z,,0,,,NaN,,,,,,false,,,,353554.7999999523,353554.60000002384,,353554.10000002384,,353562.398,8,400,,,
break_continue,html.Screen,4_75_2,2023-11-01T18:08:08.132Z,,0,,,NaN,,,,,,false,,,,353555.2000000477,353555,,353554.89999997616,,353562.398,8,400,,,
sequence,flow.Sequence,4_75,2023-11-01T18:08:08.132Z,,0,,,2809.1560000000172,completion,,,,,false,,,,353555.2999999523,353555,350729.178,350734.5,350745.844,353562.398,8,400,,,
trial,html.Screen,4_76_0,2023-11-01T18:08:10.748Z,,0,2,,2608.6020000000135,response,ISIC_0032162.JPG,7,ISIC_0062318.JPG,ISIC_0062318.JPG,false,0,keypress(z),500,356171.2999999523,356171,353545.732,353555.5,353562.398,356179.235,8,400,27,,ISIC_0032162.JPG
break,html.Screen,4_76_1,2023-11-01T18:08:10.749Z,,0,,,NaN,,,,,,false,,,,356172.2000000477,356172,,356171.60000002384,,356179.235,8,400,,,
break_continue,html.Screen,4_76_2,2023-11-01T18:08:10.749Z,,0,,,NaN,,,,,,false,,,,356172.60000002384,356172.5,,356172.39999997616,,356179.235,8,400,,,
sequence,flow.Sequence,4_76,2023-11-01T18:08:10.750Z,,0,,,2610.1020000000135,completion,,,,,false,,,,356172.89999997616,356172.5,353545.732,353555.39999997616,353562.398,356179.235,8,400,,,
trial,html.Screen,4_77_0,2023-11-01T18:08:13.571Z,,0,2,,2814.5649999523303,response,ISIC_4087267.JPG,8,ISIC_2858419.JPG,ISIC_4087267.JPG,false,1,keypress(m),500,358994.10000002384,358993.7999999523,356162.569,356173,356179.235,358995.789,8,400,28,,ISIC_2858419.JPG
break,html.Screen,4_77_1,2023-11-01T18:08:13.572Z,,0,,,NaN,,,,,,false,,,,358994.89999997616,358994.7999999523,,358994.2999999523,,358995.789,8,400,,,
break_continue,html.Screen,4_77_2,2023-11-01T18:08:13.572Z,,0,,,NaN,,,,,,false,,,,358995.39999997616,358995.2999999523,,358995.10000002384,,358995.789,8,400,,,
sequence,flow.Sequence,4_77,2023-11-01T18:08:13.572Z,,0,,,2816.0649999523303,completion,,,,,false,,,,358995.60000002384,358995.2999999523,356162.569,356172.89999997616,356179.235,358995.789,8,400,,,
trial,html.Screen,4_78_0,2023-11-01T18:08:16.216Z,,0,2,,2643.311000023852,response,ISIC_0025265.JPG,7,ISIC_0489267.JPG,ISIC_0489267.JPG,false,0,keypress(z),500,361639.39999997616,361639.10000002384,358979.123,358995.7000000477,358995.789,361645.683,8,400,29,,ISIC_0025265.JPG
break,html.Screen,4_78_1,2023-11-01T18:08:16.217Z,,0,,,NaN,,,,,,false,,,,361640.2000000477,361639.89999997616,,361639.60000002384,,361645.683,8,400,,,
break_continue,html.Screen,4_78_2,2023-11-01T18:08:16.217Z,,0,,,NaN,,,,,,false,,,,361640.60000002384,361640.5,,361640.2999999523,,361645.683,8,400,,,
sequence,flow.Sequence,4_78,2023-11-01T18:08:16.218Z,,0,,,2644.7110000000102,completion,,,,,false,,,,361640.7000000477,361640.5,358979.123,358995.60000002384,358995.789,361645.683,8,400,,,
trial,html.Screen,4_79_0,2023-11-01T18:08:20.398Z,,0,2,,4175.116999952297,response,ISIC_5919355.JPG,7,ISIC_9472209.JPG,ISIC_9472209.JPG,false,0,keypress(z),500,365821,365820.7999999523,361629.017,361640.89999997616,361645.683,365829.117,8,400,30,,ISIC_5919355.JPG
break,html.Screen,4_79_1,2023-11-01T18:08:20.399Z,,0,,,NaN,,,,,,false,,,,365821.89999997616,365821.60000002384,,365821.2999999523,,365829.117,8,400,,,
break_continue,html.Screen,4_79_2,2023-11-01T18:08:20.399Z,,0,,,NaN,,,,,,false,,,,365822.2999999523,365822.10000002384,,365822,,365829.117,8,400,,,
sequence,flow.Sequence,4_79,2023-11-01T18:08:20.399Z,,0,,,4176.417000023823,completion,,,,,false,,,,365822.5,365822.10000002384,361629.017,361640.7999999523,361645.683,365829.117,8,400,,,
trial,html.Screen,4_80_0,2023-11-01T18:08:25.290Z,,0,2,,4883.3829999999725,response,ISIC_0057395.JPG,6,ISIC_2252958.JPG,ISIC_0057395.JPG,false,1,keypress(m),500,370712.7000000477,370712.5,365812.451,365822.7000000477,365829.117,370728.921,8,400,31,,ISIC_2252958.JPG
break,html.Screen,4_80_1,2023-11-01T18:08:25.291Z,,0,,,NaN,,,,,,false,,,,370713.7000000477,370713.2999999523,,370713,,370728.921,8,400,,,
break_continue,html.Screen,4_80_2,2023-11-01T18:08:25.291Z,,0,,,NaN,,,,,,false,,,,370714,370713.89999997616,,370713.7999999523,,370728.921,8,400,,,
sequence,flow.Sequence,4_80,2023-11-01T18:08:25.291Z,,0,,,4884.782999976131,completion,,,,,false,,,,370714.2000000477,370713.89999997616,365812.451,365822.60000002384,365829.117,370728.921,8,400,,,
trial,html.Screen,4_81_0,2023-11-01T18:08:28.932Z,,0,2,,3625.2790000477107,response,ISIC_0033476.JPG,5,ISIC_8935085.JPG,ISIC_8935085.JPG,false,0,keypress(z),500,374354.5,374354.2000000477,370712.255,370714.2999999523,370728.921,374362.109,8,400,32,,ISIC_0033476.JPG
break,html.Screen,4_81_1,2023-11-01T18:08:28.932Z,,0,,,NaN,,,,,,false,,,,374355.2000000477,374355,,374354.7000000477,,374362.109,8,400,,,
break_continue,html.Screen,4_81_2,2023-11-01T18:08:28.933Z,,0,,,NaN,,,,,,false,,,,374355.60000002384,374355.39999997616,,374355.39999997616,,374362.109,8,400,,,
sequence,flow.Sequence,4_81,2023-11-01T18:08:28.933Z,,0,,,3626.478999976185,completion,,,,,false,,,,374355.7999999523,374355.39999997616,370712.255,370714.2999999523,370728.921,374362.109,8,400,,,
trial,html.Screen,4_82_0,2023-11-01T18:08:33.000Z,,0,2,,4060.991000023845,response,ISIC_0033546.JPG,6,ISIC_9002603.JPG,ISIC_0033546.JPG,false,1,keypress(m),500,378423.39999997616,378423.10000002384,374345.443,374355.89999997616,374362.109,378428.876,8,400,33,,ISIC_9002603.JPG
break,html.Screen,4_82_1,2023-11-01T18:08:33.001Z,,0,,,NaN,,,,,,false,,,,378424.2000000477,378424,,378423.60000002384,,378428.876,8,400,,,
break_continue,html.Screen,4_82_2,2023-11-01T18:08:33.002Z,,0,,,NaN,,,,,,false,,,,378424.7000000477,378424.60000002384,,378424.5,,378428.876,8,400,,,
sequence,flow.Sequence,4_82,2023-11-01T18:08:33.002Z,,0,,,4062.491000023845,completion,,,,,false,,,,378424.89999997616,378424.60000002384,374345.443,374355.89999997616,374362.109,378428.876,8,400,,,
trial,html.Screen,4_83_0,2023-11-01T18:08:36.563Z,,0,2,,3556.923999952327,response,ISIC_0066012.JPG,7,ISIC_0030981.JPG,ISIC_0066012.JPG,false,1,keypress(m),500,381986,381985.7999999523,378412.21,378425,378428.876,381995.4,8,400,34,,ISIC_0030981.JPG
break,html.Screen,4_83_1,2023-11-01T18:08:36.564Z,,0,,,NaN,,,,,,false,,,,381986.89999997616,381986.7000000477,,381986.2999999523,,381995.4,8,400,,,
break_continue,html.Screen,4_83_2,2023-11-01T18:08:36.564Z,,0,,,NaN,,,,,,false,,,,381987.2999999523,381987.2000000477,,381987,,381995.4,8,400,,,
sequence,flow.Sequence,4_83,2023-11-01T18:08:36.565Z,,0,,,3558.3240000476944,completion,,,,,false,,,,381987.5,381987.2000000477,378412.21,378424.89999997616,378428.876,381995.4,8,400,,,
trial,html.Screen,4_84_0,2023-11-01T18:08:39.885Z,,0,2,,3311.7000000238186,response,ISIC_0068886.JPG,7,ISIC_0026082.JPG,ISIC_0068886.JPG,false,1,keypress(m),500,385307.2999999523,385307.10000002384,381978.734,381987.5,381995.4,385311.934,8,400,35,,ISIC_0026082.JPG
break,html.Screen,4_84_1,2023-11-01T18:08:39.885Z,,0,,,NaN,,,,,,false,,,,385308.10000002384,385307.89999997616,,385307.5,,385311.934,8,400,,,
break_continue,html.Screen,4_84_2,2023-11-01T18:08:39.886Z,,0,,,NaN,,,,,,false,,,,385308.5,385308.39999997616,,385308.2999999523,,385311.934,8,400,,,
sequence,flow.Sequence,4_84,2023-11-01T18:08:39.886Z,,0,,,3312.999999976135,completion,,,,,false,,,,385308.7000000477,385308.39999997616,381978.734,381987.5,381995.4,385311.934,8,400,,,
trial,html.Screen,4_85_0,2023-11-01T18:08:42.905Z,,0,2,,3015.0659999999916,response,ISIC_0056156.JPG,8,ISIC_5938680.JPG,ISIC_0056156.JPG,false,1,keypress(m),500,388327.2999999523,388327,385295.268,385308.89999997616,385311.934,388345.432,8,400,36,,ISIC_5938680.JPG
break,html.Screen,4_85_1,2023-11-01T18:08:42.905Z,,0,,,NaN,,,,,,false,,,,388328,388327.7999999523,,388327.39999997616,,388345.432,8,400,,,
break_continue,html.Screen,4_85_2,2023-11-01T18:08:42.906Z,,0,,,NaN,,,,,,false,,,,388328.39999997616,388328.2999999523,,388328.10000002384,,388345.432,8,400,,,
sequence,flow.Sequence,4_85,2023-11-01T18:08:42.906Z,,0,,,3016.365999952308,completion,,,,,false,,,,388328.5,388328.2999999523,385295.268,385308.7999999523,385311.934,388345.432,8,400,,,
trial,html.Screen,4_86_0,2023-11-01T18:08:46.050Z,,0,2,,3126.9679999761865,response,ISIC_0006118.JPG,6,ISIC_7806926.JPG,ISIC_7806926.JPG,false,0,keypress(z),500,391472.60000002384,391472.39999997616,388328.766,388328.60000002384,388345.432,391478.64,8,400,37,,ISIC_0006118.JPG
break,html.Screen,4_86_1,2023-11-01T18:08:46.051Z,,0,,,NaN,,,,,,false,,,,391473.39999997616,391473.2000000477,,391472.7999999523,,391478.64,8,400,,,
break_continue,html.Screen,4_86_2,2023-11-01T18:08:46.051Z,,0,,,NaN,,,,,,false,,,,391473.89999997616,391473.7999999523,,391473.60000002384,,391478.64,8,400,,,
sequence,flow.Sequence,4_86,2023-11-01T18:08:46.052Z,,0,,,3128.3679999523447,completion,,,,,false,,,,391474.10000002384,391473.7999999523,388328.766,388328.60000002384,388345.432,391478.64,8,400,,,
trial,html.Screen,4_87_0,2023-11-01T18:08:48.905Z,,0,2,,2848.460000023828,response,ISIC_0014985.JPG,8,ISIC_0060222.JPG,ISIC_0014985.JPG,false,1,keypress(m),500,394327.2999999523,394327.10000002384,391461.974,391474.2000000477,391478.64,394328.526,8,400,38,,ISIC_0060222.JPG
break,html.Screen,4_87_1,2023-11-01T18:08:48.905Z,,0,,,NaN,,,,,,false,,,,394327.89999997616,394327.7000000477,,394327.39999997616,,394328.526,8,400,,,
break_continue,html.Screen,4_87_2,2023-11-01T18:08:48.906Z,,0,,,NaN,,,,,,false,,,,394328.2999999523,394328.2000000477,,394328.10000002384,,394328.526,8,400,,,
sequence,flow.Sequence,4_87,2023-11-01T18:08:48.906Z,,0,,,2849.5600000476697,completion,,,,,false,,,,394328.39999997616,394328.2000000477,391461.974,391474.2000000477,391478.64,394328.526,8,400,,,
trial,html.Screen,4_88_0,2023-11-01T18:08:51.692Z,,0,2,,2786.0740000238293,response,ISIC_0054655.JPG,8,ISIC_0056440.JPG,ISIC_0056440.JPG,false,0,keypress(z),500,397114.89999997616,397114.60000002384,394311.86,394328.5,394328.526,397128.683,8,400,39,,ISIC_0054655.JPG
break,html.Screen,4_88_1,2023-11-01T18:08:51.693Z,,0,,,NaN,,,,,,false,,,,397115.7000000477,397115.5,,397115,,397128.683,8,400,,,
break_continue,html.Screen,4_88_2,2023-11-01T18:08:51.694Z,,0,,,NaN,,,,,,false,,,,397116.2000000477,397116,,397115.89999997616,,397128.683,8,400,,,
sequence,flow.Sequence,4_88,2023-11-01T18:08:51.694Z,,0,,,2787.4739999999874,completion,,,,,false,,,,397116.2999999523,397116,394311.86,394328.5,394328.526,397128.683,8,400,,,
trial,html.Screen,4_89_0,2023-11-01T18:08:55.075Z,,0,2,,3368.216999976139,response,ISIC_3779093.JPG,5,ISIC_3633306.JPG,ISIC_3779093.JPG,false,1,keypress(m),500,400497.2000000477,400496.89999997616,397112.017,397116.5,397128.683,400511.881,8,400,40,,ISIC_3633306.JPG
break,html.Screen,4_89_1,2023-11-01T18:08:55.077Z,,0,,,NaN,,,,,,false,,,,400499.39999997616,400498.2000000477,,400497.39999997616,,400511.881,8,400,,,
break_continue,html.Screen,4_89_2,2023-11-01T18:08:55.079Z,,0,,,NaN,,,,,,false,,,,400501.10000002384,400500.60000002384,,400500.10000002384,,400511.881,8,400,,,
sequence,flow.Sequence,4_89,2023-11-01T18:08:55.081Z,,0,,,3371.9170000238228,completion,,,,,false,,,,400503.7999999523,400500.60000002384,397112.017,397116.39999997616,397128.683,400511.881,8,400,,,
trial,html.Screen,4_90_0,2023-11-01T18:08:58.206Z,,0,2,,3115.619000000006,response,ISIC_5261146.JPG,5,ISIC_2011145.JPG,ISIC_5261146.JPG,false,1,keypress(m),500,403627.89999997616,403627.5,400495.215,400503.89999997616,400511.881,403645.089,8,400,41,,ISIC_2011145.JPG
break,html.Screen,4_90_1,2023-11-01T18:08:58.207Z,,0,,,NaN,,,,,,false,,,,403628.89999997616,403628.60000002384,,403628.10000002384,,403645.089,8,400,,,
break_continue,html.Screen,4_90_2,2023-11-01T18:08:58.207Z,,0,,,NaN,,,,,,false,,,,403629.39999997616,403629.2000000477,,403629.10000002384,,403645.089,8,400,,,
sequence,flow.Sequence,4_90,2023-11-01T18:08:58.207Z,,0,,,3117.3190000476898,completion,,,,,false,,,,403629.7000000477,403629.2000000477,400495.215,400503.89999997616,400511.881,403645.089,8,400,,,
trial,html.Screen,4_91_0,2023-11-01T18:09:01.303Z,,0,2,,3079.6110000477056,response,ISIC_0071681.JPG,6,ISIC_0025489.JPG,ISIC_0071681.JPG,false,1,keypress(m),500,406725,406724.7000000477,403628.423,403629.89999997616,403645.089,406728.299,8,400,42,,ISIC_0025489.JPG
break,html.Screen,4_91_1,2023-11-01T18:09:01.304Z,,0,,,NaN,,,,,,false,,,,406726,406725.7000000477,,406725.2000000477,,406728.299,8,400,,,
break_continue,html.Screen,4_91_2,2023-11-01T18:09:01.304Z,,0,,,NaN,,,,,,false,,,,406726.39999997616,406726.2999999523,,406726.10000002384,,406728.299,8,400,,,
sequence,flow.Sequence,4_91,2023-11-01T18:09:01.304Z,,0,,,3081.210999952338,completion,,,,,false,,,,406726.5,406726.2999999523,403628.423,403629.89999997616,403645.089,406728.299,8,400,,,
trial,html.Screen,4_92_0,2023-11-01T18:09:04.058Z,,0,2,,2751.701000000001,response,ISIC_9204678.JPG,8,ISIC_0029740.JPG,ISIC_0029740.JPG,false,0,keypress(z),500,409480.2000000477,409480,406711.633,406726.7000000477,406728.299,409495.12,8,400,43,,ISIC_9204678.JPG
break,html.Screen,4_92_1,2023-11-01T18:09:04.058Z,,0,,,NaN,,,,,,false,,,,409480.7000000477,409480.5,,409480.2999999523,,409495.12,8,400,,,
break_continue,html.Screen,4_92_2,2023-11-01T18:09:04.059Z,,0,,,NaN,,,,,,false,,,,409481,409480.89999997616,,409480.7999999523,,409495.12,8,400,,,
sequence,flow.Sequence,4_92,2023-11-01T18:09:04.059Z,,0,,,2752.600999976159,completion,,,,,false,,,,409481.2000000477,409480.89999997616,406711.633,406726.7000000477,406728.299,409495.12,8,400,,,
trial,html.Screen,4_93_0,2023-11-01T18:09:07.423Z,,0,2,,3349.5800000476884,response,ISIC_6239663.JPG,7,ISIC_5628615.JPG,ISIC_5628615.JPG,false,0,keypress(z),500,412845.10000002384,412844.7000000477,409478.454,409481.2000000477,409495.12,412861.652,8,400,44,,ISIC_6239663.JPG
break,html.Screen,4_93_1,2023-11-01T18:09:07.424Z,,0,,,NaN,,,,,,false,,,,412846.60000002384,412846.2999999523,,412845.5,,412861.652,8,400,,,
break_continue,html.Screen,4_93_2,2023-11-01T18:09:07.425Z,,0,,,NaN,,,,,,false,,,,412847.60000002384,412847,,412846.7999999523,,412861.652,8,400,,,
sequence,flow.Sequence,4_93,2023-11-01T18:09:07.427Z,,0,,,3351.8800000000047,completion,,,,,false,,,,412848.7000000477,412847,409478.454,409481.2000000477,409495.12,412861.652,8,400,,,
trial,html.Screen,4_94_0,2023-11-01T18:09:10.315Z,,0,2,,2874.94800002384,response,ISIC_0071303.JPG,7,ISIC_5324623.JPG,ISIC_0071303.JPG,false,1,keypress(m),500,415736.89999997616,415736.60000002384,412844.986,412848.89999997616,412861.652,415744.87,8,400,45,,ISIC_5324623.JPG
break,html.Screen,4_94_1,2023-11-01T18:09:10.316Z,,0,,,NaN,,,,,,false,,,,415737.7000000477,415737.5,,415737.10000002384,,415744.87,8,400,,,
break_continue,html.Screen,4_94_2,2023-11-01T18:09:10.316Z,,0,,,NaN,,,,,,false,,,,415738.2000000477,415738.10000002384,,415737.89999997616,,415744.87,8,400,,,
sequence,flow.Sequence,4_94,2023-11-01T18:09:10.316Z,,0,,,2876.44800002384,completion,,,,,false,,,,415738.39999997616,415738.10000002384,412844.986,412848.89999997616,412861.652,415744.87,8,400,,,
trial,html.Screen,4_95_0,2023-11-01T18:09:13.159Z,,0,2,,2835.3300000476884,response,ISIC_6717452.JPG,5,ISIC_2605120.JPG,ISIC_2605120.JPG,false,0,keypress(z),500,418580.5,418580.2000000477,415728.204,415738.5,415744.87,418595.019,8,400,46,,ISIC_6717452.JPG
break,html.Screen,4_95_1,2023-11-01T18:09:13.159Z,,0,,,NaN,,,,,,false,,,,418581.2999999523,418581.10000002384,,418580.7000000477,,418595.019,8,400,,,
break_continue,html.Screen,4_95_2,2023-11-01T18:09:13.160Z,,0,,,NaN,,,,,,false,,,,418581.89999997616,418581.7999999523,,418581.60000002384,,418595.019,8,400,,,
sequence,flow.Sequence,4_95,2023-11-01T18:09:13.160Z,,0,,,2836.929999952321,completion,,,,,false,,,,418582.2000000477,418581.7999999523,415728.204,415738.5,415744.87,418595.019,8,400,,,
trial,html.Screen,4_96_0,2023-11-01T18:09:17.132Z,,0,2,,3959.0810000238707,response,ISIC_1105263.JPG,6,ISIC_0005304.JPG,ISIC_0005304.JPG,false,0,keypress(z),500,422554.2000000477,422554.10000002384,418578.353,418582.39999997616,418595.019,422561.527,8,400,47,,ISIC_1105263.JPG
break,html.Screen,4_96_1,2023-11-01T18:09:17.133Z,,0,,,NaN,,,,,,false,,,,422554.60000002384,422554.5,,422554.2999999523,,422561.527,8,400,,,
break_continue,html.Screen,4_96_2,2023-11-01T18:09:17.133Z,,0,,,NaN,,,,,,false,,,,422554.7999999523,422554.7999999523,,422554.7000000477,,422561.527,8,400,,,
sequence,flow.Sequence,4_96,2023-11-01T18:09:17.133Z,,0,,,3959.780999952345,completion,,,,,false,,,,422554.89999997616,422554.7999999523,418578.353,418582.39999997616,418595.019,422561.527,8,400,,,
trial,html.Screen,4_97_0,2023-11-01T18:09:20.159Z,,0,2,,3019.07300002384,response,ISIC_0060972.JPG,6,ISIC_2094429.JPG,ISIC_0060972.JPG,false,1,keypress(m),500,425580.89999997616,425580.60000002384,422544.861,422554.89999997616,422561.527,425594.739,8,400,48,,ISIC_2094429.JPG
break,html.Screen,4_97_1,2023-11-01T18:09:20.160Z,,0,,,NaN,,,,,,false,,,,425581.7000000477,425581.5,,425581.2000000477,,425594.739,8,400,,,
break_continue,html.Screen,4_97_2,2023-11-01T18:09:20.160Z,,0,,,NaN,,,,,,false,,,,425582.10000002384,425582,,425581.89999997616,,425594.739,8,400,,,
sequence,flow.Sequence,4_97,2023-11-01T18:09:20.161Z,,0,,,3020.472999999998,completion,,,,,false,,,,425582.2999999523,425582,422544.861,422554.89999997616,422561.527,425594.739,8,400,,,
trial,html.Screen,4_98_0,2023-11-01T18:09:23.380Z,,0,2,,3207.060999952315,response,ISIC_0485914.JPG,7,ISIC_3916064.JPG,ISIC_3916064.JPG,false,0,keypress(z),500,428802.10000002384,428801.7999999523,425578.073,425582.5,425594.739,428811.547,8,400,49,,ISIC_0485914.JPG
break,html.Screen,4_98_1,2023-11-01T18:09:23.381Z,,0,,,NaN,,,,,,false,,,,428803.10000002384,428802.7999999523,,428802.39999997616,,428811.547,8,400,,,
break_continue,html.Screen,4_98_2,2023-11-01T18:09:23.382Z,,0,,,NaN,,,,,,false,,,,428803.60000002384,428803.39999997616,,428803.2000000477,,428811.547,8,400,,,
sequence,flow.Sequence,4_98,2023-11-01T18:09:23.382Z,,0,,,3208.6609999761567,completion,,,,,false,,,,428803.7999999523,428803.39999997616,425578.073,425582.39999997616,425594.739,428811.547,8,400,,,
trial,html.Screen,4_99_0,2023-11-01T18:09:30.267Z,,0,2,,6876.9529999999795,response,ISIC_0060219.JPG,7,ISIC_0059671.JPG,ISIC_0059671.JPG,false,0,keypress(z),500,435688.7999999523,435688.5,428794.881,428803.89999997616,428811.547,435694.605,8,400,50,,ISIC_0060219.JPG
break,html.Screen,4_99_1,2023-11-01T18:09:40.258Z,,0,,,9999.862000000023,timeout,,,,,false,,,,445679,445677.801,435677.939,435689.10000002384,435694.605,445694.467,8,400,,,
break_continue,html.Screen,4_99_2,2023-11-01T18:09:43.625Z,,0,,,3329.332999952312,response,,,,,false,continue,keypress(Space),,449046.5,449023.7999999523,445677.801,445679.10000002384,445694.467,449060.999,8,400,,,
sequence,flow.Sequence,4_99,2023-11-01T18:09:43.625Z,,0,,,20212.252999952296,completion,,,,,false,,,,449046.7000000477,449023.7999999523,428794.881,428803.89999997616,428811.547,449060.999,8,400,,,
trial,html.Screen,4_100_0,2023-11-01T18:09:47.005Z,,0,3,,3364.5009999999893,response,ISIC_3430311.JPG,9,ISIC_5300774.JPG,ISIC_3430311.JPG,false,1,keypress(m),500,452425.89999997616,452425.5,449044.333,449046.7000000477,449060.999,452427.843,8,400,1,,ISIC_5300774.JPG
break,html.Screen,4_100_1,2023-11-01T18:09:47.006Z,,0,,,NaN,,,,,,false,,,,452426.7999999523,452426.39999997616,,452426,,452427.843,8,400,,,
break_continue,html.Screen,4_100_2,2023-11-01T18:09:47.006Z,,0,,,NaN,,,,,,false,,,,452427.2000000477,452427,,452426.89999997616,,452427.843,8,400,,,
sequence,flow.Sequence,4_100,2023-11-01T18:09:47.006Z,,0,,,3366.0009999999893,completion,,,,,false,,,,452427.5,452427,449044.333,449046.7000000477,449060.999,452427.843,8,400,,,
trial,html.Screen,4_101_0,2023-11-01T18:09:50.003Z,,0,3,,2996.2570000238484,response,ISIC_7795549.JPG,8,ISIC_0071040.JPG,ISIC_0071040.JPG,false,0,keypress(z),500,455424.39999997616,455424.10000002384,452411.177,452427.7999999523,452427.843,455427.723,8,400,2,,ISIC_7795549.JPG
break,html.Screen,4_101_1,2023-11-01T18:09:50.004Z,,0,,,NaN,,,,,,false,,,,455425.2999999523,455425.2000000477,,455424.7000000477,,455427.723,8,400,,,
break_continue,html.Screen,4_101_2,2023-11-01T18:09:50.005Z,,0,,,NaN,,,,,,false,,,,455425.7000000477,455425.60000002384,,455425.39999997616,,455427.723,8,400,,,
sequence,flow.Sequence,4_101,2023-11-01T18:09:50.005Z,,0,,,2997.7570000238484,completion,,,,,false,,,,455425.89999997616,455425.60000002384,452411.177,452427.7000000477,452427.843,455427.723,8,400,,,
trial,html.Screen,4_102_0,2023-11-01T18:09:53.082Z,,0,3,,3074.777000000002,response,ISIC_0060741.JPG,7,ISIC_0029000.JPG,ISIC_0060741.JPG,false,1,keypress(m),500,458502.7999999523,458502.5,455411.057,455426.10000002384,455427.723,458510.933,8,400,3,,ISIC_0029000.JPG
break,html.Screen,4_102_1,2023-11-01T18:09:53.083Z,,0,,,NaN,,,,,,false,,,,458503.89999997616,458503.7000000477,,458503.2000000477,,458510.933,8,400,,,
break_continue,html.Screen,4_102_2,2023-11-01T18:09:53.083Z,,0,,,NaN,,,,,,false,,,,458504.2999999523,458504.10000002384,,458504,,458510.933,8,400,,,
sequence,flow.Sequence,4_102,2023-11-01T18:09:53.084Z,,0,,,3076.3770000238437,completion,,,,,false,,,,458504.5,458504.10000002384,455411.057,455426,455427.723,458510.933,8,400,,,
trial,html.Screen,4_103_0,2023-11-01T18:09:56.320Z,,0,3,,3229.7670000476646,response,ISIC_5300774.JPG,7,ISIC_8626909.JPG,ISIC_8626909.JPG,false,0,keypress(z),500,461741.10000002384,461740.7000000477,458494.267,458504.7000000477,458510.933,461761.077,8,400,4,,ISIC_5300774.JPG
break,html.Screen,4_103_1,2023-11-01T18:09:56.322Z,,0,,,NaN,,,,,,false,,,,461742.7000000477,461742.2000000477,,461741.5,,461761.077,8,400,,,
break_continue,html.Screen,4_103_2,2023-11-01T18:09:56.323Z,,0,,,NaN,,,,,,false,,,,461743.7000000477,461743,,461742.7999999523,,461761.077,8,400,,,
sequence,flow.Sequence,4_103,2023-11-01T18:09:56.323Z,,0,,,3232.066999999981,completion,,,,,false,,,,461743.89999997616,461743,458494.267,458504.60000002384,458510.933,461761.077,8,400,,,
trial,html.Screen,4_104_0,2023-11-01T18:09:59.371Z,,0,3,,3030.5230000238516,response,ISIC_8689583.JPG,9,ISIC_1566428.JPG,ISIC_1566428.JPG,false,0,keypress(z),500,464792,464791.60000002384,461744.411,461744.2000000477,461761.077,464794.289,8,400,5,,ISIC_8689583.JPG
break,html.Screen,4_104_1,2023-11-01T18:09:59.372Z,,0,,,NaN,,,,,,false,,,,464792.7999999523,464792.5,,464792.2000000477,,464794.289,8,400,,,
break_continue,html.Screen,4_104_2,2023-11-01T18:09:59.372Z,,0,,,NaN,,,,,,false,,,,464793.2999999523,464793.10000002384,,464793,,464794.289,8,400,,,
sequence,flow.Sequence,4_104,2023-11-01T18:09:59.373Z,,0,,,3032.0230000238516,completion,,,,,false,,,,464793.5,464793.10000002384,461744.411,461744.10000002384,461761.077,464794.289,8,400,,,
trial,html.Screen,4_105_0,2023-11-01T18:10:02.080Z,,0,3,,2706.2110000000102,response,ISIC_0030913.JPG,6,ISIC_0000172.JPG,ISIC_0000172.JPG,false,0,keypress(z),500,467500.7999999523,467500.5,464777.623,464793.5,464794.289,467510.847,8,400,6,,ISIC_0030913.JPG
break,html.Screen,4_105_1,2023-11-01T18:10:02.081Z,,0,,,NaN,,,,,,false,,,,467501.60000002384,467501.39999997616,,467501,,467510.847,8,400,,,
break_continue,html.Screen,4_105_2,2023-11-01T18:10:02.081Z,,0,,,NaN,,,,,,false,,,,467502,467501.89999997616,,467501.7999999523,,467510.847,8,400,,,
sequence,flow.Sequence,4_105,2023-11-01T18:10:02.081Z,,0,,,2707.6109999761684,completion,,,,,false,,,,467502.2000000477,467501.89999997616,464777.623,464793.5,464794.289,467510.847,8,400,,,
trial,html.Screen,4_106_0,2023-11-01T18:10:05.386Z,,0,3,,3295.9529999523074,response,ISIC_0024355.JPG,7,ISIC_9433388.JPG,ISIC_0024355.JPG,false,1,keypress(m),500,470807.10000002384,470806.7999999523,467494.181,467502.2999999523,467510.847,470810.997,8,400,7,,ISIC_9433388.JPG
break,html.Screen,4_106_1,2023-11-01T18:10:05.387Z,,0,,,NaN,,,,,,false,,,,470807.89999997616,470807.7000000477,,470807.39999997616,,470810.997,8,400,,,
break_continue,html.Screen,4_106_2,2023-11-01T18:10:05.388Z,,0,,,NaN,,,,,,false,,,,470808.2999999523,470808.2000000477,,470808.10000002384,,470810.997,8,400,,,
sequence,flow.Sequence,4_106,2023-11-01T18:10:05.388Z,,0,,,3297.353000047675,completion,,,,,false,,,,470808.39999997616,470808.2000000477,467494.181,467502.2999999523,467510.847,470810.997,8,400,,,
trial,html.Screen,4_107_0,2023-11-01T18:10:09.072Z,,0,3,,3681.603000023868,response,ISIC_0033813.JPG,7,ISIC_0028874.JPG,ISIC_0033813.JPG,false,1,keypress(m),500,474492.7999999523,474492.60000002384,470794.331,470808.7000000477,470810.997,474494.183,8,400,8,,ISIC_0028874.JPG
break,html.Screen,4_107_1,2023-11-01T18:10:09.073Z,,0,,,NaN,,,,,,false,,,,474493.7000000477,474493.39999997616,,474493,,474494.183,8,400,,,
break_continue,html.Screen,4_107_2,2023-11-01T18:10:09.074Z,,0,,,NaN,,,,,,false,,,,474494.10000002384,474494,,474493.89999997616,,474494.183,8,400,,,
sequence,flow.Sequence,4_107,2023-11-01T18:10:09.074Z,,0,,,3683.003000000026,completion,,,,,false,,,,474494.39999997616,474494,470794.331,470808.60000002384,470810.997,474494.183,8,400,,,
trial,html.Screen,4_108_0,2023-11-01T18:10:12.059Z,,0,3,,2984.616999952297,response,ISIC_0944273.JPG,9,ISIC_0012382.JPG,ISIC_0944273.JPG,false,1,keypress(m),500,477479.10000002384,477478.7999999523,474477.517,474494.5,474494.183,477494.063,8,400,9,,ISIC_0012382.JPG
break,html.Screen,4_108_1,2023-11-01T18:10:12.059Z,,0,,,NaN,,,,,,false,,,,477479.89999997616,477479.7000000477,,477479.39999997616,,477494.063,8,400,,,
break_continue,html.Screen,4_108_2,2023-11-01T18:10:12.060Z,,0,,,NaN,,,,,,false,,,,477480.39999997616,477480.2000000477,,477480.10000002384,,477494.063,8,400,,,
sequence,flow.Sequence,4_108,2023-11-01T18:10:12.060Z,,0,,,2986.0170000476646,completion,,,,,false,,,,477480.5,477480.2000000477,474477.517,474494.39999997616,474494.183,477494.063,8,400,,,
trial,html.Screen,4_109_0,2023-11-01T18:10:14.912Z,,0,3,,2838.3369999761344,response,ISIC_0069667.JPG,7,ISIC_1081051.JPG,ISIC_0069667.JPG,false,1,keypress(m),500,480332.7000000477,480332.39999997616,477477.397,477480.7000000477,477494.063,480343.949,8,400,10,,ISIC_1081051.JPG
break,html.Screen,4_109_1,2023-11-01T18:10:14.913Z,,0,,,NaN,,,,,,false,,,,480333.60000002384,480333.2999999523,,480333,,480343.949,8,400,,,
break_continue,html.Screen,4_109_2,2023-11-01T18:10:14.914Z,,0,,,NaN,,,,,,false,,,,480334,480333.89999997616,,480333.7999999523,,480343.949,8,400,,,
sequence,flow.Sequence,4_109,2023-11-01T18:10:14.914Z,,0,,,2839.8369999761344,completion,,,,,false,,,,480334.2000000477,480333.89999997616,477477.397,477480.7000000477,477494.063,480343.949,8,400,,,
trial,html.Screen,4_110_0,2023-11-01T18:10:18.549Z,,0,3,,3625.350999952294,response,ISIC_0015023.JPG,6,ISIC_0000035.JPG,ISIC_0000035.JPG,false,0,keypress(z),500,483969.5,483969.2999999523,480327.283,480334.39999997616,480343.949,483977.4,8,400,11,,ISIC_0015023.JPG
break,html.Screen,4_110_1,2023-11-01T18:10:18.550Z,,0,,,NaN,,,,,,false,,,,483970.5,483970.2000000477,,483969.7999999523,,483977.4,8,400,,,
break_continue,html.Screen,4_110_2,2023-11-01T18:10:18.551Z,,0,,,NaN,,,,,,false,,,,483970.7999999523,483970.7999999523,,483970.60000002384,,483977.4,8,400,,,
sequence,flow.Sequence,4_110,2023-11-01T18:10:18.551Z,,0,,,3626.850999952294,completion,,,,,false,,,,483971.10000002384,483970.7999999523,480327.283,480334.2999999523,480343.949,483977.4,8,400,,,
trial,html.Screen,4_111_0,2023-11-01T18:10:21.515Z,,0,3,,2957.0999999999767,response,ISIC_0009911.JPG,7,ISIC_0911264.JPG,ISIC_0911264.JPG,false,0,keypress(z),500,486934.7999999523,486934.5,483960.734,483971.2000000477,483977.4,486943.948,8,400,12,,ISIC_0009911.JPG
break,html.Screen,4_111_1,2023-11-01T18:10:21.515Z,,0,,,NaN,,,,,,false,,,,486935.2999999523,486935.2000000477,,486935,,486943.948,8,400,,,
break_continue,html.Screen,4_111_2,2023-11-01T18:10:21.515Z,,0,,,NaN,,,,,,false,,,,486935.60000002384,486935.5,,486935.5,,486943.948,8,400,,,
sequence,flow.Sequence,4_111,2023-11-01T18:10:21.516Z,,0,,,2958.0999999999767,completion,,,,,false,,,,486935.7999999523,486935.5,483960.734,483971.2000000477,483977.4,486943.948,8,400,,,
trial,html.Screen,4_112_0,2023-11-01T18:10:24.849Z,,0,3,,3324.552000000025,response,ISIC_3805025.JPG,5,ISIC_0031028.JPG,ISIC_0031028.JPG,false,0,keypress(z),500,490268.7999999523,490268.5,486927.282,486935.7999999523,486943.948,490293.814,8,400,13,,ISIC_3805025.JPG
break,html.Screen,4_112_1,2023-11-01T18:10:24.849Z,,0,,,NaN,,,,,,false,,,,490269.60000002384,490269.39999997616,,490269,,490293.814,8,400,,,
break_continue,html.Screen,4_112_2,2023-11-01T18:10:24.850Z,,0,,,NaN,,,,,,false,,,,490270,490269.89999997616,,490269.7000000477,,490293.814,8,400,,,
sequence,flow.Sequence,4_112,2023-11-01T18:10:24.850Z,,0,,,3325.9519999761833,completion,,,,,false,,,,490270.2000000477,490269.89999997616,486927.282,486935.7999999523,486943.948,490293.814,8,400,,,
trial,html.Screen,4_113_0,2023-11-01T18:10:28.198Z,,0,3,,3323.9859999523032,response,ISIC_9358630.JPG,5,ISIC_0781380.JPG,ISIC_0781380.JPG,false,0,keypress(z),500,493618.2000000477,493617.7999999523,490277.148,490270.2999999523,490293.814,493627.3,8,400,14,,ISIC_9358630.JPG
break,html.Screen,4_113_1,2023-11-01T18:10:28.199Z,,0,,,NaN,,,,,,false,,,,493619,493618.7999999523,,493618.39999997616,,493627.3,8,400,,,
break_continue,html.Screen,4_113_2,2023-11-01T18:10:28.199Z,,0,,,NaN,,,,,,false,,,,493619.39999997616,493619.2999999523,,493619.10000002384,,493627.3,8,400,,,
sequence,flow.Sequence,4_113,2023-11-01T18:10:28.200Z,,0,,,3325.4859999523032,completion,,,,,false,,,,493619.60000002384,493619.2999999523,490277.148,490270.2999999523,490293.814,493627.3,8,400,,,
trial,html.Screen,4_114_0,2023-11-01T18:10:31.308Z,,0,3,,3099.9000000476954,response,ISIC_0026371.JPG,7,ISIC_0065537.JPG,ISIC_0065537.JPG,false,0,keypress(z),500,496727.5,496727.2000000477,493610.634,493619.7000000477,493627.3,496743.842,8,400,15,,ISIC_0026371.JPG
break,html.Screen,4_114_1,2023-11-01T18:10:31.308Z,,0,,,NaN,,,,,,false,,,,496728.39999997616,496728.2000000477,,496727.7000000477,,496743.842,8,400,,,
break_continue,html.Screen,4_114_2,2023-11-01T18:10:31.309Z,,0,,,NaN,,,,,,false,,,,496728.7000000477,496728.60000002384,,496728.5,,496743.842,8,400,,,
sequence,flow.Sequence,4_114,2023-11-01T18:10:31.309Z,,0,,,3101.3000000238535,completion,,,,,false,,,,496728.89999997616,496728.60000002384,493610.634,493619.7000000477,493627.3,496743.842,8,400,,,
trial,html.Screen,4_115_0,2023-11-01T18:10:36.753Z,,0,3,,5428.8580000476795,response,ISIC_0011459.JPG,6,ISIC_0024310.JPG,ISIC_0024310.JPG,false,0,keypress(z),500,502172.89999997616,502172.7000000477,496727.176,496729.10000002384,496743.842,502177.23,8,400,16,,ISIC_0011459.JPG
break,html.Screen,4_115_1,2023-11-01T18:10:36.754Z,,0,,,NaN,,,,,,false,,,,502173.7999999523,502173.60000002384,,502173.2000000477,,502177.23,8,400,,,
break_continue,html.Screen,4_115_2,2023-11-01T18:10:36.754Z,,0,,,NaN,,,,,,false,,,,502174.10000002384,502174,,502173.89999997616,,502177.23,8,400,,,
sequence,flow.Sequence,4_115,2023-11-01T18:10:36.755Z,,0,,,5430.157999999996,completion,,,,,false,,,,502174.2999999523,502174,496727.176,496729,496743.842,502177.23,8,400,,,
trial,html.Screen,4_116_0,2023-11-01T18:10:41.303Z,,0,3,,4544.8700000238605,response,ISIC_8766254.JPG,7,ISIC_3826001.JPG,ISIC_3826001.JPG,false,0,keypress(z),500,506722.39999997616,506722.10000002384,502160.564,502174.5,502177.23,506743.714,8,400,17,,ISIC_8766254.JPG
break,html.Screen,4_116_1,2023-11-01T18:10:41.303Z,,0,,,NaN,,,,,,false,,,,506723.2000000477,506723,,506722.7000000477,,506743.714,8,400,,,
break_continue,html.Screen,4_116_2,2023-11-01T18:10:41.304Z,,0,,,NaN,,,,,,false,,,,506723.60000002384,506723.5,,506723.2999999523,,506743.714,8,400,,,
sequence,flow.Sequence,4_116,2023-11-01T18:10:41.304Z,,0,,,4546.270000000019,completion,,,,,false,,,,506723.7999999523,506723.5,502160.564,502174.39999997616,502177.23,506743.714,8,400,,,
trial,html.Screen,4_117_0,2023-11-01T18:10:45.036Z,,0,3,,3711.4860000477056,response,ISIC_4541530.JPG,6,ISIC_4325452.JPG,ISIC_4325452.JPG,false,0,keypress(z),500,510455.5,510455.2000000477,506727.048,506724,506743.714,510460.232,8,400,18,,ISIC_4541530.JPG
break,html.Screen,4_117_1,2023-11-01T18:10:45.037Z,,0,,,NaN,,,,,,false,,,,510456.39999997616,510456.10000002384,,510455.7000000477,,510460.232,8,400,,,
break_continue,html.Screen,4_117_2,2023-11-01T18:10:45.037Z,,0,,,NaN,,,,,,false,,,,510456.7999999523,510456.60000002384,,510456.5,,510460.232,8,400,,,
sequence,flow.Sequence,4_117,2023-11-01T18:10:45.037Z,,0,,,3712.8860000238637,completion,,,,,false,,,,510456.89999997616,510456.60000002384,506727.048,506723.89999997616,506743.714,510460.232,8,400,,,
trial,html.Screen,4_118_0,2023-11-01T18:10:48.033Z,,0,3,,2992.267999999982,response,ISIC_7080584.JPG,7,ISIC_8769415.JPG,ISIC_7080584.JPG,false,1,keypress(m),500,513452.7000000477,513452.5,510443.566,510457,510460.232,513460.381,8,400,19,,ISIC_8769415.JPG
break,html.Screen,4_118_1,2023-11-01T18:10:48.034Z,,0,,,NaN,,,,,,false,,,,513453.60000002384,513453.39999997616,,513453.10000002384,,513460.381,8,400,,,
break_continue,html.Screen,4_118_2,2023-11-01T18:10:48.035Z,,0,,,NaN,,,,,,false,,,,513454.10000002384,513453.89999997616,,513453.7999999523,,513460.381,8,400,,,
sequence,flow.Sequence,4_118,2023-11-01T18:10:48.035Z,,0,,,2993.66799997614,completion,,,,,false,,,,513454.2999999523,513453.89999997616,510443.566,510457,510460.232,513460.381,8,400,,,
trial,html.Screen,4_119_0,2023-11-01T18:10:51.816Z,,0,3,,3773.8190000476898,response,ISIC_2823287.JPG,6,ISIC_8135400.JPG,ISIC_2823287.JPG,false,1,keypress(m),500,517235.10000002384,517234.2000000477,513443.715,513454.39999997616,513460.381,517243.563,8,400,20,,ISIC_8135400.JPG
break,html.Screen,4_119_1,2023-11-01T18:10:51.817Z,,0,,,NaN,,,,,,false,,,,517236.2999999523,517236.10000002384,,517235.5,,517243.563,8,400,,,
break_continue,html.Screen,4_119_2,2023-11-01T18:10:51.817Z,,0,,,NaN,,,,,,false,,,,517237,517236.60000002384,,517236.5,,517243.563,8,400,,,
sequence,flow.Sequence,4_119,2023-11-01T18:10:51.818Z,,0,,,3776.219000023848,completion,,,,,false,,,,517237.2000000477,517236.60000002384,513443.715,513454.39999997616,513460.381,517243.563,8,400,,,
trial,html.Screen,4_120_0,2023-11-01T18:10:55.344Z,,0,3,,3519.8369999761344,response,ISIC_0218072.JPG,5,ISIC_0234248.JPG,ISIC_0234248.JPG,false,0,keypress(z),500,520763.7000000477,520763.39999997616,517226.897,517237.2000000477,517243.563,520776.755,8,400,21,,ISIC_0218072.JPG
break,html.Screen,4_120_1,2023-11-01T18:10:55.345Z,,0,,,NaN,,,,,,false,,,,520764.60000002384,520764.39999997616,,520763.7999999523,,520776.755,8,400,,,
break_continue,html.Screen,4_120_2,2023-11-01T18:10:55.346Z,,0,,,NaN,,,,,,false,,,,520765.10000002384,520765,,520764.7000000477,,520776.755,8,400,,,
sequence,flow.Sequence,4_120,2023-11-01T18:10:55.346Z,,0,,,3521.4369999999763,completion,,,,,false,,,,520765.2999999523,520765,517226.897,517237.2000000477,517243.563,520776.755,8,400,,,
trial,html.Screen,4_121_0,2023-11-01T18:10:59.799Z,,0,3,,4441.044999952312,response,ISIC_0010360.JPG,7,ISIC_0027764.JPG,ISIC_0027764.JPG,false,0,keypress(z),500,525218.2000000477,525217.7999999523,520760.089,520765.39999997616,520776.755,525226.847,8,400,22,,ISIC_0010360.JPG
break,html.Screen,4_121_1,2023-11-01T18:10:59.800Z,,0,,,NaN,,,,,,false,,,,525219,525218.7000000477,,525218.2999999523,,525226.847,8,400,,,
break_continue,html.Screen,4_121_2,2023-11-01T18:10:59.800Z,,0,,,NaN,,,,,,false,,,,525219.3999999762,525219.2999999523,,525219.1000000238,,525226.847,8,400,,,
sequence,flow.Sequence,4_121,2023-11-01T18:10:59.800Z,,0,,,4442.544999952312,completion,,,,,false,,,,525219.6000000238,525219.2999999523,520760.089,520765.39999997616,520776.755,525226.847,8,400,,,
trial,html.Screen,4_122_0,2023-11-01T18:11:04.428Z,,0,3,,4620.353000047733,response,ISIC_3729849.JPG,7,ISIC_5434229.JPG,ISIC_5434229.JPG,false,0,keypress(z),500,529847.5,529847.2000000477,525210.181,525219.7999999523,525226.847,529859.995,8,400,23,,ISIC_3729849.JPG
break,html.Screen,4_122_1,2023-11-01T18:11:04.429Z,,0,,,NaN,,,,,,false,,,,529848.6000000238,529848.2999999523,,529847.7999999523,,529859.995,8,400,,,
break_continue,html.Screen,4_122_2,2023-11-01T18:11:04.430Z,,0,,,NaN,,,,,,false,,,,529849.1000000238,529848.8999999762,,529848.7000000477,,529859.995,8,400,,,
sequence,flow.Sequence,4_122,2023-11-01T18:11:04.430Z,,0,,,4622.0529999762075,completion,,,,,false,,,,529849.3999999762,529848.8999999762,525210.181,525219.7000000477,525226.847,529859.995,8,400,,,
trial,html.Screen,4_123_0,2023-11-01T18:11:07.956Z,,0,3,,3515.2050000476884,response,ISIC_0069486.JPG,6,ISIC_0072030.JPG,ISIC_0072030.JPG,false,0,keypress(z),500,533375.5,533375.2000000477,529843.329,529849.5,529859.995,533376.798,8,400,24,,ISIC_0069486.JPG
break,html.Screen,4_123_1,2023-11-01T18:11:07.957Z,,0,,,NaN,,,,,,false,,,,533376.3999999762,533376.2000000477,,533375.7999999523,,533376.798,8,400,,,
break_continue,html.Screen,4_123_2,2023-11-01T18:11:07.958Z,,0,,,NaN,,,,,,false,,,,533377,533376.7999999523,,533376.7000000477,,533376.798,8,400,,,
sequence,flow.Sequence,4_123,2023-11-01T18:11:07.958Z,,0,,,3516.804999952321,completion,,,,,false,,,,533377.2000000477,533376.7999999523,529843.329,529849.5,529859.995,533376.798,8,400,,,
trial,html.Screen,4_124_0,2023-11-01T18:11:11.241Z,,0,3,,3283.2020000000484,response,ISIC_0031795.JPG,8,ISIC_0032975.JPG,ISIC_0031795.JPG,false,1,keypress(m),500,536660.2000000477,536660,533360.132,533377.2999999523,533376.798,536676.666,8,400,25,,ISIC_0032975.JPG
break,html.Screen,4_124_1,2023-11-01T18:11:11.242Z,,0,,,NaN,,,,,,false,,,,536660.7000000477,536660.6000000238,,536660.2999999523,,536676.666,8,400,,,
break_continue,html.Screen,4_124_2,2023-11-01T18:11:11.242Z,,0,,,NaN,,,,,,false,,,,536660.8999999762,536660.7999999523,,536660.7000000477,,536676.666,8,400,,,
sequence,flow.Sequence,4_124,2023-11-01T18:11:11.242Z,,0,,,3284.0019999523647,completion,,,,,false,,,,536661,536660.7999999523,533360.132,533377.2999999523,533376.798,536676.666,8,400,,,
trial,html.Screen,4_125_0,2023-11-01T18:11:15.101Z,,0,3,,3842.4340000238735,response,ISIC_4246086.JPG,6,ISIC_0026756.JPG,ISIC_0026756.JPG,false,0,keypress(z),500,540519.5,540519.1000000238,536660,536661,536676.666,540526.512,8,400,26,,ISIC_4246086.JPG
break,html.Screen,4_125_1,2023-11-01T18:11:15.101Z,,0,,,NaN,,,,,,false,,,,540520.2999999523,540520,,540519.6000000238,,540526.512,8,400,,,
break_continue,html.Screen,4_125_2,2023-11-01T18:11:15.102Z,,0,,,NaN,,,,,,false,,,,540520.7000000477,540520.5,,540520.5,,540526.512,8,400,,,
sequence,flow.Sequence,4_125,2023-11-01T18:11:15.102Z,,0,,,3843.8340000000317,completion,,,,,false,,,,540520.8999999762,540520.5,536660,536661,536676.666,540526.512,8,400,,,
