sender,sender_type,sender_id,timestamp,meta,,blockNo,condition,duration,ended_on,img_left,img_reveal,img_right,loser,practice,response,response_action,selection_duration,time_commit,time_end,time_render,time_run,time_show,time_switch,total_blocks,total_trials,trialNo,url,winner
informed_consent,html.Screen,0,2023-11-01T18:21:41.123Z,"{""labjs_version"":""20.2.4"",""labjs_build"":{""flavor"":""production"",""commit"":""f5b4a49f956347addd546a832a3327688c2c0fef""},""location"":""https://run.pavlovia.org/MurrayBennett/melanoma-2afc/?participant=65646&platform=sona"",""userAgent"":""Mozilla/5.0 (Macintosh; Intel Mac OS X 10_15_7) AppleWebKit/537.36 (KHTML, like Gecko) Chrome/117.0.0.0 Safari/537.36"",""platform"":""MacIntel"",""language"":""en-US"",""locale"":""en-US"",""timeZone"":""America/Chicago"",""timezoneOffset"":300,""screen_width"":1470,""screen_height"":956,""scroll_width"":1470,""scroll_height"":651,""window_innerWidth"":1470,""window_innerHeight"":699,""devicePixelRatio"":2}",,,,3920.051999988079,response,,,,,,consent,click button,,7542.799999982119,7540.699999988079,3603.982,3612.0999999940395,3620.648,7553.824,,,,"{""participant"":""65646"",""platform"":""sona""}",
Welcome,html.Screen,1,2023-11-01T18:21:46.554Z,,,,colourful,5417.27599999404,response,,,,,,continue,click button,,12973.09999999404,12971.09999999404,7537.158,7542.899999976158,7553.824,12987.344,,,,,
trial,html.Screen,2_0_0,2023-11-01T18:21:55.266Z,,0,0,,8697.156,response,ISIC_0025593.JPG,,ISIC_0063388.JPG,ISIC_0063388.JPG,true,0,keypress(z),500,21685.09999999404,21684.5,12970.678,12973.399999976158,12987.344,21687.358,1,6,1,,ISIC_0025593.JPG
sequence,flow.Sequence,2_0,2023-11-01T18:21:55.267Z,,0,,,8697.156,completion,,,,,true,,,,21685.69999998808,21684.5,12970.678,12973.299999982119,12987.344,21687.358,1,6,,,
trial,html.Screen,2_1_0,2023-11-01T18:21:59.304Z,,0,0,,4034.7419999940394,response,ISIC_0028178.JPG,,ISIC_1309015.JPG,ISIC_1309015.JPG,true,0,keypress(z),500,25722.59999999404,25722.09999999404,21670.692,21685.899999976158,21687.358,25737.196,1,6,2,,ISIC_0028178.JPG
sequence,flow.Sequence,2_1,2023-11-01T18:21:59.304Z,,0,,,4034.7419999940394,completion,,,,,true,,,,25723.09999999404,25722.09999999404,21670.692,21685.79999998212,21687.358,25737.196,1,6,,,
trial,html.Screen,2_2_0,2023-11-01T18:22:03.887Z,,0,0,,4568.304,response,ISIC_0031128.JPG,,ISIC_3314853.JPG,ISIC_3314853.JPG,true,0,keypress(z),500,30306,30305.5,25720.53,25723.19999998808,25737.196,30320.346,1,6,3,,ISIC_0031128.JPG
sequence,flow.Sequence,2_2,2023-11-01T18:22:03.887Z,,0,,,4568.304,completion,,,,,true,,,,30306.399999976158,30305.5,25720.53,25723.19999998808,25737.196,30320.346,1,6,,,
trial,html.Screen,2_3_0,2023-11-01T18:22:09.653Z,,0,0,,5750.553999976157,response,ISIC_0031612.JPG,,ISIC_8980141.JPG,ISIC_0031612.JPG,true,1,keypress(m),500,36071.59999999404,36070.89999997616,30303.68,30306.69999998808,30320.346,36087.274,1,6,4,,ISIC_8980141.JPG
sequence,flow.Sequence,2_3,2023-11-01T18:22:09.653Z,,0,,,5750.553999976157,completion,,,,,true,,,,36072.19999998808,36070.89999997616,30303.68,30306.59999999404,30320.346,36087.274,1,6,,,
trial,html.Screen,2_4_0,2023-11-01T18:22:13.275Z,,0,0,,3606.1259999761605,response,ISIC_1197737.JPG,,ISIC_9721604.JPG,ISIC_9721604.JPG,true,0,keypress(z),500,39693.89999997616,39693.39999997616,36070.608,36072.5,36087.274,39703.796,1,6,5,,ISIC_1197737.JPG
sequence,flow.Sequence,2_4,2023-11-01T18:22:13.276Z,,0,,,3606.1259999761605,completion,,,,,true,,,,39694.5,39693.39999997616,36070.608,36072.39999997616,36087.274,39703.796,1,6,,,
trial,html.Screen,2_5_0,2023-11-01T18:22:17.874Z,,0,0,,4588.303999994037,response,ISIC_0010681.JPG,,ISIC_0025346.JPG,ISIC_0010681.JPG,true,1,keypress(m),500,44292.69999998808,44292.09999999404,39687.13,39694.79999998212,39703.796,44304.154,1,6,6,,ISIC_0025346.JPG
sequence,flow.Sequence,2_5,2023-11-01T18:22:17.874Z,,0,,,4588.303999994037,completion,,,,,true,,,,44293.09999999404,44292.09999999404,39687.13,39694.59999999404,39703.796,44304.154,1,6,,,
loop,flow.Loop,2,2023-11-01T18:22:17.875Z,,,,,31304.755999994042,completion,,,,,true,,,,44293.39999997616,44292.09999999404,12970.678,12973.299999982119,12987.344,44304.154,1,6,,,
exp_instructions,html.Screen,3,2023-11-01T18:22:23.239Z,,,,,5349.145999982116,response,,,,,,continue,keypress(Space),,49658.09999999404,49653.29999998212,44287.488,44293.59999999404,44304.154,49670.606,,,,,
trial,html.Screen,4_0_0,2023-11-01T18:22:28.896Z,,0,1,,5643.093999988079,response,ISIC_7806926.JPG,8,ISIC_0026611.JPG,ISIC_7806926.JPG,false,1,keypress(m),500,55314.19999998808,55313.69999998808,49653.94,49658.39999997616,49670.606,55320.679,8,400,1,,ISIC_0026611.JPG
break,html.Screen,4_0_1,2023-11-01T18:22:28.897Z,,0,,,NaN,,,,,,false,,,,55315.89999997616,55315.5,,55314.39999997616,,55320.679,8,400,,,
break_continue,html.Screen,4_0_2,2023-11-01T18:22:28.898Z,,0,,,NaN,,,,,,false,,,,55316.39999997616,55316.29999998212,,55316.09999999404,,55320.679,8,400,,,
sequence,flow.Sequence,4_0,2023-11-01T18:22:28.898Z,,0,,,5645.693999982119,completion,,,,,false,,,,55316.5,55316.29999998212,49653.94,49658.39999997616,49670.606,55320.679,8,400,,,
trial,html.Screen,4_1_0,2023-11-01T18:22:34.680Z,,0,1,,5777.620999982122,response,ISIC_0007749.JPG,7,ISIC_0006672.JPG,ISIC_0006672.JPG,false,0,keypress(z),500,61098.69999998808,61098.29999998212,55304.013,55316.59999999404,55320.679,61103.781,8,400,2,,ISIC_0007749.JPG
break,html.Screen,4_1_1,2023-11-01T18:22:34.682Z,,0,,,NaN,,,,,,false,,,,61100.19999998808,61099.79999998212,,61099,,61103.781,8,400,,,
break_continue,html.Screen,4_1_2,2023-11-01T18:22:34.682Z,,0,,,NaN,,,,,,false,,,,61100.69999998808,61100.59999999404,,61100.39999997616,,61103.781,8,400,,,
sequence,flow.Sequence,4_1,2023-11-01T18:22:34.682Z,,0,,,5779.920999994043,completion,,,,,false,,,,61100.89999997616,61100.59999999404,55304.013,55316.59999999404,55320.679,61103.781,8,400,,,
trial,html.Screen,4_2_0,2023-11-01T18:22:38.479Z,,0,1,,3793.518999982116,response,ISIC_0056391.JPG,5,ISIC_0024288.JPG,ISIC_0024288.JPG,false,0,keypress(z),500,64897.69999998808,64897.29999998212,61087.115,61101,61103.781,64903.629,8,400,3,,ISIC_0056391.JPG
break,html.Screen,4_2_1,2023-11-01T18:22:38.481Z,,0,,,NaN,,,,,,false,,,,64899.09999999404,64898.79999998212,,64898,,64903.629,8,400,,,
break_continue,html.Screen,4_2_2,2023-11-01T18:22:38.481Z,,0,,,NaN,,,,,,false,,,,64899.5,64899.39999997616,,64899.19999998808,,64903.629,8,400,,,
sequence,flow.Sequence,4_2,2023-11-01T18:22:38.481Z,,0,,,3795.6189999761555,completion,,,,,false,,,,64899.69999998808,64899.39999997616,61087.115,61100.89999997616,61103.781,64903.629,8,400,,,
trial,html.Screen,4_3_0,2023-11-01T18:22:41.305Z,,0,1,,2819.7709999761573,response,ISIC_7935989.JPG,8,ISIC_0027265.JPG,ISIC_0027265.JPG,false,0,keypress(z),500,67723.89999997616,67723.39999997616,64886.963,64899.79999998212,64903.629,67737.38,8,400,4,,ISIC_7935989.JPG
break,html.Screen,4_3_1,2023-11-01T18:22:41.307Z,,0,,,NaN,,,,,,false,,,,67725.29999998212,67724.89999997616,,67724.19999998808,,67737.38,8,400,,,
break_continue,html.Screen,4_3_2,2023-11-01T18:22:41.307Z,,0,,,NaN,,,,,,false,,,,67725.59999999404,67725.5,,67725.39999997616,,67737.38,8,400,,,
sequence,flow.Sequence,4_3,2023-11-01T18:22:41.307Z,,0,,,2821.870999999999,completion,,,,,false,,,,67725.69999998808,67725.5,64886.963,64899.79999998212,64903.629,67737.38,8,400,,,
trial,html.Screen,4_4_0,2023-11-01T18:22:44.836Z,,0,1,,3516.419999982114,response,ISIC_0067397.JPG,7,ISIC_6978997.JPG,ISIC_0067397.JPG,false,1,keypress(m),500,71254.19999998808,71253.79999998212,67720.714,67725.79999998212,67737.38,71270.572,8,400,5,,ISIC_6978997.JPG
break,html.Screen,4_4_1,2023-11-01T18:22:44.837Z,,0,,,NaN,,,,,,false,,,,71255.89999997616,71255.5,,71254.59999999404,,71270.572,8,400,,,
break_continue,html.Screen,4_4_2,2023-11-01T18:22:44.838Z,,0,,,NaN,,,,,,false,,,,71256.29999998212,71256.19999998808,,71255.89999997616,,71270.572,8,400,,,
sequence,flow.Sequence,4_4,2023-11-01T18:22:44.838Z,,0,,,3518.8199999880744,completion,,,,,false,,,,71256.5,71256.19999998808,67720.714,67725.79999998212,67737.38,71270.572,8,400,,,
trial,html.Screen,4_5_0,2023-11-01T18:22:47.753Z,,0,1,,2900.7279999821185,response,ISIC_6178088.JPG,5,ISIC_0054244.JPG,ISIC_6178088.JPG,false,1,keypress(m),500,74171.79999998212,74171.29999998212,71253.906,71256.59999999404,71270.572,74187.122,8,400,6,,ISIC_0054244.JPG
break,html.Screen,4_5_1,2023-11-01T18:22:47.755Z,,0,,,NaN,,,,,,false,,,,74173.09999999404,74172.79999998212,,74172,,74187.122,8,400,,,
break_continue,html.Screen,4_5_2,2023-11-01T18:22:47.755Z,,0,,,NaN,,,,,,false,,,,74173.59999999404,74173.39999997616,,74173.19999998808,,74187.122,8,400,,,
sequence,flow.Sequence,4_5,2023-11-01T18:22:47.755Z,,0,,,2902.827999976158,completion,,,,,false,,,,74173.79999998212,74173.39999997616,71253.906,71256.59999999404,71270.572,74187.122,8,400,,,
trial,html.Screen,4_6_0,2023-11-01T18:22:54.083Z,,0,1,,6314.177999982116,response,ISIC_3601224.JPG,8,ISIC_0031350.JPG,ISIC_3601224.JPG,false,1,keypress(m),500,80501.79999998212,80501.29999998212,74170.456,74174,74187.122,80503.972,8,400,7,,ISIC_0031350.JPG
break,html.Screen,4_6_1,2023-11-01T18:22:54.085Z,,0,,,NaN,,,,,,false,,,,80503.09999999404,80502.79999998212,,80502.09999999404,,80503.972,8,400,,,
break_continue,html.Screen,4_6_2,2023-11-01T18:22:54.085Z,,0,,,NaN,,,,,,false,,,,80503.69999998808,80503.59999999404,,80503.29999998212,,80503.972,8,400,,,
sequence,flow.Sequence,4_6,2023-11-01T18:22:54.086Z,,0,,,6316.4779999940365,completion,,,,,false,,,,80503.89999997616,80503.59999999404,74170.456,74173.79999998212,74187.122,80503.972,8,400,,,
trial,html.Screen,4_7_0,2023-11-01T18:22:56.937Z,,0,1,,2851.227999988085,response,ISIC_0072641.JPG,8,ISIC_3067522.JPG,ISIC_3067522.JPG,false,0,keypress(z),500,83355.69999998808,83355.19999998808,80487.306,80504.09999999404,80503.972,83370.524,8,400,8,,ISIC_0072641.JPG
break,html.Screen,4_7_1,2023-11-01T18:22:56.939Z,,0,,,NaN,,,,,,false,,,,83357.29999998212,83356.89999997616,,83356.19999998808,,83370.524,8,400,,,
break_continue,html.Screen,4_7_2,2023-11-01T18:22:56.939Z,,0,,,NaN,,,,,,false,,,,83357.79999998212,83357.69999998808,,83357.39999997616,,83370.524,8,400,,,
sequence,flow.Sequence,4_7,2023-11-01T18:22:56.940Z,,0,,,2853.727999988085,completion,,,,,false,,,,83357.89999997616,83357.69999998808,80487.306,80504,80503.972,83370.524,8,400,,,
trial,html.Screen,4_8_0,2023-11-01T18:22:59.734Z,,0,1,,2780.975999999995,response,ISIC_0010834.JPG,8,ISIC_0029441.JPG,ISIC_0010834.JPG,false,1,keypress(m),500,86152,86151.5,83353.858,83359.09999999404,83370.524,86154.136,8,400,9,,ISIC_0029441.JPG
break,html.Screen,4_8_1,2023-11-01T18:22:59.735Z,,0,,,NaN,,,,,,false,,,,86153.5,86153.09999999404,,86152.29999998212,,86154.136,8,400,,,
break_continue,html.Screen,4_8_2,2023-11-01T18:22:59.736Z,,0,,,NaN,,,,,,false,,,,86153.89999997616,86153.79999998212,,86153.59999999404,,86154.136,8,400,,,
sequence,flow.Sequence,4_8,2023-11-01T18:22:59.736Z,,0,,,2783.2759999821137,completion,,,,,false,,,,86154,86153.79999998212,83353.858,83359,83370.524,86154.136,8,400,,,
trial,html.Screen,4_9_0,2023-11-01T18:23:03.053Z,,0,1,,3316.8640000000014,response,ISIC_0011924.JPG,8,ISIC_9525136.JPG,ISIC_9525136.JPG,false,0,keypress(z),500,89471.59999999404,89471,86137.47,86154.19999998808,86154.136,89487.336,8,400,10,,ISIC_0011924.JPG
break,html.Screen,4_9_1,2023-11-01T18:23:03.055Z,,0,,,NaN,,,,,,false,,,,89473.09999999404,89472.79999998212,,89472.09999999404,,89487.336,8,400,,,
break_continue,html.Screen,4_9_2,2023-11-01T18:23:03.055Z,,0,,,NaN,,,,,,false,,,,89473.59999999404,89473.5,,89473.29999998212,,89487.336,8,400,,,
sequence,flow.Sequence,4_9,2023-11-01T18:23:03.056Z,,0,,,3319.3640000000014,completion,,,,,false,,,,89473.79999998212,89473.5,86137.47,86154.09999999404,86154.136,89487.336,8,400,,,
trial,html.Screen,4_10_0,2023-11-01T18:23:06.518Z,,0,1,,3448.5639999761624,response,ISIC_4088444.JPG,7,ISIC_9410044.JPG,ISIC_9410044.JPG,false,0,keypress(z),500,92936.29999998212,92935.89999997616,89470.67,89473.89999997616,89487.336,92937.198,8,400,11,,ISIC_4088444.JPG
break,html.Screen,4_10_1,2023-11-01T18:23:06.519Z,,0,,,NaN,,,,,,false,,,,92937.5,92937.19999998808,,92936.59999999404,,92937.198,8,400,,,
break_continue,html.Screen,4_10_2,2023-11-01T18:23:06.520Z,,0,,,NaN,,,,,,false,,,,92938.09999999404,92937.89999997616,,92937.69999998808,,92937.198,8,400,,,
sequence,flow.Sequence,4_10,2023-11-01T18:23:06.520Z,,0,,,3450.5639999761624,completion,,,,,false,,,,92938.19999998808,92937.89999997616,89470.67,89473.89999997616,89487.336,92937.198,8,400,,,
trial,html.Screen,4_11_0,2023-11-01T18:23:09.214Z,,0,1,,2694.801999999996,response,ISIC_0029716.JPG,7,ISIC_0056152.JPG,ISIC_0056152.JPG,false,0,keypress(z),500,95632.29999998212,95632,92920.532,92938.29999998212,92937.198,95637.09,8,400,12,,ISIC_0029716.JPG
break,html.Screen,4_11_1,2023-11-01T18:23:09.215Z,,0,,,NaN,,,,,,false,,,,95633.59999999404,95633.29999998212,,95632.59999999404,,95637.09,8,400,,,
break_continue,html.Screen,4_11_2,2023-11-01T18:23:09.216Z,,0,,,NaN,,,,,,false,,,,95634,95633.89999997616,,95633.69999998808,,95637.09,8,400,,,
sequence,flow.Sequence,4_11,2023-11-01T18:23:09.216Z,,0,,,2696.701999976154,completion,,,,,false,,,,95634.19999998808,95633.89999997616,92920.532,92938.19999998808,92937.198,95637.09,8,400,,,
trial,html.Screen,4_12_0,2023-11-01T18:23:12.565Z,,0,1,,3346.3099999761616,response,ISIC_0808203.JPG,8,ISIC_0024567.JPG,ISIC_0024567.JPG,false,0,keypress(z),500,98983.59999999404,98983.39999997616,95620.424,95634.29999998212,95637.09,98987.389,8,400,13,,ISIC_0808203.JPG
break,html.Screen,4_12_1,2023-11-01T18:23:12.567Z,,0,,,NaN,,,,,,false,,,,98985.59999999404,98985.39999997616,,98983.79999998212,,98987.389,8,400,,,
break_continue,html.Screen,4_12_2,2023-11-01T18:23:12.568Z,,0,,,NaN,,,,,,false,,,,98985.89999997616,98985.79999998212,,98985.69999998808,,98987.389,8,400,,,
sequence,flow.Sequence,4_12,2023-11-01T18:23:12.568Z,,0,,,3348.709999982122,completion,,,,,false,,,,98986,98985.79999998212,95620.424,95634.29999998212,95637.09,98987.389,8,400,,,
trial,html.Screen,4_13_0,2023-11-01T18:23:15.181Z,,0,1,,2611.8109999880835,response,ISIC_0069791.JPG,8,ISIC_2293230.JPG,ISIC_2293230.JPG,false,0,keypress(z),500,101599.59999999404,101599.19999998808,98970.723,98986,98987.389,101603.951,8,400,14,,ISIC_0069791.JPG
break,html.Screen,4_13_1,2023-11-01T18:23:15.183Z,,0,,,NaN,,,,,,false,,,,101600.89999997616,101600.59999999404,,101599.79999998212,,101603.951,8,400,,,
break_continue,html.Screen,4_13_2,2023-11-01T18:23:15.183Z,,0,,,NaN,,,,,,false,,,,101601.29999998212,101601.09999999404,,101601,,101603.951,8,400,,,
sequence,flow.Sequence,4_13,2023-11-01T18:23:15.183Z,,0,,,2613.710999994044,completion,,,,,false,,,,101601.39999997616,101601.09999999404,98970.723,98986,98987.389,101603.951,8,400,,,
trial,html.Screen,4_14_0,2023-11-01T18:23:18.181Z,,0,1,,2994.248999988078,response,ISIC_0030747.JPG,7,ISIC_0030501.JPG,ISIC_0030747.JPG,false,1,keypress(m),500,104598.69999998808,104598.19999998808,101587.285,101601.59999999404,101603.951,104603.831,8,400,15,,ISIC_0030501.JPG
break,html.Screen,4_14_1,2023-11-01T18:23:18.182Z,,0,,,NaN,,,,,,false,,,,104600,104599.69999998808,,104598.89999997616,,104603.831,8,400,,,
break_continue,html.Screen,4_14_2,2023-11-01T18:23:18.182Z,,0,,,NaN,,,,,,false,,,,104600.39999997616,104600.29999998212,,104600.09999999404,,104603.831,8,400,,,
sequence,flow.Sequence,4_14,2023-11-01T18:23:18.183Z,,0,,,2996.3489999821177,completion,,,,,false,,,,104600.69999998808,104600.29999998212,101587.285,101601.59999999404,101603.951,104603.831,8,400,,,
trial,html.Screen,4_15_0,2023-11-01T18:23:21.404Z,,0,1,,3218.0689999761526,response,ISIC_0027537.JPG,9,ISIC_2639144.JPG,ISIC_0027537.JPG,false,1,keypress(m),500,107822.19999998808,107821.89999997616,104587.165,104600.69999998808,104603.831,107837.457,8,400,16,,ISIC_2639144.JPG
break,html.Screen,4_15_1,2023-11-01T18:23:21.405Z,,0,,,NaN,,,,,,false,,,,107823.5,107823.29999998212,,107822.59999999404,,107837.457,8,400,,,
break_continue,html.Screen,4_15_2,2023-11-01T18:23:21.406Z,,0,,,NaN,,,,,,false,,,,107824,107823.89999997616,,107823.69999998808,,107837.457,8,400,,,
sequence,flow.Sequence,4_15,2023-11-01T18:23:21.406Z,,0,,,3220.0689999761526,completion,,,,,false,,,,107824.19999998808,107823.89999997616,104587.165,104600.69999998808,104603.831,107837.457,8,400,,,
trial,html.Screen,4_16_0,2023-11-01T18:23:24.532Z,,0,1,,3112.1429999940447,response,ISIC_0012450.JPG,7,ISIC_0150363.JPG,ISIC_0012450.JPG,false,1,keypress(m),500,110950.09999999404,110949.59999999404,107820.791,107824.29999998212,107837.457,110953.999,8,400,17,,ISIC_0150363.JPG
break,html.Screen,4_16_1,2023-11-01T18:23:24.533Z,,0,,,NaN,,,,,,false,,,,110951.39999997616,110951.09999999404,,110950.39999997616,,110953.999,8,400,,,
break_continue,html.Screen,4_16_2,2023-11-01T18:23:24.534Z,,0,,,NaN,,,,,,false,,,,110951.79999998212,110951.79999998212,,110951.59999999404,,110953.999,8,400,,,
sequence,flow.Sequence,4_16,2023-11-01T18:23:24.534Z,,0,,,3114.3429999821237,completion,,,,,false,,,,110952,110951.79999998212,107820.791,107824.29999998212,107837.457,110953.999,8,400,,,
trial,html.Screen,4_17_0,2023-11-01T18:23:27.995Z,,0,1,,3458.501000000004,response,ISIC_0066338.JPG,8,ISIC_0010304.JPG,ISIC_0010304.JPG,false,0,keypress(z),500,114412.89999997616,114412.5,110937.333,110952.19999998808,110953.999,114420.527,8,400,18,,ISIC_0066338.JPG
break,html.Screen,4_17_1,2023-11-01T18:23:27.996Z,,0,,,NaN,,,,,,false,,,,114414.09999999404,114413.79999998212,,114413.19999998808,,114420.527,8,400,,,
break_continue,html.Screen,4_17_2,2023-11-01T18:23:27.997Z,,0,,,NaN,,,,,,false,,,,114414.59999999404,114414.39999997616,,114414.19999998808,,114420.527,8,400,,,
sequence,flow.Sequence,4_17,2023-11-01T18:23:27.997Z,,0,,,3460.400999976162,completion,,,,,false,,,,114414.79999998212,114414.39999997616,110937.333,110952.19999998808,110953.999,114420.527,8,400,,,
trial,html.Screen,4_18_0,2023-11-01T18:23:31.536Z,,0,1,,3533.2729999821167,response,ISIC_8727731.JPG,6,ISIC_9989936.JPG,ISIC_9989936.JPG,false,0,keypress(z),500,117954.19999998808,117953.79999998212,114403.861,114414.79999998212,114420.527,117970.78,8,400,19,,ISIC_8727731.JPG
break,html.Screen,4_18_1,2023-11-01T18:23:31.538Z,,0,,,NaN,,,,,,false,,,,117955.59999999404,117955.19999998808,,117954.5,,117970.78,8,400,,,
break_continue,html.Screen,4_18_2,2023-11-01T18:23:31.538Z,,0,,,NaN,,,,,,false,,,,117956.09999999404,117955.89999997616,,117955.69999998808,,117970.78,8,400,,,
sequence,flow.Sequence,4_18,2023-11-01T18:23:31.538Z,,0,,,3535.3729999761563,completion,,,,,false,,,,117956.19999998808,117955.89999997616,114403.861,114414.79999998212,114420.527,117970.78,8,400,,,
trial,html.Screen,4_19_0,2023-11-01T18:23:34.647Z,,0,1,,3094.1199999761593,response,ISIC_5298216.JPG,8,ISIC_8344345.JPG,ISIC_8344345.JPG,false,0,keypress(z),500,121065.19999998808,121064.89999997616,117954.114,117956.29999998212,117970.78,121070.656,8,400,20,,ISIC_5298216.JPG
break,html.Screen,4_19_1,2023-11-01T18:23:34.649Z,,0,,,NaN,,,,,,false,,,,121066.59999999404,121066.19999998808,,121065.5,,121070.656,8,400,,,
break_continue,html.Screen,4_19_2,2023-11-01T18:23:34.649Z,,0,,,NaN,,,,,,false,,,,121067,121066.89999997616,,121066.69999998808,,121070.656,8,400,,,
sequence,flow.Sequence,4_19,2023-11-01T18:23:34.649Z,,0,,,3096.1199999761593,completion,,,,,false,,,,121067.09999999404,121066.89999997616,117954.114,117956.29999998212,117970.78,121070.656,8,400,,,
trial,html.Screen,4_20_0,2023-11-01T18:23:38.015Z,,0,1,,3361.2439999761555,response,ISIC_5434055.JPG,7,ISIC_7131689.JPG,ISIC_5434055.JPG,false,1,keypress(m),500,124432.29999998212,124431.89999997616,121053.99,121067.09999999404,121070.656,124437.188,8,400,21,,ISIC_7131689.JPG
break,html.Screen,4_20_1,2023-11-01T18:23:38.016Z,,0,,,NaN,,,,,,false,,,,124433.69999998808,124433.39999997616,,124432.59999999404,,124437.188,8,400,,,
break_continue,html.Screen,4_20_2,2023-11-01T18:23:38.016Z,,0,,,NaN,,,,,,false,,,,124434.09999999404,124434,,124433.89999997616,,124437.188,8,400,,,
sequence,flow.Sequence,4_20,2023-11-01T18:23:38.016Z,,0,,,3363.3439999999973,completion,,,,,false,,,,124434.29999998212,124434,121053.99,121067.09999999404,121070.656,124437.188,8,400,,,
trial,html.Screen,4_21_0,2023-11-01T18:23:40.982Z,,0,1,,2962.111999982124,response,ISIC_0579562.JPG,8,ISIC_7131359.JPG,ISIC_7131359.JPG,false,0,keypress(z),500,127399.79999998212,127399.29999998212,124420.522,124434.5,124437.188,127403.736,8,400,22,,ISIC_0579562.JPG
break,html.Screen,4_21_1,2023-11-01T18:23:40.983Z,,0,,,NaN,,,,,,false,,,,127401.19999998808,127401,,127400,,127403.736,8,400,,,
break_continue,html.Screen,4_21_2,2023-11-01T18:23:40.984Z,,0,,,NaN,,,,,,false,,,,127401.69999998808,127401.59999999404,,127401.29999998212,,127403.736,8,400,,,
sequence,flow.Sequence,4_21,2023-11-01T18:23:40.984Z,,0,,,2964.411999994045,completion,,,,,false,,,,127401.79999998212,127401.59999999404,124420.522,124434.39999997616,124437.188,127403.736,8,400,,,
trial,html.Screen,4_22_0,2023-11-01T18:23:43.837Z,,0,1,,2850.363999994035,response,ISIC_3963183.JPG,8,ISIC_2246150.JPG,ISIC_2246150.JPG,false,0,keypress(z),500,130254.39999997616,130254.09999999404,127387.07,127401.89999997616,127403.736,130270.751,8,400,23,,ISIC_3963183.JPG
break,html.Screen,4_22_1,2023-11-01T18:23:43.838Z,,0,,,NaN,,,,,,false,,,,130256,130255.69999998808,,130254.69999998808,,130270.751,8,400,,,
break_continue,html.Screen,4_22_2,2023-11-01T18:23:43.839Z,,0,,,NaN,,,,,,false,,,,130256.5,130256.29999998212,,130256.09999999404,,130270.751,8,400,,,
sequence,flow.Sequence,4_22,2023-11-01T18:23:43.839Z,,0,,,2852.563999982114,completion,,,,,false,,,,130256.69999998808,130256.29999998212,127387.07,127401.79999998212,127403.736,130270.751,8,400,,,
trial,html.Screen,4_23_0,2023-11-01T18:23:46.691Z,,0,1,,2837.4489999880752,response,ISIC_2202486.JPG,8,ISIC_5974838.JPG,ISIC_5974838.JPG,false,0,keypress(z),500,133108.59999999404,133108.19999998808,130254.085,130256.79999998212,130270.751,133120.637,8,400,24,,ISIC_2202486.JPG
break,html.Screen,4_23_1,2023-11-01T18:23:46.692Z,,0,,,NaN,,,,,,false,,,,133109.89999997616,133109.5,,133108.79999998212,,133120.637,8,400,,,
break_continue,html.Screen,4_23_2,2023-11-01T18:23:46.693Z,,0,,,NaN,,,,,,false,,,,133110.29999998212,133110.19999998808,,133110,,133120.637,8,400,,,
sequence,flow.Sequence,4_23,2023-11-01T18:23:46.693Z,,0,,,2839.4489999880752,completion,,,,,false,,,,133110.5,133110.19999998808,130254.085,130256.79999998212,130270.751,133120.637,8,400,,,
trial,html.Screen,4_24_0,2023-11-01T18:23:50.506Z,,0,1,,3802.7629999761702,response,ISIC_0024516.JPG,8,ISIC_0032847.JPG,ISIC_0024516.JPG,false,1,keypress(m),500,136923.69999998808,136923.39999997616,133103.971,133110.59999999404,133120.637,136937.151,8,400,25,,ISIC_0032847.JPG
break,html.Screen,4_24_1,2023-11-01T18:23:50.507Z,,0,,,NaN,,,,,,false,,,,136924.39999997616,136924.29999998212,,136923.79999998212,,136937.151,8,400,,,
break_continue,html.Screen,4_24_2,2023-11-01T18:23:50.507Z,,0,,,NaN,,,,,,false,,,,136924.59999999404,136924.59999999404,,136924.5,,136937.151,8,400,,,
sequence,flow.Sequence,4_24,2023-11-01T18:23:50.507Z,,0,,,3803.9629999940516,completion,,,,,false,,,,136924.69999998808,136924.59999999404,133103.971,133110.59999999404,133120.637,136937.151,8,400,,,
trial,html.Screen,4_25_0,2023-11-01T18:23:53.216Z,,0,1,,2696.2489999761456,response,ISIC_8278688.JPG,7,ISIC_0026868.JPG,ISIC_8278688.JPG,false,1,keypress(m),500,139633.89999997616,139633.39999997616,136920.485,136924.79999998212,136937.151,139637.426,8,400,26,,ISIC_0026868.JPG
break,html.Screen,4_25_1,2023-11-01T18:23:53.218Z,,0,,,NaN,,,,,,false,,,,139635.19999998808,139634.79999998212,,139634.09999999404,,139637.426,8,400,,,
break_continue,html.Screen,4_25_2,2023-11-01T18:23:53.218Z,,0,,,NaN,,,,,,false,,,,139635.69999998808,139635.5,,139635.39999997616,,139637.426,8,400,,,
sequence,flow.Sequence,4_25,2023-11-01T18:23:53.218Z,,0,,,2698.3489999999874,completion,,,,,false,,,,139635.79999998212,139635.5,136920.485,136924.79999998212,136937.151,139637.426,8,400,,,
trial,html.Screen,4_26_0,2023-11-01T18:23:56.135Z,,0,1,,2914.673999994033,response,ISIC_5367118.JPG,8,ISIC_2355374.JPG,ISIC_2355374.JPG,false,0,keypress(z),500,142552.59999999404,142552.09999999404,139620.76,139635.89999997616,139637.426,142553.976,8,400,27,,ISIC_5367118.JPG
break,html.Screen,4_26_1,2023-11-01T18:23:56.136Z,,0,,,NaN,,,,,,false,,,,142553.89999997616,142553.59999999404,,142552.89999997616,,142553.976,8,400,,,
break_continue,html.Screen,4_26_2,2023-11-01T18:23:56.137Z,,0,,,NaN,,,,,,false,,,,142554.29999998212,142554.19999998808,,142553.89999997616,,142553.976,8,400,,,
sequence,flow.Sequence,4_26,2023-11-01T18:23:56.137Z,,0,,,2916.7739999880723,completion,,,,,false,,,,142554.39999997616,142554.19999998808,139620.76,139635.89999997616,139637.426,142553.976,8,400,,,
trial,html.Screen,4_27_0,2023-11-01T18:23:58.784Z,,0,1,,2647.3239999821235,response,ISIC_9694867.JPG,5,ISIC_0034311.JPG,ISIC_9694867.JPG,false,1,keypress(m),500,145201.79999998212,145201.29999998212,142537.31,142554.59999999404,142553.976,145203.87,8,400,28,,ISIC_0034311.JPG
break,html.Screen,4_27_1,2023-11-01T18:23:58.786Z,,0,,,NaN,,,,,,false,,,,145203.19999998808,145202.89999997616,,145202.09999999404,,145203.87,8,400,,,
break_continue,html.Screen,4_27_2,2023-11-01T18:23:58.786Z,,0,,,NaN,,,,,,false,,,,145203.59999999404,145203.5,,145203.29999998212,,145203.87,8,400,,,
sequence,flow.Sequence,4_27,2023-11-01T18:23:58.786Z,,0,,,2649.524000000005,completion,,,,,false,,,,145203.79999998212,145203.5,142537.31,142554.59999999404,142553.976,145203.87,8,400,,,
trial,html.Screen,4_28_0,2023-11-01T18:24:01.867Z,,0,1,,3080.229999994044,response,ISIC_9134566.JPG,6,ISIC_3613392.JPG,ISIC_9134566.JPG,false,1,keypress(m),500,148284.5,148284.09999999404,145187.204,145203.89999997616,145203.87,148287.08,8,400,29,,ISIC_3613392.JPG
break,html.Screen,4_28_1,2023-11-01T18:24:01.868Z,,0,,,NaN,,,,,,false,,,,148285.69999998808,148285.59999999404,,148284.79999998212,,148287.08,8,400,,,
break_continue,html.Screen,4_28_2,2023-11-01T18:24:01.869Z,,0,,,NaN,,,,,,false,,,,148286.29999998212,148286.19999998808,,148286,,148287.08,8,400,,,
sequence,flow.Sequence,4_28,2023-11-01T18:24:01.869Z,,0,,,3082.3299999880837,completion,,,,,false,,,,148286.39999997616,148286.19999998808,145187.204,145203.79999998212,145203.87,148287.08,8,400,,,
trial,html.Screen,4_29_0,2023-11-01T18:24:04.452Z,,0,1,,2581.619999988092,response,ISIC_0069204.JPG,7,ISIC_5721677.JPG,ISIC_5721677.JPG,false,0,keypress(z),500,150869.19999998808,150868.69999998808,148270.414,148286.59999999404,148287.08,150870.748,8,400,30,,ISIC_0069204.JPG
break,html.Screen,4_29_1,2023-11-01T18:24:04.453Z,,0,,,NaN,,,,,,false,,,,150870.39999997616,150870.19999998808,,150869.5,,150870.748,8,400,,,
break_continue,html.Screen,4_29_2,2023-11-01T18:24:04.453Z,,0,,,NaN,,,,,,false,,,,150870.89999997616,150870.79999998212,,150870.59999999404,,150870.748,8,400,,,
sequence,flow.Sequence,4_29,2023-11-01T18:24:04.454Z,,0,,,2583.7199999821314,completion,,,,,false,,,,150871.09999999404,150870.79999998212,148270.414,148286.59999999404,148287.08,150870.748,8,400,,,
trial,html.Screen,4_30_0,2023-11-01T18:24:07.163Z,,0,1,,2709.351999994047,response,ISIC_0034089.JPG,6,ISIC_9161341.JPG,ISIC_9161341.JPG,false,0,keypress(z),500,153580.5,153580.09999999404,150854.082,150871.19999998808,150870.748,153587.306,8,400,31,,ISIC_0034089.JPG
break,html.Screen,4_30_1,2023-11-01T18:24:07.164Z,,0,,,NaN,,,,,,false,,,,153581.79999998212,153581.5,,153580.79999998212,,153587.306,8,400,,,
break_continue,html.Screen,4_30_2,2023-11-01T18:24:07.165Z,,0,,,NaN,,,,,,false,,,,153582.19999998808,153582.09999999404,,153582,,153587.306,8,400,,,
sequence,flow.Sequence,4_30,2023-11-01T18:24:07.165Z,,0,,,2711.351999994047,completion,,,,,false,,,,153582.29999998212,153582.09999999404,150854.082,150871.19999998808,150870.748,153587.306,8,400,,,
trial,html.Screen,4_31_0,2023-11-01T18:24:09.873Z,,0,1,,2702.8939999880677,response,ISIC_0004075.JPG,7,ISIC_3985782.JPG,ISIC_0004075.JPG,false,1,keypress(m),500,156290.69999998808,156290.19999998808,153570.64,153582.59999999404,153587.306,156303.864,8,400,32,,ISIC_3985782.JPG
break,html.Screen,4_31_1,2023-11-01T18:24:09.875Z,,0,,,NaN,,,,,,false,,,,156292.5,156292.09999999404,,156291.39999997616,,156303.864,8,400,,,
break_continue,html.Screen,4_31_2,2023-11-01T18:24:09.876Z,,0,,,NaN,,,,,,false,,,,156293.89999997616,156292.89999997616,,156292.69999998808,,156303.864,8,400,,,
sequence,flow.Sequence,4_31,2023-11-01T18:24:09.877Z,,0,,,2705.5939999761467,completion,,,,,false,,,,156294,156292.89999997616,153570.64,153582.5,153587.306,156303.864,8,400,,,
trial,html.Screen,4_32_0,2023-11-01T18:24:12.701Z,,0,1,,2813.735999994038,response,ISIC_7820005.JPG,8,ISIC_8953848.JPG,ISIC_8953848.JPG,false,0,keypress(z),500,159118,159117.59999999404,156287.198,156294.09999999404,156303.864,159120.821,8,400,33,,ISIC_7820005.JPG
break,html.Screen,4_32_1,2023-11-01T18:24:12.702Z,,0,,,NaN,,,,,,false,,,,159119.39999997616,159119.09999999404,,159118.29999998212,,159120.821,8,400,,,
break_continue,html.Screen,4_32_2,2023-11-01T18:24:12.703Z,,0,,,NaN,,,,,,false,,,,159119.89999997616,159119.79999998212,,159119.5,,159120.821,8,400,,,
sequence,flow.Sequence,4_32,2023-11-01T18:24:12.703Z,,0,,,2815.935999982117,completion,,,,,false,,,,159120.09999999404,159119.79999998212,156287.198,156294,156303.864,159120.821,8,400,,,
trial,html.Screen,4_33_0,2023-11-01T18:24:15.345Z,,0,1,,2641.2789999940433,response,ISIC_8253326.JPG,7,ISIC_0014694.JPG,ISIC_8253326.JPG,false,1,keypress(m),500,161762.59999999404,161762.09999999404,159104.155,159120.19999998808,159120.821,161770.715,8,400,34,,ISIC_0014694.JPG
break,html.Screen,4_33_1,2023-11-01T18:24:15.346Z,,0,,,NaN,,,,,,false,,,,161763.79999998212,161763.59999999404,,161762.79999998212,,161770.715,8,400,,,
break_continue,html.Screen,4_33_2,2023-11-01T18:24:15.347Z,,0,,,NaN,,,,,,false,,,,161764.29999998212,161764.19999998808,,161763.89999997616,,161770.715,8,400,,,
sequence,flow.Sequence,4_33,2023-11-01T18:24:15.347Z,,0,,,2643.378999988083,completion,,,,,false,,,,161764.59999999404,161764.19999998808,159104.155,159120.19999998808,159120.821,161770.715,8,400,,,
trial,html.Screen,4_34_0,2023-11-01T18:24:18.923Z,,0,1,,3568.6849999761616,response,ISIC_0033087.JPG,8,ISIC_0011649.JPG,ISIC_0033087.JPG,false,1,keypress(m),500,165339.79999998212,165339.39999997616,161754.049,161764.59999999404,161770.715,165353.905,8,400,35,,ISIC_0011649.JPG
break,html.Screen,4_34_1,2023-11-01T18:24:18.924Z,,0,,,NaN,,,,,,false,,,,165341.19999998808,165340.89999997616,,165340.19999998808,,165353.905,8,400,,,
break_continue,html.Screen,4_34_2,2023-11-01T18:24:18.924Z,,0,,,NaN,,,,,,false,,,,165341.59999999404,165341.5,,165341.39999997616,,165353.905,8,400,,,
sequence,flow.Sequence,4_34,2023-11-01T18:24:18.924Z,,0,,,3570.7850000000035,completion,,,,,false,,,,165341.69999998808,165341.5,161754.049,161764.59999999404,161770.715,165353.905,8,400,,,
trial,html.Screen,4_35_0,2023-11-01T18:24:21.812Z,,0,1,,2874.9949999761593,response,ISIC_0062525.JPG,6,ISIC_6982386.JPG,ISIC_6982386.JPG,false,0,keypress(z),500,168229.39999997616,168228.89999997616,165337.239,165341.79999998212,165353.905,168237.123,8,400,36,,ISIC_0062525.JPG
break,html.Screen,4_35_1,2023-11-01T18:24:21.813Z,,0,,,NaN,,,,,,false,,,,168230.69999998808,168230.39999997616,,168229.69999998808,,168237.123,8,400,,,
break_continue,html.Screen,4_35_2,2023-11-01T18:24:21.814Z,,0,,,NaN,,,,,,false,,,,168231.09999999404,168231,,168230.79999998212,,168237.123,8,400,,,
sequence,flow.Sequence,4_35,2023-11-01T18:24:21.814Z,,0,,,2877.095000000001,completion,,,,,false,,,,168231.19999998808,168231,165337.239,165341.79999998212,165353.905,168237.123,8,400,,,
trial,html.Screen,4_36_0,2023-11-01T18:24:24.971Z,,0,1,,3150.8770000000077,response,ISIC_2776906.JPG,6,ISIC_0029905.JPG,ISIC_0029905.JPG,false,0,keypress(z),500,171388.39999997616,171388,168220.457,168231.29999998212,168237.123,171404.083,8,400,37,,ISIC_2776906.JPG
break,html.Screen,4_36_1,2023-11-01T18:24:24.973Z,,0,,,NaN,,,,,,false,,,,171389.79999998212,171389.5,,171388.79999998212,,171404.083,8,400,,,
break_continue,html.Screen,4_36_2,2023-11-01T18:24:24.973Z,,0,,,NaN,,,,,,false,,,,171390.19999998808,171390.09999999404,,171389.89999997616,,171404.083,8,400,,,
sequence,flow.Sequence,4_36,2023-11-01T18:24:24.973Z,,0,,,3152.976999994047,completion,,,,,false,,,,171390.39999997616,171390.09999999404,168220.457,168231.19999998808,168237.123,171404.083,8,400,,,
trial,html.Screen,4_37_0,2023-11-01T18:24:28.097Z,,0,1,,3110.0169999940263,response,ISIC_6392461.JPG,5,ISIC_0064559.JPG,ISIC_6392461.JPG,false,1,keypress(m),500,174514.5,174514.09999999404,171387.417,171390.5,171404.083,174520.625,8,400,38,,ISIC_0064559.JPG
break,html.Screen,4_37_1,2023-11-01T18:24:28.099Z,,0,,,NaN,,,,,,false,,,,174515.79999998212,174515.59999999404,,174514.79999998212,,174520.625,8,400,,,
break_continue,html.Screen,4_37_2,2023-11-01T18:24:28.099Z,,0,,,NaN,,,,,,false,,,,174516.29999998212,174516.19999998808,,174516,,174520.625,8,400,,,
sequence,flow.Sequence,4_37,2023-11-01T18:24:28.099Z,,0,,,3112.116999988066,completion,,,,,false,,,,174516.5,174516.19999998808,171387.417,171390.39999997616,171404.083,174520.625,8,400,,,
trial,html.Screen,4_38_0,2023-11-01T18:24:32.329Z,,0,1,,4224.875,response,ISIC_0066094.JPG,7,ISIC_0024686.JPG,ISIC_0024686.JPG,false,0,keypress(z),500,178745.89999997616,178745.5,174503.959,174516.69999998808,174520.625,178753.789,8,400,39,,ISIC_0066094.JPG
break,html.Screen,4_38_1,2023-11-01T18:24:32.330Z,,0,,,NaN,,,,,,false,,,,178747.19999998808,178746.89999997616,,178746.19999998808,,178753.789,8,400,,,
break_continue,html.Screen,4_38_2,2023-11-01T18:24:32.330Z,,0,,,NaN,,,,,,false,,,,178747.59999999404,178747.5,,178747.29999998212,,178753.789,8,400,,,
sequence,flow.Sequence,4_38,2023-11-01T18:24:32.331Z,,0,,,4226.875,completion,,,,,false,,,,178747.79999998212,178747.5,174503.959,174516.59999999404,174520.625,178753.789,8,400,,,
trial,html.Screen,4_39_0,2023-11-01T18:24:34.925Z,,0,1,,2588.1109999761684,response,ISIC_9604922.JPG,8,ISIC_0032927.JPG,ISIC_9604922.JPG,false,1,keypress(m),500,181342.39999997616,181341.89999997616,178737.123,178747.89999997616,178753.789,181370.815,8,400,40,,ISIC_0032927.JPG
break,html.Screen,4_39_1,2023-11-01T18:24:34.927Z,,0,,,NaN,,,,,,false,,,,181343.79999998212,181343.59999999404,,181342.79999998212,,181370.815,8,400,,,
break_continue,html.Screen,4_39_2,2023-11-01T18:24:34.927Z,,0,,,NaN,,,,,,false,,,,181344.19999998808,181344.19999998808,,181344,,181370.815,8,400,,,
sequence,flow.Sequence,4_39,2023-11-01T18:24:34.927Z,,0,,,2590.4109999880893,completion,,,,,false,,,,181344.39999997616,181344.19999998808,178737.123,178747.89999997616,178753.789,181370.815,8,400,,,
trial,html.Screen,4_40_0,2023-11-01T18:24:38.313Z,,0,1,,3358.6849999999977,response,ISIC_0033883.JPG,9,ISIC_8945395.JPG,ISIC_8945395.JPG,false,0,keypress(z),500,184729.89999997616,184729.5,181354.149,181344.59999999404,181370.815,184737.347,8,400,41,,ISIC_0033883.JPG
break,html.Screen,4_40_1,2023-11-01T18:24:38.314Z,,0,,,NaN,,,,,,false,,,,184731.29999998212,184731,,184730.19999998808,,184737.347,8,400,,,
break_continue,html.Screen,4_40_2,2023-11-01T18:24:38.315Z,,0,,,NaN,,,,,,false,,,,184731.69999998808,184731.59999999404,,184731.29999998212,,184737.347,8,400,,,
sequence,flow.Sequence,4_40,2023-11-01T18:24:38.315Z,,0,,,3360.784999994037,completion,,,,,false,,,,184731.89999997616,184731.59999999404,181354.149,181344.5,181370.815,184737.347,8,400,,,
trial,html.Screen,4_41_0,2023-11-01T18:24:41.060Z,,0,1,,2739.4529999821098,response,ISIC_3123377.JPG,8,ISIC_0031553.JPG,ISIC_3123377.JPG,false,1,keypress(m),500,187477.29999998212,187476.79999998212,184720.681,184732,184737.347,187487.237,8,400,42,,ISIC_0031553.JPG
break,html.Screen,4_41_1,2023-11-01T18:24:41.062Z,,0,,,NaN,,,,,,false,,,,187478.59999999404,187478.39999997616,,187477.5,,187487.237,8,400,,,
break_continue,html.Screen,4_41_2,2023-11-01T18:24:41.062Z,,0,,,NaN,,,,,,false,,,,187479,187478.89999997616,,187478.79999998212,,187487.237,8,400,,,
sequence,flow.Sequence,4_41,2023-11-01T18:24:41.062Z,,0,,,2741.5529999761493,completion,,,,,false,,,,187479.19999998808,187478.89999997616,184720.681,184731.89999997616,184737.347,187487.237,8,400,,,
trial,html.Screen,4_42_0,2023-11-01T18:24:46.348Z,,0,1,,5277.362999994046,response,ISIC_1687004.JPG,8,ISIC_3728352.JPG,ISIC_1687004.JPG,false,1,keypress(m),500,192765.19999998808,192764.59999999404,187470.571,187479.39999997616,187487.237,192770.731,8,400,43,,ISIC_3728352.JPG
break,html.Screen,4_42_1,2023-11-01T18:24:46.350Z,,0,,,NaN,,,,,,false,,,,192766.69999998808,192766.29999998212,,192765.39999997616,,192770.731,8,400,,,
break_continue,html.Screen,4_42_2,2023-11-01T18:24:46.350Z,,0,,,NaN,,,,,,false,,,,192767,192766.89999997616,,192766.79999998212,,192770.731,8,400,,,
sequence,flow.Sequence,4_42,2023-11-01T18:24:46.350Z,,0,,,5279.662999976164,completion,,,,,false,,,,192767.09999999404,192766.89999997616,187470.571,187479.39999997616,187487.237,192770.731,8,400,,,
trial,html.Screen,4_43_0,2023-11-01T18:24:49.924Z,,0,1,,3569.568999982119,response,ISIC_0065200.JPG,7,ISIC_0066637.JPG,ISIC_0066637.JPG,false,0,keypress(z),500,196340.79999998212,196340.29999998212,192754.065,192767.19999998808,192770.731,196353.921,8,400,44,,ISIC_0065200.JPG
break,html.Screen,4_43_1,2023-11-01T18:24:49.925Z,,0,,,NaN,,,,,,false,,,,196342.09999999404,196341.79999998212,,196341,,196353.921,8,400,,,
break_continue,html.Screen,4_43_2,2023-11-01T18:24:49.926Z,,0,,,NaN,,,,,,false,,,,196342.59999999404,196342.39999997616,,196342.19999998808,,196353.921,8,400,,,
sequence,flow.Sequence,4_43,2023-11-01T18:24:49.926Z,,0,,,3571.6689999761584,completion,,,,,false,,,,196342.69999998808,196342.39999997616,192754.065,192767.19999998808,192770.731,196353.921,8,400,,,
trial,html.Screen,4_44_0,2023-11-01T18:24:53.418Z,,0,1,,3480.578999999998,response,ISIC_0591011.JPG,8,ISIC_5150938.JPG,ISIC_0591011.JPG,false,1,keypress(m),500,199835,199834.5,196337.255,196342.79999998212,196353.921,199837.115,8,400,45,,ISIC_5150938.JPG
break,html.Screen,4_44_1,2023-11-01T18:24:53.419Z,,0,,,NaN,,,,,,false,,,,199836.19999998808,199835.89999997616,,199835.19999998808,,199837.115,8,400,,,
break_continue,html.Screen,4_44_2,2023-11-01T18:24:53.420Z,,0,,,NaN,,,,,,false,,,,199836.69999998808,199836.5,,199836.29999998212,,199837.115,8,400,,,
sequence,flow.Sequence,4_44,2023-11-01T18:24:53.420Z,,0,,,3482.578999999998,completion,,,,,false,,,,199836.89999997616,199836.5,196337.255,196342.79999998212,196353.921,199837.115,8,400,,,
trial,html.Screen,4_45_0,2023-11-01T18:24:56.243Z,,0,1,,2822.7849999761675,response,ISIC_9779803.JPG,9,ISIC_0030006.JPG,ISIC_9779803.JPG,false,1,keypress(m),500,202660.29999998212,202659.89999997616,199820.449,199837.09999999404,199837.115,202687.478,8,400,46,,ISIC_0030006.JPG
break,html.Screen,4_45_1,2023-11-01T18:24:56.245Z,,0,,,NaN,,,,,,false,,,,202661.59999999404,202661.29999998212,,202660.59999999404,,202687.478,8,400,,,
break_continue,html.Screen,4_45_2,2023-11-01T18:24:56.245Z,,0,,,NaN,,,,,,false,,,,202662,202661.89999997616,,202661.69999998808,,202687.478,8,400,,,
sequence,flow.Sequence,4_45,2023-11-01T18:24:56.245Z,,0,,,2824.7849999761675,completion,,,,,false,,,,202662.19999998808,202661.89999997616,199820.449,199837,199837.115,202687.478,8,400,,,
trial,html.Screen,4_46_0,2023-11-01T18:24:59.019Z,,0,1,,2747.821999982116,response,ISIC_0014082.JPG,8,ISIC_0000166.JPG,ISIC_0014082.JPG,false,1,keypress(m),500,205435.69999998808,205435.29999998212,202670.812,202662.29999998212,202687.478,205437.368,8,400,47,,ISIC_0000166.JPG
break,html.Screen,4_46_1,2023-11-01T18:24:59.020Z,,0,,,NaN,,,,,,false,,,,205437.19999998808,205436.79999998212,,205436.09999999404,,205437.368,8,400,,,
break_continue,html.Screen,4_46_2,2023-11-01T18:24:59.021Z,,0,,,NaN,,,,,,false,,,,205437.59999999404,205437.5,,205437.29999998212,,205437.368,8,400,,,
sequence,flow.Sequence,4_46,2023-11-01T18:24:59.021Z,,0,,,2750.021999999997,completion,,,,,false,,,,205437.69999998808,205437.5,202670.812,202662.29999998212,202687.478,205437.368,8,400,,,
trial,html.Screen,4_47_0,2023-11-01T18:25:01.633Z,,0,1,,2612.5319999761705,response,ISIC_0663941.JPG,7,ISIC_0011701.JPG,ISIC_0663941.JPG,false,1,keypress(m),500,208050.29999998212,208049.89999997616,205420.702,205437.79999998212,205437.368,208053.93,8,400,48,,ISIC_0011701.JPG
break,html.Screen,4_47_1,2023-11-01T18:25:01.634Z,,0,,,NaN,,,,,,false,,,,208051.19999998808,208051,,208050.5,,208053.93,8,400,,,
break_continue,html.Screen,4_47_2,2023-11-01T18:25:01.635Z,,0,,,NaN,,,,,,false,,,,208051.39999997616,208051.39999997616,,208051.19999998808,,208053.93,8,400,,,
sequence,flow.Sequence,4_47,2023-11-01T18:25:01.635Z,,0,,,2614.0319999761705,completion,,,,,false,,,,208051.59999999404,208051.39999997616,205420.702,205437.79999998212,205437.368,208053.93,8,400,,,
trial,html.Screen,4_48_0,2023-11-01T18:25:04.393Z,,0,1,,2755.070000000007,response,ISIC_0740449.JPG,8,ISIC_0071931.JPG,ISIC_0740449.JPG,false,1,keypress(m),500,210809.39999997616,210809,208037.264,208051.59999999404,208053.93,210820.486,8,400,49,,ISIC_0071931.JPG
break,html.Screen,4_48_1,2023-11-01T18:25:04.394Z,,0,,,NaN,,,,,,false,,,,210811.09999999404,210810.79999998212,,210809.69999998808,,210820.486,8,400,,,
break_continue,html.Screen,4_48_2,2023-11-01T18:25:04.395Z,,0,,,NaN,,,,,,false,,,,210811.59999999404,210811.5,,210811.19999998808,,210820.486,8,400,,,
sequence,flow.Sequence,4_48,2023-11-01T18:25:04.395Z,,0,,,2757.570000000007,completion,,,,,false,,,,210811.79999998212,210811.5,208037.264,208051.59999999404,208053.93,210820.486,8,400,,,
trial,html.Screen,4_49_0,2023-11-01T18:25:06.977Z,,0,1,,2572.613999994035,response,ISIC_0000549.JPG,8,ISIC_3114020.JPG,ISIC_3114020.JPG,false,0,keypress(z),500,213393.59999999404,213393.09999999404,210803.82,210812,210820.486,213404.158,8,400,50,,ISIC_0000549.JPG
break,html.Screen,4_49_1,2023-11-01T18:25:16.976Z,,0,,,10000.004000000015,timeout,,,,,false,,,,223392.39999997616,223387.496,213387.492,213393.89999997616,213404.158,223404.162,8,400,,,
break_continue,html.Screen,4_49_2,2023-11-01T18:25:18.727Z,,0,,,1726.6379999821074,response,,,,,false,continue,keypress(Space),,225143.39999997616,225130.79999998212,223387.496,223392.59999999404,223404.162,225154.092,8,400,,,
sequence,flow.Sequence,4_49,2023-11-01T18:25:18.727Z,,0,,,14310.313999982114,completion,,,,,false,,,,225143.59999999404,225130.79999998212,210803.82,210811.89999997616,210820.486,225154.092,8,400,,,
trial,html.Screen,4_50_0,2023-11-01T18:25:21.564Z,,0,2,,2825.607999988075,response,ISIC_0014527.JPG,5,ISIC_7433993.JPG,ISIC_7433993.JPG,false,0,keypress(z),500,227980.09999999404,227979.69999998808,225137.426,225143.69999998808,225154.092,227987.312,8,400,1,,ISIC_0014527.JPG
break,html.Screen,4_50_1,2023-11-01T18:25:21.565Z,,0,,,NaN,,,,,,false,,,,227981.39999997616,227981.09999999404,,227980.39999997616,,227987.312,8,400,,,
break_continue,html.Screen,4_50_2,2023-11-01T18:25:21.565Z,,0,,,NaN,,,,,,false,,,,227981.89999997616,227981.69999998808,,227981.5,,227987.312,8,400,,,
sequence,flow.Sequence,4_50,2023-11-01T18:25:21.566Z,,0,,,2827.607999988075,completion,,,,,false,,,,227982.09999999404,227981.69999998808,225137.426,225143.69999998808,225154.092,227987.312,8,400,,,
trial,html.Screen,4_51_0,2023-11-01T18:25:24.147Z,,0,2,,2575.9879999821133,response,ISIC_0067719.JPG,8,ISIC_6654619.JPG,ISIC_6654619.JPG,false,0,keypress(z),500,230563.69999998808,230563.29999998212,227970.646,227982.19999998808,227987.312,230570.542,8,400,2,,ISIC_0067719.JPG
break,html.Screen,4_51_1,2023-11-01T18:25:24.149Z,,0,,,NaN,,,,,,false,,,,230565,230564.79999998212,,230564,,230570.542,8,400,,,
break_continue,html.Screen,4_51_2,2023-11-01T18:25:24.149Z,,0,,,NaN,,,,,,false,,,,230565.39999997616,230565.39999997616,,230565.19999998808,,230570.542,8,400,,,
sequence,flow.Sequence,4_51,2023-11-01T18:25:24.149Z,,0,,,2578.087999976153,completion,,,,,false,,,,230565.69999998808,230565.39999997616,227970.646,227982.09999999404,227987.312,230570.542,8,400,,,
trial,html.Screen,4_52_0,2023-11-01T18:25:32.335Z,,0,2,,8180.657999988092,response,ISIC_0066671.JPG,7,ISIC_0061870.JPG,ISIC_0066671.JPG,false,1,keypress(m),500,238751.79999998212,238751.19999998808,230553.876,230565.79999998212,230570.542,238753.959,8,400,3,,ISIC_0061870.JPG
break,html.Screen,4_52_1,2023-11-01T18:25:32.337Z,,0,,,NaN,,,,,,false,,,,238753.59999999404,238753.19999998808,,238752.09999999404,,238753.959,8,400,,,
break_continue,html.Screen,4_52_2,2023-11-01T18:25:32.338Z,,0,,,NaN,,,,,,false,,,,238754.09999999404,238753.89999997616,,238753.69999998808,,238753.959,8,400,,,
sequence,flow.Sequence,4_52,2023-11-01T18:25:32.338Z,,0,,,8183.357999976171,completion,,,,,false,,,,238754.29999998212,238753.89999997616,230553.876,230565.69999998808,230570.542,238753.959,8,400,,,
trial,html.Screen,4_53_0,2023-11-01T18:25:35.224Z,,0,2,,2885.640999994037,response,ISIC_0054332.JPG,7,ISIC_0009187.JPG,ISIC_0009187.JPG,false,0,keypress(z),500,241640,241639.59999999404,238737.293,238754.39999997616,238753.959,241653.843,8,400,4,,ISIC_0054332.JPG
break,html.Screen,4_53_1,2023-11-01T18:25:35.225Z,,0,,,NaN,,,,,,false,,,,241641.29999998212,241641,,241640.39999997616,,241653.843,8,400,,,
break_continue,html.Screen,4_53_2,2023-11-01T18:25:35.225Z,,0,,,NaN,,,,,,false,,,,241641.69999998808,241641.59999999404,,241641.39999997616,,241653.843,8,400,,,
sequence,flow.Sequence,4_53,2023-11-01T18:25:35.225Z,,0,,,2887.640999994037,completion,,,,,false,,,,241641.79999998212,241641.59999999404,238737.293,238754.39999997616,238753.959,241653.843,8,400,,,
trial,html.Screen,4_54_0,2023-11-01T18:25:38.417Z,,0,2,,3179.0569999761647,response,ISIC_5874357.JPG,8,ISIC_0296109.JPG,ISIC_5874357.JPG,false,1,keypress(m),500,244833.29999998212,244832.89999997616,241637.177,241641.89999997616,241653.843,244837.475,8,400,5,,ISIC_0296109.JPG
break,html.Screen,4_54_1,2023-11-01T18:25:38.418Z,,0,,,NaN,,,,,,false,,,,244834.79999998212,244834.39999997616,,244833.69999998808,,244837.475,8,400,,,
break_continue,html.Screen,4_54_2,2023-11-01T18:25:38.419Z,,0,,,NaN,,,,,,false,,,,244835.09999999404,244835,,244834.89999997616,,244837.475,8,400,,,
sequence,flow.Sequence,4_54,2023-11-01T18:25:38.419Z,,0,,,3181.1570000000065,completion,,,,,false,,,,244835.29999998212,244835,241637.177,241641.89999997616,241653.843,244837.475,8,400,,,
trial,html.Screen,4_55_0,2023-11-01T18:25:40.968Z,,0,2,,2546.6249999940337,response,ISIC_8281208.JPG,9,ISIC_0024958.JPG,ISIC_8281208.JPG,false,1,keypress(m),500,247384.59999999404,247384.09999999404,244820.809,244835.29999998212,244837.475,247387.373,8,400,6,,ISIC_0024958.JPG
break,html.Screen,4_55_1,2023-11-01T18:25:40.970Z,,0,,,NaN,,,,,,false,,,,247386,247385.59999999404,,247384.89999997616,,247387.373,8,400,,,
break_continue,html.Screen,4_55_2,2023-11-01T18:25:40.970Z,,0,,,NaN,,,,,,false,,,,247386.39999997616,247386.29999998212,,247386.09999999404,,247387.373,8,400,,,
sequence,flow.Sequence,4_55,2023-11-01T18:25:40.970Z,,0,,,2548.824999982113,completion,,,,,false,,,,247386.5,247386.29999998212,244820.809,244835.29999998212,244837.475,247387.373,8,400,,,
trial,html.Screen,4_56_0,2023-11-01T18:25:43.791Z,,0,2,,2818.9269999821263,response,ISIC_9445196.JPG,8,ISIC_8389839.JPG,ISIC_9445196.JPG,false,1,keypress(m),500,250206.79999998212,250206.29999998212,247370.707,247386.69999998808,247387.373,250220.593,8,400,7,,ISIC_8389839.JPG
break,html.Screen,4_56_1,2023-11-01T18:25:43.792Z,,0,,,NaN,,,,,,false,,,,250208.19999998808,250207.79999998212,,250207.09999999404,,250220.593,8,400,,,
break_continue,html.Screen,4_56_2,2023-11-01T18:25:43.793Z,,0,,,NaN,,,,,,false,,,,250208.89999997616,250208.69999998808,,250208.39999997616,,250220.593,8,400,,,
sequence,flow.Sequence,4_56,2023-11-01T18:25:43.793Z,,0,,,2821.3269999880868,completion,,,,,false,,,,250209.39999997616,250208.69999998808,247370.707,247386.59999999404,247387.373,250220.593,8,400,,,
trial,html.Screen,4_57_0,2023-11-01T18:25:46.437Z,,0,2,,2631.8069999761647,response,ISIC_0032036.JPG,6,ISIC_1258986.JPG,ISIC_1258986.JPG,false,0,keypress(z),500,252852.79999998212,252852.39999997616,250203.927,250209.79999998212,250220.593,252853.821,8,400,8,,ISIC_0032036.JPG
break,html.Screen,4_57_1,2023-11-01T18:25:46.438Z,,0,,,NaN,,,,,,false,,,,252854.19999998808,252853.89999997616,,252853.09999999404,,252853.821,8,400,,,
break_continue,html.Screen,4_57_2,2023-11-01T18:25:46.439Z,,0,,,NaN,,,,,,false,,,,252854.79999998212,252854.5,,252854.29999998212,,252853.821,8,400,,,
sequence,flow.Sequence,4_57,2023-11-01T18:25:46.439Z,,0,,,2633.9070000000065,completion,,,,,false,,,,252854.89999997616,252854.5,250203.927,250209.69999998808,250220.593,252853.821,8,400,,,
trial,html.Screen,4_58_0,2023-11-01T18:25:49.117Z,,0,2,,2678.578999976162,response,ISIC_3737739.JPG,8,ISIC_9152603.JPG,ISIC_3737739.JPG,false,1,keypress(m),500,255532.79999998212,255532.39999997616,252837.155,252855.19999998808,252853.821,255537.457,8,400,9,,ISIC_9152603.JPG
break,html.Screen,4_58_1,2023-11-01T18:25:49.118Z,,0,,,NaN,,,,,,false,,,,255534,255533.69999998808,,255533,,255537.457,8,400,,,
break_continue,html.Screen,4_58_2,2023-11-01T18:25:49.118Z,,0,,,NaN,,,,,,false,,,,255534.39999997616,255534.29999998212,,255534.09999999404,,255537.457,8,400,,,
sequence,flow.Sequence,4_58,2023-11-01T18:25:49.118Z,,0,,,2680.4789999821223,completion,,,,,false,,,,255534.5,255534.29999998212,252837.155,252855.09999999404,252853.821,255537.457,8,400,,,
trial,html.Screen,4_59_0,2023-11-01T18:25:51.778Z,,0,2,,2656.242999988084,response,ISIC_0054332.JPG,8,ISIC_0025835.JPG,ISIC_0025835.JPG,false,0,keypress(z),500,258194.09999999404,258193.69999998808,255520.791,255534.59999999404,255537.457,258204.017,8,400,10,,ISIC_0054332.JPG
break,html.Screen,4_59_1,2023-11-01T18:25:51.779Z,,0,,,NaN,,,,,,false,,,,258195.39999997616,258195.09999999404,,258194.39999997616,,258204.017,8,400,,,
break_continue,html.Screen,4_59_2,2023-11-01T18:25:51.780Z,,0,,,NaN,,,,,,false,,,,258195.89999997616,258195.79999998212,,258195.5,,258204.017,8,400,,,
sequence,flow.Sequence,4_59,2023-11-01T18:25:51.780Z,,0,,,2658.3429999821237,completion,,,,,false,,,,258196.09999999404,258195.79999998212,255520.791,255534.5,255537.457,258204.017,8,400,,,
trial,html.Screen,4_60_0,2023-11-01T18:25:54.713Z,,0,2,,2925.082999994047,response,ISIC_0029937.JPG,8,ISIC_5116614.JPG,ISIC_5116614.JPG,false,0,keypress(z),500,261129.39999997616,261129.09999999404,258187.351,258196.19999998808,258204.017,261137.233,8,400,11,,ISIC_0029937.JPG
break,html.Screen,4_60_1,2023-11-01T18:25:54.715Z,,0,,,NaN,,,,,,false,,,,261130.79999998212,261130.5,,261129.79999998212,,261137.233,8,400,,,
break_continue,html.Screen,4_60_2,2023-11-01T18:25:54.715Z,,0,,,NaN,,,,,,false,,,,261131.29999998212,261131.09999999404,,261130.89999997616,,261137.233,8,400,,,
sequence,flow.Sequence,4_60,2023-11-01T18:25:54.715Z,,0,,,2927.082999994047,completion,,,,,false,,,,261131.5,261131.09999999404,258187.351,258196.19999998808,258204.017,261137.233,8,400,,,
trial,html.Screen,4_61_0,2023-11-01T18:25:57.633Z,,0,2,,2911.366999994032,response,ISIC_4288307.JPG,7,ISIC_0061381.JPG,ISIC_0061381.JPG,false,0,keypress(z),500,264049,264048.59999999404,261120.567,261131.59999999404,261137.233,264054.214,8,400,12,,ISIC_4288307.JPG
break,html.Screen,4_61_1,2023-11-01T18:25:57.634Z,,0,,,NaN,,,,,,false,,,,264050.1999999881,264050,,264049.2999999821,,264054.214,8,400,,,
break_continue,html.Screen,4_61_2,2023-11-01T18:25:57.635Z,,0,,,NaN,,,,,,false,,,,264050.6999999881,264050.5,,264050.39999997616,,264054.214,8,400,,,
sequence,flow.Sequence,4_61,2023-11-01T18:25:57.635Z,,0,,,2913.2669999999925,completion,,,,,false,,,,264050.89999997616,264050.5,261120.567,261131.5,261137.233,264054.214,8,400,,,
trial,html.Screen,4_62_0,2023-11-01T18:26:00.215Z,,0,2,,2576.786000000022,response,ISIC_0011951.JPG,9,ISIC_0014920.JPG,ISIC_0014920.JPG,false,0,keypress(z),500,266631.5,266631,264037.548,264051,264054.214,266637.444,8,400,13,,ISIC_0011951.JPG
break,html.Screen,4_62_1,2023-11-01T18:26:00.217Z,,0,,,NaN,,,,,,false,,,,266632.7999999821,266632.5,,266631.7999999821,,266637.444,8,400,,,
break_continue,html.Screen,4_62_2,2023-11-01T18:26:00.217Z,,0,,,NaN,,,,,,false,,,,266633.2999999821,266633.09999999404,,266632.89999997616,,266637.444,8,400,,,
sequence,flow.Sequence,4_62,2023-11-01T18:26:00.217Z,,0,,,2578.8859999940614,completion,,,,,false,,,,266633.39999997616,266633.09999999404,264037.548,264051,264054.214,266637.444,8,400,,,
trial,html.Screen,4_63_0,2023-11-01T18:26:03.199Z,,0,2,,2977.0559999999823,response,ISIC_0067333.JPG,6,ISIC_0028691.JPG,ISIC_0028691.JPG,false,0,keypress(z),500,269614.89999997616,269614.5,266620.778,266633.39999997616,266637.444,269620.658,8,400,14,,ISIC_0067333.JPG
break,html.Screen,4_63_1,2023-11-01T18:26:03.200Z,,0,,,NaN,,,,,,false,,,,269616.1999999881,269615.89999997616,,269615.1999999881,,269620.658,8,400,,,
break_continue,html.Screen,4_63_2,2023-11-01T18:26:03.201Z,,0,,,NaN,,,,,,false,,,,269616.6999999881,269616.5,,269616.39999997616,,269620.658,8,400,,,
sequence,flow.Sequence,4_63,2023-11-01T18:26:03.201Z,,0,,,2979.0559999999823,completion,,,,,false,,,,269616.7999999821,269616.5,266620.778,266633.39999997616,266637.444,269620.658,8,400,,,
trial,html.Screen,4_64_0,2023-11-01T18:26:06.295Z,,0,2,,3089.641999982123,response,ISIC_0028285.JPG,6,ISIC_1698119.JPG,ISIC_1698119.JPG,false,0,keypress(z),500,272710.6999999881,272710.2999999821,269603.992,269617,269620.658,272720.534,8,400,15,,ISIC_0028285.JPG
break,html.Screen,4_64_1,2023-11-01T18:26:06.296Z,,0,,,NaN,,,,,,false,,,,272712.09999999404,272711.7999999821,,272711.09999999404,,272720.534,8,400,,,
break_continue,html.Screen,4_64_2,2023-11-01T18:26:06.297Z,,0,,,NaN,,,,,,false,,,,272712.59999999404,272712.39999997616,,272712.1999999881,,272720.534,8,400,,,
sequence,flow.Sequence,4_64,2023-11-01T18:26:06.297Z,,0,,,3091.7419999761623,completion,,,,,false,,,,272712.6999999881,272712.39999997616,269603.992,269616.89999997616,269620.658,272720.534,8,400,,,
trial,html.Screen,4_65_0,2023-11-01T18:26:08.670Z,,0,2,,2365.2659999821335,response,ISIC_0064925.JPG,7,ISIC_6966230.JPG,ISIC_0064925.JPG,false,1,keypress(m),500,275086.2999999821,275085.7999999821,272703.868,272712.89999997616,272720.534,275087.516,8,400,16,,ISIC_6966230.JPG
break,html.Screen,4_65_1,2023-11-01T18:26:08.672Z,,0,,,NaN,,,,,,false,,,,275087.5,275087.1999999881,,275086.5,,275087.516,8,400,,,
break_continue,html.Screen,4_65_2,2023-11-01T18:26:08.672Z,,0,,,NaN,,,,,,false,,,,275087.89999997616,275087.7999999821,,275087.59999999404,,275087.516,8,400,,,
sequence,flow.Sequence,4_65,2023-11-01T18:26:08.672Z,,0,,,2367.2659999821335,completion,,,,,false,,,,275088.1999999881,275087.7999999821,272703.868,272712.7999999821,272720.534,275087.516,8,400,,,
trial,html.Screen,4_66_0,2023-11-01T18:26:11.349Z,,0,2,,2677.383999976155,response,ISIC_4396553.JPG,5,ISIC_2826766.JPG,ISIC_4396553.JPG,false,1,keypress(m),500,277765.39999997616,277764.89999997616,275070.85,275088.2999999821,275087.516,277770.742,8,400,17,,ISIC_2826766.JPG
break,html.Screen,4_66_1,2023-11-01T18:26:11.351Z,,0,,,NaN,,,,,,false,,,,277766.6999999881,277766.5,,277765.6999999881,,277770.742,8,400,,,
break_continue,html.Screen,4_66_2,2023-11-01T18:26:11.351Z,,0,,,NaN,,,,,,false,,,,277767.09999999404,277767,,277766.7999999821,,277770.742,8,400,,,
sequence,flow.Sequence,4_66,2023-11-01T18:26:11.351Z,,0,,,2679.4839999999967,completion,,,,,false,,,,277767.2999999821,277767,275070.85,275088.1999999881,275087.516,277770.742,8,400,,,
trial,html.Screen,4_67_0,2023-11-01T18:26:13.885Z,,0,2,,2530.2579999999725,response,ISIC_0069167.JPG,6,ISIC_3269018.JPG,ISIC_3269018.JPG,false,0,keypress(z),500,280301.2999999821,280301,277754.076,277767.5,277770.742,280303.974,8,400,18,,ISIC_0069167.JPG
break,html.Screen,4_67_1,2023-11-01T18:26:13.887Z,,0,,,NaN,,,,,,false,,,,280302.6999999881,280302.39999997616,,280301.6999999881,,280303.974,8,400,,,
break_continue,html.Screen,4_67_2,2023-11-01T18:26:13.887Z,,0,,,NaN,,,,,,false,,,,280303.2999999821,280303.09999999404,,280302.89999997616,,280303.974,8,400,,,
sequence,flow.Sequence,4_67,2023-11-01T18:26:13.888Z,,0,,,2532.357999994012,completion,,,,,false,,,,280303.5,280303.09999999404,277754.076,277767.2999999821,277770.742,280303.974,8,400,,,
trial,html.Screen,4_68_0,2023-11-01T18:26:16.533Z,,0,2,,2644.5260000000126,response,ISIC_0032626.JPG,8,ISIC_4653503.JPG,ISIC_4653503.JPG,false,0,keypress(z),500,282948.89999997616,282948.5,280287.308,280303.59999999404,280303.974,282953.868,8,400,19,,ISIC_0032626.JPG
break,html.Screen,4_68_1,2023-11-01T18:26:16.534Z,,0,,,NaN,,,,,,false,,,,282950.2999999821,282950,,282949.1999999881,,282953.868,8,400,,,
break_continue,html.Screen,4_68_2,2023-11-01T18:26:16.535Z,,0,,,NaN,,,,,,false,,,,282950.59999999404,282950.5,,282950.39999997616,,282953.868,8,400,,,
sequence,flow.Sequence,4_68,2023-11-01T18:26:16.535Z,,0,,,2646.5260000000126,completion,,,,,false,,,,282950.59999999404,282950.5,280287.308,280303.5,280303.974,282953.868,8,400,,,
trial,html.Screen,4_69_0,2023-11-01T18:26:20.060Z,,0,2,,3521.7319999940228,response,ISIC_7032028.JPG,9,ISIC_0061531.JPG,ISIC_7032028.JPG,false,1,keypress(m),500,286476.09999999404,286475.59999999404,282937.202,282950.7999999821,282953.868,286487.472,8,400,20,,ISIC_0061531.JPG
break,html.Screen,4_69_1,2023-11-01T18:26:20.062Z,,0,,,NaN,,,,,,false,,,,286477.39999997616,286477.1999999881,,286476.39999997616,,286487.472,8,400,,,
break_continue,html.Screen,4_69_2,2023-11-01T18:26:20.062Z,,0,,,NaN,,,,,,false,,,,286477.7999999821,286477.6999999881,,286477.5,,286487.472,8,400,,,
sequence,flow.Sequence,4_69,2023-11-01T18:26:20.062Z,,0,,,3523.8319999880623,completion,,,,,false,,,,286478,286477.6999999881,282937.202,282950.7999999821,282953.868,286487.472,8,400,,,
trial,html.Screen,4_70_0,2023-11-01T18:26:22.535Z,,0,2,,2463.027999999991,response,ISIC_0067614.JPG,8,ISIC_8617084.JPG,ISIC_8617084.JPG,false,0,keypress(z),500,288950.89999997616,288950.5,286470.806,286478.1999999881,286487.472,288954.04,8,400,21,,ISIC_0067614.JPG
break,html.Screen,4_70_1,2023-11-01T18:26:22.537Z,,0,,,NaN,,,,,,false,,,,288952.6999999881,288952,,288951.1999999881,,288954.04,8,400,,,
break_continue,html.Screen,4_70_2,2023-11-01T18:26:22.537Z,,0,,,NaN,,,,,,false,,,,288953,288952.89999997616,,288952.7999999821,,288954.04,8,400,,,
sequence,flow.Sequence,4_70,2023-11-01T18:26:22.537Z,,0,,,2465.4279999761493,completion,,,,,false,,,,288953.09999999404,288952.89999997616,286470.806,286478.09999999404,286487.472,288954.04,8,400,,,
trial,html.Screen,4_71_0,2023-11-01T18:26:25.215Z,,0,2,,2675.960000000021,response,ISIC_0053960.JPG,5,ISIC_0032005.JPG,ISIC_0053960.JPG,false,1,keypress(m),500,291630.39999997616,291630,288937.374,288953.2999999821,288954.04,291637.266,8,400,22,,ISIC_0032005.JPG
break,html.Screen,4_71_1,2023-11-01T18:26:25.216Z,,0,,,NaN,,,,,,false,,,,291631.1999999881,291631.09999999404,,291630.59999999404,,291637.266,8,400,,,
break_continue,html.Screen,4_71_2,2023-11-01T18:26:25.216Z,,0,,,NaN,,,,,,false,,,,291631.5,291631.39999997616,,291631.2999999821,,291637.266,8,400,,,
sequence,flow.Sequence,4_71,2023-11-01T18:26:25.216Z,,0,,,2677.359999976179,completion,,,,,false,,,,291631.59999999404,291631.39999997616,288937.374,288953.1999999881,288954.04,291637.266,8,400,,,
trial,html.Screen,4_72_0,2023-11-01T18:26:27.848Z,,0,2,,2626.433999988076,response,ISIC_3459981.JPG,9,ISIC_0061371.JPG,ISIC_3459981.JPG,false,1,keypress(m),500,294263.7999999821,294263.6999999881,291620.6,291631.6999999881,291637.266,294270.494,8,400,23,,ISIC_0061371.JPG
break,html.Screen,4_72_1,2023-11-01T18:26:27.849Z,,0,,,NaN,,,,,,false,,,,294264.2999999821,294264.1999999881,,294263.89999997616,,294270.494,8,400,,,
break_continue,html.Screen,4_72_2,2023-11-01T18:26:27.849Z,,0,,,NaN,,,,,,false,,,,294264.59999999404,294264.39999997616,,294264.2999999821,,294270.494,8,400,,,
sequence,flow.Sequence,4_72,2023-11-01T18:26:27.849Z,,0,,,2627.133999976155,completion,,,,,false,,,,294264.6999999881,294264.39999997616,291620.6,291631.59999999404,291637.266,294270.494,8,400,,,
trial,html.Screen,4_73_0,2023-11-01T18:26:30.178Z,,0,2,,2322.6059999940335,response,ISIC_8051628.JPG,6,ISIC_8740331.JPG,ISIC_8740331.JPG,false,0,keypress(z),500,296593.5,296593.09999999404,294253.828,294264.6999999881,294270.494,296604.128,8,400,24,,ISIC_8051628.JPG
break,html.Screen,4_73_1,2023-11-01T18:26:30.179Z,,0,,,NaN,,,,,,false,,,,296594.7999999821,296594.39999997616,,296593.7999999821,,296604.128,8,400,,,
break_continue,html.Screen,4_73_2,2023-11-01T18:26:30.180Z,,0,,,NaN,,,,,,false,,,,296595.1999999881,296595,,296594.89999997616,,296604.128,8,400,,,
sequence,flow.Sequence,4_73,2023-11-01T18:26:30.180Z,,0,,,2324.505999999994,completion,,,,,false,,,,296595.39999997616,296595,294253.828,294264.6999999881,294270.494,296604.128,8,400,,,
trial,html.Screen,4_74_0,2023-11-01T18:26:32.630Z,,0,2,,2441.271999976132,response,ISIC_0579562.JPG,7,ISIC_6982386.JPG,ISIC_0579562.JPG,false,1,keypress(m),500,299045.7999999821,299045.39999997616,296587.462,296595.5,296604.128,299054.03,8,400,25,,ISIC_6982386.JPG
break,html.Screen,4_74_1,2023-11-01T18:26:32.633Z,,0,,,NaN,,,,,,false,,,,299048.59999999404,299048.2999999821,,299047.6999999881,,299054.03,8,400,,,
break_continue,html.Screen,4_74_2,2023-11-01T18:26:32.633Z,,0,,,NaN,,,,,,false,,,,299049,299048.89999997616,,299048.59999999404,,299054.03,8,400,,,
sequence,flow.Sequence,4_74,2023-11-01T18:26:32.634Z,,0,,,2444.771999976132,completion,,,,,false,,,,299049.09999999404,299048.89999997616,296587.462,296595.5,296604.128,299054.03,8,400,,,
trial,html.Screen,4_75_0,2023-11-01T18:26:34.989Z,,0,2,,2350.469999999972,response,ISIC_0028297.JPG,8,ISIC_0694677.JPG,ISIC_0694677.JPG,false,0,keypress(z),500,301404.7999999821,301404.5,299037.364,299049.2999999821,299054.03,301420.602,8,400,26,,ISIC_0028297.JPG
break,html.Screen,4_75_1,2023-11-01T18:26:34.990Z,,0,,,NaN,,,,,,false,,,,301406.09999999404,301405.7999999821,,301405.09999999404,,301420.602,8,400,,,
break_continue,html.Screen,4_75_2,2023-11-01T18:26:34.991Z,,0,,,NaN,,,,,,false,,,,301406.5,301406.39999997616,,301406.1999999881,,301420.602,8,400,,,
sequence,flow.Sequence,4_75,2023-11-01T18:26:34.991Z,,0,,,2352.36999997613,completion,,,,,false,,,,301406.6999999881,301406.39999997616,299037.364,299049.2999999821,299054.03,301420.602,8,400,,,
trial,html.Screen,4_76_0,2023-11-01T18:26:37.430Z,,0,2,,2424.5979999880656,response,ISIC_6298228.JPG,6,ISIC_0001108.JPG,ISIC_6298228.JPG,false,1,keypress(m),500,303845.59999999404,303845.1999999881,301403.936,301406.7999999821,301420.602,303853.838,8,400,27,,ISIC_0001108.JPG
break,html.Screen,4_76_1,2023-11-01T18:26:37.431Z,,0,,,NaN,,,,,,false,,,,303846.7999999821,303846.5,,303845.89999997616,,303853.838,8,400,,,
break_continue,html.Screen,4_76_2,2023-11-01T18:26:37.432Z,,0,,,NaN,,,,,,false,,,,303847.2999999821,303847.09999999404,,303847,,303853.838,8,400,,,
sequence,flow.Sequence,4_76,2023-11-01T18:26:37.432Z,,0,,,2426.497999994026,completion,,,,,false,,,,303847.39999997616,303847.09999999404,301403.936,301406.7999999821,301420.602,303853.838,8,400,,,
trial,html.Screen,4_77_0,2023-11-01T18:26:39.899Z,,0,2,,2459.8619999880902,response,ISIC_0032472.JPG,5,ISIC_5673859.JPG,ISIC_5673859.JPG,false,0,keypress(z),500,306314.09999999404,306313.6999999881,303837.172,303847.59999999404,303853.838,306320.853,8,400,28,,ISIC_0032472.JPG
break,html.Screen,4_77_1,2023-11-01T18:26:39.900Z,,0,,,NaN,,,,,,false,,,,306315.39999997616,306315.09999999404,,306314.5,,306320.853,8,400,,,
break_continue,html.Screen,4_77_2,2023-11-01T18:26:39.900Z,,0,,,NaN,,,,,,false,,,,306315.89999997616,306315.6999999881,,306315.59999999404,,306320.853,8,400,,,
sequence,flow.Sequence,4_77,2023-11-01T18:26:39.901Z,,0,,,2461.8619999880902,completion,,,,,false,,,,306316.09999999404,306315.6999999881,303837.172,303847.59999999404,303853.838,306320.853,8,400,,,
trial,html.Screen,4_78_0,2023-11-01T18:26:42.896Z,,0,2,,2990.3469999880763,response,ISIC_0071931.JPG,8,ISIC_0028041.JPG,ISIC_0028041.JPG,false,0,keypress(z),500,309311.59999999404,309311.1999999881,306304.187,306316.2999999821,306320.853,309320.733,8,400,29,,ISIC_0071931.JPG
break,html.Screen,4_78_1,2023-11-01T18:26:42.897Z,,0,,,NaN,,,,,,false,,,,309312.7999999821,309312.5,,309311.7999999821,,309320.733,8,400,,,
break_continue,html.Screen,4_78_2,2023-11-01T18:26:42.898Z,,0,,,NaN,,,,,,false,,,,309313.09999999404,309313,,309312.89999997616,,309320.733,8,400,,,
sequence,flow.Sequence,4_78,2023-11-01T18:26:42.898Z,,0,,,2992.146999999997,completion,,,,,false,,,,309313.2999999821,309313,306304.187,306316.1999999881,306320.853,309320.733,8,400,,,
trial,html.Screen,4_79_0,2023-11-01T18:26:45.575Z,,0,2,,2669.066999982111,response,ISIC_0032960.JPG,9,ISIC_0025616.JPG,ISIC_0025616.JPG,false,0,keypress(z),500,311990.2999999821,311989.7999999821,309304.067,309313.39999997616,309320.733,312003.959,8,400,30,,ISIC_0032960.JPG
break,html.Screen,4_79_1,2023-11-01T18:26:45.576Z,,0,,,NaN,,,,,,false,,,,311991.5,311991.1999999881,,311990.5,,312003.959,8,400,,,
break_continue,html.Screen,4_79_2,2023-11-01T18:26:45.576Z,,0,,,NaN,,,,,,false,,,,311991.89999997616,311991.7999999821,,311991.59999999404,,312003.959,8,400,,,
sequence,flow.Sequence,4_79,2023-11-01T18:26:45.577Z,,0,,,2671.066999982111,completion,,,,,false,,,,311992.09999999404,311991.7999999821,309304.067,309313.39999997616,309320.733,312003.959,8,400,,,
trial,html.Screen,4_80_0,2023-11-01T18:26:48.162Z,,0,2,,2573.2409999881056,response,ISIC_0033704.JPG,9,ISIC_6668093.JPG,ISIC_0033704.JPG,false,1,keypress(m),500,314577.59999999404,314577.1999999881,311987.293,311992.1999999881,312003.959,314587.189,8,400,31,,ISIC_6668093.JPG
break,html.Screen,4_80_1,2023-11-01T18:26:48.163Z,,0,,,NaN,,,,,,false,,,,314578.7999999821,314578.5,,314577.89999997616,,314587.189,8,400,,,
break_continue,html.Screen,4_80_2,2023-11-01T18:26:48.164Z,,0,,,NaN,,,,,,false,,,,314579.1999999881,314579,,314578.89999997616,,314587.189,8,400,,,
sequence,flow.Sequence,4_80,2023-11-01T18:26:48.164Z,,0,,,2575.0410000000265,completion,,,,,false,,,,314579.2999999821,314579,311987.293,311992.1999999881,312003.959,314587.189,8,400,,,
trial,html.Screen,4_81_0,2023-11-01T18:26:52.106Z,,0,2,,3933.9109999940265,response,ISIC_9161341.JPG,6,ISIC_0000349.JPG,ISIC_9161341.JPG,false,1,keypress(m),500,318521.39999997616,318521.09999999404,314570.523,314579.5,314587.189,318537.463,8,400,32,,ISIC_0000349.JPG
break,html.Screen,4_81_1,2023-11-01T18:26:52.107Z,,0,,,NaN,,,,,,false,,,,318522.6999999881,318522.39999997616,,318521.6999999881,,318537.463,8,400,,,
break_continue,html.Screen,4_81_2,2023-11-01T18:26:52.108Z,,0,,,NaN,,,,,,false,,,,318523.1999999881,318523,,318522.7999999821,,318537.463,8,400,,,
sequence,flow.Sequence,4_81,2023-11-01T18:26:52.108Z,,0,,,3935.810999999987,completion,,,,,false,,,,318523.39999997616,318523,314570.523,314579.39999997616,314587.189,318537.463,8,400,,,
trial,html.Screen,4_82_0,2023-11-01T18:26:56.288Z,,0,2,,4165.33699998213,response,ISIC_4517738.JPG,8,ISIC_0025573.JPG,ISIC_0025573.JPG,false,0,keypress(z),500,322703.09999999404,322702.7999999821,318520.797,318523.5,318537.463,322703.963,8,400,33,,ISIC_4517738.JPG
break,html.Screen,4_82_1,2023-11-01T18:26:56.289Z,,0,,,NaN,,,,,,false,,,,322704.2999999821,322704.09999999404,,322703.39999997616,,322703.963,8,400,,,
break_continue,html.Screen,4_82_2,2023-11-01T18:26:56.289Z,,0,,,NaN,,,,,,false,,,,322704.7999999821,322704.6999999881,,322704.5,,322703.963,8,400,,,
sequence,flow.Sequence,4_82,2023-11-01T18:26:56.290Z,,0,,,4167.23699998809,completion,,,,,false,,,,322705,322704.6999999881,318520.797,318523.39999997616,318537.463,322703.963,8,400,,,
trial,html.Screen,4_83_0,2023-11-01T18:26:58.986Z,,0,2,,2697.2369999880902,response,ISIC_0001149.JPG,4,ISIC_0502582.JPG,ISIC_0001149.JPG,false,1,keypress(m),500,325401.6999999881,325401.1999999881,322687.297,322705.09999999404,322703.963,325403.855,8,400,34,,ISIC_0502582.JPG
break,html.Screen,4_83_1,2023-11-01T18:26:58.988Z,,0,,,NaN,,,,,,false,,,,325403,325402.6999999881,,325402,,325403.855,8,400,,,
break_continue,html.Screen,4_83_2,2023-11-01T18:26:58.988Z,,0,,,NaN,,,,,,false,,,,325403.5,325403.39999997616,,325403.1999999881,,325403.855,8,400,,,
sequence,flow.Sequence,4_83,2023-11-01T18:26:58.988Z,,0,,,2699.4369999761693,completion,,,,,false,,,,325403.6999999881,325403.39999997616,322687.297,322705.09999999404,322703.963,325403.855,8,400,,,
trial,html.Screen,4_84_0,2023-11-01T18:27:05.378Z,,0,2,,6388.744999994058,response,ISIC_9955163.JPG,6,ISIC_3225754.JPG,ISIC_3225754.JPG,false,0,keypress(z),500,331793.09999999404,331792.59999999404,325387.189,325403.7999999821,325403.855,331803.994,8,400,35,,ISIC_9955163.JPG
break,html.Screen,4_84_1,2023-11-01T18:27:05.379Z,,0,,,NaN,,,,,,false,,,,331794.39999997616,331794.09999999404,,331793.39999997616,,331803.994,8,400,,,
break_continue,html.Screen,4_84_2,2023-11-01T18:27:05.380Z,,0,,,NaN,,,,,,false,,,,331794.89999997616,331794.6999999881,,331794.59999999404,,331803.994,8,400,,,
sequence,flow.Sequence,4_84,2023-11-01T18:27:05.380Z,,0,,,6390.844999988098,completion,,,,,false,,,,331795.09999999404,331794.6999999881,325387.189,325403.6999999881,325403.855,331803.994,8,400,,,
trial,html.Screen,4_85_0,2023-11-01T18:27:08.056Z,,0,2,,2666.705999988073,response,ISIC_0033399.JPG,8,ISIC_5520533.JPG,ISIC_5520533.JPG,false,0,keypress(z),500,334471.09999999404,334470.6999999881,331787.328,331795.2999999821,331803.994,334487.22,8,400,36,,ISIC_0033399.JPG
break,html.Screen,4_85_1,2023-11-01T18:27:08.057Z,,0,,,NaN,,,,,,false,,,,334472.39999997616,334472.09999999404,,334471.39999997616,,334487.22,8,400,,,
break_continue,html.Screen,4_85_2,2023-11-01T18:27:08.058Z,,0,,,NaN,,,,,,false,,,,334472.89999997616,334472.6999999881,,334472.59999999404,,334487.22,8,400,,,
sequence,flow.Sequence,4_85,2023-11-01T18:27:08.058Z,,0,,,2668.705999988073,completion,,,,,false,,,,334473.09999999404,334472.6999999881,331787.328,331795.1999999881,331803.994,334487.22,8,400,,,
trial,html.Screen,4_86_0,2023-11-01T18:27:11.009Z,,0,2,,2936.280000000028,response,ISIC_0026727.JPG,6,ISIC_1342117.JPG,ISIC_0026727.JPG,false,1,keypress(m),500,337423.89999997616,337423.5,334470.554,334473.1999999881,334487.22,337437.565,8,400,37,,ISIC_1342117.JPG
break,html.Screen,4_86_1,2023-11-01T18:27:11.010Z,,0,,,NaN,,,,,,false,,,,337425.1999999881,337424.89999997616,,337424.1999999881,,337437.565,8,400,,,
break_continue,html.Screen,4_86_2,2023-11-01T18:27:11.011Z,,0,,,NaN,,,,,,false,,,,337425.6999999881,337425.59999999404,,337425.39999997616,,337437.565,8,400,,,
sequence,flow.Sequence,4_86,2023-11-01T18:27:11.011Z,,0,,,2938.3799999940675,completion,,,,,false,,,,337426,337425.59999999404,334470.554,334473.1999999881,334487.22,337437.565,8,400,,,
trial,html.Screen,4_87_0,2023-11-01T18:27:13.686Z,,0,2,,2662.6349999880767,response,ISIC_6907218.JPG,7,ISIC_0055404.JPG,ISIC_6907218.JPG,false,1,keypress(m),500,340100.59999999404,340100.1999999881,337420.899,337426.09999999404,337437.565,340104.125,8,400,38,,ISIC_0055404.JPG
break,html.Screen,4_87_1,2023-11-01T18:27:13.687Z,,0,,,NaN,,,,,,false,,,,340101.89999997616,340101.59999999404,,340101,,340104.125,8,400,,,
break_continue,html.Screen,4_87_2,2023-11-01T18:27:13.687Z,,0,,,NaN,,,,,,false,,,,340102.2999999821,340102.1999999881,,340102,,340104.125,8,400,,,
sequence,flow.Sequence,4_87,2023-11-01T18:27:13.687Z,,0,,,2664.6349999880767,completion,,,,,false,,,,340102.5,340102.1999999881,337420.899,337426,337437.565,340104.125,8,400,,,
trial,html.Screen,4_88_0,2023-11-01T18:27:16.251Z,,0,2,,2561.074999988079,response,ISIC_0025355.JPG,6,ISIC_0058851.JPG,ISIC_0058851.JPG,false,0,keypress(z),500,342665.59999999404,342665.1999999881,340087.459,340102.6999999881,340104.125,342670.689,8,400,39,,ISIC_0025355.JPG
break,html.Screen,4_88_1,2023-11-01T18:27:16.252Z,,0,,,NaN,,,,,,false,,,,342667,342666.6999999881,,342665.89999997616,,342670.689,8,400,,,
break_continue,html.Screen,4_88_2,2023-11-01T18:27:16.252Z,,0,,,NaN,,,,,,false,,,,342667.5,342667.2999999821,,342667.1999999881,,342670.689,8,400,,,
sequence,flow.Sequence,4_88,2023-11-01T18:27:16.253Z,,0,,,2563.1749999821186,completion,,,,,false,,,,342667.59999999404,342667.2999999821,340087.459,340102.59999999404,340104.125,342670.689,8,400,,,
trial,html.Screen,4_89_0,2023-11-01T18:27:19.781Z,,0,2,,3525.1109999821056,response,ISIC_7249063.JPG,9,ISIC_0011517.JPG,ISIC_7249063.JPG,false,1,keypress(m),500,346196.09999999404,346195.7999999821,342654.023,342667.7999999821,342670.689,346203.881,8,400,40,,ISIC_0011517.JPG
break,html.Screen,4_89_1,2023-11-01T18:27:19.782Z,,0,,,NaN,,,,,,false,,,,346197.39999997616,346197.09999999404,,346196.5,,346203.881,8,400,,,
break_continue,html.Screen,4_89_2,2023-11-01T18:27:19.784Z,,0,,,NaN,,,,,,false,,,,346199.09999999404,346199,,346198.7999999821,,346203.881,8,400,,,
sequence,flow.Sequence,4_89,2023-11-01T18:27:19.784Z,,0,,,3528.310999999987,completion,,,,,false,,,,346199.1999999881,346199,342654.023,342667.6999999881,342670.689,346203.881,8,400,,,
trial,html.Screen,4_90_0,2023-11-01T18:27:24.989Z,,0,2,,5199.818999988085,response,ISIC_8588957.JPG,8,ISIC_0010415.JPG,ISIC_8588957.JPG,false,1,keypress(m),500,351404.09999999404,351403.6999999881,346187.215,346199.2999999821,346203.881,351420.753,8,400,41,,ISIC_0010415.JPG
break,html.Screen,4_90_1,2023-11-01T18:27:24.990Z,,0,,,NaN,,,,,,false,,,,351404.7999999821,351404.6999999881,,351404.1999999881,,351420.753,8,400,,,
break_continue,html.Screen,4_90_2,2023-11-01T18:27:24.990Z,,0,,,NaN,,,,,,false,,,,351405.09999999404,351405.09999999404,,351405,,351420.753,8,400,,,
sequence,flow.Sequence,4_90,2023-11-01T18:27:24.990Z,,0,,,5201.218999994046,completion,,,,,false,,,,351405.1999999881,351405.09999999404,346187.215,346199.2999999821,346203.881,351420.753,8,400,,,
trial,html.Screen,4_91_0,2023-11-01T18:27:27.478Z,,0,2,,2471.646999976132,response,ISIC_0010017.JPG,8,ISIC_0010651.JPG,ISIC_0010651.JPG,false,0,keypress(z),500,353892.7999999821,353892.39999997616,351404.087,351405.2999999821,351420.753,353903.987,8,400,42,,ISIC_0010017.JPG
break,html.Screen,4_91_1,2023-11-01T18:27:27.479Z,,0,,,NaN,,,,,,false,,,,353894,353893.6999999881,,353893.09999999404,,353903.987,8,400,,,
break_continue,html.Screen,4_91_2,2023-11-01T18:27:27.480Z,,0,,,NaN,,,,,,false,,,,353894.59999999404,353894.5,,353894.1999999881,,353903.987,8,400,,,
sequence,flow.Sequence,4_91,2023-11-01T18:27:27.480Z,,0,,,2473.746999999974,completion,,,,,false,,,,353894.6999999881,353894.5,351404.087,351405.1999999881,351420.753,353903.987,8,400,,,
trial,html.Screen,4_92_0,2023-11-01T18:27:29.996Z,,0,2,,2506.312999982096,response,ISIC_5170766.JPG,5,ISIC_7988794.JPG,ISIC_5170766.JPG,false,1,keypress(m),500,356410.7999999821,356410.2999999821,353887.321,353894.89999997616,353903.987,356420.553,8,400,43,,ISIC_7988794.JPG
break,html.Screen,4_92_1,2023-11-01T18:27:29.997Z,,0,,,NaN,,,,,,false,,,,356412.09999999404,356411.7999999821,,356411.1999999881,,356420.553,8,400,,,
break_continue,html.Screen,4_92_2,2023-11-01T18:27:29.998Z,,0,,,NaN,,,,,,false,,,,356412.5,356412.5,,356412.2999999821,,356420.553,8,400,,,
sequence,flow.Sequence,4_92,2023-11-01T18:27:29.998Z,,0,,,2508.512999999977,completion,,,,,false,,,,356412.7999999821,356412.5,353887.321,353894.89999997616,353903.987,356420.553,8,400,,,
trial,html.Screen,4_93_0,2023-11-01T18:27:41.498Z,,0,2,,11516.926999999967,timeout,ISIC_2123159.JPG,7,ISIC_5390932.JPG,,false,,,500,367912.6999999881,367912,356403.887,356412.89999997616,356420.553,367937.48,8,400,44,,
break,html.Screen,4_93_1,2023-11-01T18:27:41.499Z,,0,,,NaN,,,,,,false,,,,367914,367913.6999999881,,367912.89999997616,,367937.48,8,400,,,
break_continue,html.Screen,4_93_2,2023-11-01T18:27:41.499Z,,0,,,NaN,,,,,,false,,,,367914.1999999881,367914.1999999881,,367914.09999999404,,367937.48,8,400,,,
sequence,flow.Sequence,4_93,2023-11-01T18:27:41.500Z,,0,,,11493.646999988065,completion,,,,,false,,,,367914.2999999821,367914.1999999881,356403.887,356412.89999997616,356420.553,367937.48,8,400,,,
trial,html.Screen,4_94_0,2023-11-01T18:27:52.825Z,,0,2,,10829.819999982137,response,ISIC_0011035.JPG,6,ISIC_5415749.JPG,ISIC_0011035.JPG,false,1,keypress(m),500,378767.7999999821,378767.2999999821,367920.814,367914.39999997616,367937.48,378770.021,8,400,45,,ISIC_5415749.JPG
break,html.Screen,4_94_1,2023-11-01T18:27:52.827Z,,0,,,NaN,,,,,,false,,,,378769.09999999404,378768.89999997616,,378768.09999999404,,378770.021,8,400,,,
break_continue,html.Screen,4_94_2,2023-11-01T18:27:52.827Z,,0,,,NaN,,,,,,false,,,,378769.5,378769.39999997616,,378769.2999999821,,378770.021,8,400,,,
sequence,flow.Sequence,4_94,2023-11-01T18:27:52.827Z,,0,,,10831.919999976177,completion,,,,,false,,,,378769.59999999404,378769.39999997616,367920.814,367914.39999997616,367937.48,378770.021,8,400,,,
trial,html.Screen,4_95_0,2023-11-01T18:28:04.315Z,,0,2,,11516.534999999974,timeout,ISIC_0032976.JPG,19,ISIC_0822116.JPG,,false,,,500,390258.1999999881,390257.6999999881,378753.355,378769.6999999881,378770.021,390286.556,8,400,46,,
break,html.Screen,4_95_1,2023-11-01T18:28:04.316Z,,0,,,NaN,,,,,,false,,,,390259.5,390259.1999999881,,390258.5,,390286.556,8,400,,,
break_continue,html.Screen,4_95_2,2023-11-01T18:28:04.317Z,,0,,,NaN,,,,,,false,,,,390260,390259.7999999821,,390259.6999999881,,390286.556,8,400,,,
sequence,flow.Sequence,4_95,2023-11-01T18:28:04.317Z,,0,,,11489.77899998211,completion,,,,,false,,,,390260,390259.7999999821,378753.355,378769.6999999881,378770.021,390286.556,8,400,,,
trial,html.Screen,4_96_0,2023-11-01T18:28:09.568Z,,0,2,,5223.743999982136,response,ISIC_5850699.JPG,8,ISIC_0066882.JPG,ISIC_5850699.JPG,false,1,keypress(m),500,395510.6999999881,395510.2999999821,390269.89,390260.1999999881,390286.556,395519.68,8,400,47,,ISIC_0066882.JPG
break,html.Screen,4_96_1,2023-11-01T18:28:09.569Z,,0,,,NaN,,,,,,false,,,,395511.89999997616,395511.6999999881,,395511,,395519.68,8,400,,,
break_continue,html.Screen,4_96_2,2023-11-01T18:28:09.569Z,,0,,,NaN,,,,,,false,,,,395512.5,395512.2999999821,,395512.09999999404,,395519.68,8,400,,,
sequence,flow.Sequence,4_96,2023-11-01T18:28:09.569Z,,0,,,5225.743999982136,completion,,,,,false,,,,395512.59999999404,395512.2999999821,390269.89,390260.09999999404,390286.556,395519.68,8,400,,,
trial,html.Screen,4_97_0,2023-11-01T18:28:15.015Z,,0,2,,5437.719999976165,response,ISIC_0011193.JPG,9,ISIC_1693458.JPG,ISIC_1693458.JPG,false,0,keypress(z),500,400957.89999997616,400957.39999997616,395503.014,395512.6999999881,395519.68,400969.907,8,400,48,,ISIC_0011193.JPG
break,html.Screen,4_97_1,2023-11-01T18:28:15.016Z,,0,,,NaN,,,,,,false,,,,400959.39999997616,400959,,400958.2999999821,,400969.907,8,400,,,
break_continue,html.Screen,4_97_2,2023-11-01T18:28:15.017Z,,0,,,NaN,,,,,,false,,,,400960,400959.7999999821,,400959.5,,400969.907,8,400,,,
sequence,flow.Sequence,4_97,2023-11-01T18:28:15.017Z,,0,,,5440.119999982126,completion,,,,,false,,,,400960.1999999881,400959.7999999821,395503.014,395512.6999999881,395519.68,400969.907,8,400,,,
trial,html.Screen,4_98_0,2023-11-01T18:28:17.934Z,,0,2,,2906.392999982112,response,ISIC_0010414.JPG,7,ISIC_7240424.JPG,ISIC_7240424.JPG,false,0,keypress(z),500,403876.89999997616,403876.2999999821,400953.241,400960.39999997616,400969.907,403886.457,8,400,49,,ISIC_0010414.JPG
break,html.Screen,4_98_1,2023-11-01T18:28:17.935Z,,0,,,NaN,,,,,,false,,,,403878.1999999881,403877.89999997616,,403877.1999999881,,403886.457,8,400,,,
break_continue,html.Screen,4_98_2,2023-11-01T18:28:17.935Z,,0,,,NaN,,,,,,false,,,,403878.6999999881,403878.5,,403878.2999999821,,403886.457,8,400,,,
sequence,flow.Sequence,4_98,2023-11-01T18:28:17.936Z,,0,,,2908.5929999999935,completion,,,,,false,,,,403878.89999997616,403878.5,400953.241,400960.1999999881,400969.907,403886.457,8,400,,,
trial,html.Screen,4_99_0,2023-11-01T18:28:21.077Z,,0,2,,3133.242999988084,response,ISIC_0070709.JPG,8,ISIC_0054625.JPG,ISIC_0070709.JPG,false,1,keypress(m),500,407020.09999999404,407019.6999999881,403869.791,403879,403886.457,407036.331,8,400,50,,ISIC_0054625.JPG
break,html.Screen,4_99_1,2023-11-01T18:28:31.079Z,,0,,,10000.126999999979,timeout,,,,,false,,,,417022,417019.792,407019.665,407020.39999997616,407036.331,417036.458,8,400,,,
break_continue,html.Screen,4_99_2,2023-11-01T18:28:32.340Z,,0,,,1229.8419999821344,response,,,,,false,continue,keypress(Space),,418283.1999999881,418266.2999999821,417019.792,417022.1999999881,417036.458,418286.408,8,400,,,
sequence,flow.Sequence,4_99,2023-11-01T18:28:32.340Z,,0,,,14379.842999982124,completion,,,,,false,,,,418283.39999997616,418266.2999999821,403869.791,403878.89999997616,403886.457,418286.408,8,400,,,
trial,html.Screen,4_100_0,2023-11-01T18:28:34.923Z,,0,3,,2579.2919999880833,response,ISIC_0064821.JPG,8,ISIC_8013225.JPG,ISIC_8013225.JPG,false,0,keypress(z),500,420866.09999999404,420865.6999999881,418269.742,418283.5,418286.408,420870.047,8,400,1,,ISIC_0064821.JPG
break,html.Screen,4_100_1,2023-11-01T18:28:34.924Z,,0,,,NaN,,,,,,false,,,,420867.39999997616,420867.09999999404,,420866.39999997616,,420870.047,8,400,,,
break_continue,html.Screen,4_100_2,2023-11-01T18:28:34.925Z,,0,,,NaN,,,,,,false,,,,420867.7999999821,420867.6999999881,,420867.5,,420870.047,8,400,,,
sequence,flow.Sequence,4_100,2023-11-01T18:28:34.925Z,,0,,,2581.2919999880833,completion,,,,,false,,,,420868,420867.6999999881,418269.742,418283.5,418286.408,420870.047,8,400,,,
trial,html.Screen,4_101_0,2023-11-01T18:28:38.242Z,,0,3,,3314.8529999761377,response,ISIC_0057169.JPG,9,ISIC_9625295.JPG,ISIC_9625295.JPG,false,0,keypress(z),500,424185.5,424184.89999997616,420853.381,420868.1999999881,420870.047,424186.581,8,400,2,,ISIC_0057169.JPG
break,html.Screen,4_101_1,2023-11-01T18:28:38.244Z,,0,,,NaN,,,,,,false,,,,424186.7999999821,424186.39999997616,,424185.6999999881,,424186.581,8,400,,,
break_continue,html.Screen,4_101_2,2023-11-01T18:28:38.244Z,,0,,,NaN,,,,,,false,,,,424187.2999999821,424187.09999999404,,424186.89999997616,,424186.581,8,400,,,
sequence,flow.Sequence,4_101,2023-11-01T18:28:38.244Z,,0,,,3317.052999994019,completion,,,,,false,,,,424187.39999997616,424187.09999999404,420853.381,420868.09999999404,420870.047,424186.581,8,400,,,
trial,html.Screen,4_102_0,2023-11-01T18:28:40.872Z,,0,3,,2628.518999994034,response,ISIC_0034134.JPG,7,ISIC_0013733.JPG,ISIC_0013733.JPG,false,0,keypress(z),500,426815.39999997616,426815.09999999404,424169.915,424187.59999999404,424186.581,426819.809,8,400,3,,ISIC_0034134.JPG
break,html.Screen,4_102_1,2023-11-01T18:28:40.873Z,,0,,,NaN,,,,,,false,,,,426816.2999999821,426816.09999999404,,426815.59999999404,,426819.809,8,400,,,
break_continue,html.Screen,4_102_2,2023-11-01T18:28:40.873Z,,0,,,NaN,,,,,,false,,,,426816.5,426816.5,,426816.2999999821,,426819.809,8,400,,,
sequence,flow.Sequence,4_102,2023-11-01T18:28:40.873Z,,0,,,2629.9189999999944,completion,,,,,false,,,,426816.59999999404,426816.5,424169.915,424187.5,424186.581,426819.809,8,400,,,
trial,html.Screen,4_103_0,2023-11-01T18:28:43.587Z,,0,3,,2710.290999994031,response,ISIC_1835041.JPG,8,ISIC_0779920.JPG,ISIC_1835041.JPG,false,1,keypress(m),500,429530.59999999404,429530.09999999404,426803.143,426816.6999999881,426819.809,429536.367,8,400,4,,ISIC_0779920.JPG
break,html.Screen,4_103_1,2023-11-01T18:28:43.589Z,,0,,,NaN,,,,,,false,,,,429531.89999997616,429531.6999999881,,429531,,429536.367,8,400,,,
break_continue,html.Screen,4_103_2,2023-11-01T18:28:43.589Z,,0,,,NaN,,,,,,false,,,,429532.39999997616,429532.2999999821,,429532.09999999404,,429536.367,8,400,,,
sequence,flow.Sequence,4_103,2023-11-01T18:28:43.589Z,,0,,,2712.49099998211,completion,,,,,false,,,,429532.5,429532.2999999821,426803.143,426816.59999999404,426819.809,429536.367,8,400,,,
trial,html.Screen,4_104_0,2023-11-01T18:28:46.411Z,,0,3,,2817.3329999880516,response,ISIC_0005264.JPG,5,ISIC_0000043.JPG,ISIC_0005264.JPG,false,1,keypress(m),500,432354.2999999821,432353.6999999881,429519.701,429532.59999999404,429536.367,432369.995,8,400,5,,ISIC_0000043.JPG
break,html.Screen,4_104_1,2023-11-01T18:28:46.413Z,,0,,,NaN,,,,,,false,,,,432355.6999999881,432355.2999999821,,432354.59999999404,,432369.995,8,400,,,
break_continue,html.Screen,4_104_2,2023-11-01T18:28:46.413Z,,0,,,NaN,,,,,,false,,,,432356.09999999404,432356,,432355.7999999821,,432369.995,8,400,,,
sequence,flow.Sequence,4_104,2023-11-01T18:28:46.413Z,,0,,,2819.6329999999725,completion,,,,,false,,,,432356.2999999821,432356,429519.701,429532.5,429536.367,432369.995,8,400,,,
trial,html.Screen,4_105_0,2023-11-01T18:28:49.203Z,,0,3,,2775.2049999880837,response,ISIC_3432650.JPG,7,ISIC_6806124.JPG,ISIC_3432650.JPG,false,1,keypress(m),500,435145.6999999881,435145.1999999881,432353.329,432356.5,432369.995,435153.217,8,400,6,,ISIC_6806124.JPG
break,html.Screen,4_105_1,2023-11-01T18:28:49.204Z,,0,,,NaN,,,,,,false,,,,435147,435146.6999999881,,435146,,435153.217,8,400,,,
break_continue,html.Screen,4_105_2,2023-11-01T18:28:49.204Z,,0,,,NaN,,,,,,false,,,,435147.5,435147.2999999821,,435147.09999999404,,435153.217,8,400,,,
sequence,flow.Sequence,4_105,2023-11-01T18:28:49.205Z,,0,,,2777.3049999821233,completion,,,,,false,,,,435147.59999999404,435147.2999999821,432353.329,432356.39999997616,432369.995,435153.217,8,400,,,
trial,html.Screen,4_106_0,2023-11-01T18:28:51.945Z,,0,3,,2734.5829999821144,response,ISIC_1426331.JPG,7,ISIC_0072768.JPG,ISIC_1426331.JPG,false,1,keypress(m),500,437888.2999999821,437887.7999999821,435136.551,435147.7999999821,435153.217,437903.107,8,400,7,,ISIC_0072768.JPG
break,html.Screen,4_106_1,2023-11-01T18:28:51.946Z,,0,,,NaN,,,,,,false,,,,437889.39999997616,437889.09999999404,,437888.59999999404,,437903.107,8,400,,,
break_continue,html.Screen,4_106_2,2023-11-01T18:28:51.947Z,,0,,,NaN,,,,,,false,,,,437890,437889.7999999821,,437889.5,,437903.107,8,400,,,
sequence,flow.Sequence,4_106,2023-11-01T18:28:51.947Z,,0,,,2736.5829999821144,completion,,,,,false,,,,437890,437889.7999999821,435136.551,435147.7999999821,435153.217,437903.107,8,400,,,
trial,html.Screen,4_107_0,2023-11-01T18:28:55.213Z,,0,3,,3252.892999999982,response,ISIC_0012722.JPG,6,ISIC_7759376.JPG,ISIC_0012722.JPG,false,1,keypress(m),500,441156.39999997616,441156,437886.441,437890.1999999881,437903.107,441169.998,8,400,8,,ISIC_7759376.JPG
break,html.Screen,4_107_1,2023-11-01T18:28:55.215Z,,0,,,NaN,,,,,,false,,,,441157.89999997616,441157.5,,441156.7999999821,,441169.998,8,400,,,
break_continue,html.Screen,4_107_2,2023-11-01T18:28:55.215Z,,0,,,NaN,,,,,,false,,,,441158.39999997616,441158.1999999881,,441158.09999999404,,441169.998,8,400,,,
sequence,flow.Sequence,4_107,2023-11-01T18:28:55.215Z,,0,,,3255.092999988061,completion,,,,,false,,,,441158.59999999404,441158.1999999881,437886.441,437890.09999999404,437903.107,441169.998,8,400,,,
trial,html.Screen,4_108_0,2023-11-01T18:28:58.227Z,,0,3,,2999.9019999761367,response,ISIC_0033181.JPG,6,ISIC_2930792.JPG,ISIC_0033181.JPG,false,1,keypress(m),500,444170.39999997616,444169.89999997616,441153.332,441158.59999999404,441169.998,444186.544,8,400,9,,ISIC_2930792.JPG
break,html.Screen,4_108_1,2023-11-01T18:28:58.229Z,,0,,,NaN,,,,,,false,,,,444171.6999999881,444171.39999997616,,444170.6999999881,,444186.544,8,400,,,
break_continue,html.Screen,4_108_2,2023-11-01T18:28:58.229Z,,0,,,NaN,,,,,,false,,,,444172.09999999404,444172,,444171.7999999821,,444186.544,8,400,,,
sequence,flow.Sequence,4_108,2023-11-01T18:28:58.229Z,,0,,,3002.0019999999786,completion,,,,,false,,,,444172.2999999821,444172,441153.332,441158.59999999404,441169.998,444186.544,8,400,,,
trial,html.Screen,4_109_0,2023-11-01T18:29:00.888Z,,0,3,,2644.255999982124,response,ISIC_6052437.JPG,8,ISIC_0026329.JPG,ISIC_0026329.JPG,false,0,keypress(z),500,446831.2999999821,446830.7999999821,444169.878,444172.39999997616,444186.544,446836.438,8,400,10,,ISIC_6052437.JPG
break,html.Screen,4_109_1,2023-11-01T18:29:00.890Z,,0,,,NaN,,,,,,false,,,,446832.59999999404,446832.2999999821,,446831.59999999404,,446836.438,8,400,,,
break_continue,html.Screen,4_109_2,2023-11-01T18:29:00.890Z,,0,,,NaN,,,,,,false,,,,446833,446832.89999997616,,446832.7999999821,,446836.438,8,400,,,
sequence,flow.Sequence,4_109,2023-11-01T18:29:00.890Z,,0,,,2646.3559999761637,completion,,,,,false,,,,446833.2999999821,446832.89999997616,444169.878,444172.39999997616,444186.544,446836.438,8,400,,,
trial,html.Screen,4_110_0,2023-11-01T18:29:03.569Z,,0,3,,2674.661999994016,response,ISIC_0014527.JPG,8,ISIC_0058496.JPG,ISIC_0014527.JPG,false,1,keypress(m),500,449511.6999999881,449511.09999999404,446819.772,446833.39999997616,446836.438,449519.664,8,400,11,,ISIC_0058496.JPG
break,html.Screen,4_110_1,2023-11-01T18:29:03.570Z,,0,,,NaN,,,,,,false,,,,449512.89999997616,449512.59999999404,,449512,,449519.664,8,400,,,
break_continue,html.Screen,4_110_2,2023-11-01T18:29:03.570Z,,0,,,NaN,,,,,,false,,,,449513.39999997616,449513.1999999881,,449513.09999999404,,449519.664,8,400,,,
sequence,flow.Sequence,4_110,2023-11-01T18:29:03.571Z,,0,,,2676.7619999880553,completion,,,,,false,,,,449513.5,449513.1999999881,446819.772,446833.39999997616,446836.438,449519.664,8,400,,,
trial,html.Screen,4_111_0,2023-11-01T18:29:06.104Z,,0,3,,2526.93599999405,response,ISIC_0072631.JPG,7,ISIC_3779424.JPG,ISIC_3779424.JPG,false,0,keypress(z),500,452047.09999999404,452046.59999999404,449502.998,449513.6999999881,449519.664,452053.341,8,400,12,,ISIC_0072631.JPG
break,html.Screen,4_111_1,2023-11-01T18:29:06.105Z,,0,,,NaN,,,,,,false,,,,452048.39999997616,452048,,452047.39999997616,,452053.341,8,400,,,
break_continue,html.Screen,4_111_2,2023-11-01T18:29:06.106Z,,0,,,NaN,,,,,,false,,,,452048.7999999821,452048.59999999404,,452048.5,,452053.341,8,400,,,
sequence,flow.Sequence,4_111,2023-11-01T18:29:06.106Z,,0,,,2528.93599999405,completion,,,,,false,,,,452049,452048.59999999404,449502.998,449513.6999999881,449519.664,452053.341,8,400,,,
trial,html.Screen,4_112_0,2023-11-01T18:29:13.549Z,,0,3,,7437.658999999985,response,ISIC_8626909.JPG,8,ISIC_0010433.JPG,ISIC_8626909.JPG,false,1,keypress(m),500,459491.39999997616,459491,452036.675,452049.09999999404,452053.341,459519.709,8,400,13,,ISIC_0010433.JPG
break,html.Screen,4_112_1,2023-11-01T18:29:13.550Z,,0,,,NaN,,,,,,false,,,,459492.6999999881,459492.2999999821,,459491.59999999404,,459519.709,8,400,,,
break_continue,html.Screen,4_112_2,2023-11-01T18:29:13.550Z,,0,,,NaN,,,,,,false,,,,459493.09999999404,459492.89999997616,,459492.6999999881,,459519.709,8,400,,,
sequence,flow.Sequence,4_112,2023-11-01T18:29:13.550Z,,0,,,7439.558999976143,completion,,,,,false,,,,459493.1999999881,459492.89999997616,452036.675,452049,452053.341,459519.709,8,400,,,
trial,html.Screen,4_113_0,2023-11-01T18:29:24.962Z,,0,3,,11384.490999988106,response,ISIC_0066952.JPG,8,ISIC_3805025.JPG,ISIC_3805025.JPG,false,0,keypress(z),500,470904.7999999821,470904.1999999881,459503.043,459493.2999999821,459519.709,470919.671,8,400,14,,ISIC_0066952.JPG
break,html.Screen,4_113_1,2023-11-01T18:29:24.963Z,,0,,,NaN,,,,,,false,,,,470906,470905.6999999881,,470905,,470919.671,8,400,,,
break_continue,html.Screen,4_113_2,2023-11-01T18:29:24.964Z,,0,,,NaN,,,,,,false,,,,470906.39999997616,470906.1999999881,,470906.09999999404,,470919.671,8,400,,,
sequence,flow.Sequence,4_113,2023-11-01T18:29:24.964Z,,0,,,11386.490999988106,completion,,,,,false,,,,470906.59999999404,470906.1999999881,459503.043,459493.2999999821,459519.709,470919.671,8,400,,,
trial,html.Screen,4_114_0,2023-11-01T18:29:30.984Z,,0,3,,6006.528999988106,response,ISIC_0029056.JPG,7,ISIC_0066518.JPG,ISIC_0029056.JPG,false,1,keypress(m),500,476926.6999999881,476926.1999999881,470903.005,470906.7999999821,470919.671,476936.493,8,400,15,,ISIC_0066518.JPG
break,html.Screen,4_114_1,2023-11-01T18:29:30.985Z,,0,,,NaN,,,,,,false,,,,476928,476927.7999999821,,476926.89999997616,,476936.493,8,400,,,
break_continue,html.Screen,4_114_2,2023-11-01T18:29:30.986Z,,0,,,NaN,,,,,,false,,,,476928.5,476928.2999999821,,476928.1999999881,,476936.493,8,400,,,
sequence,flow.Sequence,4_114,2023-11-01T18:29:30.986Z,,0,,,6008.628999982146,completion,,,,,false,,,,476928.6999999881,476928.2999999821,470903.005,470906.59999999404,470919.671,476936.493,8,400,,,
trial,html.Screen,4_115_0,2023-11-01T18:29:37.983Z,,0,3,,6988.106999994023,response,ISIC_8252406.JPG,6,ISIC_8127578.JPG,ISIC_8127578.JPG,false,0,keypress(z),500,483925.1999999881,483924.59999999404,476919.827,476928.6999999881,476936.493,483936.702,8,400,16,,ISIC_8252406.JPG
break,html.Screen,4_115_1,2023-11-01T18:29:37.984Z,,0,,,NaN,,,,,,false,,,,483926.5,483926.09999999404,,483925.39999997616,,483936.702,8,400,,,
break_continue,html.Screen,4_115_2,2023-11-01T18:29:37.984Z,,0,,,NaN,,,,,,false,,,,483926.89999997616,483926.7999999821,,483926.59999999404,,483936.702,8,400,,,
sequence,flow.Sequence,4_115,2023-11-01T18:29:37.985Z,,0,,,6990.306999982102,completion,,,,,false,,,,483927.09999999404,483926.7999999821,476919.827,476928.6999999881,476936.493,483936.702,8,400,,,
trial,html.Screen,4_116_0,2023-11-01T18:29:46.983Z,,0,3,,8987.89799999405,response,ISIC_1150482.JPG,5,ISIC_8835545.JPG,ISIC_8835545.JPG,false,0,keypress(z),500,492925.1999999881,492924.59999999404,483920.036,483927.1999999881,483936.702,492936.342,8,400,17,,ISIC_1150482.JPG
break,html.Screen,4_116_1,2023-11-01T18:29:46.984Z,,0,,,NaN,,,,,,false,,,,492926.39999997616,492926.1999999881,,492925.5,,492936.342,8,400,,,
break_continue,html.Screen,4_116_2,2023-11-01T18:29:46.984Z,,0,,,NaN,,,,,,false,,,,492926.7999999821,492926.6999999881,,492926.59999999404,,492936.342,8,400,,,
sequence,flow.Sequence,4_116,2023-11-01T18:29:46.985Z,,0,,,8989.997999988089,completion,,,,,false,,,,492927,492926.6999999881,483920.036,483927.1999999881,483936.702,492936.342,8,400,,,
trial,html.Screen,4_117_0,2023-11-01T18:29:49.680Z,,0,3,,2685.657999999996,response,ISIC_0065351.JPG,8,ISIC_0067653.JPG,ISIC_0065351.JPG,false,1,keypress(m),500,495622.5,495622,492919.676,492927,492936.342,495636.625,8,400,18,,ISIC_0067653.JPG
break,html.Screen,4_117_1,2023-11-01T18:29:49.681Z,,0,,,NaN,,,,,,false,,,,495623.7999999821,495623.39999997616,,495622.6999999881,,495636.625,8,400,,,
break_continue,html.Screen,4_117_2,2023-11-01T18:29:49.682Z,,0,,,NaN,,,,,,false,,,,495624.09999999404,495624,,495623.7999999821,,495636.625,8,400,,,
sequence,flow.Sequence,4_117,2023-11-01T18:29:49.682Z,,0,,,2687.657999999996,completion,,,,,false,,,,495624.2999999821,495624,492919.676,492927,492936.342,495636.625,8,400,,,
trial,html.Screen,4_118_0,2023-11-01T18:29:52.168Z,,0,3,,2473.6749999821186,response,ISIC_2058516.JPG,8,ISIC_0012298.JPG,ISIC_2058516.JPG,false,1,keypress(m),500,498110.7999999821,498110.2999999821,495619.959,495624.5,495636.625,498119.859,8,400,19,,ISIC_0012298.JPG
break,html.Screen,4_118_1,2023-11-01T18:29:52.170Z,,0,,,NaN,,,,,,false,,,,498112.1999999881,498111.7999999821,,498111,,498119.859,8,400,,,
break_continue,html.Screen,4_118_2,2023-11-01T18:29:52.170Z,,0,,,NaN,,,,,,false,,,,498112.6999999881,498112.5,,498112.2999999821,,498119.859,8,400,,,
sequence,flow.Sequence,4_118,2023-11-01T18:29:52.171Z,,0,,,2475.875,completion,,,,,false,,,,498112.7999999821,498112.5,495619.959,495624.39999997616,495636.625,498119.859,8,400,,,
trial,html.Screen,4_119_0,2023-11-01T18:29:59.231Z,,0,3,,7052.740999994043,response,ISIC_8184471.JPG,6,ISIC_8077943.JPG,ISIC_8077943.JPG,false,0,keypress(z),500,505173.09999999404,505172.59999999404,498103.193,498113,498119.859,505186.7,8,400,20,,ISIC_8184471.JPG
break,html.Screen,4_119_1,2023-11-01T18:29:59.232Z,,0,,,NaN,,,,,,false,,,,505174.39999997616,505174.09999999404,,505173.39999997616,,505186.7,8,400,,,
break_continue,html.Screen,4_119_2,2023-11-01T18:29:59.233Z,,0,,,NaN,,,,,,false,,,,505174.89999997616,505174.6999999881,,505174.5,,505186.7,8,400,,,
sequence,flow.Sequence,4_119,2023-11-01T18:29:59.233Z,,0,,,7054.840999988082,completion,,,,,false,,,,505175,505174.6999999881,498103.193,498113,498119.859,505186.7,8,400,,,
trial,html.Screen,4_120_0,2023-11-01T18:30:10.732Z,,0,3,,11516.298999999999,timeout,ISIC_6571597.JPG,7,ISIC_4728968.JPG,,false,,,500,516674.5,516674,505170.034,505175.1999999881,505186.7,516702.999,8,400,21,,
break,html.Screen,4_120_1,2023-11-01T18:30:10.734Z,,0,,,NaN,,,,,,false,,,,516675.7999999821,516675.5,,516674.7999999821,,516702.999,8,400,,,
break_continue,html.Screen,4_120_2,2023-11-01T18:30:10.734Z,,0,,,NaN,,,,,,false,,,,516676.1999999881,516676.09999999404,,516675.89999997616,,516702.999,8,400,,,
sequence,flow.Sequence,4_120,2023-11-01T18:30:10.734Z,,0,,,11489.399999994028,completion,,,,,false,,,,516676.39999997616,516676.09999999404,505170.034,505175.09999999404,505186.7,516702.999,8,400,,,
trial,html.Screen,4_121_0,2023-11-01T18:30:22.249Z,,0,3,,11516.99900000001,timeout,ISIC_3799267.JPG,8,ISIC_0538042.JPG,,false,,,500,528191.1999999881,528190.6999999881,516686.333,516676.59999999404,516702.999,528219.998,8,400,22,,
break,html.Screen,4_121_1,2023-11-01T18:30:22.250Z,,0,,,NaN,,,,,,false,,,,528192.3999999762,528192.099999994,,528191.3999999762,,528219.998,8,400,,,
break_continue,html.Screen,4_121_2,2023-11-01T18:30:22.251Z,,0,,,NaN,,,,,,false,,,,528192.8999999762,528192.6999999881,,528192.599999994,,528219.998,8,400,,,
sequence,flow.Sequence,4_121,2023-11-01T18:30:22.251Z,,0,,,11489.700999988068,completion,,,,,false,,,,528193,528192.6999999881,516686.333,516676.5,516702.999,528219.998,8,400,,,
trial,html.Screen,4_122_0,2023-11-01T18:30:33.765Z,,0,3,,11516.407999999938,timeout,ISIC_0060380.JPG,6,ISIC_0012334.JPG,,false,,,500,539706.6999999881,539706.1999999881,528203.332,528193.1999999881,528219.998,539736.406,8,400,23,,
break,html.Screen,4_122_1,2023-11-01T18:30:33.766Z,,0,,,NaN,,,,,,false,,,,539708.099999994,539707.6999999881,,539707,,539736.406,8,400,,,
break_continue,html.Screen,4_122_2,2023-11-01T18:30:33.767Z,,0,,,NaN,,,,,,false,,,,539708.6999999881,539708.3999999762,,539708.1999999881,,539736.406,8,400,,,
sequence,flow.Sequence,4_122,2023-11-01T18:30:33.767Z,,0,,,11488.401999976137,completion,,,,,false,,,,539708.8999999762,539708.3999999762,528203.332,528193.1999999881,528219.998,539736.406,8,400,,,
trial,html.Screen,4_123_0,2023-11-01T18:30:36.637Z,,0,3,,2841.8939999821596,response,ISIC_0013052.JPG,8,ISIC_1869829.JPG,ISIC_0013052.JPG,false,1,keypress(m),500,542578.7999999821,542578.2999999821,539719.74,539709,539736.406,542586.292,8,400,24,,ISIC_1869829.JPG
break,html.Screen,4_123_1,2023-11-01T18:30:36.638Z,,0,,,NaN,,,,,,false,,,,542580.099999994,542579.6999999881,,542579,,542586.292,8,400,,,
break_continue,html.Screen,4_123_2,2023-11-01T18:30:36.639Z,,0,,,NaN,,,,,,false,,,,542580.5,542580.3999999762,,542580.1999999881,,542586.292,8,400,,,
sequence,flow.Sequence,4_123,2023-11-01T18:30:36.639Z,,0,,,2843.993999976199,completion,,,,,false,,,,542580.599999994,542580.3999999762,539719.74,539709,539736.406,542586.292,8,400,,,
trial,html.Screen,4_124_0,2023-11-01T18:30:39.237Z,,0,3,,2592.1079999761423,response,ISIC_0010719.JPG,7,ISIC_0026770.JPG,ISIC_0010719.JPG,false,1,keypress(m),500,545178.7999999821,545178.3999999762,542569.626,542580.7999999821,542586.292,545186.188,8,400,25,,ISIC_0026770.JPG
break,html.Screen,4_124_1,2023-11-01T18:30:39.239Z,,0,,,NaN,,,,,,false,,,,545180.2999999821,545180,,545179.1999999881,,545186.188,8,400,,,
break_continue,html.Screen,4_124_2,2023-11-01T18:30:39.239Z,,0,,,NaN,,,,,,false,,,,545181,545180.599999994,,545180.3999999762,,545186.188,8,400,,,
sequence,flow.Sequence,4_124,2023-11-01T18:30:39.239Z,,0,,,2594.3079999940237,completion,,,,,false,,,,545181.1999999881,545180.599999994,542569.626,542580.6999999881,542586.292,545186.188,8,400,,,
trial,html.Screen,4_125_0,2023-11-01T18:30:41.662Z,,0,3,,2417.3120000000345,response,ISIC_0015166.JPG,8,ISIC_0028755.JPG,ISIC_0028755.JPG,false,0,keypress(z),500,547604,547603.5,545169.522,545181.2999999821,545186.188,547619.424,8,400,26,,ISIC_0015166.JPG
break,html.Screen,4_125_1,2023-11-01T18:30:41.664Z,,0,,,NaN,,,,,,false,,,,547605.2999999821,547605,,547604.2999999821,,547619.424,8,400,,,
break_continue,html.Screen,4_125_2,2023-11-01T18:30:41.664Z,,0,,,NaN,,,,,,false,,,,547605.7999999821,547605.599999994,,547605.3999999762,,547619.424,8,400,,,
