sender,sender_type,sender_id,timestamp,meta,,blockNo,condition,duration,ended_on,img_left,img_reveal,img_right,loser,practice,response,response_action,selection_duration,time_commit,time_end,time_render,time_run,time_show,time_switch,total_blocks,total_trials,trialNo,url,winner
informed_consent,html.Screen,0,2023-11-01T18:05:49.662Z,"{""labjs_version"":""20.2.4"",""labjs_build"":{""flavor"":""production"",""commit"":""f5b4a49f956347addd546a832a3327688c2c0fef""},""location"":""https://run.pavlovia.org/MurrayBennett/melanoma-2afc/?participant=65652&platform=sona"",""userAgent"":""Mozilla/5.0 (Windows NT 10.0; Win64; x64) AppleWebKit/537.36 (KHTML, like Gecko) Chrome/118.0.0.0 Safari/537.36"",""platform"":""Win32"",""language"":""en-US"",""locale"":""en-US"",""timeZone"":""America/Chicago"",""timezoneOffset"":300,""screen_width"":1536,""screen_height"":864,""scroll_width"":1536,""scroll_height"":659,""window_innerWidth"":1536,""window_innerHeight"":707,""devicePixelRatio"":1.25}",,,,5417.424,response,,,,,,consent,click button,,11882.899999976158,11879.5,6445.394,6447,6462.076,11896.007,,,,"{""participant"":""65652"",""platform"":""sona""}",
Welcome,html.Screen,1,2023-11-01T18:06:12.722Z,,,,colourful,23053.593000023844,response,,,,,,continue,click button,,34951,34949.60000002384,11879.224,11883.200000047684,11896.007,34963.805,,,,,
trial,html.Screen,2_0_0,2023-11-01T18:06:16.669Z,,0,0,,3934.1949999999997,response,ISIC_0025593.JPG,,ISIC_0063388.JPG,ISIC_0063388.JPG,true,0,keypress(z),500,38898.5,38898,34946.854,34951.300000071526,34963.805,38915.21,1,6,1,,ISIC_0025593.JPG
sequence,flow.Sequence,2_0,2023-11-01T18:06:16.669Z,,0,,,3934.1949999999997,completion,,,,,true,,,,38898.800000071526,38898,34946.854,34951.300000071526,34963.805,38915.21,1,6,,,
trial,html.Screen,2_1_0,2023-11-01T18:06:23.586Z,,0,0,,6899.790000000001,response,ISIC_1309015.JPG,,ISIC_0028178.JPG,ISIC_1309015.JPG,true,1,keypress(m),500,45815.300000071526,45815,38898.584,38899,38915.21,45831.284,1,6,2,,ISIC_0028178.JPG
sequence,flow.Sequence,2_1,2023-11-01T18:06:23.586Z,,0,,,6899.790000000001,completion,,,,,true,,,,45815.5,45815,38898.584,38899,38915.21,45831.284,1,6,,,
trial,html.Screen,2_2_0,2023-11-01T18:06:28.477Z,,0,0,,4874.816000023842,response,ISIC_0031128.JPG,,ISIC_3314853.JPG,ISIC_0031128.JPG,true,1,keypress(m),500,50706.300000071526,50706.10000002384,45815.544,45815.700000047684,45831.284,50714.345,1,6,3,,ISIC_3314853.JPG
sequence,flow.Sequence,2_2,2023-11-01T18:06:28.477Z,,0,,,4874.816000023842,completion,,,,,true,,,,50706.5,50706.10000002384,45815.544,45815.60000002384,45831.284,50714.345,1,6,,,
trial,html.Screen,2_3_0,2023-11-01T18:06:33.601Z,,0,0,,5115.955000071524,response,ISIC_8980141.JPG,,ISIC_0031612.JPG,ISIC_0031612.JPG,true,0,keypress(z),500,55830.700000047684,55830.300000071526,50698.698,50706.60000002384,50714.345,55849.055,1,6,4,,ISIC_8980141.JPG
sequence,flow.Sequence,2_3,2023-11-01T18:06:33.602Z,,0,,,5115.955000071524,completion,,,,,true,,,,55831.10000002384,55830.300000071526,50698.698,50706.60000002384,50714.345,55849.055,1,6,,,
trial,html.Screen,2_4_0,2023-11-01T18:06:38.121Z,,0,0,,4501.045000023842,response,ISIC_1197737.JPG,,ISIC_9721604.JPG,ISIC_9721604.JPG,true,0,keypress(z),500,60350.39999997616,60350.10000002384,55831.434,55831.300000071526,55849.055,60365.964,1,6,5,,ISIC_1197737.JPG
sequence,flow.Sequence,2_4,2023-11-01T18:06:38.121Z,,0,,,4501.045000023842,completion,,,,,true,,,,60350.700000047684,60350.10000002384,55831.434,55831.200000047684,55849.055,60365.964,1,6,,,
trial,html.Screen,2_5_0,2023-11-01T18:06:41.325Z,,0,0,,3188.036,response,ISIC_0025346.JPG,,ISIC_0010681.JPG,ISIC_0025346.JPG,true,1,keypress(m),500,63554.39999997616,63554,60349.723,60350.89999997616,60365.964,63565.579,1,6,6,,ISIC_0010681.JPG
sequence,flow.Sequence,2_5,2023-11-01T18:06:41.325Z,,0,,,3188.036,completion,,,,,true,,,,63554.700000047684,63554,60349.723,60350.800000071526,60365.964,63565.579,1,6,,,
loop,flow.Loop,2,2023-11-01T18:06:41.326Z,,,,,28590.195,completion,,,,,true,,,,63554.89999997616,63554,34946.854,34951.300000071526,34963.805,63565.579,1,6,,,
exp_instructions,html.Screen,3,2023-11-01T18:06:46.610Z,,,,,5272.021000023844,response,,,,,,continue,keypress(Space),,68839.30000007153,68837.60000002384,63549.047,63555,63565.579,68848.948,,,,,
trial,html.Screen,4_0_0,2023-11-01T18:06:50.022Z,,0,1,,3401.951999976154,response,ISIC_0011481.JPG,11,ISIC_5983500.JPG,ISIC_0011481.JPG,false,1,keypress(m),500,72251.20000004768,72250.89999997616,68833.26,68839.5,68848.948,72266.725,8,400,1,,ISIC_5983500.JPG
break,html.Screen,4_0_1,2023-11-01T18:06:50.023Z,,0,,,NaN,,,,,,false,,,,72252.80000007153,72252.5,,72251.39999997616,,72266.725,8,400,,,
break_continue,html.Screen,4_0_2,2023-11-01T18:06:50.024Z,,0,,,NaN,,,,,,false,,,,72253.10000002384,72253,,72252.89999997616,,72266.725,8,400,,,
sequence,flow.Sequence,4_0,2023-11-01T18:06:50.024Z,,0,,,3404.051999999996,completion,,,,,false,,,,72253.30000007153,72253,68833.26,68839.5,68848.948,72266.725,8,400,,,
trial,html.Screen,4_1_0,2023-11-01T18:06:53.470Z,,0,1,,3432.274999999994,response,ISIC_0302804.JPG,8,ISIC_6348638.JPG,ISIC_6348638.JPG,false,0,keypress(z),500,75699.70000004768,75699,72249.671,72253.39999997616,72266.725,75716.03,8,400,2,,ISIC_0302804.JPG
break,html.Screen,4_1_1,2023-11-01T18:06:53.472Z,,0,,,NaN,,,,,,false,,,,75700.89999997616,75700.80000007153,,75699.89999997616,,75716.03,8,400,,,
break_continue,html.Screen,4_1_2,2023-11-01T18:06:53.472Z,,0,,,NaN,,,,,,false,,,,75701.20000004768,75701.10000002384,,75701,,75716.03,8,400,,,
sequence,flow.Sequence,4_1,2023-11-01T18:06:53.472Z,,0,,,3434.375000023836,completion,,,,,false,,,,75701.30000007153,75701.10000002384,72249.671,72253.39999997616,72266.725,75716.03,8,400,,,
trial,html.Screen,4_2_0,2023-11-01T18:06:58.362Z,,0,1,,4875.070000023843,response,ISIC_7293697.JPG,6,ISIC_6878417.JPG,ISIC_7293697.JPG,false,1,keypress(m),500,80591.39999997616,80591.10000002384,75699.435,75701.39999997616,75716.03,80599.883,8,400,3,,ISIC_6878417.JPG
break,html.Screen,4_2_1,2023-11-01T18:06:58.363Z,,0,,,NaN,,,,,,false,,,,80592.60000002384,80592.39999997616,,80591.5,,80599.883,8,400,,,
break_continue,html.Screen,4_2_2,2023-11-01T18:06:58.364Z,,0,,,NaN,,,,,,false,,,,80592.89999997616,80592.80000007153,,80592.80000007153,,80599.883,8,400,,,
sequence,flow.Sequence,4_2,2023-11-01T18:06:58.364Z,,0,,,4876.770000071527,completion,,,,,false,,,,80593,80592.80000007153,75699.435,75701.39999997616,75716.03,80599.883,8,400,,,
trial,html.Screen,4_3_0,2023-11-01T18:07:02.195Z,,0,1,,3824.417000071524,response,ISIC_0060760.JPG,8,ISIC_2456538.JPG,ISIC_0060760.JPG,false,1,keypress(m),500,84424.5,84424.30000007153,80585.755,80593.20000004768,80599.883,84433.09,8,400,4,,ISIC_2456538.JPG
break,html.Screen,4_3_1,2023-11-01T18:07:02.196Z,,0,,,NaN,,,,,,false,,,,84425.70000004768,84425.10000002384,,84424.80000007153,,84433.09,8,400,,,
break_continue,html.Screen,4_3_2,2023-11-01T18:07:02.197Z,,0,,,NaN,,,,,,false,,,,84426,84426,,84425.80000007153,,84433.09,8,400,,,
sequence,flow.Sequence,4_3,2023-11-01T18:07:02.197Z,,0,,,3826.1169999999984,completion,,,,,false,,,,84426.10000002384,84426,80585.755,80593.10000002384,80599.883,84433.09,8,400,,,
trial,html.Screen,4_4_0,2023-11-01T18:07:05.643Z,,0,1,,3437.3099999761616,response,ISIC_9590080.JPG,8,ISIC_0011193.JPG,ISIC_0011193.JPG,false,0,keypress(z),500,87871.89999997616,87870.39999997616,84416.905,84426.30000007153,84433.09,87883.649,8,400,5,,ISIC_9590080.JPG
break,html.Screen,4_4_1,2023-11-01T18:07:05.644Z,,0,,,NaN,,,,,,false,,,,87873,87872.80000007153,,87872,,87883.649,8,400,,,
break_continue,html.Screen,4_4_2,2023-11-01T18:07:05.644Z,,0,,,NaN,,,,,,false,,,,87873.30000007153,87873.20000004768,,87873.10000002384,,87883.649,8,400,,,
sequence,flow.Sequence,4_4,2023-11-01T18:07:05.644Z,,0,,,3440.110000047687,completion,,,,,false,,,,87873.39999997616,87873.20000004768,84416.905,84426.20000004768,84433.09,87883.649,8,400,,,
trial,html.Screen,4_5_0,2023-11-01T18:07:09.297Z,,0,1,,3642.451000023837,response,ISIC_0033555.JPG,7,ISIC_7141153.JPG,ISIC_7141153.JPG,false,0,keypress(z),500,91526.39999997616,91526.10000002384,87867.296,87873.5,87883.649,91533.489,8,400,6,,ISIC_0033555.JPG
break,html.Screen,4_5_1,2023-11-01T18:07:09.298Z,,0,,,NaN,,,,,,false,,,,91527.5,91527.30000007153,,91526.5,,91533.489,8,400,,,
break_continue,html.Screen,4_5_2,2023-11-01T18:07:09.299Z,,0,,,NaN,,,,,,false,,,,91527.70000004768,91527.70000004768,,91527.70000004768,,91533.489,8,400,,,
sequence,flow.Sequence,4_5,2023-11-01T18:07:09.299Z,,0,,,3644.051000047679,completion,,,,,false,,,,91527.89999997616,91527.70000004768,87867.296,87873.5,87883.649,91533.489,8,400,,,
trial,html.Screen,4_6_0,2023-11-01T18:07:16.152Z,,0,1,,6848.010999999999,response,ISIC_0028692.JPG,8,ISIC_1644520.JPG,ISIC_0028692.JPG,false,1,keypress(m),500,98381.70000004768,98381.5,91517.481,91527.89999997616,91533.489,98383.61,8,400,7,,ISIC_1644520.JPG
break,html.Screen,4_6_1,2023-11-01T18:07:16.153Z,,0,,,NaN,,,,,,false,,,,98382.60000002384,98382.20000004768,,98381.89999997616,,98383.61,8,400,,,
break_continue,html.Screen,4_6_2,2023-11-01T18:07:16.154Z,,0,,,NaN,,,,,,false,,,,98382.80000007153,98382.80000007153,,98382.60000002384,,98383.61,8,400,,,
sequence,flow.Sequence,4_6,2023-11-01T18:07:16.154Z,,0,,,6849.311000071524,completion,,,,,false,,,,98382.89999997616,98382.80000007153,91517.481,91527.89999997616,91533.489,98383.61,8,400,,,
trial,html.Screen,4_7_0,2023-11-01T18:07:19.103Z,,0,1,,2948.7899999761576,response,ISIC_0069264.JPG,11,ISIC_8479913.JPG,ISIC_8479913.JPG,false,0,keypress(z),500,101332.60000002384,101332.39999997616,98368.162,98383,98383.61,101350.47,8,400,8,,ISIC_0069264.JPG
break,html.Screen,4_7_1,2023-11-01T18:07:19.104Z,,0,,,NaN,,,,,,false,,,,101333.20000004768,101333,,101332.80000007153,,101350.47,8,400,,,
break_continue,html.Screen,4_7_2,2023-11-01T18:07:19.104Z,,0,,,NaN,,,,,,false,,,,101333.39999997616,101333.39999997616,,101333.30000007153,,101350.47,8,400,,,
sequence,flow.Sequence,4_7,2023-11-01T18:07:19.104Z,,0,,,2949.7899999761576,completion,,,,,false,,,,101333.5,101333.39999997616,98368.162,98382.89999997616,98383.61,101350.47,8,400,,,
trial,html.Screen,4_8_0,2023-11-01T18:07:22.056Z,,0,1,,2934.1300000238407,response,ISIC_8821700.JPG,5,ISIC_0032121.JPG,ISIC_8821700.JPG,false,1,keypress(m),500,104285,104284.60000002384,101333.735,101333.5,101350.47,104301.026,8,400,9,,ISIC_0032121.JPG
break,html.Screen,4_8_1,2023-11-01T18:07:22.057Z,,0,,,NaN,,,,,,false,,,,104286.30000007153,104286.10000002384,,104285.20000004768,,104301.026,8,400,,,
break_continue,html.Screen,4_8_2,2023-11-01T18:07:22.057Z,,0,,,NaN,,,,,,false,,,,104286.5,104286.39999997616,,104286.30000007153,,104301.026,8,400,,,
sequence,flow.Sequence,4_8,2023-11-01T18:07:22.058Z,,0,,,2935.929999976157,completion,,,,,false,,,,104287.70000004768,104286.39999997616,101333.735,101333.5,101350.47,104301.026,8,400,,,
trial,html.Screen,4_9_0,2023-11-01T18:07:31.923Z,,0,1,,9850.074000023844,response,ISIC_0005762.JPG,5,ISIC_1460932.JPG,ISIC_0005762.JPG,false,1,keypress(m),500,114151.80000007153,114151.10000002384,104284.962,104287.89999997616,104301.026,114167.775,8,400,10,,ISIC_1460932.JPG
break,html.Screen,4_9_1,2023-11-01T18:07:31.924Z,,0,,,NaN,,,,,,false,,,,114153.10000002384,114152.80000007153,,114152.30000007153,,114167.775,8,400,,,
break_continue,html.Screen,4_9_2,2023-11-01T18:07:31.924Z,,0,,,NaN,,,,,,false,,,,114153.70000004768,114153.5,,114153.39999997616,,114167.775,8,400,,,
sequence,flow.Sequence,4_9,2023-11-01T18:07:31.925Z,,0,,,9852.474000000002,completion,,,,,false,,,,114153.89999997616,114153.5,104284.962,104287.80000007153,104301.026,114167.775,8,400,,,
trial,html.Screen,4_10_0,2023-11-01T18:07:35.772Z,,0,1,,3833.0250000715314,response,ISIC_0060486.JPG,11,ISIC_2605120.JPG,ISIC_2605120.JPG,false,0,keypress(z),500,118001,118000.80000007153,114151.277,114154,114167.775,118018.96,8,400,11,,ISIC_0060486.JPG
break,html.Screen,4_10_1,2023-11-01T18:07:35.773Z,,0,,,NaN,,,,,,false,,,,118002.5,118002.30000007153,,118001.10000002384,,118018.96,8,400,,,
break_continue,html.Screen,4_10_2,2023-11-01T18:07:35.774Z,,0,,,NaN,,,,,,false,,,,118002.80000007153,118002.80000007153,,118002.60000002384,,118018.96,8,400,,,
sequence,flow.Sequence,4_10,2023-11-01T18:07:35.774Z,,0,,,3835.0250000715314,completion,,,,,false,,,,118003,118002.80000007153,114151.277,114154,114167.775,118018.96,8,400,,,
trial,html.Screen,4_11_0,2023-11-01T18:07:40.790Z,,0,1,,5000.240000047677,response,ISIC_6280523.JPG,13,ISIC_0001480.JPG,ISIC_0001480.JPG,false,0,keypress(z),500,123019.5,123019.20000004768,117985.872,118003,118018.96,123035.582,8,400,12,,ISIC_6280523.JPG
break,html.Screen,4_11_1,2023-11-01T18:07:40.791Z,,0,,,NaN,,,,,,false,,,,123020.30000007153,123020.10000002384,,123019.70000004768,,123035.582,8,400,,,
break_continue,html.Screen,4_11_2,2023-11-01T18:07:40.791Z,,0,,,NaN,,,,,,false,,,,123020.5,123020.39999997616,,123020.30000007153,,123035.582,8,400,,,
sequence,flow.Sequence,4_11,2023-11-01T18:07:40.791Z,,0,,,5001.439999976152,completion,,,,,false,,,,123020.60000002384,123020.39999997616,117985.872,118003,118018.96,123035.582,8,400,,,
trial,html.Screen,4_12_0,2023-11-01T18:07:44.169Z,,0,1,,3362.8179999761633,response,ISIC_1488727.JPG,6,ISIC_0054292.JPG,ISIC_1488727.JPG,false,1,keypress(m),500,126398.70000004768,126398.39999997616,123019.094,123020.70000004768,123035.582,126402.092,8,400,13,,ISIC_0054292.JPG
break,html.Screen,4_12_1,2023-11-01T18:07:44.171Z,,0,,,NaN,,,,,,false,,,,126400.20000004768,126400,,126399,,126402.092,8,400,,,
break_continue,html.Screen,4_12_2,2023-11-01T18:07:44.173Z,,0,,,NaN,,,,,,false,,,,126402.70000004768,126401.70000004768,,126400.39999997616,,126402.092,8,400,,,
sequence,flow.Sequence,4_12,2023-11-01T18:07:44.174Z,,0,,,3366.118000047689,completion,,,,,false,,,,126402.80000007153,126401.70000004768,123019.094,123020.70000004768,123035.582,126402.092,8,400,,,
trial,html.Screen,4_13_0,2023-11-01T18:07:47.649Z,,0,1,,3475.807999976154,response,ISIC_0025105.JPG,10,ISIC_6517852.JPG,ISIC_0025105.JPG,false,1,keypress(m),500,129878.20000004768,129877.89999997616,126385.621,126402.89999997616,126402.092,129886.312,8,400,14,,ISIC_6517852.JPG
break,html.Screen,4_13_1,2023-11-01T18:07:47.650Z,,0,,,NaN,,,,,,false,,,,129879.39999997616,129879.20000004768,,129878.30000007153,,129886.312,8,400,,,
break_continue,html.Screen,4_13_2,2023-11-01T18:07:47.651Z,,0,,,NaN,,,,,,false,,,,129879.80000007153,129879.70000004768,,129879.60000002384,,129886.312,8,400,,,
sequence,flow.Sequence,4_13,2023-11-01T18:07:47.651Z,,0,,,3477.6080000476795,completion,,,,,false,,,,129879.89999997616,129879.70000004768,126385.621,126402.89999997616,126402.092,129886.312,8,400,,,
trial,html.Screen,4_14_0,2023-11-01T18:07:50.742Z,,0,1,,3084.587999976153,response,ISIC_0030193.JPG,5,ISIC_0026407.JPG,ISIC_0030193.JPG,false,1,keypress(m),500,132971.20000004768,132970.89999997616,129869.176,129880,129886.312,133002.337,8,400,15,,ISIC_0026407.JPG
break,html.Screen,4_14_1,2023-11-01T18:07:50.743Z,,0,,,NaN,,,,,,false,,,,132971.80000007153,132971.70000004768,,132971.39999997616,,133002.337,8,400,,,
break_continue,html.Screen,4_14_2,2023-11-01T18:07:50.743Z,,0,,,NaN,,,,,,false,,,,132972.10000002384,132972,,132971.89999997616,,133002.337,8,400,,,
sequence,flow.Sequence,4_14,2023-11-01T18:07:50.743Z,,0,,,3085.6879999999946,completion,,,,,false,,,,132972.20000004768,132972,129869.176,129879.89999997616,129886.312,133002.337,8,400,,,
trial,html.Screen,4_15_0,2023-11-01T18:07:54.018Z,,0,1,,3244.1630000000005,response,ISIC_0013032.JPG,11,ISIC_0193907.JPG,ISIC_0013032.JPG,false,1,keypress(m),500,136246.80000007153,136246.5,132986.484,132972.30000007153,133002.337,136269.213,8,400,16,,ISIC_0193907.JPG
break,html.Screen,4_15_1,2023-11-01T18:07:54.018Z,,0,,,NaN,,,,,,false,,,,136247.5,136247.30000007153,,136247,,136269.213,8,400,,,
break_continue,html.Screen,4_15_2,2023-11-01T18:07:54.018Z,,0,,,NaN,,,,,,false,,,,136247.80000007153,136247.70000004768,,136247.60000002384,,136269.213,8,400,,,
sequence,flow.Sequence,4_15,2023-11-01T18:07:54.019Z,,0,,,3245.363000047684,completion,,,,,false,,,,136247.80000007153,136247.70000004768,132986.484,132972.30000007153,133002.337,136269.213,8,400,,,
trial,html.Screen,4_16_0,2023-11-01T18:07:57.096Z,,0,1,,3055.987000047695,response,ISIC_0014233.JPG,7,ISIC_0016127.JPG,ISIC_0016127.JPG,false,0,keypress(z),500,139325.60000002384,139325.20000004768,136252.939,136248,136269.213,139336.157,8,400,17,,ISIC_0014233.JPG
break,html.Screen,4_16_1,2023-11-01T18:07:57.097Z,,0,,,NaN,,,,,,false,,,,139326.60000002384,139326.5,,139325.80000007153,,139336.157,8,400,,,
break_continue,html.Screen,4_16_2,2023-11-01T18:07:57.098Z,,0,,,NaN,,,,,,false,,,,139327,139326.80000007153,,139326.70000004768,,139336.157,8,400,,,
sequence,flow.Sequence,4_16,2023-11-01T18:07:57.098Z,,0,,,3057.5870000715367,completion,,,,,false,,,,139327.10000002384,139326.80000007153,136252.939,136247.89999997616,136269.213,139336.157,8,400,,,
trial,html.Screen,4_17_0,2023-11-01T18:08:00.083Z,,0,1,,2975.4430000238353,response,ISIC_6692344.JPG,23,ISIC_0001101.JPG,ISIC_0001101.JPG,false,0,keypress(z),500,142312.10000002384,142311.60000002384,139320.023,139327.10000002384,139336.157,142319.652,8,400,18,,ISIC_6692344.JPG
break,html.Screen,4_17_1,2023-11-01T18:08:00.084Z,,0,,,NaN,,,,,,false,,,,142313.60000002384,142313.10000002384,,142312.60000002384,,142319.652,8,400,,,
break_continue,html.Screen,4_17_2,2023-11-01T18:08:00.085Z,,0,,,NaN,,,,,,false,,,,142314.20000004768,142314,,142313.80000007153,,142319.652,8,400,,,
sequence,flow.Sequence,4_17,2023-11-01T18:08:00.085Z,,0,,,2977.8429999999935,completion,,,,,false,,,,142314.39999997616,142314,139320.023,139327.10000002384,139336.157,142319.652,8,400,,,
trial,html.Screen,4_18_0,2023-11-01T18:08:04.472Z,,0,1,,4381.247999976156,response,ISIC_6320497.JPG,6,ISIC_0062286.JPG,ISIC_0062286.JPG,false,0,keypress(z),500,146701.20000004768,146700.89999997616,142303.057,142314.5,142319.652,146720.097,8,400,19,,ISIC_6320497.JPG
break,html.Screen,4_18_1,2023-11-01T18:08:04.473Z,,0,,,NaN,,,,,,false,,,,146702,146701.89999997616,,146701.5,,146720.097,8,400,,,
break_continue,html.Screen,4_18_2,2023-11-01T18:08:04.473Z,,0,,,NaN,,,,,,false,,,,146702.30000007153,146702.20000004768,,146702.20000004768,,146720.097,8,400,,,
sequence,flow.Sequence,4_18,2023-11-01T18:08:04.473Z,,0,,,4382.548000047682,completion,,,,,false,,,,146702.39999997616,146702.20000004768,142303.057,142314.5,142319.652,146720.097,8,400,,,
trial,html.Screen,4_19_0,2023-11-01T18:08:07.356Z,,0,1,,2865.503000023833,response,ISIC_1285870.JPG,11,ISIC_9543945.JPG,ISIC_1285870.JPG,false,1,keypress(m),500,149585.80000007153,149585.60000002384,146703.651,146702.5,146720.097,149603.915,8,400,20,,ISIC_9543945.JPG
break,html.Screen,4_19_1,2023-11-01T18:08:07.358Z,,0,,,NaN,,,,,,false,,,,149587,149586.80000007153,,149586,,149603.915,8,400,,,
break_continue,html.Screen,4_19_2,2023-11-01T18:08:07.358Z,,0,,,NaN,,,,,,false,,,,149587.20000004768,149587.20000004768,,149587.10000002384,,149603.915,8,400,,,
sequence,flow.Sequence,4_19,2023-11-01T18:08:07.358Z,,0,,,2867.103000047675,completion,,,,,false,,,,149587.39999997616,149587.20000004768,146703.651,146702.5,146720.097,149603.915,8,400,,,
trial,html.Screen,4_20_0,2023-11-01T18:08:11.020Z,,0,1,,3644.7850000476756,response,ISIC_0411688.JPG,5,ISIC_2915747.JPG,ISIC_2915747.JPG,false,0,keypress(z),500,153249.10000002384,153248.70000004768,149587.245,149587.5,149603.915,153253.486,8,400,21,,ISIC_0411688.JPG
break,html.Screen,4_20_1,2023-11-01T18:08:11.021Z,,0,,,NaN,,,,,,false,,,,153250.5,153250.39999997616,,153249.30000007153,,153253.486,8,400,,,
break_continue,html.Screen,4_20_2,2023-11-01T18:08:11.021Z,,0,,,NaN,,,,,,false,,,,153250.89999997616,153250.80000007153,,153250.60000002384,,153253.486,8,400,,,
sequence,flow.Sequence,4_20,2023-11-01T18:08:11.022Z,,0,,,3646.8850000715174,completion,,,,,false,,,,153251,153250.80000007153,149587.245,149587.5,149603.915,153253.486,8,400,,,
trial,html.Screen,4_21_0,2023-11-01T18:08:16.217Z,,0,1,,5192.214000047679,response,ISIC_4748605.JPG,6,ISIC_9473492.JPG,ISIC_9473492.JPG,false,0,keypress(z),500,158446,158445.70000004768,153237.053,153251.10000002384,153253.486,158453.681,8,400,22,,ISIC_4748605.JPG
break,html.Screen,4_21_1,2023-11-01T18:08:16.218Z,,0,,,NaN,,,,,,false,,,,158447.39999997616,158447,,158446.30000007153,,158453.681,8,400,,,
break_continue,html.Screen,4_21_2,2023-11-01T18:08:16.218Z,,0,,,NaN,,,,,,false,,,,158447.89999997616,158447.70000004768,,158447.5,,158453.681,8,400,,,
sequence,flow.Sequence,4_21,2023-11-01T18:08:16.219Z,,0,,,5194.214000047679,completion,,,,,false,,,,158448.10000002384,158447.70000004768,153237.053,153251.10000002384,153253.486,158453.681,8,400,,,
trial,html.Screen,4_22_0,2023-11-01T18:08:20.755Z,,0,1,,4530.318999999989,response,ISIC_0024999.JPG,7,ISIC_8265105.JPG,ISIC_8265105.JPG,false,0,keypress(z),500,162984.30000007153,162984,158437.994,158448.30000007153,158453.681,162987.356,8,400,23,,ISIC_0024999.JPG
break,html.Screen,4_22_1,2023-11-01T18:08:20.756Z,,0,,,NaN,,,,,,false,,,,162985.80000007153,162985.5,,162984.60000002384,,162987.356,8,400,,,
break_continue,html.Screen,4_22_2,2023-11-01T18:08:20.757Z,,0,,,NaN,,,,,,false,,,,162986.10000002384,162985.89999997616,,162985.80000007153,,162987.356,8,400,,,
sequence,flow.Sequence,4_22,2023-11-01T18:08:20.757Z,,0,,,4532.218999976147,completion,,,,,false,,,,162986.20000004768,162985.89999997616,158437.994,158448.20000004768,158453.681,162987.356,8,400,,,
trial,html.Screen,4_23_0,2023-11-01T18:08:24.048Z,,0,1,,3289.6440000000002,response,ISIC_7759913.JPG,12,ISIC_0399220.JPG,ISIC_7759913.JPG,false,1,keypress(m),500,166277.20000004768,166277,162971.558,162986.20000004768,162987.356,166288.931,8,400,24,,ISIC_0399220.JPG
break,html.Screen,4_23_1,2023-11-01T18:08:24.049Z,,0,,,NaN,,,,,,false,,,,166278,166277.80000007153,,166277.39999997616,,166288.931,8,400,,,
break_continue,html.Screen,4_23_2,2023-11-01T18:08:24.049Z,,0,,,NaN,,,,,,false,,,,166278.20000004768,166278.10000002384,,166278,,166288.931,8,400,,,
sequence,flow.Sequence,4_23,2023-11-01T18:08:24.049Z,,0,,,3290.744000023842,completion,,,,,false,,,,166278.30000007153,166278.10000002384,162971.558,162986.20000004768,162987.356,166288.931,8,400,,,
trial,html.Screen,4_24_0,2023-11-01T18:08:26.773Z,,0,1,,2713.1690000238304,response,ISIC_0032836.JPG,13,ISIC_5247560.JPG,ISIC_5247560.JPG,false,0,keypress(z),500,169002.39999997616,169002.10000002384,166271.09,166278.30000007153,166288.931,169021.24,8,400,25,,ISIC_0032836.JPG
break,html.Screen,4_24_1,2023-11-01T18:08:26.774Z,,0,,,NaN,,,,,,false,,,,169003,169002.89999997616,,169002.60000002384,,169021.24,8,400,,,
break_continue,html.Screen,4_24_2,2023-11-01T18:08:26.774Z,,0,,,NaN,,,,,,false,,,,169003.20000004768,169003.10000002384,,169003,,169021.24,8,400,,,
sequence,flow.Sequence,4_24,2023-11-01T18:08:26.774Z,,0,,,2714.1690000238304,completion,,,,,false,,,,169003.30000007153,169003.10000002384,166271.09,166278.30000007153,166288.931,169021.24,8,400,,,
trial,html.Screen,4_25_0,2023-11-01T18:08:29.354Z,,0,1,,2561.360000023851,response,ISIC_9268487.JPG,12,ISIC_0061108.JPG,ISIC_9268487.JPG,false,1,keypress(m),500,171582.89999997616,171582.60000002384,169004.703,169003.39999997616,169021.24,171588.35,8,400,26,,ISIC_0061108.JPG
break,html.Screen,4_25_1,2023-11-01T18:08:29.354Z,,0,,,NaN,,,,,,false,,,,171583.5,171583.39999997616,,171583.10000002384,,171588.35,8,400,,,
break_continue,html.Screen,4_25_2,2023-11-01T18:08:29.354Z,,0,,,NaN,,,,,,false,,,,171583.70000004768,171583.60000002384,,171583.5,,171588.35,8,400,,,
sequence,flow.Sequence,4_25,2023-11-01T18:08:29.354Z,,0,,,2562.360000023851,completion,,,,,false,,,,171583.70000004768,171583.60000002384,169004.703,169003.30000007153,169021.24,171588.35,8,400,,,
trial,html.Screen,4_26_0,2023-11-01T18:08:32.098Z,,0,1,,2738.4500000715198,response,ISIC_5566396.JPG,9,ISIC_8462070.JPG,ISIC_5566396.JPG,false,1,keypress(m),500,174327.10000002384,174326.80000007153,171571.124,171583.80000007153,171588.35,174338.13,8,400,27,,ISIC_8462070.JPG
break,html.Screen,4_26_1,2023-11-01T18:08:32.099Z,,0,,,NaN,,,,,,false,,,,174328.30000007153,174328.10000002384,,174327.30000007153,,174338.13,8,400,,,
break_continue,html.Screen,4_26_2,2023-11-01T18:08:32.099Z,,0,,,NaN,,,,,,false,,,,174328.60000002384,174328.5,,174328.39999997616,,174338.13,8,400,,,
sequence,flow.Sequence,4_26,2023-11-01T18:08:32.099Z,,0,,,2740.149999999994,completion,,,,,false,,,,174328.60000002384,174328.5,171571.124,171583.80000007153,171588.35,174338.13,8,400,,,
trial,html.Screen,4_27_0,2023-11-01T18:08:37.286Z,,0,1,,5176.570000047679,response,ISIC_7079349.JPG,7,ISIC_3254309.JPG,ISIC_3254309.JPG,false,0,keypress(z),500,179514.89999997616,179514.70000004768,174322.218,174328.80000007153,174338.13,179522.207,8,400,28,,ISIC_7079349.JPG
break,html.Screen,4_27_1,2023-11-01T18:08:37.286Z,,0,,,NaN,,,,,,false,,,,179515.70000004768,179515.5,,179515.20000004768,,179522.207,8,400,,,
break_continue,html.Screen,4_27_2,2023-11-01T18:08:37.287Z,,0,,,NaN,,,,,,false,,,,179516,179515.89999997616,,179515.89999997616,,179522.207,8,400,,,
sequence,flow.Sequence,4_27,2023-11-01T18:08:37.287Z,,0,,,5177.7699999761535,completion,,,,,false,,,,179516.10000002384,179515.89999997616,174322.218,174328.70000004768,174338.13,179522.207,8,400,,,
trial,html.Screen,4_28_0,2023-11-01T18:08:40.718Z,,0,1,,3425.393000023847,response,ISIC_0068407.JPG,11,ISIC_0064986.JPG,ISIC_0068407.JPG,false,1,keypress(m),500,182947.80000007153,182947.60000002384,179504.428,179516.10000002384,179522.207,182955.113,8,400,29,,ISIC_0064986.JPG
break,html.Screen,4_28_1,2023-11-01T18:08:40.720Z,,0,,,NaN,,,,,,false,,,,182948.89999997616,182948.80000007153,,182948,,182955.113,8,400,,,
break_continue,html.Screen,4_28_2,2023-11-01T18:08:40.720Z,,0,,,NaN,,,,,,false,,,,182949.20000004768,182949.10000002384,,182949,,182955.113,8,400,,,
sequence,flow.Sequence,4_28,2023-11-01T18:08:40.720Z,,0,,,3426.893000023847,completion,,,,,false,,,,182949.20000004768,182949.10000002384,179504.428,179516.10000002384,179522.207,182955.113,8,400,,,
trial,html.Screen,4_29_0,2023-11-01T18:08:44.519Z,,0,1,,3793.0870000476716,response,ISIC_2555494.JPG,14,ISIC_0059891.JPG,ISIC_0059891.JPG,false,0,keypress(z),500,186748.5,186748.20000004768,182939.049,182949.30000007153,182955.113,186755.705,8,400,30,,ISIC_2555494.JPG
break,html.Screen,4_29_1,2023-11-01T18:08:44.520Z,,0,,,NaN,,,,,,false,,,,186749.60000002384,186749.39999997616,,186748.70000004768,,186755.705,8,400,,,
break_continue,html.Screen,4_29_2,2023-11-01T18:08:44.521Z,,0,,,NaN,,,,,,false,,,,186749.89999997616,186749.80000007153,,186749.80000007153,,186755.705,8,400,,,
sequence,flow.Sequence,4_29,2023-11-01T18:08:44.521Z,,0,,,3794.6870000715135,completion,,,,,false,,,,186750,186749.80000007153,182939.049,182949.30000007153,182955.113,186755.705,8,400,,,
trial,html.Screen,4_30_0,2023-11-01T18:08:48.447Z,,0,1,,3920.0950000715384,response,ISIC_0034100.JPG,13,ISIC_4720306.JPG,ISIC_4720306.JPG,false,0,keypress(z),500,190676.10000002384,190675.80000007153,186739.3,186750,186755.705,190689.294,8,400,31,,ISIC_0034100.JPG
break,html.Screen,4_30_1,2023-11-01T18:08:48.447Z,,0,,,NaN,,,,,,false,,,,190676.60000002384,190676.39999997616,,190676.20000004768,,190689.294,8,400,,,
break_continue,html.Screen,4_30_2,2023-11-01T18:08:48.447Z,,0,,,NaN,,,,,,false,,,,190676.80000007153,190676.70000004768,,190676.70000004768,,190689.294,8,400,,,
sequence,flow.Sequence,4_30,2023-11-01T18:08:48.448Z,,0,,,3920.9950000476965,completion,,,,,false,,,,190677,190676.70000004768,186739.3,186750,186755.705,190689.294,8,400,,,
trial,html.Screen,4_31_0,2023-11-01T18:08:51.000Z,,0,1,,2540.2060000000056,response,ISIC_0058199.JPG,5,ISIC_0011763.JPG,ISIC_0011763.JPG,false,0,keypress(z),500,193229.80000007153,193229.5,190671.806,190677,190689.294,193240.128,8,400,32,,ISIC_0058199.JPG
break,html.Screen,4_31_1,2023-11-01T18:08:51.002Z,,0,,,NaN,,,,,,false,,,,193231.30000007153,193230.70000004768,,193230,,193240.128,8,400,,,
break_continue,html.Screen,4_31_2,2023-11-01T18:08:51.002Z,,0,,,NaN,,,,,,false,,,,193231.5,193231.5,,193231.39999997616,,193240.128,8,400,,,
sequence,flow.Sequence,4_31,2023-11-01T18:08:51.002Z,,0,,,2542.2060000000056,completion,,,,,false,,,,193231.70000004768,193231.5,190671.806,190677,190689.294,193240.128,8,400,,,
trial,html.Screen,4_32_0,2023-11-01T18:08:53.749Z,,0,1,,2738.1720000715286,response,ISIC_2021321.JPG,13,ISIC_4620425.JPG,ISIC_4620425.JPG,false,0,keypress(z),500,195978.5,195978.30000007153,193222.733,193231.80000007153,193240.128,195989.212,8,400,33,,ISIC_2021321.JPG
break,html.Screen,4_32_1,2023-11-01T18:08:53.750Z,,0,,,NaN,,,,,,false,,,,195979.80000007153,195979.39999997616,,195979,,195989.212,8,400,,,
break_continue,html.Screen,4_32_2,2023-11-01T18:08:53.751Z,,0,,,NaN,,,,,,false,,,,195980.10000002384,195980,,195980,,195989.212,8,400,,,
sequence,flow.Sequence,4_32,2023-11-01T18:08:53.751Z,,0,,,2739.872000000003,completion,,,,,false,,,,195980.20000004768,195980,193222.733,193231.70000004768,193240.128,195989.212,8,400,,,
trial,html.Screen,4_33_0,2023-11-01T18:08:56.773Z,,0,1,,3013.1879999761586,response,ISIC_9337570.JPG,7,ISIC_3409824.JPG,ISIC_3409824.JPG,false,0,keypress(z),500,199002.60000002384,199002.39999997616,195973.37,195980.30000007153,195989.212,199006.271,8,400,34,,ISIC_9337570.JPG
break,html.Screen,4_33_1,2023-11-01T18:08:56.774Z,,0,,,NaN,,,,,,false,,,,199003.60000002384,199003.5,,199002.80000007153,,199006.271,8,400,,,
break_continue,html.Screen,4_33_2,2023-11-01T18:08:56.775Z,,0,,,NaN,,,,,,false,,,,199004.10000002384,199003.80000007153,,199003.80000007153,,199006.271,8,400,,,
sequence,flow.Sequence,4_33,2023-11-01T18:08:56.775Z,,0,,,3014.588000071526,completion,,,,,false,,,,199004.20000004768,199003.80000007153,195973.37,195980.20000004768,195989.212,199006.271,8,400,,,
trial,html.Screen,4_34_0,2023-11-01T18:08:59.725Z,,0,1,,2947.829000023834,response,ISIC_0009893.JPG,44,ISIC_4033676.JPG,ISIC_0009893.JPG,false,1,keypress(m),500,201954.30000007153,201954.10000002384,198990.247,199004.30000007153,199006.271,201973.776,8,400,35,,ISIC_4033676.JPG
break,html.Screen,4_34_1,2023-11-01T18:08:59.726Z,,0,,,NaN,,,,,,false,,,,201955,201954.80000007153,,201954.5,,201973.776,8,400,,,
break_continue,html.Screen,4_34_2,2023-11-01T18:08:59.726Z,,0,,,NaN,,,,,,false,,,,201955.20000004768,201955.10000002384,,201955.10000002384,,201973.776,8,400,,,
sequence,flow.Sequence,4_34,2023-11-01T18:08:59.727Z,,0,,,2948.829000023834,completion,,,,,false,,,,201956.30000007153,201955.10000002384,198990.247,199004.30000007153,199006.271,201973.776,8,400,,,
trial,html.Screen,4_35_0,2023-11-01T18:09:03.719Z,,0,1,,3974.424000047671,response,ISIC_0054048.JPG,10,ISIC_0024298.JPG,ISIC_0054048.JPG,false,1,keypress(m),500,205948.39999997616,205948.20000004768,201955.938,201956.39999997616,201973.776,205972.592,8,400,36,,ISIC_0024298.JPG
break,html.Screen,4_35_1,2023-11-01T18:09:03.720Z,,0,,,NaN,,,,,,false,,,,205948.80000007153,205948.70000004768,,205948.39999997616,,205972.592,8,400,,,
break_continue,html.Screen,4_35_2,2023-11-01T18:09:03.720Z,,0,,,NaN,,,,,,false,,,,205948.89999997616,205948.89999997616,,205948.80000007153,,205972.592,8,400,,,
sequence,flow.Sequence,4_35,2023-11-01T18:09:03.720Z,,0,,,3975.1239999761456,completion,,,,,false,,,,205949,205948.89999997616,201955.938,201956.39999997616,201973.776,205972.592,8,400,,,
trial,html.Screen,4_36_0,2023-11-01T18:09:06.723Z,,0,1,,2979.7080000715214,response,ISIC_7558912.JPG,6,ISIC_0063046.JPG,ISIC_7558912.JPG,false,1,keypress(m),500,208952.60000002384,208952.30000007153,205956.098,205949.10000002384,205972.592,208973.395,8,400,37,,ISIC_0063046.JPG
break,html.Screen,4_36_1,2023-11-01T18:09:06.724Z,,0,,,NaN,,,,,,false,,,,208953.39999997616,208953.20000004768,,208952.89999997616,,208973.395,8,400,,,
break_continue,html.Screen,4_36_2,2023-11-01T18:09:06.724Z,,0,,,NaN,,,,,,false,,,,208953.60000002384,208953.5,,208953.39999997616,,208973.395,8,400,,,
sequence,flow.Sequence,4_36,2023-11-01T18:09:06.725Z,,0,,,2980.907999999996,completion,,,,,false,,,,208953.80000007153,208953.5,205956.098,205949.10000002384,205972.592,208973.395,8,400,,,
trial,html.Screen,4_37_0,2023-11-01T18:09:09.433Z,,0,1,,2688.405000071536,response,ISIC_1552232.JPG,6,ISIC_3857463.JPG,ISIC_3857463.JPG,false,0,keypress(z),500,211662.10000002384,211661.80000007153,208956.26,208953.89999997616,208973.395,211673.688,8,400,38,,ISIC_1552232.JPG
break,html.Screen,4_37_1,2023-11-01T18:09:09.434Z,,0,,,NaN,,,,,,false,,,,211662.80000007153,211662.60000002384,,211662.30000007153,,211673.688,8,400,,,
break_continue,html.Screen,4_37_2,2023-11-01T18:09:09.434Z,,0,,,NaN,,,,,,false,,,,211662.89999997616,211662.89999997616,,211662.80000007153,,211673.688,8,400,,,
sequence,flow.Sequence,4_37,2023-11-01T18:09:09.434Z,,0,,,2689.5049999761686,completion,,,,,false,,,,211663.20000004768,211662.89999997616,208956.26,208953.89999997616,208973.395,211673.688,8,400,,,
trial,html.Screen,4_38_0,2023-11-01T18:09:12.127Z,,0,1,,2682.112000071531,response,ISIC_6384906.JPG,5,ISIC_0067206.JPG,ISIC_6384906.JPG,false,1,keypress(m),500,214356.20000004768,214355.80000007153,211657.341,211663.30000007153,211673.688,214373.604,8,400,39,,ISIC_0067206.JPG
break,html.Screen,4_38_1,2023-11-01T18:09:12.128Z,,0,,,NaN,,,,,,false,,,,214356.89999997616,214356.70000004768,,214356.30000007153,,214373.604,8,400,,,
break_continue,html.Screen,4_38_2,2023-11-01T18:09:12.128Z,,0,,,NaN,,,,,,false,,,,214357.39999997616,214357.10000002384,,214357,,214373.604,8,400,,,
sequence,flow.Sequence,4_38,2023-11-01T18:09:12.128Z,,0,,,2683.412000023847,completion,,,,,false,,,,214357.5,214357.10000002384,211657.341,211663.20000004768,211673.688,214373.604,8,400,,,
trial,html.Screen,4_39_0,2023-11-01T18:09:14.804Z,,0,1,,2658.795999976166,response,ISIC_6546981.JPG,9,ISIC_3948754.JPG,ISIC_6546981.JPG,false,1,keypress(m),500,217033,217032.39999997616,214356.759,214357.70000004768,214373.604,217040.06,8,400,40,,ISIC_3948754.JPG
break,html.Screen,4_39_1,2023-11-01T18:09:14.805Z,,0,,,NaN,,,,,,false,,,,217033.89999997616,217033.5,,217033.20000004768,,217040.06,8,400,,,
break_continue,html.Screen,4_39_2,2023-11-01T18:09:14.805Z,,0,,,NaN,,,,,,false,,,,217034.20000004768,217034.10000002384,,217034,,217040.06,8,400,,,
sequence,flow.Sequence,4_39,2023-11-01T18:09:14.805Z,,0,,,2660.49600002385,completion,,,,,false,,,,217034.30000007153,217034.10000002384,214356.759,214357.60000002384,214373.604,217040.06,8,400,,,
trial,html.Screen,4_40_0,2023-11-01T18:09:17.520Z,,0,1,,2708.540000023844,response,ISIC_7203184.JPG,8,ISIC_7738955.JPG,ISIC_7738955.JPG,false,0,keypress(z),500,219749.10000002384,219748.60000002384,217025.174,217034.39999997616,217040.06,219756.748,8,400,41,,ISIC_7203184.JPG
break,html.Screen,4_40_1,2023-11-01T18:09:17.521Z,,0,,,NaN,,,,,,false,,,,219750.10000002384,219749.70000004768,,219749.30000007153,,219756.748,8,400,,,
break_continue,html.Screen,4_40_2,2023-11-01T18:09:17.522Z,,0,,,NaN,,,,,,false,,,,219750.80000007153,219750.60000002384,,219750.20000004768,,219756.748,8,400,,,
sequence,flow.Sequence,4_40,2023-11-01T18:09:17.522Z,,0,,,2710.540000023844,completion,,,,,false,,,,219750.89999997616,219750.60000002384,217025.174,217034.30000007153,217040.06,219756.748,8,400,,,
trial,html.Screen,4_41_0,2023-11-01T18:09:20.297Z,,0,1,,2769.0520000715333,response,ISIC_1178518.JPG,8,ISIC_2215276.JPG,ISIC_1178518.JPG,false,1,keypress(m),500,222526,222525.80000007153,219740.672,219751.10000002384,219756.748,222541.003,8,400,42,,ISIC_2215276.JPG
break,html.Screen,4_41_1,2023-11-01T18:09:20.298Z,,0,,,NaN,,,,,,false,,,,222527.20000004768,222527.10000002384,,222526.30000007153,,222541.003,8,400,,,
break_continue,html.Screen,4_41_2,2023-11-01T18:09:20.298Z,,0,,,NaN,,,,,,false,,,,222527.60000002384,222527.5,,222527.39999997616,,222541.003,8,400,,,
sequence,flow.Sequence,4_41,2023-11-01T18:09:20.298Z,,0,,,2770.7520000000077,completion,,,,,false,,,,222527.70000004768,222527.5,219740.672,219751,219756.748,222541.003,8,400,,,
trial,html.Screen,4_42_0,2023-11-01T18:09:23.426Z,,0,1,,3113.597000023845,response,ISIC_0032426.JPG,9,ISIC_8068693.JPG,ISIC_8068693.JPG,false,0,keypress(z),500,225655,225654.60000002384,222524.344,222527.70000004768,222541.003,225657.322,8,400,43,,ISIC_0032426.JPG
break,html.Screen,4_42_1,2023-11-01T18:09:23.427Z,,0,,,NaN,,,,,,false,,,,225656,225655.89999997616,,225655.10000002384,,225657.322,8,400,,,
break_continue,html.Screen,4_42_2,2023-11-01T18:09:23.427Z,,0,,,NaN,,,,,,false,,,,225656.20000004768,225656.20000004768,,225656.10000002384,,225657.322,8,400,,,
sequence,flow.Sequence,4_42,2023-11-01T18:09:23.427Z,,0,,,3115.1970000476867,completion,,,,,false,,,,225656.30000007153,225656.20000004768,222524.344,222527.70000004768,222541.003,225657.322,8,400,,,
trial,html.Screen,4_43_0,2023-11-01T18:09:27.607Z,,0,1,,4178.878000047698,response,ISIC_0064623.JPG,12,ISIC_0033125.JPG,ISIC_0064623.JPG,false,1,keypress(m),500,229836.60000002384,229836.20000004768,225640.682,225656.39999997616,225657.322,229840.565,8,400,44,,ISIC_0033125.JPG
break,html.Screen,4_43_1,2023-11-01T18:09:27.609Z,,0,,,NaN,,,,,,false,,,,229837.60000002384,229837.30000007153,,229836.89999997616,,229840.565,8,400,,,
break_continue,html.Screen,4_43_2,2023-11-01T18:09:27.609Z,,0,,,NaN,,,,,,false,,,,229838.10000002384,229838,,229837.89999997616,,229840.565,8,400,,,
sequence,flow.Sequence,4_43,2023-11-01T18:09:27.609Z,,0,,,4180.678000000014,completion,,,,,false,,,,229838.39999997616,229838,225640.682,225656.30000007153,225657.322,229840.565,8,400,,,
trial,html.Screen,4_44_0,2023-11-01T18:09:30.722Z,,0,1,,3110.1350000476814,response,ISIC_1644520.JPG,10,ISIC_6773367.JPG,ISIC_6773367.JPG,false,0,keypress(z),500,232950.89999997616,232950.70000004768,229824.48,229838.5,229840.565,232957.705,8,400,45,,ISIC_1644520.JPG
break,html.Screen,4_44_1,2023-11-01T18:09:30.722Z,,0,,,NaN,,,,,,false,,,,232951.60000002384,232951.5,,232951.10000002384,,232957.705,8,400,,,
break_continue,html.Screen,4_44_2,2023-11-01T18:09:30.723Z,,0,,,NaN,,,,,,false,,,,232951.80000007153,232951.70000004768,,232951.70000004768,,232957.705,8,400,,,
sequence,flow.Sequence,4_44,2023-11-01T18:09:30.723Z,,0,,,3111.1350000476814,completion,,,,,false,,,,232951.89999997616,232951.70000004768,229824.48,229838.39999997616,229840.565,232957.705,8,400,,,
trial,html.Screen,4_45_0,2023-11-01T18:09:33.571Z,,0,1,,2841.0950000715384,response,ISIC_6919856.JPG,5,ISIC_7295035.JPG,ISIC_6919856.JPG,false,1,keypress(m),500,235800,235798.80000007153,232941.809,232952,232957.705,235807.805,8,400,46,,ISIC_7295035.JPG
break,html.Screen,4_45_1,2023-11-01T18:09:33.572Z,,0,,,NaN,,,,,,false,,,,235800.80000007153,235800.60000002384,,235800.20000004768,,235807.805,8,400,,,
break_continue,html.Screen,4_45_2,2023-11-01T18:09:33.572Z,,0,,,NaN,,,,,,false,,,,235801.20000004768,235801.10000002384,,235800.89999997616,,235807.805,8,400,,,
sequence,flow.Sequence,4_45,2023-11-01T18:09:33.572Z,,0,,,2843.3950000238547,completion,,,,,false,,,,235801.30000007153,235801.10000002384,232941.809,232952,232957.705,235807.805,8,400,,,
trial,html.Screen,4_46_0,2023-11-01T18:09:36.836Z,,0,1,,3257.195000000007,response,ISIC_0057858.JPG,10,ISIC_4536407.JPG,ISIC_4536407.JPG,false,0,keypress(z),500,239065.20000004768,239065,235791.47,235801.39999997616,235807.805,239076.712,8,400,47,,ISIC_0057858.JPG
break,html.Screen,4_46_1,2023-11-01T18:09:36.837Z,,0,,,NaN,,,,,,false,,,,239066.5,239066.30000007153,,239065.39999997616,,239076.712,8,400,,,
break_continue,html.Screen,4_46_2,2023-11-01T18:09:36.838Z,,0,,,NaN,,,,,,false,,,,239067,239067,,239066.89999997616,,239076.712,8,400,,,
sequence,flow.Sequence,4_46,2023-11-01T18:09:36.838Z,,0,,,3259.195000000007,completion,,,,,false,,,,239067.10000002384,239067,235791.47,235801.39999997616,235807.805,239076.712,8,400,,,
trial,html.Screen,4_47_0,2023-11-01T18:09:39.598Z,,0,1,,2749.988000047684,response,ISIC_0032615.JPG,9,ISIC_5785408.JPG,ISIC_5785408.JPG,false,0,keypress(z),500,241826.89999997616,241826.70000004768,239058.995,239067.20000004768,239076.712,241842.564,8,400,48,,ISIC_0032615.JPG
break,html.Screen,4_47_1,2023-11-01T18:09:39.599Z,,0,,,NaN,,,,,,false,,,,241827.89999997616,241827.80000007153,,241827.10000002384,,241842.564,8,400,,,
break_continue,html.Screen,4_47_2,2023-11-01T18:09:39.599Z,,0,,,NaN,,,,,,false,,,,241828.20000004768,241828.10000002384,,241828,,241842.564,8,400,,,
sequence,flow.Sequence,4_47,2023-11-01T18:09:39.599Z,,0,,,2751.3880000238423,completion,,,,,false,,,,241828.20000004768,241828.10000002384,239058.995,239067.20000004768,239076.712,241842.564,8,400,,,
trial,html.Screen,4_48_0,2023-11-01T18:09:42.659Z,,0,1,,3045.6360000476707,response,ISIC_7575246.JPG,6,ISIC_4332846.JPG,ISIC_4332846.JPG,false,0,keypress(z),500,244888.39999997616,244888.20000004768,241825.207,241828.30000007153,241842.564,244891.602,8,400,49,,ISIC_7575246.JPG
break,html.Screen,4_48_1,2023-11-01T18:09:42.660Z,,0,,,NaN,,,,,,false,,,,244889.5,244889.39999997616,,244888.60000002384,,244891.602,8,400,,,
break_continue,html.Screen,4_48_2,2023-11-01T18:09:42.661Z,,0,,,NaN,,,,,,false,,,,244889.80000007153,244889.70000004768,,244889.5,,244891.602,8,400,,,
sequence,flow.Sequence,4_48,2023-11-01T18:09:42.661Z,,0,,,3047.1360000476707,completion,,,,,false,,,,244889.89999997616,244889.70000004768,241825.207,241828.30000007153,241842.564,244891.602,8,400,,,
trial,html.Screen,4_49_0,2023-11-01T18:09:45.398Z,,0,1,,2734.8979999999865,response,ISIC_0071754.JPG,8,ISIC_0485417.JPG,ISIC_0071754.JPG,false,1,keypress(m),500,247627.10000002384,247626.5,244875.24,244889.89999997616,244891.602,247641.485,8,400,50,,ISIC_0485417.JPG
break,html.Screen,4_49_1,2023-11-01T18:09:55.398Z,,0,,,10000.665000000008,timeout,,,,,false,,,,257626.70000004768,257625.715,247625.564,247627.60000002384,247641.485,257642.15,8,400,,,
break_continue,html.Screen,4_49_2,2023-11-01T18:09:59.841Z,,0,,,4419.350000000006,response,,,,,false,continue,keypress(Space),,262076.60000002384,262061.5,257625.715,257626.89999997616,257642.15,262092.851,8,400,,,
sequence,flow.Sequence,4_49,2023-11-01T18:09:59.841Z,,0,,,17169.897999999986,completion,,,,,false,,,,262076.70000004768,262061.5,244875.24,244889.89999997616,244891.602,262092.851,8,400,,,
trial,html.Screen,4_50_0,2023-11-01T18:10:04.099Z,,0,2,,4242.249000023847,response,ISIC_4614129.JPG,9,ISIC_5623844.JPG,ISIC_4614129.JPG,false,1,keypress(m),500,266335.3000000715,266335.10000002384,262075.623,262076.80000007153,262092.851,266342.502,8,400,1,,ISIC_5623844.JPG
break,html.Screen,4_50_1,2023-11-01T18:10:04.100Z,,0,,,NaN,,,,,,false,,,,266335.8000000715,266335.60000002384,,266335.39999997616,,266342.502,8,400,,,
break_continue,html.Screen,4_50_2,2023-11-01T18:10:04.100Z,,0,,,NaN,,,,,,false,,,,266335.89999997616,266335.8000000715,,266335.8000000715,,266342.502,8,400,,,
sequence,flow.Sequence,4_50,2023-11-01T18:10:04.100Z,,0,,,4242.9490000715305,completion,,,,,false,,,,266336,266335.8000000715,262075.623,262076.70000004768,262092.851,266342.502,8,400,,,
trial,html.Screen,4_51_0,2023-11-01T18:10:06.891Z,,0,2,,2784.4980000000214,response,ISIC_7888672.JPG,8,ISIC_7365889.JPG,ISIC_7888672.JPG,false,1,keypress(m),500,269127.3000000715,269127,266325.774,266336,266342.502,269142.893,8,400,2,,ISIC_7365889.JPG
break,html.Screen,4_51_1,2023-11-01T18:10:06.893Z,,0,,,NaN,,,,,,false,,,,269128.89999997616,269128.7000000477,,269127.5,,269142.893,8,400,,,
break_continue,html.Screen,4_51_2,2023-11-01T18:10:06.893Z,,0,,,NaN,,,,,,false,,,,269129.2000000477,269129.10000002384,,269129,,269142.893,8,400,,,
sequence,flow.Sequence,4_51,2023-11-01T18:10:06.893Z,,0,,,2786.5980000238633,completion,,,,,false,,,,269129.2000000477,269129.10000002384,266325.774,266336,266342.502,269142.893,8,400,,,
trial,html.Screen,4_52_0,2023-11-01T18:10:09.688Z,,0,2,,2780.9070000715437,response,ISIC_0010372.JPG,9,ISIC_0032565.JPG,ISIC_0010372.JPG,false,1,keypress(m),500,271924.10000002384,271923.8000000715,269127.661,269129.3000000715,269142.893,271926.115,8,400,3,,ISIC_0032565.JPG
break,html.Screen,4_52_1,2023-11-01T18:10:09.689Z,,0,,,NaN,,,,,,false,,,,271925,271924.60000002384,,271924.2000000477,,271926.115,8,400,,,
break_continue,html.Screen,4_52_2,2023-11-01T18:10:09.689Z,,0,,,NaN,,,,,,false,,,,271925.3000000715,271925.2000000477,,271925.10000002384,,271926.115,8,400,,,
sequence,flow.Sequence,4_52,2023-11-01T18:10:09.690Z,,0,,,2782.307000047702,completion,,,,,false,,,,271925.39999997616,271925.2000000477,269127.661,269129.3000000715,269142.893,271926.115,8,400,,,
trial,html.Screen,4_53_0,2023-11-01T18:10:12.286Z,,0,2,,2595.985000023851,response,ISIC_0066209.JPG,10,ISIC_1957685.JPG,ISIC_0066209.JPG,false,1,keypress(m),500,274522.39999997616,274522.10000002384,271909.437,271925.5,271926.115,274526.829,8,400,4,,ISIC_1957685.JPG
break,html.Screen,4_53_1,2023-11-01T18:10:12.288Z,,0,,,NaN,,,,,,false,,,,274523.39999997616,274523.3000000715,,274522.60000002384,,274526.829,8,400,,,
break_continue,html.Screen,4_53_2,2023-11-01T18:10:12.288Z,,0,,,NaN,,,,,,false,,,,274523.8000000715,274523.60000002384,,274523.60000002384,,274526.829,8,400,,,
sequence,flow.Sequence,4_53,2023-11-01T18:10:12.288Z,,0,,,2597.485000023851,completion,,,,,false,,,,274523.8000000715,274523.60000002384,271909.437,271925.5,271926.115,274526.829,8,400,,,
trial,html.Screen,4_54_0,2023-11-01T18:10:15.221Z,,0,2,,2929.271000023815,response,ISIC_0010271.JPG,7,ISIC_0034210.JPG,ISIC_0034210.JPG,false,0,keypress(z),500,277456.39999997616,277456.10000002384,274509.482,274523.89999997616,274526.829,277460.039,8,400,5,,ISIC_0010271.JPG
break,html.Screen,4_54_1,2023-11-01T18:10:15.222Z,,0,,,NaN,,,,,,false,,,,277457.7000000477,277457.10000002384,,277456.7000000477,,277460.039,8,400,,,
break_continue,html.Screen,4_54_2,2023-11-01T18:10:15.222Z,,0,,,NaN,,,,,,false,,,,277458,277457.89999997616,,277457.8000000715,,277460.039,8,400,,,
sequence,flow.Sequence,4_54,2023-11-01T18:10:15.222Z,,0,,,2931.070999976131,completion,,,,,false,,,,277458.2000000477,277457.89999997616,274509.482,274523.89999997616,274526.829,277460.039,8,400,,,
trial,html.Screen,4_55_0,2023-11-01T18:10:17.939Z,,0,2,,2714.161000047694,response,ISIC_0623284.JPG,8,ISIC_0026266.JPG,ISIC_0623284.JPG,false,1,keypress(m),500,280174.39999997616,280174.2000000477,277443.205,277458.39999997616,277460.039,280176.78,8,400,6,,ISIC_0026266.JPG
break,html.Screen,4_55_1,2023-11-01T18:10:17.940Z,,0,,,NaN,,,,,,false,,,,280175.60000002384,280175.10000002384,,280174.60000002384,,280176.78,8,400,,,
break_continue,html.Screen,4_55_2,2023-11-01T18:10:17.940Z,,0,,,NaN,,,,,,false,,,,280175.89999997616,280175.8000000715,,280175.7000000477,,280176.78,8,400,,,
sequence,flow.Sequence,4_55,2023-11-01T18:10:17.940Z,,0,,,2715.761000071536,completion,,,,,false,,,,280176.10000002384,280175.8000000715,277443.205,277458.39999997616,277460.039,280176.78,8,400,,,
trial,html.Screen,4_56_0,2023-11-01T18:10:21.328Z,,0,2,,3386.420000047656,response,ISIC_0030423.JPG,6,ISIC_0067006.JPG,ISIC_0030423.JPG,false,1,keypress(m),500,283563.7000000477,283563.2000000477,280160.896,280176.2000000477,280176.78,283576.766,8,400,7,,ISIC_0067006.JPG
break,html.Screen,4_56_1,2023-11-01T18:10:21.329Z,,0,,,NaN,,,,,,false,,,,283564.8000000715,283564.39999997616,,283563.89999997616,,283576.766,8,400,,,
break_continue,html.Screen,4_56_2,2023-11-01T18:10:21.330Z,,0,,,NaN,,,,,,false,,,,283565.5,283565.2000000477,,283565,,283576.766,8,400,,,
sequence,flow.Sequence,4_56,2023-11-01T18:10:21.330Z,,0,,,3388.420000047656,completion,,,,,false,,,,283565.60000002384,283565.2000000477,280160.896,280176.10000002384,280176.78,283576.766,8,400,,,
trial,html.Screen,4_57_0,2023-11-01T18:10:24.025Z,,0,2,,2683.633999976155,response,ISIC_0000466.JPG,10,ISIC_7297078.JPG,ISIC_7297078.JPG,false,0,keypress(z),500,286260.7000000477,286260.39999997616,283560.435,283565.7000000477,283576.766,286276.925,8,400,8,,ISIC_0000466.JPG
break,html.Screen,4_57_1,2023-11-01T18:10:24.026Z,,0,,,NaN,,,,,,false,,,,286261.7000000477,286261.2000000477,,286261,,286276.925,8,400,,,
break_continue,html.Screen,4_57_2,2023-11-01T18:10:24.026Z,,0,,,NaN,,,,,,false,,,,286262.10000002384,286262,,286261.89999997616,,286276.925,8,400,,,
sequence,flow.Sequence,4_57,2023-11-01T18:10:24.026Z,,0,,,2685.2339999999967,completion,,,,,false,,,,286262.3000000715,286262,283560.435,283565.7000000477,283576.766,286276.925,8,400,,,
trial,html.Screen,4_58_0,2023-11-01T18:10:26.864Z,,0,2,,2822.7750000476954,response,ISIC_6993129.JPG,12,ISIC_2752919.JPG,ISIC_2752919.JPG,false,0,keypress(z),500,289100,289099.7000000477,286260.706,286262.3000000715,286276.925,289110.438,8,400,9,,ISIC_6993129.JPG
break,html.Screen,4_58_1,2023-11-01T18:10:26.865Z,,0,,,NaN,,,,,,false,,,,289101,289100.7000000477,,289100.2000000477,,289110.438,8,400,,,
break_continue,html.Screen,4_58_2,2023-11-01T18:10:26.865Z,,0,,,NaN,,,,,,false,,,,289101.39999997616,289101.2000000477,,289101.2000000477,,289110.438,8,400,,,
sequence,flow.Sequence,4_58,2023-11-01T18:10:26.866Z,,0,,,2824.2750000476954,completion,,,,,false,,,,289101.60000002384,289101.2000000477,286260.706,286262.3000000715,286276.925,289110.438,8,400,,,
trial,html.Screen,4_59_0,2023-11-01T18:10:29.365Z,,0,2,,2490.162000023818,response,ISIC_0054206.JPG,7,ISIC_5416978.JPG,ISIC_0054206.JPG,false,1,keypress(m),500,291600.89999997616,291600.60000002384,289093.893,289101.7000000477,289110.438,291610.926,8,400,10,,ISIC_5416978.JPG
break,html.Screen,4_59_1,2023-11-01T18:10:29.366Z,,0,,,NaN,,,,,,false,,,,291601.8000000715,291601.39999997616,,291601.10000002384,,291610.926,8,400,,,
break_continue,html.Screen,4_59_2,2023-11-01T18:10:29.367Z,,0,,,NaN,,,,,,false,,,,291602.39999997616,291602.2000000477,,291602.2000000477,,291610.926,8,400,,,
sequence,flow.Sequence,4_59,2023-11-01T18:10:29.367Z,,0,,,2491.76200004766,completion,,,,,false,,,,291602.7000000477,291602.2000000477,289093.893,289101.7000000477,289110.438,291610.926,8,400,,,
trial,html.Screen,4_60_0,2023-11-01T18:10:31.915Z,,0,2,,2539.674000023864,response,ISIC_0007416.JPG,8,ISIC_2902328.JPG,ISIC_0007416.JPG,false,1,keypress(m),500,294151,294150.60000002384,291593.927,291602.7000000477,291610.926,294160.597,8,400,11,,ISIC_2902328.JPG
break,html.Screen,4_60_1,2023-11-01T18:10:31.916Z,,0,,,NaN,,,,,,false,,,,294151.8000000715,294151.60000002384,,294151.10000002384,,294160.597,8,400,,,
break_continue,html.Screen,4_60_2,2023-11-01T18:10:31.916Z,,0,,,NaN,,,,,,false,,,,294152.10000002384,294152,,294151.89999997616,,294160.597,8,400,,,
sequence,flow.Sequence,4_60,2023-11-01T18:10:31.916Z,,0,,,2541.0740000000224,completion,,,,,false,,,,294152.2000000477,294152,291593.927,291602.7000000477,291610.926,294160.597,8,400,,,
trial,html.Screen,4_61_0,2023-11-01T18:10:34.464Z,,0,2,,2539.003000023833,response,ISIC_4653503.JPG,10,ISIC_0028573.JPG,ISIC_4653503.JPG,false,1,keypress(m),500,296699.7000000477,296699.60000002384,294145.355,294152.2000000477,294160.597,296711.154,8,400,12,,ISIC_0028573.JPG
break,html.Screen,4_61_1,2023-11-01T18:10:34.465Z,,0,,,NaN,,,,,,false,,,,296701.10000002384,296700.89999997616,,296700.60000002384,,296711.154,8,400,,,
break_continue,html.Screen,4_61_2,2023-11-01T18:10:34.465Z,,0,,,NaN,,,,,,false,,,,296701.3000000715,296701.3000000715,,296701.2000000477,,296711.154,8,400,,,
sequence,flow.Sequence,4_61,2023-11-01T18:10:34.466Z,,0,,,2540.7030000715167,completion,,,,,false,,,,296701.5,296701.3000000715,294145.355,294152.2000000477,294160.597,296711.154,8,400,,,
trial,html.Screen,4_62_0,2023-11-01T18:10:37.038Z,,0,2,,2562.9460000238614,response,ISIC_0010322.JPG,13,ISIC_1251639.JPG,ISIC_1251639.JPG,false,0,keypress(z),500,299274.3000000715,299274.10000002384,296694.226,296701.5,296711.154,299277.588,8,400,13,,ISIC_0010322.JPG
break,html.Screen,4_62_1,2023-11-01T18:10:37.040Z,,0,,,NaN,,,,,,false,,,,299275.39999997616,299275,,299274.8000000715,,299277.588,8,400,,,
break_continue,html.Screen,4_62_2,2023-11-01T18:10:37.040Z,,0,,,NaN,,,,,,false,,,,299275.7000000477,299275.60000002384,,299275.5,,299277.588,8,400,,,
sequence,flow.Sequence,4_62,2023-11-01T18:10:37.040Z,,0,,,2564.4460000238614,completion,,,,,false,,,,299275.89999997616,299275.60000002384,296694.226,296701.5,296711.154,299277.588,8,400,,,
trial,html.Screen,4_63_0,2023-11-01T18:10:39.796Z,,0,2,,2754.512000023853,response,ISIC_5278307.JPG,8,ISIC_0347984.JPG,ISIC_0347984.JPG,false,0,keypress(z),500,302032.3000000715,302032.10000002384,299260.883,299275.89999997616,299277.588,302044.994,8,400,14,,ISIC_5278307.JPG
break,html.Screen,4_63_1,2023-11-01T18:10:39.797Z,,0,,,NaN,,,,,,false,,,,302033,302032.8000000715,,302032.5,,302044.994,8,400,,,
break_continue,html.Screen,4_63_2,2023-11-01T18:10:39.797Z,,0,,,NaN,,,,,,false,,,,302033.2000000477,302033.10000002384,,302033,,302044.994,8,400,,,
sequence,flow.Sequence,4_63,2023-11-01T18:10:39.798Z,,0,,,2755.512000023853,completion,,,,,false,,,,302033.8000000715,302033.10000002384,299260.883,299275.89999997616,299277.588,302044.994,8,400,,,
trial,html.Screen,4_64_0,2023-11-01T18:10:42.396Z,,0,2,,2586.3060000715195,response,ISIC_3981101.JPG,13,ISIC_5204796.JPG,ISIC_3981101.JPG,false,1,keypress(m),500,304631.60000002384,304631.3000000715,302029.088,302033.89999997616,302044.994,304646.034,8,400,15,,ISIC_5204796.JPG
break,html.Screen,4_64_1,2023-11-01T18:10:42.396Z,,0,,,NaN,,,,,,false,,,,304632.3000000715,304632.2000000477,,304631.8000000715,,304646.034,8,400,,,
break_continue,html.Screen,4_64_2,2023-11-01T18:10:42.397Z,,0,,,NaN,,,,,,false,,,,304633.10000002384,304632.5,,304632.39999997616,,304646.034,8,400,,,
sequence,flow.Sequence,4_64,2023-11-01T18:10:42.397Z,,0,,,2587.505999999994,completion,,,,,false,,,,304633.2000000477,304632.5,302029.088,302033.89999997616,302044.994,304646.034,8,400,,,
trial,html.Screen,4_65_0,2023-11-01T18:10:45.047Z,,0,2,,2636.0660000238568,response,ISIC_8009880.JPG,8,ISIC_2670475.JPG,ISIC_8009880.JPG,false,1,keypress(m),500,307282.39999997616,307282.10000002384,304627.989,304633.3000000715,304646.034,307294.798,8,400,16,,ISIC_2670475.JPG
break,html.Screen,4_65_1,2023-11-01T18:10:45.048Z,,0,,,NaN,,,,,,false,,,,307283.5,307283,,307282.60000002384,,307294.798,8,400,,,
break_continue,html.Screen,4_65_2,2023-11-01T18:10:45.048Z,,0,,,NaN,,,,,,false,,,,307283.8000000715,307283.7000000477,,307283.60000002384,,307294.798,8,400,,,
sequence,flow.Sequence,4_65,2023-11-01T18:10:45.048Z,,0,,,2637.6660000476986,completion,,,,,false,,,,307283.89999997616,307283.7000000477,304627.989,304633.3000000715,304646.034,307294.798,8,400,,,
trial,html.Screen,4_66_0,2023-11-01T18:10:47.597Z,,0,2,,2537.6019999761484,response,ISIC_0070285.JPG,4,ISIC_0010108.JPG,ISIC_0010108.JPG,false,0,keypress(z),500,309832.7000000477,309832.39999997616,307277.988,307284,307294.798,309845.525,8,400,17,,ISIC_0070285.JPG
break,html.Screen,4_66_1,2023-11-01T18:10:47.598Z,,0,,,NaN,,,,,,false,,,,309834,309833.3000000715,,309832.89999997616,,309845.525,8,400,,,
break_continue,html.Screen,4_66_2,2023-11-01T18:10:47.599Z,,0,,,NaN,,,,,,false,,,,309834.39999997616,309834.2000000477,,309834.10000002384,,309845.525,8,400,,,
sequence,flow.Sequence,4_66,2023-11-01T18:10:47.599Z,,0,,,2539.402000047674,completion,,,,,false,,,,309834.5,309834.2000000477,307277.988,307283.89999997616,307294.798,309845.525,8,400,,,
trial,html.Screen,4_67_0,2023-11-01T18:10:50.544Z,,0,2,,2934.374999976135,response,ISIC_5993356.JPG,5,ISIC_0033166.JPG,ISIC_0033166.JPG,false,0,keypress(z),500,312780.2000000477,312779.89999997616,309828.939,309834.60000002384,309845.525,312795.406,8,400,18,,ISIC_5993356.JPG
break,html.Screen,4_67_1,2023-11-01T18:10:50.546Z,,0,,,NaN,,,,,,false,,,,312781.39999997616,312780.60000002384,,312780.3000000715,,312795.406,8,400,,,
break_continue,html.Screen,4_67_2,2023-11-01T18:10:50.546Z,,0,,,NaN,,,,,,false,,,,312781.8000000715,312781.7000000477,,312781.5,,312795.406,8,400,,,
sequence,flow.Sequence,4_67,2023-11-01T18:10:50.546Z,,0,,,2936.1750000476604,completion,,,,,false,,,,312781.89999997616,312781.7000000477,309828.939,309834.60000002384,309845.525,312795.406,8,400,,,
trial,html.Screen,4_68_0,2023-11-01T18:10:53.336Z,,0,2,,2776.5939999999828,response,ISIC_2569851.JPG,11,ISIC_0054705.JPG,ISIC_0054705.JPG,false,0,keypress(z),500,315572.3000000715,315572,312779.532,312781.89999997616,312795.406,315578.822,8,400,19,,ISIC_2569851.JPG
break,html.Screen,4_68_1,2023-11-01T18:10:53.337Z,,0,,,NaN,,,,,,false,,,,315572.89999997616,315572.8000000715,,315572.5,,315578.822,8,400,,,
break_continue,html.Screen,4_68_2,2023-11-01T18:10:53.337Z,,0,,,NaN,,,,,,false,,,,315573.2000000477,315573.10000002384,,315573,,315578.822,8,400,,,
sequence,flow.Sequence,4_68,2023-11-01T18:10:53.338Z,,0,,,2777.6940000238246,completion,,,,,false,,,,315574.2000000477,315573.10000002384,312779.532,312781.89999997616,312795.406,315578.822,8,400,,,
trial,html.Screen,4_69_0,2023-11-01T18:10:55.949Z,,0,2,,2605.378000047698,response,ISIC_0063181.JPG,8,ISIC_4595741.JPG,ISIC_0063181.JPG,false,1,keypress(m),500,318184.39999997616,318184.2000000477,315562.975,315574.3000000715,315578.822,318195.692,8,400,20,,ISIC_4595741.JPG
break,html.Screen,4_69_1,2023-11-01T18:10:55.949Z,,0,,,NaN,,,,,,false,,,,318185.2000000477,318185.10000002384,,318184.60000002384,,318195.692,8,400,,,
break_continue,html.Screen,4_69_2,2023-11-01T18:10:55.950Z,,0,,,NaN,,,,,,false,,,,318185.5,318185.5,,318185.39999997616,,318195.692,8,400,,,
sequence,flow.Sequence,4_69,2023-11-01T18:10:55.950Z,,0,,,2606.6780000000144,completion,,,,,false,,,,318185.7000000477,318185.5,315562.975,315574.3000000715,315578.822,318195.692,8,400,,,
trial,html.Screen,4_70_0,2023-11-01T18:11:00.249Z,,0,2,,4282.508000047703,response,ISIC_2244564.JPG,9,ISIC_0000294.JPG,ISIC_2244564.JPG,false,1,keypress(m),500,322478.5,322478.2000000477,318179.525,318185.8000000715,318195.692,322496.072,8,400,21,,ISIC_0000294.JPG
break,html.Screen,4_70_1,2023-11-01T18:11:00.249Z,,0,,,NaN,,,,,,false,,,,322479.39999997616,322479.10000002384,,322478.60000002384,,322496.072,8,400,,,
break_continue,html.Screen,4_70_2,2023-11-01T18:11:00.250Z,,0,,,NaN,,,,,,false,,,,322480,322479.7000000477,,322479.5,,322496.072,8,400,,,
sequence,flow.Sequence,4_70,2023-11-01T18:11:00.250Z,,0,,,4284.008000047703,completion,,,,,false,,,,322480.10000002384,322479.7000000477,318179.525,318185.7000000477,318195.692,322496.072,8,400,,,
trial,html.Screen,4_71_0,2023-11-01T18:11:05.119Z,,0,2,,4852.22800007154,response,ISIC_3981425.JPG,6,ISIC_0061566.JPG,ISIC_3981425.JPG,false,1,keypress(m),500,327348.5,327348.3000000715,322480.238,322480.2000000477,322496.072,327363.066,8,400,22,,ISIC_0061566.JPG
break,html.Screen,4_71_1,2023-11-01T18:11:05.120Z,,0,,,NaN,,,,,,false,,,,327349.60000002384,327349.39999997616,,327349.2000000477,,327363.066,8,400,,,
break_continue,html.Screen,4_71_2,2023-11-01T18:11:05.120Z,,0,,,NaN,,,,,,false,,,,327349.8000000715,327349.7000000477,,327349.7000000477,,327363.066,8,400,,,
sequence,flow.Sequence,4_71,2023-11-01T18:11:05.120Z,,0,,,4853.628000047698,completion,,,,,false,,,,327349.89999997616,327349.7000000477,322480.238,322480.2000000477,322496.072,327363.066,8,400,,,
trial,html.Screen,4_72_0,2023-11-01T18:11:07.927Z,,0,2,,2793.134000047692,response,ISIC_7837503.JPG,9,ISIC_2160913.JPG,ISIC_7837503.JPG,false,1,keypress(m),500,330156.60000002384,330156.2000000477,327347.497,327350,327363.066,330162.915,8,400,23,,ISIC_2160913.JPG
break,html.Screen,4_72_1,2023-11-01T18:11:07.928Z,,0,,,NaN,,,,,,false,,,,330157.7000000477,330157.3000000715,,330156.8000000715,,330162.915,8,400,,,
break_continue,html.Screen,4_72_2,2023-11-01T18:11:07.928Z,,0,,,NaN,,,,,,false,,,,330157.89999997616,330157.89999997616,,330157.8000000715,,330162.915,8,400,,,
sequence,flow.Sequence,4_72,2023-11-01T18:11:07.928Z,,0,,,2794.8339999761665,completion,,,,,false,,,,330158.10000002384,330157.89999997616,327347.497,327349.89999997616,327363.066,330162.915,8,400,,,
trial,html.Screen,4_73_0,2023-11-01T18:11:11.180Z,,0,2,,3246.484999976179,response,ISIC_2783450.JPG,9,ISIC_6609484.JPG,ISIC_2783450.JPG,false,1,keypress(m),500,333409.7000000477,333409.39999997616,330146.504,330158.5,330162.915,333429.856,8,400,24,,ISIC_6609484.JPG
break,html.Screen,4_73_1,2023-11-01T18:11:11.181Z,,0,,,NaN,,,,,,false,,,,333411,333410.3000000715,,333410,,333429.856,8,400,,,
break_continue,html.Screen,4_73_2,2023-11-01T18:11:11.181Z,,0,,,NaN,,,,,,false,,,,333411.39999997616,333411.3000000715,,333411.2000000477,,333429.856,8,400,,,
sequence,flow.Sequence,4_73,2023-11-01T18:11:11.182Z,,0,,,3248.3850000715465,completion,,,,,false,,,,333411.5,333411.3000000715,330146.504,330158.39999997616,330162.915,333429.856,8,400,,,
trial,html.Screen,4_74_0,2023-11-01T18:11:13.871Z,,0,2,,2670.5439999761293,response,ISIC_1290821.JPG,6,ISIC_2851852.JPG,ISIC_2851852.JPG,false,0,keypress(z),500,336100.89999997616,336100.39999997616,333397.146,333411.60000002384,333429.856,336113.135,8,400,25,,ISIC_1290821.JPG
break,html.Screen,4_74_1,2023-11-01T18:11:13.872Z,,0,,,NaN,,,,,,false,,,,336102.10000002384,336101.89999997616,,336101.2000000477,,336113.135,8,400,,,
break_continue,html.Screen,4_74_2,2023-11-01T18:11:13.872Z,,0,,,NaN,,,,,,false,,,,336102.39999997616,336102.2000000477,,336102.10000002384,,336113.135,8,400,,,
sequence,flow.Sequence,4_74,2023-11-01T18:11:13.873Z,,0,,,2672.344000047655,completion,,,,,false,,,,336103,336102.2000000477,333397.146,333411.5,333429.856,336113.135,8,400,,,
trial,html.Screen,4_75_0,2023-11-01T18:11:16.171Z,,0,2,,2287.1650000715163,response,ISIC_2916677.JPG,5,ISIC_9001948.JPG,ISIC_2916677.JPG,false,1,keypress(m),500,338400.7000000477,338400.3000000715,336096.523,336103.10000002384,336113.135,338413.64,8,400,26,,ISIC_9001948.JPG
break,html.Screen,4_75_1,2023-11-01T18:11:16.172Z,,0,,,NaN,,,,,,false,,,,338401.8000000715,338401.60000002384,,338401.10000002384,,338413.64,8,400,,,
break_continue,html.Screen,4_75_2,2023-11-01T18:11:16.172Z,,0,,,NaN,,,,,,false,,,,338402.2000000477,338402,,338402,,338413.64,8,400,,,
sequence,flow.Sequence,4_75,2023-11-01T18:11:16.172Z,,0,,,2288.8649999999907,completion,,,,,false,,,,338402.3000000715,338402,336096.523,336103.10000002384,336113.135,338413.64,8,400,,,
trial,html.Screen,4_76_0,2023-11-01T18:11:19.923Z,,0,2,,3737.859999999986,response,ISIC_6779421.JPG,6,ISIC_0760740.JPG,ISIC_0760740.JPG,false,0,keypress(z),500,342152.5,342151.5,338396.844,338402.39999997616,338413.64,342164.308,8,400,27,,ISIC_6779421.JPG
break,html.Screen,4_76_1,2023-11-01T18:11:19.923Z,,0,,,NaN,,,,,,false,,,,342153.2000000477,342153,,342152.8000000715,,342164.308,8,400,,,
break_continue,html.Screen,4_76_2,2023-11-01T18:11:19.924Z,,0,,,NaN,,,,,,false,,,,342153.5,342153.39999997616,,342153.3000000715,,342164.308,8,400,,,
sequence,flow.Sequence,4_76,2023-11-01T18:11:19.924Z,,0,,,3739.759999976144,completion,,,,,false,,,,342153.60000002384,342153.39999997616,338396.844,338402.3000000715,338413.64,342164.308,8,400,,,
trial,html.Screen,4_77_0,2023-11-01T18:11:22.506Z,,0,2,,2571.2920000238228,response,ISIC_6093728.JPG,10,ISIC_3558747.JPG,ISIC_6093728.JPG,false,1,keypress(m),500,344735.89999997616,344735.60000002384,342147.472,342153.60000002384,342164.308,344747.367,8,400,28,,ISIC_3558747.JPG
break,html.Screen,4_77_1,2023-11-01T18:11:22.507Z,,0,,,NaN,,,,,,false,,,,344736.60000002384,344736.5,,344736.2000000477,,344747.367,8,400,,,
break_continue,html.Screen,4_77_2,2023-11-01T18:11:22.508Z,,0,,,NaN,,,,,,false,,,,344737.39999997616,344736.8000000715,,344736.8000000715,,344747.367,8,400,,,
sequence,flow.Sequence,4_77,2023-11-01T18:11:22.508Z,,0,,,2572.4920000715065,completion,,,,,false,,,,344737.60000002384,344736.8000000715,342147.472,342153.60000002384,342164.308,344747.367,8,400,,,
trial,html.Screen,4_78_0,2023-11-01T18:11:25.152Z,,0,2,,2634.433000071498,response,ISIC_2603420.JPG,12,ISIC_0033886.JPG,ISIC_2603420.JPG,false,1,keypress(m),500,347382,347381.8000000715,344730.537,344737.7000000477,344747.367,347397.949,8,400,29,,ISIC_0033886.JPG
break,html.Screen,4_78_1,2023-11-01T18:11:25.154Z,,0,,,NaN,,,,,,false,,,,347383.60000002384,347383.39999997616,,347382.2000000477,,347397.949,8,400,,,
break_continue,html.Screen,4_78_2,2023-11-01T18:11:25.154Z,,0,,,NaN,,,,,,false,,,,347383.89999997616,347383.8000000715,,347383.7000000477,,347397.949,8,400,,,
sequence,flow.Sequence,4_78,2023-11-01T18:11:25.154Z,,0,,,2636.433000071498,completion,,,,,false,,,,347383.89999997616,347383.8000000715,344730.537,344737.7000000477,344747.367,347397.949,8,400,,,
trial,html.Screen,4_79_0,2023-11-01T18:11:28.681Z,,0,2,,3512.5509999999776,response,ISIC_9935444.JPG,9,ISIC_8172822.JPG,ISIC_9935444.JPG,false,1,keypress(m),500,350910.89999997616,350910.5,347381.239,347384.10000002384,347397.949,350913.63,8,400,30,,ISIC_8172822.JPG
break,html.Screen,4_79_1,2023-11-01T18:11:28.682Z,,0,,,NaN,,,,,,false,,,,350912.10000002384,350911.7000000477,,350911.3000000715,,350913.63,8,400,,,
break_continue,html.Screen,4_79_2,2023-11-01T18:11:28.682Z,,0,,,NaN,,,,,,false,,,,350912.39999997616,350912.39999997616,,350912.3000000715,,350913.63,8,400,,,
sequence,flow.Sequence,4_79,2023-11-01T18:11:28.683Z,,0,,,3514.450999976136,completion,,,,,false,,,,350912.60000002384,350912.39999997616,347381.239,347384.10000002384,347397.949,350913.63,8,400,,,
trial,html.Screen,4_80_0,2023-11-01T18:11:31.232Z,,0,2,,2547.570000047679,response,ISIC_1805602.JPG,11,ISIC_0031909.JPG,ISIC_1805602.JPG,false,1,keypress(m),500,353461.39999997616,353461.2000000477,350898.18,350912.60000002384,350913.63,353464.263,8,400,31,,ISIC_0031909.JPG
break,html.Screen,4_80_1,2023-11-01T18:11:31.233Z,,0,,,NaN,,,,,,false,,,,353462.60000002384,353462.39999997616,,353461.60000002384,,353464.263,8,400,,,
break_continue,html.Screen,4_80_2,2023-11-01T18:11:31.233Z,,0,,,NaN,,,,,,false,,,,353462.89999997616,353462.8000000715,,353462.7000000477,,353464.263,8,400,,,
sequence,flow.Sequence,4_80,2023-11-01T18:11:31.233Z,,0,,,2549.170000071521,completion,,,,,false,,,,353462.89999997616,353462.8000000715,350898.18,350912.60000002384,350913.63,353464.263,8,400,,,
trial,html.Screen,4_81_0,2023-11-01T18:11:33.696Z,,0,2,,2461.5370000715484,response,ISIC_0034192.JPG,6,ISIC_4973549.JPG,ISIC_4973549.JPG,false,0,keypress(z),500,355926.10000002384,355925.8000000715,353448.581,353463,353464.263,355930.888,8,400,32,,ISIC_0034192.JPG
break,html.Screen,4_81_1,2023-11-01T18:11:33.697Z,,0,,,NaN,,,,,,false,,,,355926.7000000477,355926.60000002384,,355926.3000000715,,355930.888,8,400,,,
break_continue,html.Screen,4_81_2,2023-11-01T18:11:33.697Z,,0,,,NaN,,,,,,false,,,,355927,355926.89999997616,,355926.89999997616,,355930.888,8,400,,,
sequence,flow.Sequence,4_81,2023-11-01T18:11:33.697Z,,0,,,2462.636999976181,completion,,,,,false,,,,355927.10000002384,355926.89999997616,353448.581,353463,353464.263,355930.888,8,400,,,
trial,html.Screen,4_82_0,2023-11-01T18:11:36.198Z,,0,2,,2496.8120000477065,response,ISIC_1234463.JPG,7,ISIC_0070003.JPG,ISIC_1234463.JPG,false,1,keypress(m),500,358428,358427.7000000477,355915.311,355927.2000000477,355930.888,358447.8,8,400,33,,ISIC_0070003.JPG
break,html.Screen,4_82_1,2023-11-01T18:11:36.199Z,,0,,,NaN,,,,,,false,,,,358428.60000002384,358428.39999997616,,358428.10000002384,,358447.8,8,400,,,
break_continue,html.Screen,4_82_2,2023-11-01T18:11:36.199Z,,0,,,NaN,,,,,,false,,,,358428.8000000715,358428.7000000477,,358428.60000002384,,358447.8,8,400,,,
sequence,flow.Sequence,4_82,2023-11-01T18:11:36.199Z,,0,,,2497.8120000477065,completion,,,,,false,,,,358428.89999997616,358428.7000000477,355915.311,355927.2000000477,355930.888,358447.8,8,400,,,
trial,html.Screen,4_83_0,2023-11-01T18:11:38.946Z,,0,2,,2727.4000000476954,response,ISIC_8330906.JPG,5,ISIC_8561963.JPG,ISIC_8561963.JPG,false,0,keypress(z),500,361175.7000000477,361175.2000000477,358415.444,358428.89999997616,358447.8,361180.933,8,400,34,,ISIC_8330906.JPG
break,html.Screen,4_83_1,2023-11-01T18:11:38.946Z,,0,,,NaN,,,,,,false,,,,361176.10000002384,361176,,361175.8000000715,,361180.933,8,400,,,
break_continue,html.Screen,4_83_2,2023-11-01T18:11:38.946Z,,0,,,NaN,,,,,,false,,,,361176.3000000715,361176.2000000477,,361176.10000002384,,361180.933,8,400,,,
sequence,flow.Sequence,4_83,2023-11-01T18:11:38.946Z,,0,,,2728.4000000476954,completion,,,,,false,,,,361176.3000000715,361176.2000000477,358415.444,358428.89999997616,358447.8,361180.933,8,400,,,
trial,html.Screen,4_84_0,2023-11-01T18:11:41.645Z,,0,2,,2693.6670000238228,response,ISIC_1042960.JPG,5,ISIC_5810696.JPG,ISIC_5810696.JPG,false,0,keypress(z),500,363875,363874.60000002384,361165.636,361176.39999997616,361180.933,363881.287,8,400,35,,ISIC_1042960.JPG
break,html.Screen,4_84_1,2023-11-01T18:11:41.646Z,,0,,,NaN,,,,,,false,,,,363876,363875.5,,363875.2000000477,,363881.287,8,400,,,
break_continue,html.Screen,4_84_2,2023-11-01T18:11:41.646Z,,0,,,NaN,,,,,,false,,,,363876.2000000477,363876.2000000477,,363876,,363881.287,8,400,,,
sequence,flow.Sequence,4_84,2023-11-01T18:11:41.646Z,,0,,,2695.2670000476646,completion,,,,,false,,,,363876.39999997616,363876.2000000477,361165.636,361176.3000000715,361180.933,363881.287,8,400,,,
trial,html.Screen,4_85_0,2023-11-01T18:11:44.129Z,,0,2,,2476.9130000476725,response,ISIC_0011546.JPG,5,ISIC_3296136.JPG,ISIC_0011546.JPG,false,1,keypress(m),500,366358.5,366358.2000000477,363864.468,363876.5,363881.287,366365.001,8,400,36,,ISIC_3296136.JPG
break,html.Screen,4_85_1,2023-11-01T18:11:44.130Z,,0,,,NaN,,,,,,false,,,,366359.7000000477,366359.2000000477,,366358.8000000715,,366365.001,8,400,,,
break_continue,html.Screen,4_85_2,2023-11-01T18:11:44.130Z,,0,,,NaN,,,,,,false,,,,366360,366360,,366359.8000000715,,366365.001,8,400,,,
sequence,flow.Sequence,4_85,2023-11-01T18:11:44.130Z,,0,,,2478.712999999989,completion,,,,,false,,,,366360.2000000477,366360,363864.468,363876.5,363881.287,366365.001,8,400,,,
trial,html.Screen,4_86_0,2023-11-01T18:11:46.697Z,,0,2,,2561.9990000000107,response,ISIC_8749288.JPG,14,ISIC_7271718.JPG,ISIC_8749288.JPG,false,1,keypress(m),500,368927.39999997616,368927,366348.545,366360.2000000477,366365.001,368931.267,8,400,37,,ISIC_7271718.JPG
break,html.Screen,4_86_1,2023-11-01T18:11:46.698Z,,0,,,NaN,,,,,,false,,,,368928.5,368927.89999997616,,368927.5,,368931.267,8,400,,,
break_continue,html.Screen,4_86_2,2023-11-01T18:11:46.699Z,,0,,,NaN,,,,,,false,,,,368928.89999997616,368928.8000000715,,368928.60000002384,,368931.267,8,400,,,
sequence,flow.Sequence,4_86,2023-11-01T18:11:46.699Z,,0,,,2563.7990000715363,completion,,,,,false,,,,368929.2000000477,368928.8000000715,366348.545,366360.2000000477,366365.001,368931.267,8,400,,,
trial,html.Screen,4_87_0,2023-11-01T18:11:49.457Z,,0,2,,2755.6329999761656,response,ISIC_0010592.JPG,12,ISIC_0026188.JPG,ISIC_0010592.JPG,false,1,keypress(m),500,371687.39999997616,371686.89999997616,368916.346,368929.3000000715,368931.267,371698.442,8,400,38,,ISIC_0026188.JPG
break,html.Screen,4_87_1,2023-11-01T18:11:49.459Z,,0,,,NaN,,,,,,false,,,,371688.7000000477,371688.10000002384,,371687.60000002384,,371698.442,8,400,,,
break_continue,html.Screen,4_87_2,2023-11-01T18:11:49.459Z,,0,,,NaN,,,,,,false,,,,371689.10000002384,371689,,371688.8000000715,,371698.442,8,400,,,
sequence,flow.Sequence,4_87,2023-11-01T18:11:49.459Z,,0,,,2757.7330000000075,completion,,,,,false,,,,371689.2000000477,371689,368916.346,368929.3000000715,368931.267,371698.442,8,400,,,
trial,html.Screen,4_88_0,2023-11-01T18:11:52.647Z,,0,2,,3177.558000000019,response,ISIC_0061915.JPG,10,ISIC_2050512.JPG,ISIC_2050512.JPG,false,0,keypress(z),500,374877,374876,371681.506,371689.3000000715,371698.442,374882.206,8,400,39,,ISIC_0061915.JPG
break,html.Screen,4_88_1,2023-11-01T18:11:52.648Z,,0,,,NaN,,,,,,false,,,,374878.2000000477,374877.89999997616,,374877.10000002384,,374882.206,8,400,,,
break_continue,html.Screen,4_88_2,2023-11-01T18:11:52.649Z,,0,,,NaN,,,,,,false,,,,374878.5,374878.39999997616,,374878.3000000715,,374882.206,8,400,,,
sequence,flow.Sequence,4_88,2023-11-01T18:11:52.649Z,,0,,,3179.9579999761772,completion,,,,,false,,,,374878.60000002384,374878.39999997616,371681.506,371689.3000000715,371698.442,374882.206,8,400,,,
trial,html.Screen,4_89_0,2023-11-01T18:12:01.100Z,,0,2,,8446.293999999994,response,ISIC_6767569.JPG,5,ISIC_3305055.JPG,ISIC_6767569.JPG,false,1,keypress(m),500,383328.8000000715,383328.5,374865.766,374878.60000002384,374882.206,383350.052,8,400,40,,ISIC_3305055.JPG
break,html.Screen,4_89_1,2023-11-01T18:12:01.101Z,,0,,,NaN,,,,,,false,,,,383329.8000000715,383329.60000002384,,383329,,383350.052,8,400,,,
break_continue,html.Screen,4_89_2,2023-11-01T18:12:01.101Z,,0,,,NaN,,,,,,false,,,,383330.10000002384,383330,,383329.89999997616,,383350.052,8,400,,,
sequence,flow.Sequence,4_89,2023-11-01T18:12:01.101Z,,0,,,8447.793999999994,completion,,,,,false,,,,383330.10000002384,383330,374865.766,374878.60000002384,374882.206,383350.052,8,400,,,
trial,html.Screen,4_90_0,2023-11-01T18:12:03.673Z,,0,2,,2551.447999999975,response,ISIC_4345000.JPG,12,ISIC_1300967.JPG,ISIC_1300967.JPG,false,0,keypress(z),500,385901.8000000715,385901.5,383332.29,383330.2000000477,383350.052,385916.054,8,400,41,,ISIC_4345000.JPG
break,html.Screen,4_90_1,2023-11-01T18:12:03.674Z,,0,,,NaN,,,,,,false,,,,385902.8000000715,385902.39999997616,,385902,,385916.054,8,400,,,
break_continue,html.Screen,4_90_2,2023-11-01T18:12:03.674Z,,0,,,NaN,,,,,,false,,,,385903,385902.89999997616,,385902.8000000715,,385916.054,8,400,,,
sequence,flow.Sequence,4_90,2023-11-01T18:12:03.674Z,,0,,,2552.847999976133,completion,,,,,false,,,,385903.2000000477,385902.89999997616,383332.29,383330.2000000477,383350.052,385916.054,8,400,,,
trial,html.Screen,4_91_0,2023-11-01T18:12:06.370Z,,0,2,,2683.046000023838,response,ISIC_1436929.JPG,8,ISIC_0061359.JPG,ISIC_1436929.JPG,false,1,keypress(m),500,388599.60000002384,388599.10000002384,385899.329,385903.2000000477,385916.054,388615.873,8,400,42,,ISIC_0061359.JPG
break,html.Screen,4_91_1,2023-11-01T18:12:06.372Z,,0,,,NaN,,,,,,false,,,,388600.7000000477,388600.2000000477,,388599.8000000715,,388615.873,8,400,,,
break_continue,html.Screen,4_91_2,2023-11-01T18:12:06.372Z,,0,,,NaN,,,,,,false,,,,388601.10000002384,388601,,388600.89999997616,,388615.873,8,400,,,
sequence,flow.Sequence,4_91,2023-11-01T18:12:06.372Z,,0,,,2684.9459999999963,completion,,,,,false,,,,388601.3000000715,388601,385899.329,385903.2000000477,385916.054,388615.873,8,400,,,
trial,html.Screen,4_92_0,2023-11-01T18:12:09.173Z,,0,2,,2786.427000071504,response,ISIC_0014319.JPG,9,ISIC_2928274.JPG,ISIC_0014319.JPG,false,1,keypress(m),500,391402.60000002384,391402.3000000715,388599.888,388601.3000000715,388615.873,391417.399,8,400,43,,ISIC_2928274.JPG
break,html.Screen,4_92_1,2023-11-01T18:12:09.175Z,,0,,,NaN,,,,,,false,,,,391403.7000000477,391403.60000002384,,391403.3000000715,,391417.399,8,400,,,
break_continue,html.Screen,4_92_2,2023-11-01T18:12:09.175Z,,0,,,NaN,,,,,,false,,,,391404,391403.89999997616,,391403.8000000715,,391417.399,8,400,,,
sequence,flow.Sequence,4_92,2023-11-01T18:12:09.175Z,,0,,,2788.0269999761367,completion,,,,,false,,,,391404.10000002384,391403.89999997616,388599.888,388601.3000000715,388615.873,391417.399,8,400,,,
trial,html.Screen,4_93_0,2023-11-01T18:12:11.648Z,,0,2,,2460.0009999761824,response,ISIC_3392433.JPG,11,ISIC_0024313.JPG,ISIC_3392433.JPG,false,1,keypress(m),500,393877.60000002384,393877.39999997616,391399.527,391404.10000002384,391417.399,393882.868,8,400,44,,ISIC_0024313.JPG
break,html.Screen,4_93_1,2023-11-01T18:12:11.649Z,,0,,,NaN,,,,,,false,,,,393878.3000000715,393878.10000002384,,393877.8000000715,,393882.868,8,400,,,
break_continue,html.Screen,4_93_2,2023-11-01T18:12:11.649Z,,0,,,NaN,,,,,,false,,,,393878.60000002384,393878.5,,393878.39999997616,,393882.868,8,400,,,
sequence,flow.Sequence,4_93,2023-11-01T18:12:11.649Z,,0,,,2461.101000000024,completion,,,,,false,,,,393878.7000000477,393878.5,391399.527,391404.10000002384,391417.399,393882.868,8,400,,,
trial,html.Screen,4_94_0,2023-11-01T18:12:14.153Z,,0,2,,2499.432000071509,response,ISIC_0026086.JPG,11,ISIC_6912233.JPG,ISIC_6912233.JPG,false,0,keypress(z),500,396382.7000000477,396382.3000000715,393866.888,393878.8000000715,393882.868,396399.443,8,400,45,,ISIC_0026086.JPG
break,html.Screen,4_94_1,2023-11-01T18:12:14.154Z,,0,,,NaN,,,,,,false,,,,396383.7000000477,396383.3000000715,,396382.89999997616,,396399.443,8,400,,,
break_continue,html.Screen,4_94_2,2023-11-01T18:12:14.155Z,,0,,,NaN,,,,,,false,,,,396384.2000000477,396384.2000000477,,396383.89999997616,,396399.443,8,400,,,
sequence,flow.Sequence,4_94,2023-11-01T18:12:14.155Z,,0,,,2501.332000047667,completion,,,,,false,,,,396384.39999997616,396384.2000000477,393866.888,393878.7000000477,393882.868,396399.443,8,400,,,
trial,html.Screen,4_95_0,2023-11-01T18:12:16.625Z,,0,2,,2454.4569999761297,response,ISIC_1132496.JPG,10,ISIC_0148751.JPG,ISIC_1132496.JPG,false,1,keypress(m),500,398854.60000002384,398853.89999997616,396383.326,396384.5,396399.443,398866.751,8,400,46,,ISIC_0148751.JPG
break,html.Screen,4_95_1,2023-11-01T18:12:16.627Z,,0,,,NaN,,,,,,false,,,,398856.5,398855.8000000715,,398854.89999997616,,398866.751,8,400,,,
break_continue,html.Screen,4_95_2,2023-11-01T18:12:16.628Z,,0,,,NaN,,,,,,false,,,,398856.89999997616,398856.8000000715,,398856.7000000477,,398866.751,8,400,,,
sequence,flow.Sequence,4_95,2023-11-01T18:12:16.628Z,,0,,,2457.357000071497,completion,,,,,false,,,,398857,398856.8000000715,396383.326,396384.5,396399.443,398866.751,8,400,,,
trial,html.Screen,4_96_0,2023-11-01T18:12:19.354Z,,0,2,,2716.0490000715363,response,ISIC_0010321.JPG,13,ISIC_7814144.JPG,ISIC_7814144.JPG,false,0,keypress(z),500,401583.60000002384,401582.8000000715,398850.087,398857.10000002384,398866.751,401600.264,8,400,47,,ISIC_0010321.JPG
break,html.Screen,4_96_1,2023-11-01T18:12:19.356Z,,0,,,NaN,,,,,,false,,,,401585,401584.89999997616,,401583.7000000477,,401600.264,8,400,,,
break_continue,html.Screen,4_96_2,2023-11-01T18:12:19.356Z,,0,,,NaN,,,,,,false,,,,401585.2000000477,401585.2000000477,,401585.10000002384,,401600.264,8,400,,,
sequence,flow.Sequence,4_96,2023-11-01T18:12:19.356Z,,0,,,2718.4490000476944,completion,,,,,false,,,,401585.3000000715,401585.2000000477,398850.087,398857.10000002384,398866.751,401600.264,8,400,,,
trial,html.Screen,4_97_0,2023-11-01T18:12:22.045Z,,0,2,,2673.836000023817,response,ISIC_6685532.JPG,12,ISIC_0010551.JPG,ISIC_6685532.JPG,false,1,keypress(m),500,404274.3000000715,404274.10000002384,401583.71,401585.39999997616,401600.264,404283.877,8,400,48,,ISIC_0010551.JPG
break,html.Screen,4_97_1,2023-11-01T18:12:22.046Z,,0,,,NaN,,,,,,false,,,,404275.3000000715,404274.89999997616,,404274.5,,404283.877,8,400,,,
break_continue,html.Screen,4_97_2,2023-11-01T18:12:22.046Z,,0,,,NaN,,,,,,false,,,,404275.60000002384,404275.5,,404275.3000000715,,404283.877,8,400,,,
sequence,flow.Sequence,4_97,2023-11-01T18:12:22.046Z,,0,,,2675.2359999999753,completion,,,,,false,,,,404275.60000002384,404275.5,401583.71,401585.39999997616,401600.264,404283.877,8,400,,,
trial,html.Screen,4_98_0,2023-11-01T18:12:25.077Z,,0,2,,3021.823000047705,response,ISIC_0063234.JPG,7,ISIC_1076091.JPG,ISIC_1076091.JPG,false,0,keypress(z),500,407306,407305.7000000477,404267.422,404275.8000000715,404283.877,407317.954,8,400,49,,ISIC_0063234.JPG
break,html.Screen,4_98_1,2023-11-01T18:12:25.080Z,,0,,,NaN,,,,,,false,,,,407308.8000000715,407307.60000002384,,407306.3000000715,,407317.954,8,400,,,
break_continue,html.Screen,4_98_2,2023-11-01T18:12:25.080Z,,0,,,NaN,,,,,,false,,,,407309.10000002384,407309,,407308.89999997616,,407317.954,8,400,,,
sequence,flow.Sequence,4_98,2023-11-01T18:12:25.080Z,,0,,,3025.1230000000214,completion,,,,,false,,,,407309.2000000477,407309,404267.422,404275.7000000477,404283.877,407317.954,8,400,,,
trial,html.Screen,4_99_0,2023-11-01T18:12:28.196Z,,0,2,,3107.045999999973,response,ISIC_2808622.JPG,8,ISIC_5641619.JPG,ISIC_5641619.JPG,false,0,keypress(z),500,410425.39999997616,410425,407300.501,407309.39999997616,407317.954,410434.027,8,400,50,,ISIC_2808622.JPG
break,html.Screen,4_99_1,2023-11-01T18:12:38.190Z,,0,,,10000.674999999988,timeout,,,,,false,,,,420419.3000000715,420417.596,410417.485,410425.7000000477,410434.027,420434.702,8,400,,,
break_continue,html.Screen,4_99_2,2023-11-01T18:12:44.022Z,,0,,,5791.9980000476935,response,,,,,false,continue,keypress(Space),,426250.89999997616,426226.7000000477,420417.596,420419.39999997616,420434.702,426267.626,8,400,,,
sequence,flow.Sequence,4_99,2023-11-01T18:12:44.022Z,,0,,,18908.746000047657,completion,,,,,false,,,,426251.3000000715,426226.7000000477,407300.501,407309.39999997616,407317.954,426267.626,8,400,,,
trial,html.Screen,4_100_0,2023-11-01T18:12:47.744Z,,0,3,,3705.5740000476944,response,ISIC_0026428.JPG,12,ISIC_0066149.JPG,ISIC_0066149.JPG,false,0,keypress(z),500,429973.5,429973.2000000477,426251.21,426251.3000000715,426267.626,429987.218,8,400,1,,ISIC_0026428.JPG
break,html.Screen,4_100_1,2023-11-01T18:12:47.745Z,,0,,,NaN,,,,,,false,,,,429974.3000000715,429974,,429973.7000000477,,429987.218,8,400,,,
break_continue,html.Screen,4_100_2,2023-11-01T18:12:47.745Z,,0,,,NaN,,,,,,false,,,,429974.5,429974.39999997616,,429974.3000000715,,429987.218,8,400,,,
sequence,flow.Sequence,4_100,2023-11-01T18:12:47.747Z,,0,,,3706.773999976169,completion,,,,,false,,,,429976,429974.39999997616,426251.21,426251.3000000715,426267.626,429987.218,8,400,,,
trial,html.Screen,4_101_0,2023-11-01T18:12:50.230Z,,0,3,,2472.082000071532,response,ISIC_8732757.JPG,5,ISIC_0026699.JPG,ISIC_8732757.JPG,false,1,keypress(m),500,432459.60000002384,432459.3000000715,429967.939,429976,429987.218,432470.268,8,400,2,,ISIC_0026699.JPG
break,html.Screen,4_101_1,2023-11-01T18:12:50.232Z,,0,,,NaN,,,,,,false,,,,432461.10000002384,432460.89999997616,,432459.89999997616,,432470.268,8,400,,,
break_continue,html.Screen,4_101_2,2023-11-01T18:12:50.232Z,,0,,,NaN,,,,,,false,,,,432461.39999997616,432461.3000000715,,432461.2000000477,,432470.268,8,400,,,
sequence,flow.Sequence,4_101,2023-11-01T18:12:50.232Z,,0,,,2474.082000071532,completion,,,,,false,,,,432461.5,432461.3000000715,429967.939,429976,429987.218,432470.268,8,400,,,
trial,html.Screen,4_102_0,2023-11-01T18:12:52.772Z,,0,3,,2530.6319999761763,response,ISIC_2089231.JPG,10,ISIC_9989485.JPG,ISIC_9989485.JPG,false,0,keypress(z),500,435001.10000002384,435000.89999997616,432451.462,432461.60000002384,432470.268,435018.4,8,400,3,,ISIC_2089231.JPG
break,html.Screen,4_102_1,2023-11-01T18:12:52.773Z,,0,,,NaN,,,,,,false,,,,435002.3000000715,435002.2000000477,,435001.39999997616,,435018.4,8,400,,,
break_continue,html.Screen,4_102_2,2023-11-01T18:12:52.773Z,,0,,,NaN,,,,,,false,,,,435002.60000002384,435002.5,,435002.39999997616,,435018.4,8,400,,,
sequence,flow.Sequence,4_102,2023-11-01T18:12:52.773Z,,0,,,2532.232000000018,completion,,,,,false,,,,435002.7000000477,435002.5,432451.462,432461.60000002384,432470.268,435018.4,8,400,,,
trial,html.Screen,4_103_0,2023-11-01T18:12:55.467Z,,0,3,,2677.499999976135,response,ISIC_3494219.JPG,11,ISIC_0008864.JPG,ISIC_3494219.JPG,false,1,keypress(m),500,437696.10000002384,437695.89999997616,435002.436,435002.8000000715,435018.4,437701.835,8,400,4,,ISIC_0008864.JPG
break,html.Screen,4_103_1,2023-11-01T18:12:55.468Z,,0,,,NaN,,,,,,false,,,,437696.7000000477,437696.7000000477,,437696.3000000715,,437701.835,8,400,,,
break_continue,html.Screen,4_103_2,2023-11-01T18:12:55.468Z,,0,,,NaN,,,,,,false,,,,437697,437697,,437696.89999997616,,437701.835,8,400,,,
sequence,flow.Sequence,4_103,2023-11-01T18:12:55.468Z,,0,,,2678.5999999999767,completion,,,,,false,,,,437697.10000002384,437697,435002.436,435002.8000000715,435018.4,437701.835,8,400,,,
trial,html.Screen,4_104_0,2023-11-01T18:12:58.020Z,,0,3,,2546.9650000715046,response,ISIC_0510774.JPG,7,ISIC_0026020.JPG,ISIC_0510774.JPG,false,1,keypress(m),500,440249.2000000477,440248.8000000715,437685.923,437697.2000000477,437701.835,440251.962,8,400,5,,ISIC_0026020.JPG
break,html.Screen,4_104_1,2023-11-01T18:12:58.021Z,,0,,,NaN,,,,,,false,,,,440250.39999997616,440250.2000000477,,440249.3000000715,,440251.962,8,400,,,
break_continue,html.Screen,4_104_2,2023-11-01T18:12:58.021Z,,0,,,NaN,,,,,,false,,,,440250.7000000477,440250.5,,440250.39999997616,,440251.962,8,400,,,
sequence,flow.Sequence,4_104,2023-11-01T18:12:58.022Z,,0,,,2548.664999999979,completion,,,,,false,,,,440250.7000000477,440250.5,437685.923,437697.2000000477,437701.835,440251.962,8,400,,,
trial,html.Screen,4_105_0,2023-11-01T18:13:00.746Z,,0,3,,2722.838000071526,response,ISIC_2094429.JPG,8,ISIC_0058331.JPG,ISIC_2094429.JPG,false,1,keypress(m),500,442975,442974.8000000715,440235.483,440250.89999997616,440251.962,442990.548,8,400,6,,ISIC_0058331.JPG
break,html.Screen,4_105_1,2023-11-01T18:13:00.747Z,,0,,,NaN,,,,,,false,,,,442976.10000002384,442975.89999997616,,442975.2000000477,,442990.548,8,400,,,
break_continue,html.Screen,4_105_2,2023-11-01T18:13:00.747Z,,0,,,NaN,,,,,,false,,,,442976.3000000715,442976.2000000477,,442976.10000002384,,442990.548,8,400,,,
sequence,flow.Sequence,4_105,2023-11-01T18:13:00.747Z,,0,,,2724.238000047684,completion,,,,,false,,,,442976.3000000715,442976.2000000477,440235.483,440250.8000000715,440251.962,442990.548,8,400,,,
trial,html.Screen,4_106_0,2023-11-01T18:13:03.374Z,,0,3,,2612.8519999761484,response,ISIC_0046449.JPG,11,ISIC_7498132.JPG,ISIC_7498132.JPG,false,0,keypress(z),500,445603.7000000477,445603.39999997616,442968.73,442976.5,442990.548,445620.467,8,400,7,,ISIC_0046449.JPG
break,html.Screen,4_106_1,2023-11-01T18:13:03.376Z,,0,,,NaN,,,,,,false,,,,445604.8000000715,445604.60000002384,,445603.89999997616,,445620.467,8,400,,,
break_continue,html.Screen,4_106_2,2023-11-01T18:13:03.376Z,,0,,,NaN,,,,,,false,,,,445605.10000002384,445604.89999997616,,445604.8000000715,,445620.467,8,400,,,
sequence,flow.Sequence,4_106,2023-11-01T18:13:03.376Z,,0,,,2614.3519999761484,completion,,,,,false,,,,445605.10000002384,445604.89999997616,442968.73,442976.5,442990.548,445620.467,8,400,,,
trial,html.Screen,4_107_0,2023-11-01T18:13:06.230Z,,0,3,,2838.432999976154,response,ISIC_0030336.JPG,10,ISIC_3750329.JPG,ISIC_0030336.JPG,false,1,keypress(m),500,448459.2000000477,448458.89999997616,445602.583,445605.3000000715,445620.467,448469.949,8,400,8,,ISIC_3750329.JPG
break,html.Screen,4_107_1,2023-11-01T18:13:06.231Z,,0,,,NaN,,,,,,false,,,,448460.39999997616,448460.2000000477,,448459.39999997616,,448469.949,8,400,,,
break_continue,html.Screen,4_107_2,2023-11-01T18:13:06.232Z,,0,,,NaN,,,,,,false,,,,448460.7000000477,448460.7000000477,,448460.60000002384,,448469.949,8,400,,,
sequence,flow.Sequence,4_107,2023-11-01T18:13:06.232Z,,0,,,2840.2330000476795,completion,,,,,false,,,,448460.8000000715,448460.7000000477,445602.583,445605.3000000715,445620.467,448469.949,8,400,,,
trial,html.Screen,4_108_0,2023-11-01T18:13:12.059Z,,0,3,,5818.351000071503,response,ISIC_6475049.JPG,5,ISIC_7575246.JPG,ISIC_7575246.JPG,false,0,keypress(z),500,454288.39999997616,454288.3000000715,448452.3,448460.89999997616,448469.949,454302.661,8,400,9,,ISIC_6475049.JPG
break,html.Screen,4_108_1,2023-11-01T18:13:12.060Z,,0,,,NaN,,,,,,false,,,,454289.10000002384,454288.8000000715,,454288.60000002384,,454302.661,8,400,,,
break_continue,html.Screen,4_108_2,2023-11-01T18:13:12.060Z,,0,,,NaN,,,,,,false,,,,454289.2000000477,454289.10000002384,,454289.10000002384,,454302.661,8,400,,,
sequence,flow.Sequence,4_108,2023-11-01T18:13:12.060Z,,0,,,5819.1510000238195,completion,,,,,false,,,,454289.3000000715,454289.10000002384,448452.3,448460.89999997616,448469.949,454302.661,8,400,,,
trial,html.Screen,4_109_0,2023-11-01T18:13:19.151Z,,0,3,,7077.639000071504,response,ISIC_8730617.JPG,13,ISIC_9626241.JPG,ISIC_8730617.JPG,false,1,keypress(m),500,461380.5,461380.3000000715,454286.583,454289.39999997616,454302.661,461386.172,8,400,10,,ISIC_9626241.JPG
break,html.Screen,4_109_1,2023-11-01T18:13:19.152Z,,0,,,NaN,,,,,,false,,,,461381,461380.89999997616,,461380.7000000477,,461386.172,8,400,,,
break_continue,html.Screen,4_109_2,2023-11-01T18:13:19.152Z,,0,,,NaN,,,,,,false,,,,461381.2000000477,461381.2000000477,,461381.10000002384,,461386.172,8,400,,,
sequence,flow.Sequence,4_109,2023-11-01T18:13:19.152Z,,0,,,7078.539000047662,completion,,,,,false,,,,461381.3000000715,461381.2000000477,454286.583,454289.3000000715,454302.661,461386.172,8,400,,,
trial,html.Screen,4_110_0,2023-11-01T18:13:21.684Z,,0,3,,2526.2279999761377,response,ISIC_0029732.JPG,11,ISIC_0011517.JPG,ISIC_0011517.JPG,false,0,keypress(z),500,463912.7000000477,463912.39999997616,461370.323,461381.39999997616,461386.172,463920.345,8,400,11,,ISIC_0029732.JPG
break,html.Screen,4_110_1,2023-11-01T18:13:21.686Z,,0,,,NaN,,,,,,false,,,,463915,463914.89999997616,,463914.10000002384,,463920.345,8,400,,,
break_continue,html.Screen,4_110_2,2023-11-01T18:13:21.686Z,,0,,,NaN,,,,,,false,,,,463915.3000000715,463915.2000000477,,463915.10000002384,,463920.345,8,400,,,
sequence,flow.Sequence,4_110,2023-11-01T18:13:21.686Z,,0,,,2529.028000047663,completion,,,,,false,,,,463915.39999997616,463915.2000000477,461370.323,461381.39999997616,461386.172,463920.345,8,400,,,
trial,html.Screen,4_111_0,2023-11-01T18:13:24.475Z,,0,3,,2783.554999976186,response,ISIC_0226072.JPG,5,ISIC_0031363.JPG,ISIC_0226072.JPG,false,1,keypress(m),500,466704.2000000477,466703.89999997616,463903.461,463915.5,463920.345,466720.315,8,400,12,,ISIC_0031363.JPG
break,html.Screen,4_111_1,2023-11-01T18:13:24.476Z,,0,,,NaN,,,,,,false,,,,466705,466704.8000000715,,466704.5,,466720.315,8,400,,,
break_continue,html.Screen,4_111_2,2023-11-01T18:13:24.476Z,,0,,,NaN,,,,,,false,,,,466705.3000000715,466705.10000002384,,466705,,466720.315,8,400,,,
sequence,flow.Sequence,4_111,2023-11-01T18:13:24.476Z,,0,,,2784.75500002387,completion,,,,,false,,,,466705.39999997616,466705.10000002384,463903.461,463915.5,463920.345,466720.315,8,400,,,
trial,html.Screen,4_112_0,2023-11-01T18:13:27.073Z,,0,3,,2581.9850000715232,response,ISIC_1838888.JPG,6,ISIC_0059601.JPG,ISIC_1838888.JPG,false,1,keypress(m),500,469302.60000002384,469302.3000000715,466703.808,466705.5,466720.315,469320.917,8,400,13,,ISIC_0059601.JPG
break,html.Screen,4_112_1,2023-11-01T18:13:27.075Z,,0,,,NaN,,,,,,false,,,,469304.60000002384,469304.3000000715,,469302.89999997616,,469320.917,8,400,,,
break_continue,html.Screen,4_112_2,2023-11-01T18:13:27.076Z,,0,,,NaN,,,,,,false,,,,469304.89999997616,469304.8000000715,,469304.7000000477,,469320.917,8,400,,,
sequence,flow.Sequence,4_112,2023-11-01T18:13:27.076Z,,0,,,2584.4850000715232,completion,,,,,false,,,,469305,469304.8000000715,466703.808,466705.39999997616,466720.315,469320.917,8,400,,,
trial,html.Screen,4_113_0,2023-11-01T18:13:29.723Z,,0,3,,2630.582999999984,response,ISIC_0012904.JPG,11,ISIC_2721699.JPG,ISIC_2721699.JPG,false,0,keypress(z),500,471951.8000000715,471951.5,469287.328,469305.10000002384,469320.917,471975.709,8,400,14,,ISIC_0012904.JPG
break,html.Screen,4_113_1,2023-11-01T18:13:29.724Z,,0,,,NaN,,,,,,false,,,,471952.8000000715,471952.39999997616,,471952,,471975.709,8,400,,,
break_continue,html.Screen,4_113_2,2023-11-01T18:13:29.724Z,,0,,,NaN,,,,,,false,,,,471953.10000002384,471953,,471953,,471975.709,8,400,,,
sequence,flow.Sequence,4_113,2023-11-01T18:13:29.724Z,,0,,,2632.082999999984,completion,,,,,false,,,,471953.3000000715,471953,469287.328,469305,469320.917,471975.709,8,400,,,
trial,html.Screen,4_114_0,2023-11-01T18:13:32.420Z,,0,3,,2673.091000071552,response,ISIC_0013672.JPG,2,ISIC_5714411.JPG,ISIC_0013672.JPG,false,1,keypress(m),500,474649.10000002384,474648.8000000715,471936.705,471953.39999997616,471975.709,474653.784,8,400,15,,ISIC_5714411.JPG
break,html.Screen,4_114_1,2023-11-01T18:13:32.421Z,,0,,,NaN,,,,,,false,,,,474649.7000000477,474649.5,,474649.2000000477,,474653.784,8,400,,,
break_continue,html.Screen,4_114_2,2023-11-01T18:13:32.421Z,,0,,,NaN,,,,,,false,,,,474649.89999997616,474649.89999997616,,474649.8000000715,,474653.784,8,400,,,
sequence,flow.Sequence,4_114,2023-11-01T18:13:32.421Z,,0,,,2674.1909999761847,completion,,,,,false,,,,474650.10000002384,474649.89999997616,471936.705,471953.39999997616,471975.709,474653.784,8,400,,,
trial,html.Screen,4_115_0,2023-11-01T18:13:34.988Z,,0,3,,2562.5160000715405,response,ISIC_0014936.JPG,9,ISIC_0032426.JPG,ISIC_0014936.JPG,false,1,keypress(m),500,477216.7000000477,477216.3000000715,474637.667,474650.10000002384,474653.784,477220.658,8,400,16,,ISIC_0032426.JPG
break,html.Screen,4_115_1,2023-11-01T18:13:34.989Z,,0,,,NaN,,,,,,false,,,,477218.3000000715,477218.10000002384,,477217,,477220.658,8,400,,,
break_continue,html.Screen,4_115_2,2023-11-01T18:13:34.990Z,,0,,,NaN,,,,,,false,,,,477218.7000000477,477218.60000002384,,477218.5,,477220.658,8,400,,,
sequence,flow.Sequence,4_115,2023-11-01T18:13:34.990Z,,0,,,2564.8160000238568,completion,,,,,false,,,,477218.8000000715,477218.60000002384,474637.667,474650.10000002384,474653.784,477220.658,8,400,,,
trial,html.Screen,4_116_0,2023-11-01T18:13:37.821Z,,0,3,,2829.2419999761623,response,ISIC_0026204.JPG,6,ISIC_0025035.JPG,ISIC_0025035.JPG,false,0,keypress(z),500,480050.3000000715,480049.89999997616,477204.784,477218.89999997616,477220.658,480054.07,8,400,17,,ISIC_0026204.JPG
break,html.Screen,4_116_1,2023-11-01T18:13:37.822Z,,0,,,NaN,,,,,,false,,,,480051.39999997616,480051.2000000477,,480050.5,,480054.07,8,400,,,
break_continue,html.Screen,4_116_2,2023-11-01T18:13:37.822Z,,0,,,NaN,,,,,,false,,,,480051.7000000477,480051.60000002384,,480051.5,,480054.07,8,400,,,
sequence,flow.Sequence,4_116,2023-11-01T18:13:37.823Z,,0,,,2830.942000023846,completion,,,,,false,,,,480051.8000000715,480051.60000002384,477204.784,477218.89999997616,477220.658,480054.07,8,400,,,
trial,html.Screen,4_117_0,2023-11-01T18:13:41.847Z,,0,3,,4021.829999976151,response,ISIC_4362713.JPG,6,ISIC_4055288.JPG,ISIC_4055288.JPG,false,0,keypress(z),500,484076.10000002384,484075.89999997616,480038.281,480051.89999997616,480054.07,484088.166,8,400,18,,ISIC_4362713.JPG
break,html.Screen,4_117_1,2023-11-01T18:13:41.848Z,,0,,,NaN,,,,,,false,,,,484077.3000000715,484077.10000002384,,484076.3000000715,,484088.166,8,400,,,
break_continue,html.Screen,4_117_2,2023-11-01T18:13:41.848Z,,0,,,NaN,,,,,,false,,,,484077.60000002384,484077.5,,484077.39999997616,,484088.166,8,400,,,
sequence,flow.Sequence,4_117,2023-11-01T18:13:41.849Z,,0,,,4023.429999999993,completion,,,,,false,,,,484077.7000000477,484077.5,480038.281,480051.8000000715,480054.07,484088.166,8,400,,,
trial,html.Screen,4_118_0,2023-11-01T18:13:44.305Z,,0,3,,2445.534000047657,response,ISIC_8713330.JPG,10,ISIC_0067318.JPG,ISIC_8713330.JPG,false,1,keypress(m),500,486533.89999997616,486533.7000000477,484070.47,484077.8000000715,484088.166,486537.577,8,400,19,,ISIC_0067318.JPG
break,html.Screen,4_118_1,2023-11-01T18:13:44.306Z,,0,,,NaN,,,,,,false,,,,486534.8000000715,486534.60000002384,,486534.2000000477,,486537.577,8,400,,,
break_continue,html.Screen,4_118_2,2023-11-01T18:13:44.306Z,,0,,,NaN,,,,,,false,,,,486535.39999997616,486535.3000000715,,486534.89999997616,,486537.577,8,400,,,
sequence,flow.Sequence,4_118,2023-11-01T18:13:44.306Z,,0,,,2447.134000071499,completion,,,,,false,,,,486535.7000000477,486535.3000000715,484070.47,484077.7000000477,484088.166,486537.577,8,400,,,
trial,html.Screen,4_119_0,2023-11-01T18:13:46.904Z,,0,3,,2595.2230000715354,response,ISIC_0072412.JPG,12,ISIC_7161651.JPG,ISIC_7161651.JPG,false,0,keypress(z),500,489133.10000002384,489132.8000000715,486521.855,486535.7000000477,486537.577,489137.898,8,400,20,,ISIC_0072412.JPG
break,html.Screen,4_119_1,2023-11-01T18:13:46.905Z,,0,,,NaN,,,,,,false,,,,489134.3000000715,489134.10000002384,,489133.2000000477,,489137.898,8,400,,,
break_continue,html.Screen,4_119_2,2023-11-01T18:13:46.905Z,,0,,,NaN,,,,,,false,,,,489134.60000002384,489134.5,,489134.3000000715,,489137.898,8,400,,,
sequence,flow.Sequence,4_119,2023-11-01T18:13:46.905Z,,0,,,2596.92300000001,completion,,,,,false,,,,489134.7000000477,489134.5,486521.855,486535.7000000477,486537.577,489137.898,8,400,,,
trial,html.Screen,4_120_0,2023-11-01T18:13:49.673Z,,0,3,,2763.6020000000135,response,ISIC_2146346.JPG,10,ISIC_0033103.JPG,ISIC_2146346.JPG,false,1,keypress(m),500,491901.7000000477,491901.5,489122.281,489134.7000000477,489137.898,491938.018,8,400,21,,ISIC_0033103.JPG
break,html.Screen,4_120_1,2023-11-01T18:13:49.673Z,,0,,,NaN,,,,,,false,,,,491902.5,491902.2000000477,,491901.89999997616,,491938.018,8,400,,,
break_continue,html.Screen,4_120_2,2023-11-01T18:13:49.674Z,,0,,,NaN,,,,,,false,,,,491902.7000000477,491902.60000002384,,491902.5,,491938.018,8,400,,,
sequence,flow.Sequence,4_120,2023-11-01T18:13:49.674Z,,0,,,2764.7020000238554,completion,,,,,false,,,,491902.8000000715,491902.60000002384,489122.281,489134.7000000477,489137.898,491938.018,8,400,,,
trial,html.Screen,4_121_0,2023-11-01T18:13:52.556Z,,0,3,,2846.7820000715437,response,ISIC_0062517.JPG,6,ISIC_6937905.JPG,ISIC_6937905.JPG,false,0,keypress(z),500,494785.10000002384,494784.8000000715,491922.194,491903,491938.018,494788.215,8,400,22,,ISIC_0062517.JPG
break,html.Screen,4_121_1,2023-11-01T18:13:52.557Z,,0,,,NaN,,,,,,false,,,,494786.39999997616,494786.3000000715,,494785.3000000715,,494788.215,8,400,,,
break_continue,html.Screen,4_121_2,2023-11-01T18:13:52.558Z,,0,,,NaN,,,,,,false,,,,494786.7000000477,494786.7000000477,,494786.5,,494788.215,8,400,,,
sequence,flow.Sequence,4_121,2023-11-01T18:13:52.558Z,,0,,,2848.682000047702,completion,,,,,false,,,,494786.8000000715,494786.7000000477,491922.194,491903,491938.018,494788.215,8,400,,,
trial,html.Screen,4_122_0,2023-11-01T18:13:55.623Z,,0,3,,3063.7849999999744,response,ISIC_6546903.JPG,6,ISIC_9301809.JPG,ISIC_6546903.JPG,false,1,keypress(m),500,497852.3000000715,497852,494771.305,494787.10000002384,494788.215,497855.017,8,400,23,,ISIC_9301809.JPG
break,html.Screen,4_122_1,2023-11-01T18:13:55.624Z,,0,,,NaN,,,,,,false,,,,497853.60000002384,497853.3000000715,,497852.60000002384,,497855.017,8,400,,,
break_continue,html.Screen,4_122_2,2023-11-01T18:13:55.625Z,,0,,,NaN,,,,,,false,,,,497853.89999997616,497853.7000000477,,497853.7000000477,,497855.017,8,400,,,
sequence,flow.Sequence,4_122,2023-11-01T18:13:55.625Z,,0,,,3065.485000047658,completion,,,,,false,,,,497854.10000002384,497853.7000000477,494771.305,494787,494788.215,497855.017,8,400,,,
trial,html.Screen,4_123_0,2023-11-01T18:13:58.124Z,,0,3,,2497.683000047691,response,ISIC_0394157.JPG,5,ISIC_0011128.JPG,ISIC_0394157.JPG,false,1,keypress(m),500,500353,500352.7000000477,497839.252,497854.10000002384,497855.017,500355.161,8,400,24,,ISIC_0011128.JPG
break,html.Screen,4_123_1,2023-11-01T18:13:58.125Z,,0,,,NaN,,,,,,false,,,,500354.2000000477,500354,,500353.2000000477,,500355.161,8,400,,,
break_continue,html.Screen,4_123_2,2023-11-01T18:13:58.125Z,,0,,,NaN,,,,,,false,,,,500354.5,500354.39999997616,,500354.3000000715,,500355.161,8,400,,,
sequence,flow.Sequence,4_123,2023-11-01T18:13:58.125Z,,0,,,2499.3829999761656,completion,,,,,false,,,,500354.7000000477,500354.39999997616,497839.252,497854.10000002384,497855.017,500355.161,8,400,,,
trial,html.Screen,4_124_0,2023-11-01T18:14:00.597Z,,0,3,,2471.039000047662,response,ISIC_6737771.JPG,4,ISIC_0028501.JPG,ISIC_6737771.JPG,false,1,keypress(m),500,502826.5,502826.2000000477,500339.217,500354.8000000715,500355.161,502839.285,8,400,25,,ISIC_0028501.JPG
break,html.Screen,4_124_1,2023-11-01T18:14:00.598Z,,0,,,NaN,,,,,,false,,,,502827.5,502827.10000002384,,502826.7000000477,,502839.285,8,400,,,
break_continue,html.Screen,4_124_2,2023-11-01T18:14:00.598Z,,0,,,NaN,,,,,,false,,,,502827.89999997616,502827.7000000477,,502827.60000002384,,502839.285,8,400,,,
sequence,flow.Sequence,4_124,2023-11-01T18:14:00.598Z,,0,,,2472.539000047662,completion,,,,,false,,,,502828.2000000477,502827.7000000477,500339.217,500354.7000000477,500355.161,502839.285,8,400,,,
trial,html.Screen,4_125_0,2023-11-01T18:14:03.051Z,,0,3,,2441.1149999761838,response,ISIC_7539727.JPG,10,ISIC_6581765.JPG,ISIC_6581765.JPG,false,0,keypress(z),500,505280.5,505280.39999997616,502821.605,502828.3000000715,502839.285,505288.8,8,400,26,,ISIC_7539727.JPG
break,html.Screen,4_125_1,2023-11-01T18:14:03.051Z,,0,,,NaN,,,,,,false,,,,505281.10000002384,505280.89999997616,,505280.7000000477,,505288.8,8,400,,,
break_continue,html.Screen,4_125_2,2023-11-01T18:14:03.051Z,,0,,,NaN,,,,,,false,,,,505281.3000000715,505281.2000000477,,505281.2000000477,,505288.8,8,400,,,
