sender,sender_type,sender_id,timestamp,meta,,blockNo,condition,duration,ended_on,img_left,img_reveal,img_right,loser,practice,response,response_action,selection_duration,time_commit,time_end,time_render,time_run,time_show,time_switch,total_blocks,total_trials,trialNo,url,winner
informed_consent,html.Screen,0,2023-09-12T19:41:25.192Z,"{""labjs_version"":""20.2.4"",""labjs_build"":{""flavor"":""production"",""commit"":""f5b4a49f956347addd546a832a3327688c2c0fef""},""location"":""https://run.pavlovia.org/MurrayBennett/melanoma-2afc/?participant=67172&platform=sona"",""userAgent"":""Mozilla/5.0 (Windows NT 10.0; Win64; x64) AppleWebKit/537.36 (KHTML, like Gecko) Chrome/116.0.0.0 Safari/537.36"",""platform"":""Win32"",""language"":""en-US"",""locale"":""en-US"",""timeZone"":""America/Chicago"",""timezoneOffset"":300,""screen_width"":1440,""screen_height"":960,""scroll_width"":1440,""scroll_height"":755,""window_innerWidth"":1440,""window_innerHeight"":803,""devicePixelRatio"":2}",,,,9524.95599999404,response,,,,,,consent,click button,,11680.199999988079,11677.59999999404,1869.357,2153.699999988079,2152.644,11702.59,,,,"{""participant"":""67172"",""platform"":""sona""}",
Welcome,html.Screen,1,2023-09-12T19:42:05.291Z,,,,uniform,40074.810000005964,response,,,,,,continue,click button,,51778.90000000596,51777.40000000596,11668.995,11680.5,11702.59,51782.691,,,,,
trial,html.Screen,2_0_0,2023-09-12T19:42:16.773Z,,0,0,,11508.654999999999,timeout,ISIC_0063388.JPG,,ISIC_0025593.JPG,,true,,,500,63259.5,63259.09999999404,51766.079,51779.19999998808,51782.691,63291.346,1,6,1,,
sequence,flow.Sequence,2_0,2023-09-12T19:42:16.773Z,,0,,,11476.40899999404,completion,,,,,true,,,,63259.79999998212,63259.09999999404,51766.079,51779.19999998808,51782.691,63291.346,1,6,,,
trial,html.Screen,2_1_0,2023-09-12T19:42:20.715Z,,0,0,,3910.3539999880813,response,ISIC_1309015.JPG,,ISIC_0028178.JPG,ISIC_0028178.JPG,true,0,keypress(z),500,67202.09999999404,67201.69999998808,63274.399,63260,63291.346,67212.568,1,6,2,,ISIC_1309015.JPG
sequence,flow.Sequence,2_1,2023-09-12T19:42:20.716Z,,0,,,3910.3539999880813,completion,,,,,true,,,,67202.5,67201.69999998808,63274.399,63260,63291.346,67212.568,1,6,,,
trial,html.Screen,2_2_0,2023-09-12T19:42:23.940Z,,0,0,,3213.9320000000007,response,ISIC_3314853.JPG,,ISIC_0031128.JPG,ISIC_3314853.JPG,true,1,keypress(m),500,70426.79999998212,70426.5,67199.423,67202.69999998808,67212.568,70437.312,1,6,3,,ISIC_0031128.JPG
sequence,flow.Sequence,2_2,2023-09-12T19:42:23.940Z,,0,,,3213.9320000000007,completion,,,,,true,,,,70427.09999999404,70426.5,67199.423,67202.59999999404,67212.568,70437.312,1,6,,,
trial,html.Screen,2_3_0,2023-09-12T19:42:28.329Z,,0,0,,4377.987999982113,response,ISIC_0031612.JPG,,ISIC_8980141.JPG,ISIC_0031612.JPG,true,1,keypress(m),500,74815.69999998808,74815.29999998212,70413.125,70427.29999998212,70437.312,74826.642,1,6,4,,ISIC_8980141.JPG
sequence,flow.Sequence,2_3,2023-09-12T19:42:28.329Z,,0,,,4377.987999982113,completion,,,,,true,,,,74816.19999998808,74815.29999998212,70413.125,70427.19999998808,70437.312,74826.642,1,6,,,
trial,html.Screen,2_4_0,2023-09-12T19:42:34.049Z,,0,0,,5708.957999994032,response,ISIC_9721604.JPG,,ISIC_1197737.JPG,ISIC_1197737.JPG,true,0,keypress(z),500,80536,80535.59999999404,74800.868,74816.40000000596,74826.642,80563.303,1,6,5,,ISIC_9721604.JPG
sequence,flow.Sequence,2_4,2023-09-12T19:42:34.049Z,,0,,,5708.957999994032,completion,,,,,true,,,,80536.40000000596,80535.59999999404,74800.868,74816.29999998212,74826.642,80563.303,1,6,,,
trial,html.Screen,2_5_0,2023-09-12T19:42:38.409Z,,0,0,,4331.896999988079,response,ISIC_0010681.JPG,,ISIC_0025346.JPG,ISIC_0010681.JPG,true,1,keypress(m),500,84895.5,84895.19999998808,80546.792,80536.5,80563.303,84905.851,1,6,6,,ISIC_0025346.JPG
sequence,flow.Sequence,2_5,2023-09-12T19:42:38.409Z,,0,,,4331.896999988079,completion,,,,,true,,,,84895.90000000596,84895.19999998808,80546.792,80536.5,80563.303,84905.851,1,6,,,
loop,flow.Loop,2,2023-09-12T19:42:38.409Z,,,,,33112.50899998808,completion,,,,,true,,,,84896.09999999404,84895.19999998808,51766.079,51779.19999998808,51782.691,84905.851,1,6,,,
exp_instructions,html.Screen,3,2023-09-12T19:42:48.727Z,,,,,10306.649000000005,response,,,,,,continue,keypress(Space),,95213.5,95212.5,84895.465,84896.29999998212,84905.851,95223.607,,,,,
trial,html.Screen,4_0_0,2023-09-12T19:42:55.444Z,,0,1,,6707.0929999880755,response,ISIC_0066378.JPG,8,ISIC_5581936.JPG,ISIC_0066378.JPG,false,1,keypress(m),500,101930.90000000596,101930.69999998808,95203.299,95213.79999998212,95223.607,101941.037,8,400,1,,ISIC_5581936.JPG
break,html.Screen,4_0_1,2023-09-12T19:42:55.445Z,,0,,,NaN,,,,,,false,,,,101932,101931.69999998808,,101931.09999999404,,101941.037,8,400,,,
break_continue,html.Screen,4_0_2,2023-09-12T19:42:55.446Z,,0,,,NaN,,,,,,false,,,,101932.40000000596,101932.29999998212,,101932.19999998808,,101941.037,8,400,,,
sequence,flow.Sequence,4_0,2023-09-12T19:42:55.446Z,,0,,,6708.692999982115,completion,,,,,false,,,,101932.59999999404,101932.29999998212,95203.299,95213.69999998808,95223.607,101941.037,8,400,,,
trial,html.Screen,4_1_0,2023-09-12T19:42:59.967Z,,0,1,,4512.162999988082,response,ISIC_3610783.JPG,9,ISIC_9905633.JPG,ISIC_9905633.JPG,false,0,keypress(z),500,106453.5,106453.19999998808,101917.776,101932.79999998212,101941.037,106463.694,8,400,2,,ISIC_3610783.JPG
break,html.Screen,4_1_1,2023-09-12T19:42:59.968Z,,0,,,NaN,,,,,,false,,,,106454.40000000596,106454.09999999404,,106453.69999998808,,106463.694,8,400,,,
break_continue,html.Screen,4_1_2,2023-09-12T19:42:59.968Z,,0,,,NaN,,,,,,false,,,,106454.69999998808,106454.69999998808,,106454.59999999404,,106463.694,8,400,,,
sequence,flow.Sequence,4_1,2023-09-12T19:42:59.968Z,,0,,,4513.662999988082,completion,,,,,false,,,,106454.90000000596,106454.69999998808,101917.776,101932.79999998212,101941.037,106463.694,8,400,,,
trial,html.Screen,4_2_0,2023-09-12T19:43:03.912Z,,0,1,,3934.805999999997,response,ISIC_6265473.JPG,7,ISIC_2002605.JPG,ISIC_6265473.JPG,false,1,keypress(m),500,110398.69999998808,110398.5,106447.714,106454.90000000596,106463.694,110408.909,8,400,3,,ISIC_2002605.JPG
break,html.Screen,4_2_1,2023-09-12T19:43:03.913Z,,0,,,NaN,,,,,,false,,,,110399.69999998808,110399.5,,110399,,110408.909,8,400,,,
break_continue,html.Screen,4_2_2,2023-09-12T19:43:03.913Z,,0,,,NaN,,,,,,false,,,,110400.09999999404,110399.90000000596,,110399.79999998212,,110408.909,8,400,,,
sequence,flow.Sequence,4_2,2023-09-12T19:43:03.913Z,,0,,,3936.2060000059573,completion,,,,,false,,,,110400.29999998212,110399.90000000596,106447.714,106454.90000000596,106463.694,110408.909,8,400,,,
trial,html.Screen,4_3_0,2023-09-12T19:43:09.776Z,,0,1,,5853.991000005961,response,ISIC_0010822.JPG,9,ISIC_8847321.JPG,ISIC_8847321.JPG,false,0,keypress(z),500,116263.09999999404,116262.90000000596,110387.946,110400.29999998212,110408.909,116273.168,8,400,4,,ISIC_0010822.JPG
break,html.Screen,4_3_1,2023-09-12T19:43:09.777Z,,0,,,NaN,,,,,,false,,,,116263.69999998808,116263.59999999404,,116263.19999998808,,116273.168,8,400,,,
break_continue,html.Screen,4_3_2,2023-09-12T19:43:09.777Z,,0,,,NaN,,,,,,false,,,,116263.90000000596,116263.90000000596,,116263.79999998212,,116273.168,8,400,,,
sequence,flow.Sequence,4_3,2023-09-12T19:43:09.777Z,,0,,,5854.991000005961,completion,,,,,false,,,,116263.90000000596,116263.90000000596,110387.946,110400.29999998212,110408.909,116273.168,8,400,,,
trial,html.Screen,4_4_0,2023-09-12T19:43:13.202Z,,0,1,,3415.4319999940344,response,ISIC_0028548.JPG,13,ISIC_1937197.JPG,ISIC_1937197.JPG,false,0,keypress(z),500,119688.90000000596,119688.59999999404,116247.052,116263.90000000596,116273.168,119699.121,8,400,5,,ISIC_0028548.JPG
break,html.Screen,4_4_1,2023-09-12T19:43:13.203Z,,0,,,NaN,,,,,,false,,,,119689.79999998212,119689.59999999404,,119689.09999999404,,119699.121,8,400,,,
break_continue,html.Screen,4_4_2,2023-09-12T19:43:13.203Z,,0,,,NaN,,,,,,false,,,,119690.09999999404,119690,,119689.90000000596,,119699.121,8,400,,,
sequence,flow.Sequence,4_4,2023-09-12T19:43:13.203Z,,0,,,3416.831999999995,completion,,,,,false,,,,119690.29999998212,119690,116247.052,116263.90000000596,116273.168,119699.121,8,400,,,
trial,html.Screen,4_5_0,2023-09-12T19:43:16.920Z,,0,1,,3707.879000000001,response,ISIC_0010398.JPG,6,ISIC_0065477.JPG,ISIC_0065477.JPG,false,0,keypress(z),500,123407.29999998212,123407,119688.708,119690.40000000596,119699.121,123417.504,8,400,6,,ISIC_0010398.JPG
break,html.Screen,4_5_1,2023-09-12T19:43:16.921Z,,0,,,NaN,,,,,,false,,,,123408.19999998808,123408.09999999404,,123407.59999999404,,123417.504,8,400,,,
break_continue,html.Screen,4_5_2,2023-09-12T19:43:16.922Z,,0,,,NaN,,,,,,false,,,,123408.59999999404,123408.40000000596,,123408.40000000596,,123417.504,8,400,,,
sequence,flow.Sequence,4_5,2023-09-12T19:43:16.922Z,,0,,,3709.2790000059613,completion,,,,,false,,,,123408.69999998808,123408.40000000596,119688.708,119690.29999998212,119699.121,123417.504,8,400,,,
trial,html.Screen,4_6_0,2023-09-12T19:43:20.844Z,,0,1,,3913.5959999940387,response,ISIC_0024367.JPG,6,ISIC_0011692.JPG,ISIC_0024367.JPG,false,1,keypress(m),500,127331.29999998212,127331.09999999404,123407.776,123408.79999998212,123417.504,127341.774,8,400,7,,ISIC_0011692.JPG
break,html.Screen,4_6_1,2023-09-12T19:43:20.845Z,,0,,,NaN,,,,,,false,,,,127332.19999998808,127332,,127331.5,,127341.774,8,400,,,
break_continue,html.Screen,4_6_2,2023-09-12T19:43:20.846Z,,0,,,NaN,,,,,,false,,,,127332.5,127332.5,,127332.29999998212,,127341.774,8,400,,,
sequence,flow.Sequence,4_6,2023-09-12T19:43:20.846Z,,0,,,3914.995999999999,completion,,,,,false,,,,127332.69999998808,127332.5,123407.776,123408.79999998212,123417.504,127341.774,8,400,,,
trial,html.Screen,4_7_0,2023-09-12T19:43:25.028Z,,0,1,,4172.925999988074,response,ISIC_2275181.JPG,8,ISIC_9028997.JPG,ISIC_9028997.JPG,false,0,keypress(z),500,131515,131514.69999998808,127319.166,127332.79999998212,127341.774,131525.228,8,400,8,,ISIC_2275181.JPG
break,html.Screen,4_7_1,2023-09-12T19:43:25.029Z,,0,,,NaN,,,,,,false,,,,131515.90000000596,131515.59999999404,,131515.19999998808,,131525.228,8,400,,,
break_continue,html.Screen,4_7_2,2023-09-12T19:43:25.029Z,,0,,,NaN,,,,,,false,,,,131516.09999999404,131516.09999999404,,131516,,131525.228,8,400,,,
sequence,flow.Sequence,4_7,2023-09-12T19:43:25.029Z,,0,,,4174.325999994035,completion,,,,,false,,,,131516.29999998212,131516.09999999404,127319.166,127332.79999998212,127341.774,131525.228,8,400,,,
trial,html.Screen,4_8_0,2023-09-12T19:43:28.669Z,,0,1,,3630.4719999880763,response,ISIC_5559730.JPG,10,ISIC_4026540.JPG,ISIC_5559730.JPG,false,1,keypress(m),500,135155.90000000596,135155.69999998808,131514.442,131516.40000000596,131525.228,135166.306,8,400,9,,ISIC_4026540.JPG
break,html.Screen,4_8_1,2023-09-12T19:43:28.670Z,,0,,,NaN,,,,,,false,,,,135156.79999998212,135156.59999999404,,135156.09999999404,,135166.306,8,400,,,
break_continue,html.Screen,4_8_2,2023-09-12T19:43:28.670Z,,0,,,NaN,,,,,,false,,,,135157.19999998808,135157.09999999404,,135157,,135166.306,8,400,,,
sequence,flow.Sequence,4_8,2023-09-12T19:43:28.670Z,,0,,,3631.8719999940367,completion,,,,,false,,,,135157.29999998212,135157.09999999404,131514.442,131516.29999998212,131525.228,135166.306,8,400,,,
trial,html.Screen,4_9_0,2023-09-12T19:43:32.034Z,,0,1,,3353.993999982107,response,ISIC_4938638.JPG,12,ISIC_9407690.JPG,ISIC_4938638.JPG,false,1,keypress(m),500,138520.5,138520.29999998212,135143.758,135157.40000000596,135166.306,138531.025,8,400,10,,ISIC_9407690.JPG
break,html.Screen,4_9_1,2023-09-12T19:43:32.034Z,,0,,,NaN,,,,,,false,,,,138521.29999998212,138521.09999999404,,138520.69999998808,,138531.025,8,400,,,
break_continue,html.Screen,4_9_2,2023-09-12T19:43:32.035Z,,0,,,NaN,,,,,,false,,,,138521.69999998808,138521.59999999404,,138521.5,,138531.025,8,400,,,
sequence,flow.Sequence,4_9,2023-09-12T19:43:32.035Z,,0,,,3355.293999994028,completion,,,,,false,,,,138521.90000000596,138521.59999999404,135143.758,135157.40000000596,135166.306,138531.025,8,400,,,
trial,html.Screen,4_10_0,2023-09-12T19:43:37.281Z,,0,1,,5236.674999988085,response,ISIC_6672654.JPG,11,ISIC_3392433.JPG,ISIC_3392433.JPG,false,0,keypress(z),500,143768,143767.69999998808,138507.949,138522,138531.025,143778.056,8,400,11,,ISIC_6672654.JPG
break,html.Screen,4_10_1,2023-09-12T19:43:37.282Z,,0,,,NaN,,,,,,false,,,,143768.79999998212,143768.59999999404,,143768.19999998808,,143778.056,8,400,,,
break_continue,html.Screen,4_10_2,2023-09-12T19:43:37.282Z,,0,,,NaN,,,,,,false,,,,143769.09999999404,143769,,143768.90000000596,,143778.056,8,400,,,
sequence,flow.Sequence,4_10,2023-09-12T19:43:37.282Z,,0,,,5237.975000000006,completion,,,,,false,,,,143769.19999998808,143769,138507.949,138522,138531.025,143778.056,8,400,,,
trial,html.Screen,4_11_0,2023-09-12T19:43:41.782Z,,0,1,,4490.643999988068,response,ISIC_1632696.JPG,5,ISIC_0066783.JPG,ISIC_0066783.JPG,false,0,keypress(z),500,148269,148268.69999998808,143753.38,143769.40000000596,143778.056,148279.211,8,400,12,,ISIC_1632696.JPG
break,html.Screen,4_11_1,2023-09-12T19:43:41.783Z,,0,,,NaN,,,,,,false,,,,148269.90000000596,148269.69999998808,,148269.19999998808,,148279.211,8,400,,,
break_continue,html.Screen,4_11_2,2023-09-12T19:43:41.783Z,,0,,,NaN,,,,,,false,,,,148270.19999998808,148270.09999999404,,148270,,148279.211,8,400,,,
sequence,flow.Sequence,4_11,2023-09-12T19:43:41.783Z,,0,,,4492.043999994028,completion,,,,,false,,,,148270.29999998212,148270.09999999404,143753.38,143769.29999998212,143778.056,148279.211,8,400,,,
trial,html.Screen,4_12_0,2023-09-12T19:43:44.998Z,,0,1,,3205.68900000595,response,ISIC_0054151.JPG,10,ISIC_0010316.JPG,ISIC_0010316.JPG,false,0,keypress(z),500,151485.29999998212,151484.90000000596,148260.33,148270.40000000596,148279.211,151495.505,8,400,13,,ISIC_0054151.JPG
break,html.Screen,4_12_1,2023-09-12T19:43:44.999Z,,0,,,NaN,,,,,,false,,,,151486.19999998808,151486,,151485.5,,151495.505,8,400,,,
break_continue,html.Screen,4_12_2,2023-09-12T19:43:45.000Z,,0,,,NaN,,,,,,false,,,,151486.59999999404,151486.5,,151486.29999998212,,151495.505,8,400,,,
sequence,flow.Sequence,4_12,2023-09-12T19:43:45.000Z,,0,,,3207.2889999999898,completion,,,,,false,,,,151486.69999998808,151486.5,148260.33,148270.40000000596,148279.211,151495.505,8,400,,,
trial,html.Screen,4_13_0,2023-09-12T19:43:48.878Z,,0,1,,3868.594999994035,response,ISIC_0055393.JPG,9,ISIC_0698821.JPG,ISIC_0698821.JPG,false,0,keypress(z),500,155364.40000000596,155364.09999999404,151474.33,151486.79999998212,151495.505,155374.858,8,400,14,,ISIC_0055393.JPG
break,html.Screen,4_13_1,2023-09-12T19:43:48.878Z,,0,,,NaN,,,,,,false,,,,155365.40000000596,155365.09999999404,,155364.69999998808,,155374.858,8,400,,,
break_continue,html.Screen,4_13_2,2023-09-12T19:43:48.879Z,,0,,,NaN,,,,,,false,,,,155365.69999998808,155365.59999999404,,155365.40000000596,,155374.858,8,400,,,
sequence,flow.Sequence,4_13,2023-09-12T19:43:48.879Z,,0,,,3870.094999994035,completion,,,,,false,,,,155365.90000000596,155365.59999999404,151474.33,151486.79999998212,151495.505,155374.858,8,400,,,
trial,html.Screen,4_14_0,2023-09-12T19:43:52.411Z,,0,1,,3523.042000005953,response,ISIC_1674754.JPG,5,ISIC_0281291.JPG,ISIC_1674754.JPG,false,1,keypress(m),500,158898.19999998808,158897.90000000596,155351.662,155366.09999999404,155374.858,158908.232,8,400,15,,ISIC_0281291.JPG
break,html.Screen,4_14_1,2023-09-12T19:43:52.412Z,,0,,,NaN,,,,,,false,,,,158899,158898.79999998212,,158898.29999998212,,158908.232,8,400,,,
break_continue,html.Screen,4_14_2,2023-09-12T19:43:52.413Z,,0,,,NaN,,,,,,false,,,,158899.40000000596,158899.19999998808,,158899.19999998808,,158908.232,8,400,,,
sequence,flow.Sequence,4_14,2023-09-12T19:43:52.413Z,,0,,,3524.3419999880716,completion,,,,,false,,,,158899.40000000596,158899.19999998808,155351.662,155365.90000000596,155374.858,158908.232,8,400,,,
trial,html.Screen,4_15_0,2023-09-12T19:43:56.005Z,,0,1,,3583.3679999940505,response,ISIC_0068407.JPG,12,ISIC_0011409.JPG,ISIC_0011409.JPG,false,0,keypress(z),500,162491.90000000596,162491.59999999404,158897.411,158899.69999998808,158908.232,162502.197,8,400,16,,ISIC_0068407.JPG
break,html.Screen,4_15_1,2023-09-12T19:43:56.006Z,,0,,,NaN,,,,,,false,,,,162492.69999998808,162492.5,,162492,,162502.197,8,400,,,
break_continue,html.Screen,4_15_2,2023-09-12T19:43:56.006Z,,0,,,NaN,,,,,,false,,,,162493,162492.90000000596,,162492.79999998212,,162502.197,8,400,,,
sequence,flow.Sequence,4_15,2023-09-12T19:43:56.006Z,,0,,,3584.6680000059714,completion,,,,,false,,,,162493.09999999404,162492.90000000596,158897.411,158899.59999999404,158908.232,162502.197,8,400,,,
trial,html.Screen,4_16_0,2023-09-12T19:44:00.269Z,,0,1,,4253.602999982133,response,ISIC_0054670.JPG,6,ISIC_1023354.JPG,ISIC_0054670.JPG,false,1,keypress(m),500,166756.09999999404,166755.79999998212,162491.96,162493.19999998808,162502.197,166766.28,8,400,17,,ISIC_1023354.JPG
break,html.Screen,4_16_1,2023-09-12T19:44:00.270Z,,0,,,NaN,,,,,,false,,,,166756.79999998212,166756.59999999404,,166756.29999998212,,166766.28,8,400,,,
break_continue,html.Screen,4_16_2,2023-09-12T19:44:00.270Z,,0,,,NaN,,,,,,false,,,,166757.19999998808,166757,,166756.90000000596,,166766.28,8,400,,,
sequence,flow.Sequence,4_16,2023-09-12T19:44:00.270Z,,0,,,4254.803000000014,completion,,,,,false,,,,166757.19999998808,166757,162491.96,162493.19999998808,162502.197,166766.28,8,400,,,
trial,html.Screen,4_17_0,2023-09-12T19:44:06.776Z,,0,1,,6496.620000005962,response,ISIC_4918571.JPG,13,ISIC_0011481.JPG,ISIC_0011481.JPG,false,0,keypress(z),500,173263.09999999404,173262.90000000596,166747.301,166757.40000000596,166766.28,173273.469,8,400,18,,ISIC_4918571.JPG
break,html.Screen,4_17_1,2023-09-12T19:44:06.777Z,,0,,,NaN,,,,,,false,,,,173264.19999998808,173263.90000000596,,173263.40000000596,,173273.469,8,400,,,
break_continue,html.Screen,4_17_2,2023-09-12T19:44:06.778Z,,0,,,NaN,,,,,,false,,,,173264.5,173264.40000000596,,173264.29999998212,,173273.469,8,400,,,
sequence,flow.Sequence,4_17,2023-09-12T19:44:06.778Z,,0,,,6498.120000005962,completion,,,,,false,,,,173264.59999999404,173264.40000000596,166747.301,166757.40000000596,166766.28,173273.469,8,400,,,
trial,html.Screen,4_18_0,2023-09-12T19:44:10.733Z,,0,1,,3946.030999999988,response,ISIC_0056930.JPG,10,ISIC_0059170.JPG,ISIC_0056930.JPG,false,1,keypress(m),500,177219.90000000596,177219.5,173256.922,173264.79999998212,173273.469,177229.982,8,400,19,,ISIC_0059170.JPG
break,html.Screen,4_18_1,2023-09-12T19:44:10.734Z,,0,,,NaN,,,,,,false,,,,177220.69999998808,177220.5,,177220.09999999404,,177229.982,8,400,,,
break_continue,html.Screen,4_18_2,2023-09-12T19:44:10.734Z,,0,,,NaN,,,,,,false,,,,177221,177220.90000000596,,177220.79999998212,,177229.982,8,400,,,
sequence,flow.Sequence,4_18,2023-09-12T19:44:10.734Z,,0,,,3947.4310000059486,completion,,,,,false,,,,177221.19999998808,177220.90000000596,173256.922,173264.79999998212,173273.469,177229.982,8,400,,,
trial,html.Screen,4_19_0,2023-09-12T19:44:14.150Z,,0,1,,3406.4180000059714,response,ISIC_6434210.JPG,5,ISIC_0062978.JPG,ISIC_6434210.JPG,false,1,keypress(m),500,180636.69999998808,180636.40000000596,177217.687,177221.29999998212,177229.982,180647.108,8,400,20,,ISIC_0062978.JPG
break,html.Screen,4_19_1,2023-09-12T19:44:14.151Z,,0,,,NaN,,,,,,false,,,,180637.5,180637.29999998212,,180636.90000000596,,180647.108,8,400,,,
break_continue,html.Screen,4_19_2,2023-09-12T19:44:14.151Z,,0,,,NaN,,,,,,false,,,,180637.79999998212,180637.69999998808,,180637.59999999404,,180647.108,8,400,,,
sequence,flow.Sequence,4_19,2023-09-12T19:44:14.151Z,,0,,,3407.71799998809,completion,,,,,false,,,,180638,180637.69999998808,177217.687,177221.19999998808,177229.982,180647.108,8,400,,,
trial,html.Screen,4_20_0,2023-09-12T19:44:18.057Z,,0,1,,3896.691999982111,response,ISIC_0013908.JPG,10,ISIC_0025955.JPG,ISIC_0025955.JPG,false,0,keypress(z),500,184543.90000000596,184543.79999998212,180624.637,180638.09999999404,180647.108,184554.049,8,400,21,,ISIC_0013908.JPG
break,html.Screen,4_20_1,2023-09-12T19:44:18.058Z,,0,,,NaN,,,,,,false,,,,184544.79999998212,184544.59999999404,,184544.09999999404,,184554.049,8,400,,,
break_continue,html.Screen,4_20_2,2023-09-12T19:44:18.058Z,,0,,,NaN,,,,,,false,,,,184545.29999998212,184545.09999999404,,184545,,184554.049,8,400,,,
sequence,flow.Sequence,4_20,2023-09-12T19:44:18.059Z,,0,,,3897.991999994032,completion,,,,,false,,,,184545.29999998212,184545.09999999404,180624.637,180638.09999999404,180647.108,184554.049,8,400,,,
trial,html.Screen,4_21_0,2023-09-12T19:44:21.841Z,,0,1,,3773.3510000059614,response,ISIC_2394181.JPG,11,ISIC_9667908.JPG,ISIC_9667908.JPG,false,0,keypress(z),500,188327.69999998808,188327.40000000596,184541.329,184545.5,184554.049,188338.03,8,400,22,,ISIC_2394181.JPG
break,html.Screen,4_21_1,2023-09-12T19:44:21.842Z,,0,,,NaN,,,,,,false,,,,188328.59999999404,188328.5,,188327.90000000596,,188338.03,8,400,,,
break_continue,html.Screen,4_21_2,2023-09-12T19:44:21.842Z,,0,,,NaN,,,,,,false,,,,188329,188328.79999998212,,188328.69999998808,,188338.03,8,400,,,
sequence,flow.Sequence,4_21,2023-09-12T19:44:21.842Z,,0,,,3774.7509999821195,completion,,,,,false,,,,188329.09999999404,188328.79999998212,184541.329,184545.5,184554.049,188338.03,8,400,,,
trial,html.Screen,4_22_0,2023-09-12T19:44:25.125Z,,0,1,,3273.7699999821198,response,ISIC_6793983.JPG,12,ISIC_0056660.JPG,ISIC_0056660.JPG,false,0,keypress(z),500,191612.09999999404,191611.79999998212,188316.937,188329.29999998212,188338.03,191621.958,8,400,23,,ISIC_6793983.JPG
break,html.Screen,4_22_1,2023-09-12T19:44:25.126Z,,0,,,NaN,,,,,,false,,,,191613,191612.79999998212,,191612.29999998212,,191621.958,8,400,,,
break_continue,html.Screen,4_22_2,2023-09-12T19:44:25.127Z,,0,,,NaN,,,,,,false,,,,191613.5,191613.40000000596,,191613.19999998808,,191621.958,8,400,,,
sequence,flow.Sequence,4_22,2023-09-12T19:44:25.127Z,,0,,,3275.3700000059616,completion,,,,,false,,,,191613.5,191613.40000000596,188316.937,188329.19999998808,188338.03,191621.958,8,400,,,
trial,html.Screen,4_23_0,2023-09-12T19:44:30.731Z,,0,1,,5595.741999988066,response,ISIC_2470790.JPG,6,ISIC_0011665.JPG,ISIC_0011665.JPG,false,0,keypress(z),500,197218,197217.69999998808,191611.442,191613.59999999404,191621.958,197228.285,8,400,24,,ISIC_2470790.JPG
break,html.Screen,4_23_1,2023-09-12T19:44:30.732Z,,0,,,NaN,,,,,,false,,,,197218.90000000596,197218.79999998212,,197218.19999998808,,197228.285,8,400,,,
break_continue,html.Screen,4_23_2,2023-09-12T19:44:30.732Z,,0,,,NaN,,,,,,false,,,,197219.19999998808,197219.09999999404,,197219,,197228.285,8,400,,,
sequence,flow.Sequence,4_23,2023-09-12T19:44:30.733Z,,0,,,5597.141999994026,completion,,,,,false,,,,197219.29999998212,197219.09999999404,191611.442,191613.59999999404,191621.958,197228.285,8,400,,,
trial,html.Screen,4_24_0,2023-09-12T19:44:36.768Z,,0,1,,6026.115000005957,response,ISIC_0054332.JPG,12,ISIC_5879418.JPG,ISIC_0054332.JPG,false,1,keypress(m),500,203254.59999999404,203254.40000000596,197204.912,197219.5,197228.285,203264.833,8,400,25,,ISIC_5879418.JPG
break,html.Screen,4_24_1,2023-09-12T19:44:36.769Z,,0,,,NaN,,,,,,false,,,,203255.5,203255.29999998212,,203254.90000000596,,203264.833,8,400,,,
break_continue,html.Screen,4_24_2,2023-09-12T19:44:36.769Z,,0,,,NaN,,,,,,false,,,,203255.79999998212,203255.79999998212,,203255.69999998808,,203264.833,8,400,,,
sequence,flow.Sequence,4_24,2023-09-12T19:44:36.769Z,,0,,,6027.514999982115,completion,,,,,false,,,,203256,203255.79999998212,197204.912,197219.40000000596,197228.285,203264.833,8,400,,,
trial,html.Screen,4_25_0,2023-09-12T19:44:40.678Z,,0,1,,3899.9669999821053,response,ISIC_0010283.JPG,9,ISIC_7190243.JPG,ISIC_7190243.JPG,false,0,keypress(z),500,207165,207164.79999998212,203248.031,203256.19999998808,203264.833,207176.225,8,400,26,,ISIC_0010283.JPG
break,html.Screen,4_25_1,2023-09-12T19:44:40.679Z,,0,,,NaN,,,,,,false,,,,207165.79999998212,207165.59999999404,,207165.29999998212,,207176.225,8,400,,,
break_continue,html.Screen,4_25_2,2023-09-12T19:44:40.679Z,,0,,,NaN,,,,,,false,,,,207166.09999999404,207166,,207165.90000000596,,207176.225,8,400,,,
sequence,flow.Sequence,4_25,2023-09-12T19:44:40.679Z,,0,,,3901.1669999999867,completion,,,,,false,,,,207166.19999998808,207166,203248.031,203256,203264.833,207176.225,8,400,,,
trial,html.Screen,4_26_0,2023-09-12T19:44:44.190Z,,0,1,,3500.274999999994,response,ISIC_0663824.JPG,12,ISIC_0025832.JPG,ISIC_0025832.JPG,false,0,keypress(z),500,210676.69999998808,210676.5,207159.803,207166.40000000596,207176.225,210686.883,8,400,27,,ISIC_0663824.JPG
break,html.Screen,4_26_1,2023-09-12T19:44:44.191Z,,0,,,NaN,,,,,,false,,,,210677.69999998808,210677.40000000596,,210677,,210686.883,8,400,,,
break_continue,html.Screen,4_26_2,2023-09-12T19:44:44.191Z,,0,,,NaN,,,,,,false,,,,210678,210677.79999998212,,210677.69999998808,,210686.883,8,400,,,
sequence,flow.Sequence,4_26,2023-09-12T19:44:44.191Z,,0,,,3501.574999982113,completion,,,,,false,,,,210678.09999999404,210677.79999998212,207159.803,207166.29999998212,207176.225,210686.883,8,400,,,
trial,html.Screen,4_27_0,2023-09-12T19:44:47.316Z,,0,1,,3116.1169999999984,response,ISIC_5312584.JPG,10,ISIC_8621568.JPG,ISIC_8621568.JPG,false,0,keypress(z),500,213803.19999998808,213803,210673.363,210678.19999998808,210686.883,213813.436,8,400,28,,ISIC_5312584.JPG
break,html.Screen,4_27_1,2023-09-12T19:44:47.317Z,,0,,,NaN,,,,,,false,,,,213804.09999999404,213803.90000000596,,213803.40000000596,,213813.436,8,400,,,
break_continue,html.Screen,4_27_2,2023-09-12T19:44:47.318Z,,0,,,NaN,,,,,,false,,,,213804.40000000596,213804.29999998212,,213804.19999998808,,213813.436,8,400,,,
sequence,flow.Sequence,4_27,2023-09-12T19:44:47.318Z,,0,,,3117.416999982117,completion,,,,,false,,,,213804.5,213804.29999998212,210673.363,210678.19999998808,210686.883,213813.436,8,400,,,
trial,html.Screen,4_28_0,2023-09-12T19:44:51.284Z,,0,1,,3957.064000000013,response,ISIC_8174881.JPG,12,ISIC_2008230.JPG,ISIC_2008230.JPG,false,0,keypress(z),500,217770.69999998808,217770.5,213794.752,213804.69999998808,213813.436,217780.866,8,400,29,,ISIC_8174881.JPG
break,html.Screen,4_28_1,2023-09-12T19:44:51.285Z,,0,,,NaN,,,,,,false,,,,217771.59999999404,217771.40000000596,,217770.90000000596,,217780.866,8,400,,,
break_continue,html.Screen,4_28_2,2023-09-12T19:44:51.285Z,,0,,,NaN,,,,,,false,,,,217771.90000000596,217771.69999998808,,217771.59999999404,,217780.866,8,400,,,
sequence,flow.Sequence,4_28,2023-09-12T19:44:51.285Z,,0,,,3958.263999988092,completion,,,,,false,,,,217772,217771.69999998808,213794.752,213804.59999999404,213813.436,217780.866,8,400,,,
trial,html.Screen,4_29_0,2023-09-12T19:44:54.126Z,,0,1,,2831.7339999940305,response,ISIC_0030356.JPG,8,ISIC_8892663.JPG,ISIC_0030356.JPG,false,1,keypress(m),500,220612.79999998212,220612.59999999404,217761.877,217772.09999999404,217780.866,220625.181,8,400,30,,ISIC_8892663.JPG
break,html.Screen,4_29_1,2023-09-12T19:44:54.127Z,,0,,,NaN,,,,,,false,,,,220613.69999998808,220613.5,,220613.09999999404,,220625.181,8,400,,,
break_continue,html.Screen,4_29_2,2023-09-12T19:44:54.127Z,,0,,,NaN,,,,,,false,,,,220614,220613.90000000596,,220613.79999998212,,220625.181,8,400,,,
sequence,flow.Sequence,4_29,2023-09-12T19:44:54.127Z,,0,,,2833.0340000059514,completion,,,,,false,,,,220614.09999999404,220613.90000000596,217761.877,217772.09999999404,217780.866,220625.181,8,400,,,
trial,html.Screen,4_30_0,2023-09-12T19:44:57.284Z,,0,1,,3145.719000005949,response,ISIC_5697228.JPG,5,ISIC_5807112.JPG,ISIC_5807112.JPG,false,0,keypress(z),500,223771.09999999404,223770.90000000596,220608.58,220614.29999998212,220625.181,223793.262,8,400,31,,ISIC_5697228.JPG
break,html.Screen,4_30_1,2023-09-12T19:44:57.285Z,,0,,,NaN,,,,,,false,,,,223771.90000000596,223771.79999998212,,223771.40000000596,,223793.262,8,400,,,
break_continue,html.Screen,4_30_2,2023-09-12T19:44:57.285Z,,0,,,NaN,,,,,,false,,,,223772.19999998808,223772.09999999404,,223772,,223793.262,8,400,,,
sequence,flow.Sequence,4_30,2023-09-12T19:44:57.286Z,,0,,,3146.918999994028,completion,,,,,false,,,,223772.40000000596,223772.09999999404,220608.58,220614.19999998808,220625.181,223793.262,8,400,,,
trial,html.Screen,4_31_0,2023-09-12T19:45:01.405Z,,0,1,,4097.937999988091,response,ISIC_3877643.JPG,9,ISIC_0002862.JPG,ISIC_0002862.JPG,false,0,keypress(z),500,227891.5,227891.19999998808,223776.58,223772.59999999404,223793.262,227906.391,8,400,32,,ISIC_3877643.JPG
break,html.Screen,4_31_1,2023-09-12T19:45:01.406Z,,0,,,NaN,,,,,,false,,,,227892.40000000596,227892.19999998808,,227891.79999998212,,227906.391,8,400,,,
break_continue,html.Screen,4_31_2,2023-09-12T19:45:01.406Z,,0,,,NaN,,,,,,false,,,,227892.69999998808,227892.59999999404,,227892.5,,227906.391,8,400,,,
sequence,flow.Sequence,4_31,2023-09-12T19:45:01.406Z,,0,,,4099.337999994052,completion,,,,,false,,,,227892.90000000596,227892.59999999404,223776.58,223772.5,223793.262,227906.391,8,400,,,
trial,html.Screen,4_32_0,2023-09-12T19:45:05.178Z,,0,1,,3757.808999988076,response,ISIC_9756858.JPG,5,ISIC_0059485.JPG,ISIC_0059485.JPG,false,0,keypress(z),500,231664.59999999404,231664.19999998808,227889.51,227893,227906.391,231674.582,8,400,33,,ISIC_9756858.JPG
break,html.Screen,4_32_1,2023-09-12T19:45:05.179Z,,0,,,NaN,,,,,,false,,,,231665.29999998212,231665.09999999404,,231664.79999998212,,231674.582,8,400,,,
break_continue,html.Screen,4_32_2,2023-09-12T19:45:05.179Z,,0,,,NaN,,,,,,false,,,,231665.59999999404,231665.59999999404,,231665.40000000596,,231674.582,8,400,,,
sequence,flow.Sequence,4_32,2023-09-12T19:45:05.179Z,,0,,,3759.2089999940363,completion,,,,,false,,,,231665.79999998212,231665.59999999404,227889.51,227892.90000000596,227906.391,231674.582,8,400,,,
trial,html.Screen,4_33_0,2023-09-12T19:45:09.647Z,,0,1,,4458.818000005966,response,ISIC_0016123.JPG,10,ISIC_0025243.JPG,ISIC_0025243.JPG,false,0,keypress(z),500,236133.59999999404,236133.40000000596,231659.975,231665.90000000596,231674.582,236143.719,8,400,34,,ISIC_0016123.JPG
break,html.Screen,4_33_1,2023-09-12T19:45:09.648Z,,0,,,NaN,,,,,,false,,,,236134.5,236134.29999998212,,236133.90000000596,,236143.719,8,400,,,
break_continue,html.Screen,4_33_2,2023-09-12T19:45:09.648Z,,0,,,NaN,,,,,,false,,,,236134.79999998212,236134.69999998808,,236134.59999999404,,236143.719,8,400,,,
sequence,flow.Sequence,4_33,2023-09-12T19:45:09.648Z,,0,,,4460.117999988084,completion,,,,,false,,,,236134.90000000596,236134.69999998808,231659.975,231665.90000000596,231674.582,236143.719,8,400,,,
trial,html.Screen,4_34_0,2023-09-12T19:45:13.214Z,,0,1,,3556.6810000059486,response,ISIC_0061581.JPG,6,ISIC_6271218.JPG,ISIC_6271218.JPG,false,0,keypress(z),500,239700.59999999404,239700.40000000596,236125.757,236135.09999999404,236143.719,239710.748,8,400,35,,ISIC_0061581.JPG
break,html.Screen,4_34_1,2023-09-12T19:45:13.215Z,,0,,,NaN,,,,,,false,,,,239701.5,239701.29999998212,,239700.90000000596,,239710.748,8,400,,,
break_continue,html.Screen,4_34_2,2023-09-12T19:45:13.215Z,,0,,,NaN,,,,,,false,,,,239701.79999998212,239701.69999998808,,239701.59999999404,,239710.748,8,400,,,
sequence,flow.Sequence,4_34,2023-09-12T19:45:13.215Z,,0,,,3557.980999988067,completion,,,,,false,,,,239702,239701.69999998808,236125.757,236135,236143.719,239710.748,8,400,,,
trial,html.Screen,4_35_0,2023-09-12T19:45:17.717Z,,0,1,,4492.652000005968,response,ISIC_0588322.JPG,7,ISIC_0024513.JPG,ISIC_0588322.JPG,false,1,keypress(m),500,244203.69999998808,244203.40000000596,239688.998,239702.09999999404,239710.748,244213.844,8,400,36,,ISIC_0024513.JPG
break,html.Screen,4_35_1,2023-09-12T19:45:17.718Z,,0,,,NaN,,,,,,false,,,,244204.59999999404,244204.40000000596,,244204,,244213.844,8,400,,,
break_continue,html.Screen,4_35_2,2023-09-12T19:45:17.718Z,,0,,,NaN,,,,,,false,,,,244204.90000000596,244204.79999998212,,244204.59999999404,,244213.844,8,400,,,
sequence,flow.Sequence,4_35,2023-09-12T19:45:17.718Z,,0,,,4494.051999982126,completion,,,,,false,,,,244205.09999999404,244204.79999998212,239688.998,239702,239710.748,244213.844,8,400,,,
trial,html.Screen,4_36_0,2023-09-12T19:45:20.717Z,,0,1,,2989.5560000059486,response,ISIC_7125023.JPG,9,ISIC_0028788.JPG,ISIC_7125023.JPG,false,1,keypress(m),500,247203.69999998808,247203.40000000596,244201.54,244205.19999998808,244213.844,247213.883,8,400,37,,ISIC_0028788.JPG
break,html.Screen,4_36_1,2023-09-12T19:45:20.718Z,,0,,,NaN,,,,,,false,,,,247204.59999999404,247204.40000000596,,247203.90000000596,,247213.883,8,400,,,
break_continue,html.Screen,4_36_2,2023-09-12T19:45:20.718Z,,0,,,NaN,,,,,,false,,,,247204.90000000596,247204.79999998212,,247204.69999998808,,247213.883,8,400,,,
sequence,flow.Sequence,4_36,2023-09-12T19:45:20.718Z,,0,,,2990.9559999821067,completion,,,,,false,,,,247205,247204.79999998212,244201.54,244205.19999998808,244213.844,247213.883,8,400,,,
trial,html.Screen,4_37_0,2023-09-12T19:45:24.211Z,,0,1,,3484.1169999999984,response,ISIC_9001948.JPG,4,ISIC_1265382.JPG,ISIC_1265382.JPG,false,0,keypress(z),500,250698.19999998808,250698,247193.616,247205.19999998808,247213.883,250708.586,8,400,38,,ISIC_9001948.JPG
break,html.Screen,4_37_1,2023-09-12T19:45:24.212Z,,0,,,NaN,,,,,,false,,,,250699.09999999404,250698.90000000596,,250698.40000000596,,250708.586,8,400,,,
break_continue,html.Screen,4_37_2,2023-09-12T19:45:24.213Z,,0,,,NaN,,,,,,false,,,,250699.5,250699.40000000596,,250699.29999998212,,250708.586,8,400,,,
sequence,flow.Sequence,4_37,2023-09-12T19:45:24.213Z,,0,,,3485.517000005959,completion,,,,,false,,,,250699.59999999404,250699.40000000596,247193.616,247205.19999998808,247213.883,250708.586,8,400,,,
trial,html.Screen,4_38_0,2023-09-12T19:45:27.254Z,,0,1,,3032.4139999999898,response,ISIC_0059037.JPG,9,ISIC_7341401.JPG,ISIC_0059037.JPG,false,1,keypress(m),500,253741.29999998212,253741,250694.515,250699.79999998212,250708.586,253751.428,8,400,39,,ISIC_7341401.JPG
break,html.Screen,4_38_1,2023-09-12T19:45:27.255Z,,0,,,NaN,,,,,,false,,,,253742.19999998808,253742,,253741.59999999404,,253751.428,8,400,,,
break_continue,html.Screen,4_38_2,2023-09-12T19:45:27.256Z,,0,,,NaN,,,,,,false,,,,253742.59999999404,253742.5,,253742.40000000596,,253751.428,8,400,,,
sequence,flow.Sequence,4_38,2023-09-12T19:45:27.256Z,,0,,,3033.9139999999898,completion,,,,,false,,,,253742.79999998212,253742.5,250694.515,250699.69999998808,250708.586,253751.428,8,400,,,
trial,html.Screen,4_39_0,2023-09-12T19:45:30.651Z,,0,1,,3385.972000005946,response,ISIC_0067667.JPG,5,ISIC_0030110.JPG,ISIC_0030110.JPG,false,0,keypress(z),500,257137.59999999404,257137.40000000596,253734.584,253743,253751.428,257169.699,8,400,40,,ISIC_0067667.JPG
break,html.Screen,4_39_1,2023-09-12T19:45:30.652Z,,0,,,NaN,,,,,,false,,,,257138.29999998212,257138.19999998808,,257137.79999998212,,257169.699,8,400,,,
break_continue,html.Screen,4_39_2,2023-09-12T19:45:30.652Z,,0,,,NaN,,,,,,false,,,,257138.69999998808,257138.59999999404,,257138.5,,257169.699,8,400,,,
sequence,flow.Sequence,4_39,2023-09-12T19:45:30.652Z,,0,,,3387.171999994025,completion,,,,,false,,,,257138.90000000596,257138.59999999404,253734.584,253742.79999998212,253751.428,257169.699,8,400,,,
trial,html.Screen,4_40_0,2023-09-12T19:45:33.519Z,,0,1,,2836.201000005967,response,ISIC_2412888.JPG,10,ISIC_0032408.JPG,ISIC_0032408.JPG,false,0,keypress(z),500,260006.09999999404,260005.90000000596,257153.052,257139,257169.699,260016.138,8,400,41,,ISIC_2412888.JPG
break,html.Screen,4_40_1,2023-09-12T19:45:33.520Z,,0,,,NaN,,,,,,false,,,,260006.90000000596,260006.69999998808,,260006.29999998212,,260016.138,8,400,,,
break_continue,html.Screen,4_40_2,2023-09-12T19:45:33.520Z,,0,,,NaN,,,,,,false,,,,260007.19999998808,260007.09999999404,,260007,,260016.138,8,400,,,
sequence,flow.Sequence,4_40,2023-09-12T19:45:33.521Z,,0,,,2837.4009999940463,completion,,,,,false,,,,260007.40000000596,260007.09999999404,257153.052,257138.90000000596,257169.699,260016.138,8,400,,,
trial,html.Screen,4_41_0,2023-09-12T19:45:36.637Z,,0,1,,3106.9619999940332,response,ISIC_8127578.JPG,5,ISIC_6089318.JPG,ISIC_6089318.JPG,false,0,keypress(z),500,263123.2999999821,263123.09999999404,260002.475,260007.5,260016.138,263133.553,8,400,42,,ISIC_8127578.JPG
break,html.Screen,4_41_1,2023-09-12T19:45:36.637Z,,0,,,NaN,,,,,,false,,,,263124.2999999821,263124.09999999404,,263123.59999999404,,263133.553,8,400,,,
break_continue,html.Screen,4_41_2,2023-09-12T19:45:36.638Z,,0,,,NaN,,,,,,false,,,,263124.6999999881,263124.5,,263124.5,,263133.553,8,400,,,
sequence,flow.Sequence,4_41,2023-09-12T19:45:36.638Z,,0,,,3108.3619999999937,completion,,,,,false,,,,263124.7999999821,263124.5,260002.475,260007.5,260016.138,263133.553,8,400,,,
trial,html.Screen,4_42_0,2023-09-12T19:45:39.594Z,,0,1,,2946.847000005946,response,ISIC_0071352.JPG,9,ISIC_0059943.JPG,ISIC_0059943.JPG,false,0,keypress(z),500,266080.6999999881,266080.40000000596,263114.934,263124.90000000596,263133.553,266091.099,8,400,43,,ISIC_0071352.JPG
break,html.Screen,4_42_1,2023-09-12T19:45:39.595Z,,0,,,NaN,,,,,,false,,,,266081.6999999881,266081.59999999404,,266081,,266091.099,8,400,,,
break_continue,html.Screen,4_42_2,2023-09-12T19:45:39.595Z,,0,,,NaN,,,,,,false,,,,266082.09999999404,266081.90000000596,,266081.7999999821,,266091.099,8,400,,,
sequence,flow.Sequence,4_42,2023-09-12T19:45:39.595Z,,0,,,2948.347000005946,completion,,,,,false,,,,266082.1999999881,266081.90000000596,263114.934,263124.90000000596,263133.553,266091.099,8,400,,,
trial,html.Screen,4_43_0,2023-09-12T19:45:42.500Z,,0,1,,2895.4010000000126,response,ISIC_0034053.JPG,10,ISIC_7109582.JPG,ISIC_7109582.JPG,false,0,keypress(z),500,268986.59999999404,268986.5,266070.548,266082.2999999821,266091.099,268996.785,8,400,44,,ISIC_0034053.JPG
break,html.Screen,4_43_1,2023-09-12T19:45:42.501Z,,0,,,NaN,,,,,,false,,,,268987.5,268987.40000000596,,268986.90000000596,,268996.785,8,400,,,
break_continue,html.Screen,4_43_2,2023-09-12T19:45:42.501Z,,0,,,NaN,,,,,,false,,,,268987.7999999821,268987.6999999881,,268987.59999999404,,268996.785,8,400,,,
sequence,flow.Sequence,4_43,2023-09-12T19:45:42.501Z,,0,,,2896.6009999880916,completion,,,,,false,,,,268987.90000000596,268987.6999999881,266070.548,266082.2999999821,266091.099,268996.785,8,400,,,
trial,html.Screen,4_44_0,2023-09-12T19:45:45.932Z,,0,1,,3422.314999994065,response,ISIC_0007619.JPG,8,ISIC_0070048.JPG,ISIC_0070048.JPG,false,0,keypress(z),500,272419.2999999821,272419.09999999404,268984.011,268988.09999999404,268996.785,272429.537,8,400,45,,ISIC_0007619.JPG
break,html.Screen,4_44_1,2023-09-12T19:45:45.933Z,,0,,,NaN,,,,,,false,,,,272420.1999999881,272420.09999999404,,272419.5,,272429.537,8,400,,,
break_continue,html.Screen,4_44_2,2023-09-12T19:45:45.934Z,,0,,,NaN,,,,,,false,,,,272420.59999999404,272420.5,,272420.40000000596,,272429.537,8,400,,,
sequence,flow.Sequence,4_44,2023-09-12T19:45:45.934Z,,0,,,3423.7150000000256,completion,,,,,false,,,,272420.7999999821,272420.5,268984.011,268988.09999999404,268996.785,272429.537,8,400,,,
trial,html.Screen,4_45_0,2023-09-12T19:45:49.108Z,,0,1,,3165.5629999940284,response,ISIC_0057083.JPG,6,ISIC_9596388.JPG,ISIC_0057083.JPG,false,1,keypress(m),500,275595.2999999821,275595.09999999404,272412.772,272420.90000000596,272429.537,275605.448,8,400,46,,ISIC_9596388.JPG
break,html.Screen,4_45_1,2023-09-12T19:45:49.109Z,,0,,,NaN,,,,,,false,,,,275596.1999999881,275596,,275595.5,,275605.448,8,400,,,
break_continue,html.Screen,4_45_2,2023-09-12T19:45:49.110Z,,0,,,NaN,,,,,,false,,,,275596.5,275596.2999999821,,275596.2999999821,,275605.448,8,400,,,
sequence,flow.Sequence,4_45,2023-09-12T19:45:49.110Z,,0,,,3166.7629999821074,completion,,,,,false,,,,275596.6999999881,275596.2999999821,272412.772,272420.90000000596,272429.537,275605.448,8,400,,,
trial,html.Screen,4_46_0,2023-09-12T19:45:52.424Z,,0,1,,3304.6519999940647,response,ISIC_0064307.JPG,4,ISIC_9989936.JPG,ISIC_0064307.JPG,false,1,keypress(m),500,278910.2999999821,278910.09999999404,275589.743,275596.90000000596,275605.448,278942.406,8,400,47,,ISIC_9989936.JPG
break,html.Screen,4_46_1,2023-09-12T19:45:52.424Z,,0,,,NaN,,,,,,false,,,,278911.09999999404,278910.90000000596,,278910.5,,278942.406,8,400,,,
break_continue,html.Screen,4_46_2,2023-09-12T19:45:52.425Z,,0,,,NaN,,,,,,false,,,,278911.40000000596,278911.2999999821,,278911.1999999881,,278942.406,8,400,,,
sequence,flow.Sequence,4_46,2023-09-12T19:45:52.425Z,,0,,,3305.8519999821438,completion,,,,,false,,,,278911.59999999404,278911.2999999821,275589.743,275596.7999999821,275605.448,278942.406,8,400,,,
trial,html.Screen,4_47_0,2023-09-12T19:45:55.491Z,,0,1,,3034.9940000059432,response,ISIC_1560272.JPG,8,ISIC_0014708.JPG,ISIC_0014708.JPG,false,0,keypress(z),500,281977.7999999821,281977.40000000596,278925.723,278911.6999999881,278942.406,281987.824,8,400,48,,ISIC_1560272.JPG
break,html.Screen,4_47_1,2023-09-12T19:45:55.492Z,,0,,,NaN,,,,,,false,,,,281978.59999999404,281978.5,,281978,,281987.824,8,400,,,
break_continue,html.Screen,4_47_2,2023-09-12T19:45:55.492Z,,0,,,NaN,,,,,,false,,,,281979,281978.7999999821,,281978.7999999821,,281987.824,8,400,,,
sequence,flow.Sequence,4_47,2023-09-12T19:45:55.492Z,,0,,,3036.3939999821014,completion,,,,,false,,,,281979.1999999881,281978.7999999821,278925.723,278911.6999999881,278942.406,281987.824,8,400,,,
trial,html.Screen,4_48_0,2023-09-12T19:45:59.069Z,,0,1,,3567.3759999880567,response,ISIC_0000440.JPG,10,ISIC_2918117.JPG,ISIC_2918117.JPG,false,0,keypress(z),500,285555.59999999404,285555.1999999881,281976.486,281979.2999999821,281987.824,285587.527,8,400,49,,ISIC_0000440.JPG
break,html.Screen,4_48_1,2023-09-12T19:45:59.070Z,,0,,,NaN,,,,,,false,,,,285556.2999999821,285556.1999999881,,285555.6999999881,,285587.527,8,400,,,
break_continue,html.Screen,4_48_2,2023-09-12T19:45:59.070Z,,0,,,NaN,,,,,,false,,,,285556.6999999881,285556.59999999404,,285556.5,,285587.527,8,400,,,
sequence,flow.Sequence,4_48,2023-09-12T19:45:59.070Z,,0,,,3568.775999994017,completion,,,,,false,,,,285556.90000000596,285556.59999999404,281976.486,281979.1999999881,281987.824,285587.527,8,400,,,
trial,html.Screen,4_49_0,2023-09-12T19:46:04.554Z,,0,1,,5452.672999988077,response,ISIC_4084359.JPG,5,ISIC_7127760.JPG,ISIC_4084359.JPG,false,1,keypress(m),500,291040.40000000596,291040.1999999881,285570.889,285557,285587.527,291050.545,8,400,50,,ISIC_7127760.JPG
break,html.Screen,4_49_1,2023-09-12T19:46:14.548Z,,0,,,10000.214000000036,timeout,,,,,false,,,,301035,301034.1,291038.292,291040.59999999404,291050.545,301050.759,8,400,,,
break_continue,html.Screen,4_49_2,2023-09-12T19:46:20.075Z,,0,,,5503.74099999998,response,,,,,false,continue,keypress(Space),,306562.6999999881,306554.5,301034.1,301035.09999999404,301050.759,306572.266,8,400,,,
sequence,flow.Sequence,4_49,2023-09-12T19:46:20.076Z,,0,,,20966.972999999998,completion,,,,,false,,,,306562.6999999881,306554.5,285570.889,285557,285587.527,306572.266,8,400,,,
trial,html.Screen,4_50_0,2023-09-12T19:46:23.156Z,,0,2,,3070.8339999940363,response,ISIC_0056155.JPG,7,ISIC_6208107.JPG,ISIC_0056155.JPG,false,1,keypress(m),500,309643.40000000596,309643.09999999404,306551.904,306562.7999999821,306572.266,309653.751,8,400,1,,ISIC_6208107.JPG
break,html.Screen,4_50_1,2023-09-12T19:46:23.157Z,,0,,,NaN,,,,,,false,,,,309644.40000000596,309644.1999999881,,309643.6999999881,,309653.751,8,400,,,
break_continue,html.Screen,4_50_2,2023-09-12T19:46:23.157Z,,0,,,NaN,,,,,,false,,,,309644.7999999821,309644.59999999404,,309644.59999999404,,309653.751,8,400,,,
sequence,flow.Sequence,4_50,2023-09-12T19:46:23.158Z,,0,,,3072.3339999940363,completion,,,,,false,,,,309644.90000000596,309644.59999999404,306551.904,306562.7999999821,306572.266,309653.751,8,400,,,
trial,html.Screen,4_51_0,2023-09-12T19:46:26.285Z,,0,2,,3118.149000005971,response,ISIC_3728352.JPG,5,ISIC_7035368.JPG,ISIC_7035368.JPG,false,0,keypress(z),500,312772.09999999404,312771.90000000596,309638.556,309645,309653.751,312782.358,8,400,2,,ISIC_3728352.JPG
break,html.Screen,4_51_1,2023-09-12T19:46:26.286Z,,0,,,NaN,,,,,,false,,,,312773,312772.7999999821,,312772.2999999821,,312782.358,8,400,,,
break_continue,html.Screen,4_51_2,2023-09-12T19:46:26.286Z,,0,,,NaN,,,,,,false,,,,312773.40000000596,312773.2999999821,,312773.1999999881,,312782.358,8,400,,,
sequence,flow.Sequence,4_51,2023-09-12T19:46:26.286Z,,0,,,3119.5489999821293,completion,,,,,false,,,,312773.5,312773.2999999821,309638.556,309645,309653.751,312782.358,8,400,,,
trial,html.Screen,4_52_0,2023-09-12T19:46:29.304Z,,0,2,,3008.241999994032,response,ISIC_0029761.JPG,12,ISIC_3649113.JPG,ISIC_0029761.JPG,false,1,keypress(m),500,315790.7999999821,315790.59999999404,312760.61,312773.6999999881,312782.358,315800.917,8,400,3,,ISIC_3649113.JPG
break,html.Screen,4_52_1,2023-09-12T19:46:29.305Z,,0,,,NaN,,,,,,false,,,,315791.6999999881,315791.59999999404,,315791.09999999404,,315800.917,8,400,,,
break_continue,html.Screen,4_52_2,2023-09-12T19:46:29.305Z,,0,,,NaN,,,,,,false,,,,315792.1999999881,315792.09999999404,,315791.90000000596,,315800.917,8,400,,,
sequence,flow.Sequence,4_52,2023-09-12T19:46:29.305Z,,0,,,3009.741999994032,completion,,,,,false,,,,315792.40000000596,315792.09999999404,312760.61,312773.59999999404,312782.358,315800.917,8,400,,,
trial,html.Screen,4_53_0,2023-09-12T19:46:33.696Z,,0,2,,4381.682999994024,response,ISIC_8234773.JPG,4,ISIC_0073043.JPG,ISIC_0073043.JPG,false,0,keypress(z),500,320182.7999999821,320182.59999999404,315778.003,315792.59999999404,315800.917,320192.927,8,400,4,,ISIC_8234773.JPG
break,html.Screen,4_53_1,2023-09-12T19:46:33.696Z,,0,,,NaN,,,,,,false,,,,320183.59999999404,320183.5,,320183.09999999404,,320192.927,8,400,,,
break_continue,html.Screen,4_53_2,2023-09-12T19:46:33.697Z,,0,,,NaN,,,,,,false,,,,320183.90000000596,320183.7999999821,,320183.6999999881,,320192.927,8,400,,,
sequence,flow.Sequence,4_53,2023-09-12T19:46:33.697Z,,0,,,4382.882999982103,completion,,,,,false,,,,320184.09999999404,320183.7999999821,315778.003,315792.5,315800.917,320192.927,8,400,,,
trial,html.Screen,4_54_0,2023-09-12T19:46:36.755Z,,0,2,,3048.8729999820935,response,ISIC_0025796.JPG,8,ISIC_6813359.JPG,ISIC_6813359.JPG,false,0,keypress(z),500,323242.09999999404,323241.7999999821,320175.362,320184.1999999881,320192.927,323252.16,8,400,5,,ISIC_0025796.JPG
break,html.Screen,4_54_1,2023-09-12T19:46:36.756Z,,0,,,NaN,,,,,,false,,,,323242.90000000596,323242.6999999881,,323242.1999999881,,323252.16,8,400,,,
break_continue,html.Screen,4_54_2,2023-09-12T19:46:36.756Z,,0,,,NaN,,,,,,false,,,,323243.1999999881,323243,,323242.90000000596,,323252.16,8,400,,,
sequence,flow.Sequence,4_54,2023-09-12T19:46:36.756Z,,0,,,3050.072999999975,completion,,,,,false,,,,323243.2999999821,323243,320175.362,320184.1999999881,320192.927,323252.16,8,400,,,
trial,html.Screen,4_55_0,2023-09-12T19:46:40.250Z,,0,2,,3484.240000005986,response,ISIC_4062017.JPG,7,ISIC_0010592.JPG,ISIC_0010592.JPG,false,0,keypress(z),500,326736.6999999881,326736.40000000596,323234.1,323243.40000000596,323252.16,326747.072,8,400,6,,ISIC_4062017.JPG
break,html.Screen,4_55_1,2023-09-12T19:46:40.250Z,,0,,,NaN,,,,,,false,,,,326737.59999999404,326737.5,,326736.90000000596,,326747.072,8,400,,,
break_continue,html.Screen,4_55_2,2023-09-12T19:46:40.251Z,,0,,,NaN,,,,,,false,,,,326738.09999999404,326737.90000000596,,326737.90000000596,,326747.072,8,400,,,
sequence,flow.Sequence,4_55,2023-09-12T19:46:40.251Z,,0,,,3485.740000005986,completion,,,,,false,,,,326738.1999999881,326737.90000000596,323234.1,323243.40000000596,323252.16,326747.072,8,400,,,
trial,html.Screen,4_56_0,2023-09-12T19:46:44.049Z,,0,2,,3789.227999982133,response,ISIC_3286956.JPG,12,ISIC_4034644.JPG,ISIC_3286956.JPG,false,1,keypress(m),500,330536.5,330536.2999999821,326730.97,326738.2999999821,326747.072,330546.546,8,400,7,,ISIC_4034644.JPG
break,html.Screen,4_56_1,2023-09-12T19:46:44.050Z,,0,,,NaN,,,,,,false,,,,330537.2999999821,330537.1999999881,,330536.6999999881,,330546.546,8,400,,,
break_continue,html.Screen,4_56_2,2023-09-12T19:46:44.050Z,,0,,,NaN,,,,,,false,,,,330537.6999999881,330537.59999999404,,330537.5,,330546.546,8,400,,,
sequence,flow.Sequence,4_56,2023-09-12T19:46:44.051Z,,0,,,3790.527999994054,completion,,,,,false,,,,330537.7999999821,330537.59999999404,326730.97,326738.1999999881,326747.072,330546.546,8,400,,,
trial,html.Screen,4_57_0,2023-09-12T19:46:46.692Z,,0,2,,2632.3540000059875,response,ISIC_8663136.JPG,10,ISIC_3006279.JPG,ISIC_3006279.JPG,false,0,keypress(z),500,333179.09999999404,333178.90000000596,330532.038,330537.90000000596,330546.546,333209.307,8,400,8,,ISIC_8663136.JPG
break,html.Screen,4_57_1,2023-09-12T19:46:46.693Z,,0,,,NaN,,,,,,false,,,,333179.90000000596,333179.6999999881,,333179.2999999821,,333209.307,8,400,,,
break_continue,html.Screen,4_57_2,2023-09-12T19:46:46.693Z,,0,,,NaN,,,,,,false,,,,333180.09999999404,333180.09999999404,,333179.90000000596,,333209.307,8,400,,,
sequence,flow.Sequence,4_57,2023-09-12T19:46:46.693Z,,0,,,2633.5539999940665,completion,,,,,false,,,,333180.40000000596,333180.09999999404,330532.038,330537.7999999821,330546.546,333209.307,8,400,,,
trial,html.Screen,4_58_0,2023-09-12T19:46:49.834Z,,0,2,,3111.6930000000284,response,ISIC_0616491.JPG,8,ISIC_3397174.JPG,ISIC_0616491.JPG,false,1,keypress(m),500,336321.1999999881,336321,333192.608,333180.40000000596,333209.307,336331.483,8,400,9,,ISIC_3397174.JPG
break,html.Screen,4_58_1,2023-09-12T19:46:49.835Z,,0,,,NaN,,,,,,false,,,,336322.09999999404,336321.90000000596,,336321.40000000596,,336331.483,8,400,,,
break_continue,html.Screen,4_58_2,2023-09-12T19:46:49.835Z,,0,,,NaN,,,,,,false,,,,336322.40000000596,336322.2999999821,,336322.1999999881,,336331.483,8,400,,,
sequence,flow.Sequence,4_58,2023-09-12T19:46:49.835Z,,0,,,3112.992999982147,completion,,,,,false,,,,336322.5,336322.2999999821,333192.608,333180.40000000596,333209.307,336331.483,8,400,,,
trial,html.Screen,4_59_0,2023-09-12T19:46:53.232Z,,0,2,,3387.616999994032,response,ISIC_1925632.JPG,9,ISIC_1375476.JPG,ISIC_1375476.JPG,false,0,keypress(z),500,339719.2999999821,339719.09999999404,336310.77,336322.6999999881,336331.483,339729.494,8,400,10,,ISIC_1925632.JPG
break,html.Screen,4_59_1,2023-09-12T19:46:53.233Z,,0,,,NaN,,,,,,false,,,,339720.2999999821,339720.09999999404,,339719.6999999881,,339729.494,8,400,,,
break_continue,html.Screen,4_59_2,2023-09-12T19:46:53.233Z,,0,,,NaN,,,,,,false,,,,339720.5,339720.40000000596,,339720.40000000596,,339729.494,8,400,,,
sequence,flow.Sequence,4_59,2023-09-12T19:46:53.234Z,,0,,,3388.917000005953,completion,,,,,false,,,,339720.7999999821,339720.40000000596,336310.77,336322.6999999881,336331.483,339729.494,8,400,,,
trial,html.Screen,4_60_0,2023-09-12T19:46:56.089Z,,0,2,,2846.8059999821126,response,ISIC_4393704.JPG,9,ISIC_0197584.JPG,ISIC_0197584.JPG,false,0,keypress(z),500,342576.59999999404,342576.2999999821,339716.601,339720.90000000596,339729.494,342586.82,8,400,11,,ISIC_4393704.JPG
break,html.Screen,4_60_1,2023-09-12T19:46:56.090Z,,0,,,NaN,,,,,,false,,,,342577.5,342577.2999999821,,342576.7999999821,,342586.82,8,400,,,
break_continue,html.Screen,4_60_2,2023-09-12T19:46:56.091Z,,0,,,NaN,,,,,,false,,,,342577.7999999821,342577.6999999881,,342577.59999999404,,342586.82,8,400,,,
sequence,flow.Sequence,4_60,2023-09-12T19:46:56.091Z,,0,,,2848.205999988073,completion,,,,,false,,,,342578,342577.6999999881,339716.601,339720.90000000596,339729.494,342586.82,8,400,,,
trial,html.Screen,4_61_0,2023-09-12T19:46:59.156Z,,0,2,,3055.9799999821116,response,ISIC_0069505.JPG,11,ISIC_0010960.JPG,ISIC_0069505.JPG,false,1,keypress(m),500,345643,345642.7999999821,342576.398,342578.09999999404,342586.82,345653.185,8,400,12,,ISIC_0010960.JPG
break,html.Screen,4_61_1,2023-09-12T19:46:59.157Z,,0,,,NaN,,,,,,false,,,,345643.90000000596,345643.6999999881,,345643.1999999881,,345653.185,8,400,,,
break_continue,html.Screen,4_61_2,2023-09-12T19:46:59.157Z,,0,,,NaN,,,,,,false,,,,345644.09999999404,345644.09999999404,,345644,,345653.185,8,400,,,
sequence,flow.Sequence,4_61,2023-09-12T19:46:59.157Z,,0,,,3057.2799999940326,completion,,,,,false,,,,345644.2999999821,345644.09999999404,342576.398,342578,342586.82,345653.185,8,400,,,
trial,html.Screen,4_62_0,2023-09-12T19:47:02.139Z,,0,2,,2972.614999982121,response,ISIC_0001745.JPG,9,ISIC_5642824.JPG,ISIC_5642824.JPG,false,0,keypress(z),500,348626.1999999881,348625.7999999821,345637.03,345644.40000000596,345653.185,348636.043,8,400,13,,ISIC_0001745.JPG
break,html.Screen,4_62_1,2023-09-12T19:47:02.140Z,,0,,,NaN,,,,,,false,,,,348627.09999999404,348626.90000000596,,348626.40000000596,,348636.043,8,400,,,
break_continue,html.Screen,4_62_2,2023-09-12T19:47:02.140Z,,0,,,NaN,,,,,,false,,,,348627.2999999821,348627.1999999881,,348627.09999999404,,348636.043,8,400,,,
sequence,flow.Sequence,4_62,2023-09-12T19:47:02.140Z,,0,,,2974.0149999880814,completion,,,,,false,,,,348627.5,348627.1999999881,345637.03,345644.40000000596,345653.185,348636.043,8,400,,,
trial,html.Screen,4_63_0,2023-09-12T19:47:06.501Z,,0,2,,4352.357000005955,response,ISIC_0413804.JPG,8,ISIC_1874480.JPG,ISIC_1874480.JPG,false,0,keypress(z),500,352988.6999999881,352988.40000000596,348616.185,348627.59999999404,348636.043,352998.825,8,400,14,,ISIC_0413804.JPG
break,html.Screen,4_63_1,2023-09-12T19:47:06.502Z,,0,,,NaN,,,,,,false,,,,352989.6999999881,352989.5,,352988.90000000596,,352998.825,8,400,,,
break_continue,html.Screen,4_63_2,2023-09-12T19:47:06.503Z,,0,,,NaN,,,,,,false,,,,352990.2999999821,352989.90000000596,,352989.6999999881,,352998.825,8,400,,,
sequence,flow.Sequence,4_63,2023-09-12T19:47:06.503Z,,0,,,4353.857000005955,completion,,,,,false,,,,352990.5,352989.90000000596,348616.185,348627.5,348636.043,352998.825,8,400,,,
trial,html.Screen,4_64_0,2023-09-12T19:47:10.670Z,,0,2,,4158.075000005949,response,ISIC_9765024.JPG,6,ISIC_0066203.JPG,ISIC_0066203.JPG,false,0,keypress(z),500,357157.09999999404,357156.90000000596,352981.392,352990.6999999881,352998.825,357167.235,8,400,15,,ISIC_9765024.JPG
break,html.Screen,4_64_1,2023-09-12T19:47:10.671Z,,0,,,NaN,,,,,,false,,,,357158,357157.6999999881,,357157.2999999821,,357167.235,8,400,,,
break_continue,html.Screen,4_64_2,2023-09-12T19:47:10.671Z,,0,,,NaN,,,,,,false,,,,357158.2999999821,357158.1999999881,,357158.09999999404,,357167.235,8,400,,,
sequence,flow.Sequence,4_64,2023-09-12T19:47:10.671Z,,0,,,4159.374999988067,completion,,,,,false,,,,357158.5,357158.1999999881,352981.392,352990.59999999404,352998.825,357167.235,8,400,,,
trial,html.Screen,4_65_0,2023-09-12T19:47:13.411Z,,0,2,,2730.765000000014,response,ISIC_3392433.JPG,11,ISIC_0010411.JPG,ISIC_0010411.JPG,false,0,keypress(z),500,359898.1999999881,359898,357157.524,357158.59999999404,357167.235,359908.37,8,400,16,,ISIC_3392433.JPG
break,html.Screen,4_65_1,2023-09-12T19:47:13.412Z,,0,,,NaN,,,,,,false,,,,359899.09999999404,359899,,359898.5,,359908.37,8,400,,,
break_continue,html.Screen,4_65_2,2023-09-12T19:47:13.412Z,,0,,,NaN,,,,,,false,,,,359899.5,359899.40000000596,,359899.2999999821,,359908.37,8,400,,,
sequence,flow.Sequence,4_65,2023-09-12T19:47:13.412Z,,0,,,2732.1650000059744,completion,,,,,false,,,,359899.59999999404,359899.40000000596,357157.524,357158.59999999404,357167.235,359908.37,8,400,,,
trial,html.Screen,4_66_0,2023-09-12T19:47:17.518Z,,0,2,,4096.329999988084,response,ISIC_7139908.JPG,9,ISIC_6414435.JPG,ISIC_6414435.JPG,false,0,keypress(z),500,364004.90000000596,364004.6999999881,359889.64,359899.7999999821,359908.37,364015.384,8,400,17,,ISIC_7139908.JPG
break,html.Screen,4_66_1,2023-09-12T19:47:17.519Z,,0,,,NaN,,,,,,false,,,,364005.7999999821,364005.59999999404,,364005.09999999404,,364015.384,8,400,,,
break_continue,html.Screen,4_66_2,2023-09-12T19:47:17.519Z,,0,,,NaN,,,,,,false,,,,364006.09999999404,364006,,364005.90000000596,,364015.384,8,400,,,
sequence,flow.Sequence,4_66,2023-09-12T19:47:17.519Z,,0,,,4097.630000000005,completion,,,,,false,,,,364006.1999999881,364006,359889.64,359899.7999999821,359908.37,364015.384,8,400,,,
trial,html.Screen,4_67_0,2023-09-12T19:47:20.969Z,,0,2,,3440.5160000059404,response,ISIC_0054341.JPG,7,ISIC_0028317.JPG,ISIC_0054341.JPG,false,1,keypress(m),500,367456,367455.90000000596,363989.908,364006.2999999821,364015.384,367466.107,8,400,18,,ISIC_0028317.JPG
break,html.Screen,4_67_1,2023-09-12T19:47:20.970Z,,0,,,NaN,,,,,,false,,,,367456.90000000596,367456.6999999881,,367456.1999999881,,367466.107,8,400,,,
break_continue,html.Screen,4_67_2,2023-09-12T19:47:20.970Z,,0,,,NaN,,,,,,false,,,,367457.1999999881,367457.1999999881,,367457.09999999404,,367466.107,8,400,,,
sequence,flow.Sequence,4_67,2023-09-12T19:47:20.971Z,,0,,,3441.815999988059,completion,,,,,false,,,,367457.40000000596,367457.1999999881,363989.908,364006.2999999821,364015.384,367466.107,8,400,,,
trial,html.Screen,4_68_0,2023-09-12T19:47:24.706Z,,0,2,,3726.892999999982,response,ISIC_2884038.JPG,13,ISIC_0072010.JPG,ISIC_0072010.JPG,false,0,keypress(z),500,371193.1999999881,371193,367449.769,367457.5,367466.107,371203.354,8,400,19,,ISIC_2884038.JPG
break,html.Screen,4_68_1,2023-09-12T19:47:24.707Z,,0,,,NaN,,,,,,false,,,,371194,371193.7999999821,,371193.40000000596,,371203.354,8,400,,,
break_continue,html.Screen,4_68_2,2023-09-12T19:47:24.708Z,,0,,,NaN,,,,,,false,,,,371194.2999999821,371194.1999999881,,371194.09999999404,,371203.354,8,400,,,
sequence,flow.Sequence,4_68,2023-09-12T19:47:24.708Z,,0,,,3728.092999988061,completion,,,,,false,,,,371194.5,371194.1999999881,367449.769,367457.40000000596,367466.107,371203.354,8,400,,,
trial,html.Screen,4_69_0,2023-09-12T19:47:28.346Z,,0,2,,3628.845999988087,response,ISIC_2424673.JPG,8,ISIC_0010958.JPG,ISIC_0010958.JPG,false,0,keypress(z),500,374832.40000000596,374832.1999999881,371182.508,371194.59999999404,371203.354,374842.48,8,400,20,,ISIC_2424673.JPG
break,html.Screen,4_69_1,2023-09-12T19:47:28.346Z,,0,,,NaN,,,,,,false,,,,374833.2999999821,374833.09999999404,,374832.59999999404,,374842.48,8,400,,,
break_continue,html.Screen,4_69_2,2023-09-12T19:47:28.347Z,,0,,,NaN,,,,,,false,,,,374833.59999999404,374833.5,,374833.40000000596,,374842.48,8,400,,,
sequence,flow.Sequence,4_69,2023-09-12T19:47:28.347Z,,0,,,3630.146000000008,completion,,,,,false,,,,374833.6999999881,374833.5,371182.508,371194.5,371203.354,374842.48,8,400,,,
trial,html.Screen,4_70_0,2023-09-12T19:47:31.152Z,,0,2,,2795.619999994058,response,ISIC_0026009.JPG,11,ISIC_5315125.JPG,ISIC_5315125.JPG,false,0,keypress(z),500,377638.40000000596,377638.09999999404,374823.385,374833.90000000596,374842.48,377648.599,8,400,21,,ISIC_0026009.JPG
break,html.Screen,4_70_1,2023-09-12T19:47:31.152Z,,0,,,NaN,,,,,,false,,,,377639.1999999881,377639.09999999404,,377638.59999999404,,377648.599,8,400,,,
break_continue,html.Screen,4_70_2,2023-09-12T19:47:31.153Z,,0,,,NaN,,,,,,false,,,,377639.59999999404,377639.5,,377639.40000000596,,377648.599,8,400,,,
sequence,flow.Sequence,4_70,2023-09-12T19:47:31.153Z,,0,,,2797.0200000000186,completion,,,,,false,,,,377639.6999999881,377639.5,374823.385,374833.90000000596,374842.48,377648.599,8,400,,,
trial,html.Screen,4_71_0,2023-09-12T19:47:34.397Z,,0,2,,3234.700999982131,response,ISIC_4043580.JPG,5,ISIC_7011122.JPG,ISIC_4043580.JPG,false,1,keypress(m),500,380883.5,380883.2999999821,377626.761,377639.90000000596,377648.599,380893.875,8,400,22,,ISIC_7011122.JPG
break,html.Screen,4_71_1,2023-09-12T19:47:34.397Z,,0,,,NaN,,,,,,false,,,,380884.2999999821,380884.09999999404,,380883.6999999881,,380893.875,8,400,,,
break_continue,html.Screen,4_71_2,2023-09-12T19:47:34.398Z,,0,,,NaN,,,,,,false,,,,380884.59999999404,380884.5,,380884.40000000596,,380893.875,8,400,,,
sequence,flow.Sequence,4_71,2023-09-12T19:47:34.398Z,,0,,,3235.9010000000126,completion,,,,,false,,,,380884.6999999881,380884.5,377626.761,377639.90000000596,377648.599,380893.875,8,400,,,
trial,html.Screen,4_72_0,2023-09-12T19:47:37.097Z,,0,2,,2689.4249999821186,response,ISIC_2916677.JPG,11,ISIC_1851112.JPG,ISIC_1851112.JPG,false,0,keypress(z),500,383583.5,383583.2999999821,380870.453,380884.7999999821,380893.875,383593.611,8,400,23,,ISIC_2916677.JPG
break,html.Screen,4_72_1,2023-09-12T19:47:37.098Z,,0,,,NaN,,,,,,false,,,,383584.40000000596,383584.1999999881,,383583.6999999881,,383593.611,8,400,,,
break_continue,html.Screen,4_72_2,2023-09-12T19:47:37.098Z,,0,,,NaN,,,,,,false,,,,383584.6999999881,383584.59999999404,,383584.5,,383593.611,8,400,,,
sequence,flow.Sequence,4_72,2023-09-12T19:47:37.098Z,,0,,,2690.7249999940395,completion,,,,,false,,,,383584.7999999821,383584.59999999404,380870.453,380884.7999999821,380893.875,383593.611,8,400,,,
trial,html.Screen,4_73_0,2023-09-12T19:47:40.079Z,,0,2,,2971.5889999881038,response,ISIC_0033194.JPG,10,ISIC_0070679.JPG,ISIC_0033194.JPG,false,1,keypress(m),500,386565.5,386565.1999999881,383573.622,383585,383593.611,386575.655,8,400,24,,ISIC_0070679.JPG
break,html.Screen,4_73_1,2023-09-12T19:47:40.080Z,,0,,,NaN,,,,,,false,,,,386566.40000000596,386566.1999999881,,386565.6999999881,,386575.655,8,400,,,
break_continue,html.Screen,4_73_2,2023-09-12T19:47:40.080Z,,0,,,NaN,,,,,,false,,,,386566.6999999881,386566.59999999404,,386566.5,,386575.655,8,400,,,
sequence,flow.Sequence,4_73,2023-09-12T19:47:40.080Z,,0,,,2972.988999994064,completion,,,,,false,,,,386566.90000000596,386566.59999999404,383573.622,383585,383593.611,386575.655,8,400,,,
trial,html.Screen,4_74_0,2023-09-12T19:47:42.701Z,,0,2,,2611.4449999940116,response,ISIC_0029106.JPG,12,ISIC_1076474.JPG,ISIC_1076474.JPG,false,0,keypress(z),500,389187.40000000596,389187.09999999404,386565.644,386567,386575.655,389197.608,8,400,25,,ISIC_0029106.JPG
break,html.Screen,4_74_1,2023-09-12T19:47:42.702Z,,0,,,NaN,,,,,,false,,,,389188.2999999821,389188.09999999404,,389187.59999999404,,389197.608,8,400,,,
break_continue,html.Screen,4_74_2,2023-09-12T19:47:42.702Z,,0,,,NaN,,,,,,false,,,,389188.6999999881,389188.59999999404,,389188.40000000596,,389197.608,8,400,,,
sequence,flow.Sequence,4_74,2023-09-12T19:47:42.702Z,,0,,,2612.9449999940116,completion,,,,,false,,,,389188.7999999821,389188.59999999404,386565.644,386567,386575.655,389197.608,8,400,,,
trial,html.Screen,4_75_0,2023-09-12T19:47:45.504Z,,0,2,,2792.8919999999925,response,ISIC_2863397.JPG,8,ISIC_9126992.JPG,ISIC_9126992.JPG,false,0,keypress(z),500,391990.6999999881,391990.5,389175.658,389188.90000000596,389197.608,392000.934,8,400,26,,ISIC_2863397.JPG
break,html.Screen,4_75_1,2023-09-12T19:47:45.505Z,,0,,,NaN,,,,,,false,,,,391991.59999999404,391991.5,,391991,,392000.934,8,400,,,
break_continue,html.Screen,4_75_2,2023-09-12T19:47:45.505Z,,0,,,NaN,,,,,,false,,,,391991.90000000596,391991.7999999821,,391991.6999999881,,392000.934,8,400,,,
sequence,flow.Sequence,4_75,2023-09-12T19:47:45.505Z,,0,,,2794.191999982111,completion,,,,,false,,,,391992,391991.7999999821,389175.658,389188.7999999821,389197.608,392000.934,8,400,,,
trial,html.Screen,4_76_0,2023-09-12T19:47:51.206Z,,0,2,,5691.165999994031,response,ISIC_7330564.JPG,4,ISIC_0027081.JPG,ISIC_7330564.JPG,false,1,keypress(m),500,397692.40000000596,397692.09999999404,391979.952,391992.09999999404,392000.934,397702.411,8,400,27,,ISIC_0027081.JPG
break,html.Screen,4_76_1,2023-09-12T19:47:51.206Z,,0,,,NaN,,,,,,false,,,,397693.1999999881,397693,,397692.5,,397702.411,8,400,,,
break_continue,html.Screen,4_76_2,2023-09-12T19:47:51.207Z,,0,,,NaN,,,,,,false,,,,397693.40000000596,397693.40000000596,,397693.2999999821,,397702.411,8,400,,,
sequence,flow.Sequence,4_76,2023-09-12T19:47:51.207Z,,0,,,5692.466000005952,completion,,,,,false,,,,397693.59999999404,397693.40000000596,391979.952,391992,392000.934,397702.411,8,400,,,
trial,html.Screen,4_77_0,2023-09-12T19:47:54.238Z,,0,2,,3021.9890000059386,response,ISIC_1798471.JPG,11,ISIC_2833213.JPG,ISIC_1798471.JPG,false,1,keypress(m),500,400724.6999999881,400724.40000000596,397693.003,397693.6999999881,397702.411,400732.321,8,400,28,,ISIC_2833213.JPG
break,html.Screen,4_77_1,2023-09-12T19:47:54.239Z,,0,,,NaN,,,,,,false,,,,400725.6999999881,400725.5,,400725,,400732.321,8,400,,,
break_continue,html.Screen,4_77_2,2023-09-12T19:47:54.239Z,,0,,,NaN,,,,,,false,,,,400726,400725.90000000596,,400725.7999999821,,400732.321,8,400,,,
sequence,flow.Sequence,4_77,2023-09-12T19:47:54.239Z,,0,,,3023.4890000059386,completion,,,,,false,,,,400726.09999999404,400725.90000000596,397693.003,397693.6999999881,397702.411,400732.321,8,400,,,
trial,html.Screen,4_78_0,2023-09-12T19:47:57.161Z,,0,2,,2914.6790000000037,response,ISIC_0030910.JPG,7,ISIC_0032603.JPG,ISIC_0030910.JPG,false,1,keypress(m),500,403647.2999999821,403647,400724.328,400726.2999999821,400732.321,403657.52,8,400,29,,ISIC_0032603.JPG
break,html.Screen,4_78_1,2023-09-12T19:47:57.161Z,,0,,,NaN,,,,,,false,,,,403648.1999999881,403648,,403647.5,,403657.52,8,400,,,
break_continue,html.Screen,4_78_2,2023-09-12T19:47:57.162Z,,0,,,NaN,,,,,,false,,,,403648.59999999404,403648.40000000596,,403648.2999999821,,403657.52,8,400,,,
sequence,flow.Sequence,4_78,2023-09-12T19:47:57.162Z,,0,,,2916.079000005964,completion,,,,,false,,,,403648.59999999404,403648.40000000596,400724.328,400726.1999999881,400732.321,403657.52,8,400,,,
trial,html.Screen,4_79_0,2023-09-12T19:48:01.511Z,,0,2,,4340.17999998806,response,ISIC_0072221.JPG,8,ISIC_0015035.JPG,ISIC_0015035.JPG,false,0,keypress(z),500,407997.90000000596,407997.6999999881,403641.203,403648.7999999821,403657.52,408008.398,8,400,30,,ISIC_0072221.JPG
break,html.Screen,4_79_1,2023-09-12T19:48:01.512Z,,0,,,NaN,,,,,,false,,,,407998.7999999821,407998.59999999404,,407998.1999999881,,408008.398,8,400,,,
break_continue,html.Screen,4_79_2,2023-09-12T19:48:01.512Z,,0,,,NaN,,,,,,false,,,,407999.09999999404,407999.09999999404,,407998.90000000596,,408008.398,8,400,,,
sequence,flow.Sequence,4_79,2023-09-12T19:48:01.512Z,,0,,,4341.579999994021,completion,,,,,false,,,,407999.2999999821,407999.09999999404,403641.203,403648.6999999881,403657.52,408008.398,8,400,,,
trial,html.Screen,4_80_0,2023-09-12T19:48:04.223Z,,0,2,,2701.002000005974,response,ISIC_0060659.JPG,6,ISIC_8108090.JPG,ISIC_0060659.JPG,false,1,keypress(m),500,410709.6999999881,410709.40000000596,407983.908,407999.40000000596,408008.398,410741.258,8,400,31,,ISIC_8108090.JPG
break,html.Screen,4_80_1,2023-09-12T19:48:04.224Z,,0,,,NaN,,,,,,false,,,,410710.40000000596,410710.2999999821,,410709.90000000596,,410741.258,8,400,,,
break_continue,html.Screen,4_80_2,2023-09-12T19:48:04.224Z,,0,,,NaN,,,,,,false,,,,410710.7999999821,410710.6999999881,,410710.59999999404,,410741.258,8,400,,,
sequence,flow.Sequence,4_80,2023-09-12T19:48:04.224Z,,0,,,2702.3019999880926,completion,,,,,false,,,,410710.90000000596,410710.6999999881,407983.908,407999.2999999821,408008.398,410741.258,8,400,,,
trial,html.Screen,4_81_0,2023-09-12T19:48:07.081Z,,0,2,,2826.541999982146,response,ISIC_0026302.JPG,9,ISIC_0014657.JPG,ISIC_0014657.JPG,false,0,keypress(z),500,413568,413567.7999999821,410724.891,410711,410741.258,413600.158,8,400,32,,ISIC_0026302.JPG
break,html.Screen,4_81_1,2023-09-12T19:48:07.082Z,,0,,,NaN,,,,,,false,,,,413568.7999999821,413568.6999999881,,413568.1999999881,,413600.158,8,400,,,
break_continue,html.Screen,4_81_2,2023-09-12T19:48:07.082Z,,0,,,NaN,,,,,,false,,,,413569.09999999404,413569,,413568.90000000596,,413600.158,8,400,,,
sequence,flow.Sequence,4_81,2023-09-12T19:48:07.082Z,,0,,,2827.7420000000275,completion,,,,,false,,,,413569.1999999881,413569,410724.891,410711,410741.258,413600.158,8,400,,,
trial,html.Screen,4_82_0,2023-09-12T19:48:09.848Z,,0,2,,2734.342000000004,response,ISIC_4322954.JPG,10,ISIC_0014114.JPG,ISIC_0014114.JPG,false,0,keypress(z),500,416334.7999999821,416334.5,413583.409,413569.2999999821,413600.158,416345.184,8,400,33,,ISIC_4322954.JPG
break,html.Screen,4_82_1,2023-09-12T19:48:09.849Z,,0,,,NaN,,,,,,false,,,,416335.6999999881,416335.5,,416335,,416345.184,8,400,,,
break_continue,html.Screen,4_82_2,2023-09-12T19:48:09.849Z,,0,,,NaN,,,,,,false,,,,416336,416335.7999999821,,416335.7999999821,,416345.184,8,400,,,
sequence,flow.Sequence,4_82,2023-09-12T19:48:09.849Z,,0,,,2735.641999982123,completion,,,,,false,,,,416336.09999999404,416335.7999999821,413583.409,413569.2999999821,413600.158,416345.184,8,400,,,
trial,html.Screen,4_83_0,2023-09-12T19:48:12.737Z,,0,2,,2878.8159999999916,response,ISIC_0033329.JPG,12,ISIC_9323095.JPG,ISIC_0033329.JPG,false,1,keypress(m),500,419224.1999999881,419224,416319.927,416336.2999999821,416345.184,419234.653,8,400,34,,ISIC_9323095.JPG
break,html.Screen,4_83_1,2023-09-12T19:48:12.738Z,,0,,,NaN,,,,,,false,,,,419225.09999999404,419225,,419224.5,,419234.653,8,400,,,
break_continue,html.Screen,4_83_2,2023-09-12T19:48:12.739Z,,0,,,NaN,,,,,,false,,,,419225.5,419225.40000000596,,419225.1999999881,,419234.653,8,400,,,
sequence,flow.Sequence,4_83,2023-09-12T19:48:12.739Z,,0,,,2880.216000005952,completion,,,,,false,,,,419225.59999999404,419225.40000000596,416319.927,416336.1999999881,416345.184,419234.653,8,400,,,
trial,html.Screen,4_84_0,2023-09-12T19:48:15.829Z,,0,2,,3080.847000000009,response,ISIC_8569205.JPG,8,ISIC_6052702.JPG,ISIC_6052702.JPG,false,0,keypress(z),500,422315.6999999881,422315.5,419210.831,419225.7999999821,419234.653,422325.906,8,400,35,,ISIC_8569205.JPG
break,html.Screen,4_84_1,2023-09-12T19:48:15.830Z,,0,,,NaN,,,,,,false,,,,422316.59999999404,422316.40000000596,,422315.90000000596,,422325.906,8,400,,,
break_continue,html.Screen,4_84_2,2023-09-12T19:48:15.830Z,,0,,,NaN,,,,,,false,,,,422316.90000000596,422316.7999999821,,422316.6999999881,,422325.906,8,400,,,
sequence,flow.Sequence,4_84,2023-09-12T19:48:15.830Z,,0,,,3082.1469999821275,completion,,,,,false,,,,422317.09999999404,422316.7999999821,419210.831,419225.6999999881,419234.653,422325.906,8,400,,,
trial,html.Screen,4_85_0,2023-09-12T19:48:18.831Z,,0,2,,2991.3939999821014,response,ISIC_0072004.JPG,9,ISIC_1450548.JPG,ISIC_0072004.JPG,false,1,keypress(m),500,425317.59999999404,425317.2999999821,422305.591,422317.1999999881,422325.906,425327.702,8,400,36,,ISIC_1450548.JPG
break,html.Screen,4_85_1,2023-09-12T19:48:18.832Z,,0,,,NaN,,,,,,false,,,,425318.5,425318.2999999821,,425317.7999999821,,425327.702,8,400,,,
break_continue,html.Screen,4_85_2,2023-09-12T19:48:18.832Z,,0,,,NaN,,,,,,false,,,,425318.7999999821,425318.59999999404,,425318.5,,425327.702,8,400,,,
sequence,flow.Sequence,4_85,2023-09-12T19:48:18.832Z,,0,,,2992.6939999940223,completion,,,,,false,,,,425318.90000000596,425318.59999999404,422305.591,422317.09999999404,422325.906,425327.702,8,400,,,
trial,html.Screen,4_86_0,2023-09-12T19:48:22.222Z,,0,2,,3381.0979999821284,response,ISIC_0057898.JPG,11,ISIC_0013311.JPG,ISIC_0057898.JPG,false,1,keypress(m),500,428709,428708.7999999821,425305.686,425319,425327.702,428719.447,8,400,37,,ISIC_0013311.JPG
break,html.Screen,4_86_1,2023-09-12T19:48:22.223Z,,0,,,NaN,,,,,,false,,,,428709.90000000596,428709.6999999881,,428709.1999999881,,428719.447,8,400,,,
break_continue,html.Screen,4_86_2,2023-09-12T19:48:22.223Z,,0,,,NaN,,,,,,false,,,,428710.1999999881,428710.09999999404,,428710,,428719.447,8,400,,,
sequence,flow.Sequence,4_86,2023-09-12T19:48:22.224Z,,0,,,3382.3979999940493,completion,,,,,false,,,,428710.40000000596,428710.09999999404,425305.686,425319,425327.702,428719.447,8,400,,,
trial,html.Screen,4_87_0,2023-09-12T19:48:25.058Z,,0,2,,2825.0530000000144,response,ISIC_0030860.JPG,6,ISIC_0025964.JPG,ISIC_0025964.JPG,false,0,keypress(z),500,431544.6999999881,431544.5,428695.285,428710.5,428719.447,431555.107,8,400,38,,ISIC_0030860.JPG
break,html.Screen,4_87_1,2023-09-12T19:48:25.059Z,,0,,,NaN,,,,,,false,,,,431545.59999999404,431545.5,,431544.90000000596,,431555.107,8,400,,,
break_continue,html.Screen,4_87_2,2023-09-12T19:48:25.059Z,,0,,,NaN,,,,,,false,,,,431545.90000000596,431545.7999999821,,431545.59999999404,,431555.107,8,400,,,
sequence,flow.Sequence,4_87,2023-09-12T19:48:25.059Z,,0,,,2826.352999982133,completion,,,,,false,,,,431546,431545.7999999821,428695.285,428710.5,428719.447,431555.107,8,400,,,
trial,html.Screen,4_88_0,2023-09-12T19:48:31.280Z,,0,2,,6211.592999988061,response,ISIC_0014891.JPG,4,ISIC_6451703.JPG,ISIC_0014891.JPG,false,1,keypress(m),500,437767,437766.6999999881,431531.471,431546.09999999404,431555.107,437777.117,8,400,39,,ISIC_6451703.JPG
break,html.Screen,4_88_1,2023-09-12T19:48:31.281Z,,0,,,NaN,,,,,,false,,,,437767.7999999821,437767.59999999404,,437767.1999999881,,437777.117,8,400,,,
break_continue,html.Screen,4_88_2,2023-09-12T19:48:31.281Z,,0,,,NaN,,,,,,false,,,,437768.09999999404,437768,,437767.90000000596,,437777.117,8,400,,,
sequence,flow.Sequence,4_88,2023-09-12T19:48:31.281Z,,0,,,6212.892999999982,completion,,,,,false,,,,437768.2999999821,437768,431531.471,431546.09999999404,431555.107,437777.117,8,400,,,
trial,html.Screen,4_89_0,2023-09-12T19:48:34.261Z,,0,2,,2970.3829999999725,response,ISIC_9913573.JPG,10,ISIC_0908367.JPG,ISIC_0908367.JPG,false,0,keypress(z),500,440747.7999999821,440747.5,437752.388,437768.40000000596,437777.117,440758.164,8,400,40,,ISIC_9913573.JPG
break,html.Screen,4_89_1,2023-09-12T19:48:34.262Z,,0,,,NaN,,,,,,false,,,,440748.59999999404,440748.40000000596,,440748,,440758.164,8,400,,,
break_continue,html.Screen,4_89_2,2023-09-12T19:48:34.262Z,,0,,,NaN,,,,,,false,,,,440748.90000000596,440748.7999999821,,440748.6999999881,,440758.164,8,400,,,
sequence,flow.Sequence,4_89,2023-09-12T19:48:34.262Z,,0,,,2971.682999982091,completion,,,,,false,,,,440749,440748.7999999821,437752.388,437768.2999999821,437777.117,440758.164,8,400,,,
trial,html.Screen,4_90_0,2023-09-12T19:48:37.728Z,,0,2,,3456.5359999880893,response,ISIC_0014114.JPG,5,ISIC_1327515.JPG,ISIC_0014114.JPG,false,1,keypress(m),500,444214.90000000596,444214.6999999881,440734.909,440749.1999999881,440758.164,444224.935,8,400,41,,ISIC_1327515.JPG
break,html.Screen,4_90_1,2023-09-12T19:48:37.729Z,,0,,,NaN,,,,,,false,,,,444215.6999999881,444215.5,,444215.09999999404,,444224.935,8,400,,,
break_continue,html.Screen,4_90_2,2023-09-12T19:48:37.729Z,,0,,,NaN,,,,,,false,,,,444216,444215.90000000596,,444215.90000000596,,444224.935,8,400,,,
sequence,flow.Sequence,4_90,2023-09-12T19:48:37.729Z,,0,,,3457.7360000059707,completion,,,,,false,,,,444216.1999999881,444215.90000000596,440734.909,440749.09999999404,440758.164,444224.935,8,400,,,
trial,html.Screen,4_91_0,2023-09-12T19:48:41.271Z,,0,2,,3532.2649999880814,response,ISIC_0000518.JPG,11,ISIC_2000319.JPG,ISIC_0000518.JPG,false,1,keypress(m),500,447757.5,447757.1999999881,444204.038,444216.1999999881,444224.935,447788.28,8,400,42,,ISIC_2000319.JPG
break,html.Screen,4_91_1,2023-09-12T19:48:41.271Z,,0,,,NaN,,,,,,false,,,,447758.1999999881,447758,,447757.59999999404,,447788.28,8,400,,,
break_continue,html.Screen,4_91_2,2023-09-12T19:48:41.272Z,,0,,,NaN,,,,,,false,,,,447758.59999999404,447758.5,,447758.40000000596,,447788.28,8,400,,,
sequence,flow.Sequence,4_91,2023-09-12T19:48:41.272Z,,0,,,3533.5650000000023,completion,,,,,false,,,,447758.7999999821,447758.5,444204.038,444216.1999999881,444224.935,447788.28,8,400,,,
trial,html.Screen,4_92_0,2023-09-12T19:48:44.301Z,,0,2,,2999.1200000059325,response,ISIC_2406492.JPG,7,ISIC_0027863.JPG,ISIC_2406492.JPG,false,1,keypress(m),500,450787.59999999404,450787.40000000596,447771.614,447758.7999999821,447788.28,450803.943,8,400,43,,ISIC_0027863.JPG
break,html.Screen,4_92_1,2023-09-12T19:48:44.302Z,,0,,,NaN,,,,,,false,,,,450788.2999999821,450788.1999999881,,450787.7999999821,,450803.943,8,400,,,
break_continue,html.Screen,4_92_2,2023-09-12T19:48:44.302Z,,0,,,NaN,,,,,,false,,,,450788.6999999881,450788.59999999404,,450788.5,,450803.943,8,400,,,
sequence,flow.Sequence,4_92,2023-09-12T19:48:44.302Z,,0,,,3000.3199999940116,completion,,,,,false,,,,450788.7999999821,450788.59999999404,447771.614,447758.7999999821,447788.28,450803.943,8,400,,,
trial,html.Screen,4_93_0,2023-09-12T19:48:47.075Z,,0,2,,2757.85699998209,response,ISIC_6292348.JPG,5,ISIC_4344870.JPG,ISIC_4344870.JPG,false,0,keypress(z),500,453562,453561.7999999821,450787.528,450788.90000000596,450803.943,453572.051,8,400,44,,ISIC_6292348.JPG
break,html.Screen,4_93_1,2023-09-12T19:48:47.076Z,,0,,,NaN,,,,,,false,,,,453562.7999999821,453562.59999999404,,453562.1999999881,,453572.051,8,400,,,
break_continue,html.Screen,4_93_2,2023-09-12T19:48:47.076Z,,0,,,NaN,,,,,,false,,,,453563.1999999881,453563,,453562.90000000596,,453572.051,8,400,,,
sequence,flow.Sequence,4_93,2023-09-12T19:48:47.077Z,,0,,,2759.0569999999716,completion,,,,,false,,,,453563.40000000596,453563,450787.528,450788.90000000596,450803.943,453572.051,8,400,,,
trial,html.Screen,4_94_0,2023-09-12T19:48:49.869Z,,0,2,,2783.748999982141,response,ISIC_0033957.JPG,5,ISIC_8030914.JPG,ISIC_0033957.JPG,false,1,keypress(m),500,456356.09999999404,456355.7999999821,453561.085,453563.5,453572.051,456366.652,8,400,45,,ISIC_8030914.JPG
break,html.Screen,4_94_1,2023-09-12T19:48:49.870Z,,0,,,NaN,,,,,,false,,,,456357,456356.6999999881,,456356.40000000596,,456366.652,8,400,,,
break_continue,html.Screen,4_94_2,2023-09-12T19:48:49.870Z,,0,,,NaN,,,,,,false,,,,456357.2999999821,456357.1999999881,,456357,,456366.652,8,400,,,
sequence,flow.Sequence,4_94,2023-09-12T19:48:49.871Z,,0,,,2785.1489999881014,completion,,,,,false,,,,456357.40000000596,456357.1999999881,453561.085,453563.40000000596,453572.051,456366.652,8,400,,,
trial,html.Screen,4_95_0,2023-09-12T19:48:52.611Z,,0,2,,2730.6479999821167,response,ISIC_5377237.JPG,12,ISIC_2119925.JPG,ISIC_5377237.JPG,false,1,keypress(m),500,459097.5,459097.2999999821,456341.518,456357.5,456366.652,459107.847,8,400,46,,ISIC_2119925.JPG
break,html.Screen,4_95_1,2023-09-12T19:48:52.612Z,,0,,,NaN,,,,,,false,,,,459098.2999999821,459098.09999999404,,459097.6999999881,,459107.847,8,400,,,
break_continue,html.Screen,4_95_2,2023-09-12T19:48:52.612Z,,0,,,NaN,,,,,,false,,,,459098.59999999404,459098.59999999404,,459098.40000000596,,459107.847,8,400,,,
sequence,flow.Sequence,4_95,2023-09-12T19:48:52.612Z,,0,,,2731.9479999940377,completion,,,,,false,,,,459098.7999999821,459098.59999999404,456341.518,456357.5,456366.652,459107.847,8,400,,,
trial,html.Screen,4_96_0,2023-09-12T19:48:55.226Z,,0,2,,2604.35299998807,response,ISIC_0030898.JPG,6,ISIC_0070009.JPG,ISIC_0070009.JPG,false,0,keypress(z),500,461712.5,461712.1999999881,459081.925,459099,459107.847,461722.513,8,400,47,,ISIC_0030898.JPG
break,html.Screen,4_96_1,2023-09-12T19:48:55.226Z,,0,,,NaN,,,,,,false,,,,461713.1999999881,461713.09999999404,,461712.59999999404,,461722.513,8,400,,,
break_continue,html.Screen,4_96_2,2023-09-12T19:48:55.227Z,,0,,,NaN,,,,,,false,,,,461713.5,461713.5,,461713.40000000596,,461722.513,8,400,,,
sequence,flow.Sequence,4_96,2023-09-12T19:48:55.227Z,,0,,,2605.652999999991,completion,,,,,false,,,,461713.6999999881,461713.5,459081.925,459098.90000000596,459107.847,461722.513,8,400,,,
trial,html.Screen,4_97_0,2023-09-12T19:48:58.213Z,,0,2,,2977.0869999940624,response,ISIC_0010783.JPG,9,ISIC_0056167.JPG,ISIC_0056167.JPG,false,0,keypress(z),500,464699.7999999821,464699.59999999404,461702.946,461713.6999999881,461722.513,464709.985,8,400,48,,ISIC_0010783.JPG
break,html.Screen,4_97_1,2023-09-12T19:48:58.214Z,,0,,,NaN,,,,,,false,,,,464700.6999999881,464700.5,,464700.09999999404,,464709.985,8,400,,,
break_continue,html.Screen,4_97_2,2023-09-12T19:48:58.214Z,,0,,,NaN,,,,,,false,,,,464701.09999999404,464700.90000000596,,464700.90000000596,,464709.985,8,400,,,
sequence,flow.Sequence,4_97,2023-09-12T19:48:58.214Z,,0,,,2978.3870000059833,completion,,,,,false,,,,464701.1999999881,464700.90000000596,461702.946,461713.6999999881,461722.513,464709.985,8,400,,,
trial,html.Screen,4_98_0,2023-09-12T19:49:01.167Z,,0,2,,2943.1149999940535,response,ISIC_0029893.JPG,7,ISIC_0000523.JPG,ISIC_0000523.JPG,false,0,keypress(z),500,467653.40000000596,467653.09999999404,464687.749,464701.2999999821,464709.985,467658.32,8,400,49,,ISIC_0029893.JPG
break,html.Screen,4_98_1,2023-09-12T19:49:01.167Z,,0,,,NaN,,,,,,false,,,,467654.2999999821,467654.09999999404,,467653.59999999404,,467658.32,8,400,,,
break_continue,html.Screen,4_98_2,2023-09-12T19:49:01.168Z,,0,,,NaN,,,,,,false,,,,467654.6999999881,467654.59999999404,,467654.40000000596,,467658.32,8,400,,,
sequence,flow.Sequence,4_98,2023-09-12T19:49:01.168Z,,0,,,2944.6149999940535,completion,,,,,false,,,,467654.7999999821,467654.59999999404,464687.749,464701.1999999881,464709.985,467658.32,8,400,,,
trial,html.Screen,4_99_0,2023-09-12T19:49:04.708Z,,0,2,,3536.2799999940326,response,ISIC_1806179.JPG,4,ISIC_2253931.JPG,ISIC_1806179.JPG,false,1,keypress(m),500,471194.90000000596,471194.59999999404,467642.02,467655,467658.32,471204.995,8,400,50,,ISIC_2253931.JPG
break,html.Screen,4_99_1,2023-09-12T19:49:14.702Z,,0,,,9999.924999999988,timeout,,,,,false,,,,481189.1999999881,481188.266,471183.999,471195,471204.995,481204.92,8,400,,,
break_continue,html.Screen,4_99_2,2023-09-12T19:49:15.715Z,,0,,,986.7799999880954,response,,,,,false,continue,keypress(Space),,482201.2999999821,482191.6999999881,481188.266,481189.2999999821,481204.92,482210.652,8,400,,,
sequence,flow.Sequence,4_99,2023-09-12T19:49:15.715Z,,0,,,14533.379999988072,completion,,,,,false,,,,482201.40000000596,482191.6999999881,467642.02,467655,467658.32,482210.652,8,400,,,
trial,html.Screen,4_100_0,2023-09-12T19:49:18.556Z,,0,3,,2831.6479999821167,response,ISIC_4393521.JPG,8,ISIC_0025812.JPG,ISIC_0025812.JPG,false,0,keypress(z),500,485042.59999999404,485042.2999999821,482189.503,482201.5,482210.652,485052.799,8,400,1,,ISIC_4393521.JPG
break,html.Screen,4_100_1,2023-09-12T19:49:18.557Z,,0,,,NaN,,,,,,false,,,,485043.40000000596,485043.2999999821,,485042.7999999821,,485052.799,8,400,,,
break_continue,html.Screen,4_100_2,2023-09-12T19:49:18.557Z,,0,,,NaN,,,,,,false,,,,485043.6999999881,485043.59999999404,,485043.5,,485052.799,8,400,,,
sequence,flow.Sequence,4_100,2023-09-12T19:49:18.557Z,,0,,,2832.9479999940377,completion,,,,,false,,,,485043.90000000596,485043.59999999404,482189.503,482201.5,482210.652,485052.799,8,400,,,
trial,html.Screen,4_101_0,2023-09-12T19:49:21.844Z,,0,3,,3277.3009999940405,response,ISIC_0000526.JPG,12,ISIC_4926448.JPG,ISIC_4926448.JPG,false,0,keypress(z),500,488330.2999999821,488330.09999999404,485041.471,485043.90000000596,485052.799,488340.369,8,400,2,,ISIC_0000526.JPG
break,html.Screen,4_101_1,2023-09-12T19:49:21.844Z,,0,,,NaN,,,,,,false,,,,488331.1999999881,488331,,488330.5,,488340.369,8,400,,,
break_continue,html.Screen,4_101_2,2023-09-12T19:49:21.845Z,,0,,,NaN,,,,,,false,,,,488331.5,488331.40000000596,,488331.2999999821,,488340.369,8,400,,,
sequence,flow.Sequence,4_101,2023-09-12T19:49:21.845Z,,0,,,3278.6010000059614,completion,,,,,false,,,,488331.59999999404,488331.40000000596,485041.471,485043.90000000596,485052.799,488340.369,8,400,,,
trial,html.Screen,4_102_0,2023-09-12T19:49:25.055Z,,0,3,,3201.5310000059544,response,ISIC_0064692.JPG,10,ISIC_0013813.JPG,ISIC_0064692.JPG,false,1,keypress(m),500,491542.1999999881,491541.90000000596,488322.507,488331.7999999821,488340.369,491552.603,8,400,3,,ISIC_0013813.JPG
break,html.Screen,4_102_1,2023-09-12T19:49:25.056Z,,0,,,NaN,,,,,,false,,,,491543,491542.7999999821,,491542.40000000596,,491552.603,8,400,,,
break_continue,html.Screen,4_102_2,2023-09-12T19:49:25.057Z,,0,,,NaN,,,,,,false,,,,491543.2999999821,491543.1999999881,,491543.09999999404,,491552.603,8,400,,,
sequence,flow.Sequence,4_102,2023-09-12T19:49:25.057Z,,0,,,3202.830999988073,completion,,,,,false,,,,491543.5,491543.1999999881,488322.507,488331.6999999881,488340.369,491552.603,8,400,,,
trial,html.Screen,4_103_0,2023-09-12T19:49:27.850Z,,0,3,,2783.696999982116,response,ISIC_0028127.JPG,9,ISIC_0027479.JPG,ISIC_0028127.JPG,false,1,keypress(m),500,494336.5,494336.2999999821,491529.476,491543.59999999404,491552.603,494346.557,8,400,4,,ISIC_0027479.JPG
break,html.Screen,4_103_1,2023-09-12T19:49:27.851Z,,0,,,NaN,,,,,,false,,,,494337.2999999821,494337.09999999404,,494336.6999999881,,494346.557,8,400,,,
break_continue,html.Screen,4_103_2,2023-09-12T19:49:27.851Z,,0,,,NaN,,,,,,false,,,,494337.59999999404,494337.5,,494337.40000000596,,494346.557,8,400,,,
sequence,flow.Sequence,4_103,2023-09-12T19:49:27.851Z,,0,,,2784.896999999997,completion,,,,,false,,,,494337.7999999821,494337.5,491529.476,491543.5,491552.603,494346.557,8,400,,,
trial,html.Screen,4_104_0,2023-09-12T19:49:31.823Z,,0,3,,3962.9430000000284,response,ISIC_0026560.JPG,8,ISIC_9053988.JPG,ISIC_0026560.JPG,false,1,keypress(m),500,498309.6999999881,498309.5,494334.436,494337.7999999821,494346.557,498332.477,8,400,5,,ISIC_9053988.JPG
break,html.Screen,4_104_1,2023-09-12T19:49:31.824Z,,0,,,NaN,,,,,,false,,,,498310.5,498310.40000000596,,498309.90000000596,,498332.477,8,400,,,
break_continue,html.Screen,4_104_2,2023-09-12T19:49:31.824Z,,0,,,NaN,,,,,,false,,,,498310.7999999821,498310.6999999881,,498310.59999999404,,498332.477,8,400,,,
sequence,flow.Sequence,4_104,2023-09-12T19:49:31.824Z,,0,,,3964.1429999881075,completion,,,,,false,,,,498310.90000000596,498310.6999999881,494334.436,494337.7999999821,494346.557,498332.477,8,400,,,
trial,html.Screen,4_105_0,2023-09-12T19:49:34.479Z,,0,3,,2632.923000005947,response,ISIC_0031960.JPG,5,ISIC_0010878.JPG,ISIC_0010878.JPG,false,0,keypress(z),500,500965.59999999404,500965.40000000596,498315.668,498311,498332.477,500975.952,8,400,6,,ISIC_0031960.JPG
break,html.Screen,4_105_1,2023-09-12T19:49:34.480Z,,0,,,NaN,,,,,,false,,,,500966.40000000596,500966.1999999881,,500965.7999999821,,500975.952,8,400,,,
break_continue,html.Screen,4_105_2,2023-09-12T19:49:34.480Z,,0,,,NaN,,,,,,false,,,,500966.6999999881,500966.59999999404,,500966.5,,500975.952,8,400,,,
sequence,flow.Sequence,4_105,2023-09-12T19:49:34.480Z,,0,,,2634.122999994026,completion,,,,,false,,,,500966.7999999821,500966.59999999404,498315.668,498311,498332.477,500975.952,8,400,,,
trial,html.Screen,4_106_0,2023-09-12T19:49:37.250Z,,0,3,,2760.54800000001,response,ISIC_0064979.JPG,11,ISIC_1585370.JPG,ISIC_0064979.JPG,false,1,keypress(m),500,503736.7999999821,503736.5,500950.84,500966.90000000596,500975.952,503746.927,8,400,7,,ISIC_1585370.JPG
break,html.Screen,4_106_1,2023-09-12T19:49:37.251Z,,0,,,NaN,,,,,,false,,,,503737.6999999881,503737.40000000596,,503737,,503746.927,8,400,,,
break_continue,html.Screen,4_106_2,2023-09-12T19:49:37.251Z,,0,,,NaN,,,,,,false,,,,503738,503737.90000000596,,503737.7999999821,,503746.927,8,400,,,
sequence,flow.Sequence,4_106,2023-09-12T19:49:37.251Z,,0,,,2761.9480000059702,completion,,,,,false,,,,503738.09999999404,503737.90000000596,500950.84,500966.90000000596,500975.952,503746.927,8,400,,,
trial,html.Screen,4_107_0,2023-09-12T19:49:39.901Z,,0,3,,2640.772999988054,response,ISIC_0061627.JPG,11,ISIC_1851112.JPG,ISIC_0061627.JPG,false,1,keypress(m),500,506388,506387.6999999881,503729.428,503738.1999999881,503746.927,506398.327,8,400,8,,ISIC_1851112.JPG
break,html.Screen,4_107_1,2023-09-12T19:49:39.902Z,,0,,,NaN,,,,,,false,,,,506388.7999999821,506388.59999999404,,506388.1999999881,,506398.327,8,400,,,
break_continue,html.Screen,4_107_2,2023-09-12T19:49:39.902Z,,0,,,NaN,,,,,,false,,,,506389,506389,,506388.90000000596,,506398.327,8,400,,,
sequence,flow.Sequence,4_107,2023-09-12T19:49:39.903Z,,0,,,2642.072999999975,completion,,,,,false,,,,506389.1999999881,506389,503729.428,503738.1999999881,503746.927,506398.327,8,400,,,
trial,html.Screen,4_108_0,2023-09-12T19:49:42.759Z,,0,3,,2846.67300000001,response,ISIC_0465476.JPG,4,ISIC_8513112.JPG,ISIC_8513112.JPG,false,0,keypress(z),500,509245.1999999881,509245,506373.01,506389.40000000596,506398.327,509255.36,8,400,9,,ISIC_0465476.JPG
break,html.Screen,4_108_1,2023-09-12T19:49:42.759Z,,0,,,NaN,,,,,,false,,,,509246.1999999881,509246,,509245.5,,509255.36,8,400,,,
break_continue,html.Screen,4_108_2,2023-09-12T19:49:42.760Z,,0,,,NaN,,,,,,false,,,,509246.40000000596,509246.2999999821,,509246.2999999821,,509255.36,8,400,,,
sequence,flow.Sequence,4_108,2023-09-12T19:49:42.760Z,,0,,,2847.9729999821284,completion,,,,,false,,,,509246.59999999404,509246.2999999821,506373.01,506389.2999999821,506398.327,509255.36,8,400,,,
trial,html.Screen,4_109_0,2023-09-12T19:49:45.515Z,,0,3,,2746.0400000059744,response,ISIC_0268701.JPG,11,ISIC_0065039.JPG,ISIC_0268701.JPG,false,1,keypress(m),500,512001.59999999404,512001.40000000596,509244.362,509246.6999999881,509255.36,512011.7,8,400,10,,ISIC_0065039.JPG
break,html.Screen,4_109_1,2023-09-12T19:49:45.516Z,,0,,,NaN,,,,,,false,,,,512002.5,512002.2999999821,,512001.7999999821,,512011.7,8,400,,,
break_continue,html.Screen,4_109_2,2023-09-12T19:49:45.516Z,,0,,,NaN,,,,,,false,,,,512002.7999999821,512002.6999999881,,512002.59999999404,,512011.7,8,400,,,
sequence,flow.Sequence,4_109,2023-09-12T19:49:45.516Z,,0,,,2747.339999988093,completion,,,,,false,,,,512002.90000000596,512002.6999999881,509244.362,509246.6999999881,509255.36,512011.7,8,400,,,
trial,html.Screen,4_110_0,2023-09-12T19:49:48.355Z,,0,3,,2830.200000005949,response,ISIC_0031891.JPG,6,ISIC_9851899.JPG,ISIC_0031891.JPG,false,1,keypress(m),500,514842.1999999881,514841.90000000596,511990.035,512003.09999999404,512011.7,514852.319,8,400,11,,ISIC_9851899.JPG
break,html.Screen,4_110_1,2023-09-12T19:49:48.356Z,,0,,,NaN,,,,,,false,,,,514843,514842.90000000596,,514842.5,,514852.319,8,400,,,
break_continue,html.Screen,4_110_2,2023-09-12T19:49:48.357Z,,0,,,NaN,,,,,,false,,,,514843.2999999821,514843.1999999881,,514843.09999999404,,514852.319,8,400,,,
sequence,flow.Sequence,4_110,2023-09-12T19:49:48.357Z,,0,,,2831.4999999880674,completion,,,,,false,,,,514843.5,514843.1999999881,511990.035,512003,512011.7,514852.319,8,400,,,
trial,html.Screen,4_111_0,2023-09-12T19:49:50.968Z,,0,3,,2602.480999982101,response,ISIC_6013764.JPG,7,ISIC_2733056.JPG,ISIC_6013764.JPG,false,1,keypress(m),500,517455.09999999404,517454.7999999821,514839.815,514843.6999999881,514852.319,517465.144,8,400,12,,ISIC_2733056.JPG
break,html.Screen,4_111_1,2023-09-12T19:49:50.969Z,,0,,,NaN,,,,,,false,,,,517455.90000000596,517455.6999999881,,517455.2999999821,,517465.144,8,400,,,
break_continue,html.Screen,4_111_2,2023-09-12T19:49:50.970Z,,0,,,NaN,,,,,,false,,,,517456.1999999881,517456.09999999404,,517456,,517465.144,8,400,,,
sequence,flow.Sequence,4_111,2023-09-12T19:49:50.970Z,,0,,,2603.780999994022,completion,,,,,false,,,,517456.40000000596,517456.09999999404,514839.815,514843.59999999404,514852.319,517465.144,8,400,,,
trial,html.Screen,4_112_0,2023-09-12T19:49:54.081Z,,0,3,,3101.9559999940684,response,ISIC_0000541.JPG,10,ISIC_0061265.JPG,ISIC_0061265.JPG,false,0,keypress(z),500,520567.40000000596,520567.09999999404,517449.8,517456.59999999404,517465.144,520577.464,8,400,13,,ISIC_0000541.JPG
break,html.Screen,4_112_1,2023-09-12T19:49:54.081Z,,0,,,NaN,,,,,,false,,,,520568.1999999881,520568,,520567.59999999404,,520577.464,8,400,,,
break_continue,html.Screen,4_112_2,2023-09-12T19:49:54.082Z,,0,,,NaN,,,,,,false,,,,520568.59999999404,520568.5,,520568.2999999821,,520577.464,8,400,,,
sequence,flow.Sequence,4_112,2023-09-12T19:49:54.082Z,,0,,,3103.356000000029,completion,,,,,false,,,,520568.6999999881,520568.5,517449.8,517456.5,517465.144,520577.464,8,400,,,
trial,html.Screen,4_113_0,2023-09-12T19:49:56.832Z,,0,3,,2740.8359999821405,response,ISIC_2366172.JPG,7,ISIC_1560455.JPG,ISIC_2366172.JPG,false,1,keypress(m),500,523318.59999999404,523318.2999999821,520567.819,520568.7999999821,520577.464,523329.11,8,400,14,,ISIC_1560455.JPG
break,html.Screen,4_113_1,2023-09-12T19:49:56.833Z,,0,,,NaN,,,,,,false,,,,523319.5,523319.2999999821,,523318.7999999821,,523329.11,8,400,,,
break_continue,html.Screen,4_113_2,2023-09-12T19:49:56.833Z,,0,,,NaN,,,,,,false,,,,523319.90000000596,523319.6999999881,,523319.59999999404,,523329.11,8,400,,,
sequence,flow.Sequence,4_113,2023-09-12T19:49:56.833Z,,0,,,2742.235999988101,completion,,,,,false,,,,523320,523319.6999999881,520567.819,520568.7999999821,520577.464,523329.11,8,400,,,
trial,html.Screen,4_114_0,2023-09-12T19:49:59.547Z,,0,3,,2704.890000000014,response,ISIC_0060937.JPG,6,ISIC_1698119.JPG,ISIC_0060937.JPG,false,1,keypress(m),500,526034.1999999881,526034,523305.39,523320.1999999881,523329.11,526044.257,8,400,15,,ISIC_1698119.JPG
break,html.Screen,4_114_1,2023-09-12T19:49:59.548Z,,0,,,NaN,,,,,,false,,,,526035,526034.900000006,,526034.400000006,,526044.257,8,400,,,
break_continue,html.Screen,4_114_2,2023-09-12T19:49:59.549Z,,0,,,NaN,,,,,,false,,,,526035.2999999821,526035.099999994,,526035,,526044.257,8,400,,,
sequence,flow.Sequence,4_114,2023-09-12T19:49:59.549Z,,0,,,2705.9899999940535,completion,,,,,false,,,,526035.400000006,526035.099999994,523305.39,523320.09999999404,523329.11,526044.257,8,400,,,
trial,html.Screen,4_115_0,2023-09-12T19:50:02.390Z,,0,3,,2832.6430000059772,response,ISIC_0028071.JPG,9,ISIC_0009187.JPG,ISIC_0028071.JPG,false,1,keypress(m),500,528877.1999999881,528876.900000006,526024.537,526035.5,526044.257,528887.357,8,400,16,,ISIC_0009187.JPG
break,html.Screen,4_115_1,2023-09-12T19:50:02.391Z,,0,,,NaN,,,,,,false,,,,528878,528877.900000006,,528877.400000006,,528887.357,8,400,,,
break_continue,html.Screen,4_115_2,2023-09-12T19:50:02.392Z,,0,,,NaN,,,,,,false,,,,528878.400000006,528878.2999999821,,528878.099999994,,528887.357,8,400,,,
sequence,flow.Sequence,4_115,2023-09-12T19:50:02.392Z,,0,,,2834.0429999821354,completion,,,,,false,,,,528878.5,528878.2999999821,526024.537,526035.5,526044.257,528887.357,8,400,,,
trial,html.Screen,4_116_0,2023-09-12T19:50:05.124Z,,0,3,,2723.14300000004,response,ISIC_0024421.JPG,12,ISIC_8659639.JPG,ISIC_0024421.JPG,false,1,keypress(m),500,531610.6999999881,531610.5,528864.954,528878.599999994,528887.357,531620.573,8,400,17,,ISIC_8659639.JPG
break,html.Screen,4_116_1,2023-09-12T19:50:05.125Z,,0,,,NaN,,,,,,false,,,,531611.2999999821,531611.099999994,,531610.900000006,,531620.573,8,400,,,
break_continue,html.Screen,4_116_2,2023-09-12T19:50:05.125Z,,0,,,NaN,,,,,,false,,,,531611.400000006,531611.400000006,,531611.2999999821,,531620.573,8,400,,,
sequence,flow.Sequence,4_116,2023-09-12T19:50:05.125Z,,0,,,2724.0430000060005,completion,,,,,false,,,,531611.5,531611.400000006,528864.954,528878.599999994,528887.357,531620.573,8,400,,,
trial,html.Screen,4_117_0,2023-09-12T19:50:08.016Z,,0,3,,2881.5269999940647,response,ISIC_1693572.JPG,11,ISIC_0057892.JPG,ISIC_1693572.JPG,false,1,keypress(m),500,534502.400000006,534502.099999994,531598.459,531611.599999994,531620.573,534512.531,8,400,18,,ISIC_0057892.JPG
break,html.Screen,4_117_1,2023-09-12T19:50:08.017Z,,0,,,NaN,,,,,,false,,,,534503.1999999881,534503.099999994,,534502.599999994,,534512.531,8,400,,,
break_continue,html.Screen,4_117_2,2023-09-12T19:50:08.017Z,,0,,,NaN,,,,,,false,,,,534503.599999994,534503.5,,534503.400000006,,534512.531,8,400,,,
sequence,flow.Sequence,4_117,2023-09-12T19:50:08.017Z,,0,,,2882.927000000025,completion,,,,,false,,,,534503.7999999821,534503.5,531598.459,531611.599999994,531620.573,534512.531,8,400,,,
trial,html.Screen,4_118_0,2023-09-12T19:50:11.438Z,,0,3,,3411.469000000041,response,ISIC_0033075.JPG,7,ISIC_1377409.JPG,ISIC_0033075.JPG,false,1,keypress(m),500,537924.2999999821,537924,534490.474,534503.900000006,534512.531,537934.35,8,400,19,,ISIC_1377409.JPG
break,html.Screen,4_118_1,2023-09-12T19:50:11.438Z,,0,,,NaN,,,,,,false,,,,537925,537924.900000006,,537924.5,,537934.35,8,400,,,
break_continue,html.Screen,4_118_2,2023-09-12T19:50:11.439Z,,0,,,NaN,,,,,,false,,,,537925.400000006,537925.2999999821,,537925.1999999881,,537934.35,8,400,,,
sequence,flow.Sequence,4_118,2023-09-12T19:50:11.439Z,,0,,,3412.7689999821596,completion,,,,,false,,,,537925.5,537925.2999999821,534490.474,534503.7999999821,534512.531,537934.35,8,400,,,
trial,html.Screen,4_119_0,2023-09-12T19:50:14.500Z,,0,3,,3051.949999982142,response,ISIC_0024519.JPG,7,ISIC_2969968.JPG,ISIC_0024519.JPG,false,1,keypress(m),500,540986.599999994,540986.2999999821,537924.081,537925.599999994,537934.35,540996.608,8,400,20,,ISIC_2969968.JPG
break,html.Screen,4_119_1,2023-09-12T19:50:14.501Z,,0,,,NaN,,,,,,false,,,,540987.400000006,540987.1999999881,,540986.7999999821,,540996.608,8,400,,,
break_continue,html.Screen,4_119_2,2023-09-12T19:50:14.501Z,,0,,,NaN,,,,,,false,,,,540987.7999999821,540987.599999994,,540987.5,,540996.608,8,400,,,
sequence,flow.Sequence,4_119,2023-09-12T19:50:14.501Z,,0,,,3053.249999994063,completion,,,,,false,,,,540987.7999999821,540987.599999994,537924.081,537925.599999994,537934.35,540996.608,8,400,,,
trial,html.Screen,4_120_0,2023-09-12T19:50:17.225Z,,0,3,,2714.8919999999925,response,ISIC_0030952.JPG,12,ISIC_0067609.JPG,ISIC_0067609.JPG,false,0,keypress(z),500,543711.6999999881,543711.5,540974.646,540988,540996.608,543722.22,8,400,21,,ISIC_0030952.JPG
break,html.Screen,4_120_1,2023-09-12T19:50:17.226Z,,0,,,NaN,,,,,,false,,,,543712.599999994,543712.400000006,,543712,,543722.22,8,400,,,
break_continue,html.Screen,4_120_2,2023-09-12T19:50:17.226Z,,0,,,NaN,,,,,,false,,,,543713,543712.900000006,,543712.6999999881,,543722.22,8,400,,,
sequence,flow.Sequence,4_120,2023-09-12T19:50:17.226Z,,0,,,2716.292000005953,completion,,,,,false,,,,543713.099999994,543712.900000006,540974.646,540988,540996.608,543722.22,8,400,,,
trial,html.Screen,4_121_0,2023-09-12T19:50:20.400Z,,0,3,,3163.979999988107,response,ISIC_0065360.JPG,7,ISIC_0015206.JPG,ISIC_0065360.JPG,false,1,keypress(m),500,546886.400000006,546886.1999999881,543699.312,543713.1999999881,543722.22,546896.707,8,400,22,,ISIC_0015206.JPG
break,html.Screen,4_121_1,2023-09-12T19:50:20.401Z,,0,,,NaN,,,,,,false,,,,546887.2999999821,546887.099999994,,546886.7999999821,,546896.707,8,400,,,
break_continue,html.Screen,4_121_2,2023-09-12T19:50:20.401Z,,0,,,NaN,,,,,,false,,,,546887.599999994,546887.5,,546887.400000006,,546896.707,8,400,,,
sequence,flow.Sequence,4_121,2023-09-12T19:50:20.401Z,,0,,,3165.280000000028,completion,,,,,false,,,,546887.6999999881,546887.5,543699.312,543713.1999999881,543722.22,546896.707,8,400,,,
trial,html.Screen,4_122_0,2023-09-12T19:50:23.164Z,,0,3,,2753.292999999947,response,ISIC_4871616.JPG,10,ISIC_2784664.JPG,ISIC_2784664.JPG,false,0,keypress(z),500,549650.2999999821,549650,546874.465,546887.900000006,546896.707,549660.801,8,400,23,,ISIC_4871616.JPG
break,html.Screen,4_122_1,2023-09-12T19:50:23.164Z,,0,,,NaN,,,,,,false,,,,549651.2999999821,549651.099999994,,549650.599999994,,549660.801,8,400,,,
break_continue,html.Screen,4_122_2,2023-09-12T19:50:23.165Z,,0,,,NaN,,,,,,false,,,,549651.5,549651.5,,549651.400000006,,549660.801,8,400,,,
sequence,flow.Sequence,4_122,2023-09-12T19:50:23.165Z,,0,,,2754.792999999947,completion,,,,,false,,,,549651.6999999881,549651.5,546874.465,546887.900000006,546896.707,549660.801,8,400,,,
trial,html.Screen,4_123_0,2023-09-12T19:50:26.325Z,,0,3,,3150.3989999881014,response,ISIC_0070254.JPG,9,ISIC_0001137.JPG,ISIC_0070254.JPG,false,1,keypress(m),500,552811.400000006,552811.1999999881,549637.072,549651.7999999821,549660.801,552821.594,8,400,24,,ISIC_0001137.JPG
break,html.Screen,4_123_1,2023-09-12T19:50:26.326Z,,0,,,NaN,,,,,,false,,,,552812.2999999821,552812.1999999881,,552811.6999999881,,552821.594,8,400,,,
break_continue,html.Screen,4_123_2,2023-09-12T19:50:26.326Z,,0,,,NaN,,,,,,false,,,,552812.599999994,552812.5,,552812.400000006,,552821.594,8,400,,,
sequence,flow.Sequence,4_123,2023-09-12T19:50:26.326Z,,0,,,3151.6990000000224,completion,,,,,false,,,,552812.6999999881,552812.5,549637.072,549651.7999999821,549660.801,552821.594,8,400,,,
trial,html.Screen,4_124_0,2023-09-12T19:50:29.162Z,,0,3,,2827.2059999820776,response,ISIC_8617277.JPG,10,ISIC_0783513.JPG,ISIC_8617277.JPG,false,1,keypress(m),500,555649.099999994,555648.7999999821,552810.601,552812.7999999821,552821.594,555659.561,8,400,25,,ISIC_0783513.JPG
break,html.Screen,4_124_1,2023-09-12T19:50:29.163Z,,0,,,NaN,,,,,,false,,,,555649.7999999821,555649.6999999881,,555649.1999999881,,555659.561,8,400,,,
break_continue,html.Screen,4_124_2,2023-09-12T19:50:29.163Z,,0,,,NaN,,,,,,false,,,,555650.099999994,555650,,555650,,555659.561,8,400,,,
sequence,flow.Sequence,4_124,2023-09-12T19:50:29.163Z,,0,,,2828.405999999959,completion,,,,,false,,,,555650.2999999821,555650,552810.601,552812.7999999821,552821.594,555659.561,8,400,,,
trial,html.Screen,4_125_0,2023-09-12T19:50:38.320Z,,0,3,,9147.138999988092,response,ISIC_2445475.JPG,5,ISIC_0541345.JPG,ISIC_2445475.JPG,false,1,keypress(m),500,564807.099999994,564806.6999999881,555635.499,555650.400000006,555659.561,564817.081,8,400,26,,ISIC_0541345.JPG
break,html.Screen,4_125_1,2023-09-12T19:50:38.321Z,,0,,,NaN,,,,,,false,,,,564808.099999994,564807.900000006,,564807.400000006,,564817.081,8,400,,,
break_continue,html.Screen,4_125_2,2023-09-12T19:50:38.322Z,,0,,,NaN,,,,,,false,,,,564808.5,564808.400000006,,564808.1999999881,,564817.081,8,400,,,
