sender,sender_type,sender_id,timestamp,meta,,blockNo,condition,duration,ended_on,img_left,img_reveal,img_right,loser,practice,response,response_action,selection_duration,time_commit,time_end,time_render,time_run,time_show,time_switch,total_blocks,total_trials,trialNo,url,winner
informed_consent,html.Screen,0,2023-10-30T21:42:25.727Z,"{""labjs_version"":""20.2.4"",""labjs_build"":{""flavor"":""production"",""commit"":""f5b4a49f956347addd546a832a3327688c2c0fef""},""location"":""https://run.pavlovia.org/MurrayBennett/melanoma-2afc/?participant=66223&platform=sona"",""userAgent"":""Mozilla/5.0 (Windows NT 10.0; Win64; x64) AppleWebKit/537.36 (KHTML, like Gecko) Chrome/118.0.0.0 Safari/537.36 Edg/118.0.2088.76"",""platform"":""Win32"",""language"":""en-US"",""locale"":""en-US"",""timeZone"":""America/Chicago"",""timezoneOffset"":300,""screen_width"":1600,""screen_height"":1000,""scroll_width"":1552,""scroll_height"":830,""window_innerWidth"":1552,""window_innerHeight"":878,""devicePixelRatio"":2}",,,,36573.22399997616,response,,,,,,consent,click button,,43255.799999952316,43252.89999997616,6204.663,6661.199999928474,6679.676,43292.63,,,,"{""participant"":""66223"",""platform"":""sona""}",
Welcome,html.Screen,1,2023-10-30T21:42:56.269Z,,,,regular,30506.370000000003,response,,,,,,continue,click button,,73801.19999992847,73799,43260.193,43256.09999990463,43292.63,73813.843,,,,,
trial,html.Screen,2_0_0,2023-10-30T21:43:05.878Z,,0,0,,9596.056999976165,response,ISIC_0061792.JPG,,ISIC_4679428.JPG,ISIC_0061792.JPG,true,1,keypress(m),500,83410.39999997616,83409.89999997616,73806.98,73801.5,73813.843,83429.121,1,6,1,,ISIC_4679428.JPG
sequence,flow.Sequence,2_0,2023-10-30T21:43:05.878Z,,0,,,9596.056999976165,completion,,,,,true,,,,83410.89999997616,83409.89999997616,73806.98,73801.39999997616,73813.843,83429.121,1,6,,,
trial,html.Screen,2_1_0,2023-10-30T21:43:12.922Z,,0,0,,7025.078999928475,response,ISIC_0776486.JPG,,ISIC_5199497.JPG,ISIC_0776486.JPG,true,1,keypress(m),500,90454.5,90454.19999992847,83406.793,83411,83429.121,90473.416,1,6,2,,ISIC_5199497.JPG
sequence,flow.Sequence,2_1,2023-10-30T21:43:12.922Z,,0,,,7025.078999928475,completion,,,,,true,,,,90454.89999997616,90454.19999992847,83406.793,83411,83429.121,90473.416,1,6,,,
trial,html.Screen,2_2_0,2023-10-30T21:43:17.539Z,,0,0,,4597.584000000003,response,ISIC_2556187.JPG,,ISIC_8575776.JPG,ISIC_8575776.JPG,true,0,keypress(z),500,95071.5,95071,90453.659,90455.09999990463,90473.416,95090.203,1,6,3,,ISIC_2556187.JPG
sequence,flow.Sequence,2_2,2023-10-30T21:43:17.539Z,,0,,,4597.584000000003,completion,,,,,true,,,,95071.89999997616,95071,90453.659,90455.09999990463,90473.416,95090.203,1,6,,,
trial,html.Screen,2_3_0,2023-10-30T21:43:20.939Z,,0,0,,3380.8969999046385,response,ISIC_9238366.JPG,,ISIC_8141769.JPG,ISIC_8141769.JPG,true,0,keypress(z),500,98471.39999997616,98471.09999990463,95070.564,95072,95090.203,98489.202,1,6,4,,ISIC_9238366.JPG
sequence,flow.Sequence,2_3,2023-10-30T21:43:20.939Z,,0,,,3380.8969999046385,completion,,,,,true,,,,98471.69999992847,98471.09999990463,95070.564,95072,95090.203,98489.202,1,6,,,
trial,html.Screen,2_4_0,2023-10-30T21:43:24.497Z,,0,0,,3540.1979999761534,response,ISIC_8949026.JPG,,ISIC_9959593.JPG,ISIC_8949026.JPG,true,1,keypress(m),500,102029.79999995232,102029.39999997616,98472.421,98471.89999997616,98489.202,102048.001,1,6,5,,ISIC_9959593.JPG
sequence,flow.Sequence,2_4,2023-10-30T21:43:24.498Z,,0,,,3540.1979999761534,completion,,,,,true,,,,102030.29999995232,102029.39999997616,98472.421,98471.89999997616,98489.202,102048.001,1,6,,,
trial,html.Screen,2_5_0,2023-10-30T21:43:27.754Z,,0,0,,3238.498999999996,response,ISIC_0460240.JPG,,ISIC_0010479.JPG,ISIC_0010479.JPG,true,0,keypress(z),500,105287,105286.5,102027.97,102030.29999995232,102048.001,105308.042,1,6,6,,ISIC_0460240.JPG
sequence,flow.Sequence,2_5,2023-10-30T21:43:27.755Z,,0,,,3238.498999999996,completion,,,,,true,,,,105287.29999995232,105286.5,102027.97,102030.29999995232,102048.001,105308.042,1,6,,,
loop,flow.Loop,2,2023-10-30T21:43:27.755Z,,,,,31472.657000000007,completion,,,,,true,,,,105287.59999990463,105286.5,73806.98,73801.39999997616,73813.843,105308.042,1,6,,,
exp_instructions,html.Screen,3,2023-10-30T21:43:34.213Z,,,,,6435.657999928473,response,,,,,,continue,keypress(Space),,111745.79999995232,111743.69999992847,105285.266,105287.69999992847,105308.042,111765.763,,,,,
trial,html.Screen,4_0_0,2023-10-30T21:43:38.126Z,,0,1,,3892.636999976152,response,ISIC_0062530.JPG,6,ISIC_0011697.JPG,ISIC_0011697.JPG,false,0,keypress(z),500,115658.79999995232,115658.39999997616,111746.43,111746.09999990463,111765.763,115679.566,8,400,1,,ISIC_0062530.JPG
break,html.Screen,4_0_1,2023-10-30T21:43:38.128Z,,0,,,NaN,,,,,,false,,,,115660.19999992847,115659.89999997616,,115659.09999990463,,115679.566,8,400,,,
break_continue,html.Screen,4_0_2,2023-10-30T21:43:38.128Z,,0,,,NaN,,,,,,false,,,,115660.5,115660.39999997616,,115660.29999995232,,115679.566,8,400,,,
sequence,flow.Sequence,4_0,2023-10-30T21:43:38.128Z,,0,,,3894.636999976152,completion,,,,,false,,,,115660.69999992847,115660.39999997616,111746.43,111746.09999990463,111765.763,115679.566,8,400,,,
trial,html.Screen,4_1_0,2023-10-30T21:43:41.412Z,,0,1,,3264.333999976152,response,ISIC_0024826.JPG,9,ISIC_8397077.JPG,ISIC_8397077.JPG,false,0,keypress(z),500,118944.29999995232,118943.89999997616,115662.311,115660.79999995232,115679.566,118963.423,8,400,2,,ISIC_0024826.JPG
break,html.Screen,4_1_1,2023-10-30T21:43:41.413Z,,0,,,NaN,,,,,,false,,,,118945.09999990463,118944.89999997616,,118944.5,,118963.423,8,400,,,
break_continue,html.Screen,4_1_2,2023-10-30T21:43:41.413Z,,0,,,NaN,,,,,,false,,,,118945.39999997616,118945.29999995232,,118945.19999992847,,118963.423,8,400,,,
sequence,flow.Sequence,4_1,2023-10-30T21:43:41.413Z,,0,,,3265.73399995231,completion,,,,,false,,,,118945.5,118945.29999995232,115662.311,115660.69999992847,115679.566,118963.423,8,400,,,
trial,html.Screen,4_2_0,2023-10-30T21:43:45.261Z,,0,1,,3829.6769999046373,response,ISIC_9521776.JPG,6,ISIC_0071133.JPG,ISIC_0071133.JPG,false,0,keypress(z),500,122793.59999990463,122793.09999990463,118941.775,118945.59999990463,118963.423,122812.609,8,400,3,,ISIC_9521776.JPG
break,html.Screen,4_2_1,2023-10-30T21:43:45.262Z,,0,,,NaN,,,,,,false,,,,122794.5,122794.29999995232,,122793.79999995232,,122812.609,8,400,,,
break_continue,html.Screen,4_2_2,2023-10-30T21:43:45.262Z,,0,,,NaN,,,,,,false,,,,122794.79999995232,122794.69999992847,,122794.69999992847,,122812.609,8,400,,,
sequence,flow.Sequence,4_2,2023-10-30T21:43:45.262Z,,0,,,3831.276999928479,completion,,,,,false,,,,122794.89999997616,122794.69999992847,118941.775,118945.5,118963.423,122812.609,8,400,,,
trial,html.Screen,4_3_0,2023-10-30T21:43:51.575Z,,0,1,,6290.391000000003,response,ISIC_0071388.JPG,22,ISIC_0063753.JPG,ISIC_0071388.JPG,false,1,keypress(m),500,129103.39999997616,129103,122796.607,122795.09999990463,122812.609,129122.145,8,400,4,,ISIC_0063753.JPG
break,html.Screen,4_3_1,2023-10-30T21:43:51.576Z,,0,,,NaN,,,,,,false,,,,129104.19999992847,129104,,129103.59999990463,,129122.145,8,400,,,
break_continue,html.Screen,4_3_2,2023-10-30T21:43:51.576Z,,0,,,NaN,,,,,,false,,,,129104.39999997616,129104.29999995232,,129104.29999995232,,129122.145,8,400,,,
sequence,flow.Sequence,4_3,2023-10-30T21:43:51.576Z,,0,,,6291.6909999523195,completion,,,,,false,,,,129104.59999990463,129104.29999995232,122796.607,122794.89999997616,122812.609,129122.145,8,400,,,
trial,html.Screen,4_4_0,2023-10-30T21:43:54.866Z,,0,1,,3271.754999976154,response,ISIC_0057374.JPG,8,ISIC_4472903.JPG,ISIC_0057374.JPG,false,1,keypress(m),500,132394.19999992847,132393.89999997616,129101.99,129104.69999992847,129122.145,132412.993,8,400,5,,ISIC_4472903.JPG
break,html.Screen,4_4_1,2023-10-30T21:43:54.867Z,,0,,,NaN,,,,,,false,,,,132395,132394.89999997616,,132394.39999997616,,132412.993,8,400,,,
break_continue,html.Screen,4_4_2,2023-10-30T21:43:54.867Z,,0,,,NaN,,,,,,false,,,,132395.19999992847,132395.19999992847,,132395.09999990463,,132412.993,8,400,,,
sequence,flow.Sequence,4_4,2023-10-30T21:43:54.867Z,,0,,,3273.0549999284704,completion,,,,,false,,,,132395.39999997616,132395.19999992847,129101.99,129104.59999990463,129122.145,132412.993,8,400,,,
trial,html.Screen,4_5_0,2023-10-30T21:43:58.140Z,,0,1,,3255.4069999761705,response,ISIC_0026329.JPG,16,ISIC_6458982.JPG,ISIC_6458982.JPG,false,0,keypress(z),500,135668.79999995232,135668.39999997616,132391.648,132395.5,132412.993,135688.956,8,400,6,,ISIC_0026329.JPG
break,html.Screen,4_5_1,2023-10-30T21:43:58.141Z,,0,,,NaN,,,,,,false,,,,135669.69999992847,135669.5,,135669,,135688.956,8,400,,,
break_continue,html.Screen,4_5_2,2023-10-30T21:43:58.142Z,,0,,,NaN,,,,,,false,,,,135670,135669.89999997616,,135669.69999992847,,135688.956,8,400,,,
sequence,flow.Sequence,4_5,2023-10-30T21:43:58.142Z,,0,,,3256.9069999761705,completion,,,,,false,,,,135670,135669.89999997616,132391.648,132395.39999997616,132412.993,135688.956,8,400,,,
trial,html.Screen,4_6_0,2023-10-30T21:44:01.692Z,,0,1,,3530.643999904627,response,ISIC_3779424.JPG,11,ISIC_4052597.JPG,ISIC_3779424.JPG,false,1,keypress(m),500,139220,139219.59999990463,135667.905,135670.09999990463,135688.956,139235.318,8,400,7,,ISIC_4052597.JPG
break,html.Screen,4_6_1,2023-10-30T21:44:01.699Z,,0,,,NaN,,,,,,false,,,,139227.19999992847,139227.09999990463,,139220.09999990463,,139235.318,8,400,,,
break_continue,html.Screen,4_6_2,2023-10-30T21:44:01.699Z,,0,,,NaN,,,,,,false,,,,139227.5,139227.5,,139227.29999995232,,139235.318,8,400,,,
sequence,flow.Sequence,4_6,2023-10-30T21:44:01.699Z,,0,,,3538.5439999999944,completion,,,,,false,,,,139227.59999990463,139227.5,135667.905,135670.09999990463,135688.956,139235.318,8,400,,,
trial,html.Screen,4_7_0,2023-10-30T21:44:05.116Z,,0,1,,3408.981999952317,response,ISIC_3779093.JPG,24,ISIC_0069995.JPG,ISIC_0069995.JPG,false,0,keypress(z),500,142644.59999990463,142644.29999995232,139215.872,139227.59999990463,139235.318,142663.321,8,400,8,,ISIC_3779093.JPG
break,html.Screen,4_7_1,2023-10-30T21:44:05.117Z,,0,,,NaN,,,,,,false,,,,142645.29999995232,142645.09999990463,,142644.69999992847,,142663.321,8,400,,,
break_continue,html.Screen,4_7_2,2023-10-30T21:44:05.117Z,,0,,,NaN,,,,,,false,,,,142645.5,142645.5,,142645.39999997616,,142663.321,8,400,,,
sequence,flow.Sequence,4_7,2023-10-30T21:44:05.117Z,,0,,,3410.1820000000007,completion,,,,,false,,,,142645.59999990463,142645.5,139215.872,139227.59999990463,139235.318,142663.321,8,400,,,
trial,html.Screen,4_8_0,2023-10-30T21:44:08.741Z,,0,1,,3605.578999976162,response,ISIC_0068234.JPG,12,ISIC_9234944.JPG,ISIC_0068234.JPG,false,1,keypress(m),500,146269.19999992847,146268.89999997616,142647.652,142645.69999992847,142663.321,146299.359,8,400,9,,ISIC_9234944.JPG
break,html.Screen,4_8_1,2023-10-30T21:44:08.742Z,,0,,,NaN,,,,,,false,,,,146270,146269.89999997616,,146269.39999997616,,146299.359,8,400,,,
break_continue,html.Screen,4_8_2,2023-10-30T21:44:08.742Z,,0,,,NaN,,,,,,false,,,,146270.29999995232,146270.19999992847,,146270.09999990463,,146299.359,8,400,,,
sequence,flow.Sequence,4_8,2023-10-30T21:44:08.742Z,,0,,,3606.878999928478,completion,,,,,false,,,,146270.39999997616,146270.19999992847,142647.652,142645.69999992847,142663.321,146299.359,8,400,,,
trial,html.Screen,4_9_0,2023-10-30T21:44:12.009Z,,0,1,,3238.0409999761614,response,ISIC_9675304.JPG,6,ISIC_8618835.JPG,ISIC_9675304.JPG,false,1,keypress(m),500,149537.79999995232,149537.39999997616,146287.804,146270.5,146299.359,149557.149,8,400,10,,ISIC_8618835.JPG
break,html.Screen,4_9_1,2023-10-30T21:44:12.010Z,,0,,,NaN,,,,,,false,,,,149538.79999995232,149538.59999990463,,149538,,149557.149,8,400,,,
break_continue,html.Screen,4_9_2,2023-10-30T21:44:12.011Z,,0,,,NaN,,,,,,false,,,,149539.19999992847,149539,,149538.89999997616,,149557.149,8,400,,,
sequence,flow.Sequence,4_9,2023-10-30T21:44:12.011Z,,0,,,3239.6410000000033,completion,,,,,false,,,,149539.19999992847,149539,146287.804,146270.5,146299.359,149557.149,8,400,,,
trial,html.Screen,4_10_0,2023-10-30T21:44:15.584Z,,0,1,,3555.1509999523114,response,ISIC_0032762.JPG,12,ISIC_1960468.JPG,ISIC_1960468.JPG,false,0,keypress(z),500,153112.79999995232,153112.29999995232,149540.751,149539.39999997616,149557.149,153133.829,8,400,11,,ISIC_0032762.JPG
break,html.Screen,4_10_1,2023-10-30T21:44:15.586Z,,0,,,NaN,,,,,,false,,,,153114,153113.79999995232,,153113.19999992847,,153133.829,8,400,,,
break_continue,html.Screen,4_10_2,2023-10-30T21:44:15.586Z,,0,,,NaN,,,,,,false,,,,153114.39999997616,153114.29999995232,,153114.09999990463,,153133.829,8,400,,,
sequence,flow.Sequence,4_10,2023-10-30T21:44:15.587Z,,0,,,3557.1509999523114,completion,,,,,false,,,,153115.89999997616,153114.29999995232,149540.751,149539.29999995232,149557.149,153133.829,8,400,,,
trial,html.Screen,4_11_0,2023-10-30T21:44:19.048Z,,0,1,,3441.8709999284765,response,ISIC_0065204.JPG,30,ISIC_0067054.JPG,ISIC_0065204.JPG,false,1,keypress(m),500,156576,156575.69999992847,153118.208,153116,153133.829,156594.888,8,400,12,,ISIC_0067054.JPG
break,html.Screen,4_11_1,2023-10-30T21:44:19.049Z,,0,,,NaN,,,,,,false,,,,156576.79999995232,156576.69999992847,,156576.29999995232,,156594.888,8,400,,,
break_continue,html.Screen,4_11_2,2023-10-30T21:44:19.049Z,,0,,,NaN,,,,,,false,,,,156577.09999990463,156577.09999990463,,156577,,156594.888,8,400,,,
sequence,flow.Sequence,4_11,2023-10-30T21:44:19.049Z,,0,,,3443.2709999046347,completion,,,,,false,,,,156577.29999995232,156577.09999990463,153118.208,153115.89999997616,153133.829,156594.888,8,400,,,
trial,html.Screen,4_12_0,2023-10-30T21:44:23.407Z,,0,1,,4339.811999928468,response,ISIC_0012064.JPG,7,ISIC_0217267.JPG,ISIC_0012064.JPG,false,1,keypress(m),500,160935.09999990463,160934.69999992847,156571.897,156577.39999997616,156594.888,160953.672,8,400,13,,ISIC_0217267.JPG
break,html.Screen,4_12_1,2023-10-30T21:44:23.408Z,,0,,,NaN,,,,,,false,,,,160936,160935.79999995232,,160935.29999995232,,160953.672,8,400,,,
break_continue,html.Screen,4_12_2,2023-10-30T21:44:23.408Z,,0,,,NaN,,,,,,false,,,,160936.29999995232,160936.19999992847,,160936.19999992847,,160953.672,8,400,,,
sequence,flow.Sequence,4_12,2023-10-30T21:44:23.408Z,,0,,,4341.311999928468,completion,,,,,false,,,,160936.5,160936.19999992847,156571.897,156577.39999997616,156594.888,160953.672,8,400,,,
trial,html.Screen,4_13_0,2023-10-30T21:44:32.087Z,,0,1,,8661.527999928483,response,ISIC_5903193.JPG,4,ISIC_0072642.JPG,ISIC_5903193.JPG,false,1,keypress(m),500,169615.59999990463,169615.19999992847,160932.97,160936.5,160953.672,169634.567,8,400,14,,ISIC_0072642.JPG
break,html.Screen,4_13_1,2023-10-30T21:44:32.088Z,,0,,,NaN,,,,,,false,,,,169616.5,169616.29999995232,,169615.79999995232,,169634.567,8,400,,,
break_continue,html.Screen,4_13_2,2023-10-30T21:44:32.088Z,,0,,,NaN,,,,,,false,,,,169616.79999995232,169616.69999992847,,169616.5,,169634.567,8,400,,,
sequence,flow.Sequence,4_13,2023-10-30T21:44:32.088Z,,0,,,8663.027999928483,completion,,,,,false,,,,169616.79999995232,169616.69999992847,160932.97,160936.5,160953.672,169634.567,8,400,,,
trial,html.Screen,4_14_0,2023-10-30T21:44:37.404Z,,0,1,,5297.43299999999,response,ISIC_5499139.JPG,6,ISIC_7621412.JPG,ISIC_7621412.JPG,false,0,keypress(z),500,174932.39999997616,174932,169617.124,169617,169634.567,174951.722,8,400,15,,ISIC_5499139.JPG
break,html.Screen,4_14_1,2023-10-30T21:44:37.405Z,,0,,,NaN,,,,,,false,,,,174933.39999997616,174933.29999995232,,174932.59999990463,,174951.722,8,400,,,
break_continue,html.Screen,4_14_2,2023-10-30T21:44:37.405Z,,0,,,NaN,,,,,,false,,,,174933.79999995232,174933.69999992847,,174933.59999990463,,174951.722,8,400,,,
sequence,flow.Sequence,4_14,2023-10-30T21:44:37.405Z,,0,,,5299.132999928464,completion,,,,,false,,,,174933.79999995232,174933.69999992847,169617.124,169616.89999997616,169634.567,174951.722,8,400,,,
trial,html.Screen,4_15_0,2023-10-30T21:44:40.434Z,,0,1,,3010.5779999523074,response,ISIC_0026309.JPG,5,ISIC_0067979.JPG,ISIC_0067979.JPG,false,0,keypress(z),500,177962.69999992847,177962.29999995232,174928.792,174934,174951.722,177981.723,8,400,16,,ISIC_0026309.JPG
break,html.Screen,4_15_1,2023-10-30T21:44:40.435Z,,0,,,NaN,,,,,,false,,,,177963.59999990463,177963.39999997616,,177962.89999997616,,177981.723,8,400,,,
break_continue,html.Screen,4_15_2,2023-10-30T21:44:40.435Z,,0,,,NaN,,,,,,false,,,,177963.79999995232,177963.79999995232,,177963.69999992847,,177981.723,8,400,,,
sequence,flow.Sequence,4_15,2023-10-30T21:44:40.436Z,,0,,,3012.0779999523074,completion,,,,,false,,,,177964,177963.79999995232,174928.792,174934,174951.722,177981.723,8,400,,,
trial,html.Screen,4_16_0,2023-10-30T21:44:43.897Z,,0,1,,3443.576999952318,response,ISIC_9334956.JPG,18,ISIC_0072030.JPG,ISIC_0072030.JPG,false,0,keypress(z),500,181425.69999992847,181425.29999995232,177959.83,177964.09999990463,177981.723,181444.319,8,400,17,,ISIC_9334956.JPG
break,html.Screen,4_16_1,2023-10-30T21:44:43.898Z,,0,,,NaN,,,,,,false,,,,181426.59999990463,181426.39999997616,,181426,,181444.319,8,400,,,
break_continue,html.Screen,4_16_2,2023-10-30T21:44:43.899Z,,0,,,NaN,,,,,,false,,,,181427,181426.89999997616,,181426.79999995232,,181444.319,8,400,,,
sequence,flow.Sequence,4_16,2023-10-30T21:44:43.899Z,,0,,,3445.17699997616,completion,,,,,false,,,,181427.09999990463,181426.89999997616,177959.83,177964.09999990463,177981.723,181444.319,8,400,,,
trial,html.Screen,4_17_0,2023-10-30T21:44:47.891Z,,0,1,,3974.5809999761696,response,ISIC_1661837.JPG,8,ISIC_0058837.JPG,ISIC_0058837.JPG,false,0,keypress(z),500,185419.39999997616,185418.89999997616,181427.578,181427.19999992847,181444.319,185438.643,8,400,18,,ISIC_1661837.JPG
break,html.Screen,4_17_1,2023-10-30T21:44:47.892Z,,0,,,NaN,,,,,,false,,,,185420.29999995232,185420.09999990463,,185419.69999992847,,185438.643,8,400,,,
break_continue,html.Screen,4_17_2,2023-10-30T21:44:47.892Z,,0,,,NaN,,,,,,false,,,,185420.59999990463,185420.59999990463,,185420.5,,185438.643,8,400,,,
sequence,flow.Sequence,4_17,2023-10-30T21:44:47.892Z,,0,,,3976.280999904644,completion,,,,,false,,,,185420.69999992847,185420.59999990463,181427.578,181427.19999992847,181444.319,185438.643,8,400,,,
trial,html.Screen,4_18_0,2023-10-30T21:44:51.259Z,,0,1,,3348.1569999523053,response,ISIC_0029761.JPG,7,ISIC_3171104.JPG,ISIC_3171104.JPG,false,0,keypress(z),500,188787.19999992847,188786.79999995232,185422.579,185420.79999995232,185438.643,188813.484,8,400,19,,ISIC_0029761.JPG
break,html.Screen,4_18_1,2023-10-30T21:44:51.260Z,,0,,,NaN,,,,,,false,,,,188788,188787.89999997616,,188787.39999997616,,188813.484,8,400,,,
break_continue,html.Screen,4_18_2,2023-10-30T21:44:51.260Z,,0,,,NaN,,,,,,false,,,,188788.19999992847,188788.19999992847,,188788.09999990463,,188813.484,8,400,,,
sequence,flow.Sequence,4_18,2023-10-30T21:44:51.260Z,,0,,,3349.5569999284635,completion,,,,,false,,,,188788.29999995232,188788.19999992847,185422.579,185420.79999995232,185438.643,188813.484,8,400,,,
trial,html.Screen,4_19_0,2023-10-30T21:44:54.677Z,,0,1,,3391.615999904636,response,ISIC_2748873.JPG,12,ISIC_0031626.JPG,ISIC_2748873.JPG,false,1,keypress(m),500,192205.5,192205.09999990463,188790.24,188788.39999997616,188813.484,192224.726,8,400,20,,ISIC_0031626.JPG
break,html.Screen,4_19_1,2023-10-30T21:44:54.678Z,,0,,,NaN,,,,,,false,,,,192206.39999997616,192206.19999992847,,192205.69999992847,,192224.726,8,400,,,
break_continue,html.Screen,4_19_2,2023-10-30T21:44:54.678Z,,0,,,NaN,,,,,,false,,,,192206.79999995232,192206.69999992847,,192206.59999990463,,192224.726,8,400,,,
sequence,flow.Sequence,4_19,2023-10-30T21:44:54.678Z,,0,,,3393.2159999284777,completion,,,,,false,,,,192206.89999997616,192206.69999992847,188790.24,188788.39999997616,188813.484,192224.726,8,400,,,
trial,html.Screen,4_20_0,2023-10-30T21:44:57.650Z,,0,1,,2951.8739999046375,response,ISIC_3390057.JPG,30,ISIC_3789239.JPG,ISIC_3789239.JPG,false,0,keypress(z),500,195178.39999997616,195176.59999990463,192203.412,192206.89999997616,192224.726,195197.662,8,400,21,,ISIC_3390057.JPG
break,html.Screen,4_20_1,2023-10-30T21:44:57.651Z,,0,,,NaN,,,,,,false,,,,195179.29999995232,195179.09999990463,,195178.69999992847,,195197.662,8,400,,,
break_continue,html.Screen,4_20_2,2023-10-30T21:44:57.651Z,,0,,,NaN,,,,,,false,,,,195179.5,195179.5,,195179.29999995232,,195197.662,8,400,,,
sequence,flow.Sequence,4_20,2023-10-30T21:44:57.651Z,,0,,,2954.774000000005,completion,,,,,false,,,,195179.59999990463,195179.5,192203.412,192206.89999997616,192224.726,195197.662,8,400,,,
trial,html.Screen,4_21_0,2023-10-30T21:45:01.066Z,,0,1,,3396.737999976147,response,ISIC_0055081.JPG,13,ISIC_0004140.JPG,ISIC_0055081.JPG,false,1,keypress(m),500,198594.79999995232,198594.39999997616,195178.085,195179.79999995232,195197.662,198614.128,8,400,22,,ISIC_0004140.JPG
break,html.Screen,4_21_1,2023-10-30T21:45:01.067Z,,0,,,NaN,,,,,,false,,,,198595.79999995232,198595.5,,198595.09999990463,,198614.128,8,400,,,
break_continue,html.Screen,4_21_2,2023-10-30T21:45:01.068Z,,0,,,NaN,,,,,,false,,,,198596.09999990463,198596.09999990463,,198595.89999997616,,198614.128,8,400,,,
sequence,flow.Sequence,4_21,2023-10-30T21:45:01.068Z,,0,,,3398.4379999046214,completion,,,,,false,,,,198596.39999997616,198596.09999990463,195178.085,195179.79999995232,195197.662,198614.128,8,400,,,
trial,html.Screen,4_22_0,2023-10-30T21:45:04.702Z,,0,1,,3616.1719999523193,response,ISIC_0030128.JPG,30,ISIC_2021175.JPG,ISIC_0030128.JPG,false,1,keypress(m),500,202230.59999990463,202230.29999995232,198597.478,198596.5,198614.128,202278.392,8,400,23,,ISIC_2021175.JPG
break,html.Screen,4_22_1,2023-10-30T21:45:04.703Z,,0,,,NaN,,,,,,false,,,,202231.39999997616,202231.29999995232,,202230.79999995232,,202278.392,8,400,,,
break_continue,html.Screen,4_22_2,2023-10-30T21:45:04.703Z,,0,,,NaN,,,,,,false,,,,202231.59999990463,202231.59999990463,,202231.5,,202278.392,8,400,,,
sequence,flow.Sequence,4_22,2023-10-30T21:45:04.703Z,,0,,,3617.4719999046356,completion,,,,,false,,,,202231.79999995232,202231.59999990463,198597.478,198596.39999997616,198614.128,202278.392,8,400,,,
trial,html.Screen,4_23_0,2023-10-30T21:45:07.572Z,,0,1,,2821.70799990464,response,ISIC_8397077.JPG,12,ISIC_0757147.JPG,ISIC_8397077.JPG,false,1,keypress(m),500,205100.39999997616,205100.09999990463,202235.017,202231.79999995232,202278.392,205136.799,8,400,24,,ISIC_0757147.JPG
break,html.Screen,4_23_1,2023-10-30T21:45:07.573Z,,0,,,NaN,,,,,,false,,,,205101.09999990463,205101,,205100.69999992847,,205136.799,8,400,,,
break_continue,html.Screen,4_23_2,2023-10-30T21:45:07.573Z,,0,,,NaN,,,,,,false,,,,205101.39999997616,205101.39999997616,,205101.29999995232,,205136.799,8,400,,,
sequence,flow.Sequence,4_23,2023-10-30T21:45:07.573Z,,0,,,2823.0079999761656,completion,,,,,false,,,,205101.59999990463,205101.39999997616,202235.017,202231.79999995232,202278.392,205136.799,8,400,,,
trial,html.Screen,4_24_0,2023-10-30T21:45:10.711Z,,0,1,,3102.600999976159,response,ISIC_0072624.JPG,5,ISIC_0027063.JPG,ISIC_0072624.JPG,false,1,keypress(m),500,208239.89999997616,208239.39999997616,205103.74,205101.59999990463,205136.799,208259.033,8,400,25,,ISIC_0027063.JPG
break,html.Screen,4_24_1,2023-10-30T21:45:10.712Z,,0,,,NaN,,,,,,false,,,,208240.79999995232,208240.59999990463,,208240.19999992847,,208259.033,8,400,,,
break_continue,html.Screen,4_24_2,2023-10-30T21:45:10.713Z,,0,,,NaN,,,,,,false,,,,208241.09999990463,208241,,208240.89999997616,,208259.033,8,400,,,
sequence,flow.Sequence,4_24,2023-10-30T21:45:10.713Z,,0,,,3104.201000000001,completion,,,,,false,,,,208241.19999992847,208241,205103.74,205101.59999990463,205136.799,208259.033,8,400,,,
trial,html.Screen,4_25_0,2023-10-30T21:45:13.538Z,,0,1,,2807.2669999523205,response,ISIC_2106823.JPG,7,ISIC_0030417.JPG,ISIC_0030417.JPG,false,0,keypress(z),500,211066.59999990463,211066.29999995232,208238.485,208241.29999995232,208259.033,211085.342,8,400,26,,ISIC_2106823.JPG
break,html.Screen,4_25_1,2023-10-30T21:45:13.539Z,,0,,,NaN,,,,,,false,,,,211067.39999997616,211067.29999995232,,211066.79999995232,,211085.342,8,400,,,
break_continue,html.Screen,4_25_2,2023-10-30T21:45:13.539Z,,0,,,NaN,,,,,,false,,,,211067.59999990463,211067.59999990463,,211067.5,,211085.342,8,400,,,
sequence,flow.Sequence,4_25,2023-10-30T21:45:13.539Z,,0,,,2808.5669999046368,completion,,,,,false,,,,211067.69999992847,211067.59999990463,208238.485,208241.19999992847,208259.033,211085.342,8,400,,,
trial,html.Screen,4_26_0,2023-10-30T21:45:16.379Z,,0,1,,2821.8579999284702,response,ISIC_7642591.JPG,10,ISIC_7487840.JPG,ISIC_7642591.JPG,false,1,keypress(m),500,213907.5,213907.19999992847,211065.807,211067.79999995232,211085.342,213926.411,8,400,27,,ISIC_7487840.JPG
break,html.Screen,4_26_1,2023-10-30T21:45:16.380Z,,0,,,NaN,,,,,,false,,,,213908.39999997616,213908.19999992847,,213907.79999995232,,213926.411,8,400,,,
break_continue,html.Screen,4_26_2,2023-10-30T21:45:16.380Z,,0,,,NaN,,,,,,false,,,,213908.69999992847,213908.59999990463,,213908.59999990463,,213926.411,8,400,,,
sequence,flow.Sequence,4_26,2023-10-30T21:45:16.380Z,,0,,,2823.2579999046284,completion,,,,,false,,,,213908.79999995232,213908.59999990463,211065.807,211067.79999995232,211085.342,213926.411,8,400,,,
trial,html.Screen,4_27_0,2023-10-30T21:45:20.165Z,,0,1,,3766.68899990464,response,ISIC_0064071.JPG,10,ISIC_0032784.JPG,ISIC_0032784.JPG,false,0,keypress(z),500,217693.39999997616,217693.09999990463,213909.438,213908.89999997616,213926.411,217712.156,8,400,28,,ISIC_0064071.JPG
break,html.Screen,4_27_1,2023-10-30T21:45:20.166Z,,0,,,NaN,,,,,,false,,,,217694.19999992847,217694.09999990463,,217693.59999990463,,217712.156,8,400,,,
break_continue,html.Screen,4_27_2,2023-10-30T21:45:20.166Z,,0,,,NaN,,,,,,false,,,,217694.5,217694.39999997616,,217694.29999995232,,217712.156,8,400,,,
sequence,flow.Sequence,4_27,2023-10-30T21:45:20.166Z,,0,,,3767.9889999761654,completion,,,,,false,,,,217694.59999990463,217694.39999997616,213909.438,213908.79999995232,213926.411,217712.156,8,400,,,
trial,html.Screen,4_28_0,2023-10-30T21:45:23.310Z,,0,1,,3125.9439999046444,response,ISIC_0015166.JPG,9,ISIC_8806357.JPG,ISIC_8806357.JPG,false,0,keypress(z),500,220838.5,220838.09999990463,217692.102,217694.59999990463,217712.156,220857.632,8,400,29,,ISIC_0015166.JPG
break,html.Screen,4_28_1,2023-10-30T21:45:23.311Z,,0,,,NaN,,,,,,false,,,,220839.39999997616,220839.29999995232,,220838.79999995232,,220857.632,8,400,,,
break_continue,html.Screen,4_28_2,2023-10-30T21:45:23.311Z,,0,,,NaN,,,,,,false,,,,220839.79999995232,220839.59999990463,,220839.5,,220857.632,8,400,,,
sequence,flow.Sequence,4_28,2023-10-30T21:45:23.311Z,,0,,,3127.4439999046444,completion,,,,,false,,,,220839.89999997616,220839.59999990463,217692.102,217694.59999990463,217712.156,220857.632,8,400,,,
trial,html.Screen,4_29_0,2023-10-30T21:45:26.805Z,,0,1,,3475.667999952304,response,ISIC_0026497.JPG,10,ISIC_5776158.JPG,ISIC_5776158.JPG,false,0,keypress(z),500,224333.59999990463,224333.29999995232,220836.339,220840,220857.632,224399.01,8,400,30,,ISIC_0026497.JPG
break,html.Screen,4_29_1,2023-10-30T21:45:26.806Z,,0,,,NaN,,,,,,false,,,,224334.39999997616,224334.29999995232,,224333.89999997616,,224399.01,8,400,,,
break_continue,html.Screen,4_29_2,2023-10-30T21:45:26.806Z,,0,,,NaN,,,,,,false,,,,224334.79999995232,224334.69999992847,,224334.5,,224399.01,8,400,,,
sequence,flow.Sequence,4_29,2023-10-30T21:45:26.806Z,,0,,,3477.067999928462,completion,,,,,false,,,,224334.79999995232,224334.69999992847,220836.339,220839.89999997616,220857.632,224399.01,8,400,,,
trial,html.Screen,4_30_0,2023-10-30T21:45:30.282Z,,0,1,,3410.4899999999907,response,ISIC_0029214.JPG,25,ISIC_1258763.JPG,ISIC_1258763.JPG,false,0,keypress(z),500,227810,227809.5,224390.686,224334.89999997616,224399.01,227829.311,8,400,31,,ISIC_0029214.JPG
break,html.Screen,4_30_1,2023-10-30T21:45:30.283Z,,0,,,NaN,,,,,,false,,,,227811,227810.79999995232,,227810.29999995232,,227829.311,8,400,,,
break_continue,html.Screen,4_30_2,2023-10-30T21:45:30.283Z,,0,,,NaN,,,,,,false,,,,227811.29999995232,227811.19999992847,,227811.09999990463,,227829.311,8,400,,,
sequence,flow.Sequence,4_30,2023-10-30T21:45:30.283Z,,0,,,3412.189999928465,completion,,,,,false,,,,227811.39999997616,227811.19999992847,224390.686,224334.89999997616,224399.01,227829.311,8,400,,,
trial,html.Screen,4_31_0,2023-10-30T21:45:33.663Z,,0,1,,3362.189000000013,response,ISIC_0024285.JPG,7,ISIC_4936662.JPG,ISIC_0024285.JPG,false,1,keypress(m),500,231191.89999997616,231191.5,227808.632,227811.59999990463,227829.311,231209.947,8,400,32,,ISIC_4936662.JPG
break,html.Screen,4_31_1,2023-10-30T21:45:33.664Z,,0,,,NaN,,,,,,false,,,,231192.59999990463,231192.5,,231192.09999990463,,231209.947,8,400,,,
break_continue,html.Screen,4_31_2,2023-10-30T21:45:33.664Z,,0,,,NaN,,,,,,false,,,,231192.79999995232,231192.79999995232,,231192.69999992847,,231209.947,8,400,,,
sequence,flow.Sequence,4_31,2023-10-30T21:45:33.665Z,,0,,,3363.4889999523293,completion,,,,,false,,,,231193,231192.79999995232,227808.632,227811.5,227829.311,231209.947,8,400,,,
trial,html.Screen,4_32_0,2023-10-30T21:45:36.680Z,,0,1,,2998.252999928489,response,ISIC_7747998.JPG,7,ISIC_4468129.JPG,ISIC_4468129.JPG,false,0,keypress(z),500,234208.59999990463,234208.19999992847,231189.142,231193.09999990463,231209.947,234227.291,8,400,33,,ISIC_7747998.JPG
break,html.Screen,4_32_1,2023-10-30T21:45:36.681Z,,0,,,NaN,,,,,,false,,,,234209.39999997616,234209.19999992847,,234208.79999995232,,234227.291,8,400,,,
break_continue,html.Screen,4_32_2,2023-10-30T21:45:36.681Z,,0,,,NaN,,,,,,false,,,,234209.59999990463,234209.5,,234209.5,,234227.291,8,400,,,
sequence,flow.Sequence,4_32,2023-10-30T21:45:36.681Z,,0,,,2999.5530000000144,completion,,,,,false,,,,234209.69999992847,234209.5,231189.142,231193,231209.947,234227.291,8,400,,,
trial,html.Screen,4_33_0,2023-10-30T21:45:39.853Z,,0,1,,3153.2090000000026,response,ISIC_0071651.JPG,6,ISIC_0781315.JPG,ISIC_0071651.JPG,false,1,keypress(m),500,237380.89999997616,237380.5,234206.659,234209.79999995232,234227.291,237399.895,8,400,34,,ISIC_0781315.JPG
break,html.Screen,4_33_1,2023-10-30T21:45:39.853Z,,0,,,NaN,,,,,,false,,,,237381.79999995232,237381.59999990463,,237381.09999990463,,237399.895,8,400,,,
break_continue,html.Screen,4_33_2,2023-10-30T21:45:39.854Z,,0,,,NaN,,,,,,false,,,,237382.09999990463,237382,,237381.89999997616,,237399.895,8,400,,,
sequence,flow.Sequence,4_33,2023-10-30T21:45:39.854Z,,0,,,3154.7090000000026,completion,,,,,false,,,,237382.19999992847,237382,234206.659,234209.79999995232,234227.291,237399.895,8,400,,,
trial,html.Screen,4_34_0,2023-10-30T21:45:42.980Z,,0,1,,3108.304999928485,response,ISIC_0058837.JPG,32,ISIC_9159730.JPG,ISIC_0058837.JPG,false,1,keypress(m),500,240508.59999990463,240508.19999992847,237384.134,237382.29999995232,237399.895,240527.616,8,400,35,,ISIC_9159730.JPG
break,html.Screen,4_34_1,2023-10-30T21:45:42.981Z,,0,,,NaN,,,,,,false,,,,240509.39999997616,240509.29999995232,,240508.79999995232,,240527.616,8,400,,,
break_continue,html.Screen,4_34_2,2023-10-30T21:45:42.981Z,,0,,,NaN,,,,,,false,,,,240509.69999992847,240509.59999990463,,240509.5,,240527.616,8,400,,,
sequence,flow.Sequence,4_34,2023-10-30T21:45:42.981Z,,0,,,3109.704999904643,completion,,,,,false,,,,240509.79999995232,240509.59999990463,237384.134,237382.29999995232,237399.895,240527.616,8,400,,,
trial,html.Screen,4_35_0,2023-10-30T21:45:47.164Z,,0,1,,4164.583999928465,response,ISIC_0011163.JPG,10,ISIC_0063842.JPG,ISIC_0063842.JPG,false,0,keypress(z),500,244692.39999997616,244692.19999992847,240507.124,240509.89999997616,240527.616,244710.749,8,400,36,,ISIC_0011163.JPG
break,html.Screen,4_35_1,2023-10-30T21:45:47.165Z,,0,,,NaN,,,,,,false,,,,244693.09999990463,244693,,244692.59999990463,,244710.749,8,400,,,
break_continue,html.Screen,4_35_2,2023-10-30T21:45:47.165Z,,0,,,NaN,,,,,,false,,,,244693.29999995232,244693.29999995232,,244693.19999992847,,244710.749,8,400,,,
sequence,flow.Sequence,4_35,2023-10-30T21:45:47.165Z,,0,,,4165.683999952307,completion,,,,,false,,,,244693.5,244693.29999995232,240507.124,240509.89999997616,240527.616,244710.749,8,400,,,
trial,html.Screen,4_36_0,2023-10-30T21:45:50.112Z,,0,1,,2929.2509999999893,response,ISIC_1530981.JPG,13,ISIC_1630301.JPG,ISIC_1630301.JPG,false,0,keypress(z),500,247640.39999997616,247640,244690.248,244693.5,244710.749,247667.914,8,400,37,,ISIC_1530981.JPG
break,html.Screen,4_36_1,2023-10-30T21:45:50.113Z,,0,,,NaN,,,,,,false,,,,247641.09999990463,247641,,247640.5,,247667.914,8,400,,,
break_continue,html.Screen,4_36_2,2023-10-30T21:45:50.113Z,,0,,,NaN,,,,,,false,,,,247641.29999995232,247641.29999995232,,247641.09999990463,,247667.914,8,400,,,
sequence,flow.Sequence,4_36,2023-10-30T21:45:50.113Z,,0,,,2930.5509999523056,completion,,,,,false,,,,247641.39999997616,247641.29999995232,244690.248,244693.5,244710.749,247667.914,8,400,,,
trial,html.Screen,4_37_0,2023-10-30T21:45:52.857Z,,0,1,,2717.3859999523265,response,ISIC_0029934.JPG,11,ISIC_0060380.JPG,ISIC_0060380.JPG,false,0,keypress(z),500,250385.69999992847,250385.29999995232,247658.878,247641.5,247667.914,250437.301,8,400,38,,ISIC_0029934.JPG
break,html.Screen,4_37_1,2023-10-30T21:45:52.858Z,,0,,,NaN,,,,,,false,,,,250386.29999995232,250386.19999992847,,250385.79999995232,,250437.301,8,400,,,
break_continue,html.Screen,4_37_2,2023-10-30T21:45:52.858Z,,0,,,NaN,,,,,,false,,,,250386.59999990463,250386.5,,250386.29999995232,,250437.301,8,400,,,
sequence,flow.Sequence,4_37,2023-10-30T21:45:52.858Z,,0,,,2718.5860000000102,completion,,,,,false,,,,250386.59999990463,250386.5,247658.878,247641.5,247667.914,250437.301,8,400,,,
trial,html.Screen,4_38_0,2023-10-30T21:45:56.190Z,,0,1,,3280.3989999284677,response,ISIC_3377082.JPG,9,ISIC_0024802.JPG,ISIC_0024802.JPG,false,0,keypress(z),500,253718.09999990463,253717.69999992847,250388.475,250386.69999992847,250437.301,253767.593,8,400,39,,ISIC_3377082.JPG
break,html.Screen,4_38_1,2023-10-30T21:45:56.191Z,,0,,,NaN,,,,,,false,,,,253719,253718.89999997616,,253718.39999997616,,253767.593,8,400,,,
break_continue,html.Screen,4_38_2,2023-10-30T21:45:56.191Z,,0,,,NaN,,,,,,false,,,,253719.29999995232,253719.19999992847,,253719.09999990463,,253767.593,8,400,,,
sequence,flow.Sequence,4_38,2023-10-30T21:45:56.191Z,,0,,,3281.8989999284677,completion,,,,,false,,,,253719.29999995232,253719.19999992847,250388.475,250386.69999992847,250437.301,253767.593,8,400,,,
trial,html.Screen,4_39_0,2023-10-30T21:46:00.086Z,,0,1,,3845.606999928481,response,ISIC_1260545.JPG,10,ISIC_2152875.JPG,ISIC_2152875.JPG,false,0,keypress(z),500,257613.89999997616,257613.19999992847,253720.779,253719.39999997616,253767.593,257621.697,8,400,40,,ISIC_1260545.JPG
break,html.Screen,4_39_1,2023-10-30T21:46:00.086Z,,0,,,NaN,,,,,,false,,,,257614.79999995232,257614.59999990463,,257614.19999992847,,257621.697,8,400,,,
break_continue,html.Screen,4_39_2,2023-10-30T21:46:00.087Z,,0,,,NaN,,,,,,false,,,,257615,257614.89999997616,,257614.89999997616,,257621.697,8,400,,,
sequence,flow.Sequence,4_39,2023-10-30T21:46:00.087Z,,0,,,3847.3069999761647,completion,,,,,false,,,,257615.19999992847,257614.89999997616,253720.779,253719.39999997616,253767.593,257621.697,8,400,,,
trial,html.Screen,4_40_0,2023-10-30T21:46:04.270Z,,0,1,,4176.602999952331,response,ISIC_5092834.JPG,16,ISIC_0067933.JPG,ISIC_5092834.JPG,false,1,keypress(m),500,261798.69999992847,261798.29999995232,257613.308,257615.19999992847,257621.697,261825.477,8,400,41,,ISIC_0067933.JPG
break,html.Screen,4_40_1,2023-10-30T21:46:04.272Z,,0,,,NaN,,,,,,false,,,,261800.19999992847,261799.69999992847,,261798.89999997616,,261825.477,8,400,,,
break_continue,html.Screen,4_40_2,2023-10-30T21:46:04.272Z,,0,,,NaN,,,,,,false,,,,261800.59999990463,261800.5,,261800.29999995232,,261825.477,8,400,,,
sequence,flow.Sequence,4_40,2023-10-30T21:46:04.272Z,,0,,,4178.803000000014,completion,,,,,false,,,,261800.69999992847,261800.5,257613.308,257615.19999992847,257621.697,261825.477,8,400,,,
trial,html.Screen,4_41_0,2023-10-30T21:46:07.347Z,,0,1,,3050.0229999999865,response,ISIC_2728024.JPG,11,ISIC_0010372.JPG,ISIC_0010372.JPG,false,0,keypress(z),500,264875.7999999523,264875.5,261813.854,261800.79999995232,261825.477,264904.987,8,400,42,,ISIC_2728024.JPG
break,html.Screen,4_41_1,2023-10-30T21:46:07.348Z,,0,,,NaN,,,,,,false,,,,264876.59999990463,264876.5,,264876,,264904.987,8,400,,,
break_continue,html.Screen,4_41_2,2023-10-30T21:46:07.349Z,,0,,,NaN,,,,,,false,,,,264876.89999997616,264876.7999999523,,264876.6999999285,,264904.987,8,400,,,
sequence,flow.Sequence,4_41,2023-10-30T21:46:07.349Z,,0,,,3051.322999952303,completion,,,,,false,,,,264877,264876.7999999523,261813.854,261800.69999992847,261825.477,264904.987,8,400,,,
trial,html.Screen,4_42_0,2023-10-30T21:46:10.671Z,,0,1,,3294.012999999977,response,ISIC_0063664.JPG,15,ISIC_0046672.JPG,ISIC_0046672.JPG,false,0,keypress(z),500,268199.2999999523,268199,264894.68,264877.09999990463,264904.987,268217.981,8,400,43,,ISIC_0063664.JPG
break,html.Screen,4_42_1,2023-10-30T21:46:10.672Z,,0,,,NaN,,,,,,false,,,,268200,268200,,268199.5,,268217.981,8,400,,,
break_continue,html.Screen,4_42_2,2023-10-30T21:46:10.672Z,,0,,,NaN,,,,,,false,,,,268200.2999999523,268200.1999999285,,268200.09999990463,,268217.981,8,400,,,
sequence,flow.Sequence,4_42,2023-10-30T21:46:10.672Z,,0,,,3295.2129999284516,completion,,,,,false,,,,268200.39999997616,268200.1999999285,264894.68,264877.09999990463,264904.987,268217.981,8,400,,,
trial,html.Screen,4_43_0,2023-10-30T21:46:15.156Z,,0,1,,4465.818999952287,response,ISIC_0013258.JPG,11,ISIC_7921023.JPG,ISIC_0013258.JPG,false,1,keypress(m),500,272684.1999999285,272683.7999999523,268197.407,268200.59999990463,268217.981,272702.615,8,400,44,,ISIC_7921023.JPG
break,html.Screen,4_43_1,2023-10-30T21:46:15.157Z,,0,,,NaN,,,,,,false,,,,272684.89999997616,272684.7999999523,,272684.39999997616,,272702.615,8,400,,,
break_continue,html.Screen,4_43_2,2023-10-30T21:46:15.157Z,,0,,,NaN,,,,,,false,,,,272685.1999999285,272685.09999990463,,272685.09999990463,,272702.615,8,400,,,
sequence,flow.Sequence,4_43,2023-10-30T21:46:15.157Z,,0,,,4467.118999904604,completion,,,,,false,,,,272685.2999999523,272685.09999990463,268197.407,268200.59999990463,268217.981,272702.615,8,400,,,
trial,html.Screen,4_44_0,2023-10-30T21:46:18.696Z,,0,1,,3521.2849999761675,response,ISIC_6809191.JPG,8,ISIC_8284685.JPG,ISIC_6809191.JPG,false,1,keypress(m),500,276224.1999999285,276223.89999997616,272686.388,272685.39999997616,272702.615,276242.528,8,400,45,,ISIC_8284685.JPG
break,html.Screen,4_44_1,2023-10-30T21:46:18.697Z,,0,,,NaN,,,,,,false,,,,276225,276224.7999999523,,276224.5,,276242.528,8,400,,,
break_continue,html.Screen,4_44_2,2023-10-30T21:46:18.697Z,,0,,,NaN,,,,,,false,,,,276225.1999999285,276225.1999999285,,276225.09999990463,,276242.528,8,400,,,
sequence,flow.Sequence,4_44,2023-10-30T21:46:18.697Z,,0,,,3522.5849999284837,completion,,,,,false,,,,276225.2999999523,276225.1999999285,272686.388,272685.39999997616,272702.615,276242.528,8,400,,,
trial,html.Screen,4_45_0,2023-10-30T21:46:21.916Z,,0,1,,3201.5719999046414,response,ISIC_0033121.JPG,11,ISIC_3026660.JPG,ISIC_3026660.JPG,false,0,keypress(z),500,279444.5,279444.09999990463,276226.149,276225.39999997616,276242.528,279477.168,8,400,46,,ISIC_0033121.JPG
break,html.Screen,4_45_1,2023-10-30T21:46:21.917Z,,0,,,NaN,,,,,,false,,,,279445.39999997616,279445.1999999285,,279444.6999999285,,279477.168,8,400,,,
break_continue,html.Screen,4_45_2,2023-10-30T21:46:21.917Z,,0,,,NaN,,,,,,false,,,,279445.7999999523,279445.6999999285,,279445.5,,279477.168,8,400,,,
sequence,flow.Sequence,4_45,2023-10-30T21:46:21.918Z,,0,,,3203.1719999284833,completion,,,,,false,,,,279445.7999999523,279445.6999999285,276226.149,276225.39999997616,276242.528,279477.168,8,400,,,
trial,html.Screen,4_46_0,2023-10-30T21:46:25.441Z,,0,1,,3491.831999999995,response,ISIC_3478437.JPG,32,ISIC_0047008.JPG,ISIC_3478437.JPG,false,1,keypress(m),500,282969.1999999285,282969,279448.371,279446,279477.168,283004.067,8,400,47,,ISIC_0047008.JPG
break,html.Screen,4_46_1,2023-10-30T21:46:25.442Z,,0,,,NaN,,,,,,false,,,,282969.89999997616,282969.7999999523,,282969.5,,283004.067,8,400,,,
break_continue,html.Screen,4_46_2,2023-10-30T21:46:25.442Z,,0,,,NaN,,,,,,false,,,,282970.1999999285,282970.09999990463,,282970.09999990463,,283004.067,8,400,,,
sequence,flow.Sequence,4_46,2023-10-30T21:46:25.442Z,,0,,,3492.9319999046274,completion,,,,,false,,,,282970.2999999523,282970.09999990463,279448.371,279446,279477.168,283004.067,8,400,,,
trial,html.Screen,4_47_0,2023-10-30T21:46:29.036Z,,0,1,,3559.6329999284935,response,ISIC_0026208.JPG,9,ISIC_0056409.JPG,ISIC_0026208.JPG,false,1,keypress(m),500,286564,286563.6999999285,282987.619,282970.39999997616,283004.067,286582.882,8,400,48,,ISIC_0056409.JPG
break,html.Screen,4_47_1,2023-10-30T21:46:29.036Z,,0,,,NaN,,,,,,false,,,,286564.7999999523,286564.6999999285,,286564.1999999285,,286582.882,8,400,,,
break_continue,html.Screen,4_47_2,2023-10-30T21:46:29.037Z,,0,,,NaN,,,,,,false,,,,286565.09999990463,286565,,286565,,286582.882,8,400,,,
sequence,flow.Sequence,4_47,2023-10-30T21:46:29.037Z,,0,,,3560.933000000019,completion,,,,,false,,,,286565.1999999285,286565,282987.619,282970.2999999523,283004.067,286582.882,8,400,,,
trial,html.Screen,4_48_0,2023-10-30T21:46:32.335Z,,0,1,,3280.317999928491,response,ISIC_0063180.JPG,16,ISIC_4049598.JPG,ISIC_4049598.JPG,false,0,keypress(z),500,289863.59999990463,289863.1999999285,286560.536,286565.2999999523,286582.882,289883.258,8,400,49,,ISIC_0063180.JPG
break,html.Screen,4_48_1,2023-10-30T21:46:32.336Z,,0,,,NaN,,,,,,false,,,,289864.5,289864.2999999523,,289863.89999997616,,289883.258,8,400,,,
break_continue,html.Screen,4_48_2,2023-10-30T21:46:32.336Z,,0,,,NaN,,,,,,false,,,,289864.7999999523,289864.59999990463,,289864.59999990463,,289883.258,8,400,,,
sequence,flow.Sequence,4_48,2023-10-30T21:46:32.337Z,,0,,,3281.7179999046493,completion,,,,,false,,,,289864.89999997616,289864.59999990463,286560.536,286565.2999999523,286582.882,289883.258,8,400,,,
trial,html.Screen,4_49_0,2023-10-30T21:46:35.509Z,,0,1,,3154.2420000000275,response,ISIC_0377965.JPG,6,ISIC_6808543.JPG,ISIC_0377965.JPG,false,1,keypress(m),500,293037.7999999523,293037.5,289864.893,289865,289883.258,293052.03,8,400,50,,ISIC_6808543.JPG
break,html.Screen,4_49_1,2023-10-30T21:46:45.517Z,,0,,,9999.613999999943,timeout,,,,,false,,,,303045.5,303043.965,293035.427,293038.09999990463,293052.03,303051.644,8,400,,,
break_continue,html.Screen,4_49_2,2023-10-30T21:46:46.613Z,,0,,,1067.5559999285033,response,,,,,false,continue,keypress(Space),,304141.2999999523,304119.1999999285,303043.965,303045.7999999523,303051.644,304165.749,8,400,,,
sequence,flow.Sequence,4_49,2023-10-30T21:46:46.613Z,,0,,,14235.941999928502,completion,,,,,false,,,,304141.39999997616,304119.1999999285,289864.893,289864.89999997616,289883.258,304165.749,8,400,,,
trial,html.Screen,4_50_0,2023-10-30T21:46:49.916Z,,0,2,,3278.850999904622,response,ISIC_1053427.JPG,7,ISIC_0031546.JPG,ISIC_0031546.JPG,false,0,keypress(z),500,307445,307444.59999990463,304143.43,304141.59999990463,304165.749,307463.75,8,400,1,,ISIC_1053427.JPG
break,html.Screen,4_50_1,2023-10-30T21:46:49.917Z,,0,,,NaN,,,,,,false,,,,307445.7999999523,307445.6999999285,,307445.1999999285,,307463.75,8,400,,,
break_continue,html.Screen,4_50_2,2023-10-30T21:46:49.918Z,,0,,,NaN,,,,,,false,,,,307446.09999990463,307446,,307445.89999997616,,307463.75,8,400,,,
sequence,flow.Sequence,4_50,2023-10-30T21:46:49.918Z,,0,,,3280.2509999999893,completion,,,,,false,,,,307446.1999999285,307446,304143.43,304141.59999990463,304165.749,307463.75,8,400,,,
trial,html.Screen,4_51_0,2023-10-30T21:47:09.882Z,,0,2,,19953.386999999988,timeout,ISIC_0080817.JPG,10,ISIC_0011648.JPG,,false,,,500,327411,327410.5,307443.354,307446.2999999523,307463.75,327417.137,8,400,2,,
break,html.Screen,4_51_1,2023-10-30T21:47:09.883Z,,0,,,NaN,,,,,,false,,,,327411.7999999523,327411.59999990463,,327411.09999990463,,327417.137,8,400,,,
break_continue,html.Screen,4_51_2,2023-10-30T21:47:09.884Z,,0,,,NaN,,,,,,false,,,,327412.09999990463,327412,,327411.89999997616,,327417.137,8,400,,,
sequence,flow.Sequence,4_51,2023-10-30T21:47:09.884Z,,0,,,19948.25,completion,,,,,false,,,,327412.1999999285,327412,307443.354,307446.2999999523,307463.75,327417.137,8,400,,,
trial,html.Screen,4_52_0,2023-10-30T21:47:13.538Z,,0,2,,3649.1629999523284,response,ISIC_1605629.JPG,12,ISIC_9544832.JPG,ISIC_1605629.JPG,false,1,keypress(m),500,331066.6999999285,331066.2999999523,327409.549,327412.2999999523,327417.137,331084.826,8,400,3,,ISIC_9544832.JPG
break,html.Screen,4_52_1,2023-10-30T21:47:13.539Z,,0,,,NaN,,,,,,false,,,,331067.39999997616,331067.1999999285,,331066.7999999523,,331084.826,8,400,,,
break_continue,html.Screen,4_52_2,2023-10-30T21:47:13.539Z,,0,,,NaN,,,,,,false,,,,331067.59999990463,331067.59999990463,,331067.5,,331084.826,8,400,,,
sequence,flow.Sequence,4_52,2023-10-30T21:47:13.539Z,,0,,,3650.4629999046447,completion,,,,,false,,,,331067.6999999285,331067.59999990463,327409.549,327412.2999999523,327417.137,331084.826,8,400,,,
trial,html.Screen,4_53_0,2023-10-30T21:47:17.048Z,,0,2,,3491.3739999284735,response,ISIC_0008864.JPG,5,ISIC_6954782.JPG,ISIC_6954782.JPG,false,0,keypress(z),500,334576.6999999285,334576.1999999285,331068.824,331067.7999999523,331084.826,334631.854,8,400,4,,ISIC_0008864.JPG
break,html.Screen,4_53_1,2023-10-30T21:47:17.049Z,,0,,,NaN,,,,,,false,,,,334577.89999997616,334577.59999990463,,334577.09999990463,,334631.854,8,400,,,
break_continue,html.Screen,4_53_2,2023-10-30T21:47:17.050Z,,0,,,NaN,,,,,,false,,,,334578.1999999285,334578.1999999285,,334578.09999990463,,334631.854,8,400,,,
sequence,flow.Sequence,4_53,2023-10-30T21:47:17.050Z,,0,,,3493.3739999284735,completion,,,,,false,,,,334578.39999997616,334578.1999999285,331068.824,331067.7999999523,331084.826,334631.854,8,400,,,
trial,html.Screen,4_54_0,2023-10-30T21:47:20.080Z,,0,2,,2976.2459999046405,response,ISIC_4184101.JPG,11,ISIC_0029944.JPG,ISIC_0029944.JPG,false,0,keypress(z),500,337608.59999990463,337608.09999990463,334596.73,334578.5,334631.854,337627.934,8,400,5,,ISIC_4184101.JPG
break,html.Screen,4_54_1,2023-10-30T21:47:20.081Z,,0,,,NaN,,,,,,false,,,,337609.6999999285,337609.39999997616,,337608.89999997616,,337627.934,8,400,,,
break_continue,html.Screen,4_54_2,2023-10-30T21:47:20.081Z,,0,,,NaN,,,,,,false,,,,337609.89999997616,337609.89999997616,,337609.7999999523,,337627.934,8,400,,,
sequence,flow.Sequence,4_54,2023-10-30T21:47:20.082Z,,0,,,2978.045999976166,completion,,,,,false,,,,337610.09999990463,337609.89999997616,334596.73,334578.5,334631.854,337627.934,8,400,,,
trial,html.Screen,4_55_0,2023-10-30T21:47:24.203Z,,0,2,,4102.665999904624,response,ISIC_4879187.JPG,6,ISIC_2524005.JPG,ISIC_4879187.JPG,false,1,keypress(m),500,341731.09999990463,341730.59999990463,337611.736,337610.1999999285,337627.934,341750.525,8,400,6,,ISIC_2524005.JPG
break,html.Screen,4_55_1,2023-10-30T21:47:24.204Z,,0,,,NaN,,,,,,false,,,,341732.09999990463,341731.89999997616,,341731.39999997616,,341750.525,8,400,,,
break_continue,html.Screen,4_55_2,2023-10-30T21:47:24.204Z,,0,,,NaN,,,,,,false,,,,341732.39999997616,341732.39999997616,,341732.2999999523,,341750.525,8,400,,,
sequence,flow.Sequence,4_55,2023-10-30T21:47:24.204Z,,0,,,4104.46599997615,completion,,,,,false,,,,341732.59999990463,341732.39999997616,337611.736,337610.1999999285,337627.934,341750.525,8,400,,,
trial,html.Screen,4_56_0,2023-10-30T21:47:27.298Z,,0,2,,3075.5749999046093,response,ISIC_0032510.JPG,9,ISIC_0057518.JPG,ISIC_0057518.JPG,false,0,keypress(z),500,344826.39999997616,344826.09999990463,341728.723,341732.6999999285,341750.525,344842.086,8,400,7,,ISIC_0032510.JPG
break,html.Screen,4_56_1,2023-10-30T21:47:27.306Z,,0,,,NaN,,,,,,false,,,,344834.09999990463,344833.89999997616,,344826.59999990463,,344842.086,8,400,,,
break_continue,html.Screen,4_56_2,2023-10-30T21:47:27.306Z,,0,,,NaN,,,,,,false,,,,344834.39999997616,344834.2999999523,,344834.1999999285,,344842.086,8,400,,,
sequence,flow.Sequence,4_56,2023-10-30T21:47:27.306Z,,0,,,3083.774999952293,completion,,,,,false,,,,344834.5,344834.2999999523,341728.723,341732.6999999285,341750.525,344842.086,8,400,,,
trial,html.Screen,4_57_0,2023-10-30T21:47:30.061Z,,0,2,,2747.113999928464,response,ISIC_5807608.JPG,10,ISIC_0067667.JPG,ISIC_0067667.JPG,false,0,keypress(z),500,347589.6999999285,347589.1999999285,344820.19,344834.59999990463,344842.086,347626.333,8,400,8,,ISIC_5807608.JPG
break,html.Screen,4_57_1,2023-10-30T21:47:30.062Z,,0,,,NaN,,,,,,false,,,,347590.89999997616,347590.5,,347590,,347626.333,8,400,,,
break_continue,html.Screen,4_57_2,2023-10-30T21:47:30.063Z,,0,,,NaN,,,,,,false,,,,347591.2999999523,347591.1999999285,,347591,,347626.333,8,400,,,
sequence,flow.Sequence,4_57,2023-10-30T21:47:30.063Z,,0,,,2749.113999928464,completion,,,,,false,,,,347591.5,347591.1999999285,344820.19,344834.59999990463,344842.086,347626.333,8,400,,,
trial,html.Screen,4_58_0,2023-10-30T21:47:32.838Z,,0,2,,2739.8669999284903,response,ISIC_0056900.JPG,7,ISIC_0058585.JPG,ISIC_0056900.JPG,false,1,keypress(m),500,350366.6999999285,350366.1999999285,347594.301,347591.59999990463,347626.333,350385.631,8,400,9,,ISIC_0058585.JPG
break,html.Screen,4_58_1,2023-10-30T21:47:32.839Z,,0,,,NaN,,,,,,false,,,,350367.59999990463,350367.39999997616,,350366.89999997616,,350385.631,8,400,,,
break_continue,html.Screen,4_58_2,2023-10-30T21:47:32.839Z,,0,,,NaN,,,,,,false,,,,350367.89999997616,350367.7999999523,,350367.6999999285,,350385.631,8,400,,,
sequence,flow.Sequence,4_58,2023-10-30T21:47:32.839Z,,0,,,2741.466999952332,completion,,,,,false,,,,350368,350367.7999999523,347594.301,347591.5,347626.333,350385.631,8,400,,,
trial,html.Screen,4_59_0,2023-10-30T21:47:35.467Z,,0,2,,2608.869000000006,response,ISIC_8175453.JPG,10,ISIC_7919133.JPG,ISIC_7919133.JPG,false,0,keypress(z),500,352995.2999999523,352994.5,350366.338,350368.09999990463,350385.631,353014.893,8,400,10,,ISIC_8175453.JPG
break,html.Screen,4_59_1,2023-10-30T21:47:35.468Z,,0,,,NaN,,,,,,false,,,,352996.7999999523,352996.6999999285,,352995.6999999285,,353014.893,8,400,,,
break_continue,html.Screen,4_59_2,2023-10-30T21:47:35.469Z,,0,,,NaN,,,,,,false,,,,352997.09999990463,352997.09999990463,,352996.89999997616,,353014.893,8,400,,,
sequence,flow.Sequence,4_59,2023-10-30T21:47:35.469Z,,0,,,2611.4689999046386,completion,,,,,false,,,,352997.2999999523,352997.09999990463,350366.338,350368.09999990463,350385.631,353014.893,8,400,,,
trial,html.Screen,4_60_0,2023-10-30T21:47:41.391Z,,0,2,,5903.806999928493,response,ISIC_1293743.JPG,10,ISIC_0010784.JPG,ISIC_0010784.JPG,false,0,keypress(z),500,358919.1999999285,358918.6999999285,352995.817,352997.39999997616,353014.893,358938.181,8,400,11,,ISIC_1293743.JPG
break,html.Screen,4_60_1,2023-10-30T21:47:41.392Z,,0,,,NaN,,,,,,false,,,,358920.2999999523,358920.09999990463,,358919.39999997616,,358938.181,8,400,,,
break_continue,html.Screen,4_60_2,2023-10-30T21:47:41.392Z,,0,,,NaN,,,,,,false,,,,358920.59999990463,358920.5,,358920.2999999523,,358938.181,8,400,,,
sequence,flow.Sequence,4_60,2023-10-30T21:47:41.392Z,,0,,,5905.607000000018,completion,,,,,false,,,,358920.59999990463,358920.5,352995.817,352997.2999999523,353014.893,358938.181,8,400,,,
trial,html.Screen,4_61_0,2023-10-30T21:47:44.327Z,,0,2,,2916.718999976176,response,ISIC_7409889.JPG,5,ISIC_0011628.JPG,ISIC_0011628.JPG,false,0,keypress(z),500,361855.1999999285,361854.89999997616,358923.31,358920.6999999285,358938.181,361873.566,8,400,12,,ISIC_7409889.JPG
break,html.Screen,4_61_1,2023-10-30T21:47:44.327Z,,0,,,NaN,,,,,,false,,,,361855.89999997616,361855.7999999523,,361855.39999997616,,361873.566,8,400,,,
break_continue,html.Screen,4_61_2,2023-10-30T21:47:44.328Z,,0,,,NaN,,,,,,false,,,,361856.09999990463,361856.09999990463,,361856,,361873.566,8,400,,,
sequence,flow.Sequence,4_61,2023-10-30T21:47:44.328Z,,0,,,2917.9189999046503,completion,,,,,false,,,,361856.1999999285,361856.09999990463,358923.31,358920.6999999285,358938.181,361873.566,8,400,,,
trial,html.Screen,4_62_0,2023-10-30T21:47:49.338Z,,0,2,,4992.233999952325,response,ISIC_1479949.JPG,7,ISIC_0026188.JPG,ISIC_0026188.JPG,false,0,keypress(z),500,366866.1999999285,366865.7999999523,361852.563,361856.2999999523,361873.566,366885.223,8,400,13,,ISIC_1479949.JPG
break,html.Screen,4_62_1,2023-10-30T21:47:49.339Z,,0,,,NaN,,,,,,false,,,,366867,366866.7999999523,,366866.39999997616,,366885.223,8,400,,,
break_continue,html.Screen,4_62_2,2023-10-30T21:47:49.339Z,,0,,,NaN,,,,,,false,,,,366867.2999999523,366867.2999999523,,366867.1999999285,,366885.223,8,400,,,
sequence,flow.Sequence,4_62,2023-10-30T21:47:49.339Z,,0,,,4993.733999952325,completion,,,,,false,,,,366867.5,366867.2999999523,361852.563,361856.2999999523,361873.566,366885.223,8,400,,,
trial,html.Screen,4_63_0,2023-10-30T21:47:52.513Z,,0,2,,3156.076999952318,response,ISIC_0014291.JPG,10,ISIC_0068000.JPG,ISIC_0014291.JPG,false,1,keypress(m),500,370041.59999990463,370041.2999999523,366864.593,366867.59999990463,366885.223,370059.715,8,400,14,,ISIC_0068000.JPG
break,html.Screen,4_63_1,2023-10-30T21:47:52.514Z,,0,,,NaN,,,,,,false,,,,370042.39999997616,370042.1999999285,,370041.7999999523,,370059.715,8,400,,,
break_continue,html.Screen,4_63_2,2023-10-30T21:47:52.514Z,,0,,,NaN,,,,,,false,,,,370042.59999990463,370042.59999990463,,370042.5,,370059.715,8,400,,,
sequence,flow.Sequence,4_63,2023-10-30T21:47:52.514Z,,0,,,3157.3769999046344,completion,,,,,false,,,,370042.6999999285,370042.59999990463,366864.593,366867.5,366885.223,370059.715,8,400,,,
trial,html.Screen,4_64_0,2023-10-30T21:47:55.748Z,,0,2,,3216.884999904607,response,ISIC_2007396.JPG,33,ISIC_0009886.JPG,ISIC_0009886.JPG,false,0,keypress(z),500,373276.89999997616,373276.59999990463,370040.803,370042.7999999523,370059.715,373296.219,8,400,15,,ISIC_2007396.JPG
break,html.Screen,4_64_1,2023-10-30T21:47:55.749Z,,0,,,NaN,,,,,,false,,,,373277.7999999523,373277.59999990463,,373277.09999990463,,373296.219,8,400,,,
break_continue,html.Screen,4_64_2,2023-10-30T21:47:55.750Z,,0,,,NaN,,,,,,false,,,,373278,373277.89999997616,,373277.89999997616,,373296.219,8,400,,,
sequence,flow.Sequence,4_64,2023-10-30T21:47:55.750Z,,0,,,3218.1849999761325,completion,,,,,false,,,,373278,373277.89999997616,370040.803,370042.7999999523,370059.715,373296.219,8,400,,,
trial,html.Screen,4_65_0,2023-10-30T21:47:58.732Z,,0,2,,2964.38099990465,response,ISIC_0013736.JPG,9,ISIC_0069952.JPG,ISIC_0013736.JPG,false,1,keypress(m),500,376260.89999997616,376260.59999990463,373279.043,373278.09999990463,373296.219,376279.644,8,400,16,,ISIC_0069952.JPG
break,html.Screen,4_65_1,2023-10-30T21:47:58.733Z,,0,,,NaN,,,,,,false,,,,376261.6999999285,376261.5,,376261.09999990463,,376279.644,8,400,,,
break_continue,html.Screen,4_65_2,2023-10-30T21:47:58.734Z,,0,,,NaN,,,,,,false,,,,376261.89999997616,376261.89999997616,,376261.7999999523,,376279.644,8,400,,,
sequence,flow.Sequence,4_65,2023-10-30T21:47:58.734Z,,0,,,2965.6809999761754,completion,,,,,false,,,,376262,376261.89999997616,373279.043,373278.09999990463,373296.219,376279.644,8,400,,,
trial,html.Screen,4_66_0,2023-10-30T21:48:01.507Z,,0,2,,2755.255999976187,response,ISIC_5755836.JPG,5,ISIC_0032192.JPG,ISIC_0032192.JPG,false,0,keypress(z),500,379035.2999999523,379034.89999997616,376258.373,376262.09999990463,376279.644,379054.458,8,400,17,,ISIC_5755836.JPG
break,html.Screen,4_66_1,2023-10-30T21:48:01.508Z,,0,,,NaN,,,,,,false,,,,379036.1999999285,379036,,379035.59999990463,,379054.458,8,400,,,
break_continue,html.Screen,4_66_2,2023-10-30T21:48:01.508Z,,0,,,NaN,,,,,,false,,,,379036.5,379036.39999997616,,379036.39999997616,,379054.458,8,400,,,
sequence,flow.Sequence,4_66,2023-10-30T21:48:01.508Z,,0,,,2756.755999976187,completion,,,,,false,,,,379036.59999990463,379036.39999997616,376258.373,376262.09999990463,376279.644,379054.458,8,400,,,
trial,html.Screen,4_67_0,2023-10-30T21:48:04.919Z,,0,2,,3392.441999976174,response,ISIC_0011958.JPG,6,ISIC_0059609.JPG,ISIC_0011958.JPG,false,1,keypress(m),500,382447.2999999523,382446.89999997616,379035.128,379036.6999999285,379054.458,382490.289,8,400,18,,ISIC_0059609.JPG
break,html.Screen,4_67_1,2023-10-30T21:48:04.920Z,,0,,,NaN,,,,,,false,,,,382448.09999990463,382447.7999999523,,382447.39999997616,,382490.289,8,400,,,
break_continue,html.Screen,4_67_2,2023-10-30T21:48:04.920Z,,0,,,NaN,,,,,,false,,,,382448.1999999285,382448.1999999285,,382448.09999990463,,382490.289,8,400,,,
sequence,flow.Sequence,4_67,2023-10-30T21:48:04.920Z,,0,,,3393.7419999284903,completion,,,,,false,,,,382448.39999997616,382448.1999999285,379035.128,379036.6999999285,379054.458,382490.289,8,400,,,
trial,html.Screen,4_68_0,2023-10-30T21:48:07.745Z,,0,2,,2783.1109999761684,response,ISIC_8650516.JPG,14,ISIC_9685928.JPG,ISIC_9685928.JPG,false,0,keypress(z),500,385273.89999997616,385273.39999997616,382450.507,382448.5,382490.289,385292.875,8,400,19,,ISIC_8650516.JPG
break,html.Screen,4_68_1,2023-10-30T21:48:07.746Z,,0,,,NaN,,,,,,false,,,,385274.7999999523,385274.59999990463,,385274.09999990463,,385292.875,8,400,,,
break_continue,html.Screen,4_68_2,2023-10-30T21:48:07.747Z,,0,,,NaN,,,,,,false,,,,385275.09999990463,385275,,385275,,385292.875,8,400,,,
sequence,flow.Sequence,4_68,2023-10-30T21:48:07.747Z,,0,,,2784.7110000000102,completion,,,,,false,,,,385275.2999999523,385275,382450.507,382448.39999997616,382490.289,385292.875,8,400,,,
trial,html.Screen,4_69_0,2023-10-30T21:48:10.453Z,,0,2,,2688.4249999523163,response,ISIC_0056635.JPG,11,ISIC_5218773.JPG,ISIC_0056635.JPG,false,1,keypress(m),500,387981.7999999523,387981.2999999523,385271.19,385275.2999999523,385292.875,388000.777,8,400,20,,ISIC_5218773.JPG
break,html.Screen,4_69_1,2023-10-30T21:48:10.454Z,,0,,,NaN,,,,,,false,,,,387982.6999999285,387982.59999990463,,387982.09999990463,,388000.777,8,400,,,
break_continue,html.Screen,4_69_2,2023-10-30T21:48:10.455Z,,0,,,NaN,,,,,,false,,,,387983,387983,,387982.89999997616,,388000.777,8,400,,,
sequence,flow.Sequence,4_69,2023-10-30T21:48:10.455Z,,0,,,2690.125,completion,,,,,false,,,,387983.09999990463,387983,385271.19,385275.2999999523,385292.875,388000.777,8,400,,,
trial,html.Screen,4_70_0,2023-10-30T21:48:13.690Z,,0,2,,3216.9229999284726,response,ISIC_5979807.JPG,8,ISIC_0029630.JPG,ISIC_0029630.JPG,false,0,keypress(z),500,391218.1999999285,391217.6999999285,387982.747,387983.1999999285,388000.777,391237.507,8,400,21,,ISIC_5979807.JPG
break,html.Screen,4_70_1,2023-10-30T21:48:13.691Z,,0,,,NaN,,,,,,false,,,,391219.09999990463,391219,,391218.39999997616,,391237.507,8,400,,,
break_continue,html.Screen,4_70_2,2023-10-30T21:48:13.691Z,,0,,,NaN,,,,,,false,,,,391219.5,391219.5,,391219.2999999523,,391237.507,8,400,,,
sequence,flow.Sequence,4_70,2023-10-30T21:48:13.691Z,,0,,,3218.722999999998,completion,,,,,false,,,,391219.6999999285,391219.5,387982.747,387983.1999999285,388000.777,391237.507,8,400,,,
trial,html.Screen,4_71_0,2023-10-30T21:48:16.590Z,,0,2,,2880.692999928491,response,ISIC_0065872.JPG,12,ISIC_0061531.JPG,ISIC_0061531.JPG,false,0,keypress(z),500,394118.59999990463,394118.1999999285,391215.368,391219.7999999523,391237.507,394137.8,8,400,22,,ISIC_0065872.JPG
break,html.Screen,4_71_1,2023-10-30T21:48:16.591Z,,0,,,NaN,,,,,,false,,,,394119.59999990463,394119.39999997616,,394118.89999997616,,394137.8,8,400,,,
break_continue,html.Screen,4_71_2,2023-10-30T21:48:16.591Z,,0,,,NaN,,,,,,false,,,,394119.89999997616,394119.7999999523,,394119.6999999285,,394137.8,8,400,,,
sequence,flow.Sequence,4_71,2023-10-30T21:48:16.592Z,,0,,,2882.292999952333,completion,,,,,false,,,,394120,394119.7999999523,391215.368,391219.7999999523,391237.507,394137.8,8,400,,,
trial,html.Screen,4_72_0,2023-10-30T21:48:19.640Z,,0,2,,3030.7000000000116,response,ISIC_3520709.JPG,11,ISIC_0008162.JPG,ISIC_3520709.JPG,false,1,keypress(m),500,397168.89999997616,397168.5,394118.015,394120.1999999285,394137.8,397187.947,8,400,23,,ISIC_0008162.JPG
break,html.Screen,4_72_1,2023-10-30T21:48:19.641Z,,0,,,NaN,,,,,,false,,,,397169.7999999523,397169.59999990463,,397169.09999990463,,397187.947,8,400,,,
break_continue,html.Screen,4_72_2,2023-10-30T21:48:19.642Z,,0,,,NaN,,,,,,false,,,,397170.1999999285,397170,,397169.89999997616,,397187.947,8,400,,,
sequence,flow.Sequence,4_72,2023-10-30T21:48:19.642Z,,0,,,3032.2000000000116,completion,,,,,false,,,,397170.2999999523,397170,394118.015,394120.09999990463,394137.8,397187.947,8,400,,,
trial,html.Screen,4_73_0,2023-10-30T21:48:22.499Z,,0,2,,2839.152999904647,response,ISIC_0033564.JPG,7,ISIC_0070170.JPG,ISIC_0070170.JPG,false,0,keypress(z),500,400027.5,400027.09999990463,397171.57,397170.39999997616,397187.947,400047.561,8,400,24,,ISIC_0033564.JPG
break,html.Screen,4_73_1,2023-10-30T21:48:22.500Z,,0,,,NaN,,,,,,false,,,,400028.6999999285,400028.59999990463,,400027.89999997616,,400047.561,8,400,,,
break_continue,html.Screen,4_73_2,2023-10-30T21:48:22.501Z,,0,,,NaN,,,,,,false,,,,400029.1999999285,400029.09999990463,,400029,,400047.561,8,400,,,
sequence,flow.Sequence,4_73,2023-10-30T21:48:22.501Z,,0,,,2841.152999904647,completion,,,,,false,,,,400029.2999999523,400029.09999990463,397171.57,397170.39999997616,397187.947,400047.561,8,400,,,
trial,html.Screen,4_74_0,2023-10-30T21:48:25.545Z,,0,2,,3025.5389999046456,response,ISIC_3278303.JPG,8,ISIC_6785041.JPG,ISIC_3278303.JPG,false,1,keypress(m),500,403073.39999997616,403073.09999990463,400031.566,400029.5,400047.561,403092.436,8,400,25,,ISIC_6785041.JPG
break,html.Screen,4_74_1,2023-10-30T21:48:25.546Z,,0,,,NaN,,,,,,false,,,,403074.2999999523,403074.1999999285,,403073.59999990463,,403092.436,8,400,,,
break_continue,html.Screen,4_74_2,2023-10-30T21:48:25.546Z,,0,,,NaN,,,,,,false,,,,403074.5,403074.5,,403074.39999997616,,403092.436,8,400,,,
sequence,flow.Sequence,4_74,2023-10-30T21:48:25.546Z,,0,,,3026.939000000013,completion,,,,,false,,,,403074.6999999285,403074.5,400031.566,400029.39999997616,400047.561,403092.436,8,400,,,
trial,html.Screen,4_75_0,2023-10-30T21:48:28.548Z,,0,2,,2983.564000000013,response,ISIC_0011697.JPG,6,ISIC_0032233.JPG,ISIC_0011697.JPG,false,1,keypress(m),500,406076.2999999523,406076,403069.835,403074.7999999523,403092.436,406095.267,8,400,26,,ISIC_0032233.JPG
break,html.Screen,4_75_1,2023-10-30T21:48:28.549Z,,0,,,NaN,,,,,,false,,,,406077.1999999285,406077.09999990463,,406076.59999990463,,406095.267,8,400,,,
break_continue,html.Screen,4_75_2,2023-10-30T21:48:28.549Z,,0,,,NaN,,,,,,false,,,,406077.5,406077.39999997616,,406077.39999997616,,406095.267,8,400,,,
sequence,flow.Sequence,4_75,2023-10-30T21:48:28.549Z,,0,,,2984.963999976171,completion,,,,,false,,,,406077.59999990463,406077.39999997616,403069.835,403074.6999999285,403092.436,406095.267,8,400,,,
trial,html.Screen,4_76_0,2023-10-30T21:48:32.283Z,,0,2,,3716.2330000000075,response,ISIC_6732560.JPG,22,ISIC_9317483.JPG,ISIC_9317483.JPG,false,0,keypress(z),500,409811.89999997616,409811.5,406072.59,406077.6999999285,406095.267,409830.985,8,400,27,,ISIC_6732560.JPG
break,html.Screen,4_76_1,2023-10-30T21:48:32.284Z,,0,,,NaN,,,,,,false,,,,409812.7999999523,409812.6999999285,,409812.1999999285,,409830.985,8,400,,,
break_continue,html.Screen,4_76_2,2023-10-30T21:48:32.285Z,,0,,,NaN,,,,,,false,,,,409813.1999999285,409813,,409812.89999997616,,409830.985,8,400,,,
sequence,flow.Sequence,4_76,2023-10-30T21:48:32.285Z,,0,,,3717.7330000000075,completion,,,,,false,,,,409813.1999999285,409813,406072.59,406077.6999999285,406095.267,409830.985,8,400,,,
trial,html.Screen,4_77_0,2023-10-30T21:48:35.602Z,,0,2,,3298.8149999523303,response,ISIC_0026364.JPG,7,ISIC_7936755.JPG,ISIC_7936755.JPG,false,0,keypress(z),500,413130.2999999523,413129.7999999523,409811.742,409813.39999997616,409830.985,413140.011,8,400,28,,ISIC_0026364.JPG
break,html.Screen,4_77_1,2023-10-30T21:48:35.603Z,,0,,,NaN,,,,,,false,,,,413131.2999999523,413131,,413130.5,,413140.011,8,400,,,
break_continue,html.Screen,4_77_2,2023-10-30T21:48:35.603Z,,0,,,NaN,,,,,,false,,,,413131.59999990463,413131.5,,413131.2999999523,,413140.011,8,400,,,
sequence,flow.Sequence,4_77,2023-10-30T21:48:35.603Z,,0,,,3300.515000000014,completion,,,,,false,,,,413131.6999999285,413131.5,409811.742,409813.2999999523,409830.985,413140.011,8,400,,,
trial,html.Screen,4_78_0,2023-10-30T21:48:42.457Z,,0,2,,6844.688999928476,response,ISIC_0057759.JPG,19,ISIC_0000585.JPG,ISIC_0057759.JPG,false,1,keypress(m),500,419985,419984.6999999285,413130.28,413131.7999999523,413140.011,420003.644,8,400,29,,ISIC_0000585.JPG
break,html.Screen,4_78_1,2023-10-30T21:48:42.457Z,,0,,,NaN,,,,,,false,,,,419985.7999999523,419985.59999990463,,419985.2999999523,,420003.644,8,400,,,
break_continue,html.Screen,4_78_2,2023-10-30T21:48:42.458Z,,0,,,NaN,,,,,,false,,,,419986,419986,,419985.89999997616,,420003.644,8,400,,,
sequence,flow.Sequence,4_78,2023-10-30T21:48:42.458Z,,0,,,6845.989000000001,completion,,,,,false,,,,419986.09999990463,419986,413130.28,413131.7999999523,413140.011,420003.644,8,400,,,
trial,html.Screen,4_79_0,2023-10-30T21:48:45.892Z,,0,2,,3415.856000000029,response,ISIC_5538169.JPG,12,ISIC_7621389.JPG,ISIC_7621389.JPG,false,0,keypress(z),500,423420,423419.5,419985.508,419986.1999999285,420003.644,423439.12,8,400,30,,ISIC_5538169.JPG
break,html.Screen,4_79_1,2023-10-30T21:48:45.893Z,,0,,,NaN,,,,,,false,,,,423420.89999997616,423420.7999999523,,423420.2999999523,,423439.12,8,400,,,
break_continue,html.Screen,4_79_2,2023-10-30T21:48:45.893Z,,0,,,NaN,,,,,,false,,,,423421.2999999523,423421.1999999285,,423421.09999990463,,423439.12,8,400,,,
sequence,flow.Sequence,4_79,2023-10-30T21:48:45.893Z,,0,,,3417.5559999285033,completion,,,,,false,,,,423421.39999997616,423421.1999999285,419985.508,419986.1999999285,420003.644,423439.12,8,400,,,
trial,html.Screen,4_80_0,2023-10-30T21:48:49.639Z,,0,2,,3728.779999976163,response,ISIC_0065341.JPG,27,ISIC_0032680.JPG,ISIC_0065341.JPG,false,1,keypress(m),500,427168.2999999523,427167.89999997616,423416.562,423421.5,423439.12,427208.616,8,400,31,,ISIC_0032680.JPG
break,html.Screen,4_80_1,2023-10-30T21:48:49.640Z,,0,,,NaN,,,,,,false,,,,427169.09999990463,427168.89999997616,,427168.5,,427208.616,8,400,,,
break_continue,html.Screen,4_80_2,2023-10-30T21:48:49.640Z,,0,,,NaN,,,,,,false,,,,427169.2999999523,427169.1999999285,,427169.09999990463,,427208.616,8,400,,,
sequence,flow.Sequence,4_80,2023-10-30T21:48:49.640Z,,0,,,3730.079999928479,completion,,,,,false,,,,427169.39999997616,427169.1999999285,423416.562,423421.5,423439.12,427208.616,8,400,,,
trial,html.Screen,4_81_0,2023-10-30T21:48:53.554Z,,0,2,,3874.0839999284944,response,ISIC_9865097.JPG,8,ISIC_6027459.JPG,ISIC_9865097.JPG,false,1,keypress(m),500,431083.09999990463,431082.6999999285,427181.013,427169.5,427208.616,431102.306,8,400,32,,ISIC_6027459.JPG
break,html.Screen,4_81_1,2023-10-30T21:48:53.555Z,,0,,,NaN,,,,,,false,,,,431084.09999990463,431083.89999997616,,431083.39999997616,,431102.306,8,400,,,
break_continue,html.Screen,4_81_2,2023-10-30T21:48:53.556Z,,0,,,NaN,,,,,,false,,,,431084.39999997616,431084.2999999523,,431084.2999999523,,431102.306,8,400,,,
sequence,flow.Sequence,4_81,2023-10-30T21:48:53.556Z,,0,,,3875.6839999523363,completion,,,,,false,,,,431084.59999990463,431084.2999999523,427181.013,427169.5,427208.616,431102.306,8,400,,,
trial,html.Screen,4_82_0,2023-10-30T21:48:56.461Z,,0,2,,2887.2939999046503,response,ISIC_9317483.JPG,9,ISIC_0033239.JPG,ISIC_9317483.JPG,false,1,keypress(m),500,433990.09999990463,433989.59999990463,431082.214,431084.59999990463,431102.306,434009.501,8,400,33,,ISIC_0033239.JPG
break,html.Screen,4_82_1,2023-10-30T21:48:56.462Z,,0,,,NaN,,,,,,false,,,,433991.09999990463,433990.89999997616,,433990.2999999523,,434009.501,8,400,,,
break_continue,html.Screen,4_82_2,2023-10-30T21:48:56.463Z,,0,,,NaN,,,,,,false,,,,433991.39999997616,433991.39999997616,,433991.2999999523,,434009.501,8,400,,,
sequence,flow.Sequence,4_82,2023-10-30T21:48:56.463Z,,0,,,2889.093999976176,completion,,,,,false,,,,433991.5,433991.39999997616,431082.214,431084.59999990463,431102.306,434009.501,8,400,,,
trial,html.Screen,4_83_0,2023-10-30T21:48:59.217Z,,0,2,,2736.298999952327,response,ISIC_9826778.JPG,11,ISIC_7980339.JPG,ISIC_7980339.JPG,false,0,keypress(z),500,436746.1999999285,436745.7999999523,433988.311,433991.6999999285,434009.501,436764.813,8,400,34,,ISIC_9826778.JPG
break,html.Screen,4_83_1,2023-10-30T21:48:59.218Z,,0,,,NaN,,,,,,false,,,,436747,436746.7999999523,,436746.2999999523,,436764.813,8,400,,,
break_continue,html.Screen,4_83_2,2023-10-30T21:48:59.218Z,,0,,,NaN,,,,,,false,,,,436747.1999999285,436747.1999999285,,436747,,436764.813,8,400,,,
sequence,flow.Sequence,4_83,2023-10-30T21:48:59.218Z,,0,,,2737.698999928485,completion,,,,,false,,,,436747.39999997616,436747.1999999285,433988.311,433991.59999990463,434009.501,436764.813,8,400,,,
trial,html.Screen,4_84_0,2023-10-30T21:49:03.933Z,,0,2,,4696.286999904609,response,ISIC_2134975.JPG,11,ISIC_0000531.JPG,ISIC_2134975.JPG,false,1,keypress(m),500,441461.39999997616,441461.09999990463,436743.797,436747.5,436764.813,441485.536,8,400,35,,ISIC_0000531.JPG
break,html.Screen,4_84_1,2023-10-30T21:49:03.933Z,,0,,,NaN,,,,,,false,,,,441462.09999990463,441462,,441461.59999990463,,441485.536,8,400,,,
break_continue,html.Screen,4_84_2,2023-10-30T21:49:03.933Z,,0,,,NaN,,,,,,false,,,,441462.2999999523,441462.2999999523,,441462.1999999285,,441485.536,8,400,,,
sequence,flow.Sequence,4_84,2023-10-30T21:49:03.934Z,,0,,,4697.4869999522925,completion,,,,,false,,,,441462.5,441462.2999999523,436743.797,436747.5,436764.813,441485.536,8,400,,,
trial,html.Screen,4_85_0,2023-10-30T21:49:07.472Z,,0,2,,3515.3639999761363,response,ISIC_1264950.JPG,5,ISIC_0032892.JPG,ISIC_0032892.JPG,false,0,keypress(z),500,445001.2999999523,445000.89999997616,441461.855,441462.5,441485.536,445020.017,8,400,36,,ISIC_1264950.JPG
break,html.Screen,4_85_1,2023-10-30T21:49:07.473Z,,0,,,NaN,,,,,,false,,,,445002.1999999285,445002.09999990463,,445001.5,,445020.017,8,400,,,
break_continue,html.Screen,4_85_2,2023-10-30T21:49:07.474Z,,0,,,NaN,,,,,,false,,,,445002.5,445002.39999997616,,445002.39999997616,,445020.017,8,400,,,
sequence,flow.Sequence,4_85,2023-10-30T21:49:07.474Z,,0,,,3516.8639999761363,completion,,,,,false,,,,445002.6999999285,445002.39999997616,441461.855,441462.5,441485.536,445020.017,8,400,,,
trial,html.Screen,4_86_0,2023-10-30T21:49:11.144Z,,0,2,,3652.9830000000075,response,ISIC_0014255.JPG,13,ISIC_2212473.JPG,ISIC_0014255.JPG,false,1,keypress(m),500,448673.39999997616,448673,444999.627,445002.7999999523,445020.017,448692.147,8,400,37,,ISIC_2212473.JPG
break,html.Screen,4_86_1,2023-10-30T21:49:11.145Z,,0,,,NaN,,,,,,false,,,,448674.1999999285,448674.09999990463,,448673.59999990463,,448692.147,8,400,,,
break_continue,html.Screen,4_86_2,2023-10-30T21:49:11.146Z,,0,,,NaN,,,,,,false,,,,448674.5,448674.39999997616,,448674.2999999523,,448692.147,8,400,,,
sequence,flow.Sequence,4_86,2023-10-30T21:49:11.146Z,,0,,,3654.3829999761656,completion,,,,,false,,,,448674.59999990463,448674.39999997616,444999.627,445002.7999999523,445020.017,448692.147,8,400,,,
trial,html.Screen,4_87_0,2023-10-30T21:49:15.392Z,,0,2,,4228.552999928477,response,ISIC_6199335.JPG,9,ISIC_0904712.JPG,ISIC_6199335.JPG,false,1,keypress(m),500,452921.1999999285,452920.6999999285,448675.689,448674.6999999285,448692.147,452940.948,8,400,38,,ISIC_0904712.JPG
break,html.Screen,4_87_1,2023-10-30T21:49:15.393Z,,0,,,NaN,,,,,,false,,,,452922.39999997616,452922.09999990463,,452921.59999990463,,452940.948,8,400,,,
break_continue,html.Screen,4_87_2,2023-10-30T21:49:15.394Z,,0,,,NaN,,,,,,false,,,,452922.6999999285,452922.59999990463,,452922.5,,452940.948,8,400,,,
sequence,flow.Sequence,4_87,2023-10-30T21:49:15.394Z,,0,,,4230.452999904635,completion,,,,,false,,,,452922.7999999523,452922.59999990463,448675.689,448674.6999999285,448692.147,452940.948,8,400,,,
trial,html.Screen,4_88_0,2023-10-30T21:49:18.503Z,,0,2,,3090.2519999284996,response,ISIC_0026921.JPG,9,ISIC_0030900.JPG,ISIC_0026921.JPG,false,1,keypress(m),500,456031.5,456031.1999999285,452924.787,452923,452940.948,456049.795,8,400,39,,ISIC_0030900.JPG
break,html.Screen,4_88_1,2023-10-30T21:49:18.503Z,,0,,,NaN,,,,,,false,,,,456032.1999999285,456032,,456031.59999990463,,456049.795,8,400,,,
break_continue,html.Screen,4_88_2,2023-10-30T21:49:18.503Z,,0,,,NaN,,,,,,false,,,,456032.39999997616,456032.2999999523,,456032.2999999523,,456049.795,8,400,,,
sequence,flow.Sequence,4_88,2023-10-30T21:49:18.504Z,,0,,,3091.3519999523414,completion,,,,,false,,,,456032.5,456032.2999999523,452924.787,452922.89999997616,452940.948,456049.795,8,400,,,
trial,html.Screen,4_89_0,2023-10-30T21:49:21.853Z,,0,2,,3331.4049999284907,response,ISIC_7288818.JPG,11,ISIC_4589609.JPG,ISIC_7288818.JPG,false,1,keypress(m),500,459381.6999999285,459381.1999999285,456033.198,456032.5,456049.795,459400.834,8,400,40,,ISIC_4589609.JPG
break,html.Screen,4_89_1,2023-10-30T21:49:21.854Z,,0,,,NaN,,,,,,false,,,,459382.59999990463,459382.39999997616,,459382,,459400.834,8,400,,,
break_continue,html.Screen,4_89_2,2023-10-30T21:49:21.854Z,,0,,,NaN,,,,,,false,,,,459382.89999997616,459382.7999999523,,459382.6999999285,,459400.834,8,400,,,
sequence,flow.Sequence,4_89,2023-10-30T21:49:21.854Z,,0,,,3333.0049999523326,completion,,,,,false,,,,459383,459382.7999999523,456033.198,456032.5,456049.795,459400.834,8,400,,,
trial,html.Screen,4_90_0,2023-10-30T21:49:25.555Z,,0,2,,3682.965999952343,response,ISIC_4640293.JPG,4,ISIC_1334038.JPG,ISIC_1334038.JPG,false,0,keypress(z),500,463084.1999999285,463083.7999999523,459379.071,459383.09999990463,459400.834,463103.569,8,400,41,,ISIC_4640293.JPG
break,html.Screen,4_90_1,2023-10-30T21:49:25.556Z,,0,,,NaN,,,,,,false,,,,463084.89999997616,463084.7999999523,,463084.2999999523,,463103.569,8,400,,,
break_continue,html.Screen,4_90_2,2023-10-30T21:49:25.556Z,,0,,,NaN,,,,,,false,,,,463085.1999999285,463085.09999990463,,463085,,463103.569,8,400,,,
sequence,flow.Sequence,4_90,2023-10-30T21:49:25.556Z,,0,,,3684.265999904659,completion,,,,,false,,,,463085.2999999523,463085.09999990463,459379.071,459383.09999990463,459400.834,463103.569,8,400,,,
trial,html.Screen,4_91_0,2023-10-30T21:49:28.649Z,,0,2,,3074.3309999761404,response,ISIC_4748605.JPG,6,ISIC_1739667.JPG,ISIC_4748605.JPG,false,1,keypress(m),500,466178.2999999523,466177.89999997616,463082.181,463085.5,463103.569,466194.083,8,400,42,,ISIC_1739667.JPG
break,html.Screen,4_91_1,2023-10-30T21:49:28.657Z,,0,,,NaN,,,,,,false,,,,466185.89999997616,466185.6999999285,,466178.59999990463,,466194.083,8,400,,,
break_continue,html.Screen,4_91_2,2023-10-30T21:49:28.657Z,,0,,,NaN,,,,,,false,,,,466186.09999990463,466186.09999990463,,466186,,466194.083,8,400,,,
sequence,flow.Sequence,4_91,2023-10-30T21:49:28.657Z,,0,,,3082.530999904615,completion,,,,,false,,,,466186.1999999285,466186.09999990463,463082.181,463085.39999997616,463103.569,466194.083,8,400,,,
trial,html.Screen,4_92_0,2023-10-30T21:49:31.528Z,,0,2,,2862.216999952332,response,ISIC_0000213.JPG,8,ISIC_9974299.JPG,ISIC_0000213.JPG,false,1,keypress(m),500,469056.59999990463,469056.2999999523,466179.055,466186.2999999523,466194.083,469120.624,8,400,43,,ISIC_9974299.JPG
break,html.Screen,4_92_1,2023-10-30T21:49:31.529Z,,0,,,NaN,,,,,,false,,,,469057.5,469057.2999999523,,469056.89999997616,,469120.624,8,400,,,
break_continue,html.Screen,4_92_2,2023-10-30T21:49:31.529Z,,0,,,NaN,,,,,,false,,,,469057.6999999285,469057.59999990463,,469057.59999990463,,469120.624,8,400,,,
sequence,flow.Sequence,4_92,2023-10-30T21:49:31.529Z,,0,,,2863.5169999046484,completion,,,,,false,,,,469057.7999999523,469057.59999990463,466179.055,466186.1999999285,466194.083,469120.624,8,400,,,
trial,html.Screen,4_93_0,2023-10-30T21:49:34.509Z,,0,2,,2917.1759999523056,response,ISIC_2349994.JPG,10,ISIC_0069667.JPG,ISIC_0069667.JPG,false,0,keypress(z),500,472038.1999999285,472037.7999999523,469075.458,469057.89999997616,469120.624,472057.061,8,400,44,,ISIC_2349994.JPG
break,html.Screen,4_93_1,2023-10-30T21:49:34.510Z,,0,,,NaN,,,,,,false,,,,472039.09999990463,472038.89999997616,,472038.39999997616,,472057.061,8,400,,,
break_continue,html.Screen,4_93_2,2023-10-30T21:49:34.510Z,,0,,,NaN,,,,,,false,,,,472039.39999997616,472039.1999999285,,472039.1999999285,,472057.061,8,400,,,
sequence,flow.Sequence,4_93,2023-10-30T21:49:34.511Z,,0,,,2918.5759999284637,completion,,,,,false,,,,472039.5,472039.1999999285,469075.458,469057.89999997616,469120.624,472057.061,8,400,,,
trial,html.Screen,4_94_0,2023-10-30T21:49:38.421Z,,0,2,,3892.7389999523293,response,ISIC_0071367.JPG,8,ISIC_0062765.JPG,ISIC_0062765.JPG,false,0,keypress(z),500,475950.1999999285,475949.7999999523,472035.417,472039.59999990463,472057.061,475974.673,8,400,45,,ISIC_0071367.JPG
break,html.Screen,4_94_1,2023-10-30T21:49:38.422Z,,0,,,NaN,,,,,,false,,,,475951.2999999523,475951.09999990463,,475950.5,,475974.673,8,400,,,
break_continue,html.Screen,4_94_2,2023-10-30T21:49:38.423Z,,0,,,NaN,,,,,,false,,,,475951.59999990463,475951.5,,475951.39999997616,,475974.673,8,400,,,
sequence,flow.Sequence,4_94,2023-10-30T21:49:38.423Z,,0,,,3894.439000000013,completion,,,,,false,,,,475951.7999999523,475951.5,472035.417,472039.5,472057.061,475974.673,8,400,,,
trial,html.Screen,4_95_0,2023-10-30T21:49:42.016Z,,0,2,,3569.6269999523065,response,ISIC_5615694.JPG,13,ISIC_0032001.JPG,ISIC_0032001.JPG,false,0,keypress(z),500,479544.7999999523,479544.2999999523,475952.987,475951.7999999523,475974.673,479563.948,8,400,46,,ISIC_5615694.JPG
break,html.Screen,4_95_1,2023-10-30T21:49:42.017Z,,0,,,NaN,,,,,,false,,,,479545.6999999285,479545.59999990463,,479545,,479563.948,8,400,,,
break_continue,html.Screen,4_95_2,2023-10-30T21:49:42.017Z,,0,,,NaN,,,,,,false,,,,479546.09999990463,479546,,479545.89999997616,,479563.948,8,400,,,
sequence,flow.Sequence,4_95,2023-10-30T21:49:42.017Z,,0,,,3571.32699999999,completion,,,,,false,,,,479546.1999999285,479546,475952.987,475951.7999999523,475974.673,479563.948,8,400,,,
trial,html.Screen,4_96_0,2023-10-30T21:49:47.701Z,,0,2,,5665.2519999285,response,ISIC_7759913.JPG,30,ISIC_3086579.JPG,ISIC_7759913.JPG,false,1,keypress(m),500,485229.5,485229.1999999285,479543.859,479546.2999999523,479563.948,485247.884,8,400,47,,ISIC_3086579.JPG
break,html.Screen,4_96_1,2023-10-30T21:49:47.702Z,,0,,,NaN,,,,,,false,,,,485230.39999997616,485230.1999999285,,485229.7999999523,,485247.884,8,400,,,
break_continue,html.Screen,4_96_2,2023-10-30T21:49:47.702Z,,0,,,NaN,,,,,,false,,,,485230.6999999285,485230.59999990463,,485230.5,,485247.884,8,400,,,
sequence,flow.Sequence,4_96,2023-10-30T21:49:47.702Z,,0,,,5666.651999904658,completion,,,,,false,,,,485230.7999999523,485230.59999990463,479543.859,479546.2999999523,479563.948,485247.884,8,400,,,
trial,html.Screen,4_97_0,2023-10-30T21:49:50.684Z,,0,2,,2963.8159999284544,response,ISIC_0010360.JPG,6,ISIC_5951430.JPG,ISIC_5951430.JPG,false,0,keypress(z),500,488212.09999990463,488211.6999999285,485233.231,485230.89999997616,485247.884,488230.897,8,400,48,,ISIC_0010360.JPG
break,html.Screen,4_97_1,2023-10-30T21:49:50.685Z,,0,,,NaN,,,,,,false,,,,488212.89999997616,488212.6999999285,,488212.2999999523,,488230.897,8,400,,,
break_continue,html.Screen,4_97_2,2023-10-30T21:49:50.685Z,,0,,,NaN,,,,,,false,,,,488213.09999990463,488213.09999990463,,488213,,488230.897,8,400,,,
sequence,flow.Sequence,4_97,2023-10-30T21:49:50.685Z,,0,,,2965.2159999046125,completion,,,,,false,,,,488213.1999999285,488213.09999990463,485233.231,485230.89999997616,485247.884,488230.897,8,400,,,
trial,html.Screen,4_98_0,2023-10-30T21:49:53.649Z,,0,2,,2946.302999928477,response,ISIC_0026911.JPG,6,ISIC_0009911.JPG,ISIC_0009911.JPG,false,0,keypress(z),500,491177.5,491177.1999999285,488211.911,488213.39999997616,488230.897,491196.824,8,400,49,,ISIC_0026911.JPG
break,html.Screen,4_98_1,2023-10-30T21:49:53.650Z,,0,,,NaN,,,,,,false,,,,491178.5,491178.39999997616,,491177.89999997616,,491196.824,8,400,,,
break_continue,html.Screen,4_98_2,2023-10-30T21:49:53.651Z,,0,,,NaN,,,,,,false,,,,491178.89999997616,491178.7999999523,,491178.59999990463,,491196.824,8,400,,,
sequence,flow.Sequence,4_98,2023-10-30T21:49:53.651Z,,0,,,2947.902999952319,completion,,,,,false,,,,491179,491178.7999999523,488211.911,488213.2999999523,488230.897,491196.824,8,400,,,
trial,html.Screen,4_99_0,2023-10-30T21:49:56.874Z,,0,2,,3204.975999952294,response,ISIC_0024323.JPG,11,ISIC_8194835.JPG,ISIC_8194835.JPG,false,0,keypress(z),500,494402.1999999285,494401.7999999523,491179.492,491179.09999990463,491196.824,494429.598,8,400,50,,ISIC_0024323.JPG
break,html.Screen,4_99_1,2023-10-30T21:50:06.893Z,,0,,,9998.55800000002,timeout,,,,,false,,,,504421.09999990463,504420.201,494400.775,494402.5,494429.598,504428.156,8,400,,,
break_continue,html.Screen,4_99_2,2023-10-30T21:50:09.284Z,,0,,,2343.043999928457,response,,,,,false,continue,keypress(Space),,506812.39999997616,506771.1999999285,504420.201,504421.2999999523,504428.156,506838.618,8,400,,,
sequence,flow.Sequence,4_99,2023-10-30T21:50:09.284Z,,0,,,15574.375999928452,completion,,,,,false,,,,506812.59999990463,506771.1999999285,491179.492,491179.09999990463,491196.824,506838.618,8,400,,,
trial,html.Screen,4_100_0,2023-10-30T21:50:13.213Z,,0,3,,3901.8819999999832,response,ISIC_0924902.JPG,6,ISIC_0030751.JPG,ISIC_0030751.JPG,false,0,keypress(z),500,510740.89999997616,510740.5,506827.876,506812.7999999523,506838.618,510759.425,8,400,1,,ISIC_0924902.JPG
break,html.Screen,4_100_1,2023-10-30T21:50:13.214Z,,0,,,NaN,,,,,,false,,,,510741.89999997616,510741.7999999523,,510741.1999999285,,510759.425,8,400,,,
break_continue,html.Screen,4_100_2,2023-10-30T21:50:13.214Z,,0,,,NaN,,,,,,false,,,,510742.1999999285,510742.09999990463,,510742,,510759.425,8,400,,,
sequence,flow.Sequence,4_100,2023-10-30T21:50:13.214Z,,0,,,3903.481999904616,completion,,,,,false,,,,510742.2999999523,510742.09999990463,506827.876,506812.6999999285,506838.618,510759.425,8,400,,,
trial,html.Screen,4_101_0,2023-10-30T21:50:17.428Z,,0,3,,4196.075000000012,response,ISIC_8248922.JPG,0,ISIC_4563766.JPG,ISIC_8248922.JPG,false,1,keypress(m),500,514956,514955.5,510740.962,510742.39999997616,510759.425,514975.312,8,400,2,,ISIC_4563766.JPG
break,html.Screen,4_101_1,2023-10-30T21:50:17.429Z,,0,,,NaN,,,,,,false,,,,514957,514956.7999999523,,514956.1999999285,,514975.312,8,400,,,
break_continue,html.Screen,4_101_2,2023-10-30T21:50:17.429Z,,0,,,NaN,,,,,,false,,,,514957.2999999523,514957.1999999285,,514957.09999990463,,514975.312,8,400,,,
sequence,flow.Sequence,4_101,2023-10-30T21:50:17.429Z,,0,,,4197.774999928486,completion,,,,,false,,,,514957.5,514957.1999999285,510740.962,510742.39999997616,510759.425,514975.312,8,400,,,
trial,html.Screen,4_102_0,2023-10-30T21:50:21.404Z,,0,3,,3956.2879999046563,response,ISIC_7534592.JPG,12,ISIC_6393611.JPG,ISIC_6393611.JPG,false,0,keypress(z),500,518932,518931.59999990463,514956.504,514957.5,514975.312,518952.181,8,400,3,,ISIC_7534592.JPG
break,html.Screen,4_102_1,2023-10-30T21:50:21.405Z,,0,,,NaN,,,,,,false,,,,518932.89999997616,518932.6999999285,,518932.1999999285,,518952.181,8,400,,,
break_continue,html.Screen,4_102_2,2023-10-30T21:50:21.405Z,,0,,,NaN,,,,,,false,,,,518933.09999990463,518933.09999990463,,518932.89999997616,,518952.181,8,400,,,
sequence,flow.Sequence,4_102,2023-10-30T21:50:21.405Z,,0,,,3957.7879999046563,completion,,,,,false,,,,518933.1999999285,518933.09999990463,514956.504,514957.5,514975.312,518952.181,8,400,,,
trial,html.Screen,4_103_0,2023-10-30T21:50:24.609Z,,0,3,,3184.518999928492,response,ISIC_1081051.JPG,29,ISIC_0028211.JPG,ISIC_0028211.JPG,false,0,keypress(z),500,522137.09999990463,522136.6999999285,518932.098,518933.2999999523,518952.181,522155.74,8,400,4,,ISIC_1081051.JPG
break,html.Screen,4_103_1,2023-10-30T21:50:24.610Z,,0,,,NaN,,,,,,false,,,,522137.89999997616,522137.6999999285,,522137.2999999523,,522155.74,8,400,,,
break_continue,html.Screen,4_103_2,2023-10-30T21:50:24.610Z,,0,,,NaN,,,,,,false,,,,522138.2999999523,522138.1999999285,,522138.09999990463,,522155.74,8,400,,,
sequence,flow.Sequence,4_103,2023-10-30T21:50:24.610Z,,0,,,3186.018999928492,completion,,,,,false,,,,522138.39999997616,522138.1999999285,518932.098,518933.2999999523,518952.181,522155.74,8,400,,,
trial,html.Screen,4_104_0,2023-10-30T21:50:30.884Z,,0,3,,6256.459999928484,response,ISIC_5789263.JPG,19,ISIC_0011092.JPG,ISIC_0011092.JPG,false,0,keypress(z),500,528412.5999999046,528412.1999999285,522137.107,522138.5,522155.74,528431.442,8,400,5,,ISIC_5789263.JPG
break,html.Screen,4_104_1,2023-10-30T21:50:30.885Z,,0,,,NaN,,,,,,false,,,,528413.3999999762,528413.1999999285,,528412.6999999285,,528431.442,8,400,,,
break_continue,html.Screen,4_104_2,2023-10-30T21:50:30.885Z,,0,,,NaN,,,,,,false,,,,528413.6999999285,528413.5999999046,,528413.5,,528431.442,8,400,,,
sequence,flow.Sequence,4_104,2023-10-30T21:50:30.886Z,,0,,,6257.859999904642,completion,,,,,false,,,,528413.7999999523,528413.5999999046,522137.107,522138.39999997616,522155.74,528431.442,8,400,,,
trial,html.Screen,4_105_0,2023-10-30T21:50:35.870Z,,0,3,,4966.857999952277,response,ISIC_7509837.JPG,12,ISIC_2349743.JPG,ISIC_7509837.JPG,false,1,keypress(m),500,533398.5999999046,533398.2999999523,528410.602,528413.8999999762,528431.442,533421.552,8,400,6,,ISIC_2349743.JPG
break,html.Screen,4_105_1,2023-10-30T21:50:35.871Z,,0,,,NaN,,,,,,false,,,,533399.2999999523,533399.1999999285,,533398.7999999523,,533421.552,8,400,,,
break_continue,html.Screen,4_105_2,2023-10-30T21:50:35.871Z,,0,,,NaN,,,,,,false,,,,533399.5999999046,533399.5,,533399.3999999762,,533421.552,8,400,,,
sequence,flow.Sequence,4_105,2023-10-30T21:50:35.871Z,,0,,,4968.057999999961,completion,,,,,false,,,,533399.6999999285,533399.5,528410.602,528413.8999999762,528431.442,533421.552,8,400,,,
trial,html.Screen,4_106_0,2023-10-30T21:50:40.089Z,,0,3,,4194.947999999975,response,ISIC_6381197.JPG,13,ISIC_0008636.JPG,ISIC_0008636.JPG,false,0,keypress(z),500,537616.8999999762,537616.5,533401.436,533399.7999999523,533421.552,537635.826,8,400,7,,ISIC_6381197.JPG
break,html.Screen,4_106_1,2023-10-30T21:50:40.090Z,,0,,,NaN,,,,,,false,,,,537617.7999999523,537617.5999999046,,537617.0999999046,,537635.826,8,400,,,
break_continue,html.Screen,4_106_2,2023-10-30T21:50:40.090Z,,0,,,NaN,,,,,,false,,,,537618.0999999046,537618,,537617.8999999762,,537635.826,8,400,,,
sequence,flow.Sequence,4_106,2023-10-30T21:50:40.090Z,,0,,,4196.447999999975,completion,,,,,false,,,,537618.1999999285,537618,533401.436,533399.7999999523,533421.552,537635.826,8,400,,,
trial,html.Screen,4_107_0,2023-10-30T21:50:44.190Z,,0,3,,4082.173999999999,response,ISIC_5507066.JPG,6,ISIC_0010416.JPG,ISIC_0010416.JPG,false,0,keypress(z),500,541718.3999999762,541718,537615.538,537618.2999999523,537635.826,541737.005,8,400,8,,ISIC_5507066.JPG
break,html.Screen,4_107_1,2023-10-30T21:50:44.191Z,,0,,,NaN,,,,,,false,,,,541719.0999999046,541719,,541718.5999999046,,541737.005,8,400,,,
break_continue,html.Screen,4_107_2,2023-10-30T21:50:44.191Z,,0,,,NaN,,,,,,false,,,,541719.3999999762,541719.3999999762,,541719.2999999523,,541737.005,8,400,,,
sequence,flow.Sequence,4_107,2023-10-30T21:50:44.191Z,,0,,,4083.573999976157,completion,,,,,false,,,,541719.5,541719.3999999762,537615.538,537618.2999999523,537635.826,541737.005,8,400,,,
trial,html.Screen,4_108_0,2023-10-30T21:50:47.188Z,,0,3,,2978.6949999284698,response,ISIC_2378428.JPG,9,ISIC_2231191.JPG,ISIC_2378428.JPG,false,1,keypress(m),500,544715.8999999762,544715.6999999285,541716.915,541719.5999999046,541737.005,544734.699,8,400,9,,ISIC_2231191.JPG
break,html.Screen,4_108_1,2023-10-30T21:50:47.189Z,,0,,,NaN,,,,,,false,,,,544716.7999999523,544716.5999999046,,544716.1999999285,,544734.699,8,400,,,
break_continue,html.Screen,4_108_2,2023-10-30T21:50:47.189Z,,0,,,NaN,,,,,,false,,,,544717.0999999046,544717,,544716.8999999762,,544734.699,8,400,,,
sequence,flow.Sequence,4_108,2023-10-30T21:50:47.189Z,,0,,,2979.9949999999953,completion,,,,,false,,,,544717.1999999285,544717,541716.915,541719.5999999046,541737.005,544734.699,8,400,,,
trial,html.Screen,4_109_0,2023-10-30T21:50:51.181Z,,0,3,,3974.200999976136,response,ISIC_0702876.JPG,13,ISIC_0072893.JPG,ISIC_0702876.JPG,false,1,keypress(m),500,548709.2999999523,548708.8999999762,544715.261,544717.1999999285,544734.699,548727.625,8,400,10,,ISIC_0072893.JPG
break,html.Screen,4_109_1,2023-10-30T21:50:51.182Z,,0,,,NaN,,,,,,false,,,,548710.0999999046,548709.8999999762,,548709.5,,548727.625,8,400,,,
break_continue,html.Screen,4_109_2,2023-10-30T21:50:51.182Z,,0,,,NaN,,,,,,false,,,,548710.2999999523,548710.2999999523,,548710.1999999285,,548727.625,8,400,,,
sequence,flow.Sequence,4_109,2023-10-30T21:50:51.182Z,,0,,,3975.600999952294,completion,,,,,false,,,,548710.5,548710.2999999523,544715.261,544717.1999999285,544734.699,548727.625,8,400,,,
trial,html.Screen,4_110_0,2023-10-30T21:50:55.393Z,,0,3,,4193.875,response,ISIC_6038490.JPG,9,ISIC_0865706.JPG,ISIC_6038490.JPG,false,1,keypress(m),500,552921.7999999523,552921.5,548705.43,548710.5999999046,548727.625,552939.924,8,400,11,,ISIC_0865706.JPG
break,html.Screen,4_110_1,2023-10-30T21:50:55.394Z,,0,,,NaN,,,,,,false,,,,552922.5,552922.3999999762,,552921.8999999762,,552939.924,8,400,,,
break_continue,html.Screen,4_110_2,2023-10-30T21:50:55.394Z,,0,,,NaN,,,,,,false,,,,552922.6999999285,552922.6999999285,,552922.5,,552939.924,8,400,,,
sequence,flow.Sequence,4_110,2023-10-30T21:50:55.394Z,,0,,,4195.074999928474,completion,,,,,false,,,,552923,552922.6999999285,548705.43,548710.5,548727.625,552939.924,8,400,,,
trial,html.Screen,4_111_0,2023-10-30T21:50:59.084Z,,0,3,,3671.875999952317,response,ISIC_4397068.JPG,5,ISIC_3691320.JPG,ISIC_4397068.JPG,false,1,keypress(m),500,556612.1999999285,556611.7999999523,552924.488,552923.0999999046,552939.924,556631.394,8,400,12,,ISIC_3691320.JPG
break,html.Screen,4_111_1,2023-10-30T21:50:59.085Z,,0,,,NaN,,,,,,false,,,,556613.1999999285,556613,,556612.5,,556631.394,8,400,,,
break_continue,html.Screen,4_111_2,2023-10-30T21:50:59.085Z,,0,,,NaN,,,,,,false,,,,556613.5,556613.5,,556613.2999999523,,556631.394,8,400,,,
sequence,flow.Sequence,4_111,2023-10-30T21:50:59.085Z,,0,,,3673.576000000001,completion,,,,,false,,,,556613.5999999046,556613.5,552924.488,552923.0999999046,552939.924,556631.394,8,400,,,
trial,html.Screen,4_112_0,2023-10-30T21:51:02.628Z,,0,3,,3524.505999976187,response,ISIC_0014327.JPG,11,ISIC_6793603.JPG,ISIC_0014327.JPG,false,1,keypress(m),500,560156.2999999523,560155.8999999762,556614.99,556613.6999999285,556631.394,560175.325,8,400,13,,ISIC_6793603.JPG
break,html.Screen,4_112_1,2023-10-30T21:51:02.629Z,,0,,,NaN,,,,,,false,,,,560157.1999999285,560157,,560156.5,,560175.325,8,400,,,
break_continue,html.Screen,4_112_2,2023-10-30T21:51:02.629Z,,0,,,NaN,,,,,,false,,,,560157.5,560157.3999999762,,560157.2999999523,,560175.325,8,400,,,
sequence,flow.Sequence,4_112,2023-10-30T21:51:02.629Z,,0,,,3526.005999976187,completion,,,,,false,,,,560157.5999999046,560157.3999999762,556614.99,556613.6999999285,556631.394,560175.325,8,400,,,
trial,html.Screen,4_113_0,2023-10-30T21:51:05.992Z,,0,3,,3345.274999904679,response,ISIC_0032476.JPG,27,ISIC_3086579.JPG,ISIC_0032476.JPG,false,1,keypress(m),500,563520.8999999762,563520.5999999046,560153.244,560157.6999999285,560175.325,563539.942,8,400,14,,ISIC_3086579.JPG
break,html.Screen,4_113_1,2023-10-30T21:51:05.993Z,,0,,,NaN,,,,,,false,,,,563521.7999999523,563521.5999999046,,563521.1999999285,,563539.942,8,400,,,
break_continue,html.Screen,4_113_2,2023-10-30T21:51:05.994Z,,0,,,NaN,,,,,,false,,,,563522.0999999046,563522,,563521.8999999762,,563539.942,8,400,,,
sequence,flow.Sequence,4_113,2023-10-30T21:51:05.994Z,,0,,,3346.6750000000466,completion,,,,,false,,,,563522.2999999523,563522,560153.244,560157.6999999285,560175.325,563539.942,8,400,,,
trial,html.Screen,4_114_0,2023-10-30T21:51:09.536Z,,0,3,,3524.2579999284353,response,ISIC_0002119.JPG,8,ISIC_6208762.JPG,ISIC_6208762.JPG,false,0,keypress(z),500,567064.5999999046,567064.1999999285,563520.257,563522.2999999523,563539.942,567080.235,8,400,15,,ISIC_0002119.JPG
break,html.Screen,4_114_1,2023-10-30T21:51:09.537Z,,0,,,NaN,,,,,,false,,,,567065.8999999762,567065.1999999285,,567064.7999999523,,567080.235,8,400,,,
break_continue,html.Screen,4_114_2,2023-10-30T21:51:09.538Z,,0,,,NaN,,,,,,false,,,,567066.6999999285,567066.5,,567066.3999999762,,567080.235,8,400,,,
sequence,flow.Sequence,4_114,2023-10-30T21:51:09.538Z,,0,,,3526.557999999961,completion,,,,,false,,,,567066.7999999523,567066.5,563520.257,563522.2999999523,563539.942,567080.235,8,400,,,
trial,html.Screen,4_115_0,2023-10-30T21:51:15.240Z,,0,3,,5687.464999928488,response,ISIC_8837880.JPG,18,ISIC_0069481.JPG,ISIC_0069481.JPG,false,0,keypress(z),500,572768.1999999285,572767.6999999285,567064.562,567066.8999999762,567080.235,572787.296,8,400,16,,ISIC_8837880.JPG
break,html.Screen,4_115_1,2023-10-30T21:51:15.241Z,,0,,,NaN,,,,,,false,,,,572769.0999999046,572768.7999999523,,572768.3999999762,,572787.296,8,400,,,
break_continue,html.Screen,4_115_2,2023-10-30T21:51:15.241Z,,0,,,NaN,,,,,,false,,,,572769.3999999762,572769.2999999523,,572769.1999999285,,572787.296,8,400,,,
sequence,flow.Sequence,4_115,2023-10-30T21:51:15.241Z,,0,,,5689.06499995233,completion,,,,,false,,,,572769.5999999046,572769.2999999523,567064.562,567066.8999999762,567080.235,572787.296,8,400,,,
trial,html.Screen,4_116_0,2023-10-30T21:51:18.882Z,,0,3,,3622.9039999285014,response,ISIC_0031517.JPG,10,ISIC_4530249.JPG,ISIC_0031517.JPG,false,1,keypress(m),500,576410.6999999285,576410.1999999285,572768.453,572769.5999999046,572787.296,576432.235,8,400,17,,ISIC_4530249.JPG
break,html.Screen,4_116_1,2023-10-30T21:51:18.883Z,,0,,,NaN,,,,,,false,,,,576411.6999999285,576411.5,,576411,,576432.235,8,400,,,
break_continue,html.Screen,4_116_2,2023-10-30T21:51:18.884Z,,0,,,NaN,,,,,,false,,,,576412.0999999046,576412.0999999046,,576411.8999999762,,576432.235,8,400,,,
sequence,flow.Sequence,4_116,2023-10-30T21:51:18.884Z,,0,,,3624.8039999046596,completion,,,,,false,,,,576412.3999999762,576412.0999999046,572768.453,572769.5999999046,572787.296,576432.235,8,400,,,
trial,html.Screen,4_117_0,2023-10-30T21:51:22.825Z,,0,3,,3920.664999976172,response,ISIC_7342636.JPG,1,ISIC_5699175.JPG,ISIC_7342636.JPG,false,1,keypress(m),500,580353.3999999762,580352.8999999762,576415.056,576412.3999999762,576432.235,580371.818,8,400,18,,ISIC_5699175.JPG
break,html.Screen,4_117_1,2023-10-30T21:51:22.826Z,,0,,,NaN,,,,,,false,,,,580354.0999999046,580354,,580353.5,,580371.818,8,400,,,
break_continue,html.Screen,4_117_2,2023-10-30T21:51:22.826Z,,0,,,NaN,,,,,,false,,,,580354.3999999762,580354.2999999523,,580354.1999999285,,580371.818,8,400,,,
sequence,flow.Sequence,4_117,2023-10-30T21:51:22.826Z,,0,,,3922.0649999523303,completion,,,,,false,,,,580354.5,580354.2999999523,576415.056,576412.3999999762,576432.235,580371.818,8,400,,,
trial,html.Screen,4_118_0,2023-10-30T21:51:25.986Z,,0,3,,3141.8819999285042,response,ISIC_4507700.JPG,5,ISIC_5647697.JPG,ISIC_4507700.JPG,false,1,keypress(m),500,583514.1999999285,583513.6999999285,580354.364,580354.5999999046,580371.818,583532.919,8,400,19,,ISIC_5647697.JPG
break,html.Screen,4_118_1,2023-10-30T21:51:25.987Z,,0,,,NaN,,,,,,false,,,,583515,583514.8999999762,,583514.3999999762,,583532.919,8,400,,,
break_continue,html.Screen,4_118_2,2023-10-30T21:51:25.987Z,,0,,,NaN,,,,,,false,,,,583515.2999999523,583515.1999999285,,583515.0999999046,,583532.919,8,400,,,
sequence,flow.Sequence,4_118,2023-10-30T21:51:25.987Z,,0,,,3143.3819999285042,completion,,,,,false,,,,583515.3999999762,583515.1999999285,580354.364,580354.5999999046,580371.818,583532.919,8,400,,,
trial,html.Screen,4_119_0,2023-10-30T21:51:28.821Z,,0,3,,2816.28099992848,response,ISIC_0033641.JPG,5,ISIC_6654619.JPG,ISIC_6654619.JPG,false,0,keypress(z),500,586349.5999999046,586349.1999999285,583512.239,583515.5,583532.919,586393.02,8,400,20,,ISIC_0033641.JPG
break,html.Screen,4_119_1,2023-10-30T21:51:28.822Z,,0,,,NaN,,,,,,false,,,,586350.5999999046,586350.3999999762,,586349.7999999523,,586393.02,8,400,,,
break_continue,html.Screen,4_119_2,2023-10-30T21:51:28.822Z,,0,,,NaN,,,,,,false,,,,586350.8999999762,586350.7999999523,,586350.6999999285,,586393.02,8,400,,,
sequence,flow.Sequence,4_119,2023-10-30T21:51:28.823Z,,0,,,2817.880999952322,completion,,,,,false,,,,586351.0999999046,586350.7999999523,583512.239,583515.5,583532.919,586393.02,8,400,,,
trial,html.Screen,4_120_0,2023-10-30T21:51:31.913Z,,0,3,,3048.079999904614,response,ISIC_5313574.JPG,11,ISIC_0032441.JPG,ISIC_5313574.JPG,false,1,keypress(m),500,589441.5999999046,589441.0999999046,586353.282,586351.0999999046,586393.02,589460.934,8,400,21,,ISIC_0032441.JPG
break,html.Screen,4_120_1,2023-10-30T21:51:31.914Z,,0,,,NaN,,,,,,false,,,,589442.5,589442.2999999523,,589441.7999999523,,589460.934,8,400,,,
break_continue,html.Screen,4_120_2,2023-10-30T21:51:31.914Z,,0,,,NaN,,,,,,false,,,,589442.7999999523,589442.6999999285,,589442.5999999046,,589460.934,8,400,,,
sequence,flow.Sequence,4_120,2023-10-30T21:51:31.914Z,,0,,,3049.679999928456,completion,,,,,false,,,,589442.8999999762,589442.6999999285,586353.282,586351.0999999046,586393.02,589460.934,8,400,,,
trial,html.Screen,4_121_0,2023-10-30T21:51:34.767Z,,0,3,,2834.265999928466,response,ISIC_2131707.JPG,20,ISIC_0032549.JPG,ISIC_0032549.JPG,false,0,keypress(z),500,592295.3999999762,592295.1999999285,589442.085,589443.0999999046,589460.934,592313.609,8,400,22,,ISIC_2131707.JPG
break,html.Screen,4_121_1,2023-10-30T21:51:34.768Z,,0,,,NaN,,,,,,false,,,,592296.0999999046,592296,,592295.5999999046,,592313.609,8,400,,,
break_continue,html.Screen,4_121_2,2023-10-30T21:51:34.768Z,,0,,,NaN,,,,,,false,,,,592296.3999999762,592296.1999999285,,592296.1999999285,,592313.609,8,400,,,
sequence,flow.Sequence,4_121,2023-10-30T21:51:34.768Z,,0,,,2835.265999928466,completion,,,,,false,,,,592296.5,592296.1999999285,589442.085,589443.0999999046,589460.934,592313.609,8,400,,,
trial,html.Screen,4_122_0,2023-10-30T21:51:37.636Z,,0,3,,2850.290999976103,response,ISIC_4128342.JPG,10,ISIC_8433608.JPG,ISIC_4128342.JPG,false,1,keypress(m),500,595164.3999999762,595163.8999999762,592292.849,592296.5,592313.609,595188.634,8,400,23,,ISIC_8433608.JPG
break,html.Screen,4_122_1,2023-10-30T21:51:37.637Z,,0,,,NaN,,,,,,false,,,,595165.5999999046,595165.3999999762,,595164.7999999523,,595188.634,8,400,,,
break_continue,html.Screen,4_122_2,2023-10-30T21:51:37.637Z,,0,,,NaN,,,,,,false,,,,595166,595165.7999999523,,595165.7999999523,,595188.634,8,400,,,
sequence,flow.Sequence,4_122,2023-10-30T21:51:37.638Z,,0,,,2852.1909999522613,completion,,,,,false,,,,595166.0999999046,595165.7999999523,592292.849,592296.5,592313.609,595188.634,8,400,,,
trial,html.Screen,4_123_0,2023-10-30T21:51:40.944Z,,0,3,,3283.0659999285126,response,ISIC_0000346.JPG,11,ISIC_5960765.JPG,ISIC_5960765.JPG,false,0,keypress(z),500,598472.0999999046,598471.6999999285,595167.38,595166.1999999285,595188.634,598491.318,8,400,24,,ISIC_0000346.JPG
break,html.Screen,4_123_1,2023-10-30T21:51:40.945Z,,0,,,NaN,,,,,,false,,,,598473.0999999046,598472.8999999762,,598472.2999999523,,598491.318,8,400,,,
break_continue,html.Screen,4_123_2,2023-10-30T21:51:40.945Z,,0,,,NaN,,,,,,false,,,,598473.3999999762,598473.3999999762,,598473.2999999523,,598491.318,8,400,,,
sequence,flow.Sequence,4_123,2023-10-30T21:51:40.945Z,,0,,,3284.7659999761963,completion,,,,,false,,,,598473.5999999046,598473.3999999762,595167.38,595166.1999999285,595188.634,598491.318,8,400,,,
trial,html.Screen,4_124_0,2023-10-30T21:51:44.006Z,,0,3,,3042.8819999285042,response,ISIC_5082596.JPG,9,ISIC_2136533.JPG,ISIC_5082596.JPG,false,1,keypress(m),500,601534.5999999046,601534.1999999285,598475.57,598473.6999999285,598491.318,601553.837,8,400,25,,ISIC_2136533.JPG
break,html.Screen,4_124_1,2023-10-30T21:51:44.007Z,,0,,,NaN,,,,,,false,,,,601535.5,601535.3999999762,,601534.8999999762,,601553.837,8,400,,,
break_continue,html.Screen,4_124_2,2023-10-30T21:51:44.007Z,,0,,,NaN,,,,,,false,,,,601536,601535.7999999523,,601535.6999999285,,601553.837,8,400,,,
sequence,flow.Sequence,4_124,2023-10-30T21:51:44.008Z,,0,,,3044.481999952346,completion,,,,,false,,,,601536.1999999285,601535.7999999523,598475.57,598473.6999999285,598491.318,601553.837,8,400,,,
trial,html.Screen,4_125_0,2023-10-30T21:51:46.828Z,,0,3,,2801.6629999999423,response,ISIC_3110909.JPG,20,ISIC_1784613.JPG,ISIC_3110909.JPG,false,1,keypress(m),500,604356,604355.5,601538.546,601536.1999999285,601553.837,604375.719,8,400,26,,ISIC_1784613.JPG
