sender,sender_type,sender_id,timestamp,meta,,blockNo,condition,duration,ended_on,img_left,img_reveal,img_right,loser,practice,response,response_action,selection_duration,time_commit,time_end,time_render,time_run,time_show,time_switch,total_blocks,total_trials,trialNo,url,winner
informed_consent,html.Screen,0,2023-09-08T19:45:27.103Z,"{""labjs_version"":""20.2.4"",""labjs_build"":{""flavor"":""production"",""commit"":""f5b4a49f956347addd546a832a3327688c2c0fef""},""location"":""https://run.pavlovia.org/MurrayBennett/melanoma-2afc/?participant=641374feea489f74a9c8db95&STUDY_ID=64f8c92207ba404bcb356c90&SESSION_ID=64fb79cfd902bfb3f0221fc0&platform=prolific"",""userAgent"":""Mozilla/5.0 (Windows NT 10.0; Win64; x64; rv:109.0) Gecko/20100101 Firefox/117.0"",""platform"":""Win32"",""language"":""en-US"",""locale"":""en-US"",""timeZone"":""America/New_York"",""timezoneOffset"":240,""screen_width"":2560,""screen_height"":1440,""scroll_width"":2560,""scroll_height"":1272,""window_innerWidth"":2560,""window_innerHeight"":1320,""devicePixelRatio"":1}",,,,1878.96,response,,,,,,consent,click button,,3653,3641,1755.98,1758,1762.04,3651.96,,,,"{""participant"":""641374feea489f74a9c8db95"",""STUDY_ID"":""64f8c92207ba404bcb356c90"",""SESSION_ID"":""64fb79cfd902bfb3f0221fc0"",""platform"":""prolific""}",
Welcome,html.Screen,1,2023-09-08T19:45:36.863Z,,,,asymmetry,9754.04,response,,,,,,continue,click button,,13412,13406,3651.68,3653,3651.96,13416.48,,,,,
trial,html.Screen,2_0_0,2023-09-08T19:45:41.113Z,,0,0,,4245.52,response,ISIC_6997061.JPG,,ISIC_0069348.JPG,ISIC_6997061.JPG,true,1,keypress(m),500,17662,17662,13410.46,13412,13416.48,17668.78,1,6,1,,ISIC_0069348.JPG
sequence,flow.Sequence,2_0,2023-09-08T19:45:41.113Z,,0,,,4245.52,completion,,,,,true,,,,17662,17662,13410.46,13412,13416.48,17668.78,1,6,,,
trial,html.Screen,2_1_0,2023-09-08T19:45:44.642Z,,0,0,,3523.220000000001,response,ISIC_0009529.JPG,,ISIC_0057368.JPG,ISIC_0009529.JPG,true,1,keypress(m),500,21192,21192,17662.72,17662,17668.78,21194.18,1,6,2,,ISIC_0057368.JPG
sequence,flow.Sequence,2_1,2023-09-08T19:45:44.642Z,,0,,,3523.220000000001,completion,,,,,true,,,,21192,21192,17662.72,17662,17668.78,21194.18,1,6,,,
trial,html.Screen,2_2_0,2023-09-08T19:45:47.771Z,,0,0,,3126.8199999999997,response,ISIC_9758671.JPG,,ISIC_0064954.JPG,ISIC_9758671.JPG,true,1,keypress(m),500,24321,24321,21191.88,21192,21194.18,24325.86,1,6,3,,ISIC_0064954.JPG
sequence,flow.Sequence,2_2,2023-09-08T19:45:47.772Z,,0,,,3126.8199999999997,completion,,,,,true,,,,24321,24321,21191.88,21192,21194.18,24325.86,1,6,,,
trial,html.Screen,2_3_0,2023-09-08T19:45:51.905Z,,0,0,,4128.139999999999,response,ISIC_0005785.JPG,,ISIC_0000080.JPG,ISIC_0005785.JPG,true,1,keypress(m),500,28454,28454,24321.42,24321,24325.86,28457,1,6,4,,ISIC_0000080.JPG
sequence,flow.Sequence,2_3,2023-09-08T19:45:51.905Z,,0,,,4128.139999999999,completion,,,,,true,,,,28455,28454,24321.42,24321,24325.86,28457,1,6,,,
trial,html.Screen,2_4_0,2023-09-08T19:45:54.726Z,,0,0,,2819,response,ISIC_7944028.JPG,,ISIC_5390060.JPG,ISIC_7944028.JPG,true,1,keypress(m),500,31276,31276,28454.44,28455,28457,31281.66,1,6,5,,ISIC_5390060.JPG
sequence,flow.Sequence,2_4,2023-09-08T19:45:54.726Z,,0,,,2819,completion,,,,,true,,,,31276,31276,28454.44,28455,28457,31281.66,1,6,,,
trial,html.Screen,2_5_0,2023-09-08T19:45:57.552Z,,0,0,,2820.34,response,ISIC_0010188.JPG,,ISIC_0794216.JPG,ISIC_0794216.JPG,true,0,keypress(z),500,34102,34102,31276.08,31276,31281.66,34104.4,1,6,6,,ISIC_0010188.JPG
sequence,flow.Sequence,2_5,2023-09-08T19:45:57.552Z,,0,,,2820.34,completion,,,,,true,,,,34102,34102,31276.08,31276,31281.66,34104.4,1,6,,,
loop,flow.Loop,2,2023-09-08T19:45:57.552Z,,,,,20685.52,completion,,,,,true,,,,34102,34102,13410.46,13412,13416.48,34104.4,1,6,,,
exp_instructions,html.Screen,3,2023-09-08T19:46:01.244Z,,,,,3676.5999999999985,response,,,,,,continue,keypress(Space),,37794,37781,34101.98,34102,34104.4,37799.42,,,,,
trial,html.Screen,4_0_0,2023-09-08T19:46:04.725Z,,0,1,,3475.5800000000017,response,ISIC_0033239.JPG,4,ISIC_0067170.JPG,ISIC_0033239.JPG,false,1,keypress(m),500,41275,41275,37793.48,37794,37799.42,41276.38,8,400,1,,ISIC_0067170.JPG
break,html.Screen,4_0_1,2023-09-08T19:46:04.726Z,,0,,,NaN,,,,,,false,,,,41276,41276,,41275,,41276.38,8,400,,,
break_continue,html.Screen,4_0_2,2023-09-08T19:46:04.726Z,,0,,,NaN,,,,,,false,,,,41276,41276,,41276,,41276.38,8,400,,,
sequence,flow.Sequence,4_0,2023-09-08T19:46:04.727Z,,0,,,3476.5800000000017,completion,,,,,false,,,,41276,41276,37793.48,37794,37799.42,41276.38,8,400,,,
trial,html.Screen,4_1_0,2023-09-08T19:46:07.548Z,,0,1,,2820.6200000000026,response,ISIC_2245069.JPG,30,ISIC_1154109.JPG,ISIC_1154109.JPG,false,0,keypress(z),500,44097,44097,41274.62,41276,41276.38,44099.12,8,400,2,,ISIC_2245069.JPG
break,html.Screen,4_1_1,2023-09-08T19:46:07.548Z,,0,,,NaN,,,,,,false,,,,44098,44098,,44097,,44099.12,8,400,,,
break_continue,html.Screen,4_1_2,2023-09-08T19:46:07.549Z,,0,,,NaN,,,,,,false,,,,44099,44099,,44098,,44099.12,8,400,,,
sequence,flow.Sequence,4_1,2023-09-08T19:46:07.549Z,,0,,,2822.6200000000026,completion,,,,,false,,,,44099,44099,41274.62,41276,41276.38,44099.12,8,400,,,
trial,html.Screen,4_2_0,2023-09-08T19:46:10.185Z,,0,1,,2635.8799999999974,response,ISIC_9267202.JPG,21,ISIC_0033893.JPG,ISIC_9267202.JPG,false,1,keypress(m),500,46735,46735,44097.24,44099,44099.12,46740.14,8,400,3,,ISIC_0033893.JPG
break,html.Screen,4_2_1,2023-09-08T19:46:10.186Z,,0,,,NaN,,,,,,false,,,,46736,46736,,46735,,46740.14,8,400,,,
break_continue,html.Screen,4_2_2,2023-09-08T19:46:10.187Z,,0,,,NaN,,,,,,false,,,,46736,46736,,46736,,46740.14,8,400,,,
sequence,flow.Sequence,4_2,2023-09-08T19:46:10.187Z,,0,,,2636.8799999999974,completion,,,,,false,,,,46736,46736,44097.24,44099,44099.12,46740.14,8,400,,,
trial,html.Screen,4_3_0,2023-09-08T19:46:14.033Z,,0,1,,3842.8600000000006,response,ISIC_0069891.JPG,3,ISIC_5306427.JPG,ISIC_0069891.JPG,false,1,keypress(m),500,50583,50583,46734.56,46736,46740.14,50586.6,8,400,4,,ISIC_5306427.JPG
break,html.Screen,4_3_1,2023-09-08T19:46:14.034Z,,0,,,NaN,,,,,,false,,,,50584,50583,,50583,,50586.6,8,400,,,
break_continue,html.Screen,4_3_2,2023-09-08T19:46:14.034Z,,0,,,NaN,,,,,,false,,,,50584,50584,,50584,,50586.6,8,400,,,
sequence,flow.Sequence,4_3,2023-09-08T19:46:14.035Z,,0,,,3843.8600000000006,completion,,,,,false,,,,50584,50584,46734.56,46736,46740.14,50586.6,8,400,,,
trial,html.Screen,4_4_0,2023-09-08T19:46:17.000Z,,0,1,,2962.4000000000015,response,ISIC_0031621.JPG,5,ISIC_7231192.JPG,ISIC_7231192.JPG,false,0,keypress(z),500,53550,53549,50582.44,50584,50586.6,53554.72,8,400,5,,ISIC_0031621.JPG
break,html.Screen,4_4_1,2023-09-08T19:46:17.001Z,,0,,,NaN,,,,,,false,,,,53550,53550,,53550,,53554.72,8,400,,,
break_continue,html.Screen,4_4_2,2023-09-08T19:46:17.002Z,,0,,,NaN,,,,,,false,,,,53551,53551,,53550,,53554.72,8,400,,,
sequence,flow.Sequence,4_4,2023-09-08T19:46:17.002Z,,0,,,2964.4000000000015,completion,,,,,false,,,,53551,53551,50582.44,50584,50586.6,53554.72,8,400,,,
trial,html.Screen,4_5_0,2023-09-08T19:46:20.149Z,,0,1,,3143.279999999999,response,ISIC_5495413.JPG,16,ISIC_3453832.JPG,ISIC_3453832.JPG,false,0,keypress(z),500,56698,56698,53550.08,53551,53554.72,56704.56,8,400,6,,ISIC_5495413.JPG
break,html.Screen,4_5_1,2023-09-08T19:46:20.150Z,,0,,,NaN,,,,,,false,,,,56699,56699,,56698,,56704.56,8,400,,,
break_continue,html.Screen,4_5_2,2023-09-08T19:46:20.151Z,,0,,,NaN,,,,,,false,,,,56699,56699,,56699,,56704.56,8,400,,,
sequence,flow.Sequence,4_5,2023-09-08T19:46:20.151Z,,0,,,3144.279999999999,completion,,,,,false,,,,56699,56699,53550.08,53551,53554.72,56704.56,8,400,,,
trial,html.Screen,4_6_0,2023-09-08T19:46:23.040Z,,0,1,,2884.4400000000023,response,ISIC_7888672.JPG,18,ISIC_0024292.JPG,ISIC_7888672.JPG,false,1,keypress(m),500,59589,59589,56698.52,56699,56704.56,59593.94,8,400,7,,ISIC_0024292.JPG
break,html.Screen,4_6_1,2023-09-08T19:46:23.041Z,,0,,,NaN,,,,,,false,,,,59590,59590,,59589,,59593.94,8,400,,,
break_continue,html.Screen,4_6_2,2023-09-08T19:46:23.042Z,,0,,,NaN,,,,,,false,,,,59590,59590,,59590,,59593.94,8,400,,,
sequence,flow.Sequence,4_6,2023-09-08T19:46:23.042Z,,0,,,2885.4400000000023,completion,,,,,false,,,,59590,59590,56698.52,56699,56704.56,59593.94,8,400,,,
trial,html.Screen,4_7_0,2023-09-08T19:46:26.186Z,,0,1,,3140.0599999999977,response,ISIC_2266011.JPG,3,ISIC_9072034.JPG,ISIC_9072034.JPG,false,0,keypress(z),500,62735,62734,59589.1,59590,59593.94,62737.74,8,400,8,,ISIC_2266011.JPG
break,html.Screen,4_7_1,2023-09-08T19:46:26.186Z,,0,,,NaN,,,,,,false,,,,62736,62736,,62735,,62737.74,8,400,,,
break_continue,html.Screen,4_7_2,2023-09-08T19:46:26.187Z,,0,,,NaN,,,,,,false,,,,62736,62736,,62736,,62737.74,8,400,,,
sequence,flow.Sequence,4_7,2023-09-08T19:46:26.187Z,,0,,,3142.0599999999977,completion,,,,,false,,,,62736,62736,59589.1,59590,59593.94,62737.74,8,400,,,
trial,html.Screen,4_8_0,2023-09-08T19:46:29.329Z,,0,1,,3140.260000000002,response,ISIC_0013244.JPG,27,ISIC_4721599.JPG,ISIC_0013244.JPG,false,1,keypress(m),500,65878,65878,62734.74,62736,62737.74,65881.52,8,400,9,,ISIC_4721599.JPG
break,html.Screen,4_8_1,2023-09-08T19:46:29.329Z,,0,,,NaN,,,,,,false,,,,65879,65879,,65878,,65881.52,8,400,,,
break_continue,html.Screen,4_8_2,2023-09-08T19:46:29.330Z,,0,,,NaN,,,,,,false,,,,65879,65879,,65879,,65881.52,8,400,,,
sequence,flow.Sequence,4_8,2023-09-08T19:46:29.330Z,,0,,,3141.260000000002,completion,,,,,false,,,,65879,65879,62734.74,62736,62737.74,65881.52,8,400,,,
trial,html.Screen,4_9_0,2023-09-08T19:46:32.246Z,,0,1,,2913.479999999996,response,ISIC_0030462.JPG,5,ISIC_0033830.JPG,ISIC_0033830.JPG,false,0,keypress(z),500,68795,68795,65878.14,65879,65881.52,68801.2,8,400,10,,ISIC_0030462.JPG
break,html.Screen,4_9_1,2023-09-08T19:46:32.247Z,,0,,,NaN,,,,,,false,,,,68796,68796,,68795,,68801.2,8,400,,,
break_continue,html.Screen,4_9_2,2023-09-08T19:46:32.247Z,,0,,,NaN,,,,,,false,,,,68797,68797,,68796,,68801.2,8,400,,,
sequence,flow.Sequence,4_9,2023-09-08T19:46:32.247Z,,0,,,2915.479999999996,completion,,,,,false,,,,68797,68797,65878.14,65879,65881.52,68801.2,8,400,,,
trial,html.Screen,4_10_0,2023-09-08T19:46:35.279Z,,0,1,,3025.800000000003,response,ISIC_0062827.JPG,3,ISIC_3045939.JPG,ISIC_3045939.JPG,false,0,keypress(z),500,71827,71827,68795.74,68797,68801.2,71829.9,8,400,11,,ISIC_0062827.JPG
break,html.Screen,4_10_1,2023-09-08T19:46:35.280Z,,0,,,NaN,,,,,,false,,,,71828,71828,,71828,,71829.9,8,400,,,
break_continue,html.Screen,4_10_2,2023-09-08T19:46:35.280Z,,0,,,NaN,,,,,,false,,,,71829,71829,,71828,,71829.9,8,400,,,
sequence,flow.Sequence,4_10,2023-09-08T19:46:35.280Z,,0,,,3027.800000000003,completion,,,,,false,,,,71829,71829,68795.74,68797,68801.2,71829.9,8,400,,,
trial,html.Screen,4_11_0,2023-09-08T19:46:38.785Z,,0,1,,3504.100000000006,response,ISIC_0029459.JPG,15,ISIC_0033171.JPG,ISIC_0029459.JPG,false,1,keypress(m),500,75334,75334,71827.72,71829,71829.9,75337.12,8,400,12,,ISIC_0033171.JPG
break,html.Screen,4_11_1,2023-09-08T19:46:38.786Z,,0,,,NaN,,,,,,false,,,,75336,75336,,75334,,75337.12,8,400,,,
break_continue,html.Screen,4_11_2,2023-09-08T19:46:38.787Z,,0,,,NaN,,,,,,false,,,,75336,75336,,75336,,75337.12,8,400,,,
sequence,flow.Sequence,4_11,2023-09-08T19:46:38.787Z,,0,,,3506.100000000006,completion,,,,,false,,,,75336,75336,71827.72,71829,71829.9,75337.12,8,400,,,
trial,html.Screen,4_12_0,2023-09-08T19:46:41.782Z,,0,1,,2993.8800000000047,response,ISIC_0055996.JPG,5,ISIC_5026709.JPG,ISIC_5026709.JPG,false,0,keypress(z),500,78332,78331,75334.66,75336,75337.12,78335.54,8,400,13,,ISIC_0055996.JPG
break,html.Screen,4_12_1,2023-09-08T19:46:41.784Z,,0,,,NaN,,,,,,false,,,,78333,78333,,78332,,78335.54,8,400,,,
break_continue,html.Screen,4_12_2,2023-09-08T19:46:41.784Z,,0,,,NaN,,,,,,false,,,,78334,78334,,78334,,78335.54,8,400,,,
sequence,flow.Sequence,4_12,2023-09-08T19:46:41.784Z,,0,,,2996.8800000000047,completion,,,,,false,,,,78334,78334,75334.66,75336,75337.12,78335.54,8,400,,,
trial,html.Screen,4_13_0,2023-09-08T19:46:44.542Z,,0,1,,2755.4600000000064,response,ISIC_0027742.JPG,16,ISIC_6561111.JPG,ISIC_6561111.JPG,false,0,keypress(z),500,81091,81091,78332.12,78334,78335.54,81093.54,8,400,14,,ISIC_0027742.JPG
break,html.Screen,4_13_1,2023-09-08T19:46:44.542Z,,0,,,NaN,,,,,,false,,,,81092,81091,,81091,,81093.54,8,400,,,
break_continue,html.Screen,4_13_2,2023-09-08T19:46:44.543Z,,0,,,NaN,,,,,,false,,,,81092,81092,,81092,,81093.54,8,400,,,
sequence,flow.Sequence,4_13,2023-09-08T19:46:44.543Z,,0,,,2756.4600000000064,completion,,,,,false,,,,81092,81092,78332.12,78334,78335.54,81093.54,8,400,,,
trial,html.Screen,4_14_0,2023-09-08T19:46:47.217Z,,0,1,,2672.4600000000064,response,ISIC_0062111.JPG,23,ISIC_0012721.JPG,ISIC_0012721.JPG,false,0,keypress(z),500,83767,83766,81091.1,81092,81093.54,83770.9,8,400,15,,ISIC_0062111.JPG
break,html.Screen,4_14_1,2023-09-08T19:46:47.218Z,,0,,,NaN,,,,,,false,,,,83767,83767,,83767,,83770.9,8,400,,,
break_continue,html.Screen,4_14_2,2023-09-08T19:46:47.219Z,,0,,,NaN,,,,,,false,,,,83768,83768,,83767,,83770.9,8,400,,,
sequence,flow.Sequence,4_14,2023-09-08T19:46:47.219Z,,0,,,2674.4600000000064,completion,,,,,false,,,,83768,83768,81091.1,81092,81093.54,83770.9,8,400,,,
trial,html.Screen,4_15_0,2023-09-08T19:46:50.411Z,,0,1,,3190.100000000006,response,ISIC_0033405.JPG,3,ISIC_0068530.JPG,ISIC_0068530.JPG,false,0,keypress(z),500,86961,86961,83766.94,83768,83770.9,86963.16,8,400,16,,ISIC_0033405.JPG
break,html.Screen,4_15_1,2023-09-08T19:46:50.412Z,,0,,,NaN,,,,,,false,,,,86962,86962,,86961,,86963.16,8,400,,,
break_continue,html.Screen,4_15_2,2023-09-08T19:46:50.413Z,,0,,,NaN,,,,,,false,,,,86962,86962,,86962,,86963.16,8,400,,,
sequence,flow.Sequence,4_15,2023-09-08T19:46:50.413Z,,0,,,3191.100000000006,completion,,,,,false,,,,86962,86962,83766.94,83768,83770.9,86963.16,8,400,,,
trial,html.Screen,4_16_0,2023-09-08T19:46:53.194Z,,0,1,,2779.8399999999965,response,ISIC_0060558.JPG,5,ISIC_9087221.JPG,ISIC_9087221.JPG,false,0,keypress(z),500,89743,89743,86960.52,86962,86963.16,89743.5,8,400,17,,ISIC_0060558.JPG
break,html.Screen,4_16_1,2023-09-08T19:46:53.195Z,,0,,,NaN,,,,,,false,,,,89744,89744,,89743,,89743.5,8,400,,,
break_continue,html.Screen,4_16_2,2023-09-08T19:46:53.196Z,,0,,,NaN,,,,,,false,,,,89744,89744,,89744,,89743.5,8,400,,,
sequence,flow.Sequence,4_16,2023-09-08T19:46:53.196Z,,0,,,2780.8399999999965,completion,,,,,false,,,,89745,89744,86960.52,86962,86963.16,89743.5,8,400,,,
trial,html.Screen,4_17_0,2023-09-08T19:46:56.301Z,,0,1,,3106.5,response,ISIC_0031543.JPG,22,ISIC_0056063.JPG,ISIC_0056063.JPG,false,0,keypress(z),500,92850,92850,89743.34,89745,89743.5,92850.94,8,400,18,,ISIC_0031543.JPG
break,html.Screen,4_17_1,2023-09-08T19:46:56.302Z,,0,,,NaN,,,,,,false,,,,92851,92851,,92850,,92850.94,8,400,,,
break_continue,html.Screen,4_17_2,2023-09-08T19:46:56.302Z,,0,,,NaN,,,,,,false,,,,92851,92851,,92851,,92850.94,8,400,,,
sequence,flow.Sequence,4_17,2023-09-08T19:46:56.302Z,,0,,,3107.5,completion,,,,,false,,,,92851,92851,89743.34,89745,89743.5,92850.94,8,400,,,
trial,html.Screen,4_18_0,2023-09-08T19:46:59.252Z,,0,1,,2950.0599999999977,response,ISIC_7533216.JPG,6,ISIC_0065278.JPG,ISIC_7533216.JPG,false,1,keypress(m),500,95801,95801,92849.7,92851,92850.94,95800.9,8,400,19,,ISIC_0065278.JPG
break,html.Screen,4_18_1,2023-09-08T19:46:59.252Z,,0,,,NaN,,,,,,false,,,,95802,95801,,95801,,95800.9,8,400,,,
break_continue,html.Screen,4_18_2,2023-09-08T19:46:59.252Z,,0,,,NaN,,,,,,false,,,,95802,95802,,95802,,95800.9,8,400,,,
sequence,flow.Sequence,4_18,2023-09-08T19:46:59.252Z,,0,,,2951.0599999999977,completion,,,,,false,,,,95802,95802,92849.7,92851,92850.94,95800.9,8,400,,,
trial,html.Screen,4_19_0,2023-09-08T19:47:02.170Z,,0,1,,2919.100000000006,response,ISIC_3335505.JPG,15,ISIC_8806357.JPG,ISIC_3335505.JPG,false,1,keypress(m),500,98720,98720,95800.5,95802,95800.9,98720.56,8,400,20,,ISIC_8806357.JPG
break,html.Screen,4_19_1,2023-09-08T19:47:02.171Z,,0,,,NaN,,,,,,false,,,,98721,98721,,98720,,98720.56,8,400,,,
break_continue,html.Screen,4_19_2,2023-09-08T19:47:02.171Z,,0,,,NaN,,,,,,false,,,,98721,98721,,98721,,98720.56,8,400,,,
sequence,flow.Sequence,4_19,2023-09-08T19:47:02.172Z,,0,,,2920.100000000006,completion,,,,,false,,,,98721,98721,95800.5,95802,95800.9,98720.56,8,400,,,
trial,html.Screen,4_20_0,2023-09-08T19:47:05.223Z,,0,1,,3051.4400000000023,response,ISIC_5810696.JPG,0,ISIC_8389361.JPG,ISIC_8389361.JPG,false,0,keypress(z),500,101772,101772,98719.66,98721,98720.56,101773.5,8,400,21,,ISIC_5810696.JPG
break,html.Screen,4_20_1,2023-09-08T19:47:05.224Z,,0,,,NaN,,,,,,false,,,,101773,101773,,101772,,101773.5,8,400,,,
break_continue,html.Screen,4_20_2,2023-09-08T19:47:05.224Z,,0,,,NaN,,,,,,false,,,,101773,101773,,101773,,101773.5,8,400,,,
sequence,flow.Sequence,4_20,2023-09-08T19:47:05.224Z,,0,,,3052.4400000000023,completion,,,,,false,,,,101773,101773,98719.66,98721,98720.56,101773.5,8,400,,,
trial,html.Screen,4_21_0,2023-09-08T19:47:07.881Z,,0,1,,2656.5,response,ISIC_0001108.JPG,22,ISIC_0012063.JPG,ISIC_0012063.JPG,false,0,keypress(z),500,104430,104430,101771.68,101773,101773.5,104432.7,8,400,22,,ISIC_0001108.JPG
break,html.Screen,4_21_1,2023-09-08T19:47:07.881Z,,0,,,NaN,,,,,,false,,,,104431,104431,,104430,,104432.7,8,400,,,
break_continue,html.Screen,4_21_2,2023-09-08T19:47:07.882Z,,0,,,NaN,,,,,,false,,,,104431,104431,,104431,,104432.7,8,400,,,
sequence,flow.Sequence,4_21,2023-09-08T19:47:07.882Z,,0,,,2657.5,completion,,,,,false,,,,104431,104431,101771.68,101773,101773.5,104432.7,8,400,,,
trial,html.Screen,4_22_0,2023-09-08T19:47:10.932Z,,0,1,,3048.300000000003,response,ISIC_0010767.JPG,11,ISIC_2398511.JPG,ISIC_2398511.JPG,false,0,keypress(z),500,107481,107481,104429.58,104431,104432.7,107485.62,8,400,23,,ISIC_0010767.JPG
break,html.Screen,4_22_1,2023-09-08T19:47:10.932Z,,0,,,NaN,,,,,,false,,,,107482,107482,,107481,,107485.62,8,400,,,
break_continue,html.Screen,4_22_2,2023-09-08T19:47:10.933Z,,0,,,NaN,,,,,,false,,,,107482,107482,,107482,,107485.62,8,400,,,
sequence,flow.Sequence,4_22,2023-09-08T19:47:10.933Z,,0,,,3049.300000000003,completion,,,,,false,,,,107482,107482,104429.58,104431,104432.7,107485.62,8,400,,,
trial,html.Screen,4_23_0,2023-09-08T19:47:13.792Z,,0,1,,2855.3800000000047,response,ISIC_0200153.JPG,7,ISIC_0033725.JPG,ISIC_0200153.JPG,false,1,keypress(m),500,110341,110341,107481.28,107482,107485.62,110344.72,8,400,24,,ISIC_0033725.JPG
break,html.Screen,4_23_1,2023-09-08T19:47:13.793Z,,0,,,NaN,,,,,,false,,,,110342,110342,,110341,,110344.72,8,400,,,
break_continue,html.Screen,4_23_2,2023-09-08T19:47:13.793Z,,0,,,NaN,,,,,,false,,,,110342,110342,,110342,,110344.72,8,400,,,
sequence,flow.Sequence,4_23,2023-09-08T19:47:13.793Z,,0,,,2856.3800000000047,completion,,,,,false,,,,110343,110342,107481.28,107482,107485.62,110344.72,8,400,,,
trial,html.Screen,4_24_0,2023-09-08T19:47:16.345Z,,0,1,,2549.279999999999,response,ISIC_0009879.JPG,25,ISIC_0026993.JPG,ISIC_0009879.JPG,false,1,keypress(m),500,112894,112894,110341.54,110343,110344.72,112894.88,8,400,25,,ISIC_0026993.JPG
break,html.Screen,4_24_1,2023-09-08T19:47:16.346Z,,0,,,NaN,,,,,,false,,,,112894,112894,,112894,,112894.88,8,400,,,
break_continue,html.Screen,4_24_2,2023-09-08T19:47:16.346Z,,0,,,NaN,,,,,,false,,,,112895,112895,,112895,,112894.88,8,400,,,
sequence,flow.Sequence,4_24,2023-09-08T19:47:16.346Z,,0,,,2550.279999999999,completion,,,,,false,,,,112895,112895,110341.54,110343,110344.72,112894.88,8,400,,,
trial,html.Screen,4_25_0,2023-09-08T19:47:19.066Z,,0,1,,2720.1199999999953,response,ISIC_1819358.JPG,7,ISIC_3069695.JPG,ISIC_1819358.JPG,false,1,keypress(m),500,115615,115615,112894.26,112895,112894.88,115620.72,8,400,26,,ISIC_3069695.JPG
break,html.Screen,4_25_1,2023-09-08T19:47:19.067Z,,0,,,NaN,,,,,,false,,,,115616,115616,,115615,,115620.72,8,400,,,
break_continue,html.Screen,4_25_2,2023-09-08T19:47:19.067Z,,0,,,NaN,,,,,,false,,,,115617,115617,,115616,,115620.72,8,400,,,
sequence,flow.Sequence,4_25,2023-09-08T19:47:19.068Z,,0,,,2722.1199999999953,completion,,,,,false,,,,115617,115617,112894.26,112895,112894.88,115620.72,8,400,,,
trial,html.Screen,4_26_0,2023-09-08T19:47:21.848Z,,0,1,,2776.279999999999,response,ISIC_0026239.JPG,25,ISIC_0059435.JPG,ISIC_0026239.JPG,false,1,keypress(m),500,118398,118397,115615.76,115617,115620.72,118401.06,8,400,27,,ISIC_0059435.JPG
break,html.Screen,4_26_1,2023-09-08T19:47:21.849Z,,0,,,NaN,,,,,,false,,,,118399,118398,,118398,,118401.06,8,400,,,
break_continue,html.Screen,4_26_2,2023-09-08T19:47:21.849Z,,0,,,NaN,,,,,,false,,,,118399,118399,,118399,,118401.06,8,400,,,
sequence,flow.Sequence,4_26,2023-09-08T19:47:21.849Z,,0,,,2778.279999999999,completion,,,,,false,,,,118399,118399,115615.76,115617,115620.72,118401.06,8,400,,,
trial,html.Screen,4_27_0,2023-09-08T19:47:24.568Z,,0,1,,2716.9400000000023,response,ISIC_0033152.JPG,7,ISIC_7530414.JPG,ISIC_0033152.JPG,false,1,keypress(m),500,121118,121118,118397.74,118399,118401.06,121120.84,8,400,28,,ISIC_7530414.JPG
break,html.Screen,4_27_1,2023-09-08T19:47:24.569Z,,0,,,NaN,,,,,,false,,,,121118,121118,,121118,,121120.84,8,400,,,
break_continue,html.Screen,4_27_2,2023-09-08T19:47:24.569Z,,0,,,NaN,,,,,,false,,,,121119,121119,,121119,,121120.84,8,400,,,
sequence,flow.Sequence,4_27,2023-09-08T19:47:24.569Z,,0,,,2717.9400000000023,completion,,,,,false,,,,121119,121119,118397.74,118399,118401.06,121120.84,8,400,,,
trial,html.Screen,4_28_0,2023-09-08T19:47:27.236Z,,0,1,,2664.1600000000035,response,ISIC_0063601.JPG,19,ISIC_0032610.JPG,ISIC_0032610.JPG,false,0,keypress(z),500,123785,123785,121117.46,121119,121120.84,123786.08,8,400,29,,ISIC_0063601.JPG
break,html.Screen,4_28_1,2023-09-08T19:47:27.237Z,,0,,,NaN,,,,,,false,,,,123786,123786,,123785,,123786.08,8,400,,,
break_continue,html.Screen,4_28_2,2023-09-08T19:47:27.237Z,,0,,,NaN,,,,,,false,,,,123786,123786,,123786,,123786.08,8,400,,,
sequence,flow.Sequence,4_28,2023-09-08T19:47:27.237Z,,0,,,2665.1600000000035,completion,,,,,false,,,,123786,123786,121117.46,121119,121120.84,123786.08,8,400,,,
trial,html.Screen,4_29_0,2023-09-08T19:47:30.275Z,,0,1,,3037.9199999999983,response,ISIC_6831482.JPG,21,ISIC_0013997.JPG,ISIC_0013997.JPG,false,0,keypress(z),500,126824,126824,123785.08,123786,123786.08,126832.96,8,400,30,,ISIC_6831482.JPG
break,html.Screen,4_29_1,2023-09-08T19:47:30.276Z,,0,,,NaN,,,,,,false,,,,126825,126825,,126825,,126832.96,8,400,,,
break_continue,html.Screen,4_29_2,2023-09-08T19:47:30.276Z,,0,,,NaN,,,,,,false,,,,126825,126825,,126825,,126832.96,8,400,,,
sequence,flow.Sequence,4_29,2023-09-08T19:47:30.276Z,,0,,,3038.9199999999983,completion,,,,,false,,,,126825,126825,123785.08,123786,123786.08,126832.96,8,400,,,
trial,html.Screen,4_30_0,2023-09-08T19:47:33.366Z,,0,1,,3082.0399999999936,response,ISIC_0014931.JPG,1,ISIC_0028086.JPG,ISIC_0014931.JPG,false,1,keypress(m),500,129915,129915,126826.9,126825,126832.96,129916.18,8,400,31,,ISIC_0028086.JPG
break,html.Screen,4_30_1,2023-09-08T19:47:33.367Z,,0,,,NaN,,,,,,false,,,,129916,129916,,129915,,129916.18,8,400,,,
break_continue,html.Screen,4_30_2,2023-09-08T19:47:33.367Z,,0,,,NaN,,,,,,false,,,,129916,129916,,129916,,129916.18,8,400,,,
sequence,flow.Sequence,4_30,2023-09-08T19:47:33.367Z,,0,,,3083.0399999999936,completion,,,,,false,,,,129916,129916,126826.9,126825,126832.96,129916.18,8,400,,,
trial,html.Screen,4_31_0,2023-09-08T19:47:37.163Z,,0,1,,3796.820000000007,response,ISIC_0061320.JPG,6,ISIC_0030002.JPG,ISIC_0030002.JPG,false,0,keypress(z),500,133713,133713,129914.82,129916,129916.18,133722.1,8,400,32,,ISIC_0061320.JPG
break,html.Screen,4_31_1,2023-09-08T19:47:37.164Z,,0,,,NaN,,,,,,false,,,,133714,133714,,133713,,133722.1,8,400,,,
break_continue,html.Screen,4_31_2,2023-09-08T19:47:37.164Z,,0,,,NaN,,,,,,false,,,,133714,133714,,133714,,133722.1,8,400,,,
sequence,flow.Sequence,4_31,2023-09-08T19:47:37.164Z,,0,,,3797.820000000007,completion,,,,,false,,,,133714,133714,129914.82,129916,129916.18,133722.1,8,400,,,
trial,html.Screen,4_32_0,2023-09-08T19:47:40.052Z,,0,1,,2879.899999999994,response,ISIC_0014982.JPG,22,ISIC_0027627.JPG,ISIC_0027627.JPG,false,0,keypress(z),500,136602,136602,133716.04,133714,133722.1,136605.42,8,400,33,,ISIC_0014982.JPG
break,html.Screen,4_32_1,2023-09-08T19:47:40.053Z,,0,,,NaN,,,,,,false,,,,136603,136603,,136602,,136605.42,8,400,,,
break_continue,html.Screen,4_32_2,2023-09-08T19:47:40.053Z,,0,,,NaN,,,,,,false,,,,136603,136603,,136603,,136605.42,8,400,,,
sequence,flow.Sequence,4_32,2023-09-08T19:47:40.053Z,,0,,,2880.899999999994,completion,,,,,false,,,,136603,136603,133716.04,133714,133722.1,136605.42,8,400,,,
trial,html.Screen,4_33_0,2023-09-08T19:47:43.514Z,,0,1,,3457.579999999987,response,ISIC_1359533.JPG,22,ISIC_0011374.JPG,ISIC_1359533.JPG,false,1,keypress(m),500,140063,140063,136601.98,136603,136605.42,140064.2,8,400,34,,ISIC_0011374.JPG
break,html.Screen,4_33_1,2023-09-08T19:47:43.516Z,,0,,,NaN,,,,,,false,,,,140066,140065,,140064,,140064.2,8,400,,,
break_continue,html.Screen,4_33_2,2023-09-08T19:47:43.517Z,,0,,,NaN,,,,,,false,,,,140066,140066,,140066,,140064.2,8,400,,,
sequence,flow.Sequence,4_33,2023-09-08T19:47:43.517Z,,0,,,3460.579999999987,completion,,,,,false,,,,140066,140066,136601.98,136603,136605.42,140064.2,8,400,,,
trial,html.Screen,4_34_0,2023-09-08T19:47:46.434Z,,0,1,,2917.7999999999884,response,ISIC_1598039.JPG,3,ISIC_1367610.JPG,ISIC_1598039.JPG,false,1,keypress(m),500,142983,142982,140064,140066,140064.2,142983.86,8,400,35,,ISIC_1367610.JPG
break,html.Screen,4_34_1,2023-09-08T19:47:46.436Z,,0,,,NaN,,,,,,false,,,,142985,142985,,142983,,142983.86,8,400,,,
break_continue,html.Screen,4_34_2,2023-09-08T19:47:46.436Z,,0,,,NaN,,,,,,false,,,,142985,142985,,142985,,142983.86,8,400,,,
sequence,flow.Sequence,4_34,2023-09-08T19:47:46.436Z,,0,,,2920.7999999999884,completion,,,,,false,,,,142985,142985,140064,140066,140064.2,142983.86,8,400,,,
trial,html.Screen,4_35_0,2023-09-08T19:47:49.216Z,,0,1,,2782.140000000014,response,ISIC_0029675.JPG,18,ISIC_1738738.JPG,ISIC_0029675.JPG,false,1,keypress(m),500,145766,145766,142983.5,142985,142983.86,145770.26,8,400,36,,ISIC_1738738.JPG
break,html.Screen,4_35_1,2023-09-08T19:47:49.218Z,,0,,,NaN,,,,,,false,,,,145767,145767,,145766,,145770.26,8,400,,,
break_continue,html.Screen,4_35_2,2023-09-08T19:47:49.218Z,,0,,,NaN,,,,,,false,,,,145767,145767,,145767,,145770.26,8,400,,,
sequence,flow.Sequence,4_35,2023-09-08T19:47:49.219Z,,0,,,2783.140000000014,completion,,,,,false,,,,145767,145767,142983.5,142985,142983.86,145770.26,8,400,,,
trial,html.Screen,4_36_0,2023-09-08T19:47:51.937Z,,0,1,,2715.7399999999907,response,ISIC_7448231.JPG,23,ISIC_0056055.JPG,ISIC_7448231.JPG,false,1,keypress(m),500,148486,148486,145766.06,145767,145770.26,148490.04,8,400,37,,ISIC_0056055.JPG
break,html.Screen,4_36_1,2023-09-08T19:47:51.938Z,,0,,,NaN,,,,,,false,,,,148487,148487,,148487,,148490.04,8,400,,,
break_continue,html.Screen,4_36_2,2023-09-08T19:47:51.938Z,,0,,,NaN,,,,,,false,,,,148488,148488,,148487,,148490.04,8,400,,,
sequence,flow.Sequence,4_36,2023-09-08T19:47:51.938Z,,0,,,2717.7399999999907,completion,,,,,false,,,,148488,148488,145766.06,145767,145770.26,148490.04,8,400,,,
trial,html.Screen,4_37_0,2023-09-08T19:47:54.765Z,,0,1,,2823.959999999992,response,ISIC_0000054.JPG,18,ISIC_1926656.JPG,ISIC_1926656.JPG,false,0,keypress(z),500,151314,151314,148486.16,148488,148490.04,151318.84,8,400,38,,ISIC_0000054.JPG
break,html.Screen,4_37_1,2023-09-08T19:47:54.766Z,,0,,,NaN,,,,,,false,,,,151315,151315,,151314,,151318.84,8,400,,,
break_continue,html.Screen,4_37_2,2023-09-08T19:47:54.766Z,,0,,,NaN,,,,,,false,,,,151315,151315,,151315,,151318.84,8,400,,,
sequence,flow.Sequence,4_37,2023-09-08T19:47:54.766Z,,0,,,2824.959999999992,completion,,,,,false,,,,151315,151315,148486.16,148488,148490.04,151318.84,8,400,,,
trial,html.Screen,4_38_0,2023-09-08T19:47:57.542Z,,0,1,,2773.1600000000035,response,ISIC_0026188.JPG,1,ISIC_3105924.JPG,ISIC_3105924.JPG,false,0,keypress(z),500,154092,154092,151313.96,151316,151318.84,154093.14,8,400,39,,ISIC_0026188.JPG
break,html.Screen,4_38_1,2023-09-08T19:47:57.543Z,,0,,,NaN,,,,,,false,,,,154092,154092,,154092,,154093.14,8,400,,,
break_continue,html.Screen,4_38_2,2023-09-08T19:47:57.543Z,,0,,,NaN,,,,,,false,,,,154092,154092,,154092,,154093.14,8,400,,,
sequence,flow.Sequence,4_38,2023-09-08T19:47:57.543Z,,0,,,2773.1600000000035,completion,,,,,false,,,,154092,154092,151313.96,151316,151318.84,154093.14,8,400,,,
trial,html.Screen,4_39_0,2023-09-08T19:48:00.266Z,,0,1,,2721.859999999986,response,ISIC_8622365.JPG,24,ISIC_0025277.JPG,ISIC_8622365.JPG,false,1,keypress(m),500,156815,156815,154091.48,154092,154093.14,156818.96,8,400,40,,ISIC_0025277.JPG
break,html.Screen,4_39_1,2023-09-08T19:48:00.266Z,,0,,,NaN,,,,,,false,,,,156816,156816,,156815,,156818.96,8,400,,,
break_continue,html.Screen,4_39_2,2023-09-08T19:48:00.266Z,,0,,,NaN,,,,,,false,,,,156816,156816,,156816,,156818.96,8,400,,,
sequence,flow.Sequence,4_39,2023-09-08T19:48:00.266Z,,0,,,2722.859999999986,completion,,,,,false,,,,156816,156816,154091.48,154092,154093.14,156818.96,8,400,,,
trial,html.Screen,4_40_0,2023-09-08T19:48:02.769Z,,0,1,,2500.040000000008,response,ISIC_4069836.JPG,4,ISIC_5102688.JPG,ISIC_5102688.JPG,false,0,keypress(z),500,159319,159319,156814.98,156816,156818.96,159320.68,8,400,41,,ISIC_4069836.JPG
break,html.Screen,4_40_1,2023-09-08T19:48:02.771Z,,0,,,NaN,,,,,,false,,,,159320,159320,,159319,,159320.68,8,400,,,
break_continue,html.Screen,4_40_2,2023-09-08T19:48:02.771Z,,0,,,NaN,,,,,,false,,,,159320,159320,,159320,,159320.68,8,400,,,
sequence,flow.Sequence,4_40,2023-09-08T19:48:02.771Z,,0,,,2501.040000000008,completion,,,,,false,,,,159320,159320,156814.98,156816,156818.96,159320.68,8,400,,,
trial,html.Screen,4_41_0,2023-09-08T19:48:05.245Z,,0,1,,2473.320000000007,response,ISIC_2089231.JPG,27,ISIC_0056413.JPG,ISIC_2089231.JPG,false,1,keypress(m),500,161794,161794,159318.9,159320,159320.68,161798.14,8,400,42,,ISIC_0056413.JPG
break,html.Screen,4_41_1,2023-09-08T19:48:05.246Z,,0,,,NaN,,,,,,false,,,,161795,161795,,161794,,161798.14,8,400,,,
break_continue,html.Screen,4_41_2,2023-09-08T19:48:05.246Z,,0,,,NaN,,,,,,false,,,,161795,161795,,161795,,161798.14,8,400,,,
sequence,flow.Sequence,4_41,2023-09-08T19:48:05.246Z,,0,,,2474.320000000007,completion,,,,,false,,,,161795,161795,159318.9,159320,159320.68,161798.14,8,400,,,
trial,html.Screen,4_42_0,2023-09-08T19:48:08.306Z,,0,1,,3055.859999999986,response,ISIC_5539001.JPG,7,ISIC_9473492.JPG,ISIC_9473492.JPG,false,0,keypress(z),500,164855,164854,161794.42,161795,161798.14,164857.14,8,400,43,,ISIC_5539001.JPG
break,html.Screen,4_42_1,2023-09-08T19:48:08.306Z,,0,,,NaN,,,,,,false,,,,164855,164855,,164855,,164857.14,8,400,,,
break_continue,html.Screen,4_42_2,2023-09-08T19:48:08.306Z,,0,,,NaN,,,,,,false,,,,164856,164856,,164855,,164857.14,8,400,,,
sequence,flow.Sequence,4_42,2023-09-08T19:48:08.306Z,,0,,,3057.859999999986,completion,,,,,false,,,,164856,164856,161794.42,161795,161798.14,164857.14,8,400,,,
trial,html.Screen,4_43_0,2023-09-08T19:48:11.055Z,,0,1,,2746.859999999986,response,ISIC_0011728.JPG,23,ISIC_0030769.JPG,ISIC_0030769.JPG,false,0,keypress(z),500,167604,167604,164854.84,164857,164857.14,167607.2,8,400,44,,ISIC_0011728.JPG
break,html.Screen,4_43_1,2023-09-08T19:48:11.056Z,,0,,,NaN,,,,,,false,,,,167605,167604,,167604,,167607.2,8,400,,,
break_continue,html.Screen,4_43_2,2023-09-08T19:48:11.056Z,,0,,,NaN,,,,,,false,,,,167605,167605,,167605,,167607.2,8,400,,,
sequence,flow.Sequence,4_43,2023-09-08T19:48:11.056Z,,0,,,2747.859999999986,completion,,,,,false,,,,167605,167605,164854.84,164857,164857.14,167607.2,8,400,,,
trial,html.Screen,4_44_0,2023-09-08T19:48:13.577Z,,0,1,,2518.7999999999884,response,ISIC_4019724.JPG,11,ISIC_0060760.JPG,ISIC_4019724.JPG,false,1,keypress(m),500,170126,170126,167603.76,167605,167607.2,170127.08,8,400,45,,ISIC_0060760.JPG
break,html.Screen,4_44_1,2023-09-08T19:48:13.578Z,,0,,,NaN,,,,,,false,,,,170127,170127,,170126,,170127.08,8,400,,,
break_continue,html.Screen,4_44_2,2023-09-08T19:48:13.578Z,,0,,,NaN,,,,,,false,,,,170127,170127,,170127,,170127.08,8,400,,,
sequence,flow.Sequence,4_44,2023-09-08T19:48:13.578Z,,0,,,2519.7999999999884,completion,,,,,false,,,,170127,170127,167603.76,167605,167607.2,170127.08,8,400,,,
trial,html.Screen,4_45_0,2023-09-08T19:48:16.185Z,,0,1,,2607.920000000013,response,ISIC_0062160.JPG,4,ISIC_0028009.JPG,ISIC_0028009.JPG,false,0,keypress(z),500,172735,172735,170126.2,170127,170127.08,172737.82,8,400,46,,ISIC_0062160.JPG
break,html.Screen,4_45_1,2023-09-08T19:48:16.186Z,,0,,,NaN,,,,,,false,,,,172736,172735,,172735,,172737.82,8,400,,,
break_continue,html.Screen,4_45_2,2023-09-08T19:48:16.187Z,,0,,,NaN,,,,,,false,,,,172736,172736,,172736,,172737.82,8,400,,,
sequence,flow.Sequence,4_45,2023-09-08T19:48:16.187Z,,0,,,2608.920000000013,completion,,,,,false,,,,172736,172736,170126.2,170127,170127.08,172737.82,8,400,,,
trial,html.Screen,4_46_0,2023-09-08T19:48:18.621Z,,0,1,,2432.179999999993,response,ISIC_5393367.JPG,1,ISIC_0032561.JPG,ISIC_5393367.JPG,false,1,keypress(m),500,175170,175170,172734.88,172736,172737.82,175172.88,8,400,47,,ISIC_0032561.JPG
break,html.Screen,4_46_1,2023-09-08T19:48:18.623Z,,0,,,NaN,,,,,,false,,,,175171,175171,,175170,,175172.88,8,400,,,
break_continue,html.Screen,4_46_2,2023-09-08T19:48:18.623Z,,0,,,NaN,,,,,,false,,,,175172,175172,,175171,,175172.88,8,400,,,
sequence,flow.Sequence,4_46,2023-09-08T19:48:18.623Z,,0,,,2434.179999999993,completion,,,,,false,,,,175172,175172,172734.88,172736,172737.82,175172.88,8,400,,,
trial,html.Screen,4_47_0,2023-09-08T19:48:21.409Z,,0,1,,2786.1199999999953,response,ISIC_4303228.JPG,15,ISIC_0014127.JPG,ISIC_0014127.JPG,false,0,keypress(z),500,177959,177959,175170.8,175172,175172.88,177959.3,8,400,48,,ISIC_4303228.JPG
break,html.Screen,4_47_1,2023-09-08T19:48:21.410Z,,0,,,NaN,,,,,,false,,,,177959,177959,,177959,,177959.3,8,400,,,
break_continue,html.Screen,4_47_2,2023-09-08T19:48:21.410Z,,0,,,NaN,,,,,,false,,,,177960,177960,,177959,,177959.3,8,400,,,
sequence,flow.Sequence,4_47,2023-09-08T19:48:21.410Z,,0,,,2787.1199999999953,completion,,,,,false,,,,177960,177960,175170.8,175172,175172.88,177959.3,8,400,,,
trial,html.Screen,4_48_0,2023-09-08T19:48:23.984Z,,0,1,,2573.7000000000116,response,ISIC_3868662.JPG,6,ISIC_0059390.JPG,ISIC_3868662.JPG,false,1,keypress(m),500,180533,180533,177958.8,177960,177959.3,180539.74,8,400,49,,ISIC_0059390.JPG
break,html.Screen,4_48_1,2023-09-08T19:48:23.985Z,,0,,,NaN,,,,,,false,,,,180535,180535,,180534,,180539.74,8,400,,,
break_continue,html.Screen,4_48_2,2023-09-08T19:48:23.986Z,,0,,,NaN,,,,,,false,,,,180535,180535,,180535,,180539.74,8,400,,,
sequence,flow.Sequence,4_48,2023-09-08T19:48:23.986Z,,0,,,2575.7000000000116,completion,,,,,false,,,,180535,180535,177958.8,177960,177959.3,180539.74,8,400,,,
trial,html.Screen,4_49_0,2023-09-08T19:48:26.596Z,,0,1,,2605.2600000000093,response,ISIC_6588853.JPG,7,ISIC_3884221.JPG,ISIC_6588853.JPG,false,1,keypress(m),500,183145,183145,180533.78,180535,180539.74,183150.48,8,400,50,,ISIC_3884221.JPG
break,html.Screen,4_49_1,2023-09-08T19:48:36.598Z,,0,,,10002.660000000003,timeout,,,,,false,,,,193148,193147.08,183145.84,183145,183150.48,193153.14,8,400,,,
break_continue,html.Screen,4_49_2,2023-09-08T19:48:37.650Z,,0,,,1035.859999999986,response,,,,,false,continue,keypress(Space),,194200,194189,193147.08,193148,193153.14,194201.06,8,400,,,
sequence,flow.Sequence,4_49,2023-09-08T19:48:37.650Z,,0,,,13649.26000000001,completion,,,,,false,,,,194200,194189,180533.78,180535,180539.74,194201.06,8,400,,,
trial,html.Screen,4_50_0,2023-09-08T19:48:39.979Z,,0,2,,2325.9400000000023,response,ISIC_6878417.JPG,17,ISIC_0033570.JPG,ISIC_6878417.JPG,false,1,keypress(m),500,196527,196527,194199.82,194200,194201.06,196533.16,8,400,1,,ISIC_0033570.JPG
break,html.Screen,4_50_1,2023-09-08T19:48:39.979Z,,0,,,NaN,,,,,,false,,,,196528,196528,,196527,,196533.16,8,400,,,
break_continue,html.Screen,4_50_2,2023-09-08T19:48:39.980Z,,0,,,NaN,,,,,,false,,,,196529,196529,,196528,,196533.16,8,400,,,
sequence,flow.Sequence,4_50,2023-09-08T19:48:39.980Z,,0,,,2327.9400000000023,completion,,,,,false,,,,196529,196529,194199.82,194200,194201.06,196533.16,8,400,,,
trial,html.Screen,4_51_0,2023-09-08T19:48:42.401Z,,0,2,,2415.8399999999965,response,ISIC_6199335.JPG,2,ISIC_9301346.JPG,ISIC_6199335.JPG,false,1,keypress(m),500,198950,198949,196527.9,196529,196533.16,198950.06,8,400,2,,ISIC_9301346.JPG
break,html.Screen,4_51_1,2023-09-08T19:48:42.401Z,,0,,,NaN,,,,,,false,,,,198950,198950,,198950,,198950.06,8,400,,,
break_continue,html.Screen,4_51_2,2023-09-08T19:48:42.402Z,,0,,,NaN,,,,,,false,,,,198951,198951,,198950,,198950.06,8,400,,,
sequence,flow.Sequence,4_51,2023-09-08T19:48:42.402Z,,0,,,2417.8399999999965,completion,,,,,false,,,,198951,198951,196527.9,196529,196533.16,198950.06,8,400,,,
trial,html.Screen,4_52_0,2023-09-08T19:48:44.814Z,,0,2,,2412.9400000000023,response,ISIC_4535099.JPG,6,ISIC_0011615.JPG,ISIC_4535099.JPG,false,1,keypress(m),500,201364,201363,198949.84,198951,198950.06,201366.98,8,400,3,,ISIC_0011615.JPG
break,html.Screen,4_52_1,2023-09-08T19:48:44.815Z,,0,,,NaN,,,,,,false,,,,201364,201364,,201364,,201366.98,8,400,,,
break_continue,html.Screen,4_52_2,2023-09-08T19:48:44.815Z,,0,,,NaN,,,,,,false,,,,201365,201365,,201364,,201366.98,8,400,,,
sequence,flow.Sequence,4_52,2023-09-08T19:48:44.815Z,,0,,,2414.9400000000023,completion,,,,,false,,,,201365,201365,198949.84,198951,198950.06,201366.98,8,400,,,
trial,html.Screen,4_53_0,2023-09-08T19:48:47.193Z,,0,2,,2374.0199999999895,response,ISIC_2577938.JPG,2,ISIC_0033845.JPG,ISIC_2577938.JPG,false,1,keypress(m),500,203742,203741,201363.32,201365,201366.98,203747.52,8,400,4,,ISIC_0033845.JPG
break,html.Screen,4_53_1,2023-09-08T19:48:47.194Z,,0,,,NaN,,,,,,false,,,,203743,203743,,203742,,203747.52,8,400,,,
break_continue,html.Screen,4_53_2,2023-09-08T19:48:47.194Z,,0,,,NaN,,,,,,false,,,,203744,203744,,203743,,203747.52,8,400,,,
sequence,flow.Sequence,4_53,2023-09-08T19:48:47.194Z,,0,,,2377.0199999999895,completion,,,,,false,,,,203744,203744,201363.32,201365,201366.98,203747.52,8,400,,,
trial,html.Screen,4_54_0,2023-09-08T19:48:49.864Z,,0,2,,2665.4800000000105,response,ISIC_0025001.JPG,19,ISIC_7215208.JPG,ISIC_0025001.JPG,false,1,keypress(m),500,206414,206413,203742.62,203744,203747.52,206418.84,8,400,5,,ISIC_7215208.JPG
break,html.Screen,4_54_1,2023-09-08T19:48:49.865Z,,0,,,NaN,,,,,,false,,,,206414,206414,,206414,,206418.84,8,400,,,
break_continue,html.Screen,4_54_2,2023-09-08T19:48:49.865Z,,0,,,NaN,,,,,,false,,,,206414,206414,,206414,,206418.84,8,400,,,
sequence,flow.Sequence,4_54,2023-09-08T19:48:49.866Z,,0,,,2666.4800000000105,completion,,,,,false,,,,206414,206414,203742.62,203744,203747.52,206418.84,8,400,,,
trial,html.Screen,4_55_0,2023-09-08T19:48:52.270Z,,0,2,,2401.1600000000035,response,ISIC_0030995.JPG,19,ISIC_1146341.JPG,ISIC_1146341.JPG,false,0,keypress(z),500,208820,208820,206412.78,206414,206418.84,208829.68,8,400,6,,ISIC_0030995.JPG
break,html.Screen,4_55_1,2023-09-08T19:48:52.271Z,,0,,,NaN,,,,,,false,,,,208821,208820,,208820,,208829.68,8,400,,,
break_continue,html.Screen,4_55_2,2023-09-08T19:48:52.271Z,,0,,,NaN,,,,,,false,,,,208821,208821,,208821,,208829.68,8,400,,,
sequence,flow.Sequence,4_55,2023-09-08T19:48:52.272Z,,0,,,2402.1600000000035,completion,,,,,false,,,,208821,208821,206412.78,206414,206418.84,208829.68,8,400,,,
trial,html.Screen,4_56_0,2023-09-08T19:48:54.943Z,,0,2,,2662.320000000007,response,ISIC_0034062.JPG,21,ISIC_0028326.JPG,ISIC_0034062.JPG,false,1,keypress(m),500,211492,211492,208823.62,208821,208829.68,211494.94,8,400,7,,ISIC_0028326.JPG
break,html.Screen,4_56_1,2023-09-08T19:48:54.944Z,,0,,,NaN,,,,,,false,,,,211494,211493,,211493,,211494.94,8,400,,,
break_continue,html.Screen,4_56_2,2023-09-08T19:48:54.944Z,,0,,,NaN,,,,,,false,,,,211494,211494,,211494,,211494.94,8,400,,,
sequence,flow.Sequence,4_56,2023-09-08T19:48:54.945Z,,0,,,2664.320000000007,completion,,,,,false,,,,211494,211494,208823.62,208821,208829.68,211494.94,8,400,,,
trial,html.Screen,4_57_0,2023-09-08T19:48:57.312Z,,0,2,,2366.0599999999977,response,ISIC_0033232.JPG,14,ISIC_0003324.JPG,ISIC_0003324.JPG,false,0,keypress(z),500,213862,213861,211492.32,211494,211494.94,213863.38,8,400,8,,ISIC_0033232.JPG
break,html.Screen,4_57_1,2023-09-08T19:48:57.313Z,,0,,,NaN,,,,,,false,,,,213862,213862,,213862,,213863.38,8,400,,,
break_continue,html.Screen,4_57_2,2023-09-08T19:48:57.313Z,,0,,,NaN,,,,,,false,,,,213863,213863,,213862,,213863.38,8,400,,,
sequence,flow.Sequence,4_57,2023-09-08T19:48:57.313Z,,0,,,2368.0599999999977,completion,,,,,false,,,,213863,213863,211492.32,211494,211494.94,213863.38,8,400,,,
trial,html.Screen,4_58_0,2023-09-08T19:48:59.794Z,,0,2,,2479.6199999999953,response,ISIC_8096177.JPG,17,ISIC_5679942.JPG,ISIC_8096177.JPG,false,1,keypress(m),500,216343,216343,213861.24,213863,213863.38,216352.98,8,400,9,,ISIC_5679942.JPG
break,html.Screen,4_58_1,2023-09-08T19:48:59.795Z,,0,,,NaN,,,,,,false,,,,216344,216344,,216343,,216352.98,8,400,,,
break_continue,html.Screen,4_58_2,2023-09-08T19:48:59.795Z,,0,,,NaN,,,,,,false,,,,216344,216344,,216344,,216352.98,8,400,,,
sequence,flow.Sequence,4_58,2023-09-08T19:48:59.795Z,,0,,,2480.6199999999953,completion,,,,,false,,,,216344,216344,213861.24,213863,213863.38,216352.98,8,400,,,
trial,html.Screen,4_59_0,2023-09-08T19:49:02.136Z,,0,2,,2332.0199999999895,response,ISIC_2863397.JPG,19,ISIC_0026545.JPG,ISIC_2863397.JPG,false,1,keypress(m),500,218685,218685,216346.92,216344,216352.98,218691.14,8,400,10,,ISIC_0026545.JPG
break,html.Screen,4_59_1,2023-09-08T19:49:02.137Z,,0,,,NaN,,,,,,false,,,,218686,218686,,218685,,218691.14,8,400,,,
break_continue,html.Screen,4_59_2,2023-09-08T19:49:02.137Z,,0,,,NaN,,,,,,false,,,,218687,218687,,218686,,218691.14,8,400,,,
sequence,flow.Sequence,4_59,2023-09-08T19:49:02.138Z,,0,,,2334.0199999999895,completion,,,,,false,,,,218687,218687,216346.92,216344,216352.98,218691.14,8,400,,,
trial,html.Screen,4_60_0,2023-09-08T19:49:04.478Z,,0,2,,2335.859999999986,response,ISIC_8664718.JPG,1,ISIC_0062196.JPG,ISIC_8664718.JPG,false,1,keypress(m),500,221027,221027,218685.08,218687,218691.14,221029.28,8,400,11,,ISIC_0062196.JPG
break,html.Screen,4_60_1,2023-09-08T19:49:04.478Z,,0,,,NaN,,,,,,false,,,,221028,221028,,221027,,221029.28,8,400,,,
break_continue,html.Screen,4_60_2,2023-09-08T19:49:04.479Z,,0,,,NaN,,,,,,false,,,,221028,221028,,221028,,221029.28,8,400,,,
sequence,flow.Sequence,4_60,2023-09-08T19:49:04.479Z,,0,,,2336.859999999986,completion,,,,,false,,,,221028,221028,218685.08,218687,218691.14,221029.28,8,400,,,
trial,html.Screen,4_61_0,2023-09-08T19:49:06.851Z,,0,2,,2370.720000000001,response,ISIC_6428021.JPG,0,ISIC_0479264.JPG,ISIC_6428021.JPG,false,1,keypress(m),500,223400,223400,221027.18,221028,221029.28,223403.8,8,400,12,,ISIC_0479264.JPG
break,html.Screen,4_61_1,2023-09-08T19:49:06.852Z,,0,,,NaN,,,,,,false,,,,223400,223400,,223400,,223403.8,8,400,,,
break_continue,html.Screen,4_61_2,2023-09-08T19:49:06.852Z,,0,,,NaN,,,,,,false,,,,223401,223401,,223401,,223403.8,8,400,,,
sequence,flow.Sequence,4_61,2023-09-08T19:49:06.852Z,,0,,,2371.720000000001,completion,,,,,false,,,,223401,223401,221027.18,221028,221029.28,223403.8,8,400,,,
trial,html.Screen,4_62_0,2023-09-08T19:49:09.477Z,,0,2,,2622.2000000000116,response,ISIC_0066382.JPG,7,ISIC_5499139.JPG,ISIC_5499139.JPG,false,0,keypress(z),500,226026,226026,223400.28,223401,223403.8,226026.64,8,400,13,,ISIC_0066382.JPG
break,html.Screen,4_62_1,2023-09-08T19:49:09.478Z,,0,,,NaN,,,,,,false,,,,226027,226027,,226026,,226026.64,8,400,,,
break_continue,html.Screen,4_62_2,2023-09-08T19:49:09.478Z,,0,,,NaN,,,,,,false,,,,226027,226027,,226027,,226026.64,8,400,,,
sequence,flow.Sequence,4_62,2023-09-08T19:49:09.478Z,,0,,,2623.2000000000116,completion,,,,,false,,,,226027,226027,223400.28,223401,223403.8,226026.64,8,400,,,
trial,html.Screen,4_63_0,2023-09-08T19:49:11.708Z,,0,2,,2230.359999999986,response,ISIC_2517072.JPG,28,ISIC_6854940.JPG,ISIC_2517072.JPG,false,1,keypress(m),500,228257,228257,226026.24,226027,226026.64,228261.82,8,400,14,,ISIC_6854940.JPG
break,html.Screen,4_63_1,2023-09-08T19:49:11.708Z,,0,,,NaN,,,,,,false,,,,228258,228258,,228257,,228261.82,8,400,,,
break_continue,html.Screen,4_63_2,2023-09-08T19:49:11.709Z,,0,,,NaN,,,,,,false,,,,228258,228258,,228258,,228261.82,8,400,,,
sequence,flow.Sequence,4_63,2023-09-08T19:49:11.709Z,,0,,,2231.359999999986,completion,,,,,false,,,,228258,228258,226026.24,226027,226026.64,228261.82,8,400,,,
trial,html.Screen,4_64_0,2023-09-08T19:49:14.590Z,,0,2,,2877.179999999993,response,ISIC_0025127.JPG,9,ISIC_0063872.JPG,ISIC_0025127.JPG,false,1,keypress(m),500,231139,231139,228257.14,228258,228261.82,231145.14,8,400,15,,ISIC_0063872.JPG
break,html.Screen,4_64_1,2023-09-08T19:49:14.591Z,,0,,,NaN,,,,,,false,,,,231140,231140,,231139,,231145.14,8,400,,,
break_continue,html.Screen,4_64_2,2023-09-08T19:49:14.591Z,,0,,,NaN,,,,,,false,,,,231140,231140,,231140,,231145.14,8,400,,,
sequence,flow.Sequence,4_64,2023-09-08T19:49:14.591Z,,0,,,2878.179999999993,completion,,,,,false,,,,231141,231140,228257.14,228258,228261.82,231145.14,8,400,,,
trial,html.Screen,4_65_0,2023-09-08T19:49:17.201Z,,0,2,,2604.859999999986,response,ISIC_8749288.JPG,8,ISIC_0030336.JPG,ISIC_0030336.JPG,false,0,keypress(z),500,233750,233750,231139.3,231141,231145.14,233755.88,8,400,16,,ISIC_8749288.JPG
break,html.Screen,4_65_1,2023-09-08T19:49:17.202Z,,0,,,NaN,,,,,,false,,,,233751,233751,,233750,,233755.88,8,400,,,
break_continue,html.Screen,4_65_2,2023-09-08T19:49:17.203Z,,0,,,NaN,,,,,,false,,,,233752,233751,,233751,,233755.88,8,400,,,
sequence,flow.Sequence,4_65,2023-09-08T19:49:17.203Z,,0,,,2605.859999999986,completion,,,,,false,,,,233752,233751,231139.3,231141,231145.14,233755.88,8,400,,,
trial,html.Screen,4_66_0,2023-09-08T19:49:19.719Z,,0,2,,2512.1199999999953,response,ISIC_9513808.JPG,6,ISIC_9564379.JPG,ISIC_9564379.JPG,false,0,keypress(z),500,236268,236268,233750.46,233752,233755.88,236271.6,8,400,17,,ISIC_9513808.JPG
break,html.Screen,4_66_1,2023-09-08T19:49:19.719Z,,0,,,NaN,,,,,,false,,,,236268,236268,,236268,,236271.6,8,400,,,
break_continue,html.Screen,4_66_2,2023-09-08T19:49:19.720Z,,0,,,NaN,,,,,,false,,,,236269,236269,,236268,,236271.6,8,400,,,
sequence,flow.Sequence,4_66,2023-09-08T19:49:19.720Z,,0,,,2513.1199999999953,completion,,,,,false,,,,236269,236269,233750.46,233752,233755.88,236271.6,8,400,,,
trial,html.Screen,4_67_0,2023-09-08T19:49:21.911Z,,0,2,,2188.399999999994,response,ISIC_5150200.JPG,22,ISIC_0033412.JPG,ISIC_5150200.JPG,false,1,keypress(m),500,238460,238460,236268.2,236269,236271.6,238464.38,8,400,18,,ISIC_0033412.JPG
break,html.Screen,4_67_1,2023-09-08T19:49:21.912Z,,0,,,NaN,,,,,,false,,,,238461,238461,,238460,,238464.38,8,400,,,
break_continue,html.Screen,4_67_2,2023-09-08T19:49:21.912Z,,0,,,NaN,,,,,,false,,,,238461,238461,,238461,,238464.38,8,400,,,
sequence,flow.Sequence,4_67,2023-09-08T19:49:21.912Z,,0,,,2189.399999999994,completion,,,,,false,,,,238462,238461,236268.2,236269,236271.6,238464.38,8,400,,,
trial,html.Screen,4_68_0,2023-09-08T19:49:24.508Z,,0,2,,2591.6199999999953,response,ISIC_9906378.JPG,8,ISIC_0011459.JPG,ISIC_9906378.JPG,false,1,keypress(m),500,241057,241056,238460.2,238462,238464.38,241063.02,8,400,19,,ISIC_0011459.JPG
break,html.Screen,4_68_1,2023-09-08T19:49:24.509Z,,0,,,NaN,,,,,,false,,,,241058,241058,,241057,,241063.02,8,400,,,
break_continue,html.Screen,4_68_2,2023-09-08T19:49:24.510Z,,0,,,NaN,,,,,,false,,,,241059,241059,,241059,,241063.02,8,400,,,
sequence,flow.Sequence,4_68,2023-09-08T19:49:24.510Z,,0,,,2594.6199999999953,completion,,,,,false,,,,241059,241059,238460.2,238462,238464.38,241063.02,8,400,,,
trial,html.Screen,4_69_0,2023-09-08T19:49:26.865Z,,0,2,,2349.9800000000105,response,ISIC_0026347.JPG,18,ISIC_5100319.JPG,ISIC_5100319.JPG,false,0,keypress(z),500,243413,243413,241056.96,241059,241063.02,243419.34,8,400,20,,ISIC_0026347.JPG
break,html.Screen,4_69_1,2023-09-08T19:49:26.865Z,,0,,,NaN,,,,,,false,,,,243415,243414,,243413,,243419.34,8,400,,,
break_continue,html.Screen,4_69_2,2023-09-08T19:49:26.866Z,,0,,,NaN,,,,,,false,,,,243415,243415,,243415,,243419.34,8,400,,,
sequence,flow.Sequence,4_69,2023-09-08T19:49:26.866Z,,0,,,2351.9800000000105,completion,,,,,false,,,,243415,243415,241056.96,241059,241063.02,243419.34,8,400,,,
trial,html.Screen,4_70_0,2023-09-08T19:49:29.494Z,,0,2,,2624.6600000000035,response,ISIC_3934537.JPG,10,ISIC_0004089.JPG,ISIC_0004089.JPG,false,0,keypress(z),500,246044,246044,243413.56,243415,243419.34,246048.26,8,400,21,,ISIC_3934537.JPG
break,html.Screen,4_70_1,2023-09-08T19:49:29.495Z,,0,,,NaN,,,,,,false,,,,246045,246045,,246044,,246048.26,8,400,,,
break_continue,html.Screen,4_70_2,2023-09-08T19:49:29.495Z,,0,,,NaN,,,,,,false,,,,246045,246045,,246045,,246048.26,8,400,,,
sequence,flow.Sequence,4_70,2023-09-08T19:49:29.495Z,,0,,,2625.6600000000035,completion,,,,,false,,,,246045,246045,243413.56,243415,243419.34,246048.26,8,400,,,
trial,html.Screen,4_71_0,2023-09-08T19:49:31.809Z,,0,2,,2309.7399999999907,response,ISIC_0032922.JPG,19,ISIC_0483289.JPG,ISIC_0032922.JPG,false,1,keypress(m),500,248358,248358,246043.52,246045,246048.26,248368.24,8,400,22,,ISIC_0483289.JPG
break,html.Screen,4_71_1,2023-09-08T19:49:31.810Z,,0,,,NaN,,,,,,false,,,,248359,248359,,248358,,248368.24,8,400,,,
break_continue,html.Screen,4_71_2,2023-09-08T19:49:31.811Z,,0,,,NaN,,,,,,false,,,,248359,248359,,248359,,248368.24,8,400,,,
sequence,flow.Sequence,4_71,2023-09-08T19:49:31.811Z,,0,,,2310.7399999999907,completion,,,,,false,,,,248359,248359,246043.52,246045,246048.26,248368.24,8,400,,,
trial,html.Screen,4_72_0,2023-09-08T19:49:34.338Z,,0,2,,2517.7600000000093,response,ISIC_0032747.JPG,3,ISIC_4264600.JPG,ISIC_0032747.JPG,false,1,keypress(m),500,250886,250886,248362.18,248359,248368.24,250888.12,8,400,23,,ISIC_4264600.JPG
break,html.Screen,4_72_1,2023-09-08T19:49:34.338Z,,0,,,NaN,,,,,,false,,,,250887,250887,,250886,,250888.12,8,400,,,
break_continue,html.Screen,4_72_2,2023-09-08T19:49:34.339Z,,0,,,NaN,,,,,,false,,,,250887,250887,,250887,,250888.12,8,400,,,
sequence,flow.Sequence,4_72,2023-09-08T19:49:34.339Z,,0,,,2518.7600000000093,completion,,,,,false,,,,250888,250887,248362.18,248359,248368.24,250888.12,8,400,,,
trial,html.Screen,4_73_0,2023-09-08T19:49:36.740Z,,0,2,,2399.8800000000047,response,ISIC_4502605.JPG,14,ISIC_0057313.JPG,ISIC_4502605.JPG,false,1,keypress(m),500,253288,253288,250886.7,250888,250888.12,253298.96,8,400,24,,ISIC_0057313.JPG
break,html.Screen,4_73_1,2023-09-08T19:49:36.740Z,,0,,,NaN,,,,,,false,,,,253289,253289,,253288,,253298.96,8,400,,,
break_continue,html.Screen,4_73_2,2023-09-08T19:49:36.741Z,,0,,,NaN,,,,,,false,,,,253290,253290,,253289,,253298.96,8,400,,,
sequence,flow.Sequence,4_73,2023-09-08T19:49:36.741Z,,0,,,2401.8800000000047,completion,,,,,false,,,,253290,253290,250886.7,250888,250888.12,253298.96,8,400,,,
trial,html.Screen,4_74_0,2023-09-08T19:49:39.446Z,,0,2,,2697.040000000008,response,ISIC_9178485.JPG,27,ISIC_0070782.JPG,ISIC_9178485.JPG,false,1,keypress(m),500,255996,255996,253292.9,253290,253298.96,256006.62,8,400,25,,ISIC_0070782.JPG
break,html.Screen,4_74_1,2023-09-08T19:49:39.447Z,,0,,,NaN,,,,,,false,,,,255997,255997,,255996,,256006.62,8,400,,,
break_continue,html.Screen,4_74_2,2023-09-08T19:49:39.448Z,,0,,,NaN,,,,,,false,,,,255997,255997,,255997,,256006.62,8,400,,,
sequence,flow.Sequence,4_74,2023-09-08T19:49:39.448Z,,0,,,2698.040000000008,completion,,,,,false,,,,255997,255997,253292.9,253290,253298.96,256006.62,8,400,,,
trial,html.Screen,4_75_0,2023-09-08T19:49:42.010Z,,0,2,,2553.3800000000047,response,ISIC_0054663.JPG,6,ISIC_0026239.JPG,ISIC_0054663.JPG,false,1,keypress(m),500,258560,258560,256000.56,255997,256006.62,258562.84,8,400,26,,ISIC_0026239.JPG
break,html.Screen,4_75_1,2023-09-08T19:49:42.011Z,,0,,,NaN,,,,,,false,,,,258561,258561,,258560,,258562.84,8,400,,,
break_continue,html.Screen,4_75_2,2023-09-08T19:49:42.012Z,,0,,,NaN,,,,,,false,,,,258561,258561,,258561,,258562.84,8,400,,,
sequence,flow.Sequence,4_75,2023-09-08T19:49:42.012Z,,0,,,2554.3800000000047,completion,,,,,false,,,,258561,258561,256000.56,255997,256006.62,258562.84,8,400,,,
trial,html.Screen,4_76_0,2023-09-08T19:49:44.448Z,,0,2,,2434.1600000000035,response,ISIC_0070588.JPG,6,ISIC_4394524.JPG,ISIC_4394524.JPG,false,0,keypress(z),500,260997,260997,258559.4,258561,258562.84,260997.92,8,400,27,,ISIC_0070588.JPG
break,html.Screen,4_76_1,2023-09-08T19:49:44.449Z,,0,,,NaN,,,,,,false,,,,260998,260997,,260997,,260997.92,8,400,,,
break_continue,html.Screen,4_76_2,2023-09-08T19:49:44.449Z,,0,,,NaN,,,,,,false,,,,260998,260998,,260998,,260997.92,8,400,,,
sequence,flow.Sequence,4_76,2023-09-08T19:49:44.449Z,,0,,,2435.1600000000035,completion,,,,,false,,,,260998,260998,258559.4,258561,258562.84,260997.92,8,400,,,
trial,html.Screen,4_77_0,2023-09-08T19:49:46.827Z,,0,2,,2379.079999999987,response,ISIC_8165906.JPG,6,ISIC_0068886.JPG,ISIC_8165906.JPG,false,1,keypress(m),500,263377,263377,260996.92,260998,260997.92,263378.48,8,400,28,,ISIC_0068886.JPG
break,html.Screen,4_77_1,2023-09-08T19:49:46.828Z,,0,,,NaN,,,,,,false,,,,263377,263377,,263377,,263378.48,8,400,,,
break_continue,html.Screen,4_77_2,2023-09-08T19:49:46.828Z,,0,,,NaN,,,,,,false,,,,263378,263378,,263377,,263378.48,8,400,,,
sequence,flow.Sequence,4_77,2023-09-08T19:49:46.828Z,,0,,,2380.079999999987,completion,,,,,false,,,,263378,263378,260996.92,260998,260997.92,263378.48,8,400,,,
trial,html.Screen,4_78_0,2023-09-08T19:49:49.173Z,,0,2,,2343.5200000000186,response,ISIC_0033911.JPG,4,ISIC_0033518.JPG,ISIC_0033911.JPG,false,1,keypress(m),500,265722,265722,263376.86,263378,263378.48,265722.68,8,400,29,,ISIC_0033518.JPG
break,html.Screen,4_78_1,2023-09-08T19:49:49.173Z,,0,,,NaN,,,,,,false,,,,265723,265723,,265722,,265722.68,8,400,,,
break_continue,html.Screen,4_78_2,2023-09-08T19:49:49.174Z,,0,,,NaN,,,,,,false,,,,265723,265723,,265723,,265722.68,8,400,,,
sequence,flow.Sequence,4_78,2023-09-08T19:49:49.174Z,,0,,,2344.5200000000186,completion,,,,,false,,,,265723,265723,263376.86,263378,263378.48,265722.68,8,400,,,
trial,html.Screen,4_79_0,2023-09-08T19:49:51.668Z,,0,2,,2494.320000000007,response,ISIC_0000150.JPG,2,ISIC_8931948.JPG,ISIC_8931948.JPG,false,0,keypress(z),500,268218,268217,265722.04,265723,265722.68,268218.34,8,400,30,,ISIC_0000150.JPG
break,html.Screen,4_79_1,2023-09-08T19:49:51.669Z,,0,,,NaN,,,,,,false,,,,268219,268218,,268218,,268218.34,8,400,,,
break_continue,html.Screen,4_79_2,2023-09-08T19:49:51.669Z,,0,,,NaN,,,,,,false,,,,268219,268219,,268219,,268218.34,8,400,,,
sequence,flow.Sequence,4_79,2023-09-08T19:49:51.669Z,,0,,,2496.320000000007,completion,,,,,false,,,,268219,268219,265722.04,265723,265722.68,268218.34,8,400,,,
trial,html.Screen,4_80_0,2023-09-08T19:49:54.154Z,,0,2,,2484.6599999999744,response,ISIC_0054239.JPG,0,ISIC_0011789.JPG,ISIC_0054239.JPG,false,1,keypress(m),500,270703,270703,268217.44,268219,268218.34,270707.92,8,400,31,,ISIC_0011789.JPG
break,html.Screen,4_80_1,2023-09-08T19:49:54.155Z,,0,,,NaN,,,,,,false,,,,270704,270704,,270703,,270707.92,8,400,,,
break_continue,html.Screen,4_80_2,2023-09-08T19:49:54.155Z,,0,,,NaN,,,,,,false,,,,270704,270704,,270704,,270707.92,8,400,,,
sequence,flow.Sequence,4_80,2023-09-08T19:49:54.155Z,,0,,,2485.6599999999744,completion,,,,,false,,,,270704,270704,268217.44,268219,268218.34,270707.92,8,400,,,
trial,html.Screen,4_81_0,2023-09-08T19:49:56.787Z,,0,2,,2628.0800000000163,response,ISIC_0030002.JPG,24,ISIC_7254359.JPG,ISIC_0030002.JPG,false,1,keypress(m),500,273336,273336,270703.14,270705,270707.92,273342.9,8,400,32,,ISIC_7254359.JPG
break,html.Screen,4_81_1,2023-09-08T19:49:56.789Z,,0,,,NaN,,,,,,false,,,,273338,273338,,273337,,273342.9,8,400,,,
break_continue,html.Screen,4_81_2,2023-09-08T19:49:56.789Z,,0,,,NaN,,,,,,false,,,,273338,273338,,273338,,273342.9,8,400,,,
sequence,flow.Sequence,4_81,2023-09-08T19:49:56.789Z,,0,,,2630.0800000000163,completion,,,,,false,,,,273338,273338,270703.14,270704,270707.92,273342.9,8,400,,,
trial,html.Screen,4_82_0,2023-09-08T19:49:59.272Z,,0,2,,2477.0999999999767,response,ISIC_0073043.JPG,22,ISIC_0056228.JPG,ISIC_0056228.JPG,false,0,keypress(z),500,275820,275820,273336.84,273338,273342.9,275826.42,8,400,33,,ISIC_0073043.JPG
break,html.Screen,4_82_1,2023-09-08T19:49:59.273Z,,0,,,NaN,,,,,,false,,,,275822,275822,,275820,,275826.42,8,400,,,
break_continue,html.Screen,4_82_2,2023-09-08T19:49:59.273Z,,0,,,NaN,,,,,,false,,,,275822,275822,,275822,,275826.42,8,400,,,
sequence,flow.Sequence,4_82,2023-09-08T19:49:59.273Z,,0,,,2479.0999999999767,completion,,,,,false,,,,275823,275822,273336.84,273338,273342.9,275826.42,8,400,,,
trial,html.Screen,4_83_0,2023-09-08T19:50:01.843Z,,0,2,,2566.5800000000163,response,ISIC_0026924.JPG,12,ISIC_9206499.JPG,ISIC_0026924.JPG,false,1,keypress(m),500,278393,278393,275820.82,275823,275826.42,278394.76,8,400,34,,ISIC_9206499.JPG
break,html.Screen,4_83_1,2023-09-08T19:50:01.844Z,,0,,,NaN,,,,,,false,,,,278394,278394,,278393,,278394.76,8,400,,,
break_continue,html.Screen,4_83_2,2023-09-08T19:50:01.844Z,,0,,,NaN,,,,,,false,,,,278394,278394,,278394,,278394.76,8,400,,,
sequence,flow.Sequence,4_83,2023-09-08T19:50:01.844Z,,0,,,2567.5800000000163,completion,,,,,false,,,,278394,278394,275820.82,275823,275826.42,278394.76,8,400,,,
trial,html.Screen,4_84_0,2023-09-08T19:50:04.375Z,,0,2,,2530.2399999999907,response,ISIC_8301536.JPG,19,ISIC_7641956.JPG,ISIC_8301536.JPG,false,1,keypress(m),500,280925,280925,278392.82,278394,278394.76,280926.76,8,400,35,,ISIC_7641956.JPG
break,html.Screen,4_84_1,2023-09-08T19:50:04.376Z,,0,,,NaN,,,,,,false,,,,280926,280926,,280925,,280926.76,8,400,,,
break_continue,html.Screen,4_84_2,2023-09-08T19:50:04.377Z,,0,,,NaN,,,,,,false,,,,280926,280926,,280926,,280926.76,8,400,,,
sequence,flow.Sequence,4_84,2023-09-08T19:50:04.377Z,,0,,,2531.2399999999907,completion,,,,,false,,,,280926,280926,278392.82,278394,278394.76,280926.76,8,400,,,
trial,html.Screen,4_85_0,2023-09-08T19:50:06.848Z,,0,2,,2471.2399999999907,response,ISIC_7185036.JPG,7,ISIC_0000151.JPG,ISIC_7185036.JPG,false,1,keypress(m),500,283398,283398,280924.8,280926,280926.76,283398.18,8,400,36,,ISIC_0000151.JPG
break,html.Screen,4_85_1,2023-09-08T19:50:06.849Z,,0,,,NaN,,,,,,false,,,,283399,283399,,283398,,283398.18,8,400,,,
break_continue,html.Screen,4_85_2,2023-09-08T19:50:06.849Z,,0,,,NaN,,,,,,false,,,,283399,283399,,283399,,283398.18,8,400,,,
sequence,flow.Sequence,4_85,2023-09-08T19:50:06.849Z,,0,,,2472.2399999999907,completion,,,,,false,,,,283399,283399,280924.8,280926,280926.76,283398.18,8,400,,,
trial,html.Screen,4_86_0,2023-09-08T19:50:09.568Z,,0,2,,2718.820000000007,response,ISIC_3084322.JPG,21,ISIC_4526581.JPG,ISIC_3084322.JPG,false,1,keypress(m),500,286117,286117,283397.5,283399,283398.18,286117.96,8,400,37,,ISIC_4526581.JPG
break,html.Screen,4_86_1,2023-09-08T19:50:09.569Z,,0,,,NaN,,,,,,false,,,,286118,286118,,286117,,286117.96,8,400,,,
break_continue,html.Screen,4_86_2,2023-09-08T19:50:09.569Z,,0,,,NaN,,,,,,false,,,,286118,286118,,286118,,286117.96,8,400,,,
sequence,flow.Sequence,4_86,2023-09-08T19:50:09.569Z,,0,,,2719.820000000007,completion,,,,,false,,,,286118,286118,283397.5,283399,283398.18,286117.96,8,400,,,
trial,html.Screen,4_87_0,2023-09-08T19:50:12.221Z,,0,2,,2651.039999999979,response,ISIC_0031900.JPG,2,ISIC_3000569.JPG,ISIC_3000569.JPG,false,0,keypress(z),500,288770,288769,286116.98,286118,286117.96,288772.94,8,400,38,,ISIC_0031900.JPG
break,html.Screen,4_87_1,2023-09-08T19:50:12.221Z,,0,,,NaN,,,,,,false,,,,288771,288770,,288770,,288772.94,8,400,,,
break_continue,html.Screen,4_87_2,2023-09-08T19:50:12.222Z,,0,,,NaN,,,,,,false,,,,288771,288771,,288771,,288772.94,8,400,,,
sequence,flow.Sequence,4_87,2023-09-08T19:50:12.222Z,,0,,,2653.039999999979,completion,,,,,false,,,,288771,288771,286116.98,286118,286117.96,288772.94,8,400,,,
trial,html.Screen,4_88_0,2023-09-08T19:50:14.846Z,,0,2,,2623.0599999999977,response,ISIC_5017874.JPG,5,ISIC_0010609.JPG,ISIC_5017874.JPG,false,1,keypress(m),500,291396,291396,288769.64,288771,288772.94,291401.84,8,400,39,,ISIC_0010609.JPG
break,html.Screen,4_88_1,2023-09-08T19:50:14.847Z,,0,,,NaN,,,,,,false,,,,291397,291397,,291396,,291401.84,8,400,,,
break_continue,html.Screen,4_88_2,2023-09-08T19:50:14.848Z,,0,,,NaN,,,,,,false,,,,291397,291397,,291397,,291401.84,8,400,,,
sequence,flow.Sequence,4_88,2023-09-08T19:50:14.848Z,,0,,,2624.0599999999977,completion,,,,,false,,,,291397,291397,288769.64,288771,288772.94,291401.84,8,400,,,
trial,html.Screen,4_89_0,2023-09-08T19:50:17.654Z,,0,2,,2801.1599999999744,response,ISIC_4343836.JPG,17,ISIC_3608788.JPG,ISIC_4343836.JPG,false,1,keypress(m),500,294204,294203,291395.78,291397,291401.84,294206.42,8,400,40,,ISIC_3608788.JPG
break,html.Screen,4_89_1,2023-09-08T19:50:17.655Z,,0,,,NaN,,,,,,false,,,,294204,294204,,294204,,294206.42,8,400,,,
break_continue,html.Screen,4_89_2,2023-09-08T19:50:17.655Z,,0,,,NaN,,,,,,false,,,,294205,294204,,294204,,294206.42,8,400,,,
sequence,flow.Sequence,4_89,2023-09-08T19:50:17.655Z,,0,,,2802.1599999999744,completion,,,,,false,,,,294205,294204,291395.78,291397,291401.84,294206.42,8,400,,,
trial,html.Screen,4_90_0,2023-09-08T19:50:20.437Z,,0,2,,2779.5800000000163,response,ISIC_5641619.JPG,3,ISIC_9828053.JPG,ISIC_5641619.JPG,false,1,keypress(m),500,296986,296986,294203.5,294205,294206.42,296986.76,8,400,41,,ISIC_9828053.JPG
break,html.Screen,4_90_1,2023-09-08T19:50:20.438Z,,0,,,NaN,,,,,,false,,,,296987,296987,,296986,,296986.76,8,400,,,
break_continue,html.Screen,4_90_2,2023-09-08T19:50:20.438Z,,0,,,NaN,,,,,,false,,,,296987,296987,,296987,,296986.76,8,400,,,
sequence,flow.Sequence,4_90,2023-09-08T19:50:20.438Z,,0,,,2780.5800000000163,completion,,,,,false,,,,296987,296987,294203.5,294205,294206.42,296986.76,8,400,,,
trial,html.Screen,4_91_0,2023-09-08T19:50:23.426Z,,0,2,,2989.2399999999907,response,ISIC_5204796.JPG,13,ISIC_0027936.JPG,ISIC_5204796.JPG,false,1,keypress(m),500,299976,299976,296985.72,296987,296986.76,299979.12,8,400,42,,ISIC_0027936.JPG
break,html.Screen,4_91_1,2023-09-08T19:50:23.427Z,,0,,,NaN,,,,,,false,,,,299977,299976,,299976,,299979.12,8,400,,,
break_continue,html.Screen,4_91_2,2023-09-08T19:50:23.428Z,,0,,,NaN,,,,,,false,,,,299977,299977,,299977,,299979.12,8,400,,,
sequence,flow.Sequence,4_91,2023-09-08T19:50:23.428Z,,0,,,2990.2399999999907,completion,,,,,false,,,,299977,299977,296985.72,296987,296986.76,299979.12,8,400,,,
trial,html.Screen,4_92_0,2023-09-08T19:50:26.046Z,,0,2,,2616.8800000000047,response,ISIC_0024292.JPG,1,ISIC_0014059.JPG,ISIC_0014059.JPG,false,0,keypress(z),500,302596,302596,299975.7,299977,299979.12,302595.92,8,400,43,,ISIC_0024292.JPG
break,html.Screen,4_92_1,2023-09-08T19:50:26.047Z,,0,,,NaN,,,,,,false,,,,302596,302596,,302596,,302595.92,8,400,,,
break_continue,html.Screen,4_92_2,2023-09-08T19:50:26.047Z,,0,,,NaN,,,,,,false,,,,302597,302597,,302597,,302595.92,8,400,,,
sequence,flow.Sequence,4_92,2023-09-08T19:50:26.047Z,,0,,,2617.8800000000047,completion,,,,,false,,,,302597,302597,299975.7,299977,299979.12,302595.92,8,400,,,
trial,html.Screen,4_93_0,2023-09-08T19:50:28.747Z,,0,2,,2699.0800000000163,response,ISIC_0027798.JPG,20,ISIC_0014347.JPG,ISIC_0027798.JPG,false,1,keypress(m),500,305296,305295,302595.36,302597,302595.92,305297.52,8,400,44,,ISIC_0014347.JPG
break,html.Screen,4_93_1,2023-09-08T19:50:28.748Z,,0,,,NaN,,,,,,false,,,,305297,305297,,305296,,305297.52,8,400,,,
break_continue,html.Screen,4_93_2,2023-09-08T19:50:28.749Z,,0,,,NaN,,,,,,false,,,,305298,305298,,305298,,305297.52,8,400,,,
sequence,flow.Sequence,4_93,2023-09-08T19:50:28.749Z,,0,,,2702.0800000000163,completion,,,,,false,,,,305298,305298,302595.36,302597,302595.92,305297.52,8,400,,,
trial,html.Screen,4_94_0,2023-09-08T19:50:31.480Z,,0,2,,2730.4799999999814,response,ISIC_3440813.JPG,4,ISIC_0027901.JPG,ISIC_3440813.JPG,false,1,keypress(m),500,308028,308028,305296.06,305298,305297.52,308029.4,8,400,45,,ISIC_0027901.JPG
break,html.Screen,4_94_1,2023-09-08T19:50:31.480Z,,0,,,NaN,,,,,,false,,,,308029,308029,,308028,,308029.4,8,400,,,
break_continue,html.Screen,4_94_2,2023-09-08T19:50:31.481Z,,0,,,NaN,,,,,,false,,,,308030,308029,,308029,,308029.4,8,400,,,
sequence,flow.Sequence,4_94,2023-09-08T19:50:31.481Z,,0,,,2731.4799999999814,completion,,,,,false,,,,308030,308029,305296.06,305298,305297.52,308029.4,8,400,,,
trial,html.Screen,4_95_0,2023-09-08T19:50:33.899Z,,0,2,,2418.5999999999767,response,ISIC_1558504.JPG,17,ISIC_7128811.JPG,ISIC_7128811.JPG,false,0,keypress(z),500,310448,310448,308028.52,308030,308029.4,310452.36,8,400,46,,ISIC_1558504.JPG
break,html.Screen,4_95_1,2023-09-08T19:50:33.900Z,,0,,,NaN,,,,,,false,,,,310449,310449,,310449,,310452.36,8,400,,,
break_continue,html.Screen,4_95_2,2023-09-08T19:50:33.901Z,,0,,,NaN,,,,,,false,,,,310450,310449,,310449,,310452.36,8,400,,,
sequence,flow.Sequence,4_95,2023-09-08T19:50:33.901Z,,0,,,2419.5999999999767,completion,,,,,false,,,,310450,310449,308028.52,308030,308029.4,310452.36,8,400,,,
trial,html.Screen,4_96_0,2023-09-08T19:50:36.525Z,,0,2,,2621.640000000014,response,ISIC_0033122.JPG,21,ISIC_0028984.JPG,ISIC_0033122.JPG,false,1,keypress(m),500,313075,313074,310448.5,310450,310452.36,313075.22,8,400,47,,ISIC_0028984.JPG
break,html.Screen,4_96_1,2023-09-08T19:50:36.526Z,,0,,,NaN,,,,,,false,,,,313076,313075,,313075,,313075.22,8,400,,,
break_continue,html.Screen,4_96_2,2023-09-08T19:50:36.526Z,,0,,,NaN,,,,,,false,,,,313076,313076,,313076,,313075.22,8,400,,,
sequence,flow.Sequence,4_96,2023-09-08T19:50:36.526Z,,0,,,2623.640000000014,completion,,,,,false,,,,313076,313076,310448.5,310450,310452.36,313075.22,8,400,,,
trial,html.Screen,4_97_0,2023-09-08T19:50:39.129Z,,0,2,,2602.780000000028,response,ISIC_2384274.JPG,19,ISIC_0066483.JPG,ISIC_2384274.JPG,false,1,keypress(m),500,315678,315678,313074.48,313076,313075.22,315679.9,8,400,48,,ISIC_0066483.JPG
break,html.Screen,4_97_1,2023-09-08T19:50:39.129Z,,0,,,NaN,,,,,,false,,,,315679,315679,,315678,,315679.9,8,400,,,
break_continue,html.Screen,4_97_2,2023-09-08T19:50:39.130Z,,0,,,NaN,,,,,,false,,,,315679,315679,,315679,,315679.9,8,400,,,
sequence,flow.Sequence,4_97,2023-09-08T19:50:39.130Z,,0,,,2603.780000000028,completion,,,,,false,,,,315679,315679,313074.48,313076,313075.22,315679.9,8,400,,,
trial,html.Screen,4_98_0,2023-09-08T19:50:41.541Z,,0,2,,2411.0999999999767,response,ISIC_5706192.JPG,9,ISIC_0063980.JPG,ISIC_5706192.JPG,false,1,keypress(m),500,318091,318091,315678.18,315679,315679.9,318096.8,8,400,49,,ISIC_0063980.JPG
break,html.Screen,4_98_1,2023-09-08T19:50:41.542Z,,0,,,NaN,,,,,,false,,,,318092,318092,,318091,,318096.8,8,400,,,
break_continue,html.Screen,4_98_2,2023-09-08T19:50:41.543Z,,0,,,NaN,,,,,,false,,,,318092,318092,,318092,,318096.8,8,400,,,
sequence,flow.Sequence,4_98,2023-09-08T19:50:41.543Z,,0,,,2412.0999999999767,completion,,,,,false,,,,318093,318092,315678.18,315679,315679.9,318096.8,8,400,,,
trial,html.Screen,4_99_0,2023-09-08T19:50:44.216Z,,0,2,,2668.2000000000116,response,ISIC_2702929.JPG,24,ISIC_5732374.JPG,ISIC_5732374.JPG,false,0,keypress(z),500,320765,320765,318090.92,318093,318096.8,320768.12,8,400,50,,ISIC_2702929.JPG
break,html.Screen,4_99_1,2023-09-08T19:50:54.216Z,,0,,,10000.76000000001,timeout,,,,,false,,,,330766,330762.82,320765.12,320765,320768.12,330768.88,8,400,,,
break_continue,html.Screen,4_99_2,2023-09-08T19:50:55.161Z,,0,,,934.1199999999953,response,,,,,false,continue,keypress(Space),,331710,331703,330762.82,330766,330768.88,331713.84,8,400,,,
sequence,flow.Sequence,4_99,2023-09-08T19:50:55.161Z,,0,,,13606.200000000012,completion,,,,,false,,,,331710,331703,318090.92,318093,318096.8,331713.84,8,400,,,
trial,html.Screen,4_100_0,2023-09-08T19:50:57.333Z,,0,3,,2169.1599999999744,response,ISIC_7633960.JPG,23,ISIC_0001129.JPG,ISIC_7633960.JPG,false,1,keypress(m),500,333883,333883,331710.54,331711,331713.84,333888.44,8,400,1,,ISIC_0001129.JPG
break,html.Screen,4_100_1,2023-09-08T19:50:57.335Z,,0,,,NaN,,,,,,false,,,,333884,333884,,333883,,333888.44,8,400,,,
break_continue,html.Screen,4_100_2,2023-09-08T19:50:57.335Z,,0,,,NaN,,,,,,false,,,,333885,333884,,333884,,333888.44,8,400,,,
sequence,flow.Sequence,4_100,2023-09-08T19:50:57.335Z,,0,,,2170.1599999999744,completion,,,,,false,,,,333885,333884,331710.54,331711,331713.84,333888.44,8,400,,,
trial,html.Screen,4_101_0,2023-09-08T19:51:00.112Z,,0,3,,2772.5599999999977,response,ISIC_0010007.JPG,3,ISIC_1114966.JPG,ISIC_1114966.JPG,false,0,keypress(z),500,336661,336661,333882.76,333885,333888.44,336662.74,8,400,2,,ISIC_0010007.JPG
break,html.Screen,4_101_1,2023-09-08T19:51:00.113Z,,0,,,NaN,,,,,,false,,,,336663,336663,,336661,,336662.74,8,400,,,
break_continue,html.Screen,4_101_2,2023-09-08T19:51:00.114Z,,0,,,NaN,,,,,,false,,,,336663,336663,,336663,,336662.74,8,400,,,
sequence,flow.Sequence,4_101,2023-09-08T19:51:00.114Z,,0,,,2774.5599999999977,completion,,,,,false,,,,336663,336663,333882.76,333885,333888.44,336662.74,8,400,,,
trial,html.Screen,4_102_0,2023-09-08T19:51:02.751Z,,0,3,,2637.2600000000093,response,ISIC_0511526.JPG,5,ISIC_0002878.JPG,ISIC_0511526.JPG,false,1,keypress(m),500,339300,339300,336661.66,336663,336662.74,339305.66,8,400,3,,ISIC_0002878.JPG
break,html.Screen,4_102_1,2023-09-08T19:51:02.752Z,,0,,,NaN,,,,,,false,,,,339301,339301,,339300,,339305.66,8,400,,,
break_continue,html.Screen,4_102_2,2023-09-08T19:51:02.752Z,,0,,,NaN,,,,,,false,,,,339301,339301,,339301,,339305.66,8,400,,,
sequence,flow.Sequence,4_102,2023-09-08T19:51:02.752Z,,0,,,2638.2600000000093,completion,,,,,false,,,,339301,339301,336661.66,336663,336662.74,339305.66,8,400,,,
trial,html.Screen,4_103_0,2023-09-08T19:51:05.311Z,,0,3,,2553.3400000000256,response,ISIC_4247149.JPG,17,ISIC_6609379.JPG,ISIC_4247149.JPG,false,1,keypress(m),500,341860,341859,339300.16,339301,339305.66,341861.88,8,400,4,,ISIC_6609379.JPG
break,html.Screen,4_103_1,2023-09-08T19:51:05.312Z,,0,,,NaN,,,,,,false,,,,341861,341860,,341860,,341861.88,8,400,,,
break_continue,html.Screen,4_103_2,2023-09-08T19:51:05.312Z,,0,,,NaN,,,,,,false,,,,341861,341861,,341861,,341861.88,8,400,,,
sequence,flow.Sequence,4_103,2023-09-08T19:51:05.312Z,,0,,,2555.3400000000256,completion,,,,,false,,,,341861,341861,339300.16,339301,339305.66,341861.88,8,400,,,
trial,html.Screen,4_104_0,2023-09-08T19:51:08.025Z,,0,3,,2713.1199999999953,response,ISIC_0347984.JPG,19,ISIC_0014501.JPG,ISIC_0347984.JPG,false,1,keypress(m),500,344575,344575,341859.96,341861,341861.88,344575.58,8,400,5,,ISIC_0014501.JPG
break,html.Screen,4_104_1,2023-09-08T19:51:08.026Z,,0,,,NaN,,,,,,false,,,,344576,344576,,344575,,344575.58,8,400,,,
break_continue,html.Screen,4_104_2,2023-09-08T19:51:08.027Z,,0,,,NaN,,,,,,false,,,,344576,344576,,344576,,344575.58,8,400,,,
sequence,flow.Sequence,4_104,2023-09-08T19:51:08.027Z,,0,,,2714.1199999999953,completion,,,,,false,,,,344576,344576,341859.96,341861,341861.88,344575.58,8,400,,,
trial,html.Screen,4_105_0,2023-09-08T19:51:10.369Z,,0,3,,2342.4199999999837,response,ISIC_0027560.JPG,21,ISIC_9094080.JPG,ISIC_9094080.JPG,false,0,keypress(z),500,346918,346918,344575.12,344576,344575.58,346919.8,8,400,6,,ISIC_0027560.JPG
break,html.Screen,4_105_1,2023-09-08T19:51:10.370Z,,0,,,NaN,,,,,,false,,,,346919,346919,,346918,,346919.8,8,400,,,
break_continue,html.Screen,4_105_2,2023-09-08T19:51:10.370Z,,0,,,NaN,,,,,,false,,,,346919,346919,,346919,,346919.8,8,400,,,
sequence,flow.Sequence,4_105,2023-09-08T19:51:10.370Z,,0,,,2343.4199999999837,completion,,,,,false,,,,346919,346919,344575.12,344576,344575.58,346919.8,8,400,,,
trial,html.Screen,4_106_0,2023-09-08T19:51:12.882Z,,0,3,,2510.2000000000116,response,ISIC_9397126.JPG,15,ISIC_7888672.JPG,ISIC_9397126.JPG,false,1,keypress(m),500,349430,349430,346918.44,346919,346919.8,349433.62,8,400,7,,ISIC_7888672.JPG
break,html.Screen,4_106_1,2023-09-08T19:51:12.882Z,,0,,,NaN,,,,,,false,,,,349431,349431,,349431,,349433.62,8,400,,,
break_continue,html.Screen,4_106_2,2023-09-08T19:51:12.883Z,,0,,,NaN,,,,,,false,,,,349432,349432,,349431,,349433.62,8,400,,,
sequence,flow.Sequence,4_106,2023-09-08T19:51:12.883Z,,0,,,2512.2000000000116,completion,,,,,false,,,,349432,349432,346918.44,346919,346919.8,349433.62,8,400,,,
trial,html.Screen,4_107_0,2023-09-08T19:51:15.436Z,,0,3,,2551.3800000000047,response,ISIC_0026613.JPG,32,ISIC_0014666.JPG,ISIC_0026613.JPG,false,1,keypress(m),500,351985,351985,349430.78,349432,349433.62,351989.84,8,400,8,,ISIC_0014666.JPG
break,html.Screen,4_107_1,2023-09-08T19:51:15.437Z,,0,,,NaN,,,,,,false,,,,351986,351986,,351985,,351989.84,8,400,,,
break_continue,html.Screen,4_107_2,2023-09-08T19:51:15.437Z,,0,,,NaN,,,,,,false,,,,351986,351986,,351986,,351989.84,8,400,,,
sequence,flow.Sequence,4_107,2023-09-08T19:51:15.438Z,,0,,,2552.3800000000047,completion,,,,,false,,,,351986,351986,349430.78,349432,349433.62,351989.84,8,400,,,
trial,html.Screen,4_108_0,2023-09-08T19:51:17.980Z,,0,3,,2538.1599999999744,response,ISIC_0030689.JPG,3,ISIC_3152541.JPG,ISIC_0030689.JPG,false,1,keypress(m),500,354529,354528,351984.92,351986,351989.84,354540.02,8,400,9,,ISIC_3152541.JPG
break,html.Screen,4_108_1,2023-09-08T19:51:17.980Z,,0,,,NaN,,,,,,false,,,,354530,354530,,354529,,354540.02,8,400,,,
break_continue,html.Screen,4_108_2,2023-09-08T19:51:17.981Z,,0,,,NaN,,,,,,false,,,,354530,354530,,354530,,354540.02,8,400,,,
sequence,flow.Sequence,4_108,2023-09-08T19:51:17.981Z,,0,,,2540.1599999999744,completion,,,,,false,,,,354530,354530,351984.92,351986,351989.84,354540.02,8,400,,,
trial,html.Screen,4_109_0,2023-09-08T19:51:20.652Z,,0,3,,2659.9799999999814,response,ISIC_0000277.JPG,3,ISIC_1228845.JPG,ISIC_1228845.JPG,false,0,keypress(z),500,357201,357200,354533.96,354530,354540.02,357205.26,8,400,10,,ISIC_0000277.JPG
break,html.Screen,4_109_1,2023-09-08T19:51:20.652Z,,0,,,NaN,,,,,,false,,,,357201,357201,,357201,,357205.26,8,400,,,
break_continue,html.Screen,4_109_2,2023-09-08T19:51:20.653Z,,0,,,NaN,,,,,,false,,,,357202,357202,,357201,,357205.26,8,400,,,
sequence,flow.Sequence,4_109,2023-09-08T19:51:20.653Z,,0,,,2661.9799999999814,completion,,,,,false,,,,357202,357202,354533.96,354530,354540.02,357205.26,8,400,,,
trial,html.Screen,4_110_0,2023-09-08T19:51:23.219Z,,0,3,,2561.7399999999907,response,ISIC_6089318.JPG,24,ISIC_0070747.JPG,ISIC_6089318.JPG,false,1,keypress(m),500,359767,359767,357201.12,357202,357205.26,359773.6,8,400,11,,ISIC_0070747.JPG
break,html.Screen,4_110_1,2023-09-08T19:51:23.220Z,,0,,,NaN,,,,,,false,,,,359768,359768,,359768,,359773.6,8,400,,,
break_continue,html.Screen,4_110_2,2023-09-08T19:51:23.220Z,,0,,,NaN,,,,,,false,,,,359769,359769,,359768,,359773.6,8,400,,,
sequence,flow.Sequence,4_110,2023-09-08T19:51:23.220Z,,0,,,2563.7399999999907,completion,,,,,false,,,,359769,359769,357201.12,357202,357205.26,359773.6,8,400,,,
trial,html.Screen,4_111_0,2023-09-08T19:51:26.143Z,,0,3,,2919.4000000000233,response,ISIC_1977265.JPG,7,ISIC_0870751.JPG,ISIC_0870751.JPG,false,0,keypress(z),500,362693,362693,359767.82,359769,359773.6,362693.28,8,400,12,,ISIC_1977265.JPG
break,html.Screen,4_111_1,2023-09-08T19:51:26.145Z,,0,,,NaN,,,,,,false,,,,362694,362694,,362693,,362693.28,8,400,,,
break_continue,html.Screen,4_111_2,2023-09-08T19:51:26.145Z,,0,,,NaN,,,,,,false,,,,362694,362694,,362694,,362693.28,8,400,,,
sequence,flow.Sequence,4_111,2023-09-08T19:51:26.145Z,,0,,,2920.4000000000233,completion,,,,,false,,,,362694,362694,359767.82,359769,359773.6,362693.28,8,400,,,
trial,html.Screen,4_112_0,2023-09-08T19:51:28.521Z,,0,3,,2376.719999999972,response,ISIC_4938791.JPG,22,ISIC_2768787.JPG,ISIC_4938791.JPG,false,1,keypress(m),500,365070,365070,362692.86,362694,362693.28,365073.84,8,400,13,,ISIC_2768787.JPG
break,html.Screen,4_112_1,2023-09-08T19:51:28.522Z,,0,,,NaN,,,,,,false,,,,365070,365070,,365070,,365073.84,8,400,,,
break_continue,html.Screen,4_112_2,2023-09-08T19:51:28.522Z,,0,,,NaN,,,,,,false,,,,365071,365071,,365071,,365073.84,8,400,,,
sequence,flow.Sequence,4_112,2023-09-08T19:51:28.522Z,,0,,,2377.719999999972,completion,,,,,false,,,,365071,365071,362692.86,362694,362693.28,365073.84,8,400,,,
trial,html.Screen,4_113_0,2023-09-08T19:51:30.890Z,,0,3,,2364.1599999999744,response,ISIC_5194705.JPG,17,ISIC_3757004.JPG,ISIC_3757004.JPG,false,0,keypress(z),500,367438,367438,365070.02,365071,365073.84,367442.28,8,400,14,,ISIC_5194705.JPG
break,html.Screen,4_113_1,2023-09-08T19:51:30.890Z,,0,,,NaN,,,,,,false,,,,367439,367439,,367438,,367442.28,8,400,,,
break_continue,html.Screen,4_113_2,2023-09-08T19:51:30.891Z,,0,,,NaN,,,,,,false,,,,367439,367439,,367439,,367442.28,8,400,,,
sequence,flow.Sequence,4_113,2023-09-08T19:51:30.891Z,,0,,,2365.1599999999744,completion,,,,,false,,,,367439,367439,365070.02,365071,365073.84,367442.28,8,400,,,
trial,html.Screen,4_114_0,2023-09-08T19:51:33.233Z,,0,3,,2339.719999999972,response,ISIC_4884803.JPG,1,ISIC_0069492.JPG,ISIC_4884803.JPG,false,1,keypress(m),500,369782,369782,367438.64,367440,367442.28,369786.48,8,400,15,,ISIC_0069492.JPG
break,html.Screen,4_114_1,2023-09-08T19:51:33.234Z,,0,,,NaN,,,,,,false,,,,369783,369783,,369782,,369786.48,8,400,,,
break_continue,html.Screen,4_114_2,2023-09-08T19:51:33.234Z,,0,,,NaN,,,,,,false,,,,369783,369783,,369783,,369786.48,8,400,,,
sequence,flow.Sequence,4_114,2023-09-08T19:51:33.234Z,,0,,,2340.719999999972,completion,,,,,false,,,,369783,369783,367438.64,367440,367442.28,369786.48,8,400,,,
trial,html.Screen,4_115_0,2023-09-08T19:51:35.502Z,,0,3,,2265.5200000000186,response,ISIC_0014290.JPG,6,ISIC_9828053.JPG,ISIC_9828053.JPG,false,0,keypress(z),500,372052,372052,369781.96,369783,369786.48,372051.96,8,400,16,,ISIC_0014290.JPG
break,html.Screen,4_115_1,2023-09-08T19:51:35.503Z,,0,,,NaN,,,,,,false,,,,372053,372053,,372052,,372051.96,8,400,,,
break_continue,html.Screen,4_115_2,2023-09-08T19:51:35.503Z,,0,,,NaN,,,,,,false,,,,372053,372053,,372053,,372051.96,8,400,,,
sequence,flow.Sequence,4_115,2023-09-08T19:51:35.503Z,,0,,,2266.5200000000186,completion,,,,,false,,,,372053,372053,369781.96,369783,369786.48,372051.96,8,400,,,
trial,html.Screen,4_116_0,2023-09-08T19:51:37.987Z,,0,3,,2485.039999999979,response,ISIC_9210086.JPG,3,ISIC_3116288.JPG,ISIC_3116288.JPG,false,0,keypress(z),500,374537,374537,372051.82,372053,372051.96,374541.54,8,400,17,,ISIC_9210086.JPG
break,html.Screen,4_116_1,2023-09-08T19:51:37.988Z,,0,,,NaN,,,,,,false,,,,374538,374538,,374537,,374541.54,8,400,,,
break_continue,html.Screen,4_116_2,2023-09-08T19:51:37.988Z,,0,,,NaN,,,,,,false,,,,374538,374538,,374538,,374541.54,8,400,,,
sequence,flow.Sequence,4_116,2023-09-08T19:51:37.988Z,,0,,,2486.039999999979,completion,,,,,false,,,,374538,374538,372051.82,372053,372051.96,374541.54,8,400,,,
trial,html.Screen,4_117_0,2023-09-08T19:51:40.660Z,,0,3,,2667.460000000021,response,ISIC_0072641.JPG,22,ISIC_0011289.JPG,ISIC_0072641.JPG,false,1,keypress(m),500,377209,377209,374537,374538,374541.54,377212.86,8,400,18,,ISIC_0011289.JPG
break,html.Screen,4_117_1,2023-09-08T19:51:40.660Z,,0,,,NaN,,,,,,false,,,,377210,377210,,377209,,377212.86,8,400,,,
break_continue,html.Screen,4_117_2,2023-09-08T19:51:40.661Z,,0,,,NaN,,,,,,false,,,,377210,377210,,377210,,377212.86,8,400,,,
sequence,flow.Sequence,4_117,2023-09-08T19:51:40.661Z,,0,,,2668.460000000021,completion,,,,,false,,,,377210,377210,374537,374538,374541.54,377212.86,8,400,,,
trial,html.Screen,4_118_0,2023-09-08T19:51:42.955Z,,0,3,,2292.140000000014,response,ISIC_3303825.JPG,4,ISIC_8452205.JPG,ISIC_8452205.JPG,false,0,keypress(z),500,379505,379505,377209.34,377210,377212.86,379508.62,8,400,19,,ISIC_3303825.JPG
break,html.Screen,4_118_1,2023-09-08T19:51:42.956Z,,0,,,NaN,,,,,,false,,,,379505,379505,,379505,,379508.62,8,400,,,
break_continue,html.Screen,4_118_2,2023-09-08T19:51:42.956Z,,0,,,NaN,,,,,,false,,,,379506,379506,,379506,,379508.62,8,400,,,
sequence,flow.Sequence,4_118,2023-09-08T19:51:42.956Z,,0,,,2293.140000000014,completion,,,,,false,,,,379506,379506,377209.34,377210,377212.86,379508.62,8,400,,,
trial,html.Screen,4_119_0,2023-09-08T19:51:45.404Z,,0,3,,2444.3800000000047,response,ISIC_0440848.JPG,0,ISIC_0070822.JPG,ISIC_0070822.JPG,false,0,keypress(z),500,381953,381953,379505.04,379506,379508.62,381961.86,8,400,20,,ISIC_0440848.JPG
break,html.Screen,4_119_1,2023-09-08T19:51:45.404Z,,0,,,NaN,,,,,,false,,,,381953,381953,,381953,,381961.86,8,400,,,
break_continue,html.Screen,4_119_2,2023-09-08T19:51:45.405Z,,0,,,NaN,,,,,,false,,,,381954,381954,,381953,,381961.86,8,400,,,
sequence,flow.Sequence,4_119,2023-09-08T19:51:45.405Z,,0,,,2445.3800000000047,completion,,,,,false,,,,381954,381954,379505.04,379506,379508.62,381961.86,8,400,,,
trial,html.Screen,4_120_0,2023-09-08T19:51:47.952Z,,0,3,,2539.140000000014,response,ISIC_0011763.JPG,4,ISIC_0062161.JPG,ISIC_0011763.JPG,false,1,keypress(m),500,384501,384501,381955.8,381954,381961.86,384505.96,8,400,21,,ISIC_0062161.JPG
break,html.Screen,4_120_1,2023-09-08T19:51:47.953Z,,0,,,NaN,,,,,,false,,,,384503,384502,,384501,,384505.96,8,400,,,
break_continue,html.Screen,4_120_2,2023-09-08T19:51:47.953Z,,0,,,NaN,,,,,,false,,,,384503,384503,,384503,,384505.96,8,400,,,
sequence,flow.Sequence,4_120,2023-09-08T19:51:47.953Z,,0,,,2541.140000000014,completion,,,,,false,,,,384503,384503,381955.8,381954,381961.86,384505.96,8,400,,,
trial,html.Screen,4_121_0,2023-09-08T19:51:51.469Z,,0,3,,3512.039999999979,response,ISIC_3652847.JPG,24,ISIC_0033638.JPG,ISIC_3652847.JPG,false,1,keypress(m),500,388018,388018,384499.92,384503,384505.96,388019.26,8,400,22,,ISIC_0033638.JPG
break,html.Screen,4_121_1,2023-09-08T19:51:51.470Z,,0,,,NaN,,,,,,false,,,,388020,388020,,388018,,388019.26,8,400,,,
break_continue,html.Screen,4_121_2,2023-09-08T19:51:51.470Z,,0,,,NaN,,,,,,false,,,,388020,388020,,388020,,388019.26,8,400,,,
sequence,flow.Sequence,4_121,2023-09-08T19:51:51.471Z,,0,,,3514.039999999979,completion,,,,,false,,,,388020,388020,384499.92,384503,384505.96,388019.26,8,400,,,
trial,html.Screen,4_122_0,2023-09-08T19:51:53.826Z,,0,3,,2355.7399999999907,response,ISIC_0032187.JPG,0,ISIC_6878417.JPG,ISIC_6878417.JPG,false,0,keypress(z),500,390376,390375,388018.68,388020,388019.26,390377.46,8,400,23,,ISIC_0032187.JPG
break,html.Screen,4_122_1,2023-09-08T19:51:53.827Z,,0,,,NaN,,,,,,false,,,,390376,390376,,390376,,390377.46,8,400,,,
break_continue,html.Screen,4_122_2,2023-09-08T19:51:53.827Z,,0,,,NaN,,,,,,false,,,,390377,390377,,390376,,390377.46,8,400,,,
sequence,flow.Sequence,4_122,2023-09-08T19:51:53.827Z,,0,,,2357.7399999999907,completion,,,,,false,,,,390377,390377,388018.68,388020,388019.26,390377.46,8,400,,,
trial,html.Screen,4_123_0,2023-09-08T19:51:56.244Z,,0,3,,2415.539999999979,response,ISIC_0013498.JPG,15,ISIC_9765024.JPG,ISIC_9765024.JPG,false,0,keypress(z),500,392793,392793,390375.64,390377,390377.46,392794.36,8,400,24,,ISIC_0013498.JPG
break,html.Screen,4_123_1,2023-09-08T19:51:56.245Z,,0,,,NaN,,,,,,false,,,,392794,392794,,392793,,392794.36,8,400,,,
break_continue,html.Screen,4_123_2,2023-09-08T19:51:56.245Z,,0,,,NaN,,,,,,false,,,,392794,392794,,392794,,392794.36,8,400,,,
sequence,flow.Sequence,4_123,2023-09-08T19:51:56.246Z,,0,,,2416.539999999979,completion,,,,,false,,,,392795,392794,390375.64,390377,390377.46,392794.36,8,400,,,
trial,html.Screen,4_124_0,2023-09-08T19:51:58.782Z,,0,3,,2536.640000000014,response,ISIC_7101810.JPG,23,ISIC_0609067.JPG,ISIC_7101810.JPG,false,1,keypress(m),500,395331,395331,392793.66,392795,392794.36,395332.42,8,400,25,,ISIC_0609067.JPG
break,html.Screen,4_124_1,2023-09-08T19:51:58.782Z,,0,,,NaN,,,,,,false,,,,395332,395331,,395331,,395332.42,8,400,,,
break_continue,html.Screen,4_124_2,2023-09-08T19:51:58.783Z,,0,,,NaN,,,,,,false,,,,395332,395332,,395332,,395332.42,8,400,,,
sequence,flow.Sequence,4_124,2023-09-08T19:51:58.783Z,,0,,,2537.640000000014,completion,,,,,false,,,,395332,395332,392793.66,392795,392794.36,395332.42,8,400,,,
trial,html.Screen,4_125_0,2023-09-08T19:52:01.216Z,,0,3,,2432.5800000000163,response,ISIC_0012222.JPG,4,ISIC_0000551.JPG,ISIC_0012222.JPG,false,1,keypress(m),500,397765,397765,395330.56,395332,395332.42,397767.5,8,400,26,,ISIC_0000551.JPG
break,html.Screen,4_125_1,2023-09-08T19:52:01.217Z,,0,,,NaN,,,,,,false,,,,397767,397767,,397766,,397767.5,8,400,,,
break_continue,html.Screen,4_125_2,2023-09-08T19:52:01.217Z,,0,,,NaN,,,,,,false,,,,397767,397767,,397767,,397767.5,8,400,,,
sequence,flow.Sequence,4_125,2023-09-08T19:52:01.218Z,,0,,,2434.5800000000163,completion,,,,,false,,,,397767,397767,395330.56,395332,395332.42,397767.5,8,400,,,
trial,html.Screen,4_126_0,2023-09-08T19:52:04.210Z,,0,3,,2991.5,response,ISIC_9596721.JPG,0,ISIC_9618489.JPG,ISIC_9618489.JPG,false,0,keypress(z),500,400759,400759,397765.52,397767,397767.5,400759.84,8,400,27,,ISIC_9596721.JPG
break,html.Screen,4_126_1,2023-09-08T19:52:04.210Z,,0,,,NaN,,,,,,false,,,,400760,400760,,400759,,400759.84,8,400,,,
break_continue,html.Screen,4_126_2,2023-09-08T19:52:04.211Z,,0,,,NaN,,,,,,false,,,,400760,400760,,400760,,400759.84,8,400,,,
sequence,flow.Sequence,4_126,2023-09-08T19:52:04.211Z,,0,,,2992.5,completion,,,,,false,,,,400760,400760,397765.52,397767,397767.5,400759.84,8,400,,,
trial,html.Screen,4_127_0,2023-09-08T19:52:06.769Z,,0,3,,2558.1599999999744,response,ISIC_6676776.JPG,2,ISIC_9865814.JPG,ISIC_6676776.JPG,false,1,keypress(m),500,403319,403318,400759.46,400760,400759.84,403322.12,8,400,28,,ISIC_9865814.JPG
break,html.Screen,4_127_1,2023-09-08T19:52:06.770Z,,0,,,NaN,,,,,,false,,,,403319,403319,,403319,,403322.12,8,400,,,
break_continue,html.Screen,4_127_2,2023-09-08T19:52:06.770Z,,0,,,NaN,,,,,,false,,,,403320,403320,,403319,,403322.12,8,400,,,
sequence,flow.Sequence,4_127,2023-09-08T19:52:06.770Z,,0,,,2560.1599999999744,completion,,,,,false,,,,403320,403320,400759.46,400760,400759.84,403322.12,8,400,,,
trial,html.Screen,4_128_0,2023-09-08T19:52:09.237Z,,0,3,,2463.8800000000047,response,ISIC_0012263.JPG,3,ISIC_5233226.JPG,ISIC_0012263.JPG,false,1,keypress(m),500,405786,405786,403318.52,403320,403322.12,405787.48,8,400,29,,ISIC_5233226.JPG
break,html.Screen,4_128_1,2023-09-08T19:52:09.238Z,,0,,,NaN,,,,,,false,,,,405787,405786,,405786,,405787.48,8,400,,,
break_continue,html.Screen,4_128_2,2023-09-08T19:52:09.238Z,,0,,,NaN,,,,,,false,,,,405787,405787,,405787,,405787.48,8,400,,,
sequence,flow.Sequence,4_128,2023-09-08T19:52:09.238Z,,0,,,2464.8800000000047,completion,,,,,false,,,,405787,405787,403318.52,403320,403322.12,405787.48,8,400,,,
trial,html.Screen,4_129_0,2023-09-08T19:52:11.701Z,,0,3,,2462.5200000000186,response,ISIC_3392433.JPG,2,ISIC_0027479.JPG,ISIC_0027479.JPG,false,0,keypress(z),500,408250,408250,405785.8,405787,405787.48,408252.86,8,400,30,,ISIC_3392433.JPG
break,html.Screen,4_129_1,2023-09-08T19:52:11.702Z,,0,,,NaN,,,,,,false,,,,408251,408251,,408251,,408252.86,8,400,,,
break_continue,html.Screen,4_129_2,2023-09-08T19:52:11.702Z,,0,,,NaN,,,,,,false,,,,408252,408252,,408251,,408252.86,8,400,,,
sequence,flow.Sequence,4_129,2023-09-08T19:52:11.702Z,,0,,,2464.5200000000186,completion,,,,,false,,,,408252,408252,405785.8,405787,405787.48,408252.86,8,400,,,
trial,html.Screen,4_130_0,2023-09-08T19:52:13.990Z,,0,3,,2286.140000000014,response,ISIC_0068776.JPG,9,ISIC_0870751.JPG,ISIC_0068776.JPG,false,1,keypress(m),500,410539,410539,408250.34,408252,408252.86,410542.54,8,400,31,,ISIC_0870751.JPG
break,html.Screen,4_130_1,2023-09-08T19:52:13.991Z,,0,,,NaN,,,,,,false,,,,410540,410540,,410539,,410542.54,8,400,,,
break_continue,html.Screen,4_130_2,2023-09-08T19:52:13.992Z,,0,,,NaN,,,,,,false,,,,410540,410540,,410540,,410542.54,8,400,,,
sequence,flow.Sequence,4_130,2023-09-08T19:52:13.992Z,,0,,,2287.140000000014,completion,,,,,false,,,,410540,410540,408250.34,408252,408252.86,410542.54,8,400,,,
trial,html.Screen,4_131_0,2023-09-08T19:52:16.707Z,,0,3,,2713.460000000021,response,ISIC_0030443.JPG,18,ISIC_9106601.JPG,ISIC_0030443.JPG,false,1,keypress(m),500,413256,413256,410539.44,410540,410542.54,413262.32,8,400,32,,ISIC_9106601.JPG
break,html.Screen,4_131_1,2023-09-08T19:52:16.707Z,,0,,,NaN,,,,,,false,,,,413257,413257,,413256,,413262.32,8,400,,,
break_continue,html.Screen,4_131_2,2023-09-08T19:52:16.708Z,,0,,,NaN,,,,,,false,,,,413257,413257,,413257,,413262.32,8,400,,,
sequence,flow.Sequence,4_131,2023-09-08T19:52:16.708Z,,0,,,2714.460000000021,completion,,,,,false,,,,413257,413257,410539.44,410540,410542.54,413262.32,8,400,,,
trial,html.Screen,4_132_0,2023-09-08T19:52:19.201Z,,0,3,,2486.679999999993,response,ISIC_9012513.JPG,2,ISIC_6449065.JPG,ISIC_6449065.JPG,false,0,keypress(z),500,415750,415749,413256.26,413257,413262.32,415757.96,8,400,33,,ISIC_9012513.JPG
break,html.Screen,4_132_1,2023-09-08T19:52:19.201Z,,0,,,NaN,,,,,,false,,,,415750,415750,,415750,,415757.96,8,400,,,
break_continue,html.Screen,4_132_2,2023-09-08T19:52:19.202Z,,0,,,NaN,,,,,,false,,,,415751,415751,,415750,,415757.96,8,400,,,
sequence,flow.Sequence,4_132,2023-09-08T19:52:19.202Z,,0,,,2488.679999999993,completion,,,,,false,,,,415751,415751,413256.26,413257,413262.32,415757.96,8,400,,,
trial,html.Screen,4_133_0,2023-09-08T19:52:21.860Z,,0,3,,2651.039999999979,response,ISIC_8872225.JPG,13,ISIC_0028126.JPG,ISIC_8872225.JPG,false,1,keypress(m),500,418409,418409,415751.92,415751,415757.96,418411.1,8,400,34,,ISIC_0028126.JPG
break,html.Screen,4_133_1,2023-09-08T19:52:21.861Z,,0,,,NaN,,,,,,false,,,,418410,418410,,418409,,418411.1,8,400,,,
break_continue,html.Screen,4_133_2,2023-09-08T19:52:21.861Z,,0,,,NaN,,,,,,false,,,,418410,418410,,418410,,418411.1,8,400,,,
sequence,flow.Sequence,4_133,2023-09-08T19:52:21.861Z,,0,,,2652.039999999979,completion,,,,,false,,,,418410,418410,415751.92,415751,415757.96,418411.1,8,400,,,
trial,html.Screen,4_134_0,2023-09-08T19:52:24.222Z,,0,3,,2359.9000000000233,response,ISIC_0029328.JPG,20,ISIC_7070020.JPG,ISIC_0029328.JPG,false,1,keypress(m),500,420771,420771,418409.32,418410,418411.1,420773.5,8,400,35,,ISIC_7070020.JPG
break,html.Screen,4_134_1,2023-09-08T19:52:24.222Z,,0,,,NaN,,,,,,false,,,,420772,420772,,420771,,420773.5,8,400,,,
break_continue,html.Screen,4_134_2,2023-09-08T19:52:24.223Z,,0,,,NaN,,,,,,false,,,,420772,420772,,420772,,420773.5,8,400,,,
sequence,flow.Sequence,4_134,2023-09-08T19:52:24.223Z,,0,,,2360.9000000000233,completion,,,,,false,,,,420772,420772,418409.32,418410,418411.1,420773.5,8,400,,,
trial,html.Screen,4_135_0,2023-09-08T19:52:26.711Z,,0,3,,2486.5,response,ISIC_7487840.JPG,5,ISIC_6824842.JPG,ISIC_6824842.JPG,false,0,keypress(z),500,423260,423260,420771.32,420772,420773.5,423269.14,8,400,36,,ISIC_7487840.JPG
break,html.Screen,4_135_1,2023-09-08T19:52:26.711Z,,0,,,NaN,,,,,,false,,,,423261,423261,,423260,,423269.14,8,400,,,
break_continue,html.Screen,4_135_2,2023-09-08T19:52:26.711Z,,0,,,NaN,,,,,,false,,,,423261,423261,,423261,,423269.14,8,400,,,
sequence,flow.Sequence,4_135,2023-09-08T19:52:26.711Z,,0,,,2487.5,completion,,,,,false,,,,423261,423261,420771.32,420772,420773.5,423269.14,8,400,,,
trial,html.Screen,4_136_0,2023-09-08T19:52:29.273Z,,0,3,,2553.859999999986,response,ISIC_5955057.JPG,5,ISIC_4425766.JPG,ISIC_5955057.JPG,false,1,keypress(m),500,425823,425823,423263.08,423261,423269.14,425825.36,8,400,37,,ISIC_4425766.JPG
break,html.Screen,4_136_1,2023-09-08T19:52:29.274Z,,0,,,NaN,,,,,,false,,,,425824,425823,,425823,,425825.36,8,400,,,
break_continue,html.Screen,4_136_2,2023-09-08T19:52:29.275Z,,0,,,NaN,,,,,,false,,,,425824,425824,,425824,,425825.36,8,400,,,
sequence,flow.Sequence,4_136,2023-09-08T19:52:29.275Z,,0,,,2554.859999999986,completion,,,,,false,,,,425824,425824,423263.08,423261,423269.14,425825.36,8,400,,,
trial,html.Screen,4_137_0,2023-09-08T19:52:31.756Z,,0,3,,2479.640000000014,response,ISIC_1342117.JPG,3,ISIC_0260316.JPG,ISIC_1342117.JPG,false,1,keypress(m),500,428305,428305,425823.2,425824,425825.36,428314.96,8,400,38,,ISIC_0260316.JPG
break,html.Screen,4_137_1,2023-09-08T19:52:31.756Z,,0,,,NaN,,,,,,false,,,,428306,428306,,428305,,428314.96,8,400,,,
break_continue,html.Screen,4_137_2,2023-09-08T19:52:31.757Z,,0,,,NaN,,,,,,false,,,,428306,428306,,428306,,428314.96,8,400,,,
sequence,flow.Sequence,4_137,2023-09-08T19:52:31.757Z,,0,,,2480.640000000014,completion,,,,,false,,,,428306,428306,425823.2,425824,425825.36,428314.96,8,400,,,
trial,html.Screen,4_138_0,2023-09-08T19:52:34.381Z,,0,3,,2616.039999999979,response,ISIC_4289906.JPG,8,ISIC_9613570.JPG,ISIC_9613570.JPG,false,0,keypress(z),500,430931,430931,428308.9,428306,428314.96,430931.76,8,400,39,,ISIC_4289906.JPG
break,html.Screen,4_138_1,2023-09-08T19:52:34.382Z,,0,,,NaN,,,,,,false,,,,430932,430932,,430931,,430931.76,8,400,,,
break_continue,html.Screen,4_138_2,2023-09-08T19:52:34.383Z,,0,,,NaN,,,,,,false,,,,430932,430932,,430932,,430931.76,8,400,,,
sequence,flow.Sequence,4_138,2023-09-08T19:52:34.383Z,,0,,,2617.039999999979,completion,,,,,false,,,,430932,430932,428308.9,428306,428314.96,430931.76,8,400,,,
trial,html.Screen,4_139_0,2023-09-08T19:52:36.650Z,,0,3,,2267.2399999999907,response,ISIC_0062547.JPG,8,ISIC_0011007.JPG,ISIC_0062547.JPG,false,1,keypress(m),500,433199,433199,430931.2,430932,430931.76,433203.28,8,400,40,,ISIC_0011007.JPG
break,html.Screen,4_139_1,2023-09-08T19:52:36.651Z,,0,,,NaN,,,,,,false,,,,433200,433200,,433199,,433203.28,8,400,,,
break_continue,html.Screen,4_139_2,2023-09-08T19:52:36.652Z,,0,,,NaN,,,,,,false,,,,433201,433201,,433200,,433203.28,8,400,,,
sequence,flow.Sequence,4_139,2023-09-08T19:52:36.652Z,,0,,,2269.2399999999907,completion,,,,,false,,,,433201,433201,430931.2,430932,430931.76,433203.28,8,400,,,
trial,html.Screen,4_140_0,2023-09-08T19:52:39.326Z,,0,3,,2670.719999999972,response,ISIC_4955457.JPG,0,ISIC_0033318.JPG,ISIC_4955457.JPG,false,1,keypress(m),500,435875,435874,433197.22,433201,433203.28,435880.66,8,400,41,,ISIC_0033318.JPG
break,html.Screen,4_140_1,2023-09-08T19:52:39.327Z,,0,,,NaN,,,,,,false,,,,435875,435875,,435875,,435880.66,8,400,,,
break_continue,html.Screen,4_140_2,2023-09-08T19:52:39.327Z,,0,,,NaN,,,,,,false,,,,435876,435876,,435875,,435880.66,8,400,,,
sequence,flow.Sequence,4_140,2023-09-08T19:52:39.327Z,,0,,,2672.719999999972,completion,,,,,false,,,,435876,435876,433197.22,433201,433203.28,435880.66,8,400,,,
trial,html.Screen,4_141_0,2023-09-08T19:52:42.062Z,,0,3,,2731.3400000000256,response,ISIC_6899527.JPG,11,ISIC_3967213.JPG,ISIC_3967213.JPG,false,0,keypress(z),500,438612,438612,435874.98,435876,435880.66,438612.54,8,400,42,,ISIC_6899527.JPG
break,html.Screen,4_141_1,2023-09-08T19:52:42.063Z,,0,,,NaN,,,,,,false,,,,438613,438613,,438612,,438612.54,8,400,,,
break_continue,html.Screen,4_141_2,2023-09-08T19:52:42.064Z,,0,,,NaN,,,,,,false,,,,438613,438613,,438613,,438612.54,8,400,,,
sequence,flow.Sequence,4_141,2023-09-08T19:52:42.064Z,,0,,,2732.3400000000256,completion,,,,,false,,,,438613,438613,435874.98,435876,435880.66,438612.54,8,400,,,
trial,html.Screen,4_142_0,2023-09-08T19:52:44.497Z,,0,3,,2434.460000000021,response,ISIC_8150108.JPG,18,ISIC_9196033.JPG,ISIC_8150108.JPG,false,1,keypress(m),500,441047,441047,438612.04,438613,438612.54,441049.46,8,400,43,,ISIC_9196033.JPG
break,html.Screen,4_142_1,2023-09-08T19:52:44.498Z,,0,,,NaN,,,,,,false,,,,441048,441048,,441047,,441049.46,8,400,,,
break_continue,html.Screen,4_142_2,2023-09-08T19:52:44.499Z,,0,,,NaN,,,,,,false,,,,441048,441048,,441048,,441049.46,8,400,,,
sequence,flow.Sequence,4_142,2023-09-08T19:52:44.499Z,,0,,,2435.460000000021,completion,,,,,false,,,,441048,441048,438612.04,438613,438612.54,441049.46,8,400,,,
trial,html.Screen,4_143_0,2023-09-08T19:52:47.011Z,,0,3,,2511.539999999979,response,ISIC_0070009.JPG,17,ISIC_9122215.JPG,ISIC_9122215.JPG,false,0,keypress(z),500,443561,443561,441046.66,441048,441049.46,443563.28,8,400,44,,ISIC_0070009.JPG
break,html.Screen,4_143_1,2023-09-08T19:52:47.013Z,,0,,,NaN,,,,,,false,,,,443562,443562,,443561,,443563.28,8,400,,,
break_continue,html.Screen,4_143_2,2023-09-08T19:52:47.013Z,,0,,,NaN,,,,,,false,,,,443563,443562,,443562,,443563.28,8,400,,,
sequence,flow.Sequence,4_143,2023-09-08T19:52:47.013Z,,0,,,2512.539999999979,completion,,,,,false,,,,443563,443562,441046.66,441048,441049.46,443563.28,8,400,,,
trial,html.Screen,4_144_0,2023-09-08T19:52:49.600Z,,0,3,,2585.719999999972,response,ISIC_4446385.JPG,17,ISIC_0030128.JPG,ISIC_4446385.JPG,false,1,keypress(m),500,446149,446149,443561.02,443563,443563.28,446149.8,8,400,45,,ISIC_0030128.JPG
break,html.Screen,4_144_1,2023-09-08T19:52:49.601Z,,0,,,NaN,,,,,,false,,,,446150,446150,,446149,,446149.8,8,400,,,
break_continue,html.Screen,4_144_2,2023-09-08T19:52:49.602Z,,0,,,NaN,,,,,,false,,,,446150,446150,,446150,,446149.8,8,400,,,
sequence,flow.Sequence,4_144,2023-09-08T19:52:49.602Z,,0,,,2586.719999999972,completion,,,,,false,,,,446150,446150,443561.02,443563,443563.28,446149.8,8,400,,,
trial,html.Screen,4_145_0,2023-09-08T19:52:51.866Z,,0,3,,2265.2000000000116,response,ISIC_0082348.JPG,4,ISIC_0013801.JPG,ISIC_0082348.JPG,false,1,keypress(m),500,448415,448415,446149.54,446150,446149.8,448415.26,8,400,46,,ISIC_0013801.JPG
break,html.Screen,4_145_1,2023-09-08T19:52:51.867Z,,0,,,NaN,,,,,,false,,,,448416,448416,,448415,,448415.26,8,400,,,
break_continue,html.Screen,4_145_2,2023-09-08T19:52:51.867Z,,0,,,NaN,,,,,,false,,,,448416,448416,,448416,,448415.26,8,400,,,
sequence,flow.Sequence,4_145,2023-09-08T19:52:51.867Z,,0,,,2266.2000000000116,completion,,,,,false,,,,448417,448416,446149.54,446150,446149.8,448415.26,8,400,,,
trial,html.Screen,4_146_0,2023-09-08T19:52:54.585Z,,0,3,,2719.7399999999907,response,ISIC_1672821.JPG,5,ISIC_0031548.JPG,ISIC_1672821.JPG,false,1,keypress(m),500,451135,451135,448415,448417,448415.26,451135.04,8,400,47,,ISIC_0031548.JPG
break,html.Screen,4_146_1,2023-09-08T19:52:54.586Z,,0,,,NaN,,,,,,false,,,,451136,451136,,451135,,451135.04,8,400,,,
break_continue,html.Screen,4_146_2,2023-09-08T19:52:54.586Z,,0,,,NaN,,,,,,false,,,,451136,451136,,451136,,451135.04,8,400,,,
sequence,flow.Sequence,4_146,2023-09-08T19:52:54.586Z,,0,,,2720.7399999999907,completion,,,,,false,,,,451136,451136,448415,448417,448415.26,451135.04,8,400,,,
trial,html.Screen,4_147_0,2023-09-08T19:52:57.241Z,,0,3,,2655.960000000021,response,ISIC_4362713.JPG,6,ISIC_4678416.JPG,ISIC_4678416.JPG,false,0,keypress(z),500,453791,453791,451134.84,451136,451135.04,453794.24,8,400,48,,ISIC_4362713.JPG
break,html.Screen,4_147_1,2023-09-08T19:52:57.242Z,,0,,,NaN,,,,,,false,,,,453791,453791,,453791,,453794.24,8,400,,,
break_continue,html.Screen,4_147_2,2023-09-08T19:52:57.242Z,,0,,,NaN,,,,,,false,,,,453792,453792,,453791,,453794.24,8,400,,,
sequence,flow.Sequence,4_147,2023-09-08T19:52:57.243Z,,0,,,2656.960000000021,completion,,,,,false,,,,453792,453792,451134.84,451136,451135.04,453794.24,8,400,,,
trial,html.Screen,4_148_0,2023-09-08T19:52:59.934Z,,0,3,,2687.7600000000093,response,ISIC_0058508.JPG,9,ISIC_0059506.JPG,ISIC_0058508.JPG,false,1,keypress(m),500,456483,456482,453790.82,453792,453794.24,456483.72,8,400,49,,ISIC_0059506.JPG
break,html.Screen,4_148_1,2023-09-08T19:52:59.935Z,,0,,,NaN,,,,,,false,,,,456484,456484,,456483,,456483.72,8,400,,,
break_continue,html.Screen,4_148_2,2023-09-08T19:52:59.936Z,,0,,,NaN,,,,,,false,,,,456485,456485,,456484,,456483.72,8,400,,,
sequence,flow.Sequence,4_148,2023-09-08T19:52:59.936Z,,0,,,2690.7600000000093,completion,,,,,false,,,,456485,456485,453790.82,453792,453794.24,456483.72,8,400,,,
trial,html.Screen,4_149_0,2023-09-08T19:53:02.543Z,,0,3,,2607.280000000028,response,ISIC_7400458.JPG,3,ISIC_0026544.JPG,ISIC_0026544.JPG,false,0,keypress(z),500,459091,459091,456483.28,456485,456483.72,459094.46,8,400,50,,ISIC_7400458.JPG
break,html.Screen,4_149_1,2023-09-08T19:53:12.965Z,,0,,,11430.139999999956,timeout,,,,,false,,,,469514,469513.18,459091.7,459091,459094.46,470524.6,8,400,,,
break_continue,html.Screen,4_149_2,2023-09-08T19:53:15.802Z,,0,,,1804.4000000000233,response,,,,,false,continue,keypress(Space),,472351,472329,469513.18,469514,470524.6,472354.12,8,400,,,
sequence,flow.Sequence,4_149,2023-09-08T19:53:15.802Z,,0,,,15845.280000000028,completion,,,,,false,,,,472351,472329,456483.28,456485,456483.72,472354.12,8,400,,,
trial,html.Screen,4_150_0,2023-09-08T19:53:18.327Z,,0,4,,2522.8800000000047,response,ISIC_1911193.JPG,14,ISIC_0029163.JPG,ISIC_1911193.JPG,false,1,keypress(m),500,474877,474877,472351.58,472351,472354.12,474880.04,8,400,1,,ISIC_0029163.JPG
break,html.Screen,4_150_1,2023-09-08T19:53:18.329Z,,0,,,NaN,,,,,,false,,,,474878,474878,,474877,,474880.04,8,400,,,
break_continue,html.Screen,4_150_2,2023-09-08T19:53:18.329Z,,0,,,NaN,,,,,,false,,,,474878,474878,,474878,,474880.04,8,400,,,
