sender,sender_type,sender_id,timestamp,meta,,blockNo,condition,duration,ended_on,img_left,img_reveal,img_right,loser,practice,response,response_action,selection_duration,time_commit,time_end,time_render,time_run,time_show,time_switch,total_blocks,total_trials,trialNo,url,winner
informed_consent,html.Screen,0,2023-05-01T21:59:19.067Z,"{""labjs_version"":""20.2.4"",""labjs_build"":{""flavor"":""production"",""commit"":""f5b4a49f956347addd546a832a3327688c2c0fef""},""location"":""https://run.pavlovia.org/MurrayBennett/melanoma-2afc/?participant=65562"",""userAgent"":""Mozilla/5.0 (Windows NT 10.0; Win64; x64) AppleWebKit/537.36 (KHTML, like Gecko) Chrome/112.0.0.0 Safari/537.36"",""platform"":""Win32"",""language"":""en-US"",""locale"":""en-US"",""timeZone"":""America/Chicago"",""timezoneOffset"":300,""screen_width"":1280,""screen_height"":720,""scroll_width"":1280,""scroll_height"":568,""window_innerWidth"":1280,""window_innerHeight"":616,""devicePixelRatio"":1.5}",,,,18530.56400000894,response,,,,,,consent,click button,,22174.20000000298,22172.10000000894,3624.87,3631.7000000029802,3641.536,22197.118,,,,"{""participant"":""65562""}",
Welcome,html.Screen,1,2023-05-01T21:59:19.463Z,,,,irregular,372.2820000059619,response,,,,,,continue,click button,,22570.5,22569.40000000596,22180.458,22174.5,22197.118,22580.629,,,,,
trial,html.Screen,2_0_0,2023-05-01T21:59:30.962Z,,0,0,,11520.131000000001,timeout,ISIC_0061792.JPG,,ISIC_4679428.JPG,,true,,,500,34069,34068.5,22563.904,22570.80000001192,22580.629,34100.76,1,6,1,,
sequence,flow.Sequence,2_0,2023-05-01T21:59:30.962Z,,0,,,11487.871,completion,,,,,true,,,,34069.70000000298,34068.5,22563.904,22570.70000000298,22580.629,34100.76,1,6,,,
trial,html.Screen,2_1_0,2023-05-01T21:59:37.709Z,,0,0,,6711.840000008939,response,ISIC_0776486.JPG,,ISIC_5199497.JPG,ISIC_0776486.JPG,true,1,keypress(m),500,40812.80000001192,40812.60000000894,34084,34070,34100.76,40819.394,1,6,2,,ISIC_5199497.JPG
sequence,flow.Sequence,2_1,2023-05-01T21:59:37.709Z,,0,,,6711.840000008939,completion,,,,,true,,,,40813.10000000894,40812.60000000894,34084,34069.90000000596,34100.76,40819.394,1,6,,,
trial,html.Screen,2_2_0,2023-05-01T21:59:43.600Z,,0,0,,5884.30600000298,response,ISIC_2556187.JPG,,ISIC_8575776.JPG,ISIC_8575776.JPG,true,0,keypress(z),500,46703.80000001192,46703.70000000298,40802.855,40813.20000000298,40819.394,46721.193,1,6,3,,ISIC_2556187.JPG
sequence,flow.Sequence,2_2,2023-05-01T21:59:43.600Z,,0,,,5884.30600000298,completion,,,,,true,,,,46704.10000000894,46703.70000000298,40802.855,40813.20000000298,40819.394,46721.193,1,6,,,
trial,html.Screen,2_3_0,2023-05-01T21:59:47.110Z,,0,0,,3492.507000002981,response,ISIC_8141769.JPG,,ISIC_9238366.JPG,ISIC_9238366.JPG,true,0,keypress(z),500,50213.90000000596,50213.70000000298,46704.552,46704.20000000298,46721.193,50222.201,1,6,4,,ISIC_8141769.JPG
sequence,flow.Sequence,2_3,2023-05-01T21:59:47.110Z,,0,,,3492.507000002981,completion,,,,,true,,,,50214.10000000894,50213.70000000298,46704.552,46704.20000000298,46721.193,50222.201,1,6,,,
trial,html.Screen,2_4_0,2023-05-01T21:59:50.301Z,,0,0,,3182.3990000089398,response,ISIC_8949026.JPG,,ISIC_9959593.JPG,ISIC_8949026.JPG,true,1,keypress(m),500,53404.90000000596,53404.60000000894,50205.633,50214.20000000298,50222.201,53437.51,1,6,5,,ISIC_9959593.JPG
sequence,flow.Sequence,2_4,2023-05-01T21:59:50.301Z,,0,,,3182.3990000089398,completion,,,,,true,,,,53405.20000000298,53404.60000000894,50205.633,50214.20000000298,50222.201,53437.51,1,6,,,
trial,html.Screen,2_5_0,2023-05-01T21:59:53.300Z,,0,0,,2965.989999999998,response,ISIC_0010479.JPG,,ISIC_0460240.JPG,ISIC_0460240.JPG,true,0,keypress(z),500,56403.90000000596,56403.5,53389.802,53405.40000000596,53437.51,56407.444,1,6,6,,ISIC_0010479.JPG
sequence,flow.Sequence,2_5,2023-05-01T21:59:53.300Z,,0,,,2965.989999999998,completion,,,,,true,,,,56404.30000001192,56403.5,53389.802,53405.30000001192,53437.51,56407.444,1,6,,,
loop,flow.Loop,2,2023-05-01T21:59:53.301Z,,,,,33822.871,completion,,,,,true,,,,56404.60000000894,56403.5,22563.904,22570.70000000298,22580.629,56407.444,1,6,,,
exp_instructions,html.Screen,3,2023-05-01T21:59:58.218Z,,,,,4914.256000002977,response,,,,,,continue,keypress(Space),,61322.40000000596,61321.70000000298,56390.902,56404.80000001192,56407.444,61325.571,,,,,
trial,html.Screen,4_0_0,2023-05-01T22:00:01.174Z,,0,1,,2951.9289999999964,response,ISIC_0025970.JPG,,ISIC_6520237.JPG,ISIC_6520237.JPG,false,0,keypress(z),500,64277.70000000298,64277.5,61308.552,61322.70000000298,61325.571,64293.137,8,400,1,,ISIC_0025970.JPG
break,html.Screen,4_0_1,2023-05-01T22:00:01.175Z,,0,,,NaN,,,,,,false,,,,64278.90000000596,64278.60000000894,,64277.90000000596,,64293.137,8,400,,,
break_continue,html.Screen,4_0_2,2023-05-01T22:00:01.175Z,,0,,,NaN,,,,,,false,,,,64279.40000000596,64279.30000001192,,64279,,64293.137,8,400,,,
sequence,flow.Sequence,4_0,2023-05-01T22:00:01.176Z,,0,,,2953.7290000119174,completion,,,,,false,,,,64279.5,64279.30000001192,61308.552,61322.60000000894,61325.571,64293.137,8,400,,,
trial,html.Screen,4_1_0,2023-05-01T22:00:05.219Z,,0,1,,4029.263000005958,response,ISIC_0024513.JPG,,ISIC_0014428.JPG,ISIC_0024513.JPG,false,1,keypress(m),500,68322.60000000894,68322.40000000596,64276.436,64279.60000000894,64293.137,68327.698,8,400,2,,ISIC_0014428.JPG
break,html.Screen,4_1_1,2023-05-01T22:00:05.220Z,,0,,,NaN,,,,,,false,,,,68323.60000000894,68323.40000000596,,68322.80000001192,,68327.698,8,400,,,
break_continue,html.Screen,4_1_2,2023-05-01T22:00:05.220Z,,0,,,NaN,,,,,,false,,,,68324.10000000894,68324,,68323.80000001192,,68327.698,8,400,,,
sequence,flow.Sequence,4_1,2023-05-01T22:00:05.220Z,,0,,,4030.8629999999976,completion,,,,,false,,,,68324.20000000298,68324,64276.436,64279.60000000894,64293.137,68327.698,8,400,,,
trial,html.Screen,4_2_0,2023-05-01T22:00:09.017Z,,0,1,,3793.2020000059565,response,ISIC_0033369.JPG,,ISIC_7466175.JPG,ISIC_7466175.JPG,false,0,keypress(z),500,72121.10000000894,72120.90000000596,68311.032,68324.30000001192,68327.698,72128.811,8,400,3,,ISIC_0033369.JPG
break,html.Screen,4_2_1,2023-05-01T22:00:09.018Z,,0,,,NaN,,,,,,false,,,,72122.30000001192,72122,,72121.30000001192,,72128.811,8,400,,,
break_continue,html.Screen,4_2_2,2023-05-01T22:00:09.019Z,,0,,,NaN,,,,,,false,,,,72122.70000000298,72122.60000000894,,72122.40000000596,,72128.811,8,400,,,
sequence,flow.Sequence,4_2,2023-05-01T22:00:09.019Z,,0,,,3794.9020000089367,completion,,,,,false,,,,72122.90000000596,72122.60000000894,68311.032,68324.20000000298,68327.698,72128.811,8,400,,,
trial,html.Screen,4_3_0,2023-05-01T22:00:12.477Z,,0,1,,3451.9890000119194,response,ISIC_4955457.JPG,,ISIC_5840341.JPG,ISIC_4955457.JPG,false,1,keypress(m),500,75581.20000000298,75580.80000001192,72112.189,72123,72128.811,75596.565,8,400,4,,ISIC_5840341.JPG
break,html.Screen,4_3_1,2023-05-01T22:00:12.478Z,,0,,,NaN,,,,,,false,,,,75582.30000001192,75582,,75581.30000001192,,75596.565,8,400,,,
break_continue,html.Screen,4_3_2,2023-05-01T22:00:12.479Z,,0,,,NaN,,,,,,false,,,,75582.70000000298,75582.60000000894,,75582.40000000596,,75596.565,8,400,,,
sequence,flow.Sequence,4_3,2023-05-01T22:00:12.479Z,,0,,,3453.789000008939,completion,,,,,false,,,,75582.80000001192,75582.60000000894,72112.189,72123,72128.811,75596.565,8,400,,,
trial,html.Screen,4_4_0,2023-05-01T22:00:15.580Z,,0,1,,3087.2350000119186,response,ISIC_0024894.JPG,,ISIC_9337570.JPG,ISIC_9337570.JPG,false,0,keypress(z),500,78684.10000000894,78683.80000001192,75579.912,75583,75596.565,78697.518,8,400,5,,ISIC_0024894.JPG
break,html.Screen,4_4_1,2023-05-01T22:00:15.581Z,,0,,,NaN,,,,,,false,,,,78685.10000000894,78684.80000001192,,78684.40000000596,,78697.518,8,400,,,
break_continue,html.Screen,4_4_2,2023-05-01T22:00:15.582Z,,0,,,NaN,,,,,,false,,,,78685.60000000894,78685.40000000596,,78685.20000000298,,78697.518,8,400,,,
sequence,flow.Sequence,4_4,2023-05-01T22:00:15.582Z,,0,,,3088.835000005958,completion,,,,,false,,,,78685.60000000894,78685.40000000596,75579.912,75583,75596.565,78697.518,8,400,,,
trial,html.Screen,4_5_0,2023-05-01T22:00:19.741Z,,0,1,,4147.482000000004,response,ISIC_5536710.JPG,,ISIC_8773962.JPG,ISIC_8773962.JPG,false,0,keypress(z),500,82845.20000000298,82845,78680.816,78685.80000001192,78697.518,82848.763,8,400,6,,ISIC_5536710.JPG
break,html.Screen,4_5_1,2023-05-01T22:00:19.742Z,,0,,,NaN,,,,,,false,,,,82846.30000001192,82846,,82845.40000000596,,82848.763,8,400,,,
break_continue,html.Screen,4_5_2,2023-05-01T22:00:19.743Z,,0,,,NaN,,,,,,false,,,,82846.60000000894,82846.5,,82846.30000001192,,82848.763,8,400,,,
sequence,flow.Sequence,4_5,2023-05-01T22:00:19.743Z,,0,,,4148.982000000004,completion,,,,,false,,,,82846.80000001192,82846.5,78680.816,78685.80000001192,78697.518,82848.763,8,400,,,
trial,html.Screen,4_6_0,2023-05-01T22:00:22.821Z,,0,1,,3076.137000005954,response,ISIC_8035608.JPG,,ISIC_0055287.JPG,ISIC_8035608.JPG,false,1,keypress(m),500,85925.10000000894,85924.90000000596,82832.103,82846.90000000596,82848.763,85933.042,8,400,7,,ISIC_0055287.JPG
break,html.Screen,4_6_1,2023-05-01T22:00:22.823Z,,0,,,NaN,,,,,,false,,,,85926.5,85926,,85925.30000001192,,85933.042,8,400,,,
break_continue,html.Screen,4_6_2,2023-05-01T22:00:22.823Z,,0,,,NaN,,,,,,false,,,,85927.10000000894,85926.90000000596,,85926.60000000894,,85933.042,8,400,,,
sequence,flow.Sequence,4_6,2023-05-01T22:00:22.823Z,,0,,,3078.137000005954,completion,,,,,false,,,,85927.30000001192,85926.90000000596,82832.103,82846.90000000596,82848.763,85933.042,8,400,,,
trial,html.Screen,4_7_0,2023-05-01T22:00:25.434Z,,0,1,,2604.4579999999987,response,ISIC_5233769.JPG,,ISIC_0063168.JPG,ISIC_5233769.JPG,false,1,keypress(m),500,88537.70000000298,88537.5,85916.417,85927.5,85933.042,88550.476,8,400,8,,ISIC_0063168.JPG
break,html.Screen,4_7_1,2023-05-01T22:00:25.435Z,,0,,,NaN,,,,,,false,,,,88538.80000001192,88538.5,,88537.90000000596,,88550.476,8,400,,,
break_continue,html.Screen,4_7_2,2023-05-01T22:00:25.435Z,,0,,,NaN,,,,,,false,,,,88539.30000001192,88539.20000000298,,88538.90000000596,,88550.476,8,400,,,
sequence,flow.Sequence,4_7,2023-05-01T22:00:25.436Z,,0,,,2606.158000002979,completion,,,,,false,,,,88539.5,88539.20000000298,85916.417,85927.40000000596,85933.042,88550.476,8,400,,,
trial,html.Screen,4_8_0,2023-05-01T22:00:28.524Z,,0,1,,3077.224000002985,response,ISIC_0010723.JPG,,ISIC_9027622.JPG,ISIC_9027622.JPG,false,0,keypress(z),500,91627.90000000596,91627.70000000298,88533.825,88539.70000000298,88550.476,91634.729,8,400,9,,ISIC_0010723.JPG
break,html.Screen,4_8_1,2023-05-01T22:00:28.525Z,,0,,,NaN,,,,,,false,,,,91628.80000001192,91628.5,,91628,,91634.729,8,400,,,
break_continue,html.Screen,4_8_2,2023-05-01T22:00:28.525Z,,0,,,NaN,,,,,,false,,,,91629.30000001192,91629.20000000298,,91628.90000000596,,91634.729,8,400,,,
sequence,flow.Sequence,4_8,2023-05-01T22:00:28.526Z,,0,,,3078.724000002985,completion,,,,,false,,,,91629.40000000596,91629.20000000298,88533.825,88539.70000000298,88550.476,91634.729,8,400,,,
trial,html.Screen,4_9_0,2023-05-01T22:00:31.164Z,,0,1,,2633.2709999999934,response,ISIC_7972996.JPG,,ISIC_0014229.JPG,ISIC_7972996.JPG,false,1,keypress(m),500,94268.30000001192,94268,91618.138,91629.60000000894,91634.729,94285.541,8,400,10,,ISIC_0014229.JPG
break,html.Screen,4_9_1,2023-05-01T22:00:31.165Z,,0,,,NaN,,,,,,false,,,,94269.40000000596,94269,,94268.5,,94285.541,8,400,,,
break_continue,html.Screen,4_9_2,2023-05-01T22:00:31.166Z,,0,,,NaN,,,,,,false,,,,94269.80000001192,94269.70000000298,,94269.5,,94285.541,8,400,,,
sequence,flow.Sequence,4_9,2023-05-01T22:00:31.166Z,,0,,,2634.9710000029736,completion,,,,,false,,,,94269.90000000596,94269.70000000298,91618.138,91629.60000000894,91634.729,94285.541,8,400,,,
trial,html.Screen,4_10_0,2023-05-01T22:00:34.173Z,,0,1,,2991.159000002983,response,ISIC_0060342.JPG,,ISIC_9034574.JPG,ISIC_9034574.JPG,false,0,keypress(z),500,97276.90000000596,97276.70000000298,94268.86,94270.10000000894,94285.541,97286.399,8,400,11,,ISIC_0060342.JPG
break,html.Screen,4_10_1,2023-05-01T22:00:34.174Z,,0,,,NaN,,,,,,false,,,,97277.90000000596,97277.5,,97277.10000000894,,97286.399,8,400,,,
break_continue,html.Screen,4_10_2,2023-05-01T22:00:34.174Z,,0,,,NaN,,,,,,false,,,,97278.40000000596,97278.20000000298,,97278,,97286.399,8,400,,,
sequence,flow.Sequence,4_10,2023-05-01T22:00:34.174Z,,0,,,2992.659000002983,completion,,,,,false,,,,97278.5,97278.20000000298,94268.86,94270,94285.541,97286.399,8,400,,,
trial,html.Screen,4_11_0,2023-05-01T22:00:36.916Z,,0,1,,2733.3010000029753,response,ISIC_3416107.JPG,,ISIC_2698722.JPG,ISIC_2698722.JPG,false,0,keypress(z),500,100019.90000000596,100019.70000000298,97269.816,97278.70000000298,97286.399,100037.297,8,400,12,,ISIC_3416107.JPG
break,html.Screen,4_11_1,2023-05-01T22:00:36.917Z,,0,,,NaN,,,,,,false,,,,100021,100020.70000000298,,100020.10000000894,,100037.297,8,400,,,
break_continue,html.Screen,4_11_2,2023-05-01T22:00:36.917Z,,0,,,NaN,,,,,,false,,,,100021.40000000596,100021.30000001192,,100021.10000000894,,100037.297,8,400,,,
sequence,flow.Sequence,4_11,2023-05-01T22:00:36.917Z,,0,,,2734.901000011916,completion,,,,,false,,,,100021.60000000894,100021.30000001192,97269.816,97278.60000000894,97286.399,100037.297,8,400,,,
trial,html.Screen,4_12_0,2023-05-01T22:00:40.263Z,,0,1,,3329.503000011915,response,ISIC_6767569.JPG,,ISIC_6544382.JPG,ISIC_6544382.JPG,false,0,keypress(z),500,103367,103366.80000001192,100020.6,100021.70000000298,100037.297,103371.623,8,400,13,,ISIC_6767569.JPG
break,html.Screen,4_12_1,2023-05-01T22:00:40.263Z,,0,,,NaN,,,,,,false,,,,103367.70000000298,103367.5,,103367.10000000894,,103371.623,8,400,,,
break_continue,html.Screen,4_12_2,2023-05-01T22:00:40.264Z,,0,,,NaN,,,,,,false,,,,103368.10000000894,103368,,103367.80000001192,,103371.623,8,400,,,
sequence,flow.Sequence,4_12,2023-05-01T22:00:40.264Z,,0,,,3330.702999999994,completion,,,,,false,,,,103368.20000000298,103368,100020.6,100021.70000000298,100037.297,103371.623,8,400,,,
trial,html.Screen,4_13_0,2023-05-01T22:00:42.925Z,,0,1,,2657.177000011914,response,ISIC_0014912.JPG,,ISIC_0061630.JPG,ISIC_0061630.JPG,false,0,keypress(z),500,106029.20000000298,106028.80000001192,103354.965,103368.30000001192,103371.623,106039.079,8,400,14,,ISIC_0014912.JPG
break,html.Screen,4_13_1,2023-05-01T22:00:42.926Z,,0,,,NaN,,,,,,false,,,,106030.60000000894,106030.20000000298,,106029.5,,106039.079,8,400,,,
break_continue,html.Screen,4_13_2,2023-05-01T22:00:42.927Z,,0,,,NaN,,,,,,false,,,,106031.10000000894,106031,,106030.80000001192,,106039.079,8,400,,,
sequence,flow.Sequence,4_13,2023-05-01T22:00:42.927Z,,0,,,2659.376999999993,completion,,,,,false,,,,106031.40000000596,106031,103354.965,103368.30000001192,103371.623,106039.079,8,400,,,
trial,html.Screen,4_14_0,2023-05-01T22:00:45.486Z,,0,1,,2551.421000000002,response,ISIC_3277722.JPG,,ISIC_1059525.JPG,ISIC_1059525.JPG,false,0,keypress(z),500,108590.70000000298,108590.5,106022.474,106031.5,106039.079,108606.555,8,400,15,,ISIC_3277722.JPG
break,html.Screen,4_14_1,2023-05-01T22:00:45.487Z,,0,,,NaN,,,,,,false,,,,108591.60000000894,108591.40000000596,,108590.90000000596,,108606.555,8,400,,,
break_continue,html.Screen,4_14_2,2023-05-01T22:00:45.488Z,,0,,,NaN,,,,,,false,,,,108592,108591.90000000596,,108591.70000000298,,108606.555,8,400,,,
sequence,flow.Sequence,4_14,2023-05-01T22:00:45.488Z,,0,,,2552.8210000059626,completion,,,,,false,,,,108592.20000000298,108591.90000000596,106022.474,106031.5,106039.079,108606.555,8,400,,,
trial,html.Screen,4_15_0,2023-05-01T22:00:47.937Z,,0,1,,2434.145000002987,response,ISIC_9152137.JPG,,ISIC_2396791.JPG,ISIC_9152137.JPG,false,1,keypress(m),500,111041,111040.70000000298,108589.894,108592.30000001192,108606.555,111057.478,8,400,16,,ISIC_2396791.JPG
break,html.Screen,4_15_1,2023-05-01T22:00:47.938Z,,0,,,NaN,,,,,,false,,,,111041.80000001192,111041.60000000894,,111041.20000000298,,111057.478,8,400,,,
break_continue,html.Screen,4_15_2,2023-05-01T22:00:47.938Z,,0,,,NaN,,,,,,false,,,,111042.30000001192,111042.20000000298,,111042,,111057.478,8,400,,,
sequence,flow.Sequence,4_15,2023-05-01T22:00:47.938Z,,0,,,2435.645000002987,completion,,,,,false,,,,111042.5,111042.20000000298,108589.894,108592.20000000298,108606.555,111057.478,8,400,,,
trial,html.Screen,4_16_0,2023-05-01T22:00:50.520Z,,0,1,,2566.322000011918,response,ISIC_0058418.JPG,,ISIC_0025970.JPG,ISIC_0058418.JPG,false,1,keypress(m),500,113624,113623.80000001192,111040.607,111042.60000000894,111057.478,113624.701,8,400,17,,ISIC_0025970.JPG
break,html.Screen,4_16_1,2023-05-01T22:00:50.521Z,,0,,,NaN,,,,,,false,,,,113624.90000000596,113624.70000000298,,113624.20000000298,,113624.701,8,400,,,
break_continue,html.Screen,4_16_2,2023-05-01T22:00:50.521Z,,0,,,NaN,,,,,,false,,,,113625.20000000298,113625.10000000894,,113624.90000000596,,113624.701,8,400,,,
sequence,flow.Sequence,4_16,2023-05-01T22:00:50.521Z,,0,,,2567.622000008938,completion,,,,,false,,,,113625.40000000596,113625.10000000894,111040.607,111042.60000000894,111057.478,113624.701,8,400,,,
trial,html.Screen,4_17_0,2023-05-01T22:00:52.900Z,,0,1,,2379.1990000059595,response,ISIC_4034244.JPG,,ISIC_9470876.JPG,ISIC_9470876.JPG,false,0,keypress(z),500,116004.10000000894,116003.90000000596,113608.032,113625.5,113624.701,116025.456,8,400,18,,ISIC_4034244.JPG
break,html.Screen,4_17_1,2023-05-01T22:00:52.901Z,,0,,,NaN,,,,,,false,,,,116005,116004.80000001192,,116004.30000001192,,116025.456,8,400,,,
break_continue,html.Screen,4_17_2,2023-05-01T22:00:52.901Z,,0,,,NaN,,,,,,false,,,,116005.5,116005.40000000596,,116005.20000000298,,116025.456,8,400,,,
sequence,flow.Sequence,4_17,2023-05-01T22:00:52.901Z,,0,,,2380.6990000059595,completion,,,,,false,,,,116005.70000000298,116005.40000000596,113608.032,113625.5,113624.701,116025.456,8,400,,,
trial,html.Screen,4_18_0,2023-05-01T22:00:55.384Z,,0,1,,2462.144000008935,response,ISIC_4998826.JPG,,ISIC_8001757.JPG,ISIC_4998826.JPG,false,1,keypress(m),500,118487.90000000596,118487.60000000894,116008.79,116005.80000001192,116025.456,118509.522,8,400,19,,ISIC_8001757.JPG
break,html.Screen,4_18_1,2023-05-01T22:00:55.385Z,,0,,,NaN,,,,,,false,,,,118488.90000000596,118488.5,,118488,,118509.522,8,400,,,
break_continue,html.Screen,4_18_2,2023-05-01T22:00:55.385Z,,0,,,NaN,,,,,,false,,,,118489.40000000596,118489.30000001192,,118489,,118509.522,8,400,,,
sequence,flow.Sequence,4_18,2023-05-01T22:00:55.385Z,,0,,,2463.8440000119153,completion,,,,,false,,,,118489.60000000894,118489.30000001192,116008.79,116005.80000001192,116025.456,118509.522,8,400,,,
trial,html.Screen,4_19_0,2023-05-01T22:00:58.237Z,,0,1,,2831.0780000089435,response,ISIC_2219050.JPG,,ISIC_0014186.JPG,ISIC_0014186.JPG,false,0,keypress(z),500,121340.90000000596,121340.60000000894,118492.85,118489.70000000298,118509.522,121343.717,8,400,20,,ISIC_2219050.JPG
break,html.Screen,4_19_1,2023-05-01T22:00:58.238Z,,0,,,NaN,,,,,,false,,,,121341.80000001192,121341.60000000894,,121341.10000000894,,121343.717,8,400,,,
break_continue,html.Screen,4_19_2,2023-05-01T22:00:58.238Z,,0,,,NaN,,,,,,false,,,,121342.30000001192,121342.20000000298,,121342,,121343.717,8,400,,,
sequence,flow.Sequence,4_19,2023-05-01T22:00:58.238Z,,0,,,2832.678000002983,completion,,,,,false,,,,121342.5,121342.20000000298,118492.85,118489.70000000298,118509.522,121343.717,8,400,,,
trial,html.Screen,4_20_0,2023-05-01T22:01:00.689Z,,0,1,,2449.1830000059563,response,ISIC_0054134.JPG,,ISIC_0030101.JPG,ISIC_0030101.JPG,false,0,keypress(z),500,123793.10000000894,123792.90000000596,121327.036,121342.60000000894,121343.717,123818.121,8,400,21,,ISIC_0054134.JPG
break,html.Screen,4_20_1,2023-05-01T22:01:00.690Z,,0,,,NaN,,,,,,false,,,,123793.90000000596,123793.70000000298,,123793.30000001192,,123818.121,8,400,,,
break_continue,html.Screen,4_20_2,2023-05-01T22:01:00.690Z,,0,,,NaN,,,,,,false,,,,123794.20000000298,123794.20000000298,,123794,,123818.121,8,400,,,
sequence,flow.Sequence,4_20,2023-05-01T22:01:00.690Z,,0,,,2450.483000002976,completion,,,,,false,,,,123794.40000000596,123794.20000000298,121327.036,121342.60000000894,121343.717,123818.121,8,400,,,
trial,html.Screen,4_21_0,2023-05-01T22:01:03.139Z,,0,1,,2424.4790000089415,response,ISIC_8207162.JPG,,ISIC_0062702.JPG,ISIC_8207162.JPG,false,1,keypress(m),500,126242.80000001192,126242.60000000894,123777.795,123794.5,123818.121,126261.851,8,400,22,,ISIC_0062702.JPG
break,html.Screen,4_21_1,2023-05-01T22:01:03.139Z,,0,,,NaN,,,,,,false,,,,126243.70000000298,126243.5,,126243,,126261.851,8,400,,,
break_continue,html.Screen,4_21_2,2023-05-01T22:01:03.140Z,,0,,,NaN,,,,,,false,,,,126244.20000000298,126244.10000000894,,126243.90000000596,,126261.851,8,400,,,
sequence,flow.Sequence,4_21,2023-05-01T22:01:03.140Z,,0,,,2425.9790000089415,completion,,,,,false,,,,126244.40000000596,126244.10000000894,123777.795,123794.40000000596,123818.121,126261.851,8,400,,,
trial,html.Screen,4_22_0,2023-05-01T22:01:05.869Z,,0,1,,2710.849000002985,response,ISIC_0005319.JPG,,ISIC_0011458.JPG,ISIC_0005319.JPG,false,1,keypress(m),500,128972.80000001192,128972.70000000298,126245.183,126244.5,126261.851,128979.369,8,400,23,,ISIC_0011458.JPG
break,html.Screen,4_22_1,2023-05-01T22:01:05.869Z,,0,,,NaN,,,,,,false,,,,128973.60000000894,128973.5,,128973,,128979.369,8,400,,,
break_continue,html.Screen,4_22_2,2023-05-01T22:01:05.870Z,,0,,,NaN,,,,,,false,,,,128974.10000000894,128974,,128973.70000000298,,128979.369,8,400,,,
sequence,flow.Sequence,4_22,2023-05-01T22:01:05.870Z,,0,,,2712.149000000005,completion,,,,,false,,,,128974.20000000298,128974,126245.183,126244.5,126261.851,128979.369,8,400,,,
trial,html.Screen,4_23_0,2023-05-01T22:01:08.544Z,,0,1,,2668.5310000059544,response,ISIC_4509525.JPG,,ISIC_8821700.JPG,ISIC_8821700.JPG,false,0,keypress(z),500,131648.10000000894,131647.90000000596,128962.657,128974.40000000596,128979.369,131663.483,8,400,24,,ISIC_4509525.JPG
break,html.Screen,4_23_1,2023-05-01T22:01:08.545Z,,0,,,NaN,,,,,,false,,,,131648.90000000596,131648.70000000298,,131648.20000000298,,131663.483,8,400,,,
break_continue,html.Screen,4_23_2,2023-05-01T22:01:08.545Z,,0,,,NaN,,,,,,false,,,,131649.40000000596,131649.30000001192,,131649.10000000894,,131663.483,8,400,,,
sequence,flow.Sequence,4_23,2023-05-01T22:01:08.545Z,,0,,,2669.931000011915,completion,,,,,false,,,,131649.60000000894,131649.30000001192,128962.657,128974.40000000596,128979.369,131663.483,8,400,,,
trial,html.Screen,4_24_0,2023-05-01T22:01:10.938Z,,0,1,,2378.6170000089332,response,ISIC_0032993.JPG,,ISIC_0443835.JPG,ISIC_0443835.JPG,false,0,keypress(z),500,134042.30000001192,134042.10000000894,131646.826,131649.60000000894,131663.483,134047.527,8,400,25,,ISIC_0032993.JPG
break,html.Screen,4_24_1,2023-05-01T22:01:10.939Z,,0,,,NaN,,,,,,false,,,,134043.40000000596,134043.10000000894,,134042.60000000894,,134047.527,8,400,,,
break_continue,html.Screen,4_24_2,2023-05-01T22:01:10.940Z,,0,,,NaN,,,,,,false,,,,134043.90000000596,134043.80000001192,,134043.60000000894,,134047.527,8,400,,,
sequence,flow.Sequence,4_24,2023-05-01T22:01:10.940Z,,0,,,2380.3170000119135,completion,,,,,false,,,,134044.20000000298,134043.80000001192,131646.826,131649.60000000894,131663.483,134047.527,8,400,,,
trial,html.Screen,4_25_0,2023-05-01T22:01:13.471Z,,0,1,,2527.273000011919,response,ISIC_0000226.JPG,,ISIC_3319229.JPG,ISIC_0000226.JPG,false,1,keypress(m),500,136575.10000000894,136574.80000001192,134030.876,134044.20000000298,134047.527,136598.313,8,400,26,,ISIC_3319229.JPG
break,html.Screen,4_25_1,2023-05-01T22:01:13.472Z,,0,,,NaN,,,,,,false,,,,136576.40000000596,136575.90000000596,,136575.30000001192,,136598.313,8,400,,,
break_continue,html.Screen,4_25_2,2023-05-01T22:01:13.473Z,,0,,,NaN,,,,,,false,,,,136577,136576.70000000298,,136576.5,,136598.313,8,400,,,
sequence,flow.Sequence,4_25,2023-05-01T22:01:13.473Z,,0,,,2529.1730000029784,completion,,,,,false,,,,136577.10000000894,136576.70000000298,134030.876,134044.20000000298,134047.527,136598.313,8,400,,,
trial,html.Screen,4_26_0,2023-05-01T22:01:16.461Z,,0,1,,2966.287000008946,response,ISIC_9626241.JPG,,ISIC_0250064.JPG,ISIC_0250064.JPG,false,0,keypress(z),500,139564.90000000596,139564.60000000894,136581.647,136577.30000001192,136598.313,139589.224,8,400,27,,ISIC_9626241.JPG
break,html.Screen,4_26_1,2023-05-01T22:01:16.462Z,,0,,,NaN,,,,,,false,,,,139565.80000001192,139565.5,,139565.10000000894,,139589.224,8,400,,,
break_continue,html.Screen,4_26_2,2023-05-01T22:01:16.462Z,,0,,,NaN,,,,,,false,,,,139566.30000001192,139566.20000000298,,139566,,139589.224,8,400,,,
sequence,flow.Sequence,4_26,2023-05-01T22:01:16.462Z,,0,,,2967.8870000029856,completion,,,,,false,,,,139566.5,139566.20000000298,136581.647,136577.20000000298,136598.313,139589.224,8,400,,,
trial,html.Screen,4_27_0,2023-05-01T22:01:19.375Z,,0,1,,2890.2760000000126,response,ISIC_6882080.JPG,,ISIC_5789052.JPG,ISIC_6882080.JPG,false,1,keypress(m),500,142479.70000000298,142479.5,139549.201,139566.5,139589.224,142500.112,8,400,28,,ISIC_5789052.JPG
break,html.Screen,4_27_1,2023-05-01T22:01:19.377Z,,0,,,NaN,,,,,,false,,,,142480.80000001192,142480.40000000596,,142479.90000000596,,142500.112,8,400,,,
break_continue,html.Screen,4_27_2,2023-05-01T22:01:19.377Z,,0,,,NaN,,,,,,false,,,,142481.40000000596,142481.30000001192,,142481,,142500.112,8,400,,,
sequence,flow.Sequence,4_27,2023-05-01T22:01:19.377Z,,0,,,2892.0760000119335,completion,,,,,false,,,,142481.70000000298,142481.30000001192,139549.201,139566.5,139589.224,142500.112,8,400,,,
trial,html.Screen,4_28_0,2023-05-01T22:01:21.875Z,,0,1,,2479.188000011927,response,ISIC_0056723.JPG,,ISIC_6001716.JPG,ISIC_6001716.JPG,false,0,keypress(z),500,144979.5,144979.30000001192,142487.66,142481.90000000596,142500.112,144984.177,8,400,29,,ISIC_0056723.JPG
break,html.Screen,4_28_1,2023-05-01T22:01:21.876Z,,0,,,NaN,,,,,,false,,,,144980.5,144980.20000000298,,144979.70000000298,,144984.177,8,400,,,
break_continue,html.Screen,4_28_2,2023-05-01T22:01:21.877Z,,0,,,NaN,,,,,,false,,,,144981,144980.90000000596,,144980.70000000298,,144984.177,8,400,,,
sequence,flow.Sequence,4_28,2023-05-01T22:01:21.877Z,,0,,,2480.7880000059668,completion,,,,,false,,,,144981.20000000298,144980.90000000596,142487.66,142481.80000001192,142500.112,144984.177,8,400,,,
trial,html.Screen,4_29_0,2023-05-01T22:01:24.414Z,,0,1,,2533.7230000059644,response,ISIC_6793603.JPG,,ISIC_0055435.JPG,ISIC_6793603.JPG,false,1,keypress(m),500,147518.10000000894,147517.90000000596,144967.495,144981.30000001192,144984.177,147551.599,8,400,30,,ISIC_0055435.JPG
break,html.Screen,4_29_1,2023-05-01T22:01:24.415Z,,0,,,NaN,,,,,,false,,,,147518.80000001192,147518.60000000894,,147518.20000000298,,147551.599,8,400,,,
break_continue,html.Screen,4_29_2,2023-05-01T22:01:24.415Z,,0,,,NaN,,,,,,false,,,,147519.30000001192,147519.10000000894,,147518.90000000596,,147551.599,8,400,,,
sequence,flow.Sequence,4_29,2023-05-01T22:01:24.415Z,,0,,,2534.9230000089447,completion,,,,,false,,,,147519.40000000596,147519.10000000894,144967.495,144981.30000001192,144984.177,147551.599,8,400,,,
trial,html.Screen,4_30_0,2023-05-01T22:01:26.903Z,,0,1,,2455.4010000000126,response,ISIC_0011950.JPG,,ISIC_3409824.JPG,ISIC_3409824.JPG,false,0,keypress(z),500,150007.40000000596,150007,147534.924,147519.5,147551.599,150035.71,8,400,31,,ISIC_0011950.JPG
break,html.Screen,4_30_1,2023-05-01T22:01:26.905Z,,0,,,NaN,,,,,,false,,,,150009,150008.5,,150007.60000000894,,150035.71,8,400,,,
break_continue,html.Screen,4_30_2,2023-05-01T22:01:26.905Z,,0,,,NaN,,,,,,false,,,,150009.5,150009.40000000596,,150009.20000000298,,150035.71,8,400,,,
sequence,flow.Sequence,4_30,2023-05-01T22:01:26.905Z,,0,,,2457.801000005973,completion,,,,,false,,,,150009.80000001192,150009.40000000596,147534.924,147519.5,147551.599,150035.71,8,400,,,
trial,html.Screen,4_31_0,2023-05-01T22:01:29.298Z,,0,1,,2366.790000000008,response,ISIC_0060629.JPG,,ISIC_0014675.JPG,ISIC_0014675.JPG,false,0,keypress(z),500,152402.60000000894,152402.5,150019.045,150010,150035.71,152419.748,8,400,32,,ISIC_0060629.JPG
break,html.Screen,4_31_1,2023-05-01T22:01:29.299Z,,0,,,NaN,,,,,,false,,,,152403.60000000894,152403.30000001192,,152402.80000001192,,152419.748,8,400,,,
break_continue,html.Screen,4_31_2,2023-05-01T22:01:29.300Z,,0,,,NaN,,,,,,false,,,,152404,152403.90000000596,,152403.80000001192,,152419.748,8,400,,,
sequence,flow.Sequence,4_31,2023-05-01T22:01:29.300Z,,0,,,2368.1900000059686,completion,,,,,false,,,,152404.20000000298,152403.90000000596,150019.045,150009.90000000596,150035.71,152419.748,8,400,,,
trial,html.Screen,4_32_0,2023-05-01T22:01:31.889Z,,0,1,,2572.952000002988,response,ISIC_7728263.JPG,,ISIC_2458253.JPG,ISIC_2458253.JPG,false,0,keypress(z),500,154992.90000000596,154992.70000000298,152403.09,152404.40000000596,152419.748,155020.543,8,400,33,,ISIC_7728263.JPG
break,html.Screen,4_32_1,2023-05-01T22:01:31.890Z,,0,,,NaN,,,,,,false,,,,154993.90000000596,154993.60000000894,,154993.20000000298,,155020.543,8,400,,,
break_continue,html.Screen,4_32_2,2023-05-01T22:01:31.890Z,,0,,,NaN,,,,,,false,,,,154994.30000001192,154994.10000000894,,154994,,155020.543,8,400,,,
sequence,flow.Sequence,4_32,2023-05-01T22:01:31.890Z,,0,,,2574.3520000089484,completion,,,,,false,,,,154994.40000000596,154994.10000000894,152403.09,152404.30000001192,152419.748,155020.543,8,400,,,
trial,html.Screen,4_33_0,2023-05-01T22:01:34.467Z,,0,1,,2552.257000011916,response,ISIC_0061880.JPG,,ISIC_9667908.JPG,ISIC_9667908.JPG,false,0,keypress(z),500,157573,157572.80000001192,155003.85,154994.60000000894,155020.543,157587.972,8,400,34,,ISIC_0061880.JPG
break,html.Screen,4_33_1,2023-05-01T22:01:34.468Z,,0,,,NaN,,,,,,false,,,,157573.90000000596,157573.60000000894,,157573.10000000894,,157587.972,8,400,,,
break_continue,html.Screen,4_33_2,2023-05-01T22:01:34.468Z,,0,,,NaN,,,,,,false,,,,157574.30000001192,157574.20000000298,,157574,,157587.972,8,400,,,
sequence,flow.Sequence,4_33,2023-05-01T22:01:34.469Z,,0,,,2553.657000002975,completion,,,,,false,,,,157574.5,157574.20000000298,155003.85,154994.60000000894,155020.543,157587.972,8,400,,,
trial,html.Screen,4_34_0,2023-05-01T22:01:37.047Z,,0,1,,2565.027999999991,response,ISIC_0046323.JPG,,ISIC_5722914.JPG,ISIC_5722914.JPG,false,0,keypress(z),500,160153.30000001192,160153,157571.277,157574.60000000894,157587.972,160155.423,8,400,35,,ISIC_0046323.JPG
break,html.Screen,4_34_1,2023-05-01T22:01:37.049Z,,0,,,NaN,,,,,,false,,,,160154.5,160154.20000000298,,160153.70000000298,,160155.423,8,400,,,
break_continue,html.Screen,4_34_2,2023-05-01T22:01:37.049Z,,0,,,NaN,,,,,,false,,,,160155,160154.90000000596,,160154.70000000298,,160155.423,8,400,,,
sequence,flow.Sequence,4_34,2023-05-01T22:01:37.049Z,,0,,,2566.9280000059516,completion,,,,,false,,,,160155.20000000298,160154.90000000596,157571.277,157574.60000000894,157587.972,160155.423,8,400,,,
trial,html.Screen,4_35_0,2023-05-01T22:01:39.567Z,,0,1,,2517.177000008931,response,ISIC_4786412.JPG,,ISIC_9626241.JPG,ISIC_4786412.JPG,false,1,keypress(m),500,162672.90000000596,162672.60000000894,160138.708,160155.40000000596,160155.423,162689.49,8,400,36,,ISIC_9626241.JPG
break,html.Screen,4_35_1,2023-05-01T22:01:39.568Z,,0,,,NaN,,,,,,false,,,,162674.10000000894,162673.70000000298,,162673.20000000298,,162689.49,8,400,,,
break_continue,html.Screen,4_35_2,2023-05-01T22:01:39.569Z,,0,,,NaN,,,,,,false,,,,162674.5,162674.5,,162674.30000001192,,162689.49,8,400,,,
sequence,flow.Sequence,4_35,2023-05-01T22:01:39.569Z,,0,,,2519.07699999999,completion,,,,,false,,,,162674.70000000298,162674.5,160138.708,160155.30000001192,160155.423,162689.49,8,400,,,
trial,html.Screen,4_36_0,2023-05-01T22:01:42.485Z,,0,1,,2901.2100000029895,response,ISIC_8979540.JPG,,ISIC_4009870.JPG,ISIC_4009870.JPG,false,0,keypress(z),500,165590.90000000596,165590.70000000298,162672.864,162674.90000000596,162689.49,165607.053,8,400,37,,ISIC_8979540.JPG
break,html.Screen,4_36_1,2023-05-01T22:01:42.486Z,,0,,,NaN,,,,,,false,,,,165591.70000000298,165591.5,,165591.10000000894,,165607.053,8,400,,,
break_continue,html.Screen,4_36_2,2023-05-01T22:01:42.486Z,,0,,,NaN,,,,,,false,,,,165592.10000000894,165591.90000000596,,165591.80000001192,,165607.053,8,400,,,
sequence,flow.Sequence,4_36,2023-05-01T22:01:42.486Z,,0,,,2902.41000000597,completion,,,,,false,,,,165592.20000000298,165591.90000000596,162672.864,162674.90000000596,162689.49,165607.053,8,400,,,
trial,html.Screen,4_37_0,2023-05-01T22:01:45.016Z,,0,1,,2515.0470000089263,response,ISIC_9775430.JPG,,ISIC_0034062.JPG,ISIC_0034062.JPG,false,0,keypress(z),500,168122.40000000596,168122.10000000894,165590.366,165592.30000001192,165607.053,168124.484,8,400,38,,ISIC_9775430.JPG
break,html.Screen,4_37_1,2023-05-01T22:01:45.017Z,,0,,,NaN,,,,,,false,,,,168123.40000000596,168123,,168122.5,,168124.484,8,400,,,
break_continue,html.Screen,4_37_2,2023-05-01T22:01:45.018Z,,0,,,NaN,,,,,,false,,,,168123.80000001192,168123.70000000298,,168123.5,,168124.484,8,400,,,
sequence,flow.Sequence,4_37,2023-05-01T22:01:45.018Z,,0,,,2516.647000002966,completion,,,,,false,,,,168124,168123.70000000298,165590.366,165592.20000000298,165607.053,168124.484,8,400,,,
trial,html.Screen,4_38_0,2023-05-01T22:01:47.640Z,,0,1,,2621.5160000000033,response,ISIC_5248948.JPG,,ISIC_0030300.JPG,ISIC_5248948.JPG,false,1,keypress(m),500,170746.10000000894,170746,168107.749,168124.10000000894,168124.484,170758.622,8,400,39,,ISIC_0030300.JPG
break,html.Screen,4_38_1,2023-05-01T22:01:47.641Z,,0,,,NaN,,,,,,false,,,,170747.30000001192,170746.90000000596,,170746.40000000596,,170758.622,8,400,,,
break_continue,html.Screen,4_38_2,2023-05-01T22:01:47.642Z,,0,,,NaN,,,,,,false,,,,170747.80000001192,170747.60000000894,,170747.40000000596,,170758.622,8,400,,,
sequence,flow.Sequence,4_38,2023-05-01T22:01:47.642Z,,0,,,2623.116000008944,completion,,,,,false,,,,170747.90000000596,170747.60000000894,168107.749,168124.10000000894,168124.484,170758.622,8,400,,,
trial,html.Screen,4_39_0,2023-05-01T22:01:50.479Z,,0,1,,2826.078000002977,response,ISIC_0034065.JPG,,ISIC_0028009.JPG,ISIC_0028009.JPG,false,0,keypress(z),500,173584.80000001192,173584.70000000298,170741.947,170748.10000000894,170758.622,173592.817,8,400,40,,ISIC_0034065.JPG
break,html.Screen,4_39_1,2023-05-01T22:01:50.480Z,,0,,,NaN,,,,,,false,,,,173585.70000000298,173585.40000000596,,173585,,173592.817,8,400,,,
break_continue,html.Screen,4_39_2,2023-05-01T22:01:50.480Z,,0,,,NaN,,,,,,false,,,,173586.20000000298,173586,,173585.80000001192,,173592.817,8,400,,,
sequence,flow.Sequence,4_39,2023-05-01T22:01:50.480Z,,0,,,2827.377999999997,completion,,,,,false,,,,173586.40000000596,173586,170741.947,170748.10000000894,170758.622,173592.817,8,400,,,
trial,html.Screen,4_40_0,2023-05-01T22:01:53.676Z,,0,1,,3188.5830000059505,response,ISIC_0012512.JPG,,ISIC_0765584.JPG,ISIC_0765584.JPG,false,0,keypress(z),500,176781.70000000298,176781.40000000596,173576.141,173586.60000000894,173592.817,176793.762,8,400,41,,ISIC_0012512.JPG
break,html.Screen,4_40_1,2023-05-01T22:01:53.677Z,,0,,,NaN,,,,,,false,,,,176782.80000001192,176782.5,,176781.90000000596,,176793.762,8,400,,,
break_continue,html.Screen,4_40_2,2023-05-01T22:01:53.677Z,,0,,,NaN,,,,,,false,,,,176783.30000001192,176783.20000000298,,176783,,176793.762,8,400,,,
sequence,flow.Sequence,4_40,2023-05-01T22:01:53.678Z,,0,,,3190.38300000297,completion,,,,,false,,,,176783.5,176783.20000000298,173576.141,173586.5,173592.817,176793.762,8,400,,,
trial,html.Screen,4_41_0,2023-05-01T22:01:56.198Z,,0,1,,2509.9380000029923,response,ISIC_0033117.JPG,,ISIC_0056017.JPG,ISIC_0056017.JPG,false,0,keypress(z),500,179303.90000000596,179303.70000000298,176777.127,176783.70000000298,176793.762,179311.188,8,400,42,,ISIC_0033117.JPG
break,html.Screen,4_41_1,2023-05-01T22:01:56.199Z,,0,,,NaN,,,,,,false,,,,179304.90000000596,179304.5,,179304.20000000298,,179311.188,8,400,,,
break_continue,html.Screen,4_41_2,2023-05-01T22:01:56.199Z,,0,,,NaN,,,,,,false,,,,179305.30000001192,179305.20000000298,,179304.90000000596,,179311.188,8,400,,,
sequence,flow.Sequence,4_41,2023-05-01T22:01:56.199Z,,0,,,2511.4380000029923,completion,,,,,false,,,,179305.40000000596,179305.20000000298,176777.127,176783.60000000894,176793.762,179311.188,8,400,,,
trial,html.Screen,4_42_0,2023-05-01T22:01:59.088Z,,0,1,,2882.712000005966,response,ISIC_0072041.JPG,,ISIC_0067953.JPG,ISIC_0072041.JPG,false,1,keypress(m),500,182194.10000000894,182193.90000000596,179294.512,179305.60000000894,179311.188,182218.239,8,400,43,,ISIC_0067953.JPG
break,html.Screen,4_42_1,2023-05-01T22:01:59.089Z,,0,,,NaN,,,,,,false,,,,182195.30000001192,182194.90000000596,,182194.40000000596,,182218.239,8,400,,,
break_continue,html.Screen,4_42_2,2023-05-01T22:01:59.090Z,,0,,,NaN,,,,,,false,,,,182195.90000000596,182195.60000000894,,182195.40000000596,,182218.239,8,400,,,
sequence,flow.Sequence,4_42,2023-05-01T22:01:59.090Z,,0,,,2884.412000008946,completion,,,,,false,,,,182196,182195.60000000894,179294.512,179305.5,179311.188,182218.239,8,400,,,
trial,html.Screen,4_43_0,2023-05-01T22:02:01.651Z,,0,1,,2538.161000005959,response,ISIC_1023354.JPG,,ISIC_0010209.JPG,ISIC_1023354.JPG,false,1,keypress(m),500,184756.60000000894,184756.40000000596,182178.725,182196.30000001192,182218.239,184762.845,8,400,44,,ISIC_0010209.JPG
break,html.Screen,4_43_1,2023-05-01T22:02:01.652Z,,0,,,NaN,,,,,,false,,,,184757.60000000894,184757.30000001192,,184756.70000000298,,184762.845,8,400,,,
break_continue,html.Screen,4_43_2,2023-05-01T22:02:01.652Z,,0,,,NaN,,,,,,false,,,,184758.20000000298,184758.10000000894,,184757.80000001192,,184762.845,8,400,,,
sequence,flow.Sequence,4_43,2023-05-01T22:02:01.652Z,,0,,,2539.8610000089393,completion,,,,,false,,,,184758.40000000596,184758.10000000894,182178.725,182196.20000000298,182218.239,184762.845,8,400,,,
trial,html.Screen,4_44_0,2023-05-01T22:02:04.224Z,,0,1,,2566.7550000089395,response,ISIC_6373689.JPG,,ISIC_8918703.JPG,ISIC_6373689.JPG,false,1,keypress(m),500,187329.70000000298,187329.60000000894,184746.205,184758.5,184762.845,187346.904,8,400,45,,ISIC_8918703.JPG
break,html.Screen,4_44_1,2023-05-01T22:02:04.225Z,,0,,,NaN,,,,,,false,,,,187330.60000000894,187330.30000001192,,187329.90000000596,,187346.904,8,400,,,
break_continue,html.Screen,4_44_2,2023-05-01T22:02:04.225Z,,0,,,NaN,,,,,,false,,,,187331,187330.90000000596,,187330.70000000298,,187346.904,8,400,,,
sequence,flow.Sequence,4_44,2023-05-01T22:02:04.225Z,,0,,,2568.0550000059593,completion,,,,,false,,,,187331.20000000298,187330.90000000596,184746.205,184758.40000000596,184762.845,187346.904,8,400,,,
trial,html.Screen,4_45_0,2023-05-01T22:02:06.975Z,,0,1,,2733.996000005951,response,ISIC_5092834.JPG,,ISIC_0034062.JPG,ISIC_0034062.JPG,false,0,keypress(z),500,190081.10000000894,190080.90000000596,187330.364,187331.30000001192,187346.904,190097.775,8,400,46,,ISIC_5092834.JPG
break,html.Screen,4_45_1,2023-05-01T22:02:06.976Z,,0,,,NaN,,,,,,false,,,,190082,190081.70000000298,,190081.20000000298,,190097.775,8,400,,,
break_continue,html.Screen,4_45_2,2023-05-01T22:02:06.976Z,,0,,,NaN,,,,,,false,,,,190082.40000000596,190082.20000000298,,190082.10000000894,,190097.775,8,400,,,
sequence,flow.Sequence,4_45,2023-05-01T22:02:06.977Z,,0,,,2735.2960000029707,completion,,,,,false,,,,190082.5,190082.20000000298,187330.364,187331.30000001192,187346.904,190097.775,8,400,,,
trial,html.Screen,4_46_0,2023-05-01T22:02:09.462Z,,0,1,,2470.1250000059663,response,ISIC_0009959.JPG,,ISIC_3814807.JPG,ISIC_0009959.JPG,false,1,keypress(m),500,192568.20000000298,192567.90000000596,190081.075,190082.60000000894,190097.775,192581.861,8,400,47,,ISIC_3814807.JPG
break,html.Screen,4_46_1,2023-05-01T22:02:09.463Z,,0,,,NaN,,,,,,false,,,,192569,192568.80000001192,,192568.40000000596,,192581.861,8,400,,,
break_continue,html.Screen,4_46_2,2023-05-01T22:02:09.463Z,,0,,,NaN,,,,,,false,,,,192569.40000000596,192569.30000001192,,192569.10000000894,,192581.861,8,400,,,
sequence,flow.Sequence,4_46,2023-05-01T22:02:09.464Z,,0,,,2471.5250000119267,completion,,,,,false,,,,192569.60000000894,192569.30000001192,190081.075,190082.60000000894,190097.775,192581.861,8,400,,,
trial,html.Screen,4_47_0,2023-05-01T22:02:12.552Z,,0,1,,3075.839000002976,response,ISIC_0010759.JPG,,ISIC_0961235.JPG,ISIC_0010759.JPG,false,1,keypress(m),500,195658,195657.70000000298,192565.177,192569.60000000894,192581.861,195666.186,8,400,48,,ISIC_0961235.JPG
break,html.Screen,4_47_1,2023-05-01T22:02:12.553Z,,0,,,NaN,,,,,,false,,,,195658.70000000298,195658.5,,195658.10000000894,,195666.186,8,400,,,
break_continue,html.Screen,4_47_2,2023-05-01T22:02:12.553Z,,0,,,NaN,,,,,,false,,,,195659,195658.90000000596,,195658.80000001192,,195666.186,8,400,,,
sequence,flow.Sequence,4_47,2023-05-01T22:02:12.553Z,,0,,,3077.039000005956,completion,,,,,false,,,,195659.10000000894,195658.90000000596,192565.177,192569.60000000894,192581.861,195666.186,8,400,,,
trial,html.Screen,4_48_0,2023-05-01T22:02:15.132Z,,0,1,,2571.2140000059735,response,ISIC_0011692.JPG,,ISIC_0010546.JPG,ISIC_0010546.JPG,false,0,keypress(z),500,198237.70000000298,198237.40000000596,195649.479,195659.20000000298,195666.186,198250.269,8,400,49,,ISIC_0011692.JPG
break,html.Screen,4_48_1,2023-05-01T22:02:15.133Z,,0,,,NaN,,,,,,false,,,,198238.5,198238.20000000298,,198237.90000000596,,198250.269,8,400,,,
break_continue,html.Screen,4_48_2,2023-05-01T22:02:15.133Z,,0,,,NaN,,,,,,false,,,,198238.90000000596,198238.80000001192,,198238.60000000894,,198250.269,8,400,,,
sequence,flow.Sequence,4_48,2023-05-01T22:02:15.133Z,,0,,,2572.614000011934,completion,,,,,false,,,,198239,198238.80000001192,195649.479,195659.20000000298,195666.186,198250.269,8,400,,,
trial,html.Screen,4_49_0,2023-05-01T22:02:17.658Z,,0,1,,2513.6310000059602,response,ISIC_9101441.JPG,,ISIC_6111078.JPG,ISIC_6111078.JPG,false,0,keypress(z),500,200764.10000000894,200763.90000000596,198233.553,198239.20000000298,198250.269,200767.66,8,400,50,,ISIC_9101441.JPG
break,html.Screen,4_49_1,2023-05-01T22:02:22.784Z,,0,,,5118.253999999986,timeout,,,,,false,,,,205889.80000001192,205889.20000000298,200750.988,200764.30000001192,200767.66,205885.914,8,400,,,
break_continue,html.Screen,4_49_2,2023-05-01T22:17:49.795Z,,0,,,926990.186000009,response,,,,,false,continue,keypress(Space),,1132898.700000003,1132876.100000009,205889.20000000298,205890.20000000298,205885.914,1132931.297,8,400,,,
sequence,flow.Sequence,4_49,2023-05-01T22:17:49.795Z,,0,,,934625.831000009,completion,,,,,false,,,,1132899.400000006,1132876.100000009,198233.553,198239.20000000298,198250.269,1132931.297,8,400,,,
trial,html.Screen,4_50_0,2023-05-01T22:17:53.577Z,,0,2,,3749.2029999999795,response,ISIC_0781315.JPG,,ISIC_0000065.JPG,ISIC_0781315.JPG,false,1,keypress(m),500,1136680.800000012,1136680.5,1132914.594,1132899.600000009,1132931.297,1136705.958,8,400,1,,ISIC_0000065.JPG
break,html.Screen,4_50_1,2023-05-01T22:17:53.577Z,,0,,,NaN,,,,,,false,,,,1136681.600000009,1136681.400000006,,1136681,,1136705.958,8,400,,,
break_continue,html.Screen,4_50_2,2023-05-01T22:17:53.578Z,,0,,,NaN,,,,,,false,,,,1136681.900000006,1136681.800000012,,1136681.700000003,,1136705.958,8,400,,,
sequence,flow.Sequence,4_50,2023-05-01T22:17:53.578Z,,0,,,3750.5030000119004,completion,,,,,false,,,,1136682.100000009,1136681.800000012,1132914.594,1132899.5,1132931.297,1136705.958,8,400,,,
trial,html.Screen,4_51_0,2023-05-01T22:17:56.087Z,,0,2,,2484.7420000028796,response,ISIC_0053659.JPG,,ISIC_2015441.JPG,ISIC_2015441.JPG,false,0,keypress(z),500,1139191.100000009,1139190.700000003,1136665.711,1136682.200000003,1136705.958,1139199.642,8,400,2,,ISIC_0053659.JPG
break,html.Screen,4_51_1,2023-05-01T22:17:56.089Z,,0,,,NaN,,,,,,false,,,,1139192.600000009,1139192.200000003,,1139191.5,,1139199.642,8,400,,,
break_continue,html.Screen,4_51_2,2023-05-01T22:17:56.089Z,,0,,,NaN,,,,,,false,,,,1139193.400000006,1139193.200000003,,1139192.800000012,,1139199.642,8,400,,,
sequence,flow.Sequence,4_51,2023-05-01T22:17:56.090Z,,0,,,2487.2420000028796,completion,,,,,false,,,,1139193.800000012,1139193.200000003,1136665.711,1136682.200000003,1136705.958,1139199.642,8,400,,,
trial,html.Screen,4_52_0,2023-05-01T22:17:58.811Z,,0,2,,2714.6580000119284,response,ISIC_8246858.JPG,,ISIC_5808758.JPG,ISIC_5808758.JPG,false,0,keypress(z),500,1141914.600000009,1141914.300000012,1139182.922,1139194,1139199.642,1141917.13,8,400,3,,ISIC_8246858.JPG
break,html.Screen,4_52_1,2023-05-01T22:17:58.812Z,,0,,,NaN,,,,,,false,,,,1141916.400000006,1141915.700000003,,1141914.900000006,,1141917.13,8,400,,,
break_continue,html.Screen,4_52_2,2023-05-01T22:17:58.813Z,,0,,,NaN,,,,,,false,,,,1141917.300000012,1141917.100000009,,1141916.700000003,,1141917.13,8,400,,,
sequence,flow.Sequence,4_52,2023-05-01T22:17:58.813Z,,0,,,2717.458000008948,completion,,,,,false,,,,1141917.600000009,1141917.100000009,1139182.922,1139194,1139199.642,1141917.13,8,400,,,
trial,html.Screen,4_53_0,2023-05-01T22:18:01.315Z,,0,2,,2501.770000006072,response,ISIC_8008242.JPG,,ISIC_1306790.JPG,ISIC_8008242.JPG,false,1,keypress(m),500,1144419.200000003,1144418.900000006,1141900.492,1141917.800000012,1141917.13,1144434.789,8,400,4,,ISIC_1306790.JPG
break,html.Screen,4_53_1,2023-05-01T22:18:01.317Z,,0,,,NaN,,,,,,false,,,,1144420.900000006,1144420.400000006,,1144419.600000009,,1144434.789,8,400,,,
break_continue,html.Screen,4_53_2,2023-05-01T22:18:01.318Z,,0,,,NaN,,,,,,false,,,,1144421.700000003,1144421.5,,1144421.200000003,,1144434.789,8,400,,,
sequence,flow.Sequence,4_53,2023-05-01T22:18:01.318Z,,0,,,2504.3700000001118,completion,,,,,false,,,,1144421.900000006,1144421.5,1141900.492,1141917.800000012,1141917.13,1144434.789,8,400,,,
trial,html.Screen,4_54_0,2023-05-01T22:18:03.840Z,,0,2,,2509.1110000058543,response,ISIC_8690631.JPG,,ISIC_9225640.JPG,ISIC_9225640.JPG,false,0,keypress(z),500,1146944.200000003,1146943.900000006,1144418.165,1144422.200000003,1144434.789,1146968.668,8,400,5,,ISIC_8690631.JPG
break,html.Screen,4_54_1,2023-05-01T22:18:03.841Z,,0,,,NaN,,,,,,false,,,,1146945.5,1146945.200000003,,1146944.5,,1146968.668,8,400,,,
break_continue,html.Screen,4_54_2,2023-05-01T22:18:03.842Z,,0,,,NaN,,,,,,false,,,,1146946.100000009,1146945.900000006,,1146945.600000009,,1146968.668,8,400,,,
sequence,flow.Sequence,4_54,2023-05-01T22:18:03.842Z,,0,,,2511.1110000058543,completion,,,,,false,,,,1146946.400000006,1146945.900000006,1144418.165,1144422.200000003,1144434.789,1146968.668,8,400,,,
trial,html.Screen,4_55_0,2023-05-01T22:18:06.891Z,,0,2,,3026.032000002917,response,ISIC_0029028.JPG,,ISIC_0033668.JPG,ISIC_0029028.JPG,false,1,keypress(m),500,1149995.100000009,1149994.700000003,1146952.058,1146946.5,1146968.668,1150002.91,8,400,6,,ISIC_0033668.JPG
break,html.Screen,4_55_1,2023-05-01T22:18:06.892Z,,0,,,NaN,,,,,,false,,,,1149996.600000009,1149996.100000009,,1149995.5,,1150002.91,8,400,,,
break_continue,html.Screen,4_55_2,2023-05-01T22:18:06.893Z,,0,,,NaN,,,,,,false,,,,1149997.300000012,1149997.100000009,,1149996.800000012,,1150002.91,8,400,,,
sequence,flow.Sequence,4_55,2023-05-01T22:18:06.893Z,,0,,,3028.4320000088774,completion,,,,,false,,,,1149997.5,1149997.100000009,1146952.058,1146946.5,1146968.668,1150002.91,8,400,,,
trial,html.Screen,4_56_0,2023-05-01T22:18:09.510Z,,0,2,,2611.1900000090245,response,ISIC_6674797.JPG,,ISIC_0032033.JPG,ISIC_0032033.JPG,false,0,keypress(z),500,1152614.400000006,1152614.100000009,1149986.444,1149997.800000012,1150002.91,1152620.381,8,400,7,,ISIC_6674797.JPG
break,html.Screen,4_56_1,2023-05-01T22:18:09.512Z,,0,,,NaN,,,,,,false,,,,1152615.900000006,1152615.5,,1152614.800000012,,1152620.381,8,400,,,
break_continue,html.Screen,4_56_2,2023-05-01T22:18:09.512Z,,0,,,NaN,,,,,,false,,,,1152616.600000009,1152616.400000006,,1152616.100000009,,1152620.381,8,400,,,
sequence,flow.Sequence,4_56,2023-05-01T22:18:09.513Z,,0,,,2613.4900000060443,completion,,,,,false,,,,1152616.900000006,1152616.400000006,1149986.444,1149997.700000003,1150002.91,1152620.381,8,400,,,
trial,html.Screen,4_57_0,2023-05-01T22:18:12.355Z,,0,2,,2838.819000002928,response,ISIC_4640293.JPG,,ISIC_0026204.JPG,ISIC_4640293.JPG,false,1,keypress(m),500,1155459.600000009,1155459.200000003,1152604.017,1152617.100000009,1152620.381,1155471.226,8,400,8,,ISIC_0026204.JPG
break,html.Screen,4_57_1,2023-05-01T22:18:12.357Z,,0,,,NaN,,,,,,false,,,,1155461.400000006,1155460.900000006,,1155460.100000009,,1155471.226,8,400,,,
break_continue,html.Screen,4_57_2,2023-05-01T22:18:12.358Z,,0,,,NaN,,,,,,false,,,,1155462,1155461.900000006,,1155461.5,,1155471.226,8,400,,,
sequence,flow.Sequence,4_57,2023-05-01T22:18:12.358Z,,0,,,2841.5190000059083,completion,,,,,false,,,,1155462.200000003,1155461.900000006,1152604.017,1152617,1152620.381,1155471.226,8,400,,,
trial,html.Screen,4_58_0,2023-05-01T22:18:15.418Z,,0,2,,3050.6740000059363,response,ISIC_0034086.JPG,,ISIC_0030873.JPG,ISIC_0030873.JPG,false,0,keypress(z),500,1158522.400000006,1158521.900000006,1155454.577,1155462.400000006,1155471.226,1158538.82,8,400,9,,ISIC_0034086.JPG
break,html.Screen,4_58_1,2023-05-01T22:18:15.420Z,,0,,,NaN,,,,,,false,,,,1158523.700000003,1158523.400000006,,1158522.600000009,,1158538.82,8,400,,,
break_continue,html.Screen,4_58_2,2023-05-01T22:18:15.420Z,,0,,,NaN,,,,,,false,,,,1158524.400000006,1158524.200000003,,1158523.900000006,,1158538.82,8,400,,,
sequence,flow.Sequence,4_58,2023-05-01T22:18:15.421Z,,0,,,3052.974000002956,completion,,,,,false,,,,1158524.700000003,1158524.200000003,1155454.577,1155462.300000012,1155471.226,1158538.82,8,400,,,
trial,html.Screen,4_59_0,2023-05-01T22:18:17.568Z,,0,2,,2134.380000002915,response,ISIC_0062234.JPG,,ISIC_0429825.JPG,ISIC_0062234.JPG,false,1,keypress(m),500,1160673.600000009,1160673.200000003,1158522.293,1158524.900000006,1158538.82,1160689.46,8,400,10,,ISIC_0429825.JPG
break,html.Screen,4_59_1,2023-05-01T22:18:17.570Z,,0,,,NaN,,,,,,false,,,,1160675.200000003,1160674.800000012,,1160673.900000006,,1160689.46,8,400,,,
break_continue,html.Screen,4_59_2,2023-05-01T22:18:17.571Z,,0,,,NaN,,,,,,false,,,,1160676,1160675.800000012,,1160675.400000006,,1160689.46,8,400,,,
sequence,flow.Sequence,4_59,2023-05-01T22:18:17.571Z,,0,,,2136.9800000118557,completion,,,,,false,,,,1160676.200000003,1160675.800000012,1158522.293,1158524.800000012,1158538.82,1160689.46,8,400,,,
trial,html.Screen,4_60_0,2023-05-01T22:18:22.426Z,,0,2,,4841.2400000030175,response,ISIC_3686179.JPG,,ISIC_3779093.JPG,ISIC_3779093.JPG,false,0,keypress(z),500,1165531.200000003,1165530.700000003,1160672.827,1160676.400000006,1160689.46,1165557.848,8,400,11,,ISIC_3686179.JPG
break,html.Screen,4_60_1,2023-05-01T22:18:22.427Z,,0,,,NaN,,,,,,false,,,,1165532.600000009,1165532.200000003,,1165531.600000009,,1165557.848,8,400,,,
break_continue,html.Screen,4_60_2,2023-05-01T22:18:22.428Z,,0,,,NaN,,,,,,false,,,,1165533.400000006,1165533.200000003,,1165532.800000012,,1165557.848,8,400,,,
sequence,flow.Sequence,4_60,2023-05-01T22:18:22.428Z,,0,,,4843.7400000030175,completion,,,,,false,,,,1165533.800000012,1165533.200000003,1160672.827,1160676.400000006,1160689.46,1165557.848,8,400,,,
trial,html.Screen,4_61_0,2023-05-01T22:18:25.175Z,,0,2,,2721.652000000002,response,ISIC_9685931.JPG,,ISIC_1798471.JPG,ISIC_1798471.JPG,false,0,keypress(z),500,1168279.900000006,1168279.5,1165546.946,1165534,1165557.848,1168291.814,8,400,12,,ISIC_9685931.JPG
break,html.Screen,4_61_1,2023-05-01T22:18:25.177Z,,0,,,NaN,,,,,,false,,,,1168281.900000006,1168281.400000006,,1168280.400000006,,1168291.814,8,400,,,
break_continue,html.Screen,4_61_2,2023-05-01T22:18:25.177Z,,0,,,NaN,,,,,,false,,,,1168282.800000012,1168282.600000009,,1168282.300000012,,1168291.814,8,400,,,
sequence,flow.Sequence,4_61,2023-05-01T22:18:25.178Z,,0,,,2724.7520000089426,completion,,,,,false,,,,1168283.100000009,1168282.600000009,1165546.946,1165533.900000006,1165557.848,1168291.814,8,400,,,
trial,html.Screen,4_62_0,2023-05-01T22:18:27.778Z,,0,2,,2591.0860000059474,response,ISIC_0263478.JPG,,ISIC_4474170.JPG,ISIC_0263478.JPG,false,1,keypress(m),500,1170883.300000012,1170882.900000006,1168275.462,1168283.200000003,1168291.814,1170892.572,8,400,13,,ISIC_4474170.JPG
break,html.Screen,4_62_1,2023-05-01T22:18:27.779Z,,0,,,NaN,,,,,,false,,,,1170884.5,1170884.200000003,,1170883.5,,1170892.572,8,400,,,
break_continue,html.Screen,4_62_2,2023-05-01T22:18:27.780Z,,0,,,NaN,,,,,,false,,,,1170885.200000003,1170885.100000009,,1170884.800000012,,1170892.572,8,400,,,
sequence,flow.Sequence,4_62,2023-05-01T22:18:27.780Z,,0,,,2593.2860000089277,completion,,,,,false,,,,1170885.5,1170885.100000009,1168275.462,1168283.200000003,1168291.814,1170892.572,8,400,,,
trial,html.Screen,4_63_0,2023-05-01T22:18:30.554Z,,0,2,,2766.628000003053,response,ISIC_0010942.JPG,,ISIC_0255997.JPG,ISIC_0255997.JPG,false,0,keypress(z),500,1173659.5,1173659.200000003,1170875.958,1170885.700000003,1170892.572,1173676.733,8,400,14,,ISIC_0010942.JPG
break,html.Screen,4_63_1,2023-05-01T22:18:30.556Z,,0,,,NaN,,,,,,false,,,,1173661.300000012,1173660.800000012,,1173659.900000006,,1173676.733,8,400,,,
break_continue,html.Screen,4_63_2,2023-05-01T22:18:30.557Z,,0,,,NaN,,,,,,false,,,,1173662,1173661.800000012,,1173661.5,,1173676.733,8,400,,,
sequence,flow.Sequence,4_63,2023-05-01T22:18:30.557Z,,0,,,2769.2280000119936,completion,,,,,false,,,,1173662.300000012,1173661.800000012,1170875.958,1170885.600000009,1170892.572,1173676.733,8,400,,,
trial,html.Screen,4_64_0,2023-05-01T22:18:33.901Z,,0,2,,3329.0670000119135,response,ISIC_0072917.JPG,,ISIC_0011757.JPG,ISIC_0072917.JPG,false,1,keypress(m),500,1177006.100000009,1177005.800000012,1173659.981,1173662.5,1173676.733,1177011.072,8,400,15,,ISIC_0011757.JPG
break,html.Screen,4_64_1,2023-05-01T22:18:33.902Z,,0,,,NaN,,,,,,false,,,,1177007.5,1177007.100000009,,1177006.300000012,,1177011.072,8,400,,,
break_continue,html.Screen,4_64_2,2023-05-01T22:18:33.903Z,,0,,,NaN,,,,,,false,,,,1177007.900000006,1177007.800000012,,1177007.700000003,,1177011.072,8,400,,,
sequence,flow.Sequence,4_64,2023-05-01T22:18:33.903Z,,0,,,3331.0670000119135,completion,,,,,false,,,,1177008,1177007.800000012,1173659.981,1173662.400000006,1173676.733,1177011.072,8,400,,,
trial,html.Screen,4_65_0,2023-05-01T22:18:36.999Z,,0,2,,3093.128000003053,response,ISIC_8626941.JPG,,ISIC_0024481.JPG,ISIC_8626941.JPG,false,1,keypress(m),500,1180104.600000009,1180104.200000003,1176994.565,1177008.200000003,1177011.072,1180112.159,8,400,16,,ISIC_0024481.JPG
break,html.Screen,4_65_1,2023-05-01T22:18:37.001Z,,0,,,NaN,,,,,,false,,,,1180106.5,1180105.900000006,,1180105,,1180112.159,8,400,,,
break_continue,html.Screen,4_65_2,2023-05-01T22:18:37.002Z,,0,,,NaN,,,,,,false,,,,1180107.5,1180107.300000012,,1180106.800000012,,1180112.159,8,400,,,
sequence,flow.Sequence,4_65,2023-05-01T22:18:37.003Z,,0,,,3096.2280000119936,completion,,,,,false,,,,1180107.900000006,1180107.300000012,1176994.565,1177008.200000003,1177011.072,1180112.159,8,400,,,
trial,html.Screen,4_66_0,2023-05-01T22:18:40.132Z,,0,2,,3124.4410000089556,response,ISIC_0073227.JPG,,ISIC_0011698.JPG,ISIC_0011698.JPG,false,0,keypress(z),500,1183237,1183236.600000009,1180095.599,1180108.100000009,1180112.159,1183246.304,8,400,17,,ISIC_0073227.JPG
break,html.Screen,4_66_1,2023-05-01T22:18:40.133Z,,0,,,NaN,,,,,,false,,,,1183238.700000003,1183238.200000003,,1183237.400000006,,1183246.304,8,400,,,
break_continue,html.Screen,4_66_2,2023-05-01T22:18:40.134Z,,0,,,NaN,,,,,,false,,,,1183239.5,1183239.300000012,,1183238.900000006,,1183246.304,8,400,,,
sequence,flow.Sequence,4_66,2023-05-01T22:18:40.134Z,,0,,,3127.141000011936,completion,,,,,false,,,,1183239.700000003,1183239.300000012,1180095.599,1180108,1180112.159,1183246.304,8,400,,,
trial,html.Screen,4_67_0,2023-05-01T22:18:43.233Z,,0,2,,3091.5960000059567,response,ISIC_2095347.JPG,,ISIC_0006717.JPG,ISIC_0006717.JPG,false,0,keypress(z),500,1186338.300000012,1186337.900000006,1183229.639,1183240,1183246.304,1186347.182,8,400,18,,ISIC_2095347.JPG
break,html.Screen,4_67_1,2023-05-01T22:18:43.235Z,,0,,,NaN,,,,,,false,,,,1186340.400000006,1186339.800000012,,1186338.800000012,,1186347.182,8,400,,,
break_continue,html.Screen,4_67_2,2023-05-01T22:18:43.236Z,,0,,,NaN,,,,,,false,,,,1186341.100000009,1186340.900000006,,1186340.5,,1186347.182,8,400,,,
sequence,flow.Sequence,4_67,2023-05-01T22:18:43.236Z,,0,,,3094.5960000059567,completion,,,,,false,,,,1186341.400000006,1186340.900000006,1183229.639,1183239.900000006,1183246.304,1186347.182,8,400,,,
trial,html.Screen,4_68_0,2023-05-01T22:18:47.183Z,,0,2,,3940.618000011891,response,ISIC_0070048.JPG,,ISIC_3791309.JPG,ISIC_3791309.JPG,false,0,keypress(z),500,1190288.100000009,1190287.800000012,1186331.078,1186341.600000009,1186347.182,1190298.391,8,400,19,,ISIC_0070048.JPG
break,html.Screen,4_68_1,2023-05-01T22:18:47.184Z,,0,,,NaN,,,,,,false,,,,1190289.600000009,1190289.200000003,,1190288.5,,1190298.391,8,400,,,
break_continue,html.Screen,4_68_2,2023-05-01T22:18:47.185Z,,0,,,NaN,,,,,,false,,,,1190290.400000006,1190290.200000003,,1190289.800000012,,1190298.391,8,400,,,
sequence,flow.Sequence,4_68,2023-05-01T22:18:47.185Z,,0,,,3943.0180000029504,completion,,,,,false,,,,1190290.600000009,1190290.200000003,1186331.078,1186341.600000009,1186347.182,1190298.391,8,400,,,
trial,html.Screen,4_69_0,2023-05-01T22:18:50.526Z,,0,2,,3332.7090000088792,response,ISIC_7008335.JPG,,ISIC_6254731.JPG,ISIC_6254731.JPG,false,0,keypress(z),500,1193631.400000006,1193631.100000009,1190282.112,1190290.800000012,1190298.391,1193664.257,8,400,20,,ISIC_7008335.JPG
break,html.Screen,4_69_1,2023-05-01T22:18:50.528Z,,0,,,NaN,,,,,,false,,,,1193633.100000009,1193632.600000009,,1193631.700000003,,1193664.257,8,400,,,
break_continue,html.Screen,4_69_2,2023-05-01T22:18:50.529Z,,0,,,NaN,,,,,,false,,,,1193633.900000006,1193633.700000003,,1193633.400000006,,1193664.257,8,400,,,
sequence,flow.Sequence,4_69,2023-05-01T22:18:50.529Z,,0,,,3335.3090000029188,completion,,,,,false,,,,1193634.300000012,1193633.700000003,1190282.112,1190290.700000003,1190298.391,1193664.257,8,400,,,
trial,html.Screen,4_70_0,2023-05-01T22:18:53.553Z,,0,2,,2993.5430000119377,response,ISIC_8796968.JPG,,ISIC_0010346.JPG,ISIC_8796968.JPG,false,1,keypress(m),500,1196658.200000003,1196657.800000012,1193616.352,1193634.5,1193664.257,1196666.965,8,400,21,,ISIC_0010346.JPG
break,html.Screen,4_70_1,2023-05-01T22:18:53.554Z,,0,,,NaN,,,,,,false,,,,1196659.600000009,1196659.200000003,,1196658.5,,1196666.965,8,400,,,
break_continue,html.Screen,4_70_2,2023-05-01T22:18:53.555Z,,0,,,NaN,,,,,,false,,,,1196660.300000012,1196660.100000009,,1196659.700000003,,1196666.965,8,400,,,
sequence,flow.Sequence,4_70,2023-05-01T22:18:53.555Z,,0,,,2995.8430000089575,completion,,,,,false,,,,1196660.5,1196660.100000009,1193616.352,1193634.5,1193664.257,1196666.965,8,400,,,
trial,html.Screen,4_71_0,2023-05-01T22:18:56.146Z,,0,2,,2583.835000011837,response,ISIC_3826102.JPG,,ISIC_0011370.JPG,ISIC_0011370.JPG,false,0,keypress(z),500,1199251.300000012,1199250.800000012,1196650.405,1196660.700000003,1196666.965,1199267.788,8,400,22,,ISIC_3826102.JPG
break,html.Screen,4_71_1,2023-05-01T22:18:56.148Z,,0,,,NaN,,,,,,false,,,,1199253.5,1199253,,1199251.900000006,,1199267.788,8,400,,,
break_continue,html.Screen,4_71_2,2023-05-01T22:18:56.149Z,,0,,,NaN,,,,,,false,,,,1199254.300000012,1199254.100000009,,1199253.700000003,,1199267.788,8,400,,,
sequence,flow.Sequence,4_71,2023-05-01T22:18:56.149Z,,0,,,2587.135000008857,completion,,,,,false,,,,1199254.600000009,1199254.100000009,1196650.405,1196660.700000003,1196666.965,1199267.788,8,400,,,
trial,html.Screen,4_72_0,2023-05-01T22:18:59.013Z,,0,2,,2850.0120000119787,response,ISIC_2456538.JPG,,ISIC_7299650.JPG,ISIC_7299650.JPG,false,0,keypress(z),500,1202118.100000009,1202117.800000012,1199251.309,1199254.700000003,1199267.788,1202135.287,8,400,23,,ISIC_2456538.JPG
break,html.Screen,4_72_1,2023-05-01T22:18:59.014Z,,0,,,NaN,,,,,,false,,,,1202119.800000012,1202119.300000012,,1202118.5,,1202135.287,8,400,,,
break_continue,html.Screen,4_72_2,2023-05-01T22:18:59.015Z,,0,,,NaN,,,,,,false,,,,1202120.5,1202120.300000012,,1202120,,1202135.287,8,400,,,
sequence,flow.Sequence,4_72,2023-05-01T22:18:59.015Z,,0,,,2852.5120000119787,completion,,,,,false,,,,1202120.800000012,1202120.300000012,1199251.309,1199254.700000003,1199267.788,1202135.287,8,400,,,
trial,html.Screen,4_73_0,2023-05-01T22:19:01.482Z,,0,2,,2451.8130000089295,response,ISIC_0028003.JPG,,ISIC_2133938.JPG,ISIC_2133938.JPG,false,0,keypress(z),500,1204587.5,1204587.100000009,1202118.621,1202121,1202135.287,1204602.726,8,400,24,,ISIC_0028003.JPG
break,html.Screen,4_73_1,2023-05-01T22:19:01.484Z,,0,,,NaN,,,,,,false,,,,1204588.900000006,1204588.400000006,,1204587.600000009,,1204602.726,8,400,,,
break_continue,html.Screen,4_73_2,2023-05-01T22:19:01.484Z,,0,,,NaN,,,,,,false,,,,1204589.600000009,1204589.400000006,,1204589.100000009,,1204602.726,8,400,,,
sequence,flow.Sequence,4_73,2023-05-01T22:19:01.485Z,,0,,,2454.1130000059493,completion,,,,,false,,,,1204589.900000006,1204589.400000006,1202118.621,1202120.900000006,1202135.287,1204602.726,8,400,,,
trial,html.Screen,4_74_0,2023-05-01T22:19:04.534Z,,0,2,,3035.974000002956,response,ISIC_0057821.JPG,,ISIC_0032892.JPG,ISIC_0032892.JPG,false,0,keypress(z),500,1207639.100000009,1207638.700000003,1204586.197,1204590,1204602.726,1207653.686,8,400,25,,ISIC_0057821.JPG
break,html.Screen,4_74_1,2023-05-01T22:19:04.535Z,,0,,,NaN,,,,,,false,,,,1207640.700000003,1207640.300000012,,1207639.300000012,,1207653.686,8,400,,,
break_continue,html.Screen,4_74_2,2023-05-01T22:19:04.536Z,,0,,,NaN,,,,,,false,,,,1207641.5,1207641.300000012,,1207641,,1207653.686,8,400,,,
sequence,flow.Sequence,4_74,2023-05-01T22:19:04.536Z,,0,,,3038.5740000118967,completion,,,,,false,,,,1207641.800000012,1207641.300000012,1204586.197,1204590,1204602.726,1207653.686,8,400,,,
trial,html.Screen,4_75_0,2023-05-01T22:19:07.773Z,,0,2,,3224.4140000089537,response,ISIC_6571597.JPG,,ISIC_0066053.JPG,ISIC_6571597.JPG,false,1,keypress(m),500,1210878.5,1210878.100000009,1207637.457,1207642,1207653.686,1210887.978,8,400,26,,ISIC_0066053.JPG
break,html.Screen,4_75_1,2023-05-01T22:19:07.775Z,,0,,,NaN,,,,,,false,,,,1210880.300000012,1210879.800000012,,1210878.800000012,,1210887.978,8,400,,,
break_continue,html.Screen,4_75_2,2023-05-01T22:19:07.776Z,,0,,,NaN,,,,,,false,,,,1210881.200000003,1210881,,1210880.600000009,,1210887.978,8,400,,,
sequence,flow.Sequence,4_75,2023-05-01T22:19:07.776Z,,0,,,3227.314000000013,completion,,,,,false,,,,1210881.5,1210881,1207637.457,1207642,1207653.686,1210887.978,8,400,,,
trial,html.Screen,4_76_0,2023-05-01T22:19:10.443Z,,0,2,,2660.1220000090543,response,ISIC_0011799.JPG,,ISIC_0031074.JPG,ISIC_0031074.JPG,false,0,keypress(z),500,1213548.600000009,1213548.100000009,1210871.629,1210881.800000012,1210887.978,1213555.476,8,400,27,,ISIC_0011799.JPG
break,html.Screen,4_76_1,2023-05-01T22:19:10.445Z,,0,,,NaN,,,,,,false,,,,1213550.300000012,1213549.800000012,,1213548.900000006,,1213555.476,8,400,,,
break_continue,html.Screen,4_76_2,2023-05-01T22:19:10.446Z,,0,,,NaN,,,,,,false,,,,1213551.200000003,1213551,,1213550.600000009,,1213555.476,8,400,,,
sequence,flow.Sequence,4_76,2023-05-01T22:19:10.446Z,,0,,,2663.0220000001136,completion,,,,,false,,,,1213551.5,1213551,1210871.629,1210881.700000003,1210887.978,1213555.476,8,400,,,
trial,html.Screen,4_77_0,2023-05-01T22:19:13.588Z,,0,2,,3137.3240000118967,response,ISIC_0032047.JPG,,ISIC_3084213.JPG,ISIC_3084213.JPG,false,0,keypress(z),500,1216693.200000003,1216692.800000012,1213538.884,1213551.900000006,1213555.476,1216706.627,8,400,28,,ISIC_0032047.JPG
break,html.Screen,4_77_1,2023-05-01T22:19:13.590Z,,0,,,NaN,,,,,,false,,,,1216695.200000003,1216694.700000003,,1216693.600000009,,1216706.627,8,400,,,
break_continue,html.Screen,4_77_2,2023-05-01T22:19:13.591Z,,0,,,NaN,,,,,,false,,,,1216696,1216695.700000003,,1216695.400000006,,1216706.627,8,400,,,
sequence,flow.Sequence,4_77,2023-05-01T22:19:13.591Z,,0,,,3140.224000002956,completion,,,,,false,,,,1216696.300000012,1216695.700000003,1213538.884,1213551.700000003,1213555.476,1216706.627,8,400,,,
trial,html.Screen,4_78_0,2023-05-01T22:19:16.126Z,,0,2,,2524.2730000058655,response,ISIC_0029441.JPG,,ISIC_0032419.JPG,ISIC_0029441.JPG,false,1,keypress(m),500,1219231.300000012,1219230.900000006,1216689.646,1216696.5,1216706.627,1219240.447,8,400,29,,ISIC_0032419.JPG
break,html.Screen,4_78_1,2023-05-01T22:19:16.127Z,,0,,,NaN,,,,,,false,,,,1219232.700000003,1219232.300000012,,1219231.600000009,,1219240.447,8,400,,,
break_continue,html.Screen,4_78_2,2023-05-01T22:19:16.128Z,,0,,,NaN,,,,,,false,,,,1219233.600000009,1219233.400000006,,1219233,,1219240.447,8,400,,,
sequence,flow.Sequence,4_78,2023-05-01T22:19:16.129Z,,0,,,2526.7730000058655,completion,,,,,false,,,,1219233.900000006,1219233.400000006,1216689.646,1216696.400000006,1216706.627,1219240.447,8,400,,,
trial,html.Screen,4_79_0,2023-05-01T22:19:19.415Z,,0,2,,3278.6530000090133,response,ISIC_5415761.JPG,,ISIC_7803114.JPG,ISIC_7803114.JPG,false,0,keypress(z),500,1222519.400000006,1222519.100000009,1219224.216,1219234.100000009,1219240.447,1222524.804,8,400,30,,ISIC_5415761.JPG
break,html.Screen,4_79_1,2023-05-01T22:19:19.417Z,,0,,,NaN,,,,,,false,,,,1222521,1222520.5,,1222519.700000003,,1222524.804,8,400,,,
break_continue,html.Screen,4_79_2,2023-05-01T22:19:19.418Z,,0,,,NaN,,,,,,false,,,,1222521.800000012,1222521.600000009,,1222521.200000003,,1222524.804,8,400,,,
sequence,flow.Sequence,4_79,2023-05-01T22:19:19.418Z,,0,,,3281.1530000090133,completion,,,,,false,,,,1222522.100000009,1222521.600000009,1219224.216,1219234,1219240.447,1222524.804,8,400,,,
trial,html.Screen,4_80_0,2023-05-01T22:19:22.548Z,,0,2,,3127.6959999999963,response,ISIC_7858034.JPG,,ISIC_2372468.JPG,ISIC_7858034.JPG,false,1,keypress(m),500,1225652.800000012,1225652.5,1222508.481,1222522.300000012,1222524.804,1225659.071,8,400,31,,ISIC_2372468.JPG
break,html.Screen,4_80_1,2023-05-01T22:19:22.550Z,,0,,,NaN,,,,,,false,,,,1225654.300000012,1225653.800000012,,1225653.100000009,,1225659.071,8,400,,,
break_continue,html.Screen,4_80_2,2023-05-01T22:19:22.551Z,,0,,,NaN,,,,,,false,,,,1225654.900000006,1225654.800000012,,1225654.5,,1225659.071,8,400,,,
sequence,flow.Sequence,4_80,2023-05-01T22:19:22.551Z,,0,,,3129.996000011917,completion,,,,,false,,,,1225655.200000003,1225654.800000012,1222508.481,1222522.200000003,1222524.804,1225659.071,8,400,,,
trial,html.Screen,4_81_0,2023-05-01T22:19:25.170Z,,0,2,,2615.329000005964,response,ISIC_0027102.JPG,,ISIC_9206499.JPG,ISIC_9206499.JPG,false,0,keypress(z),500,1228274.800000012,1228274.400000006,1225642.727,1225655.300000012,1225659.071,1228298.95,8,400,32,,ISIC_0027102.JPG
break,html.Screen,4_81_1,2023-05-01T22:19:25.172Z,,0,,,NaN,,,,,,false,,,,1228276.200000003,1228275.800000012,,1228275.100000009,,1228298.95,8,400,,,
break_continue,html.Screen,4_81_2,2023-05-01T22:19:25.173Z,,0,,,NaN,,,,,,false,,,,1228276.900000006,1228276.700000003,,1228276.400000006,,1228298.95,8,400,,,
sequence,flow.Sequence,4_81,2023-05-01T22:19:25.173Z,,0,,,2617.629000002984,completion,,,,,false,,,,1228277.100000009,1228276.700000003,1225642.727,1225655.300000012,1225659.071,1228298.95,8,400,,,
trial,html.Screen,4_82_0,2023-05-01T22:19:27.732Z,,0,2,,2536.8500000119675,response,ISIC_2192973.JPG,,ISIC_1797795.JPG,ISIC_2192973.JPG,false,1,keypress(m),500,1230836.100000009,1230835.800000012,1228259.992,1228277.300000012,1228298.95,1230844.01,8,400,33,,ISIC_1797795.JPG
break,html.Screen,4_82_1,2023-05-01T22:19:27.733Z,,0,,,NaN,,,,,,false,,,,1230837.400000006,1230837,,1230836.400000006,,1230844.01,8,400,,,
break_continue,html.Screen,4_82_2,2023-05-01T22:19:27.734Z,,0,,,NaN,,,,,,false,,,,1230838.100000009,1230837.900000006,,1230837.600000009,,1230844.01,8,400,,,
sequence,flow.Sequence,4_82,2023-05-01T22:19:27.734Z,,0,,,2538.950000006007,completion,,,,,false,,,,1230838.300000012,1230837.900000006,1228259.992,1228277.300000012,1228298.95,1230844.01,8,400,,,
trial,html.Screen,4_83_0,2023-05-01T22:19:30.283Z,,0,2,,2543.2900000119116,response,ISIC_9462738.JPG,,ISIC_0033377.JPG,ISIC_9462738.JPG,false,1,keypress(m),500,1233387.5,1233387.300000012,1230827.623,1230838.600000009,1230844.01,1233394.697,8,400,34,,ISIC_0033377.JPG
break,html.Screen,4_83_1,2023-05-01T22:19:30.285Z,,0,,,NaN,,,,,,false,,,,1233389.100000009,1233388.600000009,,1233388,,1233394.697,8,400,,,
break_continue,html.Screen,4_83_2,2023-05-01T22:19:30.285Z,,0,,,NaN,,,,,,false,,,,1233389.800000012,1233389.5,,1233389.300000012,,1233394.697,8,400,,,
sequence,flow.Sequence,4_83,2023-05-01T22:19:30.286Z,,0,,,2545.4899999999907,completion,,,,,false,,,,1233390,1233389.5,1230827.623,1230838.5,1230844.01,1233394.697,8,400,,,
trial,html.Screen,4_84_0,2023-05-01T22:19:32.800Z,,0,2,,2509.003000003053,response,ISIC_0010956.JPG,,ISIC_4582670.JPG,ISIC_0010956.JPG,false,1,keypress(m),500,1235904,1235903.700000003,1233378.101,1233390.200000003,1233394.697,1235912.284,8,400,35,,ISIC_4582670.JPG
break,html.Screen,4_84_1,2023-05-01T22:19:32.801Z,,0,,,NaN,,,,,,false,,,,1235905.5,1235905,,1235904.400000006,,1235912.284,8,400,,,
break_continue,html.Screen,4_84_2,2023-05-01T22:19:32.802Z,,0,,,NaN,,,,,,false,,,,1235906.200000003,1235906,,1235905.700000003,,1235912.284,8,400,,,
sequence,flow.Sequence,4_84,2023-05-01T22:19:32.802Z,,0,,,2511.3030000000726,completion,,,,,false,,,,1235906.5,1235906,1233378.101,1233390.200000003,1233394.697,1235912.284,8,400,,,
trial,html.Screen,4_85_0,2023-05-01T22:19:35.222Z,,0,2,,2413.916000002995,response,ISIC_0029459.JPG,,ISIC_0046917.JPG,ISIC_0029459.JPG,false,1,keypress(m),500,1238326.700000003,1238326.200000003,1235895.629,1235906.700000003,1235912.284,1238346.596,8,400,36,,ISIC_0046917.JPG
break,html.Screen,4_85_1,2023-05-01T22:19:35.224Z,,0,,,NaN,,,,,,false,,,,1238328,1238327.600000009,,1238327,,1238346.596,8,400,,,
break_continue,html.Screen,4_85_2,2023-05-01T22:19:35.224Z,,0,,,NaN,,,,,,false,,,,1238328.800000012,1238328.5,,1238328.200000003,,1238346.596,8,400,,,
sequence,flow.Sequence,4_85,2023-05-01T22:19:35.225Z,,0,,,2416.216000000015,completion,,,,,false,,,,1238329,1238328.5,1235895.629,1235906.600000009,1235912.284,1238346.596,8,400,,,
trial,html.Screen,4_86_0,2023-05-01T22:19:38.010Z,,0,2,,2767.704000012018,response,ISIC_0028103.JPG,,ISIC_0010797.JPG,ISIC_0028103.JPG,false,1,keypress(m),500,1241114.700000003,1241114.300000012,1238329.571,1238329.200000003,1238346.596,1241130.436,8,400,37,,ISIC_0010797.JPG
break,html.Screen,4_86_1,2023-05-01T22:19:38.012Z,,0,,,NaN,,,,,,false,,,,1241116.700000003,1241116,,1241115,,1241130.436,8,400,,,
break_continue,html.Screen,4_86_2,2023-05-01T22:19:38.013Z,,0,,,NaN,,,,,,false,,,,1241117.400000006,1241117.300000012,,1241116.900000006,,1241130.436,8,400,,,
sequence,flow.Sequence,4_86,2023-05-01T22:19:38.013Z,,0,,,2770.704000012018,completion,,,,,false,,,,1241117.700000003,1241117.300000012,1238329.571,1238329.100000009,1238346.596,1241130.436,8,400,,,
trial,html.Screen,4_87_0,2023-05-01T22:19:40.437Z,,0,2,,2410.4640000059735,response,ISIC_0014183.JPG,,ISIC_5298216.JPG,ISIC_0014183.JPG,false,1,keypress(m),500,1243541.5,1243540.900000006,1241113.865,1241117.900000006,1241130.436,1243547.818,8,400,38,,ISIC_5298216.JPG
break,html.Screen,4_87_1,2023-05-01T22:19:40.439Z,,0,,,NaN,,,,,,false,,,,1243543.800000012,1243543.100000009,,1243542,,1243547.818,8,400,,,
break_continue,html.Screen,4_87_2,2023-05-01T22:19:40.440Z,,0,,,NaN,,,,,,false,,,,1243544.600000009,1243544.300000012,,1243544.100000009,,1243547.818,8,400,,,
sequence,flow.Sequence,4_87,2023-05-01T22:19:40.441Z,,0,,,2413.864000011934,completion,,,,,false,,,,1243544.800000012,1243544.300000012,1241113.865,1241117.900000006,1241130.436,1243547.818,8,400,,,
trial,html.Screen,4_88_0,2023-05-01T22:19:42.979Z,,0,2,,2535.18200000003,response,ISIC_0011645.JPG,,ISIC_4658487.JPG,ISIC_4658487.JPG,false,0,keypress(z),500,1246083.400000006,1246083,1243531.395,1243545,1243547.818,1246115.487,8,400,39,,ISIC_0011645.JPG
break,html.Screen,4_88_1,2023-05-01T22:19:42.980Z,,0,,,NaN,,,,,,false,,,,1246084.800000012,1246084.400000006,,1246083.700000003,,1246115.487,8,400,,,
break_continue,html.Screen,4_88_2,2023-05-01T22:19:42.981Z,,0,,,NaN,,,,,,false,,,,1246085.5,1246085.300000012,,1246085,,1246115.487,8,400,,,
sequence,flow.Sequence,4_88,2023-05-01T22:19:42.981Z,,0,,,2537.4820000119507,completion,,,,,false,,,,1246085.700000003,1246085.300000012,1243531.395,1243545,1243547.818,1246115.487,8,400,,,
trial,html.Screen,4_89_0,2023-05-01T22:19:46.175Z,,0,2,,3163.413000005996,response,ISIC_0061580.JPG,,ISIC_9303594.JPG,ISIC_9303594.JPG,false,0,keypress(z),500,1249279.300000012,1249278.900000006,1246098.572,1246086,1246115.487,1249282.863,8,400,40,,ISIC_0061580.JPG
break,html.Screen,4_89_1,2023-05-01T22:19:46.176Z,,0,,,NaN,,,,,,false,,,,1249280.700000003,1249280.200000003,,1249279.600000009,,1249282.863,8,400,,,
break_continue,html.Screen,4_89_2,2023-05-01T22:19:46.177Z,,0,,,NaN,,,,,,false,,,,1249281.5,1249281.200000003,,1249280.800000012,,1249282.863,8,400,,,
sequence,flow.Sequence,4_89,2023-05-01T22:19:46.177Z,,0,,,3165.7130000030156,completion,,,,,false,,,,1249281.700000003,1249281.200000003,1246098.572,1246085.900000006,1246115.487,1249282.863,8,400,,,
trial,html.Screen,4_90_0,2023-05-01T22:19:48.611Z,,0,2,,2431.737000009045,response,ISIC_5964173.JPG,,ISIC_0010500.JPG,ISIC_5964173.JPG,false,0,keypress(z),500,1251715.100000009,1251714.600000009,1249266.412,1249281.900000006,1249282.863,1251738.965,8,400,41,,ISIC_0010500.JPG
break,html.Screen,4_90_1,2023-05-01T22:19:48.612Z,,0,,,NaN,,,,,,false,,,,1251716.800000012,1251716.200000003,,1251715.5,,1251738.965,8,400,,,
break_continue,html.Screen,4_90_2,2023-05-01T22:19:48.613Z,,0,,,NaN,,,,,,false,,,,1251717.700000003,1251717.5,,1251717.100000009,,1251738.965,8,400,,,
sequence,flow.Sequence,4_90,2023-05-01T22:19:48.614Z,,0,,,2434.6370000001043,completion,,,,,false,,,,1251718.100000009,1251717.5,1249266.412,1249281.900000006,1249282.863,1251738.965,8,400,,,
trial,html.Screen,4_91_0,2023-05-01T22:19:52.040Z,,0,2,,3404.835000011837,response,ISIC_8355446.JPG,,ISIC_0148751.JPG,ISIC_0148751.JPG,false,0,keypress(z),500,1255144.200000003,1255143.800000012,1251700.719,1251718.600000009,1251738.965,1255151.328,8,400,42,,ISIC_8355446.JPG
break,html.Screen,4_91_1,2023-05-01T22:19:52.041Z,,0,,,NaN,,,,,,false,,,,1255145.700000003,1255145.300000012,,1255144.5,,1255151.328,8,400,,,
break_continue,html.Screen,4_91_2,2023-05-01T22:19:52.042Z,,0,,,NaN,,,,,,false,,,,1255146.400000006,1255146.200000003,,1255145.900000006,,1255151.328,8,400,,,
sequence,flow.Sequence,4_91,2023-05-01T22:19:52.042Z,,0,,,3407.2350000028964,completion,,,,,false,,,,1255146.600000009,1255146.200000003,1251700.719,1251718.400000006,1251738.965,1255151.328,8,400,,,
trial,html.Screen,4_92_0,2023-05-01T22:19:55.154Z,,0,2,,3106.9720000119414,response,ISIC_9974613.JPG,,ISIC_0057881.JPG,ISIC_9974613.JPG,false,1,keypress(m),500,1258258.700000003,1258258.300000012,1255134.856,1255146.800000012,1255151.328,1258268.888,8,400,43,,ISIC_0057881.JPG
break,html.Screen,4_92_1,2023-05-01T22:19:55.156Z,,0,,,NaN,,,,,,false,,,,1258260.5,1258259.700000003,,1258258.900000006,,1258268.888,8,400,,,
break_continue,html.Screen,4_92_2,2023-05-01T22:19:55.157Z,,0,,,NaN,,,,,,false,,,,1258261.300000012,1258261.100000009,,1258260.700000003,,1258268.888,8,400,,,
sequence,flow.Sequence,4_92,2023-05-01T22:19:55.157Z,,0,,,3109.772000008961,completion,,,,,false,,,,1258261.600000009,1258261.100000009,1255134.856,1255146.800000012,1255151.328,1258268.888,8,400,,,
trial,html.Screen,4_93_0,2023-05-01T22:19:58.239Z,,0,2,,3073.512000005925,response,ISIC_0033530.JPG,,ISIC_0072030.JPG,ISIC_0072030.JPG,false,0,keypress(z),500,1261342.800000012,1261342.400000006,1258252.52,1258261.800000012,1258268.888,1261353.191,8,400,44,,ISIC_0033530.JPG
break,html.Screen,4_93_1,2023-05-01T22:19:58.240Z,,0,,,NaN,,,,,,false,,,,1261344.800000012,1261344.100000009,,1261343.100000009,,1261353.191,8,400,,,
break_continue,html.Screen,4_93_2,2023-05-01T22:19:58.241Z,,0,,,NaN,,,,,,false,,,,1261345.600000009,1261345.300000012,,1261345,,1261353.191,8,400,,,
sequence,flow.Sequence,4_93,2023-05-01T22:19:58.242Z,,0,,,3076.4120000118855,completion,,,,,false,,,,1261345.900000006,1261345.300000012,1258252.52,1258261.700000003,1258268.888,1261353.191,8,400,,,
trial,html.Screen,4_94_0,2023-05-01T22:20:01.115Z,,0,2,,2865.7090000058524,response,ISIC_0012701.JPG,,ISIC_4643298.JPG,ISIC_0012701.JPG,false,1,keypress(m),500,1264219.200000003,1264218.900000006,1261336.425,1261346.200000003,1261353.191,1264251.966,8,400,45,,ISIC_4643298.JPG
break,html.Screen,4_94_1,2023-05-01T22:20:01.116Z,,0,,,NaN,,,,,,false,,,,1264220.400000006,1264220,,1264219.300000012,,1264251.966,8,400,,,
break_continue,html.Screen,4_94_2,2023-05-01T22:20:01.117Z,,0,,,NaN,,,,,,false,,,,1264220.900000006,1264220.700000003,,1264220.5,,1264251.966,8,400,,,
sequence,flow.Sequence,4_94,2023-05-01T22:20:01.117Z,,0,,,2867.509000002872,completion,,,,,false,,,,1264221.100000009,1264220.700000003,1261336.425,1261346.100000009,1261353.191,1264251.966,8,400,,,
trial,html.Screen,4_95_0,2023-05-01T22:20:03.784Z,,0,2,,2635.634000008926,response,ISIC_3663705.JPG,,ISIC_0028567.JPG,ISIC_3663705.JPG,false,1,keypress(m),500,1266887.900000006,1266887.600000009,1264204.527,1264221.200000003,1264251.966,1266904.799,8,400,46,,ISIC_0028567.JPG
break,html.Screen,4_95_1,2023-05-01T22:20:03.785Z,,0,,,NaN,,,,,,false,,,,1266889.200000003,1266888.700000003,,1266888.200000003,,1266904.799,8,400,,,
break_continue,html.Screen,4_95_2,2023-05-01T22:20:03.785Z,,0,,,NaN,,,,,,false,,,,1266889.800000012,1266889.600000009,,1266889.300000012,,1266904.799,8,400,,,
sequence,flow.Sequence,4_95,2023-05-01T22:20:03.786Z,,0,,,2637.634000008926,completion,,,,,false,,,,1266889.900000006,1266889.600000009,1264204.527,1264221.100000009,1264251.966,1266904.799,8,400,,,
trial,html.Screen,4_96_0,2023-05-01T22:20:06.802Z,,0,2,,3000.7009999998845,response,ISIC_0014987.JPG,,ISIC_8096177.JPG,ISIC_8096177.JPG,false,0,keypress(z),500,1269905.800000012,1269905.5,1266888.438,1266890.100000009,1266904.799,1269922.404,8,400,47,,ISIC_0014987.JPG
break,html.Screen,4_96_1,2023-05-01T22:20:06.803Z,,0,,,NaN,,,,,,false,,,,1269907.600000009,1269907.100000009,,1269906.300000012,,1269922.404,8,400,,,
break_continue,html.Screen,4_96_2,2023-05-01T22:20:06.804Z,,0,,,NaN,,,,,,false,,,,1269908.700000003,1269908.400000006,,1269907.900000006,,1269922.404,8,400,,,
sequence,flow.Sequence,4_96,2023-05-01T22:20:06.805Z,,0,,,3003.601000005845,completion,,,,,false,,,,1269909.300000012,1269908.400000006,1266888.438,1266890.100000009,1266904.799,1269922.404,8,400,,,
trial,html.Screen,4_97_0,2023-05-01T22:20:10.551Z,,0,2,,3732.196000008844,response,ISIC_5063476.JPG,,ISIC_0060860.JPG,ISIC_5063476.JPG,false,1,keypress(m),500,1273654.900000006,1273654.600000009,1269905.981,1269909.700000003,1269922.404,1273666.965,8,400,48,,ISIC_0060860.JPG
break,html.Screen,4_97_1,2023-05-01T22:20:10.552Z,,0,,,NaN,,,,,,false,,,,1273656,1273655.600000009,,1273655.100000009,,1273666.965,8,400,,,
break_continue,html.Screen,4_97_2,2023-05-01T22:20:10.552Z,,0,,,NaN,,,,,,false,,,,1273656.700000003,1273656.400000006,,1273656.200000003,,1273666.965,8,400,,,
sequence,flow.Sequence,4_97,2023-05-01T22:20:10.553Z,,0,,,3733.9960000058636,completion,,,,,false,,,,1273656.900000006,1273656.400000006,1269905.981,1269909.600000009,1269922.404,1273666.965,8,400,,,
trial,html.Screen,4_98_0,2023-05-01T22:20:13.745Z,,0,2,,3181.635000008857,response,ISIC_6609379.JPG,,ISIC_0070593.JPG,ISIC_6609379.JPG,false,1,keypress(m),500,1276848.800000012,1276848.600000009,1273650.22,1273657.100000009,1273666.965,1276851.301,8,400,49,,ISIC_0070593.JPG
break,html.Screen,4_98_1,2023-05-01T22:20:13.745Z,,0,,,NaN,,,,,,false,,,,1276849.600000009,1276849.400000006,,1276849,,1276851.301,8,400,,,
break_continue,html.Screen,4_98_2,2023-05-01T22:20:13.746Z,,0,,,NaN,,,,,,false,,,,1276850.100000009,1276850,,1276849.800000012,,1276851.301,8,400,,,
sequence,flow.Sequence,4_98,2023-05-01T22:20:13.746Z,,0,,,3183.034999999916,completion,,,,,false,,,,1276850.200000003,1276850,1273650.22,1273657,1273666.965,1276851.301,8,400,,,
trial,html.Screen,4_99_0,2023-05-01T22:20:16.161Z,,0,2,,2413.1990000000224,response,ISIC_0027022.JPG,,ISIC_0009918.JPG,ISIC_0027022.JPG,false,1,keypress(m),500,1279264.800000012,1279264.5,1276834.932,1276850.400000006,1276851.301,1279268.749,8,400,50,,ISIC_0009918.JPG
break,html.Screen,4_99_1,2023-05-01T22:20:21.147Z,,0,,,5001.460999999894,timeout,,,,,false,,,,1284254.300000012,1284253.518,1279252.35,1279265.200000003,1279268.749,1284270.21,8,400,,,
break_continue,html.Screen,4_99_2,2023-05-01T22:20:23.423Z,,0,,,2112.390000008978,response,,,,,false,continue,keypress(Space),,1286530.200000003,1286382.600000009,1284253.518,1284254.400000006,1284270.21,1286544.442,8,400,,,
sequence,flow.Sequence,4_99,2023-05-01T22:20:23.424Z,,0,,,9531.299000008963,completion,,,,,false,,,,1286530.700000003,1286382.600000009,1276834.932,1276850.400000006,1276851.301,1286544.442,8,400,,,
trial,html.Screen,4_100_0,2023-05-01T22:20:26.620Z,,0,3,,3182.858000011882,response,ISIC_0011868.JPG,,ISIC_6982386.JPG,ISIC_6982386.JPG,false,0,keypress(z),500,1289727.5,1289727.300000012,1286520.916,1286531.100000009,1286544.442,1289760.581,8,400,1,,ISIC_0011868.JPG
break,html.Screen,4_100_1,2023-05-01T22:20:26.621Z,,0,,,NaN,,,,,,false,,,,1289728.5,1289728.200000003,,1289727.600000009,,1289760.581,8,400,,,
break_continue,html.Screen,4_100_2,2023-05-01T22:20:26.622Z,,0,,,NaN,,,,,,false,,,,1289728.800000012,1289728.700000003,,1289728.600000009,,1289760.581,8,400,,,
sequence,flow.Sequence,4_100,2023-05-01T22:20:26.622Z,,0,,,3184.258000002941,completion,,,,,false,,,,1289729,1289728.700000003,1286520.916,1286531,1286544.442,1289760.581,8,400,,,
trial,html.Screen,4_101_0,2023-05-01T22:20:29.725Z,,0,3,,3071.2190000119153,response,ISIC_0067805.JPG,,ISIC_2050638.JPG,ISIC_2050638.JPG,false,0,keypress(z),500,1292832.100000009,1292831.800000012,1289712.436,1289729,1289760.581,1292846.805,8,400,2,,ISIC_0067805.JPG
break,html.Screen,4_101_1,2023-05-01T22:20:29.726Z,,0,,,NaN,,,,,,false,,,,1292833,1292832.700000003,,1292832.300000012,,1292846.805,8,400,,,
break_continue,html.Screen,4_101_2,2023-05-01T22:20:29.726Z,,0,,,NaN,,,,,,false,,,,1292833.400000006,1292833.300000012,,1292833.100000009,,1292846.805,8,400,,,
sequence,flow.Sequence,4_101,2023-05-01T22:20:29.727Z,,0,,,3072.7190000119153,completion,,,,,false,,,,1292833.700000003,1292833.300000012,1289712.436,1289729,1289760.581,1292846.805,8,400,,,
trial,html.Screen,4_102_0,2023-05-01T22:20:32.807Z,,0,3,,3066.495000011986,response,ISIC_3747979.JPG,,ISIC_0059840.JPG,ISIC_3747979.JPG,false,1,keypress(m),500,1295913.700000003,1295913.300000012,1292829.792,1292833.800000012,1292846.805,1295930.847,8,400,3,,ISIC_0059840.JPG
break,html.Screen,4_102_1,2023-05-01T22:20:32.808Z,,0,,,NaN,,,,,,false,,,,1295915.100000009,1295914.600000009,,1295913.900000006,,1295930.847,8,400,,,
break_continue,html.Screen,4_102_2,2023-05-01T22:20:32.809Z,,0,,,NaN,,,,,,false,,,,1295915.900000006,1295915.700000003,,1295915.400000006,,1295930.847,8,400,,,
sequence,flow.Sequence,4_102,2023-05-01T22:20:32.809Z,,0,,,3068.8950000030454,completion,,,,,false,,,,1295916.100000009,1295915.700000003,1292829.792,1292833.700000003,1292846.805,1295930.847,8,400,,,
trial,html.Screen,4_103_0,2023-05-01T22:20:36.625Z,,0,3,,3800.353000002913,response,ISIC_0056055.JPG,,ISIC_0056679.JPG,ISIC_0056055.JPG,false,1,keypress(m),500,1299731.700000003,1299731.200000003,1295913.891,1295916.300000012,1295930.847,1299748.483,8,400,4,,ISIC_0056679.JPG
break,html.Screen,4_103_1,2023-05-01T22:20:36.627Z,,0,,,NaN,,,,,,false,,,,1299733.600000009,1299733,,1299732,,1299748.483,8,400,,,
break_continue,html.Screen,4_103_2,2023-05-01T22:20:36.627Z,,0,,,NaN,,,,,,false,,,,1299734.400000006,1299734.200000003,,1299733.800000012,,1299748.483,8,400,,,
sequence,flow.Sequence,4_103,2023-05-01T22:20:36.628Z,,0,,,3803.353000002913,completion,,,,,false,,,,1299734.700000003,1299734.200000003,1295913.891,1295916.300000012,1295930.847,1299748.483,8,400,,,
trial,html.Screen,4_104_0,2023-05-01T22:20:39.268Z,,0,3,,2626.3170000119135,response,ISIC_5059476.JPG,,ISIC_0046633.JPG,ISIC_0046633.JPG,false,0,keypress(z),500,1302375.300000012,1302374.800000012,1299731.957,1299734.900000006,1299748.483,1302382.63,8,400,5,,ISIC_5059476.JPG
break,html.Screen,4_104_1,2023-05-01T22:20:39.270Z,,0,,,NaN,,,,,,false,,,,1302377.200000003,1302376.600000009,,1302375.700000003,,1302382.63,8,400,,,
break_continue,html.Screen,4_104_2,2023-05-01T22:20:39.271Z,,0,,,NaN,,,,,,false,,,,1302378.100000009,1302377.900000006,,1302377.5,,1302382.63,8,400,,,
sequence,flow.Sequence,4_104,2023-05-01T22:20:39.271Z,,0,,,2629.417000005953,completion,,,,,false,,,,1302378.400000006,1302377.900000006,1299731.957,1299734.900000006,1299748.483,1302382.63,8,400,,,
trial,html.Screen,4_105_0,2023-05-01T22:20:43.077Z,,0,3,,3801.1700000120327,response,ISIC_9017110.JPG,,ISIC_4695396.JPG,ISIC_4695396.JPG,false,1,keypress(m),500,1306184.200000003,1306183.800000012,1302366.115,1302378.5,1302382.63,1306200.452,8,400,6,,ISIC_9017110.JPG
break,html.Screen,4_105_1,2023-05-01T22:20:43.079Z,,0,,,NaN,,,,,,false,,,,1306185.800000012,1306185.400000006,,1306184.600000009,,1306200.452,8,400,,,
break_continue,html.Screen,4_105_2,2023-05-01T22:20:43.079Z,,0,,,NaN,,,,,,false,,,,1306186.5,1306186.300000012,,1306186,,1306200.452,8,400,,,
sequence,flow.Sequence,4_105,2023-05-01T22:20:43.080Z,,0,,,3803.6700000120327,completion,,,,,false,,,,1306186.700000003,1306186.300000012,1302366.115,1302378.5,1302382.63,1306200.452,8,400,,,
trial,html.Screen,4_106_0,2023-05-01T22:20:45.822Z,,0,3,,2728.0479999999516,response,ISIC_8120622.JPG,,ISIC_0027882.JPG,ISIC_8120622.JPG,false,1,keypress(m),500,1308928.800000012,1308928.5,1306183.704,1306186.900000006,1306200.452,1308934.623,8,400,7,,ISIC_0027882.JPG
break,html.Screen,4_106_1,2023-05-01T22:20:45.823Z,,0,,,NaN,,,,,,false,,,,1308930.400000006,1308930,,1308929.100000009,,1308934.623,8,400,,,
break_continue,html.Screen,4_106_2,2023-05-01T22:20:45.824Z,,0,,,NaN,,,,,,false,,,,1308931.100000009,1308930.800000012,,1308930.5,,1308934.623,8,400,,,
sequence,flow.Sequence,4_106,2023-05-01T22:20:45.824Z,,0,,,2730.3480000118725,completion,,,,,false,,,,1308931.300000012,1308930.800000012,1306183.704,1306186.900000006,1306200.452,1308934.623,8,400,,,
trial,html.Screen,4_107_0,2023-05-01T22:20:51.763Z,,0,3,,5934.7770000060555,response,ISIC_0056991.JPG,,ISIC_0033538.JPG,ISIC_0033538.JPG,false,0,keypress(z),500,1314869.800000012,1314869.400000006,1308918.252,1308931.600000009,1308934.623,1314886.489,8,400,8,,ISIC_0056991.JPG
break,html.Screen,4_107_1,2023-05-01T22:20:51.764Z,,0,,,NaN,,,,,,false,,,,1314871.300000012,1314870.900000006,,1314870,,1314886.489,8,400,,,
break_continue,html.Screen,4_107_2,2023-05-01T22:20:51.765Z,,0,,,NaN,,,,,,false,,,,1314872,1314871.900000006,,1314871.5,,1314886.489,8,400,,,
sequence,flow.Sequence,4_107,2023-05-01T22:20:51.765Z,,0,,,5937.2770000060555,completion,,,,,false,,,,1314872.400000006,1314871.900000006,1308918.252,1308931.5,1308934.623,1314886.489,8,400,,,
trial,html.Screen,4_108_0,2023-05-01T22:20:56.320Z,,0,3,,4539.711000002921,response,ISIC_1348843.JPG,,ISIC_3249704.JPG,ISIC_3249704.JPG,false,0,keypress(z),500,1319426.800000012,1319426.200000003,1314870.011,1314872.600000009,1314886.489,1319437.779,8,400,9,,ISIC_1348843.JPG
break,html.Screen,4_108_1,2023-05-01T22:20:56.322Z,,0,,,NaN,,,,,,false,,,,1319428.900000006,1319428.200000003,,1319427.300000012,,1319437.779,8,400,,,
break_continue,html.Screen,4_108_2,2023-05-01T22:20:56.323Z,,0,,,NaN,,,,,,false,,,,1319429.900000006,1319429.600000009,,1319429.100000009,,1319437.779,8,400,,,
sequence,flow.Sequence,4_108,2023-05-01T22:20:56.323Z,,0,,,4543.111000008881,completion,,,,,false,,,,1319430.100000009,1319429.600000009,1314870.011,1314872.5,1314886.489,1319437.779,8,400,,,
trial,html.Screen,4_109_0,2023-05-01T22:20:59.723Z,,0,3,,3391.720999999903,response,ISIC_0027112.JPG,,ISIC_8008242.JPG,ISIC_8008242.JPG,false,0,keypress(z),500,1322829.900000006,1322829.5,1319420.904,1319430.300000012,1319437.779,1322838.839,8,400,10,,ISIC_0027112.JPG
break,html.Screen,4_109_1,2023-05-01T22:20:59.725Z,,0,,,NaN,,,,,,false,,,,1322831.800000012,1322831.300000012,,1322830.400000006,,1322838.839,8,400,,,
break_continue,html.Screen,4_109_2,2023-05-01T22:20:59.726Z,,0,,,NaN,,,,,,false,,,,1322832.700000003,1322832.5,,1322832.200000003,,1322838.839,8,400,,,
sequence,flow.Sequence,4_109,2023-05-01T22:20:59.726Z,,0,,,3394.720999999903,completion,,,,,false,,,,1322832.900000006,1322832.5,1319420.904,1319430.300000012,1319437.779,1322838.839,8,400,,,
trial,html.Screen,4_110_0,2023-05-01T22:21:05.582Z,,0,3,,5850.061000006041,response,ISIC_9720518.JPG,,ISIC_2470790.JPG,ISIC_2470790.JPG,false,0,keypress(z),500,1328689.200000003,1328688.900000006,1322822.235,1322833.200000003,1322838.839,1328713.287,8,400,11,,ISIC_9720518.JPG
break,html.Screen,4_110_1,2023-05-01T22:21:05.584Z,,0,,,NaN,,,,,,false,,,,1328690.900000006,1328690.400000006,,1328689.5,,1328713.287,8,400,,,
break_continue,html.Screen,4_110_2,2023-05-01T22:21:05.585Z,,0,,,NaN,,,,,,false,,,,1328691.600000009,1328691.300000012,,1328691,,1328713.287,8,400,,,
sequence,flow.Sequence,4_110,2023-05-01T22:21:05.585Z,,0,,,5852.461000012001,completion,,,,,false,,,,1328692,1328691.300000012,1322822.235,1322833.200000003,1322838.839,1328713.287,8,400,,,
trial,html.Screen,4_111_0,2023-05-01T22:21:08.802Z,,0,3,,3195.413000002969,response,ISIC_1216698.JPG,,ISIC_0024519.JPG,ISIC_1216698.JPG,false,1,keypress(m),500,1331909.100000009,1331908.700000003,1328674.126,1328692.100000009,1328713.287,1331924.855,8,400,12,,ISIC_0024519.JPG
break,html.Screen,4_111_1,2023-05-01T22:21:08.804Z,,0,,,NaN,,,,,,false,,,,1331911.100000009,1331910.600000009,,1331909.5,,1331924.855,8,400,,,
break_continue,html.Screen,4_111_2,2023-05-01T22:21:08.805Z,,0,,,NaN,,,,,,false,,,,1331911.800000012,1331911.700000003,,1331911.300000012,,1331924.855,8,400,,,
sequence,flow.Sequence,4_111,2023-05-01T22:21:08.805Z,,0,,,3198.413000002969,completion,,,,,false,,,,1331912.200000003,1331911.700000003,1328674.126,1328692.100000009,1328713.287,1331924.855,8,400,,,
trial,html.Screen,4_112_0,2023-05-01T22:21:11.802Z,,0,3,,2984.2450000089593,response,ISIC_2948896.JPG,,ISIC_0032858.JPG,ISIC_2948896.JPG,false,1,keypress(m),500,1334909.5,1334909.100000009,1331908.43,1331912.400000006,1331924.855,1334925.851,8,400,13,,ISIC_0032858.JPG
break,html.Screen,4_112_1,2023-05-01T22:21:11.804Z,,0,,,NaN,,,,,,false,,,,1334911.400000006,1334910.600000009,,1334909.900000006,,1334925.851,8,400,,,
break_continue,html.Screen,4_112_2,2023-05-01T22:21:11.805Z,,0,,,NaN,,,,,,false,,,,1334912.200000003,1334911.900000006,,1334911.600000009,,1334925.851,8,400,,,
sequence,flow.Sequence,4_112,2023-05-01T22:21:11.805Z,,0,,,2987.045000005979,completion,,,,,false,,,,1334912.5,1334911.900000006,1331908.43,1331912.300000012,1331924.855,1334925.851,8,400,,,
trial,html.Screen,4_113_0,2023-05-01T22:21:14.628Z,,0,3,,2808.9490000118967,response,ISIC_5353986.JPG,,ISIC_1348538.JPG,ISIC_1348538.JPG,false,0,keypress(z),500,1337735.200000003,1337734.800000012,1334908.821,1334912.700000003,1334925.851,1337743.302,8,400,14,,ISIC_5353986.JPG
break,html.Screen,4_113_1,2023-05-01T22:21:14.630Z,,0,,,NaN,,,,,,false,,,,1337736.800000012,1337736.300000012,,1337735.400000006,,1337743.302,8,400,,,
break_continue,html.Screen,4_113_2,2023-05-01T22:21:14.630Z,,0,,,NaN,,,,,,false,,,,1337737.5,1337737.300000012,,1337737,,1337743.302,8,400,,,
sequence,flow.Sequence,4_113,2023-05-01T22:21:14.631Z,,0,,,2811.4490000118967,completion,,,,,false,,,,1337737.800000012,1337737.300000012,1334908.821,1334912.600000009,1334925.851,1337743.302,8,400,,,
trial,html.Screen,4_114_0,2023-05-01T22:21:17.669Z,,0,3,,3032.5980000060517,response,ISIC_2743014.JPG,,ISIC_0046659.JPG,ISIC_2743014.JPG,false,1,keypress(m),500,1340776.300000012,1340775.900000006,1337726.943,1337738,1337743.302,1340808.167,8,400,15,,ISIC_0046659.JPG
break,html.Screen,4_114_1,2023-05-01T22:21:17.671Z,,0,,,NaN,,,,,,false,,,,1340778,1340777.300000012,,1340776.600000009,,1340808.167,8,400,,,
break_continue,html.Screen,4_114_2,2023-05-01T22:21:17.672Z,,0,,,NaN,,,,,,false,,,,1340778.800000012,1340778.5,,1340778.200000003,,1340808.167,8,400,,,
sequence,flow.Sequence,4_114,2023-05-01T22:21:17.672Z,,0,,,3035.1980000000913,completion,,,,,false,,,,1340779,1340778.5,1337726.943,1337738,1337743.302,1340808.167,8,400,,,
trial,html.Screen,4_115_0,2023-05-01T22:21:21.979Z,,0,3,,4276.433000009041,response,ISIC_0428383.JPG,,ISIC_0025369.JPG,ISIC_0025369.JPG,false,0,keypress(z),500,1345085,1345084.600000009,1340760.932,1340779.200000003,1340808.167,1345095.532,8,400,16,,ISIC_0428383.JPG
break,html.Screen,4_115_1,2023-05-01T22:21:21.981Z,,0,,,NaN,,,,,,false,,,,1345086.900000006,1345086.300000012,,1345085.300000012,,1345095.532,8,400,,,
break_continue,html.Screen,4_115_2,2023-05-01T22:21:21.981Z,,0,,,NaN,,,,,,false,,,,1345087.600000009,1345087.400000006,,1345087,,1345095.532,8,400,,,
sequence,flow.Sequence,4_115,2023-05-01T22:21:21.982Z,,0,,,4279.233000006061,completion,,,,,false,,,,1345087.900000006,1345087.400000006,1340760.932,1340779.100000009,1340808.167,1345095.532,8,400,,,
trial,html.Screen,4_116_0,2023-05-01T22:21:25.880Z,,0,3,,3890.0680000090506,response,ISIC_0448195.JPG,,ISIC_5041679.JPG,ISIC_5041679.JPG,false,0,keypress(z),500,1348986,1348985.600000009,1345078.886,1345088.100000009,1345095.532,1348996.677,8,400,17,,ISIC_0448195.JPG
break,html.Screen,4_116_1,2023-05-01T22:21:25.881Z,,0,,,NaN,,,,,,false,,,,1348987.300000012,1348986.900000006,,1348986.300000012,,1348996.677,8,400,,,
break_continue,html.Screen,4_116_2,2023-05-01T22:21:25.882Z,,0,,,NaN,,,,,,false,,,,1348988,1348987.800000012,,1348987.5,,1348996.677,8,400,,,
sequence,flow.Sequence,4_116,2023-05-01T22:21:25.882Z,,0,,,3892.268000012031,completion,,,,,false,,,,1348988.200000003,1348987.800000012,1345078.886,1345088,1345095.532,1348996.677,8,400,,,
trial,html.Screen,4_117_0,2023-05-01T22:21:28.933Z,,0,3,,3042.5230000030715,response,ISIC_0029651.JPG,,ISIC_0781315.JPG,ISIC_0781315.JPG,false,0,keypress(z),500,1352039.400000006,1352039.200000003,1348979.91,1348988.400000006,1348996.677,1352047.602,8,400,18,,ISIC_0029651.JPG
break,html.Screen,4_117_1,2023-05-01T22:21:28.935Z,,0,,,NaN,,,,,,false,,,,1352040.800000012,1352040.5,,1352039.800000012,,1352047.602,8,400,,,
break_continue,html.Screen,4_117_2,2023-05-01T22:21:28.935Z,,0,,,NaN,,,,,,false,,,,1352041.400000006,1352041.300000012,,1352040.900000006,,1352047.602,8,400,,,
sequence,flow.Sequence,4_117,2023-05-01T22:21:28.935Z,,0,,,3044.623000012012,completion,,,,,false,,,,1352041.700000003,1352041.300000012,1348979.91,1348988.400000006,1348996.677,1352047.602,8,400,,,
trial,html.Screen,4_118_0,2023-05-01T22:21:32.573Z,,0,3,,3631.798000006005,response,ISIC_0014221.JPG,,ISIC_0624779.JPG,ISIC_0014221.JPG,false,1,keypress(m),500,1355679.700000003,1355679.400000006,1352031.233,1352041.900000006,1352047.602,1355682.034,8,400,19,,ISIC_0624779.JPG
break,html.Screen,4_118_1,2023-05-01T22:21:32.575Z,,0,,,NaN,,,,,,false,,,,1355681.100000009,1355680.600000009,,1355680,,1355682.034,8,400,,,
break_continue,html.Screen,4_118_2,2023-05-01T22:21:32.575Z,,0,,,NaN,,,,,,false,,,,1355681.800000012,1355681.5,,1355681.200000003,,1355682.034,8,400,,,
sequence,flow.Sequence,4_118,2023-05-01T22:21:32.576Z,,0,,,3633.8980000000447,completion,,,,,false,,,,1355682,1355681.5,1352031.233,1352041.800000012,1352047.602,1355682.034,8,400,,,
trial,html.Screen,4_119_0,2023-05-01T22:21:36.886Z,,0,3,,4309.266000011936,response,ISIC_0000502.JPG,,ISIC_0058946.JPG,ISIC_0000502.JPG,false,1,keypress(m),500,1359991.800000012,1359991.300000012,1355665.672,1355682.200000003,1355682.034,1359999.985,8,400,20,,ISIC_0058946.JPG
break,html.Screen,4_119_1,2023-05-01T22:21:36.888Z,,0,,,NaN,,,,,,false,,,,1359993.700000003,1359993.300000012,,1359992.300000012,,1359999.985,8,400,,,
break_continue,html.Screen,4_119_2,2023-05-01T22:21:36.888Z,,0,,,NaN,,,,,,false,,,,1359994.600000009,1359994.300000012,,1359994,,1359999.985,8,400,,,
sequence,flow.Sequence,4_119,2023-05-01T22:21:36.889Z,,0,,,4312.266000011936,completion,,,,,false,,,,1359994.900000006,1359994.300000012,1355665.672,1355682.200000003,1355682.034,1359999.985,8,400,,,
trial,html.Screen,4_120_0,2023-05-01T22:21:45.789Z,,0,3,,8895.115000008838,response,ISIC_5278307.JPG,,ISIC_7967397.JPG,ISIC_7967397.JPG,false,0,keypress(z),500,1368895.5,1368895.100000009,1359983.167,1359995.100000009,1359999.985,1368902.69,8,400,21,,ISIC_5278307.JPG
break,html.Screen,4_120_1,2023-05-01T22:21:45.791Z,,0,,,NaN,,,,,,false,,,,1368897.200000003,1368896.700000003,,1368896,,1368902.69,8,400,,,
break_continue,html.Screen,4_120_2,2023-05-01T22:21:45.792Z,,0,,,NaN,,,,,,false,,,,1368898,1368897.800000012,,1368897.400000006,,1368902.69,8,400,,,
sequence,flow.Sequence,4_120,2023-05-01T22:21:45.792Z,,0,,,8897.815000011818,completion,,,,,false,,,,1368898.200000003,1368897.800000012,1359983.167,1359995,1359999.985,1368902.69,8,400,,,
trial,html.Screen,4_121_0,2023-05-01T22:21:48.422Z,,0,3,,2625.7100000060163,response,ISIC_9495211.JPG,,ISIC_0057759.JPG,ISIC_0057759.JPG,false,0,keypress(z),500,1371528.700000003,1371528.400000006,1368885.847,1368898.400000006,1368902.69,1371536.841,8,400,22,,ISIC_9495211.JPG
break,html.Screen,4_121_1,2023-05-01T22:21:48.424Z,,0,,,NaN,,,,,,false,,,,1371530,1371529.600000009,,1371528.900000006,,1371536.841,8,400,,,
break_continue,html.Screen,4_121_2,2023-05-01T22:21:48.425Z,,0,,,NaN,,,,,,false,,,,1371531,1371530.700000003,,1371530.300000012,,1371536.841,8,400,,,
sequence,flow.Sequence,4_121,2023-05-01T22:21:48.425Z,,0,,,2628.010000003036,completion,,,,,false,,,,1371531.300000012,1371530.700000003,1368885.847,1368898.300000012,1368902.69,1371536.841,8,400,,,
trial,html.Screen,4_122_0,2023-05-01T22:21:52.265Z,,0,3,,3833.8590000029653,response,ISIC_5948805.JPG,,ISIC_0057218.JPG,ISIC_5948805.JPG,false,1,keypress(m),500,1375371.100000009,1375370.700000003,1371520.308,1371531.400000006,1371536.841,1375388.174,8,400,23,,ISIC_0057218.JPG
break,html.Screen,4_122_1,2023-05-01T22:21:52.267Z,,0,,,NaN,,,,,,false,,,,1375373,1375372.600000009,,1375371.5,,1375388.174,8,400,,,
break_continue,html.Screen,4_122_2,2023-05-01T22:21:52.268Z,,0,,,NaN,,,,,,false,,,,1375373.800000012,1375373.600000009,,1375373.300000012,,1375388.174,8,400,,,
sequence,flow.Sequence,4_122,2023-05-01T22:21:52.268Z,,0,,,3836.759000008926,completion,,,,,false,,,,1375374.100000009,1375373.600000009,1371520.308,1371531.300000012,1371536.841,1375388.174,8,400,,,
trial,html.Screen,4_123_0,2023-05-01T22:21:56.955Z,,0,3,,4672.526000002865,response,ISIC_0064060.JPG,,ISIC_0057083.JPG,ISIC_0057083.JPG,false,0,keypress(z),500,1380060.900000006,1380060.700000003,1375371.635,1375374.300000012,1375388.174,1380072.707,8,400,24,,ISIC_0064060.JPG
break,html.Screen,4_123_1,2023-05-01T22:21:56.956Z,,0,,,NaN,,,,,,false,,,,1380062.300000012,1380062,,1380061.100000009,,1380072.707,8,400,,,
break_continue,html.Screen,4_123_2,2023-05-01T22:21:56.957Z,,0,,,NaN,,,,,,false,,,,1380062.900000006,1380062.800000012,,1380062.600000009,,1380072.707,8,400,,,
sequence,flow.Sequence,4_123,2023-05-01T22:21:56.957Z,,0,,,4674.626000011805,completion,,,,,false,,,,1380063.200000003,1380062.800000012,1375371.635,1375374.100000009,1375388.174,1380072.707,8,400,,,
trial,html.Screen,4_124_0,2023-05-01T22:22:00.693Z,,0,3,,3726.2930000000633,response,ISIC_7596681.JPG,,ISIC_0033086.JPG,ISIC_7596681.JPG,false,1,keypress(m),500,1383799.300000012,1383799,1380055.919,1380063.300000012,1380072.707,1383807.155,8,400,25,,ISIC_0033086.JPG
break,html.Screen,4_124_1,2023-05-01T22:22:00.695Z,,0,,,NaN,,,,,,false,,,,1383801,1383800.5,,1383799.700000003,,1383807.155,8,400,,,
break_continue,html.Screen,4_124_2,2023-05-01T22:22:00.695Z,,0,,,NaN,,,,,,false,,,,1383801.600000009,1383801.400000006,,1383801.100000009,,1383807.155,8,400,,,
sequence,flow.Sequence,4_124,2023-05-01T22:22:00.696Z,,0,,,3728.693000006024,completion,,,,,false,,,,1383801.900000006,1383801.400000006,1380055.919,1380063.300000012,1380072.707,1383807.155,8,400,,,
trial,html.Screen,4_125_0,2023-05-01T22:22:03.730Z,,0,3,,3028.844999999972,response,ISIC_4237064.JPG,,ISIC_0034253.JPG,ISIC_4237064.JPG,false,1,keypress(m),500,1386836.400000006,1386836,1383790.659,1383802.100000009,1383807.155,1386841.506,8,400,26,,ISIC_0034253.JPG
