sender,sender_type,sender_id,timestamp,meta,,blockNo,condition,duration,ended_on,img_left,img_reveal,img_right,loser,practice,response,response_action,selection_duration,time_commit,time_end,time_render,time_run,time_show,time_switch,total_blocks,total_trials,trialNo,url,winner
informed_consent,html.Screen,0,2023-11-01T16:10:36.305Z,"{""labjs_version"":""20.2.4"",""labjs_build"":{""flavor"":""production"",""commit"":""f5b4a49f956347addd546a832a3327688c2c0fef""},""location"":""https://run.pavlovia.org/MurrayBennett/melanoma-2afc/?participant=67687&platform=sona"",""userAgent"":""Mozilla/5.0 (Macintosh; Intel Mac OS X 10_15_7) AppleWebKit/537.36 (KHTML, like Gecko) Chrome/118.0.0.0 Safari/537.36"",""platform"":""MacIntel"",""language"":""en-US"",""locale"":""en-US"",""timeZone"":""America/Chicago"",""timezoneOffset"":300,""screen_width"":1710,""screen_height"":1107,""scroll_width"":1577,""scroll_height"":843,""window_innerWidth"":1577,""window_innerHeight"":891,""devicePixelRatio"":2}",,,,12263.76099999702,response,,,,,,consent,click button,,14558.59999999404,14554.79999999702,2274.373,2268,2291.039,14574.394,,,,"{""participant"":""67687"",""platform"":""sona""}",
Welcome,html.Screen,1,2023-11-01T16:10:52.040Z,,,,asymmetry,15716.70599999404,response,,,,,,continue,click button,,30293.59999999404,30291.09999999404,14541.062,14558.89999999106,14574.394,30307.389,,,,,
trial,html.Screen,2_0_0,2023-11-01T16:10:59.410Z,,0,0,,7355.111000000001,response,ISIC_6997061.JPG,,ISIC_0069348.JPG,ISIC_0069348.JPG,true,0,keypress(z),500,37663.19999998808,37662.5,30290.723,30294.09999999404,30307.389,37673.761,1,6,1,,ISIC_6997061.JPG
sequence,flow.Sequence,2_0,2023-11-01T16:10:59.411Z,,0,,,7355.111000000001,completion,,,,,true,,,,37663.89999999106,37662.5,30290.723,30294,30307.389,37673.761,1,6,,,
trial,html.Screen,2_1_0,2023-11-01T16:11:05.590Z,,0,0,,6168.739000000001,response,ISIC_0057368.JPG,,ISIC_0009529.JPG,ISIC_0057368.JPG,true,1,keypress(m),500,43843.09999999404,43842.5,37657.095,37664.19999998808,37673.761,43857.857,1,6,2,,ISIC_0009529.JPG
sequence,flow.Sequence,2_1,2023-11-01T16:11:05.590Z,,0,,,6168.739000000001,completion,,,,,true,,,,43843.39999999106,43842.5,37657.095,37664,37673.761,43857.857,1,6,,,
trial,html.Screen,2_2_0,2023-11-01T16:11:11.147Z,,0,0,,5541.3429999880755,response,ISIC_9758671.JPG,,ISIC_0064954.JPG,ISIC_0064954.JPG,true,0,keypress(z),500,49399.79999999702,49399.19999998808,43841.191,43843.69999998808,43857.857,49407.635,1,6,3,,ISIC_9758671.JPG
sequence,flow.Sequence,2_2,2023-11-01T16:11:11.147Z,,0,,,5541.3429999880755,completion,,,,,true,,,,49400.39999999106,49399.19999998808,43841.191,43843.59999999404,43857.857,49407.635,1,6,,,
trial,html.Screen,2_3_0,2023-11-01T16:11:16.752Z,,0,0,,5596.4649999940375,response,ISIC_0005785.JPG,,ISIC_0000080.JPG,ISIC_0000080.JPG,true,0,keypress(z),500,55004.5,55004.09999999404,49390.969,49400.59999999404,49407.635,55007.933,1,6,4,,ISIC_0005785.JPG
sequence,flow.Sequence,2_3,2023-11-01T16:11:16.752Z,,0,,,5596.4649999940375,completion,,,,,true,,,,55005,55004.09999999404,49390.969,49400.59999999404,49407.635,55007.933,1,6,,,
trial,html.Screen,2_4_0,2023-11-01T16:11:20.421Z,,0,0,,3665.0670000000027,response,ISIC_5390060.JPG,,ISIC_7944028.JPG,ISIC_5390060.JPG,true,1,keypress(m),500,58673.59999999404,58673,54991.267,55005.39999999106,55007.933,58691.119,1,6,5,,ISIC_7944028.JPG
sequence,flow.Sequence,2_4,2023-11-01T16:11:20.421Z,,0,,,3665.0670000000027,completion,,,,,true,,,,58674,58673,54991.267,55005.29999999702,55007.933,58691.119,1,6,,,
trial,html.Screen,2_5_0,2023-11-01T16:11:24.475Z,,0,0,,4035.7809999910605,response,ISIC_0794216.JPG,,ISIC_0010188.JPG,ISIC_0010188.JPG,true,0,keypress(z),500,62727.39999999106,62726.89999999106,58674.453,58674.29999999702,58691.119,62740.957,1,6,6,,ISIC_0794216.JPG
sequence,flow.Sequence,2_5,2023-11-01T16:11:24.475Z,,0,,,4035.7809999910605,completion,,,,,true,,,,62727.89999999106,62726.89999999106,58674.453,58674.19999998808,58691.119,62740.957,1,6,,,
loop,flow.Loop,2,2023-11-01T16:11:24.475Z,,,,,32419.51099999106,completion,,,,,true,,,,62728.19999998808,62726.89999999106,30290.723,30293.89999999106,30307.389,62740.957,1,6,,,
exp_instructions,html.Screen,3,2023-11-01T16:11:32.397Z,,,,,7903.242999988077,response,,,,,,continue,keypress(Space),,70649.79999999702,70644.19999998808,62724.291,62728.29999999702,62740.957,70657.307,,,,,
trial,html.Screen,4_0_0,2023-11-01T16:11:43.896Z,,0,1,,11516.906000000003,timeout,ISIC_8159718.JPG,7,ISIC_4223155.JPG,,false,,,500,82148.39999999106,82148,70640.641,70650.09999999404,70657.307,82174.213,8,400,1,,
break,html.Screen,4_0_1,2023-11-01T16:11:43.897Z,,0,,,NaN,,,,,,false,,,,82149.69999998808,82149.39999999106,,82148.69999998808,,82174.213,8,400,,,
break_continue,html.Screen,4_0_2,2023-11-01T16:11:43.898Z,,0,,,NaN,,,,,,false,,,,82150.09999999404,82150,,82149.79999999702,,82174.213,8,400,,,
sequence,flow.Sequence,4_0,2023-11-01T16:11:43.898Z,,0,,,11492.693,completion,,,,,false,,,,82150.19999998808,82150,70640.641,70650.09999999404,70657.307,82174.213,8,400,,,
trial,html.Screen,4_1_0,2023-11-01T16:11:48.191Z,,0,1,,4268.686999991056,response,ISIC_0031745.JPG,8,ISIC_0061343.JPG,ISIC_0061343.JPG,false,0,keypress(z),500,86443.19999998808,86442.89999999106,82157.547,82150.29999999702,82174.213,86457.375,8,400,2,,ISIC_0031745.JPG
break,html.Screen,4_1_1,2023-11-01T16:11:48.192Z,,0,,,NaN,,,,,,false,,,,86444.19999998808,86444,,86443.5,,86457.375,8,400,,,
break_continue,html.Screen,4_1_2,2023-11-01T16:11:48.192Z,,0,,,NaN,,,,,,false,,,,86444.59999999404,86444.5,,86444.39999999106,,86457.375,8,400,,,
sequence,flow.Sequence,4_1,2023-11-01T16:11:48.192Z,,0,,,4270.286999999997,completion,,,,,false,,,,86444.79999999702,86444.5,82157.547,82150.29999999702,82174.213,86457.375,8,400,,,
trial,html.Screen,4_2_0,2023-11-01T16:11:52.517Z,,0,1,,4311.7249999940395,response,ISIC_0072292.JPG,9,ISIC_2071966.JPG,ISIC_0072292.JPG,false,1,keypress(m),500,90769.39999999106,90769.09999999404,86440.709,86444.89999999106,86457.375,90773.869,8,400,3,,ISIC_2071966.JPG
break,html.Screen,4_2_1,2023-11-01T16:11:52.518Z,,0,,,NaN,,,,,,false,,,,90770.39999999106,90770.09999999404,,90769.69999998808,,90773.869,8,400,,,
break_continue,html.Screen,4_2_2,2023-11-01T16:11:52.519Z,,0,,,NaN,,,,,,false,,,,90770.69999998808,90770.59999999404,,90770.5,,90773.869,8,400,,,
sequence,flow.Sequence,4_2,2023-11-01T16:11:52.519Z,,0,,,4313.2249999940395,completion,,,,,false,,,,90770.89999999106,90770.59999999404,86440.709,86444.79999999702,86457.375,90773.869,8,400,,,
trial,html.Screen,4_3_0,2023-11-01T16:11:56.764Z,,0,1,,4242.130999999994,response,ISIC_4425657.JPG,8,ISIC_9353514.JPG,ISIC_9353514.JPG,false,0,keypress(z),500,95016.39999999106,95016,90757.203,90771.09999999404,90773.869,95024.469,8,400,4,,ISIC_4425657.JPG
break,html.Screen,4_3_1,2023-11-01T16:11:56.765Z,,0,,,NaN,,,,,,false,,,,95017.29999999702,95017.09999999404,,95016.69999998808,,95024.469,8,400,,,
break_continue,html.Screen,4_3_2,2023-11-01T16:11:56.766Z,,0,,,NaN,,,,,,false,,,,95017.69999998808,95017.59999999404,,95017.5,,95024.469,8,400,,,
sequence,flow.Sequence,4_3,2023-11-01T16:11:56.766Z,,0,,,4243.7309999940335,completion,,,,,false,,,,95017.89999999106,95017.59999999404,90757.203,90771,90773.869,95024.469,8,400,,,
trial,html.Screen,4_4_0,2023-11-01T16:12:00.834Z,,0,1,,4061.630999994042,response,ISIC_6384906.JPG,8,ISIC_0028462.JPG,ISIC_0028462.JPG,false,0,keypress(z),500,99086.29999999702,99086.09999999404,95007.803,95018.09999999404,95024.469,99090.973,8,400,5,,ISIC_6384906.JPG
break,html.Screen,4_4_1,2023-11-01T16:12:00.835Z,,0,,,NaN,,,,,,false,,,,99086.59999999404,99086.59999999404,,99086.39999999106,,99090.973,8,400,,,
break_continue,html.Screen,4_4_2,2023-11-01T16:12:00.835Z,,0,,,NaN,,,,,,false,,,,99086.79999999702,99086.69999998808,,99086.69999998808,,99090.973,8,400,,,
sequence,flow.Sequence,4_4,2023-11-01T16:12:00.835Z,,0,,,4062.2309999880817,completion,,,,,false,,,,99086.79999999702,99086.69999998808,95007.803,95018,95024.469,99090.973,8,400,,,
trial,html.Screen,4_5_0,2023-11-01T16:12:04.086Z,,0,1,,3247.1269999940414,response,ISIC_0033399.JPG,6,ISIC_6208107.JPG,ISIC_6208107.JPG,false,0,keypress(z),500,102338.39999999106,102338.09999999404,99074.307,99086.89999999106,99090.973,102340.843,8,400,6,,ISIC_0033399.JPG
break,html.Screen,4_5_1,2023-11-01T16:12:04.087Z,,0,,,NaN,,,,,,false,,,,102339.29999999702,102339.19999998808,,102338.69999998808,,102340.843,8,400,,,
break_continue,html.Screen,4_5_2,2023-11-01T16:12:04.088Z,,0,,,NaN,,,,,,false,,,,102339.69999998808,102339.59999999404,,102339.39999999106,,102340.843,8,400,,,
sequence,flow.Sequence,4_5,2023-11-01T16:12:04.088Z,,0,,,3248.6269999940414,completion,,,,,false,,,,102339.89999999106,102339.59999999404,99074.307,99086.89999999106,99090.973,102340.843,8,400,,,
trial,html.Screen,4_6_0,2023-11-01T16:12:06.908Z,,0,1,,2818.256999994046,response,ISIC_0027764.JPG,5,ISIC_8423326.JPG,ISIC_8423326.JPG,false,0,keypress(z),500,105159.5,105159.09999999404,102324.177,102340.09999999404,102340.843,105174.457,8,400,7,,ISIC_0027764.JPG
break,html.Screen,4_6_1,2023-11-01T16:12:06.908Z,,0,,,NaN,,,,,,false,,,,105160.39999999106,105160.19999998808,,105159.69999998808,,105174.457,8,400,,,
break_continue,html.Screen,4_6_2,2023-11-01T16:12:06.909Z,,0,,,NaN,,,,,,false,,,,105160.69999998808,105160.59999999404,,105160.5,,105174.457,8,400,,,
sequence,flow.Sequence,4_6,2023-11-01T16:12:06.909Z,,0,,,2819.756999994046,completion,,,,,false,,,,105160.89999999106,105160.59999999404,102324.177,102340,102340.843,105174.457,8,400,,,
trial,html.Screen,4_7_0,2023-11-01T16:12:10.529Z,,0,1,,3606.1429999940447,response,ISIC_0013639.JPG,7,ISIC_0000065.JPG,ISIC_0013639.JPG,false,1,keypress(m),500,108780.89999999106,108780.59999999404,105157.791,105161,105174.457,108790.979,8,400,8,,ISIC_0000065.JPG
break,html.Screen,4_7_1,2023-11-01T16:12:10.530Z,,0,,,NaN,,,,,,false,,,,108782,108781.69999998808,,108781.19999998808,,108790.979,8,400,,,
break_continue,html.Screen,4_7_2,2023-11-01T16:12:10.531Z,,0,,,NaN,,,,,,false,,,,108782.39999999106,108782.19999998808,,108782.19999998808,,108790.979,8,400,,,
sequence,flow.Sequence,4_7,2023-11-01T16:12:10.531Z,,0,,,3607.742999988084,completion,,,,,false,,,,108782.59999999404,108782.19999998808,105157.791,105161,105174.457,108790.979,8,400,,,
trial,html.Screen,4_8_0,2023-11-01T16:12:13.516Z,,0,1,,2976.0209999999934,response,ISIC_0070050.JPG,8,ISIC_0054777.JPG,ISIC_0070050.JPG,false,1,keypress(m),500,111767.29999999702,111767,108774.313,108782.69999998808,108790.979,111774.193,8,400,9,,ISIC_0054777.JPG
break,html.Screen,4_8_1,2023-11-01T16:12:13.516Z,,0,,,NaN,,,,,,false,,,,111768.29999999702,111768.09999999404,,111767.59999999404,,111774.193,8,400,,,
break_continue,html.Screen,4_8_2,2023-11-01T16:12:13.517Z,,0,,,NaN,,,,,,false,,,,111768.59999999404,111768.5,,111768.29999999702,,111774.193,8,400,,,
sequence,flow.Sequence,4_8,2023-11-01T16:12:13.517Z,,0,,,2977.5209999999934,completion,,,,,false,,,,111768.79999999702,111768.5,108774.313,108782.69999998808,108790.979,111774.193,8,400,,,
trial,html.Screen,4_9_0,2023-11-01T16:12:17.377Z,,0,1,,3853.8070000000007,response,ISIC_0014127.JPG,7,ISIC_0030704.JPG,ISIC_0014127.JPG,false,1,keypress(m),500,115628.39999999106,115628,111757.527,111768.89999999106,111774.193,115641.098,8,400,10,,ISIC_0030704.JPG
break,html.Screen,4_9_1,2023-11-01T16:12:17.378Z,,0,,,NaN,,,,,,false,,,,115629.39999999106,115629.09999999404,,115628.69999998808,,115641.098,8,400,,,
break_continue,html.Screen,4_9_2,2023-11-01T16:12:17.378Z,,0,,,NaN,,,,,,false,,,,115629.69999998808,115629.59999999404,,115629.5,,115641.098,8,400,,,
sequence,flow.Sequence,4_9,2023-11-01T16:12:17.378Z,,0,,,3855.4069999940402,completion,,,,,false,,,,115629.89999999106,115629.59999999404,111757.527,111768.79999999702,111774.193,115641.098,8,400,,,
trial,html.Screen,4_10_0,2023-11-01T16:12:21.543Z,,0,1,,4153.001999994041,response,ISIC_0031877.JPG,8,ISIC_1685962.JPG,ISIC_1685962.JPG,false,0,keypress(z),500,119794.39999999106,119794.09999999404,115624.432,115630,115641.098,119807.598,8,400,11,,ISIC_0031877.JPG
break,html.Screen,4_10_1,2023-11-01T16:12:21.544Z,,0,,,NaN,,,,,,false,,,,119795.29999999702,119795.09999999404,,119794.79999999702,,119807.598,8,400,,,
break_continue,html.Screen,4_10_2,2023-11-01T16:12:21.544Z,,0,,,NaN,,,,,,false,,,,119795.69999998808,119795.59999999404,,119795.5,,119807.598,8,400,,,
sequence,flow.Sequence,4_10,2023-11-01T16:12:21.544Z,,0,,,4154.501999994041,completion,,,,,false,,,,119795.79999999702,119795.59999999404,115624.432,115629.89999999106,115641.098,119807.598,8,400,,,
trial,html.Screen,4_11_0,2023-11-01T16:12:26.255Z,,0,1,,4698.902000000002,response,ISIC_0010850.JPG,7,ISIC_0072564.JPG,ISIC_0072564.JPG,false,0,keypress(z),500,124506.79999999702,124506.5,119790.932,119796,119807.598,124507.785,8,400,12,,ISIC_0010850.JPG
break,html.Screen,4_11_1,2023-11-01T16:12:26.256Z,,0,,,NaN,,,,,,false,,,,124507.39999999106,124507.29999999702,,124507,,124507.785,8,400,,,
break_continue,html.Screen,4_11_2,2023-11-01T16:12:26.256Z,,0,,,NaN,,,,,,false,,,,124507.69999998808,124507.59999999404,,124507.5,,124507.785,8,400,,,
sequence,flow.Sequence,4_11,2023-11-01T16:12:26.256Z,,0,,,4700.001999994041,completion,,,,,false,,,,124507.69999998808,124507.59999999404,119790.932,119795.89999999106,119807.598,124507.785,8,400,,,
trial,html.Screen,4_12_0,2023-11-01T16:12:31.417Z,,0,1,,5160.014999997016,response,ISIC_0028412.JPG,7,ISIC_4606646.JPG,ISIC_4606646.JPG,false,0,keypress(z),500,129668.09999999404,129667.79999999702,124491.119,124507.89999999106,124507.785,129690.911,8,400,13,,ISIC_0028412.JPG
break,html.Screen,4_12_1,2023-11-01T16:12:31.418Z,,0,,,NaN,,,,,,false,,,,129669.09999999404,129668.89999999106,,129668.39999999106,,129690.911,8,400,,,
break_continue,html.Screen,4_12_2,2023-11-01T16:12:31.418Z,,0,,,NaN,,,,,,false,,,,129669.39999999106,129669.29999999702,,129669.19999998808,,129690.911,8,400,,,
sequence,flow.Sequence,4_12,2023-11-01T16:12:31.418Z,,0,,,5161.514999997016,completion,,,,,false,,,,129669.59999999404,129669.29999999702,124491.119,124507.79999999702,124507.785,129690.911,8,400,,,
trial,html.Screen,4_13_0,2023-11-01T16:12:35.998Z,,0,1,,4557.9889999910665,response,ISIC_8265105.JPG,8,ISIC_2436560.JPG,ISIC_2436560.JPG,false,0,keypress(z),500,134249.29999999702,134248.89999999106,129674.245,129669.79999999702,129690.911,134257.395,8,400,14,,ISIC_8265105.JPG
break,html.Screen,4_13_1,2023-11-01T16:12:35.999Z,,0,,,NaN,,,,,,false,,,,134250.19999998808,134250,,134249.59999999404,,134257.395,8,400,,,
break_continue,html.Screen,4_13_2,2023-11-01T16:12:35.999Z,,0,,,NaN,,,,,,false,,,,134250.69999998808,134250.59999999404,,134250.39999999106,,134257.395,8,400,,,
sequence,flow.Sequence,4_13,2023-11-01T16:12:35.999Z,,0,,,4559.688999994047,completion,,,,,false,,,,134250.89999999106,134250.59999999404,129674.245,129669.69999998808,129690.911,134257.395,8,400,,,
trial,html.Screen,4_14_0,2023-11-01T16:12:40.451Z,,0,1,,4444.70499999405,response,ISIC_6529073.JPG,8,ISIC_1039970.JPG,ISIC_6529073.JPG,false,1,keypress(m),500,138702.5,138702.09999999404,134240.729,134250.89999999106,134257.395,138707.702,8,400,15,,ISIC_1039970.JPG
break,html.Screen,4_14_1,2023-11-01T16:12:40.452Z,,0,,,NaN,,,,,,false,,,,138703.5,138703.19999998808,,138702.69999998808,,138707.702,8,400,,,
break_continue,html.Screen,4_14_2,2023-11-01T16:12:40.453Z,,0,,,NaN,,,,,,false,,,,138703.79999999702,138703.59999999404,,138703.5,,138707.702,8,400,,,
sequence,flow.Sequence,4_14,2023-11-01T16:12:40.453Z,,0,,,4446.20499999405,completion,,,,,false,,,,138703.89999999106,138703.59999999404,134240.729,134250.89999999106,134257.395,138707.702,8,400,,,
trial,html.Screen,4_15_0,2023-11-01T16:12:44.861Z,,0,1,,4403.79800000001,response,ISIC_0060508.JPG,8,ISIC_0027125.JPG,ISIC_0060508.JPG,false,1,keypress(m),500,143111.89999999106,143111.5,138691.036,138704.09999999404,138707.702,143124.192,8,400,16,,ISIC_0027125.JPG
break,html.Screen,4_15_1,2023-11-01T16:12:44.862Z,,0,,,NaN,,,,,,false,,,,143112.79999999702,143112.5,,143112.19999998808,,143124.192,8,400,,,
break_continue,html.Screen,4_15_2,2023-11-01T16:12:44.862Z,,0,,,NaN,,,,,,false,,,,143113.19999998808,143113.09999999404,,143112.89999999106,,143124.192,8,400,,,
sequence,flow.Sequence,4_15,2023-11-01T16:12:44.862Z,,0,,,4405.397999994049,completion,,,,,false,,,,143113.19999998808,143113.09999999404,138691.036,138704.09999999404,138707.702,143124.192,8,400,,,
trial,html.Screen,4_16_0,2023-11-01T16:12:49.029Z,,0,1,,4155.207999991049,response,ISIC_0060351.JPG,8,ISIC_0061066.JPG,ISIC_0061066.JPG,false,0,keypress(z),500,147279.69999998808,147279.39999999106,143107.526,143113.5,143124.192,147291.103,8,400,17,,ISIC_0060351.JPG
break,html.Screen,4_16_1,2023-11-01T16:12:49.030Z,,0,,,NaN,,,,,,false,,,,147280.59999999404,147280.39999999106,,147280,,147291.103,8,400,,,
break_continue,html.Screen,4_16_2,2023-11-01T16:12:49.030Z,,0,,,NaN,,,,,,false,,,,147280.89999999106,147280.89999999106,,147280.69999998808,,147291.103,8,400,,,
sequence,flow.Sequence,4_16,2023-11-01T16:12:49.030Z,,0,,,4156.707999991049,completion,,,,,false,,,,147281.19999998808,147280.89999999106,143107.526,143113.29999999702,143124.192,147291.103,8,400,,,
trial,html.Screen,4_17_0,2023-11-01T16:12:54.283Z,,0,1,,5242.096999988076,response,ISIC_0034218.JPG,8,ISIC_0011715.JPG,ISIC_0034218.JPG,false,1,keypress(m),500,152533.5,152533.19999998808,147274.437,147281.29999999702,147291.103,152540.893,8,400,18,,ISIC_0011715.JPG
break,html.Screen,4_17_1,2023-11-01T16:12:54.283Z,,0,,,NaN,,,,,,false,,,,152534.39999999106,152534.29999999702,,152533.89999999106,,152540.893,8,400,,,
break_continue,html.Screen,4_17_2,2023-11-01T16:12:54.284Z,,0,,,NaN,,,,,,false,,,,152534.79999999702,152534.69999998808,,152534.5,,152540.893,8,400,,,
sequence,flow.Sequence,4_17,2023-11-01T16:12:54.284Z,,0,,,5243.596999988076,completion,,,,,false,,,,152534.89999999106,152534.69999998808,147274.437,147281.29999999702,147291.103,152540.893,8,400,,,
trial,html.Screen,4_18_0,2023-11-01T16:12:58.817Z,,0,1,,4527.106999999989,response,ISIC_9482251.JPG,8,ISIC_0003324.JPG,ISIC_0003324.JPG,false,0,keypress(z),500,157068.29999999702,157068,152524.227,152535.09999999404,152540.893,157074.53,8,400,19,,ISIC_9482251.JPG
break,html.Screen,4_18_1,2023-11-01T16:12:58.818Z,,0,,,NaN,,,,,,false,,,,157069.29999999702,157069,,157068.59999999404,,157074.53,8,400,,,
break_continue,html.Screen,4_18_2,2023-11-01T16:12:58.819Z,,0,,,NaN,,,,,,false,,,,157069.59999999404,157069.5,,157069.39999999106,,157074.53,8,400,,,
sequence,flow.Sequence,4_18,2023-11-01T16:12:58.819Z,,0,,,4528.606999999989,completion,,,,,false,,,,157069.79999999702,157069.5,152524.227,152535,152540.893,157074.53,8,400,,,
trial,html.Screen,4_19_0,2023-11-01T16:13:02.440Z,,0,1,,3615.8699999910605,response,ISIC_0000467.JPG,8,ISIC_7059794.JPG,ISIC_0000467.JPG,false,1,keypress(m),500,160690.79999999702,160690.39999999106,157057.864,157069.89999999106,157074.53,160707.718,8,400,20,,ISIC_7059794.JPG
break,html.Screen,4_19_1,2023-11-01T16:13:02.441Z,,0,,,NaN,,,,,,false,,,,160691.69999998808,160691.5,,160691,,160707.718,8,400,,,
break_continue,html.Screen,4_19_2,2023-11-01T16:13:02.441Z,,0,,,NaN,,,,,,false,,,,160692.09999999404,160692,,160691.89999999106,,160707.718,8,400,,,
sequence,flow.Sequence,4_19,2023-11-01T16:13:02.441Z,,0,,,3617.470000000001,completion,,,,,false,,,,160692.19999998808,160692,157057.864,157069.89999999106,157074.53,160707.718,8,400,,,
trial,html.Screen,4_20_0,2023-11-01T16:13:06.335Z,,0,1,,3877.9819999880856,response,ISIC_9034574.JPG,9,ISIC_8835545.JPG,ISIC_9034574.JPG,false,1,keypress(m),500,164586,164585.69999998808,160691.052,160692.39999999106,160707.718,164590.896,8,400,21,,ISIC_8835545.JPG
break,html.Screen,4_20_1,2023-11-01T16:13:06.336Z,,0,,,NaN,,,,,,false,,,,164586.89999999106,164586.69999998808,,164586.29999999702,,164590.896,8,400,,,
break_continue,html.Screen,4_20_2,2023-11-01T16:13:06.336Z,,0,,,NaN,,,,,,false,,,,164587.19999998808,164587.09999999404,,164587,,164590.896,8,400,,,
sequence,flow.Sequence,4_20,2023-11-01T16:13:06.337Z,,0,,,3879.381999994046,completion,,,,,false,,,,164587.39999999106,164587.09999999404,160691.052,160692.39999999106,160707.718,164590.896,8,400,,,
trial,html.Screen,4_21_0,2023-11-01T16:13:10.392Z,,0,1,,4050.903999997012,response,ISIC_0001126.JPG,7,ISIC_7407847.JPG,ISIC_0001126.JPG,false,1,keypress(m),500,168642.19999998808,168641.79999999702,164574.23,164587.5,164590.896,168657.779,8,400,22,,ISIC_7407847.JPG
break,html.Screen,4_21_1,2023-11-01T16:13:10.393Z,,0,,,NaN,,,,,,false,,,,168643.19999998808,168643,,168642.59999999404,,168657.779,8,400,,,
break_continue,html.Screen,4_21_2,2023-11-01T16:13:10.393Z,,0,,,NaN,,,,,,false,,,,168643.59999999404,168643.5,,168643.29999999702,,168657.779,8,400,,,
sequence,flow.Sequence,4_21,2023-11-01T16:13:10.393Z,,0,,,4052.603999999992,completion,,,,,false,,,,168643.79999999702,168643.5,164574.23,164587.5,164590.896,168657.779,8,400,,,
trial,html.Screen,4_22_0,2023-11-01T16:13:14.574Z,,0,1,,4166.82099999403,response,ISIC_0030440.JPG,7,ISIC_5546806.JPG,ISIC_0030440.JPG,false,1,keypress(m),500,172825,172824.59999999404,168641.113,168643.89999999106,168657.779,172840.945,8,400,23,,ISIC_5546806.JPG
break,html.Screen,4_22_1,2023-11-01T16:13:14.575Z,,0,,,NaN,,,,,,false,,,,172825.89999999106,172825.69999998808,,172825.29999999702,,172840.945,8,400,,,
break_continue,html.Screen,4_22_2,2023-11-01T16:13:14.576Z,,0,,,NaN,,,,,,false,,,,172826.29999999702,172826.19999998808,,172826.09999999404,,172840.945,8,400,,,
sequence,flow.Sequence,4_22,2023-11-01T16:13:14.576Z,,0,,,4168.4209999880695,completion,,,,,false,,,,172826.5,172826.19999998808,168641.113,168643.89999999106,168657.779,172840.945,8,400,,,
trial,html.Screen,4_23_0,2023-11-01T16:13:17.877Z,,0,1,,3286.1549999940326,response,ISIC_0033164.JPG,9,ISIC_7468304.JPG,ISIC_7468304.JPG,false,0,keypress(z),500,176127.39999999106,176127.09999999404,172824.279,172826.59999999404,172840.945,176140.813,8,400,24,,ISIC_0033164.JPG
break,html.Screen,4_23_1,2023-11-01T16:13:17.878Z,,0,,,NaN,,,,,,false,,,,176128.39999999106,176128.19999998808,,176127.79999999702,,176140.813,8,400,,,
break_continue,html.Screen,4_23_2,2023-11-01T16:13:17.878Z,,0,,,NaN,,,,,,false,,,,176128.69999998808,176128.5,,176128.5,,176140.813,8,400,,,
sequence,flow.Sequence,4_23,2023-11-01T16:13:17.878Z,,0,,,3287.554999999993,completion,,,,,false,,,,176128.79999999702,176128.5,172824.279,172826.59999999404,172840.945,176140.813,8,400,,,
trial,html.Screen,4_24_0,2023-11-01T16:13:21.569Z,,0,1,,3677.986999997025,response,ISIC_5971574.JPG,6,ISIC_5581936.JPG,ISIC_5971574.JPG,false,1,keypress(m),500,179819.19999998808,179818.79999999702,176124.147,176128.89999999106,176140.813,179824.432,8,400,25,,ISIC_5581936.JPG
break,html.Screen,4_24_1,2023-11-01T16:13:21.570Z,,0,,,NaN,,,,,,false,,,,179820.09999999404,179819.79999999702,,179819.39999999106,,179824.432,8,400,,,
break_continue,html.Screen,4_24_2,2023-11-01T16:13:21.570Z,,0,,,NaN,,,,,,false,,,,179820.39999999106,179820.29999999702,,179820.09999999404,,179824.432,8,400,,,
sequence,flow.Sequence,4_24,2023-11-01T16:13:21.570Z,,0,,,3679.486999997025,completion,,,,,false,,,,179820.59999999404,179820.29999999702,176124.147,176128.89999999106,176140.813,179824.432,8,400,,,
trial,html.Screen,4_25_0,2023-11-01T16:13:25.051Z,,0,1,,3476.667999994039,response,ISIC_0030843.JPG,9,ISIC_0012183.JPG,ISIC_0012183.JPG,false,0,keypress(z),500,183301.5,183301.09999999404,179807.766,179820.69999998808,179824.432,183307.626,8,400,26,,ISIC_0030843.JPG
break,html.Screen,4_25_1,2023-11-01T16:13:25.052Z,,0,,,NaN,,,,,,false,,,,183302.39999999106,183302.19999998808,,183301.69999998808,,183307.626,8,400,,,
break_continue,html.Screen,4_25_2,2023-11-01T16:13:25.052Z,,0,,,NaN,,,,,,false,,,,183302.79999999702,183302.59999999404,,183302.5,,183307.626,8,400,,,
sequence,flow.Sequence,4_25,2023-11-01T16:13:25.053Z,,0,,,3478.167999994039,completion,,,,,false,,,,183303,183302.59999999404,179807.766,179820.59999999404,179824.432,183307.626,8,400,,,
trial,html.Screen,4_26_0,2023-11-01T16:13:28.818Z,,0,1,,3760.27399999107,response,ISIC_0011150.JPG,9,ISIC_2804864.JPG,ISIC_0011150.JPG,false,1,keypress(m),500,187068.29999999702,187067.89999999106,183290.96,183303.19999998808,183307.626,187074.142,8,400,27,,ISIC_2804864.JPG
break,html.Screen,4_26_1,2023-11-01T16:13:28.819Z,,0,,,NaN,,,,,,false,,,,187069.09999999404,187068.89999999106,,187068.5,,187074.142,8,400,,,
break_continue,html.Screen,4_26_2,2023-11-01T16:13:28.819Z,,0,,,NaN,,,,,,false,,,,187069.59999999404,187069.39999999106,,187069.29999999702,,187074.142,8,400,,,
sequence,flow.Sequence,4_26,2023-11-01T16:13:28.819Z,,0,,,3761.77399999107,completion,,,,,false,,,,187069.79999999702,187069.39999999106,183290.96,183303,183307.626,187074.142,8,400,,,
trial,html.Screen,4_27_0,2023-11-01T16:13:32.727Z,,0,1,,3902.657999997027,response,ISIC_0065468.JPG,8,ISIC_1737600.JPG,ISIC_1737600.JPG,false,0,keypress(z),500,190977.09999999404,190976.79999999702,187057.476,187069.79999999702,187074.142,190991.082,8,400,28,,ISIC_0065468.JPG
break,html.Screen,4_27_1,2023-11-01T16:13:32.728Z,,0,,,NaN,,,,,,false,,,,190978,190977.89999999106,,190977.39999999106,,190991.082,8,400,,,
break_continue,html.Screen,4_27_2,2023-11-01T16:13:32.728Z,,0,,,NaN,,,,,,false,,,,190978.5,190978.29999999702,,190978.19999998808,,190991.082,8,400,,,
sequence,flow.Sequence,4_27,2023-11-01T16:13:32.728Z,,0,,,3904.157999997027,completion,,,,,false,,,,190978.59999999404,190978.29999999702,187057.476,187069.79999999702,187074.142,190991.082,8,400,,,
trial,html.Screen,4_28_0,2023-11-01T16:13:36.510Z,,0,1,,3768.5179999940447,response,ISIC_0053473.JPG,8,ISIC_3817292.JPG,ISIC_0053473.JPG,false,1,keypress(m),500,194759.89999999106,194759.59999999404,190974.416,190978.69999998808,190991.082,194774.264,8,400,29,,ISIC_3817292.JPG
break,html.Screen,4_28_1,2023-11-01T16:13:36.511Z,,0,,,NaN,,,,,,false,,,,194760.89999999106,194760.59999999404,,194760.19999998808,,194774.264,8,400,,,
break_continue,html.Screen,4_28_2,2023-11-01T16:13:36.511Z,,0,,,NaN,,,,,,false,,,,194761.39999999106,194761.19999998808,,194761.09999999404,,194774.264,8,400,,,
sequence,flow.Sequence,4_28,2023-11-01T16:13:36.511Z,,0,,,3770.117999988084,completion,,,,,false,,,,194761.5,194761.19999998808,190974.416,190978.69999998808,190991.082,194774.264,8,400,,,
trial,html.Screen,4_29_0,2023-11-01T16:13:39.893Z,,0,1,,3368.035999997024,response,ISIC_5005961.JPG,8,ISIC_8690631.JPG,ISIC_5005961.JPG,false,1,keypress(m),500,198142.69999998808,198142.29999999702,194757.598,194761.69999998808,194774.264,198157.462,8,400,30,,ISIC_8690631.JPG
break,html.Screen,4_29_1,2023-11-01T16:13:39.893Z,,0,,,NaN,,,,,,false,,,,198143.5,198143.29999999702,,198143,,198157.462,8,400,,,
break_continue,html.Screen,4_29_2,2023-11-01T16:13:39.894Z,,0,,,NaN,,,,,,false,,,,198143.89999999106,198143.79999999702,,198143.69999998808,,198157.462,8,400,,,
sequence,flow.Sequence,4_29,2023-11-01T16:13:39.894Z,,0,,,3369.535999997024,completion,,,,,false,,,,198144.09999999404,198143.79999999702,194757.598,194761.59999999404,194774.264,198157.462,8,400,,,
trial,html.Screen,4_30_0,2023-11-01T16:13:43.067Z,,0,1,,3159.3379999970202,response,ISIC_5073160.JPG,8,ISIC_0024265.JPG,ISIC_0024265.JPG,false,0,keypress(z),500,201317.19999998808,201316.79999999702,198140.796,198144.29999999702,198157.462,201324.399,8,400,31,,ISIC_5073160.JPG
break,html.Screen,4_30_1,2023-11-01T16:13:43.068Z,,0,,,NaN,,,,,,false,,,,201318.29999999702,201318,,201317.59999999404,,201324.399,8,400,,,
break_continue,html.Screen,4_30_2,2023-11-01T16:13:43.069Z,,0,,,NaN,,,,,,false,,,,201318.69999998808,201318.5,,201318.39999999106,,201324.399,8,400,,,
sequence,flow.Sequence,4_30,2023-11-01T16:13:43.069Z,,0,,,3161.0380000000005,completion,,,,,false,,,,201318.79999999702,201318.5,198140.796,198144.19999998808,198157.462,201324.399,8,400,,,
trial,html.Screen,4_31_0,2023-11-01T16:13:47.570Z,,0,1,,4494.800999988074,response,ISIC_9965754.JPG,9,ISIC_0057593.JPG,ISIC_0057593.JPG,false,0,keypress(z),500,205819.59999999404,205819.19999998808,201307.733,201319,201324.399,205824.219,8,400,32,,ISIC_9965754.JPG
break,html.Screen,4_31_1,2023-11-01T16:13:47.571Z,,0,,,NaN,,,,,,false,,,,205820.69999998808,205820.5,,205820,,205824.219,8,400,,,
break_continue,html.Screen,4_31_2,2023-11-01T16:13:47.571Z,,0,,,NaN,,,,,,false,,,,205821,205820.89999999106,,205820.79999999702,,205824.219,8,400,,,
sequence,flow.Sequence,4_31,2023-11-01T16:13:47.571Z,,0,,,4496.500999991054,completion,,,,,false,,,,205821.09999999404,205820.89999999106,201307.733,201318.89999999106,201324.399,205824.219,8,400,,,
trial,html.Screen,4_32_0,2023-11-01T16:13:51.320Z,,0,1,,3744.980999988067,response,ISIC_4394524.JPG,9,ISIC_9568327.JPG,ISIC_4394524.JPG,false,1,keypress(m),500,209569.59999999404,209569.19999998808,205807.553,205821.39999999106,205824.219,209574.496,8,400,33,,ISIC_9568327.JPG
break,html.Screen,4_32_1,2023-11-01T16:13:51.321Z,,0,,,NaN,,,,,,false,,,,209570.59999999404,209570.29999999702,,209569.89999999106,,209574.496,8,400,,,
break_continue,html.Screen,4_32_2,2023-11-01T16:13:51.321Z,,0,,,NaN,,,,,,false,,,,209570.89999999106,209570.79999999702,,209570.69999998808,,209574.496,8,400,,,
sequence,flow.Sequence,4_32,2023-11-01T16:13:51.321Z,,0,,,3746.580999997008,completion,,,,,false,,,,209571.09999999404,209570.79999999702,205807.553,205821.19999998808,205824.219,209574.496,8,400,,,
trial,html.Screen,4_33_0,2023-11-01T16:13:55.391Z,,0,1,,4066.303999997006,response,ISIC_0032408.JPG,6,ISIC_0031293.JPG,ISIC_0032408.JPG,false,1,keypress(m),500,213641.29999999702,213640.79999999702,209557.83,209571.19999998808,209574.496,213657.666,8,400,34,,ISIC_0031293.JPG
break,html.Screen,4_33_1,2023-11-01T16:13:55.392Z,,0,,,NaN,,,,,,false,,,,213642.29999999702,213642.09999999404,,213641.59999999404,,213657.666,8,400,,,
break_continue,html.Screen,4_33_2,2023-11-01T16:13:55.393Z,,0,,,NaN,,,,,,false,,,,213642.69999998808,213642.5,,213642.39999999106,,213657.666,8,400,,,
sequence,flow.Sequence,4_33,2023-11-01T16:13:55.393Z,,0,,,4068.0039999999863,completion,,,,,false,,,,213642.79999999702,213642.5,209557.83,209571.19999998808,209574.496,213657.666,8,400,,,
trial,html.Screen,4_34_0,2023-11-01T16:13:59.430Z,,0,1,,4022.1339999970223,response,ISIC_0069851.JPG,7,ISIC_9895220.JPG,ISIC_0069851.JPG,false,1,keypress(m),500,217680.19999998808,217679.79999999702,213641,213642.89999999106,213657.666,217690.838,8,400,35,,ISIC_9895220.JPG
break,html.Screen,4_34_1,2023-11-01T16:13:59.431Z,,0,,,NaN,,,,,,false,,,,217681.19999998808,217681,,217680.5,,217690.838,8,400,,,
break_continue,html.Screen,4_34_2,2023-11-01T16:13:59.432Z,,0,,,NaN,,,,,,false,,,,217681.59999999404,217681.39999999106,,217681.39999999106,,217690.838,8,400,,,
sequence,flow.Sequence,4_34,2023-11-01T16:13:59.432Z,,0,,,4023.733999991062,completion,,,,,false,,,,217681.69999998808,217681.39999999106,213641,213642.89999999106,213657.666,217690.838,8,400,,,
trial,html.Screen,4_35_0,2023-11-01T16:14:02.751Z,,0,1,,3309.461999997031,response,ISIC_0066506.JPG,7,ISIC_0014114.JPG,ISIC_0014114.JPG,false,0,keypress(z),500,221000.69999998808,221000.29999999702,217674.172,217681.89999999106,217690.838,221007.753,8,400,36,,ISIC_0066506.JPG
break,html.Screen,4_35_1,2023-11-01T16:14:02.752Z,,0,,,NaN,,,,,,false,,,,221001.59999999404,221001.5,,221001,,221007.753,8,400,,,
break_continue,html.Screen,4_35_2,2023-11-01T16:14:02.752Z,,0,,,NaN,,,,,,false,,,,221002,221001.89999999106,,221001.79999999702,,221007.753,8,400,,,
sequence,flow.Sequence,4_35,2023-11-01T16:14:02.753Z,,0,,,3311.0619999910705,completion,,,,,false,,,,221002.19999998808,221001.89999999106,217674.172,217681.89999999106,217690.838,221007.753,8,400,,,
trial,html.Screen,4_36_0,2023-11-01T16:14:06.710Z,,0,1,,3951.546999997023,response,ISIC_0024688.JPG,7,ISIC_0026694.JPG,ISIC_0026694.JPG,false,0,keypress(z),500,224959.69999998808,224959.29999999702,220991.087,221002.39999999106,221007.753,224974.261,8,400,37,,ISIC_0024688.JPG
break,html.Screen,4_36_1,2023-11-01T16:14:06.711Z,,0,,,NaN,,,,,,false,,,,224960.59999999404,224960.5,,224960,,224974.261,8,400,,,
break_continue,html.Screen,4_36_2,2023-11-01T16:14:06.711Z,,0,,,NaN,,,,,,false,,,,224961,224960.89999999106,,224960.89999999106,,224974.261,8,400,,,
sequence,flow.Sequence,4_36,2023-11-01T16:14:06.712Z,,0,,,3953.1469999910623,completion,,,,,false,,,,224961.19999998808,224960.89999999106,220991.087,221002.19999998808,221007.753,224974.261,8,400,,,
trial,html.Screen,4_37_0,2023-11-01T16:14:10.174Z,,0,1,,3448.4389999880805,response,ISIC_0026738.JPG,8,ISIC_9767255.JPG,ISIC_0026738.JPG,false,1,keypress(m),500,228423.09999999404,228422.69999998808,224957.595,224961.39999999106,224974.261,228424.123,8,400,38,,ISIC_9767255.JPG
break,html.Screen,4_37_1,2023-11-01T16:14:10.174Z,,0,,,NaN,,,,,,false,,,,228424.09999999404,228423.89999999106,,228423.39999999106,,228424.123,8,400,,,
break_continue,html.Screen,4_37_2,2023-11-01T16:14:10.175Z,,0,,,NaN,,,,,,false,,,,228424.39999999106,228424.29999999702,,228424.19999998808,,228424.123,8,400,,,
sequence,flow.Sequence,4_37,2023-11-01T16:14:10.175Z,,0,,,3450.038999997021,completion,,,,,false,,,,228424.59999999404,228424.29999999702,224957.595,224961.29999999702,224974.261,228424.123,8,400,,,
trial,html.Screen,4_38_0,2023-11-01T16:14:13.652Z,,0,1,,3476.776999991067,response,ISIC_0011701.JPG,7,ISIC_7626256.JPG,ISIC_0011701.JPG,false,1,keypress(m),500,231901.29999999702,231900.89999999106,228407.457,228424.59999999404,228424.123,231907.738,8,400,39,,ISIC_7626256.JPG
break,html.Screen,4_38_1,2023-11-01T16:14:13.653Z,,0,,,NaN,,,,,,false,,,,231902.29999999702,231902.09999999404,,231901.59999999404,,231907.738,8,400,,,
break_continue,html.Screen,4_38_2,2023-11-01T16:14:13.653Z,,0,,,NaN,,,,,,false,,,,231902.5,231902.39999999106,,231902.39999999106,,231907.738,8,400,,,
sequence,flow.Sequence,4_38,2023-11-01T16:14:13.653Z,,0,,,3478.276999991067,completion,,,,,false,,,,231902.79999999702,231902.39999999106,228407.457,228424.59999999404,228424.123,231907.738,8,400,,,
trial,html.Screen,4_39_0,2023-11-01T16:14:17.243Z,,0,1,,3584.461999988067,response,ISIC_2739547.JPG,8,ISIC_8278688.JPG,ISIC_2739547.JPG,false,1,keypress(m),500,235492.5,235492.19999998808,231891.072,231902.89999999106,231907.738,235507.594,8,400,40,,ISIC_8278688.JPG
break,html.Screen,4_39_1,2023-11-01T16:14:17.244Z,,0,,,NaN,,,,,,false,,,,235493.39999999106,235493.19999998808,,235492.79999999702,,235507.594,8,400,,,
break_continue,html.Screen,4_39_2,2023-11-01T16:14:17.244Z,,0,,,NaN,,,,,,false,,,,235493.79999999702,235493.69999998808,,235493.5,,235507.594,8,400,,,
sequence,flow.Sequence,4_39,2023-11-01T16:14:17.245Z,,0,,,3585.961999988067,completion,,,,,false,,,,235493.89999999106,235493.69999998808,231891.072,231902.79999999702,231907.738,235507.594,8,400,,,
trial,html.Screen,4_40_0,2023-11-01T16:14:20.352Z,,0,1,,3093.3059999910474,response,ISIC_7110531.JPG,8,ISIC_0000278.JPG,ISIC_0000278.JPG,false,0,keypress(z),500,238601.39999999106,238600.89999999106,235490.928,235494,235507.594,238607.47,8,400,41,,ISIC_7110531.JPG
break,html.Screen,4_40_1,2023-11-01T16:14:20.353Z,,0,,,NaN,,,,,,false,,,,238602.39999999106,238602.29999999702,,238601.69999998808,,238607.47,8,400,,,
break_continue,html.Screen,4_40_2,2023-11-01T16:14:20.354Z,,0,,,NaN,,,,,,false,,,,238602.79999999702,238602.69999998808,,238602.59999999404,,238607.47,8,400,,,
sequence,flow.Sequence,4_40,2023-11-01T16:14:20.354Z,,0,,,3095.105999988067,completion,,,,,false,,,,238603,238602.69999998808,235490.928,235494,235507.594,238607.47,8,400,,,
trial,html.Screen,4_41_0,2023-11-01T16:14:24.311Z,,0,1,,3952.429999991058,response,ISIC_0025812.JPG,7,ISIC_0033412.JPG,ISIC_0033412.JPG,false,0,keypress(z),500,242560.39999999106,242559.89999999106,238590.804,238603.09999999404,238607.47,242574.379,8,400,42,,ISIC_0025812.JPG
break,html.Screen,4_41_1,2023-11-01T16:14:24.312Z,,0,,,NaN,,,,,,false,,,,242561.5,242561.29999999702,,242560.69999998808,,242574.379,8,400,,,
break_continue,html.Screen,4_41_2,2023-11-01T16:14:24.313Z,,0,,,NaN,,,,,,false,,,,242561.89999999106,242561.79999999702,,242561.59999999404,,242574.379,8,400,,,
sequence,flow.Sequence,4_41,2023-11-01T16:14:24.313Z,,0,,,3954.3299999970186,completion,,,,,false,,,,242562,242561.79999999702,238590.804,238603.09999999404,238607.47,242574.379,8,400,,,
trial,html.Screen,4_42_0,2023-11-01T16:14:27.763Z,,0,1,,3437.7209999940533,response,ISIC_8719134.JPG,6,ISIC_0030831.JPG,ISIC_8719134.JPG,false,1,keypress(m),500,246012.5,246012.09999999404,242557.713,242562.09999999404,242574.379,246024.241,8,400,43,,ISIC_0030831.JPG
break,html.Screen,4_42_1,2023-11-01T16:14:27.764Z,,0,,,NaN,,,,,,false,,,,246013.5,246013.29999999702,,246012.79999999702,,246024.241,8,400,,,
break_continue,html.Screen,4_42_2,2023-11-01T16:14:27.765Z,,0,,,NaN,,,,,,false,,,,246013.89999999106,246013.79999999702,,246013.69999998808,,246024.241,8,400,,,
sequence,flow.Sequence,4_42,2023-11-01T16:14:27.765Z,,0,,,3439.4209999970335,completion,,,,,false,,,,246014,246013.79999999702,242557.713,242562.09999999404,242574.379,246024.241,8,400,,,
trial,html.Screen,4_43_0,2023-11-01T16:14:31.114Z,,0,1,,3338.5589999970107,response,ISIC_0064073.JPG,8,ISIC_0638857.JPG,ISIC_0064073.JPG,false,1,keypress(m),500,249363.19999998808,249362.79999999702,246007.575,246014.09999999404,246024.241,249374.107,8,400,44,,ISIC_0638857.JPG
break,html.Screen,4_43_1,2023-11-01T16:14:31.115Z,,0,,,NaN,,,,,,false,,,,249364.19999998808,249364,,249363.5,,249374.107,8,400,,,
break_continue,html.Screen,4_43_2,2023-11-01T16:14:31.115Z,,0,,,NaN,,,,,,false,,,,249364.5,249364.39999999106,,249364.29999999702,,249374.107,8,400,,,
sequence,flow.Sequence,4_43,2023-11-01T16:14:31.116Z,,0,,,3340.15899999105,completion,,,,,false,,,,249364.69999998808,249364.39999999106,246007.575,246014.09999999404,246024.241,249374.107,8,400,,,
trial,html.Screen,4_44_0,2023-11-01T16:14:34.290Z,,0,1,,3164.6929999970307,response,ISIC_1927858.JPG,6,ISIC_7759913.JPG,ISIC_7759913.JPG,false,0,keypress(z),500,252539.19999998808,252538.79999999702,249357.441,249364.89999999106,249374.107,252557.736,8,400,45,,ISIC_1927858.JPG
break,html.Screen,4_44_1,2023-11-01T16:14:34.291Z,,0,,,NaN,,,,,,false,,,,252540.09999999404,252539.89999999106,,252539.5,,252557.736,8,400,,,
break_continue,html.Screen,4_44_2,2023-11-01T16:14:34.291Z,,0,,,NaN,,,,,,false,,,,252540.5,252540.39999999106,,252540.19999998808,,252557.736,8,400,,,
sequence,flow.Sequence,4_44,2023-11-01T16:14:34.292Z,,0,,,3166.2929999910702,completion,,,,,false,,,,252540.59999999404,252540.39999999106,249357.441,249364.79999999702,249374.107,252557.736,8,400,,,
trial,html.Screen,4_45_0,2023-11-01T16:14:37.608Z,,0,1,,3299.0639999970153,response,ISIC_0202167.JPG,6,ISIC_0062048.JPG,ISIC_0062048.JPG,false,0,keypress(z),500,255857.19999998808,255856.79999999702,252541.07,252540.69999998808,252557.736,255857.604,8,400,46,,ISIC_0202167.JPG
break,html.Screen,4_45_1,2023-11-01T16:14:37.609Z,,0,,,NaN,,,,,,false,,,,255858.19999998808,255857.89999999106,,255857.39999999106,,255857.604,8,400,,,
break_continue,html.Screen,4_45_2,2023-11-01T16:14:37.610Z,,0,,,NaN,,,,,,false,,,,255858.5,255858.29999999702,,255858.19999998808,,255857.604,8,400,,,
sequence,flow.Sequence,4_45,2023-11-01T16:14:37.610Z,,0,,,3300.5639999970153,completion,,,,,false,,,,255858.69999998808,255858.29999999702,252541.07,252540.69999998808,252557.736,255857.604,8,400,,,
trial,html.Screen,4_46_0,2023-11-01T16:14:42.351Z,,0,1,,4741.995999994047,response,ISIC_0053929.JPG,8,ISIC_0032724.JPG,ISIC_0053929.JPG,false,1,keypress(m),500,260600,260599.59999999404,255840.938,255858.79999999702,255857.604,260607.414,8,400,47,,ISIC_0032724.JPG
break,html.Screen,4_46_1,2023-11-01T16:14:42.352Z,,0,,,NaN,,,,,,false,,,,260601,260600.89999999106,,260600.29999999702,,260607.414,8,400,,,
break_continue,html.Screen,4_46_2,2023-11-01T16:14:42.352Z,,0,,,NaN,,,,,,false,,,,260601.39999999106,260601.29999999702,,260601.19999998808,,260607.414,8,400,,,
sequence,flow.Sequence,4_46,2023-11-01T16:14:42.353Z,,0,,,4743.695999997028,completion,,,,,false,,,,260601.59999999404,260601.29999999702,255840.938,255858.79999999702,255857.604,260607.414,8,400,,,
trial,html.Screen,4_47_0,2023-11-01T16:14:47.750Z,,0,1,,5390.785999988089,response,ISIC_0060091.JPG,8,ISIC_0003201.JPG,ISIC_0060091.JPG,false,1,keypress(m),500,265998.59999999404,265998.1999999881,260590.748,260601.69999998808,260607.414,266007.579,8,400,48,,ISIC_0003201.JPG
break,html.Screen,4_47_1,2023-11-01T16:14:47.751Z,,0,,,NaN,,,,,,false,,,,265999.59999999404,265999.5,,265998.89999999106,,266007.579,8,400,,,
break_continue,html.Screen,4_47_2,2023-11-01T16:14:47.751Z,,0,,,NaN,,,,,,false,,,,266000,265999.89999999106,,265999.799999997,,266007.579,8,400,,,
sequence,flow.Sequence,4_47,2023-11-01T16:14:47.751Z,,0,,,5392.48599999107,completion,,,,,false,,,,266000.1999999881,265999.89999999106,260590.748,260601.69999998808,260607.414,266007.579,8,400,,,
trial,html.Screen,4_48_0,2023-11-01T16:14:50.732Z,,0,1,,2972.920999999973,response,ISIC_0014114.JPG,8,ISIC_0010860.JPG,ISIC_0014114.JPG,false,1,keypress(m),500,268981,268980.5,265990.913,266000.299999997,266007.579,268990.793,8,400,49,,ISIC_0010860.JPG
break,html.Screen,4_48_1,2023-11-01T16:14:50.733Z,,0,,,NaN,,,,,,false,,,,268982,268981.799999997,,268981.1999999881,,268990.793,8,400,,,
break_continue,html.Screen,4_48_2,2023-11-01T16:14:50.734Z,,0,,,NaN,,,,,,false,,,,268982.39999999106,268982.1999999881,,268982.09999999404,,268990.793,8,400,,,
sequence,flow.Sequence,4_48,2023-11-01T16:14:50.734Z,,0,,,2974.620999988052,completion,,,,,false,,,,268982.5,268982.1999999881,265990.913,266000.1999999881,266007.579,268990.793,8,400,,,
trial,html.Screen,4_49_0,2023-11-01T16:14:56.595Z,,0,1,,5852.606999991054,response,ISIC_0065597.JPG,7,ISIC_0026924.JPG,ISIC_0026924.JPG,false,0,keypress(z),500,274843.6999999881,274843.39999999106,268974.127,268982.5,268990.793,274857.637,8,400,50,,ISIC_0065597.JPG
break,html.Screen,4_49_1,2023-11-01T16:15:07.234Z,,0,,,11600.162000000011,timeout,,,,,false,,,,285482.299999997,285481.09999999404,274840.971,274844,274857.637,286457.799,8,400,,,
break_continue,html.Screen,4_49_2,2023-11-01T16:15:18.693Z,,0,,,10470.10099999106,response,,,,,false,continue,keypress(Space),,296940.6999999881,296927.89999999106,285481.09999999404,285482.59999999404,286457.799,296957.775,8,400,,,
sequence,flow.Sequence,4_49,2023-11-01T16:15:18.693Z,,0,,,27937.106999991054,completion,,,,,false,,,,296940.89999999106,296927.89999999106,268974.127,268982.5,268990.793,296957.775,8,400,,,
trial,html.Screen,4_50_0,2023-11-01T16:15:28.042Z,,0,2,,9331.524999996996,response,ISIC_0025243.JPG,7,ISIC_0011645.JPG,ISIC_0011645.JPG,false,0,keypress(z),500,306289.89999999106,306289.299999997,296941.109,296941,296957.775,306307.401,8,400,1,,ISIC_0025243.JPG
break,html.Screen,4_50_1,2023-11-01T16:15:28.043Z,,0,,,NaN,,,,,,false,,,,306290.89999999106,306290.59999999404,,306290.1999999881,,306307.401,8,400,,,
break_continue,html.Screen,4_50_2,2023-11-01T16:15:28.043Z,,0,,,NaN,,,,,,false,,,,306291.299999997,306291.09999999404,,306291.09999999404,,306307.401,8,400,,,
sequence,flow.Sequence,4_50,2023-11-01T16:15:28.043Z,,0,,,9333.324999994016,completion,,,,,false,,,,306291.39999999106,306291.09999999404,296941.109,296941,296957.775,306307.401,8,400,,,
trial,html.Screen,4_51_0,2023-11-01T16:15:31.713Z,,0,2,,3653.2989999880665,response,ISIC_8759726.JPG,7,ISIC_8649055.JPG,ISIC_8649055.JPG,false,0,keypress(z),500,309961.1999999881,309960.6999999881,306290.735,306291.5,306307.401,309974.312,8,400,2,,ISIC_8759726.JPG
break,html.Screen,4_51_1,2023-11-01T16:15:31.714Z,,0,,,NaN,,,,,,false,,,,309962.09999999404,309961.89999999106,,309961.39999999106,,309974.312,8,400,,,
break_continue,html.Screen,4_51_2,2023-11-01T16:15:31.715Z,,0,,,NaN,,,,,,false,,,,309962.5,309962.39999999106,,309962.1999999881,,309974.312,8,400,,,
sequence,flow.Sequence,4_51,2023-11-01T16:15:31.715Z,,0,,,3654.9989999910467,completion,,,,,false,,,,309962.6999999881,309962.39999999106,306290.735,306291.5,306307.401,309974.312,8,400,,,
trial,html.Screen,4_52_0,2023-11-01T16:15:36.727Z,,0,2,,5000.188000000024,response,ISIC_0064044.JPG,8,ISIC_3163773.JPG,ISIC_0064044.JPG,false,1,keypress(m),500,314974.89999999106,314974.5,309957.646,309962.799999997,309974.312,314990.778,8,400,3,,ISIC_3163773.JPG
break,html.Screen,4_52_1,2023-11-01T16:15:36.728Z,,0,,,NaN,,,,,,false,,,,314975.89999999106,314975.59999999404,,314975.09999999404,,314990.778,8,400,,,
break_continue,html.Screen,4_52_2,2023-11-01T16:15:36.728Z,,0,,,NaN,,,,,,false,,,,314976.299999997,314976.09999999404,,314975.89999999106,,314990.778,8,400,,,
sequence,flow.Sequence,4_52,2023-11-01T16:15:36.729Z,,0,,,5001.787999994063,completion,,,,,false,,,,314976.39999999106,314976.09999999404,309957.646,309962.799999997,309974.312,314990.778,8,400,,,
trial,html.Screen,4_53_0,2023-11-01T16:15:40.493Z,,0,2,,3749.621999991068,response,ISIC_0013617.JPG,6,ISIC_2849353.JPG,ISIC_2849353.JPG,false,0,keypress(z),500,318740.799999997,318740.39999999106,314974.112,314976.5,314990.778,318757.762,8,400,4,,ISIC_0013617.JPG
break,html.Screen,4_53_1,2023-11-01T16:15:40.494Z,,0,,,NaN,,,,,,false,,,,318741.6999999881,318741.5,,318741.09999999404,,318757.762,8,400,,,
break_continue,html.Screen,4_53_2,2023-11-01T16:15:40.494Z,,0,,,NaN,,,,,,false,,,,318742.09999999404,318741.89999999106,,318741.89999999106,,318757.762,8,400,,,
sequence,flow.Sequence,4_53,2023-11-01T16:15:40.494Z,,0,,,3751.121999991068,completion,,,,,false,,,,318742.1999999881,318741.89999999106,314974.112,314976.5,314990.778,318757.762,8,400,,,
trial,html.Screen,4_54_0,2023-11-01T16:15:44.403Z,,0,2,,3892.6379999910714,response,ISIC_1711185.JPG,8,ISIC_2690597.JPG,ISIC_1711185.JPG,false,1,keypress(m),500,322650.6999999881,322650.39999999106,318741.096,318742.5,318757.762,322657.606,8,400,5,,ISIC_2690597.JPG
break,html.Screen,4_54_1,2023-11-01T16:15:44.404Z,,0,,,NaN,,,,,,false,,,,322651.5,322651.299999997,,322650.89999999106,,322657.606,8,400,,,
break_continue,html.Screen,4_54_2,2023-11-01T16:15:44.404Z,,0,,,NaN,,,,,,false,,,,322651.799999997,322651.6999999881,,322651.5,,322657.606,8,400,,,
sequence,flow.Sequence,4_54,2023-11-01T16:15:44.404Z,,0,,,3893.937999988091,completion,,,,,false,,,,322652,322651.6999999881,318741.096,318742.299999997,318757.762,322657.606,8,400,,,
trial,html.Screen,4_55_0,2023-11-01T16:15:47.978Z,,0,2,,3567.2939999910304,response,ISIC_7342840.JPG,7,ISIC_0011356.JPG,ISIC_0011356.JPG,false,0,keypress(z),500,326225.1999999881,326224.89999999106,322640.94,322652,322657.606,326240.796,8,400,6,,ISIC_7342840.JPG
break,html.Screen,4_55_1,2023-11-01T16:15:47.979Z,,0,,,NaN,,,,,,false,,,,326226.1999999881,326225.89999999106,,326225.5,,326240.796,8,400,,,
break_continue,html.Screen,4_55_2,2023-11-01T16:15:47.979Z,,0,,,NaN,,,,,,false,,,,326226.59999999404,326226.5,,326226.299999997,,326240.796,8,400,,,
sequence,flow.Sequence,4_55,2023-11-01T16:15:47.979Z,,0,,,3568.893999999971,completion,,,,,false,,,,326226.6999999881,326226.5,322640.94,322652,322657.606,326240.796,8,400,,,
trial,html.Screen,4_56_0,2023-11-01T16:15:51.295Z,,0,2,,3301.1039999910863,response,ISIC_4927943.JPG,5,ISIC_9795458.JPG,ISIC_4927943.JPG,false,1,keypress(m),500,329542.1999999881,329541.89999999106,326224.13,326226.89999999106,326240.796,329557.707,8,400,7,,ISIC_9795458.JPG
break,html.Screen,4_56_1,2023-11-01T16:15:51.296Z,,0,,,NaN,,,,,,false,,,,329543.299999997,329543,,329542.5,,329557.707,8,400,,,
break_continue,html.Screen,4_56_2,2023-11-01T16:15:51.296Z,,0,,,NaN,,,,,,false,,,,329543.59999999404,329543.5,,329543.39999999106,,329557.707,8,400,,,
sequence,flow.Sequence,4_56,2023-11-01T16:15:51.296Z,,0,,,3302.704000000027,completion,,,,,false,,,,329543.799999997,329543.5,326224.13,326226.799999997,326240.796,329557.707,8,400,,,
trial,html.Screen,4_57_0,2023-11-01T16:15:54.918Z,,0,2,,3607.293000000005,response,ISIC_7865214.JPG,8,ISIC_0058666.JPG,ISIC_0058666.JPG,false,0,keypress(z),500,333165.299999997,333165,329541.041,329543.89999999106,329557.707,333174.229,8,400,8,,ISIC_7865214.JPG
break,html.Screen,4_57_1,2023-11-01T16:15:54.919Z,,0,,,NaN,,,,,,false,,,,333166.299999997,333166.09999999404,,333165.6999999881,,333174.229,8,400,,,
break_continue,html.Screen,4_57_2,2023-11-01T16:15:54.919Z,,0,,,NaN,,,,,,false,,,,333166.6999999881,333166.59999999404,,333166.5,,333174.229,8,400,,,
sequence,flow.Sequence,4_57,2023-11-01T16:15:54.919Z,,0,,,3608.8929999940447,completion,,,,,false,,,,333166.89999999106,333166.59999999404,329541.041,329543.89999999106,329557.707,333174.229,8,400,,,
trial,html.Screen,4_58_0,2023-11-01T16:15:59.390Z,,0,2,,4462.771000000008,response,ISIC_5671175.JPG,6,ISIC_5736292.JPG,ISIC_5671175.JPG,false,1,keypress(m),500,337637.39999999106,337637,333157.563,333167.09999999404,333174.229,337640.717,8,400,9,,ISIC_5736292.JPG
break,html.Screen,4_58_1,2023-11-01T16:15:59.391Z,,0,,,NaN,,,,,,false,,,,337638.299999997,337638.09999999404,,337637.6999999881,,337640.717,8,400,,,
break_continue,html.Screen,4_58_2,2023-11-01T16:15:59.391Z,,0,,,NaN,,,,,,false,,,,337638.799999997,337638.59999999404,,337638.5,,337640.717,8,400,,,
sequence,flow.Sequence,4_58,2023-11-01T16:15:59.392Z,,0,,,4464.370999994047,completion,,,,,false,,,,337638.89999999106,337638.59999999404,333157.563,333166.89999999106,333174.229,337640.717,8,400,,,
trial,html.Screen,4_59_0,2023-11-01T16:16:02.963Z,,0,2,,3569.182999991055,response,ISIC_0058891.JPG,9,ISIC_0072004.JPG,ISIC_0058891.JPG,false,1,keypress(m),500,341210.299999997,341209.89999999106,337624.051,337639,337640.717,341224.337,8,400,10,,ISIC_0072004.JPG
break,html.Screen,4_59_1,2023-11-01T16:16:02.964Z,,0,,,NaN,,,,,,false,,,,341211.39999999106,341211.09999999404,,341210.6999999881,,341224.337,8,400,,,
break_continue,html.Screen,4_59_2,2023-11-01T16:16:02.964Z,,0,,,NaN,,,,,,false,,,,341211.799999997,341211.6999999881,,341211.5,,341224.337,8,400,,,
sequence,flow.Sequence,4_59,2023-11-01T16:16:02.965Z,,0,,,3570.982999988075,completion,,,,,false,,,,341212,341211.6999999881,337624.051,337639,337640.717,341224.337,8,400,,,
trial,html.Screen,4_60_0,2023-11-01T16:16:07.241Z,,0,2,,4264.06299999106,response,ISIC_5248948.JPG,8,ISIC_6208222.JPG,ISIC_6208222.JPG,false,0,keypress(z),500,345488.6999999881,345488.39999999106,341207.671,341212.09999999404,341224.337,345490.833,8,400,11,,ISIC_5248948.JPG
break,html.Screen,4_60_1,2023-11-01T16:16:07.242Z,,0,,,NaN,,,,,,false,,,,345489.6999999881,345489.5,,345489,,345490.833,8,400,,,
break_continue,html.Screen,4_60_2,2023-11-01T16:16:07.243Z,,0,,,NaN,,,,,,false,,,,345490.09999999404,345489.89999999106,,345489.799999997,,345490.833,8,400,,,
sequence,flow.Sequence,4_60,2023-11-01T16:16:07.243Z,,0,,,4265.56299999106,completion,,,,,false,,,,345490.299999997,345489.89999999106,341207.671,341212.09999999404,341224.337,345490.833,8,400,,,
trial,html.Screen,4_61_0,2023-11-01T16:16:10.190Z,,0,2,,2946.366999988095,response,ISIC_5476277.JPG,7,ISIC_6174156.JPG,ISIC_6174156.JPG,false,0,keypress(z),500,348437.59999999404,348437.1999999881,345474.167,345490.39999999106,345490.833,348440.715,8,400,12,,ISIC_5476277.JPG
break,html.Screen,4_61_1,2023-11-01T16:16:10.191Z,,0,,,NaN,,,,,,false,,,,348438.59999999404,348438.39999999106,,348437.799999997,,348440.715,8,400,,,
break_continue,html.Screen,4_61_2,2023-11-01T16:16:10.192Z,,0,,,NaN,,,,,,false,,,,348439,348438.89999999106,,348438.799999997,,348440.715,8,400,,,
sequence,flow.Sequence,4_61,2023-11-01T16:16:10.192Z,,0,,,2948.066999991075,completion,,,,,false,,,,348439.09999999404,348438.89999999106,345474.167,345490.39999999106,345490.833,348440.715,8,400,,,
trial,html.Screen,4_62_0,2023-11-01T16:16:15.718Z,,0,2,,5524.084999996994,response,ISIC_0009868.JPG,6,ISIC_0026402.JPG,ISIC_0026402.JPG,false,0,keypress(z),500,353965.1999999881,353964.799999997,348424.049,348439.299999997,348440.715,353974.251,8,400,13,,ISIC_0009868.JPG
break,html.Screen,4_62_1,2023-11-01T16:16:15.719Z,,0,,,NaN,,,,,,false,,,,353966.1999999881,353966,,353965.5,,353974.251,8,400,,,
break_continue,html.Screen,4_62_2,2023-11-01T16:16:15.719Z,,0,,,NaN,,,,,,false,,,,353966.59999999404,353966.39999999106,,353966.1999999881,,353974.251,8,400,,,
sequence,flow.Sequence,4_62,2023-11-01T16:16:15.720Z,,0,,,5525.684999991034,completion,,,,,false,,,,353966.6999999881,353966.39999999106,348424.049,348439.1999999881,348440.715,353974.251,8,400,,,
trial,html.Screen,4_63_0,2023-11-01T16:16:18.875Z,,0,2,,3147.0489999970305,response,ISIC_6317162.JPG,8,ISIC_0003550.JPG,ISIC_0003550.JPG,false,0,keypress(z),500,357121.6999999881,357121.299999997,353957.585,353966.799999997,353974.251,357124.125,8,400,14,,ISIC_6317162.JPG
break,html.Screen,4_63_1,2023-11-01T16:16:18.876Z,,0,,,NaN,,,,,,false,,,,357122.6999999881,357122.5,,357122.09999999404,,357124.125,8,400,,,
break_continue,html.Screen,4_63_2,2023-11-01T16:16:18.876Z,,0,,,NaN,,,,,,false,,,,357123.09999999404,357123,,357122.89999999106,,357124.125,8,400,,,
sequence,flow.Sequence,4_63,2023-11-01T16:16:18.876Z,,0,,,3148.7490000000107,completion,,,,,false,,,,357123.299999997,357123,353957.585,353966.799999997,353974.251,357124.125,8,400,,,
trial,html.Screen,4_64_0,2023-11-01T16:16:22.882Z,,0,2,,4004.074999988079,response,ISIC_9675304.JPG,9,ISIC_9943579.JPG,ISIC_9675304.JPG,false,1,keypress(m),500,361128.59999999404,361128.1999999881,357107.459,357123.39999999106,357124.125,361141.069,8,400,15,,ISIC_9943579.JPG
break,html.Screen,4_64_1,2023-11-01T16:16:22.883Z,,0,,,NaN,,,,,,false,,,,361129.59999999404,361129.39999999106,,361128.799999997,,361141.069,8,400,,,
break_continue,html.Screen,4_64_2,2023-11-01T16:16:22.883Z,,0,,,NaN,,,,,,false,,,,361130,361129.799999997,,361129.6999999881,,361141.069,8,400,,,
sequence,flow.Sequence,4_64,2023-11-01T16:16:22.883Z,,0,,,4005.6749999970198,completion,,,,,false,,,,361130.09999999404,361129.799999997,357107.459,357123.39999999106,357124.125,361141.069,8,400,,,
trial,html.Screen,4_65_0,2023-11-01T16:16:25.977Z,,0,2,,3082.230999997002,response,ISIC_2721699.JPG,5,ISIC_1189461.JPG,ISIC_2721699.JPG,false,1,keypress(m),500,364223.59999999404,364223.299999997,361124.403,361130.299999997,361141.069,364240.945,8,400,16,,ISIC_1189461.JPG
break,html.Screen,4_65_1,2023-11-01T16:16:25.978Z,,0,,,NaN,,,,,,false,,,,364224.59999999404,364224.39999999106,,364223.89999999106,,364240.945,8,400,,,
break_continue,html.Screen,4_65_2,2023-11-01T16:16:25.978Z,,0,,,NaN,,,,,,false,,,,364225,364224.89999999106,,364224.799999997,,364240.945,8,400,,,
sequence,flow.Sequence,4_65,2023-11-01T16:16:25.978Z,,0,,,3083.8309999910416,completion,,,,,false,,,,364225.1999999881,364224.89999999106,361124.403,361130.1999999881,361141.069,364240.945,8,400,,,
trial,html.Screen,4_66_0,2023-11-01T16:16:29.086Z,,0,2,,3091.354999997013,response,ISIC_0061021.JPG,8,ISIC_2562668.JPG,ISIC_2562668.JPG,false,0,keypress(z),500,367332.59999999404,367332.299999997,364224.279,364225.299999997,364240.945,367340.821,8,400,17,,ISIC_0061021.JPG
break,html.Screen,4_66_1,2023-11-01T16:16:29.087Z,,0,,,NaN,,,,,,false,,,,367333.59999999404,367333.39999999106,,367333,,367340.821,8,400,,,
break_continue,html.Screen,4_66_2,2023-11-01T16:16:29.087Z,,0,,,NaN,,,,,,false,,,,367334.09999999404,367333.89999999106,,367333.799999997,,367340.821,8,400,,,
sequence,flow.Sequence,4_66,2023-11-01T16:16:29.087Z,,0,,,3092.9549999910523,completion,,,,,false,,,,367334.1999999881,367333.89999999106,364224.279,364225.1999999881,364240.945,367340.821,8,400,,,
trial,html.Screen,4_67_0,2023-11-01T16:16:32.468Z,,0,2,,3373.6790000000037,response,ISIC_1835041.JPG,8,ISIC_0013141.JPG,ISIC_1835041.JPG,false,1,keypress(m),500,370714.799999997,370714.5,367324.155,367334.39999999106,367340.821,370724.019,8,400,18,,ISIC_0013141.JPG
break,html.Screen,4_67_1,2023-11-01T16:16:32.469Z,,0,,,NaN,,,,,,false,,,,370715.89999999106,370715.59999999404,,370715.1999999881,,370724.019,8,400,,,
break_continue,html.Screen,4_67_2,2023-11-01T16:16:32.470Z,,0,,,NaN,,,,,,false,,,,370716.299999997,370716.09999999404,,370716,,370724.019,8,400,,,
sequence,flow.Sequence,4_67,2023-11-01T16:16:32.470Z,,0,,,3375.2789999940433,completion,,,,,false,,,,370716.59999999404,370716.09999999404,367324.155,367334.299999997,367340.821,370724.019,8,400,,,
trial,html.Screen,4_68_0,2023-11-01T16:16:36.378Z,,0,2,,3900.5809999940684,response,ISIC_2778131.JPG,8,ISIC_5315125.JPG,ISIC_2778131.JPG,false,1,keypress(m),500,374625,374624.59999999404,370707.353,370716.59999999404,370724.019,374640.929,8,400,19,,ISIC_5315125.JPG
break,html.Screen,4_68_1,2023-11-01T16:16:36.379Z,,0,,,NaN,,,,,,false,,,,374626,374625.6999999881,,374625.1999999881,,374640.929,8,400,,,
break_continue,html.Screen,4_68_2,2023-11-01T16:16:36.380Z,,0,,,NaN,,,,,,false,,,,374626.39999999106,374626.1999999881,,374626.09999999404,,374640.929,8,400,,,
sequence,flow.Sequence,4_68,2023-11-01T16:16:36.380Z,,0,,,3902.180999988108,completion,,,,,false,,,,374626.5,374626.1999999881,370707.353,370716.59999999404,370724.019,374640.929,8,400,,,
trial,html.Screen,4_69_0,2023-11-01T16:16:41.071Z,,0,2,,4676.570999999996,response,ISIC_6247668.JPG,8,ISIC_0013674.JPG,ISIC_0013674.JPG,false,0,keypress(z),500,379317.89999999106,379317.5,374624.263,374626.6999999881,374640.929,379324.075,8,400,20,,ISIC_6247668.JPG
break,html.Screen,4_69_1,2023-11-01T16:16:41.072Z,,0,,,NaN,,,,,,false,,,,379318.89999999106,379318.6999999881,,379318.1999999881,,379324.075,8,400,,,
break_continue,html.Screen,4_69_2,2023-11-01T16:16:41.073Z,,0,,,NaN,,,,,,false,,,,379319.299999997,379319.1999999881,,379319,,379324.075,8,400,,,
sequence,flow.Sequence,4_69,2023-11-01T16:16:41.073Z,,0,,,4678.270999988075,completion,,,,,false,,,,379319.39999999106,379319.1999999881,374624.263,374626.59999999404,374640.929,379324.075,8,400,,,
trial,html.Screen,4_70_0,2023-11-01T16:16:44.933Z,,0,2,,3854.8249999910477,response,ISIC_3576000.JPG,7,ISIC_0029761.JPG,ISIC_3576000.JPG,false,1,keypress(m),500,383179.299999997,383178.89999999106,379307.409,379319.59999999404,379324.075,383190.985,8,400,21,,ISIC_0029761.JPG
break,html.Screen,4_70_1,2023-11-01T16:16:44.934Z,,0,,,NaN,,,,,,false,,,,383180.1999999881,383180,,383179.59999999404,,383190.985,8,400,,,
break_continue,html.Screen,4_70_2,2023-11-01T16:16:44.934Z,,0,,,NaN,,,,,,false,,,,383180.59999999404,383180.39999999106,,383180.39999999106,,383190.985,8,400,,,
sequence,flow.Sequence,4_70,2023-11-01T16:16:44.934Z,,0,,,3856.3249999910477,completion,,,,,false,,,,383180.6999999881,383180.39999999106,379307.409,379319.5,379324.075,383190.985,8,400,,,
trial,html.Screen,4_71_0,2023-11-01T16:16:48.605Z,,0,2,,3660.1149999940535,response,ISIC_0064784.JPG,8,ISIC_5754233.JPG,ISIC_5754233.JPG,false,0,keypress(z),500,386851.5,386851.09999999404,383174.319,383181,383190.985,386857.505,8,400,22,,ISIC_0064784.JPG
break,html.Screen,4_71_1,2023-11-01T16:16:48.606Z,,0,,,NaN,,,,,,false,,,,386852.39999999106,386852.1999999881,,386851.799999997,,386857.505,8,400,,,
break_continue,html.Screen,4_71_2,2023-11-01T16:16:48.606Z,,0,,,NaN,,,,,,false,,,,386852.799999997,386852.6999999881,,386852.5,,386857.505,8,400,,,
sequence,flow.Sequence,4_71,2023-11-01T16:16:48.607Z,,0,,,3661.714999988093,completion,,,,,false,,,,386853,386852.6999999881,383174.319,383180.799999997,383190.985,386857.505,8,400,,,
trial,html.Screen,4_72_0,2023-11-01T16:16:52.569Z,,0,2,,3957.4949999999953,response,ISIC_6993129.JPG,7,ISIC_0056849.JPG,ISIC_0056849.JPG,false,0,keypress(z),500,390815.299999997,390815,386840.839,386853.09999999404,386857.505,390824.013,8,400,23,,ISIC_6993129.JPG
break,html.Screen,4_72_1,2023-11-01T16:16:52.570Z,,0,,,NaN,,,,,,false,,,,390816.1999999881,390816,,390815.59999999404,,390824.013,8,400,,,
break_continue,html.Screen,4_72_2,2023-11-01T16:16:52.570Z,,0,,,NaN,,,,,,false,,,,390816.59999999404,390816.39999999106,,390816.39999999106,,390824.013,8,400,,,
sequence,flow.Sequence,4_72,2023-11-01T16:16:52.570Z,,0,,,3958.8949999910546,completion,,,,,false,,,,390816.6999999881,390816.39999999106,386840.839,386853.09999999404,386857.505,390824.013,8,400,,,
trial,html.Screen,4_73_0,2023-11-01T16:16:55.824Z,,0,2,,3246.2869999970426,response,ISIC_9181399.JPG,8,ISIC_0060153.JPG,ISIC_0060153.JPG,false,0,keypress(z),500,394070.6999999881,394070.299999997,390807.347,390816.89999999106,390824.013,394074.315,8,400,24,,ISIC_9181399.JPG
break,html.Screen,4_73_1,2023-11-01T16:16:55.825Z,,0,,,NaN,,,,,,false,,,,394071.6999999881,394071.5,,394071,,394074.315,8,400,,,
break_continue,html.Screen,4_73_2,2023-11-01T16:16:55.826Z,,0,,,NaN,,,,,,false,,,,394072.09999999404,394072,,394071.89999999106,,394074.315,8,400,,,
sequence,flow.Sequence,4_73,2023-11-01T16:16:55.826Z,,0,,,3247.987000000023,completion,,,,,false,,,,394072.299999997,394072,390807.347,390816.89999999106,390824.013,394074.315,8,400,,,
trial,html.Screen,4_74_0,2023-11-01T16:16:59.210Z,,0,2,,3381.9849999970174,response,ISIC_3370062.JPG,8,ISIC_4765919.JPG,ISIC_3370062.JPG,false,1,keypress(m),500,397456.6999999881,397456.299999997,394057.649,394072.39999999106,394074.315,397457.513,8,400,25,,ISIC_4765919.JPG
break,html.Screen,4_74_1,2023-11-01T16:16:59.211Z,,0,,,NaN,,,,,,false,,,,397457.59999999404,397457.39999999106,,397456.89999999106,,397457.513,8,400,,,
break_continue,html.Screen,4_74_2,2023-11-01T16:16:59.212Z,,0,,,NaN,,,,,,false,,,,397458,397457.89999999106,,397457.799999997,,397457.513,8,400,,,
sequence,flow.Sequence,4_74,2023-11-01T16:16:59.212Z,,0,,,3383.584999991057,completion,,,,,false,,,,397458.1999999881,397457.89999999106,394057.649,394072.299999997,394074.315,397457.513,8,400,,,
trial,html.Screen,4_75_0,2023-11-01T16:17:10.697Z,,0,2,,11516.619000000006,timeout,ISIC_0032828.JPG,7,ISIC_1570390.JPG,,false,,,500,408943.09999999404,408942.59999999404,397440.847,397458.299999997,397457.513,408974.132,8,400,26,,
break,html.Screen,4_75_1,2023-11-01T16:17:10.698Z,,0,,,NaN,,,,,,false,,,,408943.89999999106,408943.799999997,,408943.299999997,,408974.132,8,400,,,
break_continue,html.Screen,4_75_2,2023-11-01T16:17:10.698Z,,0,,,NaN,,,,,,false,,,,408944.39999999106,408944.1999999881,,408944.09999999404,,408974.132,8,400,,,
sequence,flow.Sequence,4_75,2023-11-01T16:17:10.699Z,,0,,,11486.686999988102,completion,,,,,false,,,,408944.5,408944.1999999881,397440.847,397458.299999997,397457.513,408974.132,8,400,,,
trial,html.Screen,4_76_0,2023-11-01T16:17:15.376Z,,0,2,,4647.067999988096,response,ISIC_0028071.JPG,8,ISIC_0033881.JPG,ISIC_0033881.JPG,false,0,keypress(z),500,413621.6999999881,413621.1999999881,408957.466,408944.6999999881,408974.132,413623.946,8,400,27,,ISIC_0028071.JPG
break,html.Screen,4_76_1,2023-11-01T16:17:15.377Z,,0,,,NaN,,,,,,false,,,,413622.799999997,413622.59999999404,,413622.09999999404,,413623.946,8,400,,,
break_continue,html.Screen,4_76_2,2023-11-01T16:17:15.377Z,,0,,,NaN,,,,,,false,,,,413623.1999999881,413623.09999999404,,413623,,413623.946,8,400,,,
sequence,flow.Sequence,4_76,2023-11-01T16:17:15.377Z,,0,,,4648.967999994056,completion,,,,,false,,,,413623.39999999106,413623.09999999404,408957.466,408944.6999999881,408974.132,413623.946,8,400,,,
trial,html.Screen,4_77_0,2023-11-01T16:17:19.415Z,,0,2,,4036.753999988083,response,ISIC_0024288.JPG,6,ISIC_0070566.JPG,ISIC_0024288.JPG,false,1,keypress(m),500,417661.1999999881,417660.6999999881,413607.28,413623.5,413623.946,417674.231,8,400,28,,ISIC_0070566.JPG
break,html.Screen,4_77_1,2023-11-01T16:17:19.416Z,,0,,,NaN,,,,,,false,,,,417662.299999997,417662,,417661.59999999404,,417674.231,8,400,,,
break_continue,html.Screen,4_77_2,2023-11-01T16:17:19.417Z,,0,,,NaN,,,,,,false,,,,417662.59999999404,417662.5,,417662.299999997,,417674.231,8,400,,,
sequence,flow.Sequence,4_77,2023-11-01T16:17:19.417Z,,0,,,4038.5540000000037,completion,,,,,false,,,,417662.799999997,417662.5,413607.28,413623.5,413623.946,417674.231,8,400,,,
trial,html.Screen,4_78_0,2023-11-01T16:17:26.462Z,,0,2,,7032.868999994011,response,ISIC_0030610.JPG,8,ISIC_0029591.JPG,ISIC_0029591.JPG,false,0,keypress(z),500,424707.59999999404,424707.09999999404,417657.565,417662.89999999106,417674.231,424723.949,8,400,29,,ISIC_0030610.JPG
break,html.Screen,4_78_1,2023-11-01T16:17:26.463Z,,0,,,NaN,,,,,,false,,,,424708.59999999404,424708.299999997,,424707.89999999106,,424723.949,8,400,,,
break_continue,html.Screen,4_78_2,2023-11-01T16:17:26.463Z,,0,,,NaN,,,,,,false,,,,424708.89999999106,424708.799999997,,424708.6999999881,,424723.949,8,400,,,
sequence,flow.Sequence,4_78,2023-11-01T16:17:26.463Z,,0,,,7034.568999996991,completion,,,,,false,,,,424709.09999999404,424708.799999997,417657.565,417662.89999999106,417674.231,424723.949,8,400,,,
trial,html.Screen,4_79_0,2023-11-01T16:17:29.812Z,,0,2,,3333.5509999999776,response,ISIC_0779920.JPG,9,ISIC_5768032.JPG,ISIC_0779920.JPG,false,1,keypress(m),500,428057.89999999106,428057.5,424707.283,424709.1999999881,424723.949,428074.252,8,400,30,,ISIC_5768032.JPG
break,html.Screen,4_79_1,2023-11-01T16:17:29.813Z,,0,,,NaN,,,,,,false,,,,428058.89999999106,428058.59999999404,,428058.1999999881,,428074.252,8,400,,,
break_continue,html.Screen,4_79_2,2023-11-01T16:17:29.814Z,,0,,,NaN,,,,,,false,,,,428059.299999997,428059.09999999404,,428059.09999999404,,428074.252,8,400,,,
sequence,flow.Sequence,4_79,2023-11-01T16:17:29.814Z,,0,,,3335.150999994017,completion,,,,,false,,,,428059.39999999106,428059.09999999404,424707.283,424709.1999999881,424723.949,428074.252,8,400,,,
trial,html.Screen,4_80_0,2023-11-01T16:17:33.772Z,,0,2,,3942.4479999881005,response,ISIC_6635590.JPG,7,ISIC_6617840.JPG,ISIC_6617840.JPG,false,0,keypress(z),500,432017.1999999881,432016.6999999881,428057.586,428059.59999999404,428074.252,432024.094,8,400,31,,ISIC_6635590.JPG
break,html.Screen,4_80_1,2023-11-01T16:17:33.773Z,,0,,,NaN,,,,,,false,,,,432018.09999999404,432017.89999999106,,432017.5,,432024.094,8,400,,,
break_continue,html.Screen,4_80_2,2023-11-01T16:17:33.773Z,,0,,,NaN,,,,,,false,,,,432018.59999999404,432018.39999999106,,432018.1999999881,,432024.094,8,400,,,
sequence,flow.Sequence,4_80,2023-11-01T16:17:33.773Z,,0,,,3944.1479999910807,completion,,,,,false,,,,432018.6999999881,432018.39999999106,428057.586,428059.59999999404,428074.252,432024.094,8,400,,,
trial,html.Screen,4_81_0,2023-11-01T16:17:37.347Z,,0,2,,3568.0059999940568,response,ISIC_0012107.JPG,8,ISIC_0013136.JPG,ISIC_0013136.JPG,false,0,keypress(z),500,435592.59999999404,435592.09999999404,432007.428,432018.89999999106,432024.094,435607.691,8,400,32,,ISIC_0012107.JPG
break,html.Screen,4_81_1,2023-11-01T16:17:37.348Z,,0,,,NaN,,,,,,false,,,,435593.59999999404,435593.39999999106,,435592.89999999106,,435607.691,8,400,,,
break_continue,html.Screen,4_81_2,2023-11-01T16:17:37.349Z,,0,,,NaN,,,,,,false,,,,435594.09999999404,435593.89999999106,,435593.6999999881,,435607.691,8,400,,,
sequence,flow.Sequence,4_81,2023-11-01T16:17:37.349Z,,0,,,3569.8059999910765,completion,,,,,false,,,,435594.1999999881,435593.89999999106,432007.428,432018.799999997,432024.094,435607.691,8,400,,,
trial,html.Screen,4_82_0,2023-11-01T16:17:41.930Z,,0,2,,4567.008999988087,response,ISIC_0010103.JPG,8,ISIC_6828587.JPG,ISIC_0010103.JPG,false,1,keypress(m),500,440175.1999999881,440174.6999999881,435591.025,435594.299999997,435607.691,440190.841,8,400,33,,ISIC_6828587.JPG
break,html.Screen,4_82_1,2023-11-01T16:17:41.931Z,,0,,,NaN,,,,,,false,,,,440176.09999999404,440176,,440175.39999999106,,440190.841,8,400,,,
break_continue,html.Screen,4_82_2,2023-11-01T16:17:41.931Z,,0,,,NaN,,,,,,false,,,,440176.5,440176.39999999106,,440176.1999999881,,440190.841,8,400,,,
sequence,flow.Sequence,4_82,2023-11-01T16:17:41.931Z,,0,,,4568.708999991068,completion,,,,,false,,,,440176.59999999404,440176.39999999106,435591.025,435594.299999997,435607.691,440190.841,8,400,,,
trial,html.Screen,4_83_0,2023-11-01T16:17:46.000Z,,0,2,,4054.0589999910444,response,ISIC_2954564.JPG,8,ISIC_8901784.JPG,ISIC_2954564.JPG,false,1,keypress(m),500,444245.39999999106,444244.89999999106,440174.175,440176.799999997,440190.841,444257.345,8,400,34,,ISIC_8901784.JPG
break,html.Screen,4_83_1,2023-11-01T16:17:46.001Z,,0,,,NaN,,,,,,false,,,,444246.39999999106,444246.09999999404,,444245.59999999404,,444257.345,8,400,,,
break_continue,html.Screen,4_83_2,2023-11-01T16:17:46.001Z,,0,,,NaN,,,,,,false,,,,444246.799999997,444246.59999999404,,444246.59999999404,,444257.345,8,400,,,
sequence,flow.Sequence,4_83,2023-11-01T16:17:46.002Z,,0,,,4055.7589999940246,completion,,,,,false,,,,444247,444246.59999999404,440174.175,440176.799999997,440190.841,444257.345,8,400,,,
trial,html.Screen,4_84_0,2023-11-01T16:17:49.653Z,,0,2,,3640.854999988107,response,ISIC_0059427.JPG,6,ISIC_7526548.JPG,ISIC_0059427.JPG,false,1,keypress(m),500,447898.6999999881,447898.1999999881,444240.679,444247.09999999404,444257.345,447907.602,8,400,35,,ISIC_7526548.JPG
break,html.Screen,4_84_1,2023-11-01T16:17:49.654Z,,0,,,NaN,,,,,,false,,,,447899.6999999881,447899.5,,447899,,447907.602,8,400,,,
break_continue,html.Screen,4_84_2,2023-11-01T16:17:49.655Z,,0,,,NaN,,,,,,false,,,,447900.1999999881,447900,,447899.89999999106,,447907.602,8,400,,,
sequence,flow.Sequence,4_84,2023-11-01T16:17:49.655Z,,0,,,3642.655000000028,completion,,,,,false,,,,447900.299999997,447900,444240.679,444247,444257.345,447907.602,8,400,,,
trial,html.Screen,4_85_0,2023-11-01T16:17:54.384Z,,0,2,,4721.3979999999865,response,ISIC_3496800.JPG,8,ISIC_0069492.JPG,ISIC_0069492.JPG,false,0,keypress(z),500,452629.5,452629,447890.936,447900.39999999106,447907.602,452640.746,8,400,36,,ISIC_3496800.JPG
break,html.Screen,4_85_1,2023-11-01T16:17:54.385Z,,0,,,NaN,,,,,,false,,,,452630.59999999404,452630.299999997,,452629.6999999881,,452640.746,8,400,,,
break_continue,html.Screen,4_85_2,2023-11-01T16:17:54.386Z,,0,,,NaN,,,,,,false,,,,452630.89999999106,452630.799999997,,452630.6999999881,,452640.746,8,400,,,
sequence,flow.Sequence,4_85,2023-11-01T16:17:54.386Z,,0,,,4723.197999997006,completion,,,,,false,,,,452631.09999999404,452630.799999997,447890.936,447900.299999997,447907.602,452640.746,8,400,,,
trial,html.Screen,4_86_0,2023-11-01T16:17:59.127Z,,0,2,,4731.153999991075,response,ISIC_6767569.JPG,6,ISIC_2445475.JPG,ISIC_6767569.JPG,false,1,keypress(m),500,457372.299999997,457371.89999999106,452624.08,452631.1999999881,452640.746,457374.345,8,400,37,,ISIC_2445475.JPG
break,html.Screen,4_86_1,2023-11-01T16:17:59.128Z,,0,,,NaN,,,,,,false,,,,457373.299999997,457373.09999999404,,457372.59999999404,,457374.345,8,400,,,
break_continue,html.Screen,4_86_2,2023-11-01T16:17:59.129Z,,0,,,NaN,,,,,,false,,,,457373.6999999881,457373.59999999404,,457373.5,,457374.345,8,400,,,
sequence,flow.Sequence,4_86,2023-11-01T16:17:59.129Z,,0,,,4732.853999994055,completion,,,,,false,,,,457373.89999999106,457373.59999999404,452624.08,452631.1999999881,452640.746,457374.345,8,400,,,
trial,html.Screen,4_87_0,2023-11-01T16:18:03.340Z,,0,2,,4210.454999997048,response,ISIC_3520709.JPG,8,ISIC_0029761.JPG,ISIC_0029761.JPG,false,0,keypress(z),500,461585.1999999881,461584.799999997,457357.679,457374,457374.345,461590.843,8,400,38,,ISIC_3520709.JPG
break,html.Screen,4_87_1,2023-11-01T16:18:03.341Z,,0,,,NaN,,,,,,false,,,,461586.39999999106,461586.09999999404,,461585.5,,461590.843,8,400,,,
break_continue,html.Screen,4_87_2,2023-11-01T16:18:03.342Z,,0,,,NaN,,,,,,false,,,,461586.799999997,461586.6999999881,,461586.59999999404,,461590.843,8,400,,,
sequence,flow.Sequence,4_87,2023-11-01T16:18:03.342Z,,0,,,4212.354999988107,completion,,,,,false,,,,461586.89999999106,461586.6999999881,457357.679,457374,457374.345,461590.843,8,400,,,
trial,html.Screen,4_88_0,2023-11-01T16:18:06.899Z,,0,2,,3552.256999994046,response,ISIC_5221917.JPG,7,ISIC_0072004.JPG,ISIC_5221917.JPG,false,1,keypress(m),500,465143.59999999404,465143.09999999404,461574.177,461587,461590.843,465157.367,8,400,39,,ISIC_0072004.JPG
break,html.Screen,4_88_1,2023-11-01T16:18:06.900Z,,0,,,NaN,,,,,,false,,,,465144.59999999404,465144.39999999106,,465143.89999999106,,465157.367,8,400,,,
break_continue,html.Screen,4_88_2,2023-11-01T16:18:06.900Z,,0,,,NaN,,,,,,false,,,,465145,465144.799999997,,465144.6999999881,,465157.367,8,400,,,
sequence,flow.Sequence,4_88,2023-11-01T16:18:06.900Z,,0,,,3553.9569999970263,completion,,,,,false,,,,465145.1999999881,465144.799999997,461574.177,461586.89999999106,461590.843,465157.367,8,400,,,
trial,html.Screen,4_89_0,2023-11-01T16:18:11.067Z,,0,2,,4153.832999988052,response,ISIC_8357679.JPG,8,ISIC_0026398.JPG,ISIC_0026398.JPG,false,0,keypress(z),500,469311.59999999404,469311.1999999881,465140.701,465145.299999997,465157.367,469324.255,8,400,40,,ISIC_8357679.JPG
break,html.Screen,4_89_1,2023-11-01T16:18:11.068Z,,0,,,NaN,,,,,,false,,,,469312.59999999404,469312.39999999106,,469312,,469324.255,8,400,,,
break_continue,html.Screen,4_89_2,2023-11-01T16:18:11.068Z,,0,,,NaN,,,,,,false,,,,469313,469312.89999999106,,469312.799999997,,469324.255,8,400,,,
sequence,flow.Sequence,4_89,2023-11-01T16:18:11.068Z,,0,,,4155.532999991032,completion,,,,,false,,,,469313.1999999881,469312.89999999106,465140.701,465145.1999999881,465157.367,469324.255,8,400,,,
trial,html.Screen,4_90_0,2023-11-01T16:18:15.762Z,,0,2,,4681.944999988074,response,ISIC_0057180.JPG,8,ISIC_0058376.JPG,ISIC_0058376.JPG,false,0,keypress(z),500,474006.59999999404,474006.1999999881,469307.589,469313.299999997,469324.255,474024.067,8,400,41,,ISIC_0057180.JPG
break,html.Screen,4_90_1,2023-11-01T16:18:15.763Z,,0,,,NaN,,,,,,false,,,,474007.59999999404,474007.39999999106,,474006.89999999106,,474024.067,8,400,,,
break_continue,html.Screen,4_90_2,2023-11-01T16:18:15.763Z,,0,,,NaN,,,,,,false,,,,474007.89999999106,474007.89999999106,,474007.6999999881,,474024.067,8,400,,,
sequence,flow.Sequence,4_90,2023-11-01T16:18:15.763Z,,0,,,4683.644999991055,completion,,,,,false,,,,474008.09999999404,474007.89999999106,469307.589,469313.299999997,469324.255,474024.067,8,400,,,
trial,html.Screen,4_91_0,2023-11-01T16:18:19.240Z,,0,2,,3460.433000000019,response,ISIC_3979826.JPG,8,ISIC_0067167.JPG,ISIC_0067167.JPG,false,0,keypress(z),500,477484.89999999106,477484.5,474007.401,474009.39999999106,474024.067,477490.595,8,400,42,,ISIC_3979826.JPG
break,html.Screen,4_91_1,2023-11-01T16:18:19.241Z,,0,,,NaN,,,,,,false,,,,477485.89999999106,477485.6999999881,,477485.1999999881,,477490.595,8,400,,,
break_continue,html.Screen,4_91_2,2023-11-01T16:18:19.242Z,,0,,,NaN,,,,,,false,,,,477486.299999997,477486.1999999881,,477486,,477490.595,8,400,,,
sequence,flow.Sequence,4_91,2023-11-01T16:18:19.242Z,,0,,,3462.132999988098,completion,,,,,false,,,,477486.5,477486.1999999881,474007.401,474008.1999999881,474024.067,477490.595,8,400,,,
trial,html.Screen,4_92_0,2023-11-01T16:18:22.608Z,,0,2,,3361.2049999970477,response,ISIC_4629662.JPG,7,ISIC_0061199.JPG,ISIC_0061199.JPG,false,0,keypress(z),500,480852.1999999881,480851.799999997,477473.929,477486.6999999881,477490.595,480857.532,8,400,43,,ISIC_4629662.JPG
break,html.Screen,4_92_1,2023-11-01T16:18:22.609Z,,0,,,NaN,,,,,,false,,,,480853.09999999404,480853,,480852.5,,480857.532,8,400,,,
break_continue,html.Screen,4_92_2,2023-11-01T16:18:22.609Z,,0,,,NaN,,,,,,false,,,,480853.5,480853.39999999106,,480853.299999997,,480857.532,8,400,,,
sequence,flow.Sequence,4_92,2023-11-01T16:18:22.609Z,,0,,,3362.8049999910872,completion,,,,,false,,,,480853.6999999881,480853.39999999106,477473.929,477486.59999999404,477490.595,480857.532,8,400,,,
trial,html.Screen,4_93_0,2023-11-01T16:18:25.765Z,,0,2,,3152.067999994033,response,ISIC_4308751.JPG,8,ISIC_3886458.JPG,ISIC_4308751.JPG,false,1,keypress(m),500,484009.89999999106,484009.59999999404,480840.866,480853.799999997,480857.532,484024.072,8,400,44,,ISIC_3886458.JPG
break,html.Screen,4_93_1,2023-11-01T16:18:25.766Z,,0,,,NaN,,,,,,false,,,,484011,484010.6999999881,,484010.299999997,,484024.072,8,400,,,
break_continue,html.Screen,4_93_2,2023-11-01T16:18:25.767Z,,0,,,NaN,,,,,,false,,,,484011.299999997,484011.1999999881,,484011,,484024.072,8,400,,,
sequence,flow.Sequence,4_93,2023-11-01T16:18:25.767Z,,0,,,3153.6679999880726,completion,,,,,false,,,,484011.5,484011.1999999881,480840.866,480853.799999997,480857.532,484024.072,8,400,,,
trial,html.Screen,4_94_0,2023-11-01T16:18:32.222Z,,0,2,,6442.027999994054,response,ISIC_0010777.JPG,8,ISIC_2086540.JPG,ISIC_0010777.JPG,false,1,keypress(m),500,490466.5,490466.09999999404,484007.406,484011.59999999404,484024.072,490474.153,8,400,45,,ISIC_2086540.JPG
break,html.Screen,4_94_1,2023-11-01T16:18:32.223Z,,0,,,NaN,,,,,,false,,,,490467.5,490467.299999997,,490466.799999997,,490474.153,8,400,,,
break_continue,html.Screen,4_94_2,2023-11-01T16:18:32.223Z,,0,,,NaN,,,,,,false,,,,490467.799999997,490467.6999999881,,490467.59999999404,,490474.153,8,400,,,
sequence,flow.Sequence,4_94,2023-11-01T16:18:32.224Z,,0,,,6443.6279999880935,completion,,,,,false,,,,490468,490467.6999999881,484007.406,484011.59999999404,484024.072,490474.153,8,400,,,
trial,html.Screen,4_95_0,2023-11-01T16:18:35.718Z,,0,2,,3487.9469999940484,response,ISIC_0071826.JPG,5,ISIC_4172470.JPG,ISIC_0071826.JPG,false,1,keypress(m),500,493962.39999999106,493962.09999999404,490457.487,490468.1999999881,490474.153,493990.679,8,400,46,,ISIC_4172470.JPG
break,html.Screen,4_95_1,2023-11-01T16:18:35.719Z,,0,,,NaN,,,,,,false,,,,493963.39999999106,493963.1999999881,,493962.799999997,,493990.679,8,400,,,
break_continue,html.Screen,4_95_2,2023-11-01T16:18:35.719Z,,0,,,NaN,,,,,,false,,,,493963.89999999106,493963.6999999881,,493963.5,,493990.679,8,400,,,
sequence,flow.Sequence,4_95,2023-11-01T16:18:35.720Z,,0,,,3489.546999988088,completion,,,,,false,,,,493964,493963.6999999881,490457.487,490468.09999999404,490474.153,493990.679,8,400,,,
trial,html.Screen,4_96_0,2023-11-01T16:18:39.212Z,,0,2,,3465.420999994036,response,ISIC_4187627.JPG,5,ISIC_9100283.JPG,ISIC_4187627.JPG,false,1,keypress(m),500,497456.5,497456.09999999404,493974.013,493964.09999999404,493990.679,497473.873,8,400,47,,ISIC_9100283.JPG
break,html.Screen,4_96_1,2023-11-01T16:18:39.213Z,,0,,,NaN,,,,,,false,,,,497457.5,497457.299999997,,497456.799999997,,497473.873,8,400,,,
break_continue,html.Screen,4_96_2,2023-11-01T16:18:39.214Z,,0,,,NaN,,,,,,false,,,,497457.89999999106,497457.799999997,,497457.6999999881,,497473.873,8,400,,,
sequence,flow.Sequence,4_96,2023-11-01T16:18:39.214Z,,0,,,3467.120999997016,completion,,,,,false,,,,497458.09999999404,497457.799999997,493974.013,493964.09999999404,493990.679,497473.873,8,400,,,
trial,html.Screen,4_97_0,2023-11-01T16:18:46.645Z,,0,2,,7414.426999996998,response,ISIC_0064427.JPG,8,ISIC_0064472.JPG,ISIC_0064427.JPG,false,1,keypress(m),500,504888.6999999881,504888.299999997,497457.207,497458.1999999881,497473.873,504890.752,8,400,48,,ISIC_0064472.JPG
break,html.Screen,4_97_1,2023-11-01T16:18:46.646Z,,0,,,NaN,,,,,,false,,,,504889.6999999881,504889.5,,504889,,504890.752,8,400,,,
break_continue,html.Screen,4_97_2,2023-11-01T16:18:46.646Z,,0,,,NaN,,,,,,false,,,,504890.09999999404,504890,,504889.799999997,,504890.752,8,400,,,
sequence,flow.Sequence,4_97,2023-11-01T16:18:46.646Z,,0,,,7416.126999999979,completion,,,,,false,,,,504890.299999997,504890,497457.207,497458.09999999404,497473.873,504890.752,8,400,,,
trial,html.Screen,4_98_0,2023-11-01T16:18:51.643Z,,0,2,,4996.147999991081,response,ISIC_7740023.JPG,8,ISIC_0065622.JPG,ISIC_0065622.JPG,false,0,keypress(z),500,509887.299999997,509886.89999999106,504874.086,504890.5,504890.752,509890.979,8,400,49,,ISIC_7740023.JPG
break,html.Screen,4_98_1,2023-11-01T16:18:51.644Z,,0,,,NaN,,,,,,false,,,,509888.39999999106,509888.09999999404,,509887.59999999404,,509890.979,8,400,,,
break_continue,html.Screen,4_98_2,2023-11-01T16:18:51.645Z,,0,,,NaN,,,,,,false,,,,509888.799999997,509888.59999999404,,509888.39999999106,,509890.979,8,400,,,
sequence,flow.Sequence,4_98,2023-11-01T16:18:51.645Z,,0,,,4997.847999994061,completion,,,,,false,,,,509889,509888.59999999404,504874.086,504890.39999999106,504890.752,509890.979,8,400,,,
trial,html.Screen,4_99_0,2023-11-01T16:18:59.939Z,,0,2,,8291.220999988087,response,ISIC_6761269.JPG,7,ISIC_7633960.JPG,ISIC_7633960.JPG,false,0,keypress(z),500,518182.5,518182.1999999881,509874.313,509889.09999999404,509890.979,518190.647,8,400,50,,ISIC_6761269.JPG
break,html.Screen,4_99_1,2023-11-01T16:19:09.934Z,,0,,,10000.001000000047,timeout,,,,,false,,,,528177.3999999911,528173.982,518173.981,518184.1999999881,518190.647,528190.648,8,400,,,
break_continue,html.Screen,4_99_2,2023-11-01T16:20:21.468Z,,0,,,71500.75199999101,response,,,,,false,continue,keypress(Space),,599710.1999999881,599691.3999999911,528173.982,528177.599999994,528190.648,599721.12,8,400,,,
sequence,flow.Sequence,4_99,2023-11-01T16:20:21.468Z,,0,,,89800.42099999107,completion,,,,,false,,,,599710.3999999911,599691.3999999911,509874.313,509889.09999999404,509890.979,599721.12,8,400,,,
trial,html.Screen,4_100_0,2023-11-01T16:20:25.765Z,,0,3,,4285.880000000005,response,ISIC_0064376.JPG,8,ISIC_0046526.JPG,ISIC_0046526.JPG,false,0,keypress(z),500,604007.599999994,604007,599704.454,599710.5,599721.12,604023.968,8,400,1,,ISIC_0064376.JPG
break,html.Screen,4_100_1,2023-11-01T16:20:25.766Z,,0,,,NaN,,,,,,false,,,,604008.5,604008.299999997,,604007.799999997,,604023.968,8,400,,,
break_continue,html.Screen,4_100_2,2023-11-01T16:20:25.767Z,,0,,,NaN,,,,,,false,,,,604009,604008.799999997,,604008.6999999881,,604023.968,8,400,,,
sequence,flow.Sequence,4_100,2023-11-01T16:20:25.767Z,,0,,,4287.679999997024,completion,,,,,false,,,,604009.099999994,604008.799999997,599704.454,599710.3999999911,599721.12,604023.968,8,400,,,
trial,html.Screen,4_101_0,2023-11-01T16:20:29.533Z,,0,3,,3750.631999994046,response,ISIC_7699223.JPG,7,ISIC_1595103.JPG,ISIC_1595103.JPG,false,0,keypress(z),500,607775,607774.599999994,604007.302,604009.299999997,604023.968,607790.484,8,400,2,,ISIC_7699223.JPG
break,html.Screen,4_101_1,2023-11-01T16:20:29.534Z,,0,,,NaN,,,,,,false,,,,607776,607775.799999997,,607775.299999997,,607790.484,8,400,,,
break_continue,html.Screen,4_101_2,2023-11-01T16:20:29.534Z,,0,,,NaN,,,,,,false,,,,607776.3999999911,607776.1999999881,,607776.1999999881,,607790.484,8,400,,,
sequence,flow.Sequence,4_101,2023-11-01T16:20:29.534Z,,0,,,3752.2319999880856,completion,,,,,false,,,,607776.5,607776.1999999881,604007.302,604009.1999999881,604023.968,607790.484,8,400,,,
trial,html.Screen,4_102_0,2023-11-01T16:20:33.522Z,,0,3,,3973.015999999945,response,ISIC_7822725.JPG,7,ISIC_5625747.JPG,ISIC_5625747.JPG,false,0,keypress(z),500,611763.8999999911,611763.5,607773.818,607776.599999994,607790.484,611774.257,8,400,3,,ISIC_7822725.JPG
break,html.Screen,4_102_1,2023-11-01T16:20:33.523Z,,0,,,NaN,,,,,,false,,,,611764.599999994,611764.5,,611764.099999994,,611774.257,8,400,,,
break_continue,html.Screen,4_102_2,2023-11-01T16:20:33.523Z,,0,,,NaN,,,,,,false,,,,611764.799999997,611764.6999999881,,611764.6999999881,,611774.257,8,400,,,
sequence,flow.Sequence,4_102,2023-11-01T16:20:33.523Z,,0,,,3974.215999988024,completion,,,,,false,,,,611765,611764.6999999881,607773.818,607776.599999994,607790.484,611774.257,8,400,,,
trial,html.Screen,4_103_0,2023-11-01T16:20:36.744Z,,0,3,,3211.142999991076,response,ISIC_1729351.JPG,9,ISIC_0011484.JPG,ISIC_0011484.JPG,false,0,keypress(z),500,614985.8999999911,614985.3999999911,611757.591,611765,611774.257,614990.795,8,400,4,,ISIC_1729351.JPG
break,html.Screen,4_103_1,2023-11-01T16:20:36.745Z,,0,,,NaN,,,,,,false,,,,614986.8999999911,614986.6999999881,,614986.1999999881,,614990.795,8,400,,,
break_continue,html.Screen,4_103_2,2023-11-01T16:20:36.745Z,,0,,,NaN,,,,,,false,,,,614987.3999999911,614987.1999999881,,614987,,614990.795,8,400,,,
sequence,flow.Sequence,4_103,2023-11-01T16:20:36.745Z,,0,,,3212.942999988096,completion,,,,,false,,,,614987.5,614987.1999999881,611757.591,611765,611774.257,614990.795,8,400,,,
trial,html.Screen,4_104_0,2023-11-01T16:20:40.191Z,,0,3,,3441.204999999958,response,ISIC_0053513.JPG,8,ISIC_4899386.JPG,ISIC_4899386.JPG,false,0,keypress(z),500,618432.5,618432,614974.129,614987.599999994,614990.795,618440.657,8,400,5,,ISIC_0053513.JPG
break,html.Screen,4_104_1,2023-11-01T16:20:40.192Z,,0,,,NaN,,,,,,false,,,,618433.5,618433.299999997,,618432.799999997,,618440.657,8,400,,,
break_continue,html.Screen,4_104_2,2023-11-01T16:20:40.192Z,,0,,,NaN,,,,,,false,,,,618433.8999999911,618433.6999999881,,618433.6999999881,,618440.657,8,400,,,
sequence,flow.Sequence,4_104,2023-11-01T16:20:40.192Z,,0,,,3442.904999988037,completion,,,,,false,,,,618434,618433.6999999881,614974.129,614987.5,614990.795,618440.657,8,400,,,
trial,html.Screen,4_105_0,2023-11-01T16:20:43.302Z,,0,3,,3102.942999994033,response,ISIC_0067621.JPG,7,ISIC_1772828.JPG,ISIC_0067621.JPG,false,1,keypress(m),500,621544.099999994,621543.599999994,618423.991,618434.1999999881,618440.657,621557.199,8,400,6,,ISIC_1772828.JPG
break,html.Screen,4_105_1,2023-11-01T16:20:43.303Z,,0,,,NaN,,,,,,false,,,,621545.099999994,621544.799999997,,621544.3999999911,,621557.199,8,400,,,
break_continue,html.Screen,4_105_2,2023-11-01T16:20:43.304Z,,0,,,NaN,,,,,,false,,,,621545.5,621545.299999997,,621545.299999997,,621557.199,8,400,,,
sequence,flow.Sequence,4_105,2023-11-01T16:20:43.304Z,,0,,,3104.6429999970132,completion,,,,,false,,,,621545.599999994,621545.299999997,618423.991,618434.1999999881,618440.657,621557.199,8,400,,,
trial,html.Screen,4_106_0,2023-11-01T16:20:46.780Z,,0,3,,3464.5009999880567,response,ISIC_0027836.JPG,6,ISIC_0067170.JPG,ISIC_0067170.JPG,false,0,keypress(z),500,625022.099999994,625021.6999999881,621540.533,621545.799999997,621557.199,625040.801,8,400,7,,ISIC_0027836.JPG
break,html.Screen,4_106_1,2023-11-01T16:20:46.781Z,,0,,,NaN,,,,,,false,,,,625023.099999994,625022.8999999911,,625022.3999999911,,625040.801,8,400,,,
break_continue,html.Screen,4_106_2,2023-11-01T16:20:46.782Z,,0,,,NaN,,,,,,false,,,,625023.3999999911,625023.299999997,,625023.1999999881,,625040.801,8,400,,,
sequence,flow.Sequence,4_106,2023-11-01T16:20:46.782Z,,0,,,3466.1009999969974,completion,,,,,false,,,,625023.599999994,625023.299999997,621540.533,621545.6999999881,621557.199,625040.801,8,400,,,
trial,html.Screen,4_107_0,2023-11-01T16:20:50.577Z,,0,3,,3777.1990000000224,response,ISIC_8759726.JPG,7,ISIC_5082596.JPG,ISIC_5082596.JPG,false,0,keypress(z),500,628818.5,628818,625024.135,625023.6999999881,625040.801,628823.983,8,400,8,,ISIC_8759726.JPG
break,html.Screen,4_107_1,2023-11-01T16:20:50.578Z,,0,,,NaN,,,,,,false,,,,628819.5,628819.299999997,,628818.799999997,,628823.983,8,400,,,
break_continue,html.Screen,4_107_2,2023-11-01T16:20:50.578Z,,0,,,NaN,,,,,,false,,,,628819.799999997,628819.6999999881,,628819.599999994,,628823.983,8,400,,,
sequence,flow.Sequence,4_107,2023-11-01T16:20:50.578Z,,0,,,3778.8989999881014,completion,,,,,false,,,,628819.8999999911,628819.6999999881,625024.135,625023.599999994,625040.801,628823.983,8,400,,,
trial,html.Screen,4_108_0,2023-11-01T16:20:53.884Z,,0,3,,3301.2169999880716,response,ISIC_0072843.JPG,6,ISIC_4554381.JPG,ISIC_0072843.JPG,false,1,keypress(m),500,632125.6999999881,632125.1999999881,628807.317,628820.099999994,628823.983,632140.913,8,400,9,,ISIC_4554381.JPG
break,html.Screen,4_108_1,2023-11-01T16:20:53.885Z,,0,,,NaN,,,,,,false,,,,632126.599999994,632126.3999999911,,632126,,632140.913,8,400,,,
break_continue,html.Screen,4_108_2,2023-11-01T16:20:53.885Z,,0,,,NaN,,,,,,false,,,,632127.099999994,632126.8999999911,,632126.799999997,,632140.913,8,400,,,
sequence,flow.Sequence,4_108,2023-11-01T16:20:53.886Z,,0,,,3302.916999991052,completion,,,,,false,,,,632127.299999997,632126.8999999911,628807.317,628820.099999994,628823.983,632140.913,8,400,,,
trial,html.Screen,4_109_0,2023-11-01T16:20:57.145Z,,0,3,,3245.5870000000577,response,ISIC_0046223.JPG,7,ISIC_0013719.JPG,ISIC_0046223.JPG,false,1,keypress(m),500,635386.8999999911,635386.5,632124.247,632127.5,632140.913,635390.783,8,400,10,,ISIC_0013719.JPG
break,html.Screen,4_109_1,2023-11-01T16:20:57.146Z,,0,,,NaN,,,,,,false,,,,635387.8999999911,635387.6999999881,,635387.1999999881,,635390.783,8,400,,,
break_continue,html.Screen,4_109_2,2023-11-01T16:20:57.147Z,,0,,,NaN,,,,,,false,,,,635388.299999997,635388.099999994,,635388,,635390.783,8,400,,,
sequence,flow.Sequence,4_109,2023-11-01T16:20:57.147Z,,0,,,3247.1869999940973,completion,,,,,false,,,,635388.5,635388.099999994,632124.247,632127.3999999911,632140.913,635390.783,8,400,,,
trial,html.Screen,4_110_0,2023-11-01T16:21:00.368Z,,0,3,,3218.416999988025,response,ISIC_0016050.JPG,8,ISIC_0027088.JPG,ISIC_0016050.JPG,false,1,keypress(m),500,638609.599999994,638609.1999999881,635374.117,635388.599999994,635390.783,638623.987,8,400,11,,ISIC_0027088.JPG
break,html.Screen,4_110_1,2023-11-01T16:21:00.369Z,,0,,,NaN,,,,,,false,,,,638610.599999994,638610.299999997,,638609.799999997,,638623.987,8,400,,,
break_continue,html.Screen,4_110_2,2023-11-01T16:21:00.369Z,,0,,,NaN,,,,,,false,,,,638610.8999999911,638610.6999999881,,638610.6999999881,,638623.987,8,400,,,
sequence,flow.Sequence,4_110,2023-11-01T16:21:00.370Z,,0,,,3219.916999988025,completion,,,,,false,,,,638611.099999994,638610.6999999881,635374.117,635388.599999994,635390.783,638623.987,8,400,,,
trial,html.Screen,4_111_0,2023-11-01T16:21:03.830Z,,0,3,,3446.612999994075,response,ISIC_7050122.JPG,7,ISIC_8789051.JPG,ISIC_8789051.JPG,false,0,keypress(z),500,642071.099999994,642070.599999994,638607.321,638611.1999999881,638623.987,642090.907,8,400,12,,ISIC_7050122.JPG
break,html.Screen,4_111_1,2023-11-01T16:21:03.831Z,,0,,,NaN,,,,,,false,,,,642072.099999994,642071.8999999911,,642071.3999999911,,642090.907,8,400,,,
break_continue,html.Screen,4_111_2,2023-11-01T16:21:03.831Z,,0,,,NaN,,,,,,false,,,,642072.3999999911,642072.299999997,,642072.1999999881,,642090.907,8,400,,,
sequence,flow.Sequence,4_111,2023-11-01T16:21:03.831Z,,0,,,3448.312999997055,completion,,,,,false,,,,642072.599999994,642072.299999997,638607.321,638611.1999999881,638623.987,642090.907,8,400,,,
trial,html.Screen,4_112_0,2023-11-01T16:21:07.068Z,,0,3,,3218.192999994033,response,ISIC_0064318.JPG,7,ISIC_0069970.JPG,ISIC_0069970.JPG,false,0,keypress(z),500,645309.5,645309.099999994,642074.241,642072.6999999881,642090.907,645324.111,8,400,13,,ISIC_0064318.JPG
break,html.Screen,4_112_1,2023-11-01T16:21:07.069Z,,0,,,NaN,,,,,,false,,,,645310.5,645310.299999997,,645309.799999997,,645324.111,8,400,,,
break_continue,html.Screen,4_112_2,2023-11-01T16:21:07.069Z,,0,,,NaN,,,,,,false,,,,645310.8999999911,645310.799999997,,645310.6999999881,,645324.111,8,400,,,
sequence,flow.Sequence,4_112,2023-11-01T16:21:07.070Z,,0,,,3219.8929999970132,completion,,,,,false,,,,645311,645310.799999997,642074.241,642072.6999999881,642090.907,645324.111,8,400,,,
trial,html.Screen,4_113_0,2023-11-01T16:21:10.739Z,,0,3,,3655.988999994006,response,ISIC_8071637.JPG,8,ISIC_1389141.JPG,ISIC_8071637.JPG,false,1,keypress(m),500,648980.599999994,648980.099999994,645307.445,645311.1999999881,645324.111,648990.631,8,400,14,,ISIC_1389141.JPG
break,html.Screen,4_113_1,2023-11-01T16:21:10.740Z,,0,,,NaN,,,,,,false,,,,648981.5,648981.3999999911,,648980.8999999911,,648990.631,8,400,,,
break_continue,html.Screen,4_113_2,2023-11-01T16:21:10.741Z,,0,,,NaN,,,,,,false,,,,648981.8999999911,648981.799999997,,648981.6999999881,,648990.631,8,400,,,
sequence,flow.Sequence,4_113,2023-11-01T16:21:10.741Z,,0,,,3657.6889999969862,completion,,,,,false,,,,648982.099999994,648981.799999997,645307.445,645311.099999994,645324.111,648990.631,8,400,,,
trial,html.Screen,4_114_0,2023-11-01T16:21:14.087Z,,0,3,,3337.568999988027,response,ISIC_0046671.JPG,8,ISIC_2748873.JPG,ISIC_2748873.JPG,false,0,keypress(z),500,652328.6999999881,652328.1999999881,648973.965,648982.299999997,648990.631,652340.902,8,400,15,,ISIC_0046671.JPG
break,html.Screen,4_114_1,2023-11-01T16:21:14.088Z,,0,,,NaN,,,,,,false,,,,652329.6999999881,652329.3999999911,,652329,,652340.902,8,400,,,
break_continue,html.Screen,4_114_2,2023-11-01T16:21:14.089Z,,0,,,NaN,,,,,,false,,,,652330.099999994,652329.8999999911,,652329.799999997,,652340.902,8,400,,,
sequence,flow.Sequence,4_114,2023-11-01T16:21:14.089Z,,0,,,3339.268999991007,completion,,,,,false,,,,652330.1999999881,652329.8999999911,648973.965,648982.1999999881,648990.631,652340.902,8,400,,,
trial,html.Screen,4_115_0,2023-11-01T16:21:17.332Z,,0,3,,3231.4979999910574,response,ISIC_0031726.JPG,8,ISIC_0062524.JPG,ISIC_0062524.JPG,false,0,keypress(z),500,655572.799999997,655572.3999999911,652324.236,652330.3999999911,652340.902,655574.106,8,400,16,,ISIC_0031726.JPG
break,html.Screen,4_115_1,2023-11-01T16:21:17.332Z,,0,,,NaN,,,,,,false,,,,655573.6999999881,655573.5,,655573,,655574.106,8,400,,,
break_continue,html.Screen,4_115_2,2023-11-01T16:21:17.333Z,,0,,,NaN,,,,,,false,,,,655574.099999994,655573.8999999911,,655573.799999997,,655574.106,8,400,,,
sequence,flow.Sequence,4_115,2023-11-01T16:21:17.333Z,,0,,,3232.9979999910574,completion,,,,,false,,,,655574.299999997,655573.8999999911,652324.236,652330.299999997,652340.902,655574.106,8,400,,,
trial,html.Screen,4_116_0,2023-11-01T16:21:22.735Z,,0,3,,5401.79399999103,response,ISIC_0000022.JPG,8,ISIC_7373074.JPG,ISIC_0000022.JPG,false,1,keypress(m),500,660976.599999994,660975.8999999911,655557.44,655574.3999999911,655574.106,660990.556,8,400,17,,ISIC_7373074.JPG
break,html.Screen,4_116_1,2023-11-01T16:21:22.736Z,,0,,,NaN,,,,,,false,,,,660977.599999994,660977.3999999911,,660976.799999997,,660990.556,8,400,,,
break_continue,html.Screen,4_116_2,2023-11-01T16:21:22.737Z,,0,,,NaN,,,,,,false,,,,660978,660977.799999997,,660977.799999997,,660990.556,8,400,,,
sequence,flow.Sequence,4_116,2023-11-01T16:21:22.737Z,,0,,,5403.693999996991,completion,,,,,false,,,,660978.099999994,660977.799999997,655557.44,655574.299999997,655574.106,660990.556,8,400,,,
trial,html.Screen,4_117_0,2023-11-01T16:21:26.438Z,,0,3,,3687.5439999940572,response,ISIC_0028175.JPG,8,ISIC_3198731.JPG,ISIC_0028175.JPG,false,1,keypress(m),500,664678.599999994,664678.099999994,660973.89,660978.299999997,660990.556,664690.809,8,400,18,,ISIC_3198731.JPG
break,html.Screen,4_117_1,2023-11-01T16:21:26.439Z,,0,,,NaN,,,,,,false,,,,664679.599999994,664679.3999999911,,664678.8999999911,,664690.809,8,400,,,
break_continue,html.Screen,4_117_2,2023-11-01T16:21:26.439Z,,0,,,NaN,,,,,,false,,,,664680,664679.8999999911,,664679.799999997,,664690.809,8,400,,,
sequence,flow.Sequence,4_117,2023-11-01T16:21:26.439Z,,0,,,3689.343999991077,completion,,,,,false,,,,664680.1999999881,664679.8999999911,660973.89,660978.1999999881,660990.556,664690.809,8,400,,,
trial,html.Screen,4_118_0,2023-11-01T16:21:29.882Z,,0,3,,3432.290999994031,response,ISIC_0014061.JPG,8,ISIC_1925632.JPG,ISIC_0014061.JPG,false,1,keypress(m),500,668123.1999999881,668123.099999994,664674.143,664680.299999997,664690.809,668124.005,8,400,19,,ISIC_1925632.JPG
break,html.Screen,4_118_1,2023-11-01T16:21:29.883Z,,0,,,NaN,,,,,,false,,,,668123.5,668123.3999999911,,668123.1999999881,,668124.005,8,400,,,
break_continue,html.Screen,4_118_2,2023-11-01T16:21:29.883Z,,0,,,NaN,,,,,,false,,,,668123.599999994,668123.5,,668123.5,,668124.005,8,400,,,
sequence,flow.Sequence,4_118,2023-11-01T16:21:29.883Z,,0,,,3432.6909999999916,completion,,,,,false,,,,668123.599999994,668123.5,664674.143,664680.299999997,664690.809,668124.005,8,400,,,
trial,html.Screen,4_119_0,2023-11-01T16:21:35.231Z,,0,3,,5347.494999999995,response,ISIC_0028512.JPG,5,ISIC_1641823.JPG,ISIC_0028512.JPG,false,1,keypress(m),500,673472,673471.5,668107.339,668123.6999999881,668124.005,673474.219,8,400,20,,ISIC_1641823.JPG
break,html.Screen,4_119_1,2023-11-01T16:21:35.232Z,,0,,,NaN,,,,,,false,,,,673473.099999994,673472.8999999911,,673472.3999999911,,673474.219,8,400,,,
break_continue,html.Screen,4_119_2,2023-11-01T16:21:35.233Z,,0,,,NaN,,,,,,false,,,,673473.3999999911,673473.299999997,,673473.1999999881,,673474.219,8,400,,,
sequence,flow.Sequence,4_119,2023-11-01T16:21:35.233Z,,0,,,5349.294999997015,completion,,,,,false,,,,673473.599999994,673473.299999997,668107.339,668123.6999999881,668124.005,673474.219,8,400,,,
trial,html.Screen,4_120_0,2023-11-01T16:21:38.840Z,,0,3,,3606.1809999910183,response,ISIC_0011490.JPG,8,ISIC_0027091.JPG,ISIC_0027091.JPG,false,0,keypress(z),500,677080.8999999911,677080.3999999911,673457.553,673473.6999999881,673474.219,677090.741,8,400,21,,ISIC_0011490.JPG
break,html.Screen,4_120_1,2023-11-01T16:21:38.841Z,,0,,,NaN,,,,,,false,,,,677082,677081.6999999881,,677081.299999997,,677090.741,8,400,,,
break_continue,html.Screen,4_120_2,2023-11-01T16:21:38.842Z,,0,,,NaN,,,,,,false,,,,677082.5,677082.299999997,,677082.1999999881,,677090.741,8,400,,,
sequence,flow.Sequence,4_120,2023-11-01T16:21:38.842Z,,0,,,3608.080999996979,completion,,,,,false,,,,677082.5,677082.299999997,673457.553,673473.599999994,673474.219,677090.741,8,400,,,
trial,html.Screen,4_121_0,2023-11-01T16:21:42.190Z,,0,3,,3339.3589999940014,response,ISIC_0060897.JPG,9,ISIC_0000135.JPG,ISIC_0060897.JPG,false,1,keypress(m),500,680430.3999999911,680430.099999994,677074.075,677082.6999999881,677090.741,680440.607,8,400,22,,ISIC_0000135.JPG
break,html.Screen,4_121_1,2023-11-01T16:21:42.191Z,,0,,,NaN,,,,,,false,,,,680431.3999999911,680431.099999994,,680430.6999999881,,680440.607,8,400,,,
break_continue,html.Screen,4_121_2,2023-11-01T16:21:42.191Z,,0,,,NaN,,,,,,false,,,,680431.799999997,680431.599999994,,680431.5,,680440.607,8,400,,,
sequence,flow.Sequence,4_121,2023-11-01T16:21:42.191Z,,0,,,3340.8589999940014,completion,,,,,false,,,,680432,680431.599999994,677074.075,677082.6999999881,677090.741,680440.607,8,400,,,
trial,html.Screen,4_122_0,2023-11-01T16:21:45.955Z,,0,3,,3754.4929999940796,response,ISIC_7268123.JPG,7,ISIC_4960406.JPG,ISIC_7268123.JPG,false,1,keypress(m),500,684195.599999994,684195.099999994,680423.941,680432.099999994,680440.607,684207.483,8,400,23,,ISIC_4960406.JPG
break,html.Screen,4_122_1,2023-11-01T16:21:45.956Z,,0,,,NaN,,,,,,false,,,,684196.6999999881,684196.3999999911,,684195.8999999911,,684207.483,8,400,,,
break_continue,html.Screen,4_122_2,2023-11-01T16:21:45.956Z,,0,,,NaN,,,,,,false,,,,684197.099999994,684196.8999999911,,684196.799999997,,684207.483,8,400,,,
sequence,flow.Sequence,4_122,2023-11-01T16:21:45.957Z,,0,,,3756.2929999910994,completion,,,,,false,,,,684197.1999999881,684196.8999999911,680423.941,680432.099999994,680440.607,684207.483,8,400,,,
trial,html.Screen,4_123_0,2023-11-01T16:21:49.211Z,,0,3,,3243.5169999999925,response,ISIC_0280912.JPG,7,ISIC_0706692.JPG,ISIC_0706692.JPG,false,0,keypress(z),500,687451.3999999911,687451,684190.817,684197.299999997,684207.483,687457.353,8,400,24,,ISIC_0280912.JPG
break,html.Screen,4_123_1,2023-11-01T16:21:49.212Z,,0,,,NaN,,,,,,false,,,,687452.5,687452.1999999881,,687451.6999999881,,687457.353,8,400,,,
break_continue,html.Screen,4_123_2,2023-11-01T16:21:49.212Z,,0,,,NaN,,,,,,false,,,,687452.8999999911,687452.799999997,,687452.6999999881,,687457.353,8,400,,,
sequence,flow.Sequence,4_123,2023-11-01T16:21:49.212Z,,0,,,3245.3169999970123,completion,,,,,false,,,,687453.099999994,687452.799999997,684190.817,684197.1999999881,684207.483,687457.353,8,400,,,
trial,html.Screen,4_124_0,2023-11-01T16:21:53.249Z,,0,3,,4031.5469999910565,response,ISIC_0033980.JPG,8,ISIC_0000304.JPG,ISIC_0000304.JPG,false,0,keypress(z),500,691489.3999999911,691488.8999999911,687440.687,687454.099999994,687457.353,691490.525,8,400,25,,ISIC_0033980.JPG
break,html.Screen,4_124_1,2023-11-01T16:21:53.250Z,,0,,,NaN,,,,,,false,,,,691490.299999997,691490.099999994,,691489.6999999881,,691490.525,8,400,,,
break_continue,html.Screen,4_124_2,2023-11-01T16:21:53.250Z,,0,,,NaN,,,,,,false,,,,691490.799999997,691490.599999994,,691490.5,,691490.525,8,400,,,
sequence,flow.Sequence,4_124,2023-11-01T16:21:53.250Z,,0,,,4033.2469999940367,completion,,,,,false,,,,691490.8999999911,691490.599999994,687440.687,687454.099999994,687457.353,691490.525,8,400,,,
trial,html.Screen,4_125_0,2023-11-01T16:21:56.536Z,,0,3,,3285.174999988056,response,ISIC_8835545.JPG,8,ISIC_6539127.JPG,ISIC_8835545.JPG,false,1,keypress(m),500,694776.099999994,694775.6999999881,691473.859,691491,691490.525,694790.83,8,400,26,,ISIC_6539127.JPG
break,html.Screen,4_125_1,2023-11-01T16:21:56.537Z,,0,,,NaN,,,,,,false,,,,694777.1999999881,694776.8999999911,,694776.3999999911,,694790.83,8,400,,,
break_continue,html.Screen,4_125_2,2023-11-01T16:21:56.537Z,,0,,,NaN,,,,,,false,,,,694777.5,694777.3999999911,,694777.299999997,,694790.83,8,400,,,
