sender,sender_type,sender_id,timestamp,meta,,blockNo,condition,duration,ended_on,img_left,img_reveal,img_right,loser,practice,response,response_action,selection_duration,time_commit,time_end,time_render,time_run,time_show,time_switch,total_blocks,total_trials,trialNo,url,winner
informed_consent,html.Screen,0,2023-11-03T18:59:53.634Z,"{""labjs_version"":""20.2.4"",""labjs_build"":{""flavor"":""production"",""commit"":""f5b4a49f956347addd546a832a3327688c2c0fef""},""location"":""https://run.pavlovia.org/MurrayBennett/melanoma-2afc/?participant=65981&platform=sona"",""userAgent"":""Mozilla/5.0 (Windows NT 10.0; Win64; x64) AppleWebKit/537.36 (KHTML, like Gecko) Chrome/118.0.0.0 Safari/537.36"",""platform"":""Win32"",""language"":""en-US"",""locale"":""en-US"",""timeZone"":""America/Chicago"",""timezoneOffset"":300,""screen_width"":1920,""screen_height"":1080,""scroll_width"":1920,""scroll_height"":953,""window_innerWidth"":1920,""window_innerHeight"":1001,""devicePixelRatio"":1}",,,,6249.856000011921,response,,,,,,consent,click button,,8199.800000011921,8198.800000011921,1942.017,1941.4000000059605,1948.944,8204.756,,,,"{""participant"":""65981"",""platform"":""sona""}",
Welcome,html.Screen,1,2023-11-03T18:59:54.189Z,,,,uniform,550.0440000119215,response,,,,,,continue,click button,,8755.300000011921,8754.800000011921,8198.029,8199.90000000596,8204.756,8761.754,,,,,
trial,html.Screen,2_0_0,2023-11-03T18:59:57.407Z,,0,0,,3210.6460000059596,response,ISIC_0025593.JPG,,ISIC_0063388.JPG,ISIC_0063388.JPG,true,0,keypress(Z),500,11972.59999999404,11972.40000000596,8754.808,8755.40000000596,8761.754,11976.807,1,6,1,,ISIC_0025593.JPG
sequence,flow.Sequence,2_0,2023-11-03T18:59:57.407Z,,0,,,3210.6460000059596,completion,,,,,true,,,,11972.700000017881,11972.40000000596,8754.808,8755.40000000596,8761.754,11976.807,1,6,,,
trial,html.Screen,2_1_0,2023-11-03T19:00:07.168Z,,0,0,,9756.59300000596,response,ISIC_1309015.JPG,,ISIC_0028178.JPG,ISIC_0028178.JPG,true,0,keypress(Z),500,21733.5,21733.40000000596,11969.418,11972.800000011921,11976.807,21740.92,1,6,2,,ISIC_1309015.JPG
sequence,flow.Sequence,2_1,2023-11-03T19:00:07.168Z,,0,,,9756.59300000596,completion,,,,,true,,,,21733.70000001788,21733.40000000596,11969.418,11972.800000011921,11976.807,21740.92,1,6,,,
trial,html.Screen,2_2_0,2023-11-03T19:00:15.217Z,,0,0,,8042.179999994041,response,ISIC_0031128.JPG,,ISIC_3314853.JPG,ISIC_3314853.JPG,true,0,keypress(Z),500,29783.30000001192,29783.09999999404,21733.583,21733.80000001192,21740.92,29789.744,1,6,3,,ISIC_0031128.JPG
sequence,flow.Sequence,2_2,2023-11-03T19:00:15.217Z,,0,,,8042.179999994041,completion,,,,,true,,,,29783.40000000596,29783.09999999404,21733.583,21733.70000001788,21740.92,29789.744,1,6,,,
trial,html.Screen,2_3_0,2023-11-03T19:00:24.243Z,,0,0,,9018.85599999404,response,ISIC_8980141.JPG,,ISIC_0031612.JPG,ISIC_0031612.JPG,true,0,keypress(Z),500,38808.80000001192,38808.59999999404,29782.775,29783.5,29789.744,38811.099,1,6,4,,ISIC_8980141.JPG
sequence,flow.Sequence,2_3,2023-11-03T19:00:24.243Z,,0,,,9018.85599999404,completion,,,,,true,,,,38808.90000000596,38808.59999999404,29782.775,29783.40000000596,29789.744,38811.099,1,6,,,
trial,html.Screen,2_4_0,2023-11-03T19:00:26.276Z,,0,0,,2030.8010000059585,response,ISIC_9721604.JPG,,ISIC_1197737.JPG,ISIC_1197737.JPG,true,0,keypress(Z),500,40842.09999999404,40841.90000000596,38804.153,38809.09999999404,38811.099,40845.356,1,6,5,,ISIC_9721604.JPG
sequence,flow.Sequence,2_4,2023-11-03T19:00:26.276Z,,0,,,2030.8010000059585,completion,,,,,true,,,,40842.30000001192,40841.90000000596,38804.153,38809,38811.099,40845.356,1,6,,,
trial,html.Screen,2_5_0,2023-11-03T19:00:28.598Z,,0,0,,2318.0440000059607,response,ISIC_0010681.JPG,,ISIC_0025346.JPG,ISIC_0025346.JPG,true,0,keypress(Z),500,43163.59999999404,43163.40000000596,40838.407,40842.40000000596,40845.356,43164.842,1,6,6,,ISIC_0010681.JPG
sequence,flow.Sequence,2_5,2023-11-03T19:00:28.598Z,,0,,,2318.0440000059607,completion,,,,,true,,,,43163.80000001192,43163.40000000596,40838.407,40842.30000001192,40845.356,43164.842,1,6,,,
loop,flow.Loop,2,2023-11-03T19:00:28.598Z,,,,,34401.64600000596,completion,,,,,true,,,,43163.90000000596,43163.40000000596,8754.808,8755.40000000596,8761.754,43164.842,1,6,,,
exp_instructions,html.Screen,3,2023-11-03T19:00:29.670Z,,,,,1070.958000011924,response,,,,,,continue,keypress(Space),,44236.09999999404,44235.80000001192,43157.899,43163.90000000596,43164.842,44248.313,,,,,
trial,html.Screen,4_0_0,2023-11-03T19:00:39.528Z,,0,1,,9845.487000011919,response,ISIC_2178689.JPG,5,ISIC_8419663.JPG,ISIC_8419663.JPG,false,0,keypress(Z),500,54093.90000000596,54093.80000001192,44240.622,44236.20000001788,44248.313,54098.67,8,400,1,,ISIC_2178689.JPG
break,html.Screen,4_0_1,2023-11-03T19:00:39.529Z,,0,,,NaN,,,,,,false,,,,54094.40000000596,54094.30000001192,,54094,,54098.67,8,400,,,
break_continue,html.Screen,4_0_2,2023-11-03T19:00:39.529Z,,0,,,NaN,,,,,,false,,,,54094.5,54094.40000000596,,54094.40000000596,,54098.67,8,400,,,
sequence,flow.Sequence,4_0,2023-11-03T19:00:39.529Z,,0,,,9846.087000005959,completion,,,,,false,,,,54094.59999999404,54094.40000000596,44240.622,44236.20000001788,44248.313,54098.67,8,400,,,
trial,html.Screen,4_1_0,2023-11-03T19:00:50.571Z,,0,1,,11037.630000011923,response,ISIC_3031102.JPG,5,ISIC_2924968.JPG,ISIC_2924968.JPG,false,0,keypress(Z),500,65136.5,65136.30000001192,54091.943,54094.59999999404,54098.67,65141.66,8,400,2,,ISIC_3031102.JPG
break,html.Screen,4_1_1,2023-11-03T19:00:50.571Z,,0,,,NaN,,,,,,false,,,,65137,65136.90000000596,,65136.70000001788,,65141.66,8,400,,,
break_continue,html.Screen,4_1_2,2023-11-03T19:00:50.571Z,,0,,,NaN,,,,,,false,,,,65137.09999999404,65137.09999999404,,65137,,65141.66,8,400,,,
sequence,flow.Sequence,4_1,2023-11-03T19:00:50.571Z,,0,,,11038.429999994041,completion,,,,,false,,,,65137.20000001788,65137.09999999404,54091.943,54094.59999999404,54098.67,65141.66,8,400,,,
trial,html.Screen,4_2_0,2023-11-03T19:00:53.212Z,,0,1,,2636.439999994036,response,ISIC_0007678.JPG,4,ISIC_9631669.JPG,ISIC_9631669.JPG,false,0,keypress(Z),500,67778.20000001788,67778.09999999404,65134.712,65137.30000001192,65141.66,67783.337,8,400,3,,ISIC_0007678.JPG
break,html.Screen,4_2_1,2023-11-03T19:00:53.213Z,,0,,,NaN,,,,,,false,,,,67779,67778.90000000596,,67778.70000001788,,67783.337,8,400,,,
break_continue,html.Screen,4_2_2,2023-11-03T19:00:53.213Z,,0,,,NaN,,,,,,false,,,,67779.20000001788,67779.20000001788,,67779,,67783.337,8,400,,,
sequence,flow.Sequence,4_2,2023-11-03T19:00:53.213Z,,0,,,2637.540000017878,completion,,,,,false,,,,67779.20000001788,67779.20000001788,65134.712,65137.20000001788,65141.66,67783.337,8,400,,,
trial,html.Screen,4_3_0,2023-11-03T19:00:59.310Z,,0,1,,6092.363000017882,response,ISIC_4539674.JPG,4,ISIC_1930598.JPG,ISIC_1930598.JPG,false,0,keypress(Z),500,73875.80000001192,73875.70000001788,67776.15,67779.30000001192,67783.337,73880.885,8,400,4,,ISIC_4539674.JPG
break,html.Screen,4_3_1,2023-11-03T19:00:59.310Z,,0,,,NaN,,,,,,false,,,,73876.09999999404,73876,,73875.80000001192,,73880.885,8,400,,,
break_continue,html.Screen,4_3_2,2023-11-03T19:00:59.310Z,,0,,,NaN,,,,,,false,,,,73876.20000001788,73876.09999999404,,73876.09999999404,,73880.885,8,400,,,
sequence,flow.Sequence,4_3,2023-11-03T19:00:59.310Z,,0,,,6092.76299999404,completion,,,,,false,,,,73876.20000001788,73876.09999999404,67776.15,67779.20000001788,67783.337,73880.885,8,400,,,
trial,html.Screen,4_4_0,2023-11-03T19:01:04.096Z,,0,1,,4780.515000005966,response,ISIC_1603834.JPG,4,ISIC_0063425.JPG,ISIC_0063425.JPG,false,0,keypress(Z),500,78661.59999999404,78661.40000000596,73873.634,73876.30000001192,73880.885,78666.357,8,400,5,,ISIC_1603834.JPG
break,html.Screen,4_4_1,2023-11-03T19:01:04.096Z,,0,,,NaN,,,,,,false,,,,78662.09999999404,78662,,78661.70000001788,,78666.357,8,400,,,
break_continue,html.Screen,4_4_2,2023-11-03T19:01:04.096Z,,0,,,NaN,,,,,,false,,,,78662.30000001192,78662.20000001788,,78662.20000001788,,78666.357,8,400,,,
sequence,flow.Sequence,4_4,2023-11-03T19:01:04.097Z,,0,,,4781.315000017887,completion,,,,,false,,,,78662.40000000596,78662.20000001788,73873.634,73876.30000001192,73880.885,78666.357,8,400,,,
trial,html.Screen,4_5_0,2023-11-03T19:01:07.106Z,,0,1,,3004.9430000119173,response,ISIC_8647900.JPG,5,ISIC_1976571.JPG,ISIC_1976571.JPG,false,0,keypress(Z),500,81671.5,81671.30000001192,78659.63,78662.5,78666.357,81672.322,8,400,6,,ISIC_8647900.JPG
break,html.Screen,4_5_1,2023-11-03T19:01:07.106Z,,0,,,NaN,,,,,,false,,,,81671.90000000596,81671.80000001192,,81671.59999999404,,81672.322,8,400,,,
break_continue,html.Screen,4_5_2,2023-11-03T19:01:07.106Z,,0,,,NaN,,,,,,false,,,,81672,81671.90000000596,,81671.90000000596,,81672.322,8,400,,,
sequence,flow.Sequence,4_5,2023-11-03T19:01:07.106Z,,0,,,3005.543000005957,completion,,,,,false,,,,81672.09999999404,81671.90000000596,78659.63,78662.40000000596,78666.357,81672.322,8,400,,,
trial,html.Screen,4_6_0,2023-11-03T19:01:09.475Z,,0,1,,2368.7779999940394,response,ISIC_0063926.JPG,4,ISIC_0054206.JPG,ISIC_0054206.JPG,false,0,keypress(Z),500,84041.30000001192,84041.09999999404,81665.379,81672.09999999404,81672.322,84047.51,8,400,7,,ISIC_0063926.JPG
break,html.Screen,4_6_1,2023-11-03T19:01:09.476Z,,0,,,NaN,,,,,,false,,,,84041.80000001192,84041.59999999404,,84041.40000000596,,84047.51,8,400,,,
break_continue,html.Screen,4_6_2,2023-11-03T19:01:09.476Z,,0,,,NaN,,,,,,false,,,,84041.90000000596,84041.80000001192,,84041.80000001192,,84047.51,8,400,,,
sequence,flow.Sequence,4_6,2023-11-03T19:01:09.476Z,,0,,,2369.478000011921,completion,,,,,false,,,,84041.90000000596,84041.80000001192,81665.379,81672.09999999404,81672.322,84047.51,8,400,,,
trial,html.Screen,4_7_0,2023-11-03T19:01:13.141Z,,0,1,,3658.9900000000052,response,ISIC_4826037.JPG,5,ISIC_9402324.JPG,ISIC_9402324.JPG,false,0,keypress(Z),500,87706.70000001788,87706.5,84040.424,84042,84047.51,87707.399,8,400,8,,ISIC_4826037.JPG
break,html.Screen,4_7_1,2023-11-03T19:01:13.141Z,,0,,,NaN,,,,,,false,,,,87707.09999999404,87706.90000000596,,87706.70000001788,,87707.399,8,400,,,
break_continue,html.Screen,4_7_2,2023-11-03T19:01:13.141Z,,0,,,NaN,,,,,,false,,,,87707.20000001788,87707.09999999404,,87707.09999999404,,87707.399,8,400,,,
sequence,flow.Sequence,4_7,2023-11-03T19:01:13.141Z,,0,,,3659.589999994045,completion,,,,,false,,,,87707.20000001788,87707.09999999404,84040.424,84042,84047.51,87707.399,8,400,,,
trial,html.Screen,4_8_0,2023-11-03T19:01:15.559Z,,0,1,,2417.0010000059556,response,ISIC_5170766.JPG,4,ISIC_4018813.JPG,ISIC_4018813.JPG,false,0,keypress(Z),500,90124.59999999404,90124.40000000596,87700.455,87707.30000001192,87707.399,90125.08,8,400,9,,ISIC_5170766.JPG
break,html.Screen,4_8_1,2023-11-03T19:01:15.559Z,,0,,,NaN,,,,,,false,,,,90125,90124.90000000596,,90124.70000001788,,90125.08,8,400,,,
break_continue,html.Screen,4_8_2,2023-11-03T19:01:15.559Z,,0,,,NaN,,,,,,false,,,,90125.20000001788,90125.09999999404,,90125,,90125.08,8,400,,,
sequence,flow.Sequence,4_8,2023-11-03T19:01:15.559Z,,0,,,2417.7009999940346,completion,,,,,false,,,,90125.20000001788,90125.09999999404,87700.455,87707.30000001192,87707.399,90125.08,8,400,,,
trial,html.Screen,4_9_0,2023-11-03T19:01:17.977Z,,0,1,,2417.019999994038,response,ISIC_0009998.JPG,4,ISIC_4730433.JPG,ISIC_4730433.JPG,false,0,keypress(Z),500,92542.30000001192,92542.09999999404,90117.795,90125.20000001788,90125.08,92548.095,8,400,10,,ISIC_0009998.JPG
break,html.Screen,4_9_1,2023-11-03T19:01:17.977Z,,0,,,NaN,,,,,,false,,,,92542.70000001788,92542.59999999404,,92542.40000000596,,92548.095,8,400,,,
break_continue,html.Screen,4_9_2,2023-11-03T19:01:17.977Z,,0,,,NaN,,,,,,false,,,,92542.90000000596,92542.80000001192,,92542.70000001788,,92548.095,8,400,,,
sequence,flow.Sequence,4_9,2023-11-03T19:01:17.977Z,,0,,,2417.720000011919,completion,,,,,false,,,,92542.90000000596,92542.80000001192,90117.795,90125.20000001788,90125.08,92548.095,8,400,,,
trial,html.Screen,4_10_0,2023-11-03T19:01:20.410Z,,0,1,,2428.0049999940384,response,ISIC_4448959.JPG,5,ISIC_5762714.JPG,ISIC_5762714.JPG,false,0,keypress(Z),500,94976.20000001788,94976.09999999404,92540.694,92543,92548.095,94978.101,8,400,11,,ISIC_4448959.JPG
break,html.Screen,4_10_1,2023-11-03T19:01:20.411Z,,0,,,NaN,,,,,,false,,,,94976.59999999404,94976.5,,94976.30000001192,,94978.101,8,400,,,
break_continue,html.Screen,4_10_2,2023-11-03T19:01:20.411Z,,0,,,NaN,,,,,,false,,,,94976.80000001192,94976.70000001788,,94976.70000001788,,94978.101,8,400,,,
sequence,flow.Sequence,4_10,2023-11-03T19:01:20.411Z,,0,,,2428.6050000178802,completion,,,,,false,,,,94976.80000001192,94976.70000001788,92540.694,92543,92548.095,94978.101,8,400,,,
trial,html.Screen,4_11_0,2023-11-03T19:01:22.781Z,,0,1,,2368.199000011926,response,ISIC_0033501.JPG,4,ISIC_6023504.JPG,ISIC_6023504.JPG,false,0,keypress(Z),500,97346.40000000596,97346.30000001192,94971.159,94976.90000000596,94978.101,97353.431,8,400,12,,ISIC_0033501.JPG
break,html.Screen,4_11_1,2023-11-03T19:01:22.781Z,,0,,,NaN,,,,,,false,,,,97346.90000000596,97346.70000001788,,97346.59999999404,,97353.431,8,400,,,
break_continue,html.Screen,4_11_2,2023-11-03T19:01:22.781Z,,0,,,NaN,,,,,,false,,,,97347.09999999404,97347,,97346.90000000596,,97353.431,8,400,,,
sequence,flow.Sequence,4_11,2023-11-03T19:01:22.781Z,,0,,,2368.899000000005,completion,,,,,false,,,,97347.09999999404,97347,94971.159,94976.90000000596,94978.101,97353.431,8,400,,,
trial,html.Screen,4_12_0,2023-11-03T19:01:25.118Z,,0,1,,2330.1689999940427,response,ISIC_0061544.JPG,4,ISIC_0000294.JPG,ISIC_0000294.JPG,false,0,keypress(Z),500,99683.80000001192,99683.59999999404,97346.084,97347.09999999404,97353.431,99690.936,8,400,13,,ISIC_0061544.JPG
break,html.Screen,4_12_1,2023-11-03T19:01:25.118Z,,0,,,NaN,,,,,,false,,,,99684.20000001788,99684.09999999404,,99683.90000000596,,99690.936,8,400,,,
break_continue,html.Screen,4_12_2,2023-11-03T19:01:25.118Z,,0,,,NaN,,,,,,false,,,,99684.40000000596,99684.30000001192,,99684.30000001192,,99690.936,8,400,,,
sequence,flow.Sequence,4_12,2023-11-03T19:01:25.119Z,,0,,,2330.869000011924,completion,,,,,false,,,,99684.40000000596,99684.30000001192,97346.084,97347.09999999404,97353.431,99690.936,8,400,,,
trial,html.Screen,4_13_0,2023-11-03T19:01:27.535Z,,0,1,,2409.964000005959,response,ISIC_6020636.JPG,4,ISIC_7967397.JPG,ISIC_7967397.JPG,false,0,keypress(Z),500,102101.09999999404,102100.90000000596,99683.646,99684.40000000596,99690.936,102103.812,8,400,14,,ISIC_6020636.JPG
break,html.Screen,4_13_1,2023-11-03T19:01:27.536Z,,0,,,NaN,,,,,,false,,,,102101.40000000596,102101.40000000596,,102101.20000001788,,102103.812,8,400,,,
break_continue,html.Screen,4_13_2,2023-11-03T19:01:27.536Z,,0,,,NaN,,,,,,false,,,,102101.70000001788,102101.5,,102101.5,,102103.812,8,400,,,
sequence,flow.Sequence,4_13,2023-11-03T19:01:27.536Z,,0,,,2410.5639999999985,completion,,,,,false,,,,102101.70000001788,102101.5,99683.646,99684.40000000596,99690.936,102103.812,8,400,,,
trial,html.Screen,4_14_0,2023-11-03T19:01:30.016Z,,0,1,,2478.388000017876,response,ISIC_8502869.JPG,4,ISIC_0025458.JPG,ISIC_0025458.JPG,false,0,keypress(Z),500,104582.30000001192,104582.20000001788,102096.422,102101.70000001788,102103.812,104589.52,8,400,15,,ISIC_8502869.JPG
break,html.Screen,4_14_1,2023-11-03T19:01:30.017Z,,0,,,NaN,,,,,,false,,,,104582.70000001788,104582.59999999404,,104582.40000000596,,104589.52,8,400,,,
break_continue,html.Screen,4_14_2,2023-11-03T19:01:30.017Z,,0,,,NaN,,,,,,false,,,,104582.80000001192,104582.80000001192,,104582.80000001192,,104589.52,8,400,,,
sequence,flow.Sequence,4_14,2023-11-03T19:01:30.017Z,,0,,,2478.9880000119156,completion,,,,,false,,,,104582.90000000596,104582.80000001192,102096.422,102101.70000001788,102103.812,104589.52,8,400,,,
trial,html.Screen,4_15_0,2023-11-03T19:01:32.354Z,,0,1,,2330.280000011917,response,ISIC_2461360.JPG,5,ISIC_0025523.JPG,ISIC_0025523.JPG,false,0,keypress(Z),500,106919.90000000596,106919.80000001192,104582.427,104583,104589.52,106923.109,8,400,16,,ISIC_2461360.JPG
break,html.Screen,4_15_1,2023-11-03T19:01:32.354Z,,0,,,NaN,,,,,,false,,,,106920.30000001192,106920.20000001788,,106920,,106923.109,8,400,,,
break_continue,html.Screen,4_15_2,2023-11-03T19:01:32.355Z,,0,,,NaN,,,,,,false,,,,106920.40000000596,106920.40000000596,,106920.40000000596,,106923.109,8,400,,,
sequence,flow.Sequence,4_15,2023-11-03T19:01:32.355Z,,0,,,2330.8800000059564,completion,,,,,false,,,,106920.40000000596,106920.40000000596,104582.427,104582.90000000596,104589.52,106923.109,8,400,,,
trial,html.Screen,4_16_0,2023-11-03T19:01:43.172Z,,0,1,,10814.091000017885,response,ISIC_0033178.JPG,5,ISIC_0061224.JPG,ISIC_0061224.JPG,false,0,keypress(Z),500,117737.40000000596,117737.20000001788,106915.726,106920.5,106923.109,117748.937,8,400,17,,ISIC_0033178.JPG
break,html.Screen,4_16_1,2023-11-03T19:01:43.172Z,,0,,,NaN,,,,,,false,,,,117737.80000001192,117737.70000001788,,117737.5,,117748.937,8,400,,,
break_continue,html.Screen,4_16_2,2023-11-03T19:01:43.172Z,,0,,,NaN,,,,,,false,,,,117737.80000001192,117737.80000001192,,117737.80000001192,,117748.937,8,400,,,
sequence,flow.Sequence,4_16,2023-11-03T19:01:43.172Z,,0,,,10814.691000011924,completion,,,,,false,,,,117737.90000000596,117737.80000001192,106915.726,106920.5,106923.109,117748.937,8,400,,,
trial,html.Screen,4_17_0,2023-11-03T19:01:45.605Z,,0,1,,2421.763000017876,response,ISIC_0011869.JPG,4,ISIC_0032543.JPG,ISIC_0032543.JPG,false,0,keypress(Z),500,120170.70000001788,120170.70000001788,117742.21,117738,117748.937,120180.505,8,400,18,,ISIC_0011869.JPG
break,html.Screen,4_17_1,2023-11-03T19:01:45.605Z,,0,,,NaN,,,,,,false,,,,120171.09999999404,120171,,120170.90000000596,,120180.505,8,400,,,
break_continue,html.Screen,4_17_2,2023-11-03T19:01:45.605Z,,0,,,NaN,,,,,,false,,,,120171.20000001788,120171.09999999404,,120171.09999999404,,120180.505,8,400,,,
sequence,flow.Sequence,4_17,2023-11-03T19:01:45.605Z,,0,,,2422.162999994034,completion,,,,,false,,,,120171.20000001788,120171.09999999404,117742.21,117738,117748.937,120180.505,8,400,,,
trial,html.Screen,4_18_0,2023-11-03T19:01:48.086Z,,0,1,,2471.594999994035,response,ISIC_0058926.JPG,4,ISIC_0000043.JPG,ISIC_0000043.JPG,false,0,keypress(Z),500,122652.20000001788,122652.09999999404,120173.116,120171.30000001192,120180.505,122659.288,8,400,19,,ISIC_0058926.JPG
break,html.Screen,4_18_1,2023-11-03T19:01:48.087Z,,0,,,NaN,,,,,,false,,,,122652.59999999404,122652.59999999404,,122652.30000001192,,122659.288,8,400,,,
break_continue,html.Screen,4_18_2,2023-11-03T19:01:48.087Z,,0,,,NaN,,,,,,false,,,,122652.80000001192,122652.70000001788,,122652.70000001788,,122659.288,8,400,,,
sequence,flow.Sequence,4_18,2023-11-03T19:01:48.087Z,,0,,,2472.1950000178767,completion,,,,,false,,,,122652.80000001192,122652.70000001788,120173.116,120171.30000001192,120180.505,122659.288,8,400,,,
trial,html.Screen,4_19_0,2023-11-03T19:01:50.424Z,,0,1,,2330.7119999999995,response,ISIC_4034244.JPG,5,ISIC_0011956.JPG,ISIC_0011956.JPG,false,0,keypress(Z),500,124990.09999999404,124990,122652.266,122652.90000000596,122659.288,124992.42,8,400,20,,ISIC_4034244.JPG
break,html.Screen,4_19_1,2023-11-03T19:01:50.425Z,,0,,,NaN,,,,,,false,,,,124990.59999999404,124990.40000000596,,124990.20000001788,,124992.42,8,400,,,
break_continue,html.Screen,4_19_2,2023-11-03T19:01:50.425Z,,0,,,NaN,,,,,,false,,,,124990.70000001788,124990.70000001788,,124990.70000001788,,124992.42,8,400,,,
sequence,flow.Sequence,4_19,2023-11-03T19:01:50.425Z,,0,,,2331.412000017881,completion,,,,,false,,,,124990.80000001192,124990.70000001788,122652.266,122652.90000000596,122659.288,124992.42,8,400,,,
trial,html.Screen,4_20_0,2023-11-03T19:02:02.227Z,,0,1,,19077.170999999988,timeout,ISIC_1023339.JPG,302,ISIC_0011398.JPG,,false,,,500,136793.09999999404,136792.90000000596,124985.479,124990.90000000596,124992.42,144069.591,8,400,21,,
break,html.Screen,4_20_1,2023-11-03T19:02:02.228Z,,0,,,NaN,,,,,,false,,,,136793.30000001192,136793.30000001192,,136793.09999999404,,144069.591,8,400,,,
break_continue,html.Screen,4_20_2,2023-11-03T19:02:02.228Z,,0,,,NaN,,,,,,false,,,,136793.5,136793.40000000596,,136793.40000000596,,144069.591,8,400,,,
sequence,flow.Sequence,4_20,2023-11-03T19:02:02.228Z,,0,,,11800.980000005962,completion,,,,,false,,,,136793.59999999404,136793.40000000596,124985.479,124990.90000000596,124992.42,144069.591,8,400,,,
trial,html.Screen,4_21_0,2023-11-03T19:02:10.468Z,,0,1,,964.6090000178956,response,ISIC_0071809.JPG,499,ISIC_5518557.JPG,ISIC_5518557.JPG,false,0,keypress(Z),500,145034.30000001192,145034.20000001788,144062.648,136793.59999999404,144069.591,145041.968,8,400,22,,ISIC_0071809.JPG
break,html.Screen,4_21_1,2023-11-03T19:02:10.469Z,,0,,,NaN,,,,,,false,,,,145034.70000001788,145034.59999999404,,145034.40000000596,,145041.968,8,400,,,
break_continue,html.Screen,4_21_2,2023-11-03T19:02:10.469Z,,0,,,NaN,,,,,,false,,,,145035,145034.80000001192,,145034.70000001788,,145041.968,8,400,,,
sequence,flow.Sequence,4_21,2023-11-03T19:02:10.469Z,,0,,,965.2090000119351,completion,,,,,false,,,,145035.09999999404,145034.80000001192,144062.648,136793.59999999404,144069.591,145041.968,8,400,,,
trial,html.Screen,4_22_0,2023-11-03T19:02:12.807Z,,0,1,,2330.232000017888,response,ISIC_4533833.JPG,5,ISIC_0014684.JPG,ISIC_0014684.JPG,false,0,keypress(Z),500,147372.30000001192,147372.20000001788,145035.012,145035.20000001788,145041.968,147382.04,8,400,23,,ISIC_4533833.JPG
break,html.Screen,4_22_1,2023-11-03T19:02:12.807Z,,0,,,NaN,,,,,,false,,,,147372.59999999404,147372.59999999404,,147372.40000000596,,147382.04,8,400,,,
break_continue,html.Screen,4_22_2,2023-11-03T19:02:12.807Z,,0,,,NaN,,,,,,false,,,,147372.80000001192,147372.80000001192,,147372.80000001192,,147382.04,8,400,,,
sequence,flow.Sequence,4_22,2023-11-03T19:02:12.807Z,,0,,,2330.8320000119274,completion,,,,,false,,,,147372.90000000596,147372.80000001192,145035.012,145035.20000001788,145041.968,147382.04,8,400,,,
trial,html.Screen,4_23_0,2023-11-03T19:02:15.048Z,,0,1,,2232.0599999940314,response,ISIC_5179620.JPG,4,ISIC_0025186.JPG,ISIC_0025186.JPG,false,0,keypress(Z),500,149614.20000001788,149614.09999999404,147375.018,147372.90000000596,147382.04,149618.241,8,400,24,,ISIC_5179620.JPG
break,html.Screen,4_23_1,2023-11-03T19:02:15.049Z,,0,,,NaN,,,,,,false,,,,149614.70000001788,149614.59999999404,,149614.40000000596,,149618.241,8,400,,,
break_continue,html.Screen,4_23_2,2023-11-03T19:02:15.049Z,,0,,,NaN,,,,,,false,,,,149614.80000001192,149614.70000001788,,149614.70000001788,,149618.241,8,400,,,
sequence,flow.Sequence,4_23,2023-11-03T19:02:15.049Z,,0,,,2232.6600000178732,completion,,,,,false,,,,149614.90000000596,149614.70000001788,147375.018,147372.90000000596,147382.04,149618.241,8,400,,,
trial,html.Screen,4_24_0,2023-11-03T19:02:17.450Z,,0,1,,2397.059000011912,response,ISIC_9407667.JPG,5,ISIC_1332766.JPG,ISIC_1332766.JPG,false,0,keypress(Z),500,152015.40000000596,152015.30000001192,149611.178,149614.90000000596,149618.241,152021.03,8,400,25,,ISIC_9407667.JPG
break,html.Screen,4_24_1,2023-11-03T19:02:17.450Z,,0,,,NaN,,,,,,false,,,,152015.80000001192,152015.70000001788,,152015.59999999404,,152021.03,8,400,,,
break_continue,html.Screen,4_24_2,2023-11-03T19:02:17.450Z,,0,,,NaN,,,,,,false,,,,152015.90000000596,152015.90000000596,,152015.80000001192,,152021.03,8,400,,,
sequence,flow.Sequence,4_24,2023-11-03T19:02:17.450Z,,0,,,2397.6590000059514,completion,,,,,false,,,,152016,152015.90000000596,149611.178,149614.90000000596,149618.241,152021.03,8,400,,,
trial,html.Screen,4_25_0,2023-11-03T19:02:19.787Z,,0,1,,2331.8700000059616,response,ISIC_7666224.JPG,5,ISIC_0033876.JPG,ISIC_0033876.JPG,false,0,keypress(Z),500,154353.09999999404,154352.90000000596,152014.086,152016,152021.03,154361.353,8,400,26,,ISIC_7666224.JPG
break,html.Screen,4_25_1,2023-11-03T19:02:19.788Z,,0,,,NaN,,,,,,false,,,,154353.5,154353.40000000596,,154353.20000001788,,154361.353,8,400,,,
break_continue,html.Screen,4_25_2,2023-11-03T19:02:19.788Z,,0,,,NaN,,,,,,false,,,,154353.59999999404,154353.59999999404,,154353.59999999404,,154361.353,8,400,,,
sequence,flow.Sequence,4_25,2023-11-03T19:02:19.788Z,,0,,,2332.5699999940407,completion,,,,,false,,,,154353.70000001788,154353.59999999404,152014.086,152016,152021.03,154361.353,8,400,,,
trial,html.Screen,4_26_0,2023-11-03T19:02:22.013Z,,0,1,,2216.947000011918,response,ISIC_0054006.JPG,5,ISIC_0024951.JPG,ISIC_0024951.JPG,false,0,keypress(Z),500,156578.5,156578.30000001192,154354.409,154353.70000001788,154361.353,156583.567,8,400,27,,ISIC_0054006.JPG
break,html.Screen,4_26_1,2023-11-03T19:02:22.013Z,,0,,,NaN,,,,,,false,,,,156578.90000000596,156578.80000001192,,156578.59999999404,,156583.567,8,400,,,
break_continue,html.Screen,4_26_2,2023-11-03T19:02:22.013Z,,0,,,NaN,,,,,,false,,,,156579,156578.90000000596,,156578.90000000596,,156583.567,8,400,,,
sequence,flow.Sequence,4_26,2023-11-03T19:02:22.013Z,,0,,,2217.5470000059577,completion,,,,,false,,,,156579.09999999404,156578.90000000596,154354.409,154353.70000001788,154361.353,156583.567,8,400,,,
trial,html.Screen,4_27_0,2023-11-03T19:02:24.366Z,,0,1,,2348.0329999940295,response,ISIC_0001101.JPG,4,ISIC_0071133.JPG,ISIC_0071133.JPG,false,0,keypress(Z),500,158931.80000001192,158931.59999999404,156576.57,156579.09999999404,156583.567,158937.847,8,400,28,,ISIC_0001101.JPG
break,html.Screen,4_27_1,2023-11-03T19:02:24.366Z,,0,,,NaN,,,,,,false,,,,158932.30000001192,158932.20000001788,,158931.90000000596,,158937.847,8,400,,,
break_continue,html.Screen,4_27_2,2023-11-03T19:02:24.367Z,,0,,,NaN,,,,,,false,,,,158932.40000000596,158932.40000000596,,158932.40000000596,,158937.847,8,400,,,
sequence,flow.Sequence,4_27,2023-11-03T19:02:24.367Z,,0,,,2348.8330000059505,completion,,,,,false,,,,158932.5,158932.40000000596,156576.57,156579.09999999404,156583.567,158937.847,8,400,,,
trial,html.Screen,4_28_0,2023-11-03T19:02:26.848Z,,0,1,,2475.3530000178725,response,ISIC_0009488.JPG,5,ISIC_0060934.JPG,ISIC_0060934.JPG,false,0,keypress(Z),500,161413.40000000596,161413.20000001788,158930.775,158932.5,158937.847,161419.981,8,400,29,,ISIC_0009488.JPG
break,html.Screen,4_28_1,2023-11-03T19:02:26.848Z,,0,,,NaN,,,,,,false,,,,161413.80000001192,161413.70000001788,,161413.5,,161419.981,8,400,,,
break_continue,html.Screen,4_28_2,2023-11-03T19:02:26.848Z,,0,,,NaN,,,,,,false,,,,161414,161413.90000000596,,161413.90000000596,,161419.981,8,400,,,
sequence,flow.Sequence,4_28,2023-11-03T19:02:26.848Z,,0,,,2476.0530000059516,completion,,,,,false,,,,161414,161413.90000000596,158930.775,158932.5,158937.847,161419.981,8,400,,,
trial,html.Screen,4_29_0,2023-11-03T19:02:29.409Z,,0,1,,2554.5190000000002,response,ISIC_8234773.JPG,5,ISIC_3378691.JPG,ISIC_3378691.JPG,false,0,keypress(Z),500,163974.59999999404,163974.5,161412.916,161414.09999999404,161419.981,163986.619,8,400,30,,ISIC_8234773.JPG
break,html.Screen,4_29_1,2023-11-03T19:02:29.409Z,,0,,,NaN,,,,,,false,,,,163974.80000001192,163974.80000001192,,163974.59999999404,,163986.619,8,400,,,
break_continue,html.Screen,4_29_2,2023-11-03T19:02:29.409Z,,0,,,NaN,,,,,,false,,,,163975,163975,,163975,,163986.619,8,400,,,
sequence,flow.Sequence,4_29,2023-11-03T19:02:29.409Z,,0,,,2555.0190000000002,completion,,,,,false,,,,163975.09999999404,163975,161412.916,161414.09999999404,161419.981,163986.619,8,400,,,
trial,html.Screen,4_30_0,2023-11-03T19:02:32.386Z,,0,1,,2965.0810000178753,response,ISIC_5529924.JPG,5,ISIC_0026982.JPG,ISIC_0026982.JPG,false,0,keypress(Z),500,166952,166951.70000001788,163979.405,163975.20000001788,163986.619,166958.742,8,400,31,,ISIC_5529924.JPG
break,html.Screen,4_30_1,2023-11-03T19:02:32.387Z,,0,,,NaN,,,,,,false,,,,166953,166952.80000001192,,166952.5,,166958.742,8,400,,,
break_continue,html.Screen,4_30_2,2023-11-03T19:02:32.387Z,,0,,,NaN,,,,,,false,,,,166953.09999999404,166953,,166953,,166958.742,8,400,,,
sequence,flow.Sequence,4_30,2023-11-03T19:02:32.387Z,,0,,,2966.380999999994,completion,,,,,false,,,,166953.09999999404,166953,163979.405,163975.09999999404,163986.619,166958.742,8,400,,,
trial,html.Screen,4_31_0,2023-11-03T19:02:36.373Z,,0,1,,3979.7580000000016,response,ISIC_0057028.JPG,5,ISIC_8188797.JPG,ISIC_8188797.JPG,false,0,keypress(Z),500,170938.70000001788,170938.5,166951.604,166953.20000001788,166958.742,170944.994,8,400,32,,ISIC_0057028.JPG
break,html.Screen,4_31_1,2023-11-03T19:02:36.373Z,,0,,,NaN,,,,,,false,,,,170939.09999999404,170939.09999999404,,170938.80000001192,,170944.994,8,400,,,
break_continue,html.Screen,4_31_2,2023-11-03T19:02:36.373Z,,0,,,NaN,,,,,,false,,,,170939.30000001192,170939.20000001788,,170939.20000001788,,170944.994,8,400,,,
sequence,flow.Sequence,4_31,2023-11-03T19:02:36.373Z,,0,,,3980.458000017883,completion,,,,,false,,,,170939.40000000596,170939.20000001788,166951.604,166953.09999999404,166958.742,170944.994,8,400,,,
trial,html.Screen,4_32_0,2023-11-03T19:02:38.999Z,,0,1,,2619.306000011915,response,ISIC_0011329.JPG,5,ISIC_8104064.JPG,ISIC_8104064.JPG,false,0,keypress(Z),500,173564.40000000596,173564.30000001192,170938.013,170939.40000000596,170944.994,173568.286,8,400,33,,ISIC_0011329.JPG
break,html.Screen,4_32_1,2023-11-03T19:02:38.999Z,,0,,,NaN,,,,,,false,,,,173564.90000000596,173564.80000001192,,173564.59999999404,,173568.286,8,400,,,
break_continue,html.Screen,4_32_2,2023-11-03T19:02:38.999Z,,0,,,NaN,,,,,,false,,,,173565.09999999404,173565.09999999404,,173565,,173568.286,8,400,,,
sequence,flow.Sequence,4_32,2023-11-03T19:02:38.999Z,,0,,,2620.1059999940335,completion,,,,,false,,,,173565.20000001788,173565.09999999404,170938.013,170939.40000000596,170944.994,173568.286,8,400,,,
trial,html.Screen,4_33_0,2023-11-03T19:02:41.289Z,,0,1,,2286.4140000178886,response,ISIC_0028573.JPG,4,ISIC_9644813.JPG,ISIC_9644813.JPG,false,0,keypress(Z),500,175854.90000000596,175854.70000001788,173561.221,173565.20000001788,173568.286,175861.819,8,400,34,,ISIC_0028573.JPG
break,html.Screen,4_33_1,2023-11-03T19:02:41.290Z,,0,,,NaN,,,,,,false,,,,175855.40000000596,175855.20000001788,,175854.90000000596,,175861.819,8,400,,,
break_continue,html.Screen,4_33_2,2023-11-03T19:02:41.290Z,,0,,,NaN,,,,,,false,,,,175855.5,175855.40000000596,,175855.40000000596,,175861.819,8,400,,,
sequence,flow.Sequence,4_33,2023-11-03T19:02:41.290Z,,0,,,2287.1140000059677,completion,,,,,false,,,,175855.5,175855.40000000596,173561.221,173565.20000001788,173568.286,175861.819,8,400,,,
trial,html.Screen,4_34_0,2023-11-03T19:02:43.643Z,,0,1,,2346.4810000119323,response,ISIC_2173158.JPG,5,ISIC_2916754.JPG,ISIC_2916754.JPG,false,0,keypress(Z),500,178208.5,178208.30000001192,175854.683,175855.59999999404,175861.819,178215.886,8,400,35,,ISIC_2173158.JPG
break,html.Screen,4_34_1,2023-11-03T19:02:43.643Z,,0,,,NaN,,,,,,false,,,,178208.70000001788,178208.70000001788,,178208.5,,178215.886,8,400,,,
break_continue,html.Screen,4_34_2,2023-11-03T19:02:43.643Z,,0,,,NaN,,,,,,false,,,,178208.90000000596,178208.90000000596,,178208.90000000596,,178215.886,8,400,,,
sequence,flow.Sequence,4_34,2023-11-03T19:02:43.643Z,,0,,,2347.081000005972,completion,,,,,false,,,,178209,178208.90000000596,175854.683,175855.59999999404,175861.819,178215.886,8,400,,,
trial,html.Screen,4_35_0,2023-11-03T19:02:48.364Z,,0,1,,4713.614000000001,response,ISIC_9694020.JPG,5,ISIC_0010304.JPG,ISIC_0010304.JPG,false,0,keypress(Z),500,182929.70000001788,182929.5,178208.863,178209,178215.886,182931.349,8,400,36,,ISIC_9694020.JPG
break,html.Screen,4_35_1,2023-11-03T19:02:48.364Z,,0,,,NaN,,,,,,false,,,,182930.20000001788,182930.09999999404,,182929.80000001192,,182931.349,8,400,,,
break_continue,html.Screen,4_35_2,2023-11-03T19:02:48.365Z,,0,,,NaN,,,,,,false,,,,182930.40000000596,182930.40000000596,,182930.20000001788,,182931.349,8,400,,,
sequence,flow.Sequence,4_35,2023-11-03T19:02:48.365Z,,0,,,4714.514000005962,completion,,,,,false,,,,182930.5,182930.40000000596,178208.863,178209,178215.886,182931.349,8,400,,,
trial,html.Screen,4_36_0,2023-11-03T19:02:51.230Z,,0,1,,2864.351000017894,response,ISIC_0014059.JPG,4,ISIC_0361149.JPG,ISIC_0361149.JPG,false,0,keypress(Z),500,185795.90000000596,185795.70000001788,182924.405,182930.59999999404,182931.349,185801.709,8,400,37,,ISIC_0014059.JPG
break,html.Screen,4_36_1,2023-11-03T19:02:51.230Z,,0,,,NaN,,,,,,false,,,,185796.20000001788,185796.09999999404,,185795.90000000596,,185801.709,8,400,,,
break_continue,html.Screen,4_36_2,2023-11-03T19:02:51.230Z,,0,,,NaN,,,,,,false,,,,185796.30000001192,185796.20000001788,,185796.20000001788,,185801.709,8,400,,,
sequence,flow.Sequence,4_36,2023-11-03T19:02:51.231Z,,0,,,2864.851000017894,completion,,,,,false,,,,185796.30000001192,185796.20000001788,182924.405,182930.59999999404,182931.349,185801.709,8,400,,,
trial,html.Screen,4_37_0,2023-11-03T19:02:53.791Z,,0,1,,2555.191000005958,response,ISIC_0064997.JPG,4,ISIC_0013874.JPG,ISIC_0013874.JPG,false,0,keypress(Z),500,188357.09999999404,188356.90000000596,185794.753,185796.40000000596,185801.709,188361.785,8,400,38,,ISIC_0064997.JPG
break,html.Screen,4_37_1,2023-11-03T19:02:53.792Z,,0,,,NaN,,,,,,false,,,,188357.40000000596,188357.30000001192,,188357.20000001788,,188361.785,8,400,,,
break_continue,html.Screen,4_37_2,2023-11-03T19:02:53.792Z,,0,,,NaN,,,,,,false,,,,188357.59999999404,188357.5,,188357.40000000596,,188361.785,8,400,,,
sequence,flow.Sequence,4_37,2023-11-03T19:02:53.792Z,,0,,,2555.7909999999974,completion,,,,,false,,,,188357.59999999404,188357.5,185794.753,185796.40000000596,185801.709,188361.785,8,400,,,
trial,html.Screen,4_38_0,2023-11-03T19:02:56.096Z,,0,1,,2300.415000017878,response,ISIC_0347984.JPG,4,ISIC_0012756.JPG,ISIC_0012756.JPG,false,0,keypress(Z),500,190662.30000001192,190662.20000001788,188354.842,188357.70000001788,188361.785,190667.573,8,400,39,,ISIC_0347984.JPG
break,html.Screen,4_38_1,2023-11-03T19:02:56.097Z,,0,,,NaN,,,,,,false,,,,190662.59999999404,190662.59999999404,,190662.40000000596,,190667.573,8,400,,,
break_continue,html.Screen,4_38_2,2023-11-03T19:02:56.097Z,,0,,,NaN,,,,,,false,,,,190662.90000000596,190662.80000001192,,190662.80000001192,,190667.573,8,400,,,
sequence,flow.Sequence,4_38,2023-11-03T19:02:56.097Z,,0,,,2301.0150000119174,completion,,,,,false,,,,190662.90000000596,190662.80000001192,188354.842,188357.70000001788,188361.785,190667.573,8,400,,,
trial,html.Screen,4_39_0,2023-11-03T19:02:58.578Z,,0,1,,2476.3270000059565,response,ISIC_0031494.JPG,5,ISIC_1471329.JPG,ISIC_1471329.JPG,false,0,keypress(Z),500,193143.90000000596,193143.90000000596,190660.506,190663,190667.573,193148.423,8,400,40,,ISIC_0031494.JPG
break,html.Screen,4_39_1,2023-11-03T19:02:58.579Z,,0,,,NaN,,,,,,false,,,,193144.40000000596,193144.30000001192,,193144.09999999404,,193148.423,8,400,,,
break_continue,html.Screen,4_39_2,2023-11-03T19:02:58.579Z,,0,,,NaN,,,,,,false,,,,193144.5,193144.40000000596,,193144.40000000596,,193148.423,8,400,,,
sequence,flow.Sequence,4_39,2023-11-03T19:02:58.579Z,,0,,,2476.8270000059565,completion,,,,,false,,,,193144.59999999404,193144.40000000596,190660.506,190662.90000000596,190667.573,193148.423,8,400,,,
trial,html.Screen,4_40_0,2023-11-03T19:03:01.235Z,,0,1,,2652.4770000059507,response,ISIC_0872145.JPG,5,ISIC_1004416.JPG,ISIC_1004416.JPG,false,0,keypress(Z),500,195801.09999999404,195800.90000000596,193139.802,193144.59999999404,193148.423,195806.621,8,400,41,,ISIC_0872145.JPG
break,html.Screen,4_40_1,2023-11-03T19:03:01.236Z,,0,,,NaN,,,,,,false,,,,195801.40000000596,195801.30000001192,,195801.09999999404,,195806.621,8,400,,,
break_continue,html.Screen,4_40_2,2023-11-03T19:03:01.236Z,,0,,,NaN,,,,,,false,,,,195801.5,195801.5,,195801.40000000596,,195806.621,8,400,,,
sequence,flow.Sequence,4_40,2023-11-03T19:03:01.236Z,,0,,,2653.07699999999,completion,,,,,false,,,,195801.5,195801.5,193139.802,193144.59999999404,193148.423,195806.621,8,400,,,
trial,html.Screen,4_41_0,2023-11-03T19:03:03.957Z,,0,1,,2716.0790000178677,response,ISIC_2039579.JPG,4,ISIC_8173531.JPG,ISIC_8173531.JPG,false,0,keypress(Z),500,198522.80000001192,198522.70000001788,195799.546,195801.59999999404,195806.621,198528.745,8,400,42,,ISIC_2039579.JPG
break,html.Screen,4_41_1,2023-11-03T19:03:03.957Z,,0,,,NaN,,,,,,false,,,,198523.20000001788,198523.20000001788,,198522.90000000596,,198528.745,8,400,,,
break_continue,html.Screen,4_41_2,2023-11-03T19:03:03.958Z,,0,,,NaN,,,,,,false,,,,198523.40000000596,198523.30000001192,,198523.30000001192,,198528.745,8,400,,,
sequence,flow.Sequence,4_41,2023-11-03T19:03:03.958Z,,0,,,2716.679000011907,completion,,,,,false,,,,198523.40000000596,198523.30000001192,195799.546,195801.5,195806.621,198528.745,8,400,,,
trial,html.Screen,4_42_0,2023-11-03T19:03:06.311Z,,0,1,,2348.0550000119256,response,ISIC_6072777.JPG,4,ISIC_0027867.JPG,ISIC_0027867.JPG,false,0,keypress(Z),500,200876.90000000596,200876.80000001192,198521.663,198523.5,198528.745,200883.02,8,400,43,,ISIC_6072777.JPG
break,html.Screen,4_42_1,2023-11-03T19:03:06.311Z,,0,,,NaN,,,,,,false,,,,200877.30000001192,200877.30000001192,,200877,,200883.02,8,400,,,
break_continue,html.Screen,4_42_2,2023-11-03T19:03:06.312Z,,0,,,NaN,,,,,,false,,,,200877.40000000596,200877.40000000596,,200877.40000000596,,200883.02,8,400,,,
sequence,flow.Sequence,4_42,2023-11-03T19:03:06.312Z,,0,,,2348.655000005965,completion,,,,,false,,,,200877.59999999404,200877.40000000596,198521.663,198523.40000000596,198528.745,200883.02,8,400,,,
trial,html.Screen,4_43_0,2023-11-03T19:03:08.841Z,,0,1,,2523.57999999405,response,ISIC_0058501.JPG,5,ISIC_0000475.JPG,ISIC_0000475.JPG,false,0,keypress(Z),500,203406.70000001788,203406.59999999404,200876.076,200877.59999999404,200883.02,203410.803,8,400,44,,ISIC_0058501.JPG
break,html.Screen,4_43_1,2023-11-03T19:03:08.841Z,,0,,,NaN,,,,,,false,,,,203407.20000001788,203407.09999999404,,203406.80000001192,,203410.803,8,400,,,
break_continue,html.Screen,4_43_2,2023-11-03T19:03:08.841Z,,0,,,NaN,,,,,,false,,,,203407.40000000596,203407.30000001192,,203407.30000001192,,203410.803,8,400,,,
sequence,flow.Sequence,4_43,2023-11-03T19:03:08.842Z,,0,,,2524.2800000119314,completion,,,,,false,,,,203407.40000000596,203407.30000001192,200876.076,200877.59999999404,200883.02,203410.803,8,400,,,
trial,html.Screen,4_44_0,2023-11-03T19:03:11.290Z,,0,1,,2445.097000005946,response,ISIC_6710082.JPG,4,ISIC_0024805.JPG,ISIC_0024805.JPG,false,0,keypress(Z),500,205856,205855.90000000596,203403.859,203407.5,203410.803,205862.248,8,400,45,,ISIC_6710082.JPG
break,html.Screen,4_44_1,2023-11-03T19:03:11.291Z,,0,,,NaN,,,,,,false,,,,205856.40000000596,205856.30000001192,,205856.09999999404,,205862.248,8,400,,,
break_continue,html.Screen,4_44_2,2023-11-03T19:03:11.291Z,,0,,,NaN,,,,,,false,,,,205856.5,205856.40000000596,,205856.40000000596,,205862.248,8,400,,,
sequence,flow.Sequence,4_44,2023-11-03T19:03:11.291Z,,0,,,2445.597000005946,completion,,,,,false,,,,205856.59999999404,205856.40000000596,203403.859,203407.5,203410.803,205862.248,8,400,,,
trial,html.Screen,4_45_0,2023-11-03T19:03:13.611Z,,0,1,,2314.952000017889,response,ISIC_0010049.JPG,4,ISIC_0064080.JPG,ISIC_0064080.JPG,false,0,keypress(Z),500,208177.30000001192,208177.20000001788,205855.304,205856.59999999404,205862.248,208188.633,8,400,46,,ISIC_0010049.JPG
break,html.Screen,4_45_1,2023-11-03T19:03:13.612Z,,0,,,NaN,,,,,,false,,,,208177.59999999404,208177.59999999404,,208177.40000000596,,208188.633,8,400,,,
break_continue,html.Screen,4_45_2,2023-11-03T19:03:13.612Z,,0,,,NaN,,,,,,false,,,,208177.80000001192,208177.70000001788,,208177.70000001788,,208188.633,8,400,,,
sequence,flow.Sequence,4_45,2023-11-03T19:03:13.612Z,,0,,,2315.452000017889,completion,,,,,false,,,,208177.80000001192,208177.70000001788,205855.304,205856.59999999404,205862.248,208188.633,8,400,,,
trial,html.Screen,4_46_0,2023-11-03T19:03:15.949Z,,0,1,,2326.466999994038,response,ISIC_5358548.JPG,5,ISIC_0033171.JPG,ISIC_0033171.JPG,false,0,keypress(Z),500,210515.20000001788,210515.09999999404,208181.63,208177.90000000596,208188.633,210522.071,8,400,47,,ISIC_5358548.JPG
break,html.Screen,4_46_1,2023-11-03T19:03:15.950Z,,0,,,NaN,,,,,,false,,,,210515.59999999404,210515.59999999404,,210515.30000001192,,210522.071,8,400,,,
break_continue,html.Screen,4_46_2,2023-11-03T19:03:15.950Z,,0,,,NaN,,,,,,false,,,,210515.80000001192,210515.70000001788,,210515.70000001788,,210522.071,8,400,,,
sequence,flow.Sequence,4_46,2023-11-03T19:03:15.950Z,,0,,,2327.0670000178798,completion,,,,,false,,,,210515.90000000596,210515.70000001788,208181.63,208177.90000000596,208188.633,210522.071,8,400,,,
trial,html.Screen,4_47_0,2023-11-03T19:03:18.239Z,,0,1,,2282.4290000000037,response,ISIC_2307760.JPG,5,ISIC_0046615.JPG,ISIC_0046615.JPG,false,0,keypress(Z),500,212804.59999999404,212804.5,210515.127,210515.90000000596,210522.071,212813.768,8,400,48,,ISIC_2307760.JPG
break,html.Screen,4_47_1,2023-11-03T19:03:18.239Z,,0,,,NaN,,,,,,false,,,,212805,212804.90000000596,,212804.70000001788,,212813.768,8,400,,,
break_continue,html.Screen,4_47_2,2023-11-03T19:03:18.239Z,,0,,,NaN,,,,,,false,,,,212805.20000001788,212805.09999999404,,212805.09999999404,,212813.768,8,400,,,
sequence,flow.Sequence,4_47,2023-11-03T19:03:18.239Z,,0,,,2283.0289999940433,completion,,,,,false,,,,212805.20000001788,212805.09999999404,210515.127,210515.90000000596,210522.071,212813.768,8,400,,,
trial,html.Screen,4_48_0,2023-11-03T19:03:20.640Z,,0,1,,2392.03200001191,response,ISIC_0032954.JPG,4,ISIC_0010267.JPG,ISIC_0010267.JPG,false,0,keypress(Z),500,215206,215205.80000001192,212806.824,212805.20000001788,212813.768,215209.735,8,400,49,,ISIC_0032954.JPG
break,html.Screen,4_48_1,2023-11-03T19:03:20.640Z,,0,,,NaN,,,,,,false,,,,215206.30000001192,215206.20000001788,,215206.09999999404,,215209.735,8,400,,,
break_continue,html.Screen,4_48_2,2023-11-03T19:03:20.641Z,,0,,,NaN,,,,,,false,,,,215206.40000000596,215206.40000000596,,215206.30000001192,,215209.735,8,400,,,
sequence,flow.Sequence,4_48,2023-11-03T19:03:20.641Z,,0,,,2392.6320000059495,completion,,,,,false,,,,215206.5,215206.40000000596,212806.824,212805.20000001788,212813.768,215209.735,8,400,,,
trial,html.Screen,4_49_0,2023-11-03T19:03:23.265Z,,0,1,,2621.265000000014,response,ISIC_0009880.JPG,4,ISIC_0028181.JPG,ISIC_0028181.JPG,false,0,keypress(Z),500,217831.09999999404,217831,215202.581,215206.59999999404,215209.735,217841.588,8,400,50,,ISIC_0009880.JPG
break,html.Screen,4_49_1,2023-11-03T19:03:33.270Z,,0,,,10000.29800000001,timeout,,,,,false,,,,227835.90000000596,227834.941,217834.51,217831.20000001788,217841.588,227841.886,8,400,,,