sender,sender_type,sender_id,timestamp,meta,,blockNo,condition,duration,ended_on,img_left,img_reveal,img_right,loser,practice,response,response_action,selection_duration,time_commit,time_end,time_render,time_run,time_show,time_switch,total_blocks,total_trials,trialNo,url,winner
informed_consent,html.Screen,0,2023-09-12T22:09:10.178Z,"{""labjs_version"":""20.2.4"",""labjs_build"":{""flavor"":""production"",""commit"":""f5b4a49f956347addd546a832a3327688c2c0fef""},""location"":""https://run.pavlovia.org/MurrayBennett/melanoma-2afc/?participant=66764&platform=sona"",""userAgent"":""Mozilla/5.0 (Windows NT 10.0; Win64; x64) AppleWebKit/537.36 (KHTML, like Gecko) Chrome/116.0.0.0 Safari/537.36"",""platform"":""Win32"",""language"":""en-US"",""locale"":""en-US"",""timeZone"":""America/Chicago"",""timezoneOffset"":300,""screen_width"":1920,""screen_height"":1080,""scroll_width"":1858,""scroll_height"":923,""window_innerWidth"":1858,""window_innerHeight"":971,""devicePixelRatio"":1}",,,,36528.14,response,,,,,,consent,click button,,38240.699999809265,38240,1705.791,1705.1999998092651,1711.86,38243.704,,,,"{""participant"":""66764"",""platform"":""sona""}",
Welcome,html.Screen,1,2023-09-12T22:09:53.407Z,,,,colourful,43225.19599985695,response,,,,,,continue,click button,,81469.19999980927,81468.89999985695,38237.633,38240.89999985695,38243.704,81472.276,,,,,
trial,html.Screen,2_0_0,2023-09-12T22:10:01.383Z,,0,0,,7973.323999904635,response,ISIC_0063388.JPG,,ISIC_0025593.JPG,ISIC_0063388.JPG,true,1,keypress(m),500,89445.79999995232,89445.59999990463,81466.207,81469.39999985695,81472.276,89447.712,1,6,1,,ISIC_0025593.JPG
sequence,flow.Sequence,2_0,2023-09-12T22:10:01.383Z,,0,,,7973.323999904635,completion,,,,,true,,,,89446,89445.59999990463,81466.207,81469.39999985695,81472.276,89447.712,1,6,,,
trial,html.Screen,2_1_0,2023-09-12T22:10:12.882Z,,0,0,,11508.634000000005,timeout,ISIC_1309015.JPG,,ISIC_0028178.JPG,,true,,,500,100944.5,100944.29999995232,89441.634,89446.09999990463,89447.712,100956.346,1,6,2,,
sequence,flow.Sequence,2_1,2023-09-12T22:10:12.882Z,,0,,,11496.587999952317,completion,,,,,true,,,,100944.59999990463,100944.29999995232,89441.634,89446,89447.712,100956.346,1,6,,,
trial,html.Screen,2_2_0,2023-09-12T22:10:17.812Z,,0,0,,4917.85399980926,response,ISIC_3314853.JPG,,ISIC_0031128.JPG,ISIC_3314853.JPG,true,1,keypress(m),500,105874.29999995232,105874.19999980927,100950.269,100944.59999990463,100956.346,105877.363,1,6,3,,ISIC_0031128.JPG
sequence,flow.Sequence,2_2,2023-09-12T22:10:17.812Z,,0,,,4917.85399980926,completion,,,,,true,,,,105874.5,105874.19999980927,100950.269,100944.59999990463,100956.346,105877.363,1,6,,,
trial,html.Screen,2_3_0,2023-09-12T22:10:21.093Z,,0,0,,3278.5369998569513,response,ISIC_0031612.JPG,,ISIC_8980141.JPG,ISIC_8980141.JPG,true,0,keypress(z),500,109156,109155.89999985695,105871.275,105874.5,105877.363,109162.068,1,6,4,,ISIC_0031612.JPG
sequence,flow.Sequence,2_3,2023-09-12T22:10:21.094Z,,0,,,3278.5369998569513,completion,,,,,true,,,,109156.19999980927,109155.89999985695,105871.275,105874.5,105877.363,109162.068,1,6,,,
trial,html.Screen,2_4_0,2023-09-12T22:10:25.679Z,,0,0,,4579.031999904633,response,ISIC_1197737.JPG,,ISIC_9721604.JPG,ISIC_9721604.JPG,true,0,keypress(z),500,113741.19999980927,113741.09999990463,109155.983,109156.29999995232,109162.068,113743.707,1,6,5,,ISIC_1197737.JPG
sequence,flow.Sequence,2_4,2023-09-12T22:10:25.679Z,,0,,,4579.031999904633,completion,,,,,true,,,,113741.39999985695,113741.09999990463,109155.983,109156.19999980927,109162.068,113743.707,1,6,,,
trial,html.Screen,2_5_0,2023-09-12T22:10:30.528Z,,0,0,,4847.092999952321,response,ISIC_0010681.JPG,,ISIC_0025346.JPG,ISIC_0010681.JPG,true,1,keypress(m),500,118590.89999985695,118590.79999995232,113737.624,113741.39999985695,113743.707,118599.786,1,6,6,,ISIC_0025346.JPG
sequence,flow.Sequence,2_5,2023-09-12T22:10:30.528Z,,0,,,4847.092999952321,completion,,,,,true,,,,118591,118590.79999995232,113737.624,113741.39999985695,113743.707,118599.786,1,6,,,
loop,flow.Loop,2,2023-09-12T22:10:30.528Z,,,,,37118.52399995232,completion,,,,,true,,,,118591.09999990463,118590.79999995232,81466.207,81469.39999985695,81472.276,118599.786,1,6,,,
exp_instructions,html.Screen,3,2023-09-12T22:10:45.857Z,,,,,15319.81399990464,response,,,,,,continue,keypress(Space),,133919.79999995232,133919.59999990463,118585.906,118591.09999990463,118599.786,133924.701,,,,,
trial,html.Screen,4_0_0,2023-09-12T22:10:51.604Z,,0,1,,5741.198999856948,response,ISIC_7145788.JPG,5,ISIC_0000161.JPG,ISIC_7145788.JPG,false,1,keypress(m),500,139666.09999990463,139665.89999985695,133917.736,133919.89999985695,133924.701,139669.924,8,400,1,,ISIC_0000161.JPG
break,html.Screen,4_0_1,2023-09-12T22:10:51.604Z,,0,,,NaN,,,,,,false,,,,139666.5,139666.39999985695,,139666.09999990463,,139669.924,8,400,,,
break_continue,html.Screen,4_0_2,2023-09-12T22:10:51.605Z,,0,,,NaN,,,,,,false,,,,139666.69999980927,139666.69999980927,,139666.59999990463,,139669.924,8,400,,,
sequence,flow.Sequence,4_0,2023-09-12T22:10:51.605Z,,0,,,5741.998999809264,completion,,,,,false,,,,139666.79999995232,139666.69999980927,133917.736,133919.89999985695,133924.701,139669.924,8,400,,,
trial,html.Screen,4_1_0,2023-09-12T22:10:55.670Z,,0,1,,4061.875999952317,response,ISIC_0066262.JPG,5,ISIC_7124160.JPG,ISIC_7124160.JPG,false,0,keypress(z),500,143732,143731.79999995232,139663.854,139666.79999995232,139669.924,143736.426,8,400,2,,ISIC_0066262.JPG
break,html.Screen,4_1_1,2023-09-12T22:10:55.670Z,,0,,,NaN,,,,,,false,,,,143732.39999985695,143732.29999995232,,143732,,143736.426,8,400,,,
break_continue,html.Screen,4_1_2,2023-09-12T22:10:55.671Z,,0,,,NaN,,,,,,false,,,,143732.5,143732.5,,143732.39999985695,,143736.426,8,400,,,
sequence,flow.Sequence,4_1,2023-09-12T22:10:55.671Z,,0,,,4062.576000000001,completion,,,,,false,,,,143732.59999990463,143732.5,139663.854,139666.79999995232,139669.924,143736.426,8,400,,,
trial,html.Screen,4_2_0,2023-09-12T22:10:59.423Z,,0,1,,3748.7739998092584,response,ISIC_0010916.JPG,5,ISIC_0031960.JPG,ISIC_0031960.JPG,false,0,keypress(z),500,147485.29999995232,147485.19999980927,143730.354,143732.59999990463,143736.426,147487.796,8,400,3,,ISIC_0010916.JPG
break,html.Screen,4_2_1,2023-09-12T22:10:59.424Z,,0,,,NaN,,,,,,false,,,,147485.59999990463,147485.59999990463,,147485.29999995232,,147487.796,8,400,,,
break_continue,html.Screen,4_2_2,2023-09-12T22:10:59.424Z,,0,,,NaN,,,,,,false,,,,147485.79999995232,147485.69999980927,,147485.59999990463,,147487.796,8,400,,,
sequence,flow.Sequence,4_2,2023-09-12T22:10:59.424Z,,0,,,3749.2739998092584,completion,,,,,false,,,,147485.79999995232,147485.69999980927,143730.354,143732.59999990463,143736.426,147487.796,8,400,,,
trial,html.Screen,4_3_0,2023-09-12T22:11:03.733Z,,0,1,,4307.3039999046305,response,ISIC_2843983.JPG,5,ISIC_6704623.JPG,ISIC_6704623.JPG,false,0,keypress(z),500,151795.09999990463,151795.09999990463,147481.721,147485.79999995232,147487.796,151796.722,8,400,4,,ISIC_2843983.JPG
break,html.Screen,4_3_1,2023-09-12T22:11:03.733Z,,0,,,NaN,,,,,,false,,,,151795.59999990463,151795.5,,151795.19999980927,,151796.722,8,400,,,
break_continue,html.Screen,4_3_2,2023-09-12T22:11:03.734Z,,0,,,NaN,,,,,,false,,,,151795.69999980927,151795.69999980927,,151795.59999990463,,151796.722,8,400,,,
sequence,flow.Sequence,4_3,2023-09-12T22:11:03.734Z,,0,,,4307.903999809263,completion,,,,,false,,,,151795.69999980927,151795.69999980927,147481.721,147485.79999995232,147487.796,151796.722,8,400,,,
trial,html.Screen,4_4_0,2023-09-12T22:11:08.971Z,,0,1,,5235.977999809256,response,ISIC_0027072.JPG,5,ISIC_0029397.JPG,ISIC_0029397.JPG,false,0,keypress(z),500,157032.79999995232,157032.69999980927,151790.633,151795.79999995232,151796.722,157038.929,8,400,5,,ISIC_0027072.JPG
break,html.Screen,4_4_1,2023-09-12T22:11:08.971Z,,0,,,NaN,,,,,,false,,,,157033.19999980927,157033.09999990463,,157032.89999985695,,157038.929,8,400,,,
break_continue,html.Screen,4_4_2,2023-09-12T22:11:08.971Z,,0,,,NaN,,,,,,false,,,,157033.39999985695,157033.29999995232,,157033.29999995232,,157038.929,8,400,,,
sequence,flow.Sequence,4_4,2023-09-12T22:11:08.971Z,,0,,,5236.577999952307,completion,,,,,false,,,,157033.5,157033.29999995232,151790.633,151795.79999995232,151796.722,157038.929,8,400,,,
trial,html.Screen,4_5_0,2023-09-12T22:11:15.649Z,,0,1,,6672.170999904629,response,ISIC_5044438.JPG,5,ISIC_5330187.JPG,ISIC_5044438.JPG,false,1,keypress(m),500,163711.19999980927,163711.09999990463,157032.853,157033.5,157038.929,163717.444,8,400,6,,ISIC_5330187.JPG
break,html.Screen,4_5_1,2023-09-12T22:11:15.649Z,,0,,,NaN,,,,,,false,,,,163711.5,163711.5,,163711.29999995232,,163717.444,8,400,,,
break_continue,html.Screen,4_5_2,2023-09-12T22:11:15.650Z,,0,,,NaN,,,,,,false,,,,163711.69999980927,163711.69999980927,,163711.59999990463,,163717.444,8,400,,,
sequence,flow.Sequence,4_5,2023-09-12T22:11:15.650Z,,0,,,6672.770999809261,completion,,,,,false,,,,163711.79999995232,163711.69999980927,157032.853,157033.5,157038.929,163717.444,8,400,,,
trial,html.Screen,4_6_0,2023-09-12T22:11:20.836Z,,0,1,,5180.056000000011,response,ISIC_5755836.JPG,4,ISIC_8783066.JPG,ISIC_8783066.JPG,false,0,keypress(z),500,168897.59999990463,168897.5,163711.366,163711.79999995232,163717.444,168899.072,8,400,7,,ISIC_5755836.JPG
break,html.Screen,4_6_1,2023-09-12T22:11:20.836Z,,0,,,NaN,,,,,,false,,,,168898,168897.89999985695,,168897.69999980927,,168899.072,8,400,,,
break_continue,html.Screen,4_6_2,2023-09-12T22:11:20.836Z,,0,,,NaN,,,,,,false,,,,168898.19999980927,168898.09999990463,,168898.09999990463,,168899.072,8,400,,,
sequence,flow.Sequence,4_6,2023-09-12T22:11:20.836Z,,0,,,5180.655999904644,completion,,,,,false,,,,168898.29999995232,168898.09999990463,163711.366,163711.79999995232,163717.444,168899.072,8,400,,,
trial,html.Screen,4_7_0,2023-09-12T22:11:26.277Z,,0,1,,5440.327999856963,response,ISIC_0011778.JPG,5,ISIC_5988539.JPG,ISIC_5988539.JPG,false,0,keypress(z),500,174339.39999985695,174339.39999985695,168892.989,168898.29999995232,168899.072,174341.262,8,400,8,,ISIC_0011778.JPG
break,html.Screen,4_7_1,2023-09-12T22:11:26.278Z,,0,,,NaN,,,,,,false,,,,174339.89999985695,174339.69999980927,,174339.5,,174341.262,8,400,,,
break_continue,html.Screen,4_7_2,2023-09-12T22:11:26.278Z,,0,,,NaN,,,,,,false,,,,174340,174339.89999985695,,174339.89999985695,,174341.262,8,400,,,
sequence,flow.Sequence,4_7,2023-09-12T22:11:26.278Z,,0,,,5440.827999856963,completion,,,,,false,,,,174340,174339.89999985695,168892.989,168898.29999995232,168899.072,174341.262,8,400,,,
trial,html.Screen,4_8_0,2023-09-12T22:11:32.843Z,,0,1,,6563.738000000012,response,ISIC_1729223.JPG,5,ISIC_0024344.JPG,ISIC_1729223.JPG,false,1,keypress(m),500,180905.09999990463,180905,174335.183,174340,174341.262,180910.703,8,400,9,,ISIC_0024344.JPG
break,html.Screen,4_8_1,2023-09-12T22:11:32.843Z,,0,,,NaN,,,,,,false,,,,180905.5,180905.39999985695,,180905.19999980927,,180910.703,8,400,,,
break_continue,html.Screen,4_8_2,2023-09-12T22:11:32.844Z,,0,,,NaN,,,,,,false,,,,180905.59999990463,180905.59999990463,,180905.5,,180910.703,8,400,,,
sequence,flow.Sequence,4_8,2023-09-12T22:11:32.844Z,,0,,,6564.337999904645,completion,,,,,false,,,,180905.69999980927,180905.59999990463,174335.183,174340,174341.262,180910.703,8,400,,,
trial,html.Screen,4_9_0,2023-09-12T22:11:39.390Z,,0,1,,6541.396999904624,response,ISIC_0072294.JPG,4,ISIC_0028781.JPG,ISIC_0028781.JPG,false,0,keypress(z),500,187452.19999980927,187452.09999990463,180904.625,180905.79999995232,180910.703,187455.888,8,400,10,,ISIC_0072294.JPG
break,html.Screen,4_9_1,2023-09-12T22:11:39.391Z,,0,,,NaN,,,,,,false,,,,187452.69999980927,187452.5,,187452.29999995232,,187455.888,8,400,,,
break_continue,html.Screen,4_9_2,2023-09-12T22:11:39.391Z,,0,,,NaN,,,,,,false,,,,187452.79999995232,187452.79999995232,,187452.69999980927,,187455.888,8,400,,,
sequence,flow.Sequence,4_9,2023-09-12T22:11:39.391Z,,0,,,6542.096999952308,completion,,,,,false,,,,187452.89999985695,187452.79999995232,180904.625,180905.79999995232,180910.703,187455.888,8,400,,,
trial,html.Screen,4_10_0,2023-09-12T22:11:43.683Z,,0,1,,4289.41199995231,response,ISIC_1858237.JPG,4,ISIC_0065537.JPG,ISIC_1858237.JPG,false,1,keypress(m),500,191745.29999995232,191745.29999995232,187449.836,187453,187455.888,191754.271,8,400,11,,ISIC_0065537.JPG
break,html.Screen,4_10_1,2023-09-12T22:11:43.684Z,,0,,,NaN,,,,,,false,,,,191745.69999980927,191745.59999990463,,191745.39999985695,,191754.271,8,400,,,
break_continue,html.Screen,4_10_2,2023-09-12T22:11:43.684Z,,0,,,NaN,,,,,,false,,,,191745.89999985695,191745.79999995232,,191745.79999995232,,191754.271,8,400,,,
sequence,flow.Sequence,4_10,2023-09-12T22:11:43.684Z,,0,,,4289.91199995231,completion,,,,,false,,,,191745.89999985695,191745.79999995232,187449.836,187453,187455.888,191754.271,8,400,,,
trial,html.Screen,4_11_0,2023-09-12T22:11:49.802Z,,0,1,,6110.028999952308,response,ISIC_0026043.JPG,6,ISIC_1684127.JPG,ISIC_0026043.JPG,false,1,keypress(m),500,197864.39999985695,197864.29999995232,191740.556,191746,191754.271,197867.595,8,400,12,,ISIC_1684127.JPG
break,html.Screen,4_11_1,2023-09-12T22:11:49.803Z,,0,,,NaN,,,,,,false,,,,197864.79999995232,197864.69999980927,,197864.5,,197867.595,8,400,,,
break_continue,html.Screen,4_11_2,2023-09-12T22:11:49.803Z,,0,,,NaN,,,,,,false,,,,197865,197864.89999985695,,197864.89999985695,,197867.595,8,400,,,
sequence,flow.Sequence,4_11,2023-09-12T22:11:49.803Z,,0,,,6110.628999856941,completion,,,,,false,,,,197865,197864.89999985695,191740.556,191746,191754.271,197867.595,8,400,,,
trial,html.Screen,4_12_0,2023-09-12T22:11:56.828Z,,0,1,,7022.704999952315,response,ISIC_0011956.JPG,6,ISIC_0010441.JPG,ISIC_0011956.JPG,false,1,keypress(m),500,204890.39999985695,204890.29999995232,197861.516,197865,197867.595,204899.311,8,400,13,,ISIC_0010441.JPG
break,html.Screen,4_12_1,2023-09-12T22:11:56.829Z,,0,,,NaN,,,,,,false,,,,204890.79999995232,204890.69999980927,,204890.5,,204899.311,8,400,,,
break_continue,html.Screen,4_12_2,2023-09-12T22:11:56.829Z,,0,,,NaN,,,,,,false,,,,204891,204891,,204890.89999985695,,204899.311,8,400,,,
sequence,flow.Sequence,4_12,2023-09-12T22:11:56.829Z,,0,,,7023.404999999999,completion,,,,,false,,,,204891.39999985695,204891,197861.516,197865,197867.595,204899.311,8,400,,,
trial,html.Screen,4_13_0,2023-09-12T22:12:01.203Z,,0,1,,4365.388999809278,response,ISIC_0034061.JPG,4,ISIC_6978997.JPG,ISIC_6978997.JPG,false,0,keypress(z),500,209264.89999985695,209264.69999980927,204885.476,204891.5,204899.311,209267.141,8,400,14,,ISIC_0034061.JPG
break,html.Screen,4_13_1,2023-09-12T22:12:01.203Z,,0,,,NaN,,,,,,false,,,,209265.29999995232,209265.09999990463,,209264.89999985695,,209267.141,8,400,,,
break_continue,html.Screen,4_13_2,2023-09-12T22:12:01.203Z,,0,,,NaN,,,,,,false,,,,209265.39999985695,209265.39999985695,,209265.29999995232,,209267.141,8,400,,,
sequence,flow.Sequence,4_13,2023-09-12T22:12:01.203Z,,0,,,4366.088999856962,completion,,,,,false,,,,209265.39999985695,209265.39999985695,204885.476,204891.5,204899.311,209267.141,8,400,,,
trial,html.Screen,4_14_0,2023-09-12T22:12:05.284Z,,0,1,,4078.7589998569456,response,ISIC_7196249.JPG,5,ISIC_0063241.JPG,ISIC_7196249.JPG,false,1,keypress(m),500,213346,213345.89999985695,209261.067,209265.39999985695,209267.141,213351.816,8,400,15,,ISIC_0063241.JPG
break,html.Screen,4_14_1,2023-09-12T22:12:05.284Z,,0,,,NaN,,,,,,false,,,,213346.5,213346.39999985695,,213346.09999990463,,213351.816,8,400,,,
break_continue,html.Screen,4_14_2,2023-09-12T22:12:05.285Z,,0,,,NaN,,,,,,false,,,,213346.59999990463,213346.59999990463,,213346.5,,213351.816,8,400,,,
sequence,flow.Sequence,4_14,2023-09-12T22:12:05.285Z,,0,,,4079.4589999046293,completion,,,,,false,,,,213346.69999980927,213346.59999990463,209261.067,209265.39999985695,209267.141,213351.816,8,400,,,
trial,html.Screen,4_15_0,2023-09-12T22:12:09.163Z,,0,1,,3872.783999904641,response,ISIC_4938994.JPG,4,ISIC_4022621.JPG,ISIC_4022621.JPG,false,0,keypress(z),500,217224.69999980927,217224.59999990463,213345.749,213346.69999980927,213351.816,217230.456,8,400,16,,ISIC_4938994.JPG
break,html.Screen,4_15_1,2023-09-12T22:12:09.163Z,,0,,,NaN,,,,,,false,,,,217225.09999990463,217225,,217224.79999995232,,217230.456,8,400,,,
break_continue,html.Screen,4_15_2,2023-09-12T22:12:09.163Z,,0,,,NaN,,,,,,false,,,,217225.29999995232,217225.19999980927,,217225.19999980927,,217230.456,8,400,,,
sequence,flow.Sequence,4_15,2023-09-12T22:12:09.163Z,,0,,,3873.3839998092735,completion,,,,,false,,,,217225.29999995232,217225.19999980927,213345.749,213346.69999980927,213351.816,217230.456,8,400,,,
trial,html.Screen,4_16_0,2023-09-12T22:12:13.356Z,,0,1,,4187.643999904627,response,ISIC_5323725.JPG,6,ISIC_4034244.JPG,ISIC_5323725.JPG,false,1,keypress(m),500,221418.19999980927,221418.09999990463,217224.382,217225.29999995232,217230.456,221424.228,8,400,17,,ISIC_4034244.JPG
break,html.Screen,4_16_1,2023-09-12T22:12:13.357Z,,0,,,NaN,,,,,,false,,,,221418.69999980927,221418.5,,221418.29999995232,,221424.228,8,400,,,
break_continue,html.Screen,4_16_2,2023-09-12T22:12:13.357Z,,0,,,NaN,,,,,,false,,,,221418.79999995232,221418.69999980927,,221418.69999980927,,221424.228,8,400,,,
sequence,flow.Sequence,4_16,2023-09-12T22:12:13.357Z,,0,,,4188.24399980926,completion,,,,,false,,,,221418.79999995232,221418.69999980927,217224.382,217225.29999995232,217230.456,221424.228,8,400,,,
trial,html.Screen,4_17_0,2023-09-12T22:12:18.318Z,,0,1,,4955.5719999523135,response,ISIC_1194944.JPG,5,ISIC_0003822.JPG,ISIC_1194944.JPG,false,1,keypress(m),500,226379.79999995232,226379.79999995232,221418.128,221418.89999985695,221424.228,226381.612,8,400,18,,ISIC_0003822.JPG
break,html.Screen,4_17_1,2023-09-12T22:12:18.318Z,,0,,,NaN,,,,,,false,,,,226380.19999980927,226380.19999980927,,226380,,226381.612,8,400,,,
break_continue,html.Screen,4_17_2,2023-09-12T22:12:18.318Z,,0,,,NaN,,,,,,false,,,,226380.39999985695,226380.29999995232,,226380.29999995232,,226381.612,8,400,,,
sequence,flow.Sequence,4_17,2023-09-12T22:12:18.318Z,,0,,,4956.0719999523135,completion,,,,,false,,,,226380.39999985695,226380.29999995232,221418.128,221418.89999985695,221424.228,226381.612,8,400,,,
trial,html.Screen,4_18_0,2023-09-12T22:12:25.510Z,,0,1,,7190.687999952323,response,ISIC_0624498.JPG,4,ISIC_0059435.JPG,ISIC_0624498.JPG,false,1,keypress(m),500,233572.5,233572.29999995232,226375.515,226380.5,226381.612,233575.248,8,400,19,,ISIC_0059435.JPG
break,html.Screen,4_18_1,2023-09-12T22:12:25.511Z,,0,,,NaN,,,,,,false,,,,233572.89999985695,233572.69999980927,,233572.59999990463,,233575.248,8,400,,,
break_continue,html.Screen,4_18_2,2023-09-12T22:12:25.511Z,,0,,,NaN,,,,,,false,,,,233573.09999990463,233573,,233573,,233575.248,8,400,,,
sequence,flow.Sequence,4_18,2023-09-12T22:12:25.511Z,,0,,,7191.388000000006,completion,,,,,false,,,,233573.09999990463,233573,226375.515,226380.39999985695,226381.612,233575.248,8,400,,,
trial,html.Screen,4_19_0,2023-09-12T22:12:29.501Z,,0,1,,3988.1519998569565,response,ISIC_0031883.JPG,5,ISIC_0025702.JPG,ISIC_0025702.JPG,false,0,keypress(z),500,237563.5,237563.39999985695,233569.154,233573.19999980927,233575.248,237569.023,8,400,20,,ISIC_0031883.JPG
break,html.Screen,4_19_1,2023-09-12T22:12:29.502Z,,0,,,NaN,,,,,,false,,,,237563.89999985695,237563.79999995232,,237563.5,,237569.023,8,400,,,
break_continue,html.Screen,4_19_2,2023-09-12T22:12:29.502Z,,0,,,NaN,,,,,,false,,,,237564,237564,,237563.89999985695,,237569.023,8,400,,,
sequence,flow.Sequence,4_19,2023-09-12T22:12:29.502Z,,0,,,3988.7520000000077,completion,,,,,false,,,,237564,237564,233569.154,233573.19999980927,233575.248,237569.023,8,400,,,
trial,html.Screen,4_20_0,2023-09-12T22:12:34.703Z,,0,1,,5196.376999856962,response,ISIC_2987613.JPG,6,ISIC_5789263.JPG,ISIC_5789263.JPG,false,0,keypress(z),500,242765.39999985695,242765.39999985695,237562.947,237564.09999990463,237569.023,242768.818,8,400,21,,ISIC_2987613.JPG
break,html.Screen,4_20_1,2023-09-12T22:12:34.704Z,,0,,,NaN,,,,,,false,,,,242765.79999995232,242765.69999980927,,242765.59999990463,,242768.818,8,400,,,
break_continue,html.Screen,4_20_2,2023-09-12T22:12:34.704Z,,0,,,NaN,,,,,,false,,,,242766,242765.89999985695,,242765.89999985695,,242768.818,8,400,,,
sequence,flow.Sequence,4_20,2023-09-12T22:12:34.704Z,,0,,,5196.876999856962,completion,,,,,false,,,,242766,242765.89999985695,237562.947,237564.09999990463,237569.023,242768.818,8,400,,,
trial,html.Screen,4_21_0,2023-09-12T22:12:40.950Z,,0,1,,6242.781999904633,response,ISIC_7503950.JPG,6,ISIC_0448485.JPG,ISIC_0448485.JPG,false,0,keypress(z),500,249011.69999980927,249011.59999990463,242762.737,242766.09999990463,242768.818,249017.05,8,400,22,,ISIC_7503950.JPG
break,html.Screen,4_21_1,2023-09-12T22:12:40.950Z,,0,,,NaN,,,,,,false,,,,249012.09999990463,249012,,249011.79999995232,,249017.05,8,400,,,
break_continue,html.Screen,4_21_2,2023-09-12T22:12:40.950Z,,0,,,NaN,,,,,,false,,,,249012.29999995232,249012.19999980927,,249012.09999990463,,249017.05,8,400,,,
sequence,flow.Sequence,4_21,2023-09-12T22:12:40.950Z,,0,,,6243.381999809266,completion,,,,,false,,,,249012.39999985695,249012.19999980927,242762.737,242766.09999990463,242768.818,249017.05,8,400,,,
trial,html.Screen,4_22_0,2023-09-12T22:12:45.976Z,,0,1,,5020.950000000012,response,ISIC_7959386.JPG,5,ISIC_0012160.JPG,ISIC_0012160.JPG,false,0,keypress(z),500,254038,254038,249010.972,249012.39999985695,249017.05,254041.095,8,400,23,,ISIC_7959386.JPG
break,html.Screen,4_22_1,2023-09-12T22:12:45.976Z,,0,,,NaN,,,,,,false,,,,254038.5,254038.39999985695,,254038.09999990463,,254041.095,8,400,,,
break_continue,html.Screen,4_22_2,2023-09-12T22:12:45.977Z,,0,,,NaN,,,,,,false,,,,254038.59999990463,254038.59999990463,,254038.5,,254041.095,8,400,,,
sequence,flow.Sequence,4_22,2023-09-12T22:12:45.977Z,,0,,,5021.549999904644,completion,,,,,false,,,,254038.59999990463,254038.59999990463,249010.972,249012.39999985695,249017.05,254041.095,8,400,,,
trial,html.Screen,4_23_0,2023-09-12T22:12:53.595Z,,0,1,,7615.804999856948,response,ISIC_0029902.JPG,5,ISIC_4185719.JPG,ISIC_4185719.JPG,false,0,keypress(z),500,261657,261656.89999985695,254035.024,254038.69999980927,254041.095,261658.969,8,400,24,,ISIC_0029902.JPG
break,html.Screen,4_23_1,2023-09-12T22:12:53.595Z,,0,,,NaN,,,,,,false,,,,261657.39999985695,261657.29999995232,,261657.09999990463,,261658.969,8,400,,,
break_continue,html.Screen,4_23_2,2023-09-12T22:12:53.595Z,,0,,,NaN,,,,,,false,,,,261657.5,261657.39999985695,,261657.39999985695,,261658.969,8,400,,,
sequence,flow.Sequence,4_23,2023-09-12T22:12:53.596Z,,0,,,7616.304999856948,completion,,,,,false,,,,261657.5,261657.39999985695,254035.024,254038.59999990463,254041.095,261658.969,8,400,,,
trial,html.Screen,4_24_0,2023-09-12T22:13:02.269Z,,0,1,,8672.330999952304,response,ISIC_9022005.JPG,5,ISIC_0030916.JPG,ISIC_0030916.JPG,false,0,keypress(z),500,270331.39999985695,270331.2999999523,261652.891,261657.59999990463,261658.969,270337.417,8,400,25,,ISIC_9022005.JPG
break,html.Screen,4_24_1,2023-09-12T22:13:02.270Z,,0,,,NaN,,,,,,false,,,,270331.69999980927,270331.59999990463,,270331.39999985695,,270337.417,8,400,,,
break_continue,html.Screen,4_24_2,2023-09-12T22:13:02.270Z,,0,,,NaN,,,,,,false,,,,270331.7999999523,270331.7999999523,,270331.69999980927,,270337.417,8,400,,,
sequence,flow.Sequence,4_24,2023-09-12T22:13:02.270Z,,0,,,8672.830999952304,completion,,,,,false,,,,270331.89999985695,270331.7999999523,261652.891,261657.59999990463,261658.969,270337.417,8,400,,,
trial,html.Screen,4_25_0,2023-09-12T22:13:06.326Z,,0,1,,4050.582999999984,response,ISIC_0053469.JPG,5,ISIC_1668831.JPG,ISIC_1668831.JPG,false,0,keypress(z),500,274388.09999990463,274388,270331.329,270331.89999985695,270337.417,274391.792,8,400,26,,ISIC_0053469.JPG
break,html.Screen,4_25_1,2023-09-12T22:13:06.326Z,,0,,,NaN,,,,,,false,,,,274388.59999990463,274388.39999985695,,274388.2999999523,,274391.792,8,400,,,
break_continue,html.Screen,4_25_2,2023-09-12T22:13:06.327Z,,0,,,NaN,,,,,,false,,,,274388.69999980927,274388.59999990463,,274388.59999990463,,274391.792,8,400,,,
sequence,flow.Sequence,4_25,2023-09-12T22:13:06.327Z,,0,,,4051.1829999046167,completion,,,,,false,,,,274388.69999980927,274388.59999990463,270331.329,270331.89999985695,270337.417,274391.792,8,400,,,
trial,html.Screen,4_26_0,2023-09-12T22:13:14.458Z,,0,1,,8128.5079999523,response,ISIC_7176034.JPG,4,ISIC_7779155.JPG,ISIC_7176034.JPG,false,1,keypress(m),500,282520.2999999523,282520.2999999523,274385.723,274388.69999980927,274391.792,282524.8,8,400,27,,ISIC_7779155.JPG
break,html.Screen,4_26_1,2023-09-12T22:13:14.459Z,,0,,,NaN,,,,,,false,,,,282520.7999999523,282520.69999980927,,282520.5,,282524.8,8,400,,,
break_continue,html.Screen,4_26_2,2023-09-12T22:13:14.459Z,,0,,,NaN,,,,,,false,,,,282520.7999999523,282520.7999999523,,282520.7999999523,,282524.8,8,400,,,
sequence,flow.Sequence,4_26,2023-09-12T22:13:14.459Z,,0,,,8129.0079999523,completion,,,,,false,,,,282520.89999985695,282520.7999999523,274385.723,274388.69999980927,274391.792,282524.8,8,400,,,
trial,html.Screen,4_27_0,2023-09-12T22:13:22.963Z,,0,1,,8500.499999952328,response,ISIC_6577632.JPG,6,ISIC_5732201.JPG,ISIC_6577632.JPG,false,1,keypress(m),500,291025.5,291025.2999999523,282518.732,282520.89999985695,282524.8,291027.505,8,400,28,,ISIC_5732201.JPG
break,html.Screen,4_27_1,2023-09-12T22:13:22.964Z,,0,,,NaN,,,,,,false,,,,291025.7999999523,291025.69999980927,,291025.5,,291027.505,8,400,,,
break_continue,html.Screen,4_27_2,2023-09-12T22:13:22.964Z,,0,,,NaN,,,,,,false,,,,291025.89999985695,291025.89999985695,,291025.7999999523,,291027.505,8,400,,,
sequence,flow.Sequence,4_27,2023-09-12T22:13:22.964Z,,0,,,8501.09999985696,completion,,,,,false,,,,291026,291025.89999985695,282518.732,282520.89999985695,282524.8,291027.505,8,400,,,
trial,html.Screen,4_28_0,2023-09-12T22:13:26.677Z,,0,1,,3711.4949999999953,response,ISIC_0034092.JPG,5,ISIC_4371210.JPG,ISIC_4371210.JPG,false,0,keypress(z),500,294739.19999980927,294739,291021.418,291026,291027.505,294742.492,8,400,29,,ISIC_0034092.JPG
break,html.Screen,4_28_1,2023-09-12T22:13:26.678Z,,0,,,NaN,,,,,,false,,,,294739.5,294739.5,,294739.19999980927,,294742.492,8,400,,,
break_continue,html.Screen,4_28_2,2023-09-12T22:13:26.678Z,,0,,,NaN,,,,,,false,,,,294739.69999980927,294739.59999990463,,294739.59999990463,,294742.492,8,400,,,
sequence,flow.Sequence,4_28,2023-09-12T22:13:26.678Z,,0,,,3712.094999904628,completion,,,,,false,,,,294739.7999999523,294739.59999990463,291021.418,291026,291027.505,294742.492,8,400,,,
trial,html.Screen,4_29_0,2023-09-12T22:13:32.122Z,,0,1,,5441.807999952289,response,ISIC_0011505.JPG,5,ISIC_6377613.JPG,ISIC_6377613.JPG,false,0,keypress(z),500,300184.5,300184.2999999523,294736.42,294739.7999999523,294742.492,300190.762,8,400,30,,ISIC_0011505.JPG
break,html.Screen,4_29_1,2023-09-12T22:13:32.123Z,,0,,,NaN,,,,,,false,,,,300184.7999999523,300184.7999999523,,300184.59999990463,,300190.762,8,400,,,
break_continue,html.Screen,4_29_2,2023-09-12T22:13:32.123Z,,0,,,NaN,,,,,,false,,,,300185,300184.89999985695,,300184.7999999523,,300190.762,8,400,,,
sequence,flow.Sequence,4_29,2023-09-12T22:13:32.123Z,,0,,,5442.407999856921,completion,,,,,false,,,,300185,300184.89999985695,294736.42,294739.7999999523,294742.492,300190.762,8,400,,,
trial,html.Screen,4_30_0,2023-09-12T22:13:37.632Z,,0,1,,5503.637999856961,response,ISIC_4867043.JPG,5,ISIC_4320200.JPG,ISIC_4867043.JPG,false,1,keypress(m),500,305694.39999985695,305694.39999985695,300184.685,300185,300190.762,305699.632,8,400,31,,ISIC_4320200.JPG
break,html.Screen,4_30_1,2023-09-12T22:13:37.633Z,,0,,,NaN,,,,,,false,,,,305694.89999985695,305694.7999999523,,305694.5,,305699.632,8,400,,,
break_continue,html.Screen,4_30_2,2023-09-12T22:13:37.633Z,,0,,,NaN,,,,,,false,,,,305695,305694.89999985695,,305694.89999985695,,305699.632,8,400,,,
sequence,flow.Sequence,4_30,2023-09-12T22:13:37.633Z,,0,,,5504.137999856961,completion,,,,,false,,,,305695,305694.89999985695,300184.685,300185,300190.762,305699.632,8,400,,,
trial,html.Screen,4_31_0,2023-09-12T22:13:41.046Z,,0,1,,3408.2679998569656,response,ISIC_0218072.JPG,5,ISIC_8068693.JPG,ISIC_8068693.JPG,false,0,keypress(z),500,309108,309107.89999985695,305693.558,305695,305699.632,309111.614,8,400,32,,ISIC_0218072.JPG
break,html.Screen,4_31_1,2023-09-12T22:13:41.046Z,,0,,,NaN,,,,,,false,,,,309108.39999985695,309108.2999999523,,309108.09999990463,,309111.614,8,400,,,
break_continue,html.Screen,4_31_2,2023-09-12T22:13:41.046Z,,0,,,NaN,,,,,,false,,,,309108.5,309108.5,,309108.39999985695,,309111.614,8,400,,,
sequence,flow.Sequence,4_31,2023-09-12T22:13:41.047Z,,0,,,3408.8680000000168,completion,,,,,false,,,,309108.59999990463,309108.5,305693.558,305695,305699.632,309111.614,8,400,,,
trial,html.Screen,4_32_0,2023-09-12T22:13:44.367Z,,0,1,,3317.7859998569475,response,ISIC_0058022.JPG,4,ISIC_9498942.JPG,ISIC_9498942.JPG,false,0,keypress(z),500,312429.5,312429.39999985695,309105.53,309108.59999990463,309111.614,312432.692,8,400,33,,ISIC_0058022.JPG
break,html.Screen,4_32_1,2023-09-12T22:13:44.368Z,,0,,,NaN,,,,,,false,,,,312430,312429.7999999523,,312429.59999990463,,312432.692,8,400,,,
break_continue,html.Screen,4_32_2,2023-09-12T22:13:44.368Z,,0,,,NaN,,,,,,false,,,,312430.09999990463,312430,,312430,,312432.692,8,400,,,
sequence,flow.Sequence,4_32,2023-09-12T22:13:44.368Z,,0,,,3318.3859999999986,completion,,,,,false,,,,312430.09999990463,312430,309105.53,309108.59999990463,309111.614,312432.692,8,400,,,
trial,html.Screen,4_33_0,2023-09-12T22:13:48.804Z,,0,1,,4432.907999904652,response,ISIC_8363485.JPG,5,ISIC_2440407.JPG,ISIC_2440407.JPG,false,0,keypress(z),500,316865.69999980927,316865.59999990463,312426.612,312430.09999990463,312432.692,316868.876,8,400,34,,ISIC_8363485.JPG
break,html.Screen,4_33_1,2023-09-12T22:13:48.804Z,,0,,,NaN,,,,,,false,,,,316866,316866,,316865.69999980927,,316868.876,8,400,,,
break_continue,html.Screen,4_33_2,2023-09-12T22:13:48.804Z,,0,,,NaN,,,,,,false,,,,316866.19999980927,316866.19999980927,,316866.09999990463,,316868.876,8,400,,,
sequence,flow.Sequence,4_33,2023-09-12T22:13:48.804Z,,0,,,4433.507999809284,completion,,,,,false,,,,316866.19999980927,316866.19999980927,312426.612,312430.09999990463,312432.692,316868.876,8,400,,,
trial,html.Screen,4_34_0,2023-09-12T22:13:54.314Z,,0,1,,5507.323999809276,response,ISIC_0032181.JPG,5,ISIC_9760968.JPG,ISIC_9760968.JPG,false,0,keypress(z),500,322376.2999999523,322376.19999980927,316862.795,316866.19999980927,316868.876,322383.799,8,400,35,,ISIC_0032181.JPG
break,html.Screen,4_34_1,2023-09-12T22:13:54.315Z,,0,,,NaN,,,,,,false,,,,322376.59999990463,322376.59999990463,,322376.39999985695,,322383.799,8,400,,,
break_continue,html.Screen,4_34_2,2023-09-12T22:13:54.315Z,,0,,,NaN,,,,,,false,,,,322376.7999999523,322376.69999980927,,322376.69999980927,,322383.799,8,400,,,
sequence,flow.Sequence,4_34,2023-09-12T22:13:54.315Z,,0,,,5507.823999809276,completion,,,,,false,,,,322376.7999999523,322376.69999980927,316862.795,316866.19999980927,316868.876,322383.799,8,400,,,
trial,html.Screen,4_35_0,2023-09-12T22:13:57.884Z,,0,1,,3562.10099985695,response,ISIC_0060968.JPG,5,ISIC_8161933.JPG,ISIC_8161933.JPG,false,0,keypress(z),500,325946,325945.89999985695,322377.741,322376.89999985695,322383.799,325954.923,8,400,36,,ISIC_0060968.JPG
break,html.Screen,4_35_1,2023-09-12T22:13:57.884Z,,0,,,NaN,,,,,,false,,,,325946.39999985695,325946.2999999523,,325946.09999990463,,325954.923,8,400,,,
break_continue,html.Screen,4_35_2,2023-09-12T22:13:57.885Z,,0,,,NaN,,,,,,false,,,,325946.5,325946.5,,325946.39999985695,,325954.923,8,400,,,
sequence,flow.Sequence,4_35,2023-09-12T22:13:57.885Z,,0,,,3562.701000000001,completion,,,,,false,,,,325946.59999990463,325946.5,322377.741,322376.89999985695,322383.799,325954.923,8,400,,,
trial,html.Screen,4_36_0,2023-09-12T22:14:01.411Z,,0,1,,3518.176999904623,response,ISIC_0034262.JPG,4,ISIC_0027305.JPG,ISIC_0027305.JPG,false,0,keypress(z),500,329473.2999999523,329473.09999990463,325941.229,325946.69999980927,325954.923,329481.669,8,400,37,,ISIC_0034262.JPG
break,html.Screen,4_36_1,2023-09-12T22:14:01.412Z,,0,,,NaN,,,,,,false,,,,329473.59999990463,329473.5,,329473.2999999523,,329481.669,8,400,,,
break_continue,html.Screen,4_36_2,2023-09-12T22:14:01.412Z,,0,,,NaN,,,,,,false,,,,329473.7999999523,329473.69999980927,,329473.59999990463,,329481.669,8,400,,,
sequence,flow.Sequence,4_36,2023-09-12T22:14:01.412Z,,0,,,3518.7769998092554,completion,,,,,false,,,,329473.7999999523,329473.69999980927,325941.229,325946.69999980927,325954.923,329481.669,8,400,,,
trial,html.Screen,4_37_0,2023-09-12T22:14:05.365Z,,0,1,,3945.0309998092707,response,ISIC_4363603.JPG,4,ISIC_8812621.JPG,ISIC_8812621.JPG,false,0,keypress(z),500,333426.7999999523,333426.69999980927,329468.358,329473.89999985695,329481.669,333431.857,8,400,38,,ISIC_4363603.JPG
break,html.Screen,4_37_1,2023-09-12T22:14:05.365Z,,0,,,NaN,,,,,,false,,,,333427.09999990463,333427.09999990463,,333426.7999999523,,333431.857,8,400,,,
break_continue,html.Screen,4_37_2,2023-09-12T22:14:05.365Z,,0,,,NaN,,,,,,false,,,,333427.2999999523,333427.2999999523,,333427.19999980927,,333431.857,8,400,,,
sequence,flow.Sequence,4_37,2023-09-12T22:14:05.365Z,,0,,,3945.630999952322,completion,,,,,false,,,,333427.2999999523,333427.2999999523,329468.358,329473.89999985695,329481.669,333431.857,8,400,,,
trial,html.Screen,4_38_0,2023-09-12T22:14:08.662Z,,0,1,,3292.2429999046144,response,ISIC_0029250.JPG,5,ISIC_0000135.JPG,ISIC_0029250.JPG,false,1,keypress(m),500,336724.2999999523,336724.09999990463,333425.771,333427.39999985695,333431.857,336728.692,8,400,39,,ISIC_0000135.JPG
break,html.Screen,4_38_1,2023-09-12T22:14:08.663Z,,0,,,NaN,,,,,,false,,,,336724.59999990463,336724.5,,336724.2999999523,,336728.692,8,400,,,
break_continue,html.Screen,4_38_2,2023-09-12T22:14:08.663Z,,0,,,NaN,,,,,,false,,,,336724.69999980927,336724.69999980927,,336724.69999980927,,336728.692,8,400,,,
sequence,flow.Sequence,4_38,2023-09-12T22:14:08.663Z,,0,,,3292.842999809247,completion,,,,,false,,,,336724.89999985695,336724.69999980927,333425.771,333427.39999985695,333431.857,336728.692,8,400,,,
trial,html.Screen,4_39_0,2023-09-12T22:14:13.991Z,,0,1,,5324.707999856968,response,ISIC_4870676.JPG,4,ISIC_8863344.JPG,ISIC_8863344.JPG,false,0,keypress(z),500,342053.5,342053.39999985695,336722.61,336724.89999985695,336728.692,342055.75,8,400,40,,ISIC_4870676.JPG
break,html.Screen,4_39_1,2023-09-12T22:14:13.992Z,,0,,,NaN,,,,,,false,,,,342053.89999985695,342053.7999999523,,342053.59999990463,,342055.75,8,400,,,
break_continue,html.Screen,4_39_2,2023-09-12T22:14:13.992Z,,0,,,NaN,,,,,,false,,,,342054.09999990463,342054,,342053.89999985695,,342055.75,8,400,,,
sequence,flow.Sequence,4_39,2023-09-12T22:14:13.992Z,,0,,,5325.308000000019,completion,,,,,false,,,,342054.09999990463,342054,336722.61,336724.89999985695,336728.692,342055.75,8,400,,,
trial,html.Screen,4_40_0,2023-09-12T22:14:17.273Z,,0,1,,3279.449999809265,response,ISIC_0072375.JPG,5,ISIC_8135400.JPG,ISIC_8135400.JPG,false,0,keypress(z),500,345335.2999999523,345335.19999980927,342049.672,342054.09999990463,342055.75,345340.463,8,400,41,,ISIC_0072375.JPG
break,html.Screen,4_40_1,2023-09-12T22:14:17.274Z,,0,,,NaN,,,,,,false,,,,345335.69999980927,345335.59999990463,,345335.2999999523,,345340.463,8,400,,,
break_continue,html.Screen,4_40_2,2023-09-12T22:14:17.274Z,,0,,,NaN,,,,,,false,,,,345335.7999999523,345335.69999980927,,345335.69999980927,,345340.463,8,400,,,
sequence,flow.Sequence,4_40,2023-09-12T22:14:17.274Z,,0,,,3279.949999809265,completion,,,,,false,,,,345335.89999985695,345335.69999980927,342049.672,342054.09999990463,342055.75,345340.463,8,400,,,
trial,html.Screen,4_41_0,2023-09-12T22:14:21.146Z,,0,1,,3867.93699985696,response,ISIC_2703002.JPG,5,ISIC_6201695.JPG,ISIC_6201695.JPG,false,0,keypress(z),500,349208.39999985695,349208.39999985695,345334.381,345335.89999985695,345340.463,349213.028,8,400,42,,ISIC_2703002.JPG
break,html.Screen,4_41_1,2023-09-12T22:14:21.147Z,,0,,,NaN,,,,,,false,,,,349208.7999999523,349208.7999999523,,349208.59999990463,,349213.028,8,400,,,
break_continue,html.Screen,4_41_2,2023-09-12T22:14:21.147Z,,0,,,NaN,,,,,,false,,,,349209,349208.89999985695,,349208.89999985695,,349213.028,8,400,,,
sequence,flow.Sequence,4_41,2023-09-12T22:14:21.147Z,,0,,,3868.43699985696,completion,,,,,false,,,,349209.09999990463,349208.89999985695,345334.381,345335.89999985695,345340.463,349213.028,8,400,,,
trial,html.Screen,4_42_0,2023-09-12T22:14:25.724Z,,0,1,,4573.271999952325,response,ISIC_3590814.JPG,5,ISIC_8711983.JPG,ISIC_8711983.JPG,false,0,keypress(z),500,353786.39999985695,353786.2999999523,349206.953,349209.19999980927,349213.028,353788.606,8,400,43,,ISIC_3590814.JPG
break,html.Screen,4_42_1,2023-09-12T22:14:25.725Z,,0,,,NaN,,,,,,false,,,,353786.89999985695,353786.69999980927,,353786.59999990463,,353788.606,8,400,,,
break_continue,html.Screen,4_42_2,2023-09-12T22:14:25.725Z,,0,,,NaN,,,,,,false,,,,353787,353787,,353786.89999985695,,353788.606,8,400,,,
sequence,flow.Sequence,4_42,2023-09-12T22:14:25.725Z,,0,,,4573.972000000009,completion,,,,,false,,,,353787,353787,349206.953,349209.19999980927,349213.028,353788.606,8,400,,,
trial,html.Screen,4_43_0,2023-09-12T22:14:30.430Z,,0,1,,4703.493999904604,response,ISIC_0030481.JPG,5,ISIC_0030703.JPG,ISIC_0030481.JPG,false,1,keypress(m),500,358492.19999980927,358492.09999990463,353782.523,353787.09999990463,353788.606,358497.514,8,400,44,,ISIC_0030703.JPG
break,html.Screen,4_43_1,2023-09-12T22:14:30.431Z,,0,,,NaN,,,,,,false,,,,358492.5,358492.39999985695,,358492.2999999523,,358497.514,8,400,,,
break_continue,html.Screen,4_43_2,2023-09-12T22:14:30.431Z,,0,,,NaN,,,,,,false,,,,358492.69999980927,358492.59999990463,,358492.59999990463,,358497.514,8,400,,,
sequence,flow.Sequence,4_43,2023-09-12T22:14:30.431Z,,0,,,4703.993999904604,completion,,,,,false,,,,358492.7999999523,358492.59999990463,353782.523,353787.09999990463,353788.606,358497.514,8,400,,,
trial,html.Screen,4_44_0,2023-09-12T22:14:33.281Z,,0,1,,2845.1859998092405,response,ISIC_9939653.JPG,5,ISIC_0064080.JPG,ISIC_9939653.JPG,false,1,keypress(m),500,361342.7999999523,361342.69999980927,358491.432,358492.7999999523,358497.514,361345.875,8,400,45,,ISIC_0064080.JPG
break,html.Screen,4_44_1,2023-09-12T22:14:33.281Z,,0,,,NaN,,,,,,false,,,,361343.19999980927,361343.09999990463,,361342.89999985695,,361345.875,8,400,,,
break_continue,html.Screen,4_44_2,2023-09-12T22:14:33.281Z,,0,,,NaN,,,,,,false,,,,361343.2999999523,361343.2999999523,,361343.19999980927,,361345.875,8,400,,,
sequence,flow.Sequence,4_44,2023-09-12T22:14:33.281Z,,0,,,2845.7859999522916,completion,,,,,false,,,,361343.39999985695,361343.2999999523,358491.432,358492.7999999523,358497.514,361345.875,8,400,,,
trial,html.Screen,4_45_0,2023-09-12T22:14:36.744Z,,0,1,,3460.4249999523163,response,ISIC_0069274.JPG,4,ISIC_0025145.JPG,ISIC_0069274.JPG,false,1,keypress(m),500,364806.39999985695,364806.2999999523,361339.795,361343.5,361345.875,364812.411,8,400,46,,ISIC_0025145.JPG
break,html.Screen,4_45_1,2023-09-12T22:14:36.745Z,,0,,,NaN,,,,,,false,,,,364806.7999999523,364806.7999999523,,364806.5,,364812.411,8,400,,,
break_continue,html.Screen,4_45_2,2023-09-12T22:14:36.745Z,,0,,,NaN,,,,,,false,,,,364807,364806.89999985695,,364806.89999985695,,364812.411,8,400,,,
sequence,flow.Sequence,4_45,2023-09-12T22:14:36.745Z,,0,,,3461.024999856949,completion,,,,,false,,,,364807,364806.89999985695,361339.795,361343.39999985695,361345.875,364812.411,8,400,,,
trial,html.Screen,4_46_0,2023-09-12T22:14:40.635Z,,0,1,,3884.2889998092433,response,ISIC_4796100.JPG,5,ISIC_0028071.JPG,ISIC_4796100.JPG,false,1,keypress(m),500,368696.7999999523,368696.69999980927,364806.324,364807.09999990463,364812.411,368703.157,8,400,47,,ISIC_0028071.JPG
break,html.Screen,4_46_1,2023-09-12T22:14:40.635Z,,0,,,NaN,,,,,,false,,,,368697.2999999523,368697.09999990463,,368697,,368703.157,8,400,,,
break_continue,html.Screen,4_46_2,2023-09-12T22:14:40.635Z,,0,,,NaN,,,,,,false,,,,368697.39999985695,368697.39999985695,,368697.2999999523,,368703.157,8,400,,,
sequence,flow.Sequence,4_46,2023-09-12T22:14:40.635Z,,0,,,3884.988999856927,completion,,,,,false,,,,368697.39999985695,368697.39999985695,364806.324,364807.09999990463,364812.411,368703.157,8,400,,,
trial,html.Screen,4_47_0,2023-09-12T22:14:43.852Z,,0,1,,3211.0429998092586,response,ISIC_0011830.JPG,5,ISIC_0057344.JPG,ISIC_0057344.JPG,false,0,keypress(z),500,371914.19999980927,371914.19999980927,368697.083,368697.5,368703.157,371922.202,8,400,48,,ISIC_0011830.JPG
break,html.Screen,4_47_1,2023-09-12T22:14:43.853Z,,0,,,NaN,,,,,,false,,,,371914.59999990463,371914.5,,371914.39999985695,,371922.202,8,400,,,
break_continue,html.Screen,4_47_2,2023-09-12T22:14:43.853Z,,0,,,NaN,,,,,,false,,,,371914.7999999523,371914.69999980927,,371914.59999990463,,371922.202,8,400,,,
sequence,flow.Sequence,4_47,2023-09-12T22:14:43.853Z,,0,,,3211.5429998092586,completion,,,,,false,,,,371914.7999999523,371914.69999980927,368697.083,368697.39999985695,368703.157,371922.202,8,400,,,
trial,html.Screen,4_48_0,2023-09-12T22:14:53.455Z,,0,1,,9594.597999952326,response,ISIC_0032604.JPG,5,ISIC_0013908.JPG,ISIC_0032604.JPG,false,1,keypress(m),500,381516.89999985695,381516.7999999523,371909.071,371914.89999985695,371922.202,381520.829,8,400,49,,ISIC_0013908.JPG
break,html.Screen,4_48_1,2023-09-12T22:14:53.455Z,,0,,,NaN,,,,,,false,,,,381517.19999980927,381517.09999990463,,381516.89999985695,,381520.829,8,400,,,
break_continue,html.Screen,4_48_2,2023-09-12T22:14:53.455Z,,0,,,NaN,,,,,,false,,,,381517.39999985695,381517.39999985695,,381517.2999999523,,381520.829,8,400,,,
sequence,flow.Sequence,4_48,2023-09-12T22:14:53.455Z,,0,,,9595.197999856959,completion,,,,,false,,,,381517.39999985695,381517.39999985695,371909.071,371914.89999985695,371922.202,381520.829,8,400,,,
trial,html.Screen,4_49_0,2023-09-12T22:14:56.401Z,,0,1,,2941.670999999973,response,ISIC_6101007.JPG,4,ISIC_6366631.JPG,ISIC_6366631.JPG,false,0,keypress(z),500,384462.59999990463,384462.5,381514.752,381517.5,381520.829,384466.156,8,400,50,,ISIC_6101007.JPG
break,html.Screen,4_49_1,2023-09-12T22:15:06.398Z,,0,,,9999.620999999985,timeout,,,,,false,,,,394459.89999985695,394459.725,384460.079,384462.69999980927,384466.156,394465.777,8,400,,,
break_continue,html.Screen,4_49_2,2023-09-12T22:15:20.130Z,,0,,,13723.32299990463,response,,,,,false,continue,keypress(Space),,408192.39999985695,408189.09999990463,394459.725,394460,394465.777,408204.608,8,400,,,
sequence,flow.Sequence,4_49,2023-09-12T22:15:20.130Z,,0,,,26668.270999904606,completion,,,,,false,,,,408192.5,408189.09999990463,381514.752,381517.5,381520.829,408204.608,8,400,,,
trial,html.Screen,4_50_0,2023-09-12T22:15:23.524Z,,0,2,,3381.491999904625,response,ISIC_0058428.JPG,5,ISIC_0024808.JPG,ISIC_0024808.JPG,false,0,keypress(z),500,411586.19999980927,411586.09999990463,408198.548,408192.5,408204.608,411592.347,8,400,1,,ISIC_0058428.JPG
break,html.Screen,4_50_1,2023-09-12T22:15:23.525Z,,0,,,NaN,,,,,,false,,,,411586.59999990463,411586.39999985695,,411586.19999980927,,411592.347,8,400,,,
break_continue,html.Screen,4_50_2,2023-09-12T22:15:23.525Z,,0,,,NaN,,,,,,false,,,,411586.69999980927,411586.69999980927,,411586.59999990463,,411592.347,8,400,,,
sequence,flow.Sequence,4_50,2023-09-12T22:15:23.525Z,,0,,,3382.0919998092577,completion,,,,,false,,,,411586.7999999523,411586.69999980927,408198.548,408192.5,408204.608,411592.347,8,400,,,
trial,html.Screen,4_51_0,2023-09-12T22:15:28.710Z,,0,2,,5179.752999904624,response,ISIC_6755132.JPG,5,ISIC_0072642.JPG,ISIC_6755132.JPG,false,1,keypress(m),500,416772.2999999523,416772.09999990463,411586.275,411586.7999999523,411592.347,416773.963,8,400,2,,ISIC_0072642.JPG
break,html.Screen,4_51_1,2023-09-12T22:15:28.711Z,,0,,,NaN,,,,,,false,,,,416773.09999990463,416772.5,,416772.2999999523,,416773.963,8,400,,,
break_continue,html.Screen,4_51_2,2023-09-12T22:15:28.711Z,,0,,,NaN,,,,,,false,,,,416773.2999999523,416773.2999999523,,416773.09999990463,,416773.963,8,400,,,
sequence,flow.Sequence,4_51,2023-09-12T22:15:28.711Z,,0,,,5180.952999952307,completion,,,,,false,,,,416773.2999999523,416773.2999999523,411586.275,411586.7999999523,411592.347,416773.963,8,400,,,
trial,html.Screen,4_52_0,2023-09-12T22:15:35.724Z,,0,2,,7012.136999904644,response,ISIC_0005879.JPG,4,ISIC_7601403.JPG,ISIC_7601403.JPG,false,0,keypress(z),500,423786.19999980927,423786.09999990463,416767.872,416773.2999999523,416773.963,423791.854,8,400,3,,ISIC_0005879.JPG
break,html.Screen,4_52_1,2023-09-12T22:15:35.724Z,,0,,,NaN,,,,,,false,,,,423786.39999985695,423786.39999985695,,423786.19999980927,,423791.854,8,400,,,
break_continue,html.Screen,4_52_2,2023-09-12T22:15:35.725Z,,0,,,NaN,,,,,,false,,,,423786.5,423786.5,,423786.5,,423791.854,8,400,,,
sequence,flow.Sequence,4_52,2023-09-12T22:15:35.725Z,,0,,,7012.537000000011,completion,,,,,false,,,,423786.59999990463,423786.5,416767.872,416773.2999999523,416773.963,423791.854,8,400,,,
trial,html.Screen,4_53_0,2023-09-12T22:15:40.366Z,,0,2,,4635.945999952324,response,ISIC_0026309.JPG,4,ISIC_0423483.JPG,ISIC_0026309.JPG,false,1,keypress(m),500,428427.89999985695,428427.7999999523,423785.843,423786.59999990463,423791.854,428434.091,8,400,4,,ISIC_0423483.JPG
break,html.Screen,4_53_1,2023-09-12T22:15:40.366Z,,0,,,NaN,,,,,,false,,,,428428.2999999523,428428.19999980927,,428428,,428434.091,8,400,,,
break_continue,html.Screen,4_53_2,2023-09-12T22:15:40.366Z,,0,,,NaN,,,,,,false,,,,428428.39999985695,428428.2999999523,,428428.2999999523,,428434.091,8,400,,,
sequence,flow.Sequence,4_53,2023-09-12T22:15:40.366Z,,0,,,4636.445999952324,completion,,,,,false,,,,428428.5,428428.2999999523,423785.843,423786.59999990463,423791.854,428434.091,8,400,,,
trial,html.Screen,4_54_0,2023-09-12T22:15:44.336Z,,0,2,,3963.808999856934,response,ISIC_0029593.JPG,4,ISIC_0029026.JPG,ISIC_0029026.JPG,false,0,keypress(z),500,432398,432397.89999985695,428428.01,428428.5,428434.091,432403.631,8,400,5,,ISIC_0029593.JPG
break,html.Screen,4_54_1,2023-09-12T22:15:44.336Z,,0,,,NaN,,,,,,false,,,,432398.2999999523,432398.2999999523,,432398.09999990463,,432403.631,8,400,,,
break_continue,html.Screen,4_54_2,2023-09-12T22:15:44.336Z,,0,,,NaN,,,,,,false,,,,432398.59999990463,432398.5,,432398.39999985695,,432403.631,8,400,,,
sequence,flow.Sequence,4_54,2023-09-12T22:15:44.337Z,,0,,,3964.408999999985,completion,,,,,false,,,,432398.59999990463,432398.5,428428.01,428428.5,428434.091,432403.631,8,400,,,
trial,html.Screen,4_55_0,2023-09-12T22:15:49.492Z,,0,2,,5150.369000000006,response,ISIC_0031726.JPG,5,ISIC_0202119.JPG,ISIC_0202119.JPG,false,0,keypress(z),500,437554,437554,432397.563,432398.69999980927,432403.631,437554.939,8,400,6,,ISIC_0031726.JPG
break,html.Screen,4_55_1,2023-09-12T22:15:49.492Z,,0,,,NaN,,,,,,false,,,,437554.39999985695,437554.2999999523,,437554.19999980927,,437554.939,8,400,,,
break_continue,html.Screen,4_55_2,2023-09-12T22:15:49.493Z,,0,,,NaN,,,,,,false,,,,437554.5,437554.5,,437554.39999985695,,437554.939,8,400,,,
sequence,flow.Sequence,4_55,2023-09-12T22:15:49.493Z,,0,,,5150.869000000006,completion,,,,,false,,,,437554.59999990463,437554.5,432397.563,432398.69999980927,432403.631,437554.939,8,400,,,
trial,html.Screen,4_56_0,2023-09-12T22:15:53.912Z,,0,2,,4419.060999999987,response,ISIC_5798331.JPG,6,ISIC_0011064.JPG,ISIC_5798331.JPG,false,1,keypress(m),500,441974.09999990463,441974,437548.856,437554.69999980927,437554.939,441979.003,8,400,7,,ISIC_0011064.JPG
break,html.Screen,4_56_1,2023-09-12T22:15:53.912Z,,0,,,NaN,,,,,,false,,,,441974.39999985695,441974.2999999523,,441974.19999980927,,441979.003,8,400,,,
break_continue,html.Screen,4_56_2,2023-09-12T22:15:53.913Z,,0,,,NaN,,,,,,false,,,,441974.59999990463,441974.59999990463,,441974.5,,441979.003,8,400,,,
sequence,flow.Sequence,4_56,2023-09-12T22:15:53.913Z,,0,,,4419.6609999046195,completion,,,,,false,,,,441974.69999980927,441974.59999990463,437548.856,437554.69999980927,437554.939,441979.003,8,400,,,
trial,html.Screen,4_57_0,2023-09-12T22:15:57.644Z,,0,2,,3726.896999856923,response,ISIC_8887039.JPG,4,ISIC_0010014.JPG,ISIC_8887039.JPG,false,1,keypress(m),500,445706,445705.89999985695,441972.934,441974.69999980927,441979.003,445712.197,8,400,8,,ISIC_0010014.JPG
break,html.Screen,4_57_1,2023-09-12T22:15:57.644Z,,0,,,NaN,,,,,,false,,,,445706.39999985695,445706.2999999523,,445706,,445712.197,8,400,,,
break_continue,html.Screen,4_57_2,2023-09-12T22:15:57.644Z,,0,,,NaN,,,,,,false,,,,445706.5,445706.5,,445706.5,,445712.197,8,400,,,
sequence,flow.Sequence,4_57,2023-09-12T22:15:57.645Z,,0,,,3727.496999999974,completion,,,,,false,,,,445706.5,445706.5,441972.934,441974.69999980927,441979.003,445712.197,8,400,,,
trial,html.Screen,4_58_0,2023-09-12T22:16:01.491Z,,0,2,,3840.902999904647,response,ISIC_9525136.JPG,5,ISIC_9106966.JPG,ISIC_9525136.JPG,false,1,keypress(m),500,449553.2999999523,449553.09999990463,445706.114,445706.69999980927,445712.197,449554.452,8,400,9,,ISIC_9106966.JPG
break,html.Screen,4_58_1,2023-09-12T22:16:01.492Z,,0,,,NaN,,,,,,false,,,,449553.69999980927,449553.59999990463,,449553.39999985695,,449554.452,8,400,,,
break_continue,html.Screen,4_58_2,2023-09-12T22:16:01.492Z,,0,,,NaN,,,,,,false,,,,449553.7999999523,449553.7999999523,,449553.69999980927,,449554.452,8,400,,,
sequence,flow.Sequence,4_58,2023-09-12T22:16:01.492Z,,0,,,3841.6029999523307,completion,,,,,false,,,,449553.89999985695,449553.7999999523,445706.114,445706.59999990463,445712.197,449554.452,8,400,,,
trial,html.Screen,4_59_0,2023-09-12T22:16:05.159Z,,0,2,,3666.04800000001,response,ISIC_0032645.JPG,5,ISIC_4332846.JPG,ISIC_4332846.JPG,false,0,keypress(z),500,453220.59999990463,453220.5,449548.372,449554,449554.452,453220.972,8,400,10,,ISIC_0032645.JPG
break,html.Screen,4_59_1,2023-09-12T22:16:05.159Z,,0,,,NaN,,,,,,false,,,,453221,453220.89999985695,,453220.69999980927,,453220.972,8,400,,,
break_continue,html.Screen,4_59_2,2023-09-12T22:16:05.159Z,,0,,,NaN,,,,,,false,,,,453221.09999990463,453221,,453221,,453220.972,8,400,,,
sequence,flow.Sequence,4_59,2023-09-12T22:16:05.159Z,,0,,,3666.54800000001,completion,,,,,false,,,,453221.19999980927,453221,449548.372,449554,449554.452,453220.972,8,400,,,
trial,html.Screen,4_60_0,2023-09-12T22:16:08.985Z,,0,2,,3825.8279999523074,response,ISIC_4208361.JPG,5,ISIC_0011097.JPG,ISIC_0011097.JPG,false,0,keypress(z),500,457047,457046.7999999523,453214.898,453221.19999980927,453220.972,457051.134,8,400,11,,ISIC_4208361.JPG
break,html.Screen,4_60_1,2023-09-12T22:16:08.985Z,,0,,,NaN,,,,,,false,,,,457047.2999999523,457047.19999980927,,457047.09999990463,,457051.134,8,400,,,
break_continue,html.Screen,4_60_2,2023-09-12T22:16:08.985Z,,0,,,NaN,,,,,,false,,,,457047.39999985695,457047.39999985695,,457047.2999999523,,457051.134,8,400,,,
sequence,flow.Sequence,4_60,2023-09-12T22:16:08.985Z,,0,,,3826.42799985694,completion,,,,,false,,,,457047.5,457047.39999985695,453214.898,453221.19999980927,453220.972,457051.134,8,400,,,
trial,html.Screen,4_61_0,2023-09-12T22:16:12.748Z,,0,2,,3759.265999856929,response,ISIC_9826778.JPG,4,ISIC_0032928.JPG,ISIC_9826778.JPG,false,1,keypress(m),500,460810.5,460810.39999985695,457045.049,457047.5,457051.134,460814.605,8,400,12,,ISIC_0032928.JPG
break,html.Screen,4_61_1,2023-09-12T22:16:12.749Z,,0,,,NaN,,,,,,false,,,,460810.89999985695,460810.89999985695,,460810.59999990463,,460814.605,8,400,,,
break_continue,html.Screen,4_61_2,2023-09-12T22:16:12.749Z,,0,,,NaN,,,,,,false,,,,460811.09999990463,460811,,460810.89999985695,,460814.605,8,400,,,
sequence,flow.Sequence,4_61,2023-09-12T22:16:12.749Z,,0,,,3759.86599999998,completion,,,,,false,,,,460811.09999990463,460811,457045.049,457047.5,457051.134,460814.605,8,400,,,
trial,html.Screen,4_62_0,2023-09-12T22:16:15.470Z,,0,2,,2717.494999904651,response,ISIC_8887039.JPG,5,ISIC_0064669.JPG,ISIC_8887039.JPG,false,1,keypress(m),500,463532.09999990463,463532.09999990463,460808.535,460811.09999990463,460814.605,463535.706,8,400,13,,ISIC_0064669.JPG
break,html.Screen,4_62_1,2023-09-12T22:16:15.470Z,,0,,,NaN,,,,,,false,,,,463532.59999990463,463532.39999985695,,463532.2999999523,,463535.706,8,400,,,
break_continue,html.Screen,4_62_2,2023-09-12T22:16:15.471Z,,0,,,NaN,,,,,,false,,,,463532.69999980927,463532.59999990463,,463532.59999990463,,463535.706,8,400,,,
sequence,flow.Sequence,4_62,2023-09-12T22:16:15.471Z,,0,,,2717.994999904651,completion,,,,,false,,,,463532.69999980927,463532.59999990463,460808.535,460811.09999990463,460814.605,463535.706,8,400,,,
trial,html.Screen,4_63_0,2023-09-12T22:16:18.193Z,,0,2,,2719.5939999523107,response,ISIC_0055498.JPG,5,ISIC_5230371.JPG,ISIC_5230371.JPG,false,0,keypress(z),500,466255.39999985695,466255.2999999523,463529.634,463532.7999999523,463535.706,466256.812,8,400,14,,ISIC_0055498.JPG
break,html.Screen,4_63_1,2023-09-12T22:16:18.194Z,,0,,,NaN,,,,,,false,,,,466255.7999999523,466255.69999980927,,466255.5,,466256.812,8,400,,,
break_continue,html.Screen,4_63_2,2023-09-12T22:16:18.194Z,,0,,,NaN,,,,,,false,,,,466256,466255.89999985695,,466255.7999999523,,466256.812,8,400,,,
sequence,flow.Sequence,4_63,2023-09-12T22:16:18.194Z,,0,,,2720.1939998569433,completion,,,,,false,,,,466256,466255.89999985695,463529.634,463532.7999999523,463535.706,466256.812,8,400,,,
trial,html.Screen,4_64_0,2023-09-12T22:16:21.250Z,,0,2,,3055.5879998569726,response,ISIC_0032955.JPG,5,ISIC_7203184.JPG,ISIC_7203184.JPG,false,0,keypress(z),500,469312.39999985695,469312.39999985695,466250.748,466256,466256.812,469317.307,8,400,15,,ISIC_0032955.JPG
break,html.Screen,4_64_1,2023-09-12T22:16:21.251Z,,0,,,NaN,,,,,,false,,,,469312.69999980927,469312.69999980927,,469312.5,,469317.307,8,400,,,
break_continue,html.Screen,4_64_2,2023-09-12T22:16:21.251Z,,0,,,NaN,,,,,,false,,,,469312.89999985695,469312.7999999523,,469312.69999980927,,469317.307,8,400,,,
sequence,flow.Sequence,4_64,2023-09-12T22:16:21.251Z,,0,,,3055.98799995234,completion,,,,,false,,,,469312.89999985695,469312.7999999523,466250.748,466256,466256.812,469317.307,8,400,,,
trial,html.Screen,4_65_0,2023-09-12T22:16:24.938Z,,0,2,,3682.9929999523447,response,ISIC_0030754.JPG,4,ISIC_0000547.JPG,ISIC_0000547.JPG,false,0,keypress(z),500,473000.5,473000.2999999523,469311.221,469312.89999985695,469317.307,473002.005,8,400,16,,ISIC_0030754.JPG
break,html.Screen,4_65_1,2023-09-12T22:16:24.939Z,,0,,,NaN,,,,,,false,,,,473000.7999999523,473000.69999980927,,473000.5,,473002.005,8,400,,,
break_continue,html.Screen,4_65_2,2023-09-12T22:16:24.939Z,,0,,,NaN,,,,,,false,,,,473000.89999985695,473000.89999985695,,473000.7999999523,,473002.005,8,400,,,
sequence,flow.Sequence,4_65,2023-09-12T22:16:24.939Z,,0,,,3683.5929998569773,completion,,,,,false,,,,473001.09999990463,473000.89999985695,469311.221,469312.89999985695,469317.307,473002.005,8,400,,,
trial,html.Screen,4_66_0,2023-09-12T22:16:28.348Z,,0,2,,3407.6949998092605,response,ISIC_0056723.JPG,5,ISIC_5111521.JPG,ISIC_5111521.JPG,false,0,keypress(z),500,476409.89999985695,476409.69999980927,472995.924,473001.09999990463,473002.005,476413.979,8,400,17,,ISIC_0056723.JPG
break,html.Screen,4_66_1,2023-09-12T22:16:28.348Z,,0,,,NaN,,,,,,false,,,,476410.19999980927,476410.19999980927,,476409.89999985695,,476413.979,8,400,,,
break_continue,html.Screen,4_66_2,2023-09-12T22:16:28.348Z,,0,,,NaN,,,,,,false,,,,476410.2999999523,476410.2999999523,,476410.2999999523,,476413.979,8,400,,,
sequence,flow.Sequence,4_66,2023-09-12T22:16:28.348Z,,0,,,3408.2949999523116,completion,,,,,false,,,,476410.39999985695,476410.2999999523,472995.924,473001.09999990463,473002.005,476413.979,8,400,,,
trial,html.Screen,4_67_0,2023-09-12T22:16:32.077Z,,0,2,,3724.820999952324,response,ISIC_4730433.JPG,5,ISIC_6828587.JPG,ISIC_4730433.JPG,false,1,keypress(m),500,480139,480138.7999999523,476407.911,476410.39999985695,476413.979,480141.111,8,400,18,,ISIC_6828587.JPG
break,html.Screen,4_67_1,2023-09-12T22:16:32.077Z,,0,,,NaN,,,,,,false,,,,480139.39999985695,480139.2999999523,,480139.09999990463,,480141.111,8,400,,,
break_continue,html.Screen,4_67_2,2023-09-12T22:16:32.077Z,,0,,,NaN,,,,,,false,,,,480139.39999985695,480139.39999985695,,480139.39999985695,,480141.111,8,400,,,
sequence,flow.Sequence,4_67,2023-09-12T22:16:32.077Z,,0,,,3725.4209998569568,completion,,,,,false,,,,480139.5,480139.39999985695,476407.911,476410.39999985695,476413.979,480141.111,8,400,,,
trial,html.Screen,4_68_0,2023-09-12T22:16:35.055Z,,0,2,,2975.688999952341,response,ISIC_2922104.JPG,5,ISIC_0485996.JPG,ISIC_2922104.JPG,false,1,keypress(m),500,483116.89999985695,483116.7999999523,480135.037,480139.5,480141.111,483122.805,8,400,19,,ISIC_0485996.JPG
break,html.Screen,4_68_1,2023-09-12T22:16:35.055Z,,0,,,NaN,,,,,,false,,,,483117.19999980927,483117.19999980927,,483116.89999985695,,483122.805,8,400,,,
break_continue,html.Screen,4_68_2,2023-09-12T22:16:35.055Z,,0,,,NaN,,,,,,false,,,,483117.39999985695,483117.2999999523,,483117.19999980927,,483122.805,8,400,,,
sequence,flow.Sequence,4_68,2023-09-12T22:16:35.055Z,,0,,,2976.188999952341,completion,,,,,false,,,,483117.39999985695,483117.2999999523,480135.037,480139.5,480141.111,483122.805,8,400,,,
trial,html.Screen,4_69_0,2023-09-12T22:16:38.182Z,,0,2,,3120.9949999523233,response,ISIC_2465895.JPG,4,ISIC_0056501.JPG,ISIC_2465895.JPG,false,1,keypress(m),500,486243.89999985695,486243.7999999523,483116.734,483117.5,483122.805,486249.96,8,400,20,,ISIC_0056501.JPG
break,html.Screen,4_69_1,2023-09-12T22:16:38.182Z,,0,,,NaN,,,,,,false,,,,486244.19999980927,486244.19999980927,,486243.89999985695,,486249.96,8,400,,,
break_continue,html.Screen,4_69_2,2023-09-12T22:16:38.182Z,,0,,,NaN,,,,,,false,,,,486244.2999999523,486244.2999999523,,486244.2999999523,,486249.96,8,400,,,
sequence,flow.Sequence,4_69,2023-09-12T22:16:38.182Z,,0,,,3121.4949999523233,completion,,,,,false,,,,486244.39999985695,486244.2999999523,483116.734,483117.39999985695,483122.805,486249.96,8,400,,,
trial,html.Screen,4_70_0,2023-09-12T22:16:41.209Z,,0,2,,3020.6399999046116,response,ISIC_7693995.JPG,5,ISIC_4756979.JPG,ISIC_4756979.JPG,false,0,keypress(z),500,489270.7999999523,489270.59999990463,486243.897,486244.39999985695,486249.96,489274.082,8,400,21,,ISIC_7693995.JPG
break,html.Screen,4_70_1,2023-09-12T22:16:41.209Z,,0,,,NaN,,,,,,false,,,,489271.19999980927,489271,,489270.7999999523,,489274.082,8,400,,,
break_continue,html.Screen,4_70_2,2023-09-12T22:16:41.209Z,,0,,,NaN,,,,,,false,,,,489271.19999980927,489271.19999980927,,489271.19999980927,,489274.082,8,400,,,
sequence,flow.Sequence,4_70,2023-09-12T22:16:41.209Z,,0,,,3021.239999809244,completion,,,,,false,,,,489271.2999999523,489271.19999980927,486243.897,486244.39999985695,486249.96,489274.082,8,400,,,
trial,html.Screen,4_71_0,2023-09-12T22:16:44.908Z,,0,2,,3695.7179999523214,response,ISIC_0000145.JPG,5,ISIC_7424320.JPG,ISIC_7424320.JPG,false,0,keypress(z),500,492969.7999999523,492969.7999999523,489267.982,489271.2999999523,489274.082,492976.951,8,400,22,,ISIC_0000145.JPG
break,html.Screen,4_71_1,2023-09-12T22:16:44.908Z,,0,,,NaN,,,,,,false,,,,492970.19999980927,492970.09999990463,,492969.89999985695,,492976.951,8,400,,,
break_continue,html.Screen,4_71_2,2023-09-12T22:16:44.908Z,,0,,,NaN,,,,,,false,,,,492970.39999985695,492970.39999985695,,492970.19999980927,,492976.951,8,400,,,
sequence,flow.Sequence,4_71,2023-09-12T22:16:44.908Z,,0,,,3696.317999856954,completion,,,,,false,,,,492970.39999985695,492970.39999985695,489267.982,489271.2999999523,489274.082,492976.951,8,400,,,
trial,html.Screen,4_72_0,2023-09-12T22:16:47.859Z,,0,2,,2943.548999999999,response,ISIC_0068727.JPG,5,ISIC_5641619.JPG,ISIC_5641619.JPG,false,0,keypress(z),500,495920.69999980927,495920.5,492970.892,492970.39999985695,492976.951,495922.29,8,400,23,,ISIC_0068727.JPG
break,html.Screen,4_72_1,2023-09-12T22:16:47.859Z,,0,,,NaN,,,,,,false,,,,495921,495921,,495920.69999980927,,495922.29,8,400,,,
break_continue,html.Screen,4_72_2,2023-09-12T22:16:47.859Z,,0,,,NaN,,,,,,false,,,,495921.19999980927,495921.09999990463,,495921,,495922.29,8,400,,,
sequence,flow.Sequence,4_72,2023-09-12T22:16:47.859Z,,0,,,2944.1489999046316,completion,,,,,false,,,,495921.2999999523,495921.09999990463,492970.892,492970.39999985695,492976.951,495922.29,8,400,,,
trial,html.Screen,4_73_0,2023-09-12T22:16:52.728Z,,0,2,,4867.60999985697,response,ISIC_8671119.JPG,5,ISIC_4255013.JPG,ISIC_8671119.JPG,false,1,keypress(m),500,500790.09999990463,500789.89999985695,495916.207,495921.2999999523,495922.29,500794.825,8,400,24,,ISIC_4255013.JPG
break,html.Screen,4_73_1,2023-09-12T22:16:52.728Z,,0,,,NaN,,,,,,false,,,,500790.39999985695,500790.39999985695,,500790.19999980927,,500794.825,8,400,,,
break_continue,html.Screen,4_73_2,2023-09-12T22:16:52.729Z,,0,,,NaN,,,,,,false,,,,500790.5,500790.5,,500790.5,,500794.825,8,400,,,
sequence,flow.Sequence,4_73,2023-09-12T22:16:52.729Z,,0,,,4868.210000000021,completion,,,,,false,,,,500790.59999990463,500790.5,495916.207,495921.2999999523,495922.29,500794.825,8,400,,,
trial,html.Screen,4_74_0,2023-09-12T22:16:56.641Z,,0,2,,3907.6749999999884,response,ISIC_0568867.JPG,5,ISIC_0443835.JPG,ISIC_0443835.JPG,false,0,keypress(z),500,504702.59999990463,504702.5,500788.738,500790.59999990463,500794.825,504703.76,8,400,25,,ISIC_0568867.JPG
break,html.Screen,4_74_1,2023-09-12T22:16:56.641Z,,0,,,NaN,,,,,,false,,,,504703.09999990463,504702.89999985695,,504702.69999980927,,504703.76,8,400,,,
break_continue,html.Screen,4_74_2,2023-09-12T22:16:56.641Z,,0,,,NaN,,,,,,false,,,,504703.09999990463,504703.09999990463,,504703.09999990463,,504703.76,8,400,,,
sequence,flow.Sequence,4_74,2023-09-12T22:16:56.641Z,,0,,,3908.274999904621,completion,,,,,false,,,,504703.19999980927,504703.09999990463,500788.738,500790.59999990463,500794.825,504703.76,8,400,,,
trial,html.Screen,4_75_0,2023-09-12T22:17:00.098Z,,0,2,,3456.1399998569395,response,ISIC_7664137.JPG,6,ISIC_4950467.JPG,ISIC_7664137.JPG,false,1,keypress(m),500,508160,508159.89999985695,504697.682,504703.19999980927,504703.76,508164.227,8,400,26,,ISIC_4950467.JPG
break,html.Screen,4_75_1,2023-09-12T22:17:00.098Z,,0,,,NaN,,,,,,false,,,,508160.39999985695,508160.2999999523,,508160.09999990463,,508164.227,8,400,,,
break_continue,html.Screen,4_75_2,2023-09-12T22:17:00.098Z,,0,,,NaN,,,,,,false,,,,508160.5,508160.5,,508160.5,,508164.227,8,400,,,
sequence,flow.Sequence,4_75,2023-09-12T22:17:00.099Z,,0,,,3456.7399999999907,completion,,,,,false,,,,508160.59999990463,508160.5,504697.682,504703.19999980927,504703.76,508164.227,8,400,,,
trial,html.Screen,4_76_0,2023-09-12T22:17:05.171Z,,0,2,,5068.672999856935,response,ISIC_0001119.JPG,4,ISIC_0001596.JPG,ISIC_0001596.JPG,false,0,keypress(z),500,513233,513232.89999985695,508158.142,508160.59999990463,508164.227,513236.746,8,400,27,,ISIC_0001119.JPG
break,html.Screen,4_76_1,2023-09-12T22:17:05.171Z,,0,,,NaN,,,,,,false,,,,513233.39999985695,513233.2999999523,,513233.09999990463,,513236.746,8,400,,,
break_continue,html.Screen,4_76_2,2023-09-12T22:17:05.171Z,,0,,,NaN,,,,,,false,,,,513233.59999990463,513233.5,,513233.39999985695,,513236.746,8,400,,,
sequence,flow.Sequence,4_76,2023-09-12T22:17:05.172Z,,0,,,5069.2729999999865,completion,,,,,false,,,,513233.59999990463,513233.5,508158.142,508160.59999990463,508164.227,513236.746,8,400,,,
trial,html.Screen,4_77_0,2023-09-12T22:17:08.708Z,,0,2,,3533.653999856964,response,ISIC_6672654.JPG,5,ISIC_8447658.JPG,ISIC_8447658.JPG,false,0,keypress(z),500,516770.5,516770.39999985695,513230.673,513233.59999990463,513236.746,516776.001,8,400,28,,ISIC_6672654.JPG
break,html.Screen,4_77_1,2023-09-12T22:17:08.709Z,,0,,,NaN,,,,,,false,,,,516770.7999999523,516770.7999999523,,516770.5,,516776.001,8,400,,,
break_continue,html.Screen,4_77_2,2023-09-12T22:17:08.709Z,,0,,,NaN,,,,,,false,,,,516771,516771,,516770.89999985695,,516776.001,8,400,,,
sequence,flow.Sequence,4_77,2023-09-12T22:17:08.709Z,,0,,,3534.2540000000154,completion,,,,,false,,,,516771,516771,513230.673,513233.59999990463,513236.746,516776.001,8,400,,,
trial,html.Screen,4_78_0,2023-09-12T22:17:12.861Z,,0,2,,4147.499000000011,response,ISIC_1431777.JPG,5,ISIC_0067597.JPG,ISIC_1431777.JPG,false,1,keypress(m),500,520923.59999990463,520923.5,516769.911,516771,516776.001,520927.336,8,400,29,,ISIC_0067597.JPG
break,html.Screen,4_78_1,2023-09-12T22:17:12.862Z,,0,,,NaN,,,,,,false,,,,520923.89999985695,520923.7999999523,,520923.69999980927,,520927.336,8,400,,,
break_continue,html.Screen,4_78_2,2023-09-12T22:17:12.862Z,,0,,,NaN,,,,,,false,,,,520924.09999990463,520924.09999990463,,520923.89999985695,,520927.336,8,400,,,
sequence,flow.Sequence,4_78,2023-09-12T22:17:12.862Z,,0,,,4148.098999904643,completion,,,,,false,,,,520924.09999990463,520924.09999990463,516769.911,516771,516776.001,520927.336,8,400,,,
trial,html.Screen,4_79_0,2023-09-12T22:17:18.337Z,,0,2,,5471.263999904622,response,ISIC_1962844.JPG,5,ISIC_0013651.JPG,ISIC_1962844.JPG,false,1,keypress(m),500,526398.6999998093,526398.5999999046,520921.268,520924.19999980927,520927.336,526399.853,8,400,30,,ISIC_0013651.JPG
break,html.Screen,4_79_1,2023-09-12T22:17:18.337Z,,0,,,NaN,,,,,,false,,,,526399.0999999046,526398.899999857,,526398.7999999523,,526399.853,8,400,,,
break_continue,html.Screen,4_79_2,2023-09-12T22:17:18.337Z,,0,,,NaN,,,,,,false,,,,526399.1999998093,526399.1999998093,,526399.0999999046,,526399.853,8,400,,,
sequence,flow.Sequence,4_79,2023-09-12T22:17:18.337Z,,0,,,5471.863999809255,completion,,,,,false,,,,526399.1999998093,526399.1999998093,520921.268,520924.09999990463,520927.336,526399.853,8,400,,,
trial,html.Screen,4_80_0,2023-09-12T22:17:22.521Z,,0,2,,4182.9469999523135,response,ISIC_0663941.JPG,5,ISIC_7919133.JPG,ISIC_0663941.JPG,false,1,keypress(m),500,530583,530582.7999999523,526393.773,526399.2999999523,526399.853,530587.558,8,400,31,,ISIC_7919133.JPG
break,html.Screen,4_80_1,2023-09-12T22:17:22.521Z,,0,,,NaN,,,,,,false,,,,530583.2999999523,530583.1999998093,,530583,,530587.558,8,400,,,
break_continue,html.Screen,4_80_2,2023-09-12T22:17:22.521Z,,0,,,NaN,,,,,,false,,,,530583.399999857,530583.399999857,,530583.399999857,,530587.558,8,400,,,
sequence,flow.Sequence,4_80,2023-09-12T22:17:22.521Z,,0,,,4183.546999856946,completion,,,,,false,,,,530583.399999857,530583.399999857,526393.773,526399.2999999523,526399.853,530587.558,8,400,,,
trial,html.Screen,4_81_0,2023-09-12T22:17:25.946Z,,0,2,,3420.7419999523554,response,ISIC_3148886.JPG,5,ISIC_0013740.JPG,ISIC_3148886.JPG,false,1,keypress(m),500,534008.5,534008.2999999523,530581.481,530583.5,530587.558,534011.671,8,400,32,,ISIC_0013740.JPG
break,html.Screen,4_81_1,2023-09-12T22:17:25.947Z,,0,,,NaN,,,,,,false,,,,534008.7999999523,534008.6999998093,,534008.5,,534011.671,8,400,,,
break_continue,html.Screen,4_81_2,2023-09-12T22:17:25.947Z,,0,,,NaN,,,,,,false,,,,534008.899999857,534008.899999857,,534008.7999999523,,534011.671,8,400,,,
sequence,flow.Sequence,4_81,2023-09-12T22:17:25.947Z,,0,,,3421.341999856988,completion,,,,,false,,,,534008.899999857,534008.899999857,530581.481,530583.5,530587.558,534011.671,8,400,,,
trial,html.Screen,4_82_0,2023-09-12T22:17:28.940Z,,0,2,,2990.829000000027,response,ISIC_5240648.JPG,4,ISIC_0064932.JPG,ISIC_5240648.JPG,false,1,keypress(m),500,537002.5,537002.5,534005.586,534008.899999857,534011.671,537005.483,8,400,33,,ISIC_0064932.JPG
break,html.Screen,4_82_1,2023-09-12T22:17:28.941Z,,0,,,NaN,,,,,,false,,,,537002.899999857,537002.7999999523,,537002.5999999046,,537005.483,8,400,,,
break_continue,html.Screen,4_82_2,2023-09-12T22:17:28.941Z,,0,,,NaN,,,,,,false,,,,537003,537003,,537002.899999857,,537005.483,8,400,,,
sequence,flow.Sequence,4_82,2023-09-12T22:17:28.941Z,,0,,,2991.329000000027,completion,,,,,false,,,,537003.0999999046,537003,534005.586,534008.899999857,534011.671,537005.483,8,400,,,
trial,html.Screen,4_83_0,2023-09-12T22:17:34.654Z,,0,2,,5710.116999904625,response,ISIC_0028248.JPG,5,ISIC_1937197.JPG,ISIC_0028248.JPG,false,1,keypress(m),500,542715.7999999523,542715.5999999046,536999.401,537003.0999999046,537005.483,542720.401,8,400,34,,ISIC_1937197.JPG
break,html.Screen,4_83_1,2023-09-12T22:17:34.654Z,,0,,,NaN,,,,,,false,,,,542716.399999857,542716,,542715.7999999523,,542720.401,8,400,,,
break_continue,html.Screen,4_83_2,2023-09-12T22:17:34.655Z,,0,,,NaN,,,,,,false,,,,542716.6999998093,542716.5999999046,,542716.5,,542720.401,8,400,,,
sequence,flow.Sequence,4_83,2023-09-12T22:17:34.655Z,,0,,,5711.116999904625,completion,,,,,false,,,,542716.6999998093,542716.5999999046,536999.401,537003.0999999046,537005.483,542720.401,8,400,,,
trial,html.Screen,4_84_0,2023-09-12T22:17:40.656Z,,0,2,,5997.599000000046,response,ISIC_0056110.JPG,4,ISIC_5315125.JPG,ISIC_0056110.JPG,false,1,keypress(m),500,548718.0999999046,548718,542714.326,542716.6999998093,542720.401,548720.166,8,400,35,,ISIC_5315125.JPG
break,html.Screen,4_84_1,2023-09-12T22:17:40.656Z,,0,,,NaN,,,,,,false,,,,548718.399999857,548718.399999857,,548718.0999999046,,548720.166,8,400,,,
break_continue,html.Screen,4_84_2,2023-09-12T22:17:40.657Z,,0,,,NaN,,,,,,false,,,,548718.5999999046,548718.5,,548718.399999857,,548720.166,8,400,,,
sequence,flow.Sequence,4_84,2023-09-12T22:17:40.657Z,,0,,,5998.099000000046,completion,,,,,false,,,,548718.5999999046,548718.5,542714.326,542716.6999998093,542720.401,548720.166,8,400,,,
trial,html.Screen,4_85_0,2023-09-12T22:17:46.753Z,,0,2,,6095.2339998569805,response,ISIC_0000146.JPG,5,ISIC_0031070.JPG,ISIC_0031070.JPG,false,0,keypress(z),500,554815.5,554815.399999857,548714.084,548718.5999999046,548720.166,554816.894,8,400,36,,ISIC_0000146.JPG
break,html.Screen,4_85_1,2023-09-12T22:17:46.754Z,,0,,,NaN,,,,,,false,,,,554815.899999857,554815.7999999523,,554815.5999999046,,554816.894,8,400,,,
break_continue,html.Screen,4_85_2,2023-09-12T22:17:46.754Z,,0,,,NaN,,,,,,false,,,,554816,554815.899999857,,554815.899999857,,554816.894,8,400,,,
sequence,flow.Sequence,4_85,2023-09-12T22:17:46.754Z,,0,,,6095.7339998569805,completion,,,,,false,,,,554816.0999999046,554815.899999857,548714.084,548718.5999999046,548720.166,554816.894,8,400,,,
trial,html.Screen,4_86_0,2023-09-12T22:17:52.756Z,,0,2,,6000.705999904661,response,ISIC_1117369.JPG,5,ISIC_4541530.JPG,ISIC_4541530.JPG,false,0,keypress(z),500,560817.6999998093,560817.5999999046,554810.815,554816.0999999046,554816.894,560822.711,8,400,37,,ISIC_1117369.JPG
break,html.Screen,4_86_1,2023-09-12T22:17:52.756Z,,0,,,NaN,,,,,,false,,,,560818.0999999046,560818,,560817.7999999523,,560822.711,8,400,,,
break_continue,html.Screen,4_86_2,2023-09-12T22:17:52.756Z,,0,,,NaN,,,,,,false,,,,560818.1999998093,560818.0999999046,,560818.0999999046,,560822.711,8,400,,,
sequence,flow.Sequence,4_86,2023-09-12T22:17:52.756Z,,0,,,6001.205999904661,completion,,,,,false,,,,560818.1999998093,560818.0999999046,554810.815,554816.0999999046,554816.894,560822.711,8,400,,,
trial,html.Screen,4_87_0,2023-09-12T22:17:56.807Z,,0,2,,4046.1889998569386,response,ISIC_8588957.JPG,5,ISIC_0009230.JPG,ISIC_0009230.JPG,false,0,keypress(z),500,564869,564868.899999857,560816.631,560818.2999999523,560822.711,564871.038,8,400,38,,ISIC_8588957.JPG
break,html.Screen,4_87_1,2023-09-12T22:17:56.807Z,,0,,,NaN,,,,,,false,,,,564869.399999857,564869.2999999523,,564869.0999999046,,564871.038,8,400,,,
break_continue,html.Screen,4_87_2,2023-09-12T22:17:56.807Z,,0,,,NaN,,,,,,false,,,,564869.5,564869.399999857,,564869.399999857,,564871.038,8,400,,,
sequence,flow.Sequence,4_87,2023-09-12T22:17:56.807Z,,0,,,4046.6889998569386,completion,,,,,false,,,,564869.5999999046,564869.399999857,560816.631,560818.2999999523,560822.711,564871.038,8,400,,,
trial,html.Screen,4_88_0,2023-09-12T22:18:00.969Z,,0,2,,4159.661999809323,response,ISIC_0029453.JPG,5,ISIC_7137995.JPG,ISIC_7137995.JPG,false,0,keypress(z),500,569030.6999998093,569030.6999998093,564864.982,564869.5999999046,564871.038,569034.502,8,400,39,,ISIC_0029453.JPG
break,html.Screen,4_88_1,2023-09-12T22:18:00.969Z,,0,,,NaN,,,,,,false,,,,569031.0999999046,569031,,569030.7999999523,,569034.502,8,400,,,
break_continue,html.Screen,4_88_2,2023-09-12T22:18:00.969Z,,0,,,NaN,,,,,,false,,,,569031.1999998093,569031.1999998093,,569031.0999999046,,569034.502,8,400,,,
sequence,flow.Sequence,4_88,2023-09-12T22:18:00.969Z,,0,,,4160.161999809323,completion,,,,,false,,,,569031.1999998093,569031.1999998093,564864.982,564869.5999999046,564871.038,569034.502,8,400,,,
trial,html.Screen,4_89_0,2023-09-12T22:18:04.543Z,,0,2,,3570.8979998569703,response,ISIC_0025169.JPG,5,ISIC_2519121.JPG,ISIC_2519121.JPG,false,0,keypress(z),500,572605.5,572605.399999857,569028.428,569031.2999999523,569034.502,572610.119,8,400,40,,ISIC_0025169.JPG
break,html.Screen,4_89_1,2023-09-12T22:18:04.544Z,,0,,,NaN,,,,,,false,,,,572605.899999857,572605.7999999523,,572605.5999999046,,572610.119,8,400,,,
break_continue,html.Screen,4_89_2,2023-09-12T22:18:04.544Z,,0,,,NaN,,,,,,false,,,,572606,572606,,572605.899999857,,572610.119,8,400,,,
sequence,flow.Sequence,4_89,2023-09-12T22:18:04.544Z,,0,,,3571.4980000000214,completion,,,,,false,,,,572606,572606,569028.428,569031.2999999523,569034.502,572610.119,8,400,,,
trial,html.Screen,4_90_0,2023-09-12T22:18:08.776Z,,0,2,,4227.680999952368,response,ISIC_0026730.JPG,5,ISIC_1819358.JPG,ISIC_1819358.JPG,false,0,keypress(z),500,576838,576837.7999999523,572604.038,572606.0999999046,572610.119,576840.249,8,400,41,,ISIC_0026730.JPG
break,html.Screen,4_90_1,2023-09-12T22:18:08.776Z,,0,,,NaN,,,,,,false,,,,576838.2999999523,576838.1999998093,,576838,,576840.249,8,400,,,
break_continue,html.Screen,4_90_2,2023-09-12T22:18:08.776Z,,0,,,NaN,,,,,,false,,,,576838.5,576838.399999857,,576838.399999857,,576840.249,8,400,,,
sequence,flow.Sequence,4_90,2023-09-12T22:18:08.776Z,,0,,,4228.280999857001,completion,,,,,false,,,,576838.5,576838.399999857,572604.038,572606.0999999046,572610.119,576840.249,8,400,,,
trial,html.Screen,4_91_0,2023-09-12T22:18:12.444Z,,0,2,,3665.35099990468,response,ISIC_2526170.JPG,4,ISIC_0029092.JPG,ISIC_2526170.JPG,false,1,keypress(m),500,580505.6999998093,580505.5999999046,576834.175,576838.5999999046,576840.249,580506.763,8,400,42,,ISIC_0029092.JPG
break,html.Screen,4_91_1,2023-09-12T22:18:12.444Z,,0,,,NaN,,,,,,false,,,,580506.0999999046,580505.899999857,,580505.7999999523,,580506.763,8,400,,,
break_continue,html.Screen,4_91_2,2023-09-12T22:18:12.444Z,,0,,,NaN,,,,,,false,,,,580506.1999998093,580506.0999999046,,580506.0999999046,,580506.763,8,400,,,
sequence,flow.Sequence,4_91,2023-09-12T22:18:12.444Z,,0,,,3665.85099990468,completion,,,,,false,,,,580506.1999998093,580506.0999999046,576834.175,576838.5999999046,576840.249,580506.763,8,400,,,
trial,html.Screen,4_92_0,2023-09-12T22:18:15.743Z,,0,2,,3298.6369998569135,response,ISIC_0031363.JPG,5,ISIC_0011380.JPG,ISIC_0031363.JPG,false,1,keypress(m),500,583805.5,583805.399999857,580500.685,580506.2999999523,580506.763,583809.67,8,400,43,,ISIC_0011380.JPG
break,html.Screen,4_92_1,2023-09-12T22:18:15.744Z,,0,,,NaN,,,,,,false,,,,583805.7999999523,583805.7999999523,,583805.5999999046,,583809.67,8,400,,,
break_continue,html.Screen,4_92_2,2023-09-12T22:18:15.744Z,,0,,,NaN,,,,,,false,,,,583806,583806,,583805.899999857,,583809.67,8,400,,,
sequence,flow.Sequence,4_92,2023-09-12T22:18:15.744Z,,0,,,3299.2369999999646,completion,,,,,false,,,,583806,583806,580500.685,580506.2999999523,580506.763,583809.67,8,400,,,
trial,html.Screen,4_93_0,2023-09-12T22:18:19.826Z,,0,2,,4077.829999999958,response,ISIC_7004652.JPG,6,ISIC_4322954.JPG,ISIC_7004652.JPG,false,1,keypress(m),500,587887.5999999046,587887.5,583803.58,583806,583809.67,587888.296,8,400,44,,ISIC_4322954.JPG
break,html.Screen,4_93_1,2023-09-12T22:18:19.826Z,,0,,,NaN,,,,,,false,,,,587888,587888,,587887.7999999523,,587888.296,8,400,,,
break_continue,html.Screen,4_93_2,2023-09-12T22:18:19.826Z,,0,,,NaN,,,,,,false,,,,587888.1999998093,587888.1999998093,,587888,,587888.296,8,400,,,
sequence,flow.Sequence,4_93,2023-09-12T22:18:19.826Z,,0,,,4078.529999809223,completion,,,,,false,,,,587888.1999998093,587888.1999998093,583803.58,583806,583809.67,587888.296,8,400,,,
trial,html.Screen,4_94_0,2023-09-12T22:18:24.404Z,,0,2,,4577.204000000027,response,ISIC_3985031.JPG,5,ISIC_1818238.JPG,ISIC_3985031.JPG,false,1,keypress(m),500,592465.7999999523,592465.5,587882.215,587888.2999999523,587888.296,592469.916,8,400,45,,ISIC_1818238.JPG
break,html.Screen,4_94_1,2023-09-12T22:18:24.404Z,,0,,,NaN,,,,,,false,,,,592466.0999999046,592466,,592465.7999999523,,592469.916,8,400,,,
break_continue,html.Screen,4_94_2,2023-09-12T22:18:24.404Z,,0,,,NaN,,,,,,false,,,,592466.2999999523,592466.1999998093,,592466.0999999046,,592469.916,8,400,,,
sequence,flow.Sequence,4_94,2023-09-12T22:18:24.404Z,,0,,,4577.903999809292,completion,,,,,false,,,,592466.2999999523,592466.1999998093,587882.215,587888.1999998093,587888.296,592469.916,8,400,,,
trial,html.Screen,4_95_0,2023-09-12T22:18:27.621Z,,0,2,,3213.4839998569805,response,ISIC_0061188.JPG,5,ISIC_5673859.JPG,ISIC_5673859.JPG,false,0,keypress(z),500,595683.5,595683.399999857,592463.838,592466.399999857,592469.916,595687.979,8,400,46,,ISIC_0061188.JPG
break,html.Screen,4_95_1,2023-09-12T22:18:27.622Z,,0,,,NaN,,,,,,false,,,,595683.7999999523,595683.7999999523,,595683.5999999046,,595687.979,8,400,,,
break_continue,html.Screen,4_95_2,2023-09-12T22:18:27.622Z,,0,,,NaN,,,,,,false,,,,595684,595683.899999857,,595683.899999857,,595687.979,8,400,,,
sequence,flow.Sequence,4_95,2023-09-12T22:18:27.622Z,,0,,,3213.9839998569805,completion,,,,,false,,,,595684.5,595683.899999857,592463.838,592466.399999857,592469.916,595687.979,8,400,,,
trial,html.Screen,4_96_0,2023-09-12T22:18:31.064Z,,0,2,,3437.820999952266,response,ISIC_5239607.JPG,5,ISIC_0012391.JPG,ISIC_5239607.JPG,false,1,keypress(m),500,599125.899999857,599125.7999999523,595681.899,595684.5999999046,595687.979,599130.265,8,400,47,,ISIC_0012391.JPG
break,html.Screen,4_96_1,2023-09-12T22:18:31.064Z,,0,,,NaN,,,,,,false,,,,599126.2999999523,599126.1999998093,,599125.899999857,,599130.265,8,400,,,
break_continue,html.Screen,4_96_2,2023-09-12T22:18:31.064Z,,0,,,NaN,,,,,,false,,,,599126.2999999523,599126.2999999523,,599126.2999999523,,599130.265,8,400,,,
sequence,flow.Sequence,4_96,2023-09-12T22:18:31.064Z,,0,,,3438.320999952266,completion,,,,,false,,,,599126.399999857,599126.2999999523,595681.899,595684.5999999046,595687.979,599130.265,8,400,,,
trial,html.Screen,4_97_0,2023-09-12T22:18:35.323Z,,0,2,,4254.834999904619,response,ISIC_0027663.JPG,5,ISIC_6618652.JPG,ISIC_6618652.JPG,false,0,keypress(z),500,603385.1999998093,603385.0999999046,599124.18,599126.5,599130.265,603390.699,8,400,48,,ISIC_0027663.JPG
break,html.Screen,4_97_1,2023-09-12T22:18:35.324Z,,0,,,NaN,,,,,,false,,,,603385.5999999046,603385.5,,603385.2999999523,,603390.699,8,400,,,
break_continue,html.Screen,4_97_2,2023-09-12T22:18:35.324Z,,0,,,NaN,,,,,,false,,,,603385.6999998093,603385.5999999046,,603385.5999999046,,603390.699,8,400,,,
sequence,flow.Sequence,4_97,2023-09-12T22:18:35.324Z,,0,,,4255.334999904619,completion,,,,,false,,,,603385.7999999523,603385.5999999046,599124.18,599126.399999857,599130.265,603390.699,8,400,,,
trial,html.Screen,4_98_0,2023-09-12T22:18:39.068Z,,0,2,,3739.500999809243,response,ISIC_9125409.JPG,5,ISIC_8887039.JPG,ISIC_9125409.JPG,false,1,keypress(m),500,607130.2999999523,607130.1999998093,603384.615,603385.7999999523,603390.699,607136.01,8,400,49,,ISIC_8887039.JPG
break,html.Screen,4_98_1,2023-09-12T22:18:39.069Z,,0,,,NaN,,,,,,false,,,,607130.5999999046,607130.5999999046,,607130.399999857,,607136.01,8,400,,,
break_continue,html.Screen,4_98_2,2023-09-12T22:18:39.069Z,,0,,,NaN,,,,,,false,,,,607130.7999999523,607130.7999999523,,607130.7999999523,,607136.01,8,400,,,
sequence,flow.Sequence,4_98,2023-09-12T22:18:39.069Z,,0,,,3740.100999952294,completion,,,,,false,,,,607130.899999857,607130.7999999523,603384.615,603385.7999999523,603390.699,607136.01,8,400,,,
trial,html.Screen,4_99_0,2023-09-12T22:18:42.093Z,,0,2,,3019.289999952307,response,ISIC_0000213.JPG,5,ISIC_6710411.JPG,ISIC_6710411.JPG,false,0,keypress(z),500,610155.399999857,610155.2999999523,607129.931,607131,607136.01,610160.127,8,400,50,,ISIC_0000213.JPG
break,html.Screen,4_99_1,2023-09-12T22:18:52.091Z,,0,,,9999.601000000024,timeout,,,,,false,,,,620153.899999857,620153.67,610154.037,610155.5,610160.127,620159.728,8,400,,,
break_continue,html.Screen,4_99_2,2023-09-12T22:18:56.202Z,,0,,,4099.971999809262,response,,,,,false,continue,keypress(Space),,624264.7999999523,624259.6999998093,620153.67,620153.899999857,620159.728,624268.645,8,400,,,
sequence,flow.Sequence,4_99,2023-09-12T22:18:56.202Z,,0,,,17123.689999809256,completion,,,,,false,,,,624264.899999857,624259.6999998093,607129.931,607130.899999857,607136.01,624268.645,8,400,,,
trial,html.Screen,4_100_0,2023-09-12T22:18:59.277Z,,0,3,,3071.0549998092465,response,ISIC_0064943.JPG,4,ISIC_1193108.JPG,ISIC_1193108.JPG,false,0,keypress(z),500,627339.899999857,627339.6999998093,624262.337,624265,624268.645,627341.255,8,400,1,,ISIC_0064943.JPG
break,html.Screen,4_100_1,2023-09-12T22:18:59.277Z,,0,,,NaN,,,,,,false,,,,627340.1999998093,627340.0999999046,,627339.899999857,,627341.255,8,400,,,
break_continue,html.Screen,4_100_2,2023-09-12T22:18:59.277Z,,0,,,NaN,,,,,,false,,,,627340.399999857,627340.399999857,,627340.1999998093,,627341.255,8,400,,,
sequence,flow.Sequence,4_100,2023-09-12T22:18:59.277Z,,0,,,3071.75499985693,completion,,,,,false,,,,627340.399999857,627340.399999857,624262.337,624265,624268.645,627341.255,8,400,,,
trial,html.Screen,4_101_0,2023-09-12T22:19:02.212Z,,0,3,,2933.644999856944,response,ISIC_2927587.JPG,5,ISIC_0056692.JPG,ISIC_2927587.JPG,false,1,keypress(m),500,630274.899999857,630274.899999857,627335.166,627340.5,627341.255,630280.524,8,400,2,,ISIC_0056692.JPG
break,html.Screen,4_101_1,2023-09-12T22:19:02.212Z,,0,,,NaN,,,,,,false,,,,630275.2999999523,630275.2999999523,,630275,,630280.524,8,400,,,
break_continue,html.Screen,4_101_2,2023-09-12T22:19:02.212Z,,0,,,NaN,,,,,,false,,,,630275.5,630275.5,,630275.399999857,,630280.524,8,400,,,
sequence,flow.Sequence,4_101,2023-09-12T22:19:02.213Z,,0,,,2934.2449999999953,completion,,,,,false,,,,630275.5,630275.5,627335.166,627340.5,627341.255,630280.524,8,400,,,
trial,html.Screen,4_102_0,2023-09-12T22:19:05.525Z,,0,3,,3307.375999856973,response,ISIC_7484771.JPG,5,ISIC_0063180.JPG,ISIC_7484771.JPG,false,1,keypress(m),500,633588,633587.899999857,630274.442,630275.5,630280.524,633589.485,8,400,3,,ISIC_0063180.JPG
break,html.Screen,4_102_1,2023-09-12T22:19:05.525Z,,0,,,NaN,,,,,,false,,,,633588.399999857,633588.1999998093,,633588,,633589.485,8,400,,,
break_continue,html.Screen,4_102_2,2023-09-12T22:19:05.525Z,,0,,,NaN,,,,,,false,,,,633588.5,633588.5,,633588.399999857,,633589.485,8,400,,,
sequence,flow.Sequence,4_102,2023-09-12T22:19:05.526Z,,0,,,3307.976000000024,completion,,,,,false,,,,633588.5,633588.5,630274.442,630275.5,630280.524,633589.485,8,400,,,
trial,html.Screen,4_103_0,2023-09-12T22:19:09.159Z,,0,3,,3631.914999856963,response,ISIC_0061583.JPG,5,ISIC_0058823.JPG,ISIC_0058823.JPG,false,0,keypress(z),500,637221.5999999046,637221.399999857,633583.4,633588.5999999046,633589.485,637231.764,8,400,4,,ISIC_0061583.JPG
break,html.Screen,4_103_1,2023-09-12T22:19:09.159Z,,0,,,NaN,,,,,,false,,,,637222,637221.899999857,,637221.5999999046,,637231.764,8,400,,,
break_continue,html.Screen,4_103_2,2023-09-12T22:19:09.159Z,,0,,,NaN,,,,,,false,,,,637222.0999999046,637222.0999999046,,637222,,637231.764,8,400,,,
sequence,flow.Sequence,4_103,2023-09-12T22:19:09.159Z,,0,,,3632.6149999046465,completion,,,,,false,,,,637222.0999999046,637222.0999999046,633583.4,633588.5,633589.485,637231.764,8,400,,,
trial,html.Screen,4_104_0,2023-09-12T22:19:13.024Z,,0,3,,3855.4359998092987,response,ISIC_0031338.JPG,5,ISIC_2202486.JPG,ISIC_0031338.JPG,false,1,keypress(m),500,641087.1999998093,641087.1999998093,637225.715,637222.1999998093,637231.764,641092.215,8,400,5,,ISIC_2202486.JPG
break,html.Screen,4_104_1,2023-09-12T22:19:13.025Z,,0,,,NaN,,,,,,false,,,,641087.5,641087.399999857,,641087.2999999523,,641092.215,8,400,,,
break_continue,html.Screen,4_104_2,2023-09-12T22:19:13.025Z,,0,,,NaN,,,,,,false,,,,641087.5999999046,641087.5999999046,,641087.5,,641092.215,8,400,,,
sequence,flow.Sequence,4_104,2023-09-12T22:19:13.025Z,,0,,,3855.835999904666,completion,,,,,false,,,,641087.6999998093,641087.5999999046,637225.715,637222.0999999046,637231.764,641092.215,8,400,,,
trial,html.Screen,4_105_0,2023-09-12T22:19:16.050Z,,0,3,,3020.1849998569814,response,ISIC_0906465.JPG,4,ISIC_7521698.JPG,ISIC_0906465.JPG,false,1,keypress(m),500,644112.5,644112.399999857,641086.128,641087.6999998093,641092.215,644116.335,8,400,6,,ISIC_7521698.JPG
break,html.Screen,4_105_1,2023-09-12T22:19:16.050Z,,0,,,NaN,,,,,,false,,,,644113,644112.899999857,,644112.5999999046,,644116.335,8,400,,,
break_continue,html.Screen,4_105_2,2023-09-12T22:19:16.050Z,,0,,,NaN,,,,,,false,,,,644113.0999999046,644113.0999999046,,644113,,644116.335,8,400,,,
sequence,flow.Sequence,4_105,2023-09-12T22:19:16.050Z,,0,,,3020.884999904665,completion,,,,,false,,,,644113.1999998093,644113.0999999046,641086.128,641087.6999998093,641092.215,644116.335,8,400,,,
trial,html.Screen,4_106_0,2023-09-12T22:19:19.365Z,,0,3,,3311.8649998093024,response,ISIC_4066726.JPG,5,ISIC_0010825.JPG,ISIC_4066726.JPG,false,1,keypress(m),500,647428.1999998093,647428.1999998093,644110.25,644113.1999998093,644116.335,647431.377,8,400,7,,ISIC_0010825.JPG
break,html.Screen,4_106_1,2023-09-12T22:19:19.366Z,,0,,,NaN,,,,,,false,,,,647428.5999999046,647428.5,,647428.2999999523,,647431.377,8,400,,,
break_continue,html.Screen,4_106_2,2023-09-12T22:19:19.366Z,,0,,,NaN,,,,,,false,,,,647428.6999998093,647428.6999998093,,647428.5999999046,,647431.377,8,400,,,
sequence,flow.Sequence,4_106,2023-09-12T22:19:19.366Z,,0,,,3312.3649998093024,completion,,,,,false,,,,647428.6999998093,647428.6999998093,644110.25,644113.1999998093,644116.335,647431.377,8,400,,,
trial,html.Screen,4_107_0,2023-09-12T22:19:22.679Z,,0,3,,3310.3229998092866,response,ISIC_0031213.JPG,5,ISIC_0026043.JPG,ISIC_0026043.JPG,false,0,keypress(z),500,650741.7999999523,650741.6999998093,647425.283,647428.7999999523,647431.377,650746.372,8,400,8,,ISIC_0031213.JPG
break,html.Screen,4_107_1,2023-09-12T22:19:22.679Z,,0,,,NaN,,,,,,false,,,,650742.0999999046,650742,,650741.899999857,,650746.372,8,400,,,
break_continue,html.Screen,4_107_2,2023-09-12T22:19:22.679Z,,0,,,NaN,,,,,,false,,,,650742.2999999523,650742.1999998093,,650742.1999998093,,650746.372,8,400,,,
sequence,flow.Sequence,4_107,2023-09-12T22:19:22.679Z,,0,,,3310.8229998092866,completion,,,,,false,,,,650742.2999999523,650742.1999998093,647425.283,647428.7999999523,647431.377,650746.372,8,400,,,
trial,html.Screen,4_108_0,2023-09-12T22:19:25.820Z,,0,3,,3136.327999809291,response,ISIC_0031010.JPG,5,ISIC_1260545.JPG,ISIC_1260545.JPG,false,0,keypress(z),500,653882.899999857,653882.6999998093,650740.287,650742.399999857,650746.372,653885.67,8,400,9,,ISIC_0031010.JPG
break,html.Screen,4_108_1,2023-09-12T22:19:25.820Z,,0,,,NaN,,,,,,false,,,,653883.1999998093,653883.0999999046,,653882.899999857,,653885.67,8,400,,,
break_continue,html.Screen,4_108_2,2023-09-12T22:19:25.820Z,,0,,,NaN,,,,,,false,,,,653883.2999999523,653883.2999999523,,653883.2999999523,,653885.67,8,400,,,
sequence,flow.Sequence,4_108,2023-09-12T22:19:25.820Z,,0,,,3136.9279999523424,completion,,,,,false,,,,653883.5,653883.2999999523,650740.287,650742.399999857,650746.372,653885.67,8,400,,,
trial,html.Screen,4_109_0,2023-09-12T22:19:30.702Z,,0,3,,4879.029999809223,response,ISIC_3312201.JPG,4,ISIC_0000313.JPG,ISIC_3312201.JPG,false,1,keypress(m),500,658764.7999999523,658764.6999998093,653879.558,653883.5,653885.67,658770.286,8,400,10,,ISIC_0000313.JPG
break,html.Screen,4_109_1,2023-09-12T22:19:30.702Z,,0,,,NaN,,,,,,false,,,,658765.0999999046,658765,,658764.899999857,,658770.286,8,400,,,
break_continue,html.Screen,4_109_2,2023-09-12T22:19:30.702Z,,0,,,NaN,,,,,,false,,,,658765.1999998093,658765.1999998093,,658765.0999999046,,658770.286,8,400,,,
sequence,flow.Sequence,4_109,2023-09-12T22:19:30.702Z,,0,,,4879.529999809223,completion,,,,,false,,,,658765.1999998093,658765.1999998093,653879.558,653883.5,653885.67,658770.286,8,400,,,
trial,html.Screen,4_110_0,2023-09-12T22:19:36.214Z,,0,3,,5506.214000000036,response,ISIC_9256438.JPG,5,ISIC_3073634.JPG,ISIC_3073634.JPG,false,0,keypress(z),500,664276.5999999046,664276.5,658764.207,658765.2999999523,658770.286,664279.148,8,400,11,,ISIC_9256438.JPG
break,html.Screen,4_110_1,2023-09-12T22:19:36.214Z,,0,,,NaN,,,,,,false,,,,664276.899999857,664276.7999999523,,664276.5999999046,,664279.148,8,400,,,
break_continue,html.Screen,4_110_2,2023-09-12T22:19:36.214Z,,0,,,NaN,,,,,,false,,,,664277.0999999046,664277,,664276.899999857,,664279.148,8,400,,,
sequence,flow.Sequence,4_110,2023-09-12T22:19:36.214Z,,0,,,5506.714000000036,completion,,,,,false,,,,664277.1999998093,664277,658764.207,658765.2999999523,658770.286,664279.148,8,400,,,
trial,html.Screen,4_111_0,2023-09-12T22:19:39.881Z,,0,3,,3664.3519999999553,response,ISIC_0222299.JPG,5,ISIC_4011169.JPG,ISIC_4011169.JPG,false,0,keypress(z),500,667943.5999999046,667943.5,664273.068,664277.1999998093,664279.148,667945.682,8,400,12,,ISIC_0222299.JPG
break,html.Screen,4_111_1,2023-09-12T22:19:39.881Z,,0,,,NaN,,,,,,false,,,,667943.899999857,667943.899999857,,667943.6999998093,,667945.682,8,400,,,
break_continue,html.Screen,4_111_2,2023-09-12T22:19:39.881Z,,0,,,NaN,,,,,,false,,,,667944.0999999046,667944.0999999046,,667944,,667945.682,8,400,,,
sequence,flow.Sequence,4_111,2023-09-12T22:19:39.881Z,,0,,,3664.951999904588,completion,,,,,false,,,,667944.1999998093,667944.0999999046,664273.068,664277.1999998093,664279.148,667945.682,8,400,,,
trial,html.Screen,4_112_0,2023-09-12T22:19:43.356Z,,0,3,,3472.717999856919,response,ISIC_0034202.JPG,5,ISIC_0030623.JPG,ISIC_0030623.JPG,false,0,keypress(z),500,671418.5999999046,671418.399999857,667939.602,667944.1999998093,667945.682,671424.331,8,400,13,,ISIC_0034202.JPG
break,html.Screen,4_112_1,2023-09-12T22:19:43.356Z,,0,,,NaN,,,,,,false,,,,671419,671418.899999857,,671418.5999999046,,671424.331,8,400,,,
break_continue,html.Screen,4_112_2,2023-09-12T22:19:43.356Z,,0,,,NaN,,,,,,false,,,,671419,671419,,671419,,671424.331,8,400,,,
sequence,flow.Sequence,4_112,2023-09-12T22:19:43.356Z,,0,,,3473.31799999997,completion,,,,,false,,,,671419.0999999046,671419,667939.602,667944.1999998093,667945.682,671424.331,8,400,,,
trial,html.Screen,4_113_0,2023-09-12T22:19:47.252Z,,0,3,,3890.268999904627,response,ISIC_0026087.JPG,5,ISIC_6948604.JPG,ISIC_0026087.JPG,false,1,keypress(m),500,675314.6999998093,675314.5999999046,671418.237,671419.0999999046,671424.331,675315.071,8,400,14,,ISIC_6948604.JPG
break,html.Screen,4_113_1,2023-09-12T22:19:47.252Z,,0,,,NaN,,,,,,false,,,,675315.0999999046,675314.899999857,,675314.7999999523,,675315.071,8,400,,,
break_continue,html.Screen,4_113_2,2023-09-12T22:19:47.252Z,,0,,,NaN,,,,,,false,,,,675315.1999998093,675315.0999999046,,675315.0999999046,,675315.071,8,400,,,
sequence,flow.Sequence,4_113,2023-09-12T22:19:47.252Z,,0,,,3890.768999904627,completion,,,,,false,,,,675315.2999999523,675315.0999999046,671418.237,671419.0999999046,671424.331,675315.071,8,400,,,
trial,html.Screen,4_114_0,2023-09-12T22:19:50.505Z,,0,3,,3253.128999809269,response,ISIC_0072714.JPG,4,ISIC_3513367.JPG,ISIC_3513367.JPG,false,0,keypress(z),500,678568.2999999523,678568.1999998093,675308.994,675315.2999999523,675315.071,678569.488,8,400,15,,ISIC_0072714.JPG
break,html.Screen,4_114_1,2023-09-12T22:19:50.506Z,,0,,,NaN,,,,,,false,,,,678568.6999998093,678568.5999999046,,678568.399999857,,678569.488,8,400,,,
break_continue,html.Screen,4_114_2,2023-09-12T22:19:50.506Z,,0,,,NaN,,,,,,false,,,,678568.899999857,678568.7999999523,,678568.7999999523,,678569.488,8,400,,,
sequence,flow.Sequence,4_114,2023-09-12T22:19:50.506Z,,0,,,3253.72899995232,completion,,,,,false,,,,678568.899999857,678568.7999999523,675308.994,675315.2999999523,675315.071,678569.488,8,400,,,
trial,html.Screen,4_115_0,2023-09-12T22:19:59.021Z,,0,3,,8513.011999999988,response,ISIC_0065133.JPG,5,ISIC_0011904.JPG,ISIC_0011904.JPG,false,0,keypress(z),500,687082.6999998093,687082.5,678563.41,678569,678569.488,687084.303,8,400,16,,ISIC_0065133.JPG
break,html.Screen,4_115_1,2023-09-12T22:19:59.021Z,,0,,,NaN,,,,,,false,,,,687083,687082.899999857,,687082.6999998093,,687084.303,8,400,,,
break_continue,html.Screen,4_115_2,2023-09-12T22:19:59.021Z,,0,,,NaN,,,,,,false,,,,687083.0999999046,687083.0999999046,,687083.0999999046,,687084.303,8,400,,,
sequence,flow.Sequence,4_115,2023-09-12T22:19:59.021Z,,0,,,8513.61199990462,completion,,,,,false,,,,687083.1999998093,687083.0999999046,678563.41,678569,678569.488,687084.303,8,400,,,
trial,html.Screen,4_116_0,2023-09-12T22:20:03.598Z,,0,3,,4576.096999856993,response,ISIC_0032504.JPG,5,ISIC_1472731.JPG,ISIC_0032504.JPG,false,1,keypress(m),500,691660.5,691660.399999857,687078.224,687083.1999998093,687084.303,691665.937,8,400,17,,ISIC_1472731.JPG
break,html.Screen,4_116_1,2023-09-12T22:20:03.599Z,,0,,,NaN,,,,,,false,,,,691660.7999999523,691660.7999999523,,691660.5999999046,,691665.937,8,400,,,
break_continue,html.Screen,4_116_2,2023-09-12T22:20:03.599Z,,0,,,NaN,,,,,,false,,,,691661,691660.899999857,,691660.899999857,,691665.937,8,400,,,
sequence,flow.Sequence,4_116,2023-09-12T22:20:03.599Z,,0,,,4576.596999856993,completion,,,,,false,,,,691661,691660.899999857,687078.224,687083.1999998093,687084.303,691665.937,8,400,,,
trial,html.Screen,4_117_0,2023-09-12T22:20:08.742Z,,0,3,,5138.362999952282,response,ISIC_5703909.JPG,5,ISIC_0015035.JPG,ISIC_0015035.JPG,false,0,keypress(z),500,696804.399999857,696804.2999999523,691659.859,691661.0999999046,691665.937,696805.12,8,400,18,,ISIC_5703909.JPG
break,html.Screen,4_117_1,2023-09-12T22:20:08.743Z,,0,,,NaN,,,,,,false,,,,696804.899999857,696804.6999998093,,696804.5,,696805.12,8,400,,,
break_continue,html.Screen,4_117_2,2023-09-12T22:20:08.743Z,,0,,,NaN,,,,,,false,,,,696805,696804.899999857,,696804.899999857,,696805.12,8,400,,,
sequence,flow.Sequence,4_117,2023-09-12T22:20:08.743Z,,0,,,5138.962999856914,completion,,,,,false,,,,696805.0999999046,696804.899999857,691659.859,691661,691665.937,696805.12,8,400,,,
trial,html.Screen,4_118_0,2023-09-12T22:20:11.896Z,,0,3,,3152.679999952321,response,ISIC_4958578.JPG,5,ISIC_0010834.JPG,ISIC_4958578.JPG,false,1,keypress(m),500,699958,699957.7999999523,696799.047,696805.0999999046,696805.12,699962.579,8,400,19,,ISIC_0010834.JPG
break,html.Screen,4_118_1,2023-09-12T22:20:11.896Z,,0,,,NaN,,,,,,false,,,,699958.2999999523,699958.1999998093,,699958,,699962.579,8,400,,,
break_continue,html.Screen,4_118_2,2023-09-12T22:20:11.896Z,,0,,,NaN,,,,,,false,,,,699958.5,699958.5,,699958.399999857,,699962.579,8,400,,,
sequence,flow.Sequence,4_118,2023-09-12T22:20:11.897Z,,0,,,3153.3800000000047,completion,,,,,false,,,,699958.5999999046,699958.5,696799.047,696805.0999999046,696805.12,699962.579,8,400,,,
trial,html.Screen,4_119_0,2023-09-12T22:20:19.866Z,,0,3,,7965.320999856922,response,ISIC_0029013.JPG,5,ISIC_0238824.JPG,ISIC_0238824.JPG,false,0,keypress(z),500,707928,707927.899999857,699956.491,699958.6999998093,699962.579,707931.948,8,400,20,,ISIC_0029013.JPG
break,html.Screen,4_119_1,2023-09-12T22:20:19.866Z,,0,,,NaN,,,,,,false,,,,707928.2999999523,707928.2999999523,,707928,,707931.948,8,400,,,
break_continue,html.Screen,4_119_2,2023-09-12T22:20:19.866Z,,0,,,NaN,,,,,,false,,,,707928.5,707928.399999857,,707928.399999857,,707931.948,8,400,,,
sequence,flow.Sequence,4_119,2023-09-12T22:20:19.867Z,,0,,,7965.820999856922,completion,,,,,false,,,,707928.5,707928.399999857,699956.491,699958.5999999046,699962.579,707931.948,8,400,,,
trial,html.Screen,4_120_0,2023-09-12T22:20:24.267Z,,0,3,,4397.351999952341,response,ISIC_0009666.JPG,4,ISIC_0029732.JPG,ISIC_0009666.JPG,false,1,keypress(m),500,712329.399999857,712329.2999999523,707925.872,707928.5999999046,707931.948,712331.77,8,400,21,,ISIC_0029732.JPG
break,html.Screen,4_120_1,2023-09-12T22:20:24.268Z,,0,,,NaN,,,,,,false,,,,712329.6999998093,712329.6999998093,,712329.5,,712331.77,8,400,,,
break_continue,html.Screen,4_120_2,2023-09-12T22:20:24.268Z,,0,,,NaN,,,,,,false,,,,712329.899999857,712329.899999857,,712329.7999999523,,712331.77,8,400,,,
sequence,flow.Sequence,4_120,2023-09-12T22:20:24.268Z,,0,,,4397.951999856974,completion,,,,,false,,,,712330,712329.899999857,707925.872,707928.5999999046,707931.948,712331.77,8,400,,,
trial,html.Screen,4_121_0,2023-09-12T22:20:31.997Z,,0,3,,7727.229999999981,response,ISIC_1793821.JPG,5,ISIC_0001134.JPG,ISIC_0001134.JPG,false,0,keypress(z),500,720059.0999999046,720059,712325.683,712330,712331.77,720064.788,8,400,22,,ISIC_1793821.JPG
break,html.Screen,4_121_1,2023-09-12T22:20:31.997Z,,0,,,NaN,,,,,,false,,,,720059.5,720059.399999857,,720059.1999998093,,720064.788,8,400,,,
break_continue,html.Screen,4_121_2,2023-09-12T22:20:31.998Z,,0,,,NaN,,,,,,false,,,,720059.5999999046,720059.5999999046,,720059.5,,720064.788,8,400,,,
sequence,flow.Sequence,4_121,2023-09-12T22:20:31.998Z,,0,,,7727.829999904614,completion,,,,,false,,,,720059.6999998093,720059.5999999046,712325.683,712330,712331.77,720064.788,8,400,,,
trial,html.Screen,4_122_0,2023-09-12T22:20:36.799Z,,0,3,,4796.111999857007,response,ISIC_7967108.JPG,5,ISIC_6025721.JPG,ISIC_6025721.JPG,false,0,keypress(z),500,724861,724860.899999857,720058.707,720060.0999999046,720064.788,724864.605,8,400,23,,ISIC_7967108.JPG
break,html.Screen,4_122_1,2023-09-12T22:20:36.799Z,,0,,,NaN,,,,,,false,,,,724861.399999857,724861.2999999523,,724861.0999999046,,724864.605,8,400,,,
break_continue,html.Screen,4_122_2,2023-09-12T22:20:36.799Z,,0,,,NaN,,,,,,false,,,,724861.5999999046,724861.5,,724861.399999857,,724864.605,8,400,,,
sequence,flow.Sequence,4_122,2023-09-12T22:20:36.800Z,,0,,,4796.712000000058,completion,,,,,false,,,,724861.5999999046,724861.5,720058.707,720060.0999999046,720064.788,724864.605,8,400,,,
trial,html.Screen,4_123_0,2023-09-12T22:20:40.385Z,,0,3,,3582.3950000000186,response,ISIC_4035599.JPG,5,ISIC_0028481.JPG,ISIC_4035599.JPG,false,1,keypress(m),500,728447.0999999046,728447,724858.525,724861.5999999046,724864.605,728452.339,8,400,24,,ISIC_0028481.JPG
break,html.Screen,4_123_1,2023-09-12T22:20:40.385Z,,0,,,NaN,,,,,,false,,,,728447.5,728447.399999857,,728447.1999998093,,728452.339,8,400,,,
break_continue,html.Screen,4_123_2,2023-09-12T22:20:40.386Z,,0,,,NaN,,,,,,false,,,,728447.5999999046,728447.5999999046,,728447.5999999046,,728452.339,8,400,,,
sequence,flow.Sequence,4_123,2023-09-12T22:20:40.386Z,,0,,,3582.994999904651,completion,,,,,false,,,,728447.6999998093,728447.5999999046,724858.525,724861.5999999046,724864.605,728452.339,8,400,,,
trial,html.Screen,4_124_0,2023-09-12T22:20:43.859Z,,0,3,,3468.46099995228,response,ISIC_4448959.JPG,5,ISIC_0001118.JPG,ISIC_4448959.JPG,false,1,keypress(m),500,731921,731920.7999999523,728446.249,728447.6999998093,728452.339,731924.923,8,400,25,,ISIC_0001118.JPG
break,html.Screen,4_124_1,2023-09-12T22:20:43.859Z,,0,,,NaN,,,,,,false,,,,731921.2999999523,731921.1999998093,,731921.0999999046,,731924.923,8,400,,,
break_continue,html.Screen,4_124_2,2023-09-12T22:20:43.859Z,,0,,,NaN,,,,,,false,,,,731921.5,731921.399999857,,731921.399999857,,731924.923,8,400,,,
sequence,flow.Sequence,4_124,2023-09-12T22:20:43.859Z,,0,,,3469.0609998569125,completion,,,,,false,,,,731921.5,731921.399999857,728446.249,728447.6999998093,728452.339,731924.923,8,400,,,
trial,html.Screen,4_125_0,2023-09-12T22:20:46.708Z,,0,3,,2845.0770000000484,response,ISIC_0065746.JPG,5,ISIC_0029998.JPG,ISIC_0029998.JPG,false,0,keypress(z),500,734770.0999999046,734770,731918.843,731921.5,731924.923,734779.355,8,400,26,,ISIC_0065746.JPG
break,html.Screen,4_125_1,2023-09-12T22:20:46.708Z,,0,,,NaN,,,,,,false,,,,734770.5,734770.399999857,,734770.1999998093,,734779.355,8,400,,,
break_continue,html.Screen,4_125_2,2023-09-12T22:20:46.709Z,,0,,,NaN,,,,,,false,,,,734770.5999999046,734770.5999999046,,734770.5,,734779.355,8,400,,,
sequence,flow.Sequence,4_125,2023-09-12T22:20:46.709Z,,0,,,2845.676999904681,completion,,,,,false,,,,734770.5999999046,734770.5999999046,731918.843,731921.5,731924.923,734779.355,8,400,,,
trial,html.Screen,4_126_0,2023-09-12T22:20:49.421Z,,0,3,,2703.5449998569675,response,ISIC_0011139.JPG,4,ISIC_6320497.JPG,ISIC_6320497.JPG,false,0,keypress(z),500,737483,737482.899999857,734773.286,734770.7999999523,734779.355,737488.332,8,400,27,,ISIC_0011139.JPG
