sender,sender_type,sender_id,timestamp,meta,,blockNo,condition,duration,ended_on,img_left,img_reveal,img_right,loser,practice,response,response_action,selection_duration,time_commit,time_end,time_render,time_run,time_show,time_switch,total_blocks,total_trials,trialNo,url,winner
informed_consent,html.Screen,0,2023-09-15T21:27:53.625Z,"{""labjs_version"":""20.2.4"",""labjs_build"":{""flavor"":""production"",""commit"":""f5b4a49f956347addd546a832a3327688c2c0fef""},""location"":""https://run.pavlovia.org/MurrayBennett/melanoma-2afc/?participant=67590&platform=sona"",""userAgent"":""Mozilla/5.0 (Windows NT 10.0; Win64; x64) AppleWebKit/537.36 (KHTML, like Gecko) Chrome/116.0.0.0 Safari/537.36"",""platform"":""Win32"",""language"":""en-US"",""locale"":""en-US"",""timeZone"":""America/Chicago"",""timezoneOffset"":300,""screen_width"":1536,""screen_height"":864,""scroll_width"":1536,""scroll_height"":659,""window_innerWidth"":1536,""window_innerHeight"":707,""devicePixelRatio"":1.25}",,,,120967.3020000015,response,,,,,,consent,click button,,149686.5,149684.6000000015,28701.468,7715.10000000149,28717.298,149703.72,,,,"{""participant"":""67590"",""platform"":""sona""}",
Welcome,html.Screen,1,2023-09-15T21:28:04.211Z,,,,asymmetry,10563.479999995528,response,,,,,,continue,click button,,160271.6000000015,160267.19999999553,149670.927,149686.79999999702,149703.72,160274.911,,,,,
trial,html.Screen,2_0_0,2023-09-15T21:28:14.206Z,,0,0,,9991.388999997027,response,ISIC_6997061.JPG,,ISIC_0069348.JPG,ISIC_6997061.JPG,true,1,keypress(m),500,170266.79999999702,170266.29999999702,160258.414,160271.8999999985,160274.911,170281.17,1,6,1,,ISIC_0069348.JPG
sequence,flow.Sequence,2_0,2023-09-15T21:28:14.206Z,,0,,,9991.388999997027,completion,,,,,true,,,,170267.29999999702,170266.29999999702,160258.414,160271.79999999702,160274.911,170281.17,1,6,,,
trial,html.Screen,2_1_0,2023-09-15T21:28:25.708Z,,0,0,,11519.142999999982,timeout,ISIC_0009529.JPG,,ISIC_0057368.JPG,,true,,,500,181768.1000000015,181767.79999999702,170264.581,170267.5,170281.17,181800.313,1,6,2,,
sequence,flow.Sequence,2_1,2023-09-15T21:28:25.708Z,,0,,,11486.629999997007,completion,,,,,true,,,,181768.29999999702,181767.79999999702,170264.581,170267.5,170281.17,181800.313,1,6,,,
trial,html.Screen,2_2_0,2023-09-15T21:28:30.723Z,,0,0,,4981.886999995535,response,ISIC_9758671.JPG,,ISIC_0064954.JPG,ISIC_9758671.JPG,true,1,keypress(m),500,186782.6000000015,186782.19999999553,181784.898,181768.3999999985,181800.313,186785.969,1,6,3,,ISIC_0064954.JPG
sequence,flow.Sequence,2_2,2023-09-15T21:28:30.723Z,,0,,,4981.886999995535,completion,,,,,true,,,,186783.1000000015,186782.19999999553,181784.898,181768.3999999985,181800.313,186785.969,1,6,,,
trial,html.Screen,2_3_0,2023-09-15T21:28:34.394Z,,0,0,,3667.730999995518,response,ISIC_0000080.JPG,,ISIC_0005785.JPG,ISIC_0005785.JPG,true,0,keypress(z),500,190454.19999999553,190453.69999999553,186769.477,186783.6000000015,186785.969,190459.286,1,6,4,,ISIC_0000080.JPG
sequence,flow.Sequence,2_3,2023-09-15T21:28:34.395Z,,0,,,3667.730999995518,completion,,,,,true,,,,190455,190453.69999999553,186769.477,186783.3999999985,186785.969,190459.286,1,6,,,
trial,html.Screen,2_4_0,2023-09-15T21:28:37.464Z,,0,0,,3063.714000000007,response,ISIC_7944028.JPG,,ISIC_5390060.JPG,ISIC_7944028.JPG,true,1,keypress(m),500,193523.3999999985,193523,190443.147,190455.29999999702,190459.286,193534.406,1,6,5,,ISIC_5390060.JPG
sequence,flow.Sequence,2_4,2023-09-15T21:28:37.464Z,,0,,,3063.714000000007,completion,,,,,true,,,,193523.79999999702,193523,190443.147,190455.19999999553,190459.286,193534.406,1,6,,,
trial,html.Screen,2_5_0,2023-09-15T21:28:40.477Z,,0,0,,3002.194000001502,response,ISIC_0010188.JPG,,ISIC_0794216.JPG,ISIC_0794216.JPG,true,0,keypress(z),500,196537,196536.6000000015,193517.83,193524,193534.406,196542.66,1,6,6,,ISIC_0010188.JPG
sequence,flow.Sequence,2_5,2023-09-15T21:28:40.478Z,,0,,,3002.194000001502,completion,,,,,true,,,,196537.3999999985,196536.6000000015,193517.83,193524,193534.406,196542.66,1,6,,,
loop,flow.Loop,2,2023-09-15T21:28:40.478Z,,,,,36261.6890000015,completion,,,,,true,,,,196537.69999999553,196536.6000000015,160258.414,160271.79999999702,160274.911,196542.66,1,6,,,
exp_instructions,html.Screen,3,2023-09-15T21:28:47.751Z,,,,,7267.139999997016,response,,,,,,continue,keypress(Space),,203810.6000000015,203809.79999999702,196526.478,196537.79999999702,196542.66,203822.869,,,,,
trial,html.Screen,4_0_0,2023-09-15T21:28:51.583Z,,0,1,,3819.3309999955236,response,ISIC_0058047.JPG,2,ISIC_0010981.JPG,ISIC_0010981.JPG,false,0,keypress(z),500,207642.6000000015,207642.19999999553,203807.199,203810.69999999553,203822.869,207645.712,8,400,1,,ISIC_0058047.JPG
break,html.Screen,4_0_1,2023-09-15T21:28:51.585Z,,0,,,NaN,,,,,,false,,,,207644.79999999702,207644.3999999985,,207642.79999999702,,207645.712,8,400,,,
break_continue,html.Screen,4_0_2,2023-09-15T21:28:51.585Z,,0,,,NaN,,,,,,false,,,,207645.29999999702,207645.1000000015,,207644.8999999985,,207645.712,8,400,,,
sequence,flow.Sequence,4_0,2023-09-15T21:28:51.586Z,,0,,,3822.231000001484,completion,,,,,false,,,,207645.5,207645.1000000015,203807.199,203810.69999999553,203822.869,207645.712,8,400,,,
trial,html.Screen,4_1_0,2023-09-15T21:28:56.045Z,,0,1,,4458.48799999553,response,ISIC_0029693.JPG,7,ISIC_0011409.JPG,ISIC_0011409.JPG,false,0,keypress(z),500,212104.6000000015,212104.19999999553,207629.407,207645.6000000015,207645.712,212117.379,8,400,2,,ISIC_0029693.JPG
break,html.Screen,4_1_1,2023-09-15T21:28:56.047Z,,0,,,NaN,,,,,,false,,,,212107.1000000015,212106.69999999553,,212105,,212117.379,8,400,,,
break_continue,html.Screen,4_1_2,2023-09-15T21:28:56.048Z,,0,,,NaN,,,,,,false,,,,212107.79999999702,212107.6000000015,,212107.29999999702,,212117.379,8,400,,,
sequence,flow.Sequence,4_1,2023-09-15T21:28:56.048Z,,0,,,4461.888000001491,completion,,,,,false,,,,212107.8999999985,212107.6000000015,207629.407,207645.6000000015,207645.712,212117.379,8,400,,,
trial,html.Screen,4_2_0,2023-09-15T21:29:01.194Z,,0,1,,5135.820999995543,response,ISIC_0026497.JPG,9,ISIC_0325771.JPG,ISIC_0325771.JPG,false,0,keypress(z),500,217253.6000000015,217253.19999999553,212100.511,212108.1000000015,212117.379,217269.63,8,400,3,,ISIC_0026497.JPG
break,html.Screen,4_2_1,2023-09-15T21:29:01.196Z,,0,,,NaN,,,,,,false,,,,217256,217255.6000000015,,217253.8999999985,,217269.63,8,400,,,
break_continue,html.Screen,4_2_2,2023-09-15T21:29:01.197Z,,0,,,NaN,,,,,,false,,,,217256.5,217256.3999999985,,217256.19999999553,,217269.63,8,400,,,
sequence,flow.Sequence,4_2,2023-09-15T21:29:01.197Z,,0,,,5139.020999998524,completion,,,,,false,,,,217256.69999999553,217256.3999999985,212100.511,212108.1000000015,212117.379,217269.63,8,400,,,
trial,html.Screen,4_3_0,2023-09-15T21:29:04.679Z,,0,1,,3468.3699999999953,response,ISIC_0031118.JPG,8,ISIC_0028839.JPG,ISIC_0028839.JPG,false,0,keypress(z),500,220738.3999999985,220738,217253.348,217256.79999999702,217269.63,220743.354,8,400,4,,ISIC_0031118.JPG
break,html.Screen,4_3_1,2023-09-15T21:29:04.681Z,,0,,,NaN,,,,,,false,,,,220741,220740.6000000015,,220738.79999999702,,220743.354,8,400,,,
break_continue,html.Screen,4_3_2,2023-09-15T21:29:04.682Z,,0,,,NaN,,,,,,false,,,,220741.6000000015,220741.5,,220741.19999999553,,220743.354,8,400,,,
sequence,flow.Sequence,4_3,2023-09-15T21:29:04.682Z,,0,,,3471.8699999999953,completion,,,,,false,,,,220741.69999999553,220741.5,217253.348,217256.69999999553,217269.63,220743.354,8,400,,,
trial,html.Screen,4_4_0,2023-09-15T21:29:08.275Z,,0,1,,3591.045999998518,response,ISIC_0062401.JPG,7,ISIC_0056660.JPG,ISIC_0056660.JPG,false,0,keypress(z),500,224334.69999999553,224334.3999999985,220726.884,220741.8999999985,220743.354,224350.152,8,400,5,,ISIC_0062401.JPG
break,html.Screen,4_4_1,2023-09-15T21:29:08.276Z,,0,,,NaN,,,,,,false,,,,224336.29999999702,224336,,224334.8999999985,,224350.152,8,400,,,
break_continue,html.Screen,4_4_2,2023-09-15T21:29:08.277Z,,0,,,NaN,,,,,,false,,,,224336.69999999553,224336.6000000015,,224336.3999999985,,224350.152,8,400,,,
sequence,flow.Sequence,4_4,2023-09-15T21:29:08.277Z,,0,,,3593.246000001498,completion,,,,,false,,,,224336.79999999702,224336.6000000015,220726.884,220741.8999999985,220743.354,224350.152,8,400,,,
trial,html.Screen,4_5_0,2023-09-15T21:29:11.275Z,,0,1,,2984.4480000014883,response,ISIC_2904067.JPG,7,ISIC_5857303.JPG,ISIC_2904067.JPG,false,1,keypress(m),500,227334.8999999985,227334.6000000015,224319.083,224336.8999999985,224350.152,227342.348,8,400,6,,ISIC_5857303.JPG
break,html.Screen,4_5_1,2023-09-15T21:29:11.277Z,,0,,,NaN,,,,,,false,,,,227336.69999999553,227336.29999999702,,227335.29999999702,,227342.348,8,400,,,
break_continue,html.Screen,4_5_2,2023-09-15T21:29:11.277Z,,0,,,NaN,,,,,,false,,,,227337.19999999553,227337.1000000015,,227336.79999999702,,227342.348,8,400,,,
sequence,flow.Sequence,4_5,2023-09-15T21:29:11.278Z,,0,,,2986.9480000014883,completion,,,,,false,,,,227337.3999999985,227337.1000000015,224319.083,224336.8999999985,224350.152,227342.348,8,400,,,
trial,html.Screen,4_6_0,2023-09-15T21:29:14.455Z,,0,1,,3171.652000000002,response,ISIC_9024724.JPG,11,ISIC_6754835.JPG,ISIC_9024724.JPG,false,1,keypress(m),500,230514.3999999985,230514,227325.496,227337.3999999985,227342.348,230516.709,8,400,7,,ISIC_6754835.JPG
break,html.Screen,4_6_1,2023-09-15T21:29:14.456Z,,0,,,NaN,,,,,,false,,,,230516,230515.69999999553,,230514.6000000015,,230516.709,8,400,,,
break_continue,html.Screen,4_6_2,2023-09-15T21:29:14.457Z,,0,,,NaN,,,,,,false,,,,230516.6000000015,230516.5,,230516.29999999702,,230516.709,8,400,,,
sequence,flow.Sequence,4_6,2023-09-15T21:29:14.457Z,,0,,,3174.152000000002,completion,,,,,false,,,,230517.1000000015,230516.5,227325.496,227337.3999999985,227342.348,230516.709,8,400,,,
trial,html.Screen,4_7_0,2023-09-15T21:29:17.670Z,,0,1,,3213.2909999999974,response,ISIC_9680433.JPG,13,ISIC_0033713.JPG,ISIC_9680433.JPG,false,1,keypress(m),500,233730.29999999702,233730,230500.369,230517.5,230516.709,233741.566,8,400,8,,ISIC_0033713.JPG
break,html.Screen,4_7_1,2023-09-15T21:29:17.672Z,,0,,,NaN,,,,,,false,,,,233731.5,233731.19999999553,,233730.5,,233741.566,8,400,,,
break_continue,html.Screen,4_7_2,2023-09-15T21:29:17.672Z,,0,,,NaN,,,,,,false,,,,233731.8999999985,233731.79999999702,,233731.6000000015,,233741.566,8,400,,,
sequence,flow.Sequence,4_7,2023-09-15T21:29:17.672Z,,0,,,3215.090999997017,completion,,,,,false,,,,233732,233731.79999999702,230500.369,230517.19999999553,230516.709,233741.566,8,400,,,
trial,html.Screen,4_8_0,2023-09-15T21:29:20.525Z,,0,1,,2843.233999997028,response,ISIC_3272999.JPG,6,ISIC_0070588.JPG,ISIC_3272999.JPG,false,1,keypress(m),500,236585.19999999553,236584.79999999702,233724.974,233732.19999999553,233741.566,236600.405,8,400,9,,ISIC_0070588.JPG
break,html.Screen,4_8_1,2023-09-15T21:29:20.527Z,,0,,,NaN,,,,,,false,,,,236587.19999999553,236586.3999999985,,236585.3999999985,,236600.405,8,400,,,
break_continue,html.Screen,4_8_2,2023-09-15T21:29:20.528Z,,0,,,NaN,,,,,,false,,,,236587.79999999702,236587.69999999553,,236587.3999999985,,236600.405,8,400,,,
sequence,flow.Sequence,4_8,2023-09-15T21:29:20.528Z,,0,,,2846.133999995538,completion,,,,,false,,,,236588,236587.69999999553,233724.974,233732.1000000015,233741.566,236600.405,8,400,,,
trial,html.Screen,4_9_0,2023-09-15T21:29:23.505Z,,0,1,,2963.6950000014913,response,ISIC_0057496.JPG,12,ISIC_0000754.JPG,ISIC_0000754.JPG,false,0,keypress(z),500,239564.69999999553,239564.1000000015,236583.858,236588.1000000015,236600.405,239575.358,8,400,10,,ISIC_0057496.JPG
break,html.Screen,4_9_1,2023-09-15T21:29:23.506Z,,0,,,NaN,,,,,,false,,,,239566.29999999702,239566,,239565,,239575.358,8,400,,,
break_continue,html.Screen,4_9_2,2023-09-15T21:29:23.508Z,,0,,,NaN,,,,,,false,,,,239567.3999999985,239567.19999999553,,239566.5,,239575.358,8,400,,,
sequence,flow.Sequence,4_9,2023-09-15T21:29:23.508Z,,0,,,2966.794999995531,completion,,,,,false,,,,239567.5,239567.19999999553,236583.858,236588.1000000015,236600.405,239575.358,8,400,,,
trial,html.Screen,4_10_0,2023-09-15T21:29:26.407Z,,0,1,,2890.841999995522,response,ISIC_0027235.JPG,12,ISIC_0519386.JPG,ISIC_0027235.JPG,false,1,keypress(m),500,242466.6000000015,242466.19999999553,239559.061,239567.6000000015,239575.358,242484.141,8,400,11,,ISIC_0519386.JPG
break,html.Screen,4_10_1,2023-09-15T21:29:26.409Z,,0,,,NaN,,,,,,false,,,,242468.6000000015,242468,,242466.8999999985,,242484.141,8,400,,,
break_continue,html.Screen,4_10_2,2023-09-15T21:29:26.410Z,,0,,,NaN,,,,,,false,,,,242469.29999999702,242469.19999999553,,242468.8999999985,,242484.141,8,400,,,
sequence,flow.Sequence,4_10,2023-09-15T21:29:26.410Z,,0,,,2893.841999995522,completion,,,,,false,,,,242469.5,242469.19999999553,239559.061,239567.6000000015,239575.358,242484.141,8,400,,,
trial,html.Screen,4_11_0,2023-09-15T21:29:30.836Z,,0,1,,4411.459000001487,response,ISIC_1684829.JPG,7,ISIC_3310364.JPG,ISIC_3310364.JPG,false,0,keypress(z),500,246895.8999999985,246895.6000000015,242451.276,242469.6000000015,242484.141,246905.293,8,400,12,,ISIC_1684829.JPG
break,html.Screen,4_11_1,2023-09-15T21:29:30.838Z,,0,,,NaN,,,,,,false,,,,246897.3999999985,246896.8999999985,,246896.1000000015,,246905.293,8,400,,,
break_continue,html.Screen,4_11_2,2023-09-15T21:29:30.838Z,,0,,,NaN,,,,,,false,,,,246897.79999999702,246897.79999999702,,246897.5,,246905.293,8,400,,,
sequence,flow.Sequence,4_11,2023-09-15T21:29:30.838Z,,0,,,4413.6589999970165,completion,,,,,false,,,,246898,246897.79999999702,242451.276,242469.6000000015,242484.141,246905.293,8,400,,,
trial,html.Screen,4_12_0,2023-09-15T21:29:33.628Z,,0,1,,2782.0069999970146,response,ISIC_0032095.JPG,7,ISIC_2457859.JPG,ISIC_2457859.JPG,false,0,keypress(z),500,249687.6000000015,249687.29999999702,246889.051,246898,246905.293,249697.779,8,400,13,,ISIC_0032095.JPG
break,html.Screen,4_12_1,2023-09-15T21:29:33.630Z,,0,,,NaN,,,,,,false,,,,249689.79999999702,249689.5,,249688,,249697.779,8,400,,,
break_continue,html.Screen,4_12_2,2023-09-15T21:29:33.630Z,,0,,,NaN,,,,,,false,,,,249690.19999999553,249690.1000000015,,249689.8999999985,,249697.779,8,400,,,
sequence,flow.Sequence,4_12,2023-09-15T21:29:33.630Z,,0,,,2784.807000001485,completion,,,,,false,,,,249690.29999999702,249690.1000000015,246889.051,246898,246905.293,249697.779,8,400,,,
trial,html.Screen,4_13_0,2023-09-15T21:29:37.453Z,,0,1,,3814.42099999552,response,ISIC_0005319.JPG,7,ISIC_0067227.JPG,ISIC_0005319.JPG,false,1,keypress(m),500,253512.5,253512.19999999553,249681.5,249690.5,249697.779,253520.653,8,400,14,,ISIC_0067227.JPG
break,html.Screen,4_13_1,2023-09-15T21:29:37.455Z,,0,,,NaN,,,,,,false,,,,253514.5,253513.6000000015,,253512.79999999702,,253520.653,8,400,,,
break_continue,html.Screen,4_13_2,2023-09-15T21:29:37.455Z,,0,,,NaN,,,,,,false,,,,253515,253514.8999999985,,253514.69999999553,,253520.653,8,400,,,
sequence,flow.Sequence,4_13,2023-09-15T21:29:37.455Z,,0,,,3817.1209999985003,completion,,,,,false,,,,253515.19999999553,253514.8999999985,249681.5,249690.29999999702,249697.779,253520.653,8,400,,,
trial,html.Screen,4_14_0,2023-09-15T21:29:40.088Z,,0,1,,2626.347000000009,response,ISIC_0011095.JPG,7,ISIC_0026982.JPG,ISIC_0026982.JPG,false,0,keypress(z),500,256147.3999999985,256147,253504.476,253515.19999999553,253520.653,256163.72,8,400,15,,ISIC_0011095.JPG
break,html.Screen,4_14_1,2023-09-15T21:29:40.090Z,,0,,,NaN,,,,,,false,,,,256149.69999999553,256149.3999999985,,256147.69999999553,,256163.72,8,400,,,
break_continue,html.Screen,4_14_2,2023-09-15T21:29:40.090Z,,0,,,NaN,,,,,,false,,,,256150.19999999553,256150.1000000015,,256149.8999999985,,256163.72,8,400,,,
sequence,flow.Sequence,4_14,2023-09-15T21:29:40.091Z,,0,,,2629.447000001499,completion,,,,,false,,,,256150.3999999985,256150.1000000015,253504.476,253515.19999999553,253520.653,256163.72,8,400,,,
trial,html.Screen,4_15_0,2023-09-15T21:29:43.461Z,,0,1,,3356.279999999999,response,ISIC_0027306.JPG,9,ISIC_1413120.JPG,ISIC_0027306.JPG,false,1,keypress(m),500,259520.5,259520,256146.91,256150.6000000015,256163.72,259537.909,8,400,16,,ISIC_1413120.JPG
break,html.Screen,4_15_1,2023-09-15T21:29:43.463Z,,0,,,NaN,,,,,,false,,,,259522.79999999702,259522.3999999985,,259520.79999999702,,259537.909,8,400,,,
break_continue,html.Screen,4_15_2,2023-09-15T21:29:43.464Z,,0,,,NaN,,,,,,false,,,,259523.3999999985,259523.29999999702,,259523,,259537.909,8,400,,,
sequence,flow.Sequence,4_15,2023-09-15T21:29:43.464Z,,0,,,3359.5799999970186,completion,,,,,false,,,,259523.5,259523.29999999702,256146.91,256150.6000000015,256163.72,259537.909,8,400,,,
trial,html.Screen,4_16_0,2023-09-15T21:29:48.226Z,,0,1,,4747.790999995515,response,ISIC_0071913.JPG,8,ISIC_8586909.JPG,ISIC_8586909.JPG,false,0,keypress(z),500,264285.8999999985,264285.69999999553,259521.214,259523.6000000015,259537.909,264291.447,8,400,17,,ISIC_0071913.JPG
break,html.Screen,4_16_1,2023-09-15T21:29:48.228Z,,0,,,NaN,,,,,,false,,,,264288.19999999553,264287.8999999985,,264286.19999999553,,264291.447,8,400,,,
break_continue,html.Screen,4_16_2,2023-09-15T21:29:48.229Z,,0,,,NaN,,,,,,false,,,,264288.69999999553,264288.5,,264288.3999999985,,264291.447,8,400,,,
sequence,flow.Sequence,4_16,2023-09-15T21:29:48.229Z,,0,,,4750.590999999986,completion,,,,,false,,,,264288.799999997,264288.5,259521.214,259523.6000000015,259537.909,264291.447,8,400,,,
trial,html.Screen,4_17_0,2023-09-15T21:29:51.352Z,,0,1,,3120.4529999985243,response,ISIC_6927363.JPG,10,ISIC_0024656.JPG,ISIC_6927363.JPG,false,1,keypress(m),500,267412.299999997,267411.8999999985,264275.04,264288.799999997,264291.447,267415.996,8,400,18,,ISIC_0024656.JPG
break,html.Screen,4_17_1,2023-09-15T21:29:51.354Z,,0,,,NaN,,,,,,false,,,,267414,267413.799999997,,267412.5,,267415.996,8,400,,,
break_continue,html.Screen,4_17_2,2023-09-15T21:29:51.355Z,,0,,,NaN,,,,,,false,,,,267414.5,267414.3999999985,,267414.1000000015,,267415.996,8,400,,,
sequence,flow.Sequence,4_17,2023-09-15T21:29:51.355Z,,0,,,3122.9529999985243,completion,,,,,false,,,,267414.6000000015,267414.3999999985,264275.04,264288.799999997,264291.447,267415.996,8,400,,,
trial,html.Screen,4_18_0,2023-09-15T21:29:55.987Z,,0,1,,4630.004000000015,response,ISIC_5831880.JPG,8,ISIC_5736292.JPG,ISIC_5831880.JPG,false,1,keypress(m),500,272046.3999999985,272046,267399.85,267414.69999999553,267415.996,272054.122,8,400,19,,ISIC_5736292.JPG
break,html.Screen,4_18_1,2023-09-15T21:29:55.988Z,,0,,,NaN,,,,,,false,,,,272048.299999997,272048,,272046.6000000015,,272054.122,8,400,,,
break_continue,html.Screen,4_18_2,2023-09-15T21:29:55.989Z,,0,,,NaN,,,,,,false,,,,272048.799999997,272048.6000000015,,272048.3999999985,,272054.122,8,400,,,
sequence,flow.Sequence,4_18,2023-09-15T21:29:55.989Z,,0,,,4632.6040000015055,completion,,,,,false,,,,272048.799999997,272048.6000000015,267399.85,267414.69999999553,267415.996,272054.122,8,400,,,
trial,html.Screen,4_19_0,2023-09-15T21:29:59.114Z,,0,1,,3118.978000001516,response,ISIC_3193774.JPG,11,ISIC_0010817.JPG,ISIC_0010817.JPG,false,0,keypress(z),500,275173.5,275173.1000000015,272037.156,272049,272054.122,275178.182,8,400,20,,ISIC_3193774.JPG
break,html.Screen,4_19_1,2023-09-15T21:29:59.116Z,,0,,,NaN,,,,,,false,,,,275175.8999999985,275175.5,,275173.8999999985,,275178.182,8,400,,,
break_continue,html.Screen,4_19_2,2023-09-15T21:29:59.117Z,,0,,,NaN,,,,,,false,,,,275176.3999999985,275176.299999997,,275176.1000000015,,275178.182,8,400,,,
sequence,flow.Sequence,4_19,2023-09-15T21:29:59.117Z,,0,,,3122.177999997046,completion,,,,,false,,,,275176.6000000015,275176.299999997,272037.156,272049,272054.122,275178.182,8,400,,,
trial,html.Screen,4_20_0,2023-09-15T21:30:02.020Z,,0,1,,2901.017999995558,response,ISIC_8699796.JPG,7,ISIC_0032645.JPG,ISIC_8699796.JPG,false,1,keypress(m),500,278079.6000000015,278079.19999999553,275161.98,275176.69999999553,275178.182,278086.878,8,400,21,,ISIC_0032645.JPG
break,html.Screen,4_20_1,2023-09-15T21:30:02.021Z,,0,,,NaN,,,,,,false,,,,278081.299999997,278081,,278079.799999997,,278086.878,8,400,,,
break_continue,html.Screen,4_20_2,2023-09-15T21:30:02.022Z,,0,,,NaN,,,,,,false,,,,278081.69999999553,278081.6000000015,,278081.3999999985,,278086.878,8,400,,,
sequence,flow.Sequence,4_20,2023-09-15T21:30:02.022Z,,0,,,2903.4180000015185,completion,,,,,false,,,,278081.799999997,278081.6000000015,275161.98,275176.69999999553,275178.182,278086.878,8,400,,,
trial,html.Screen,4_21_0,2023-09-15T21:30:06.044Z,,0,1,,4016.722000001464,response,ISIC_0054973.JPG,2,ISIC_6052860.JPG,ISIC_6052860.JPG,false,0,keypress(z),500,282103.8999999985,282103.6000000015,278070.679,278081.8999999985,278086.878,282110.075,8,400,22,,ISIC_0054973.JPG
break,html.Screen,4_21_1,2023-09-15T21:30:06.046Z,,0,,,NaN,,,,,,false,,,,282105.5,282105.299999997,,282104.1000000015,,282110.075,8,400,,,
break_continue,html.Screen,4_21_2,2023-09-15T21:30:06.046Z,,0,,,NaN,,,,,,false,,,,282105.8999999985,282105.799999997,,282105.69999999553,,282110.075,8,400,,,
sequence,flow.Sequence,4_21,2023-09-15T21:30:06.046Z,,0,,,4018.9219999969937,completion,,,,,false,,,,282106,282105.799999997,278070.679,278081.8999999985,278086.878,282110.075,8,400,,,
trial,html.Screen,4_22_0,2023-09-15T21:30:10.195Z,,0,1,,4143.924999999988,response,ISIC_5849178.JPG,12,ISIC_0016092.JPG,ISIC_0016092.JPG,false,0,keypress(z),500,286254.299999997,286254,282093.02,282106.1000000015,282110.075,286264.603,8,400,23,,ISIC_5849178.JPG
break,html.Screen,4_22_1,2023-09-15T21:30:10.196Z,,0,,,NaN,,,,,,false,,,,286256.19999999553,286256,,286254.69999999553,,286264.603,8,400,,,
break_continue,html.Screen,4_22_2,2023-09-15T21:30:10.197Z,,0,,,NaN,,,,,,false,,,,286256.69999999553,286256.6000000015,,286256.3999999985,,286264.603,8,400,,,
sequence,flow.Sequence,4_22,2023-09-15T21:30:10.197Z,,0,,,4146.5250000014785,completion,,,,,false,,,,286256.8999999985,286256.6000000015,282093.02,282106.1000000015,282110.075,286264.603,8,400,,,
trial,html.Screen,4_23_0,2023-09-15T21:30:13.149Z,,0,1,,2943.796999998507,response,ISIC_0065480.JPG,9,ISIC_3717983.JPG,ISIC_3717983.JPG,false,0,keypress(z),500,289208.8999999985,289208.3999999985,286248.387,286257,286264.603,289223.547,8,400,24,,ISIC_0065480.JPG
break,html.Screen,4_23_1,2023-09-15T21:30:13.152Z,,0,,,NaN,,,,,,false,,,,289211.6000000015,289211.19999999553,,289209.299999997,,289223.547,8,400,,,
break_continue,html.Screen,4_23_2,2023-09-15T21:30:13.152Z,,0,,,NaN,,,,,,false,,,,289212.19999999553,289212.1000000015,,289211.69999999553,,289223.547,8,400,,,
sequence,flow.Sequence,4_23,2023-09-15T21:30:13.153Z,,0,,,2947.4970000014873,completion,,,,,false,,,,289212.3999999985,289212.1000000015,286248.387,286257,286264.603,289223.547,8,400,,,
trial,html.Screen,4_24_0,2023-09-15T21:30:16.017Z,,0,1,,2852.7529999969993,response,ISIC_0058768.JPG,13,ISIC_8195528.JPG,ISIC_8195528.JPG,false,0,keypress(z),500,292076.799999997,292076.299999997,289207.05,289212.6000000015,289223.547,292099.059,8,400,25,,ISIC_0058768.JPG
break,html.Screen,4_24_1,2023-09-15T21:30:16.018Z,,0,,,NaN,,,,,,false,,,,292078.19999999553,292077.799999997,,292077.1000000015,,292099.059,8,400,,,
break_continue,html.Screen,4_24_2,2023-09-15T21:30:16.019Z,,0,,,NaN,,,,,,false,,,,292078.799999997,292078.6000000015,,292078.299999997,,292099.059,8,400,,,
sequence,flow.Sequence,4_24,2023-09-15T21:30:16.019Z,,0,,,2855.0530000014696,completion,,,,,false,,,,292078.8999999985,292078.6000000015,289207.05,289212.5,289223.547,292099.059,8,400,,,
trial,html.Screen,4_25_0,2023-09-15T21:30:18.886Z,,0,1,,2846.1409999955213,response,ISIC_0014925.JPG,5,ISIC_0674746.JPG,ISIC_0014925.JPG,false,1,keypress(m),500,294945.6000000015,294945.19999999553,292082.354,292079.1000000015,292099.059,294957.644,8,400,26,,ISIC_0674746.JPG
break,html.Screen,4_25_1,2023-09-15T21:30:18.888Z,,0,,,NaN,,,,,,false,,,,294948,294947.69999999553,,294946,,294957.644,8,400,,,
break_continue,html.Screen,4_25_2,2023-09-15T21:30:18.889Z,,0,,,NaN,,,,,,false,,,,294948.6000000015,294948.5,,294948.19999999553,,294957.644,8,400,,,
sequence,flow.Sequence,4_25,2023-09-15T21:30:18.889Z,,0,,,2849.4409999999916,completion,,,,,false,,,,294948.799999997,294948.5,292082.354,292079,292099.059,294957.644,8,400,,,
trial,html.Screen,4_26_0,2023-09-15T21:30:22.498Z,,0,1,,3599.456000001519,response,ISIC_5747486.JPG,5,ISIC_0027411.JPG,ISIC_0027411.JPG,false,0,keypress(z),500,298557.3999999985,298557.1000000015,294941.479,294949,294957.644,298564.994,8,400,27,,ISIC_5747486.JPG
break,html.Screen,4_26_1,2023-09-15T21:30:22.499Z,,0,,,NaN,,,,,,false,,,,298559.19999999553,298558.8999999985,,298557.69999999553,,298564.994,8,400,,,
break_continue,html.Screen,4_26_2,2023-09-15T21:30:22.500Z,,0,,,NaN,,,,,,false,,,,298559.69999999553,298559.6000000015,,298559.3999999985,,298564.994,8,400,,,
sequence,flow.Sequence,4_26,2023-09-15T21:30:22.500Z,,0,,,3601.956000001519,completion,,,,,false,,,,298559.8999999985,298559.6000000015,294941.479,294948.8999999985,294957.644,298564.994,8,400,,,
trial,html.Screen,4_27_0,2023-09-15T21:30:26.847Z,,0,1,,4341.606000001484,response,ISIC_9232153.JPG,8,ISIC_1040340.JPG,ISIC_9232153.JPG,false,1,keypress(m),500,302907,302906.6000000015,298548.163,298559.8999999985,298564.994,302920.003,8,400,28,,ISIC_1040340.JPG
break,html.Screen,4_27_1,2023-09-15T21:30:26.849Z,,0,,,NaN,,,,,,false,,,,302909.3999999985,302909.19999999553,,302908.19999999553,,302920.003,8,400,,,
break_continue,html.Screen,4_27_2,2023-09-15T21:30:26.850Z,,0,,,NaN,,,,,,false,,,,302909.799999997,302909.799999997,,302909.5,,302920.003,8,400,,,
sequence,flow.Sequence,4_27,2023-09-15T21:30:26.850Z,,0,,,4344.805999997014,completion,,,,,false,,,,302909.8999999985,302909.799999997,298548.163,298559.8999999985,298564.994,302920.003,8,400,,,
trial,html.Screen,4_28_0,2023-09-15T21:30:32.781Z,,0,1,,5920.396999998484,response,ISIC_0033802.JPG,5,ISIC_2372468.JPG,ISIC_2372468.JPG,false,0,keypress(z),500,308840.799999997,308840.3999999985,302904.274,302910,302920.003,308853.068,8,400,29,,ISIC_0033802.JPG
break,html.Screen,4_28_1,2023-09-15T21:30:32.782Z,,0,,,NaN,,,,,,false,,,,308842.3999999985,308842.19999999553,,308840.8999999985,,308853.068,8,400,,,
break_continue,html.Screen,4_28_2,2023-09-15T21:30:32.783Z,,0,,,NaN,,,,,,false,,,,308842.799999997,308842.69999999553,,308842.5,,308853.068,8,400,,,
sequence,flow.Sequence,4_28,2023-09-15T21:30:32.783Z,,0,,,5922.696999995504,completion,,,,,false,,,,308842.799999997,308842.69999999553,302904.274,302910,302920.003,308853.068,8,400,,,
trial,html.Screen,4_29_0,2023-09-15T21:30:36.086Z,,0,1,,3292.8319999984815,response,ISIC_0030657.JPG,9,ISIC_2085855.JPG,ISIC_2085855.JPG,false,0,keypress(z),500,312146.19999999553,312145.8999999985,308836.733,308843,308853.068,312161.297,8,400,30,,ISIC_0030657.JPG
break,html.Screen,4_29_1,2023-09-15T21:30:36.088Z,,0,,,NaN,,,,,,false,,,,312148.1000000015,312147.799999997,,312146.3999999985,,312161.297,8,400,,,
break_continue,html.Screen,4_29_2,2023-09-15T21:30:36.089Z,,0,,,NaN,,,,,,false,,,,312148.6000000015,312148.3999999985,,312148.19999999553,,312161.297,8,400,,,
sequence,flow.Sequence,4_29,2023-09-15T21:30:36.089Z,,0,,,3295.3319999984815,completion,,,,,false,,,,312148.69999999553,312148.3999999985,308836.733,308843,308853.068,312161.297,8,400,,,
trial,html.Screen,4_30_0,2023-09-15T21:30:39.515Z,,0,1,,3413.1029999984894,response,ISIC_0061371.JPG,10,ISIC_0069124.JPG,ISIC_0069124.JPG,false,0,keypress(z),500,315574.69999999553,315574.3999999985,312144.55,312148.799999997,312161.297,315584.7,8,400,31,,ISIC_0061371.JPG
break,html.Screen,4_30_1,2023-09-15T21:30:39.516Z,,0,,,NaN,,,,,,false,,,,315576,315575.8999999985,,315574.799999997,,315584.7,8,400,,,
break_continue,html.Screen,4_30_2,2023-09-15T21:30:39.516Z,,0,,,NaN,,,,,,false,,,,315576.5,315576.299999997,,315576.19999999553,,315584.7,8,400,,,
sequence,flow.Sequence,4_30,2023-09-15T21:30:39.517Z,,0,,,3415.0029999969993,completion,,,,,false,,,,315576.5,315576.299999997,312144.55,312148.799999997,312161.297,315584.7,8,400,,,
trial,html.Screen,4_31_0,2023-09-15T21:30:42.196Z,,0,1,,2670.599999997008,response,ISIC_0032265.JPG,8,ISIC_0069248.JPG,ISIC_0032265.JPG,false,1,keypress(m),500,318255.69999999553,318255.299999997,315568.268,315576.6000000015,315584.7,318260.677,8,400,32,,ISIC_0069248.JPG
break,html.Screen,4_31_1,2023-09-15T21:30:42.198Z,,0,,,NaN,,,,,,false,,,,318258.1000000015,318257.799999997,,318256.1000000015,,318260.677,8,400,,,
break_continue,html.Screen,4_31_2,2023-09-15T21:30:42.199Z,,0,,,NaN,,,,,,false,,,,318258.69999999553,318258.6000000015,,318258.299999997,,318260.677,8,400,,,
sequence,flow.Sequence,4_31,2023-09-15T21:30:42.199Z,,0,,,2673.9000000014785,completion,,,,,false,,,,318258.8999999985,318258.6000000015,315568.268,315576.6000000015,315584.7,318260.677,8,400,,,
trial,html.Screen,4_32_0,2023-09-15T21:30:45.249Z,,0,1,,3047.5229999955045,response,ISIC_0068950.JPG,5,ISIC_3552318.JPG,ISIC_3552318.JPG,false,0,keypress(z),500,321308.6000000015,321308.19999999553,318244.302,318259.1000000015,318260.677,321320.245,8,400,33,,ISIC_0068950.JPG
break,html.Screen,4_32_1,2023-09-15T21:30:45.252Z,,0,,,NaN,,,,,,false,,,,321312,321310.5,,321308.8999999985,,321320.245,8,400,,,
break_continue,html.Screen,4_32_2,2023-09-15T21:30:45.253Z,,0,,,NaN,,,,,,false,,,,321312.6000000015,321312.3999999985,,321312.19999999553,,321320.245,8,400,,,
sequence,flow.Sequence,4_32,2023-09-15T21:30:45.253Z,,0,,,3051.7229999984847,completion,,,,,false,,,,321312.799999997,321312.3999999985,318244.302,318259,318260.677,321320.245,8,400,,,
trial,html.Screen,4_33_0,2023-09-15T21:30:51.225Z,,0,1,,5964.1549999985145,response,ISIC_2391053.JPG,9,ISIC_3025889.JPG,ISIC_3025889.JPG,false,0,keypress(z),500,327284.69999999553,327284.3999999985,321302.913,321312.8999999985,321320.245,327308.151,8,400,34,,ISIC_2391053.JPG
break,html.Screen,4_33_1,2023-09-15T21:30:51.227Z,,0,,,NaN,,,,,,false,,,,327286.5,327286.299999997,,327285,,327308.151,8,400,,,
break_continue,html.Screen,4_33_2,2023-09-15T21:30:51.227Z,,0,,,NaN,,,,,,false,,,,327286.8999999985,327286.799999997,,327286.6000000015,,327308.151,8,400,,,
sequence,flow.Sequence,4_33,2023-09-15T21:30:51.227Z,,0,,,5966.554999997024,completion,,,,,false,,,,327287,327286.799999997,321302.913,321312.799999997,321320.245,327308.151,8,400,,,
trial,html.Screen,4_34_0,2023-09-15T21:30:54.039Z,,0,1,,2790.148999997007,response,ISIC_7623407.JPG,5,ISIC_4312841.JPG,ISIC_7623407.JPG,false,1,keypress(m),500,330098.5,330098.299999997,327270.297,327287.19999999553,327308.151,330112.072,8,400,35,,ISIC_4312841.JPG
break,html.Screen,4_34_1,2023-09-15T21:30:54.040Z,,0,,,NaN,,,,,,false,,,,330100.1000000015,330099.8999999985,,330098.799999997,,330112.072,8,400,,,
break_continue,html.Screen,4_34_2,2023-09-15T21:30:54.041Z,,0,,,NaN,,,,,,false,,,,330100.6000000015,330100.5,,330100.299999997,,330112.072,8,400,,,
sequence,flow.Sequence,4_34,2023-09-15T21:30:54.041Z,,0,,,2792.3489999999874,completion,,,,,false,,,,330100.69999999553,330100.5,327270.297,327287.1000000015,327308.151,330112.072,8,400,,,
trial,html.Screen,4_35_0,2023-09-15T21:30:56.930Z,,0,1,,2877.9280000000144,response,ISIC_4533833.JPG,6,ISIC_0327406.JPG,ISIC_0327406.JPG,false,0,keypress(z),500,332990.19999999553,332990,330095.248,330100.799999997,330112.072,333004.84,8,400,36,,ISIC_4533833.JPG
break,html.Screen,4_35_1,2023-09-15T21:30:56.932Z,,0,,,NaN,,,,,,false,,,,332992.19999999553,332992,,332990.5,,333004.84,8,400,,,
break_continue,html.Screen,4_35_2,2023-09-15T21:30:56.933Z,,0,,,NaN,,,,,,false,,,,332992.6000000015,332992.6000000015,,332992.3999999985,,333004.84,8,400,,,
sequence,flow.Sequence,4_35,2023-09-15T21:30:56.933Z,,0,,,2880.5280000015046,completion,,,,,false,,,,332992.799999997,332992.6000000015,330095.248,330100.799999997,330112.072,333004.84,8,400,,,
trial,html.Screen,4_36_0,2023-09-15T21:31:00.083Z,,0,1,,3138.1599999999744,response,ISIC_1197584.JPG,10,ISIC_4715386.JPG,ISIC_4715386.JPG,false,0,keypress(z),500,336143.299999997,336143,332987.313,332992.8999999985,333004.84,336145.339,8,400,37,,ISIC_1197584.JPG
break,html.Screen,4_36_1,2023-09-15T21:31:00.086Z,,0,,,NaN,,,,,,false,,,,336146.19999999553,336146,,336143.6000000015,,336145.339,8,400,,,
break_continue,html.Screen,4_36_2,2023-09-15T21:31:00.087Z,,0,,,NaN,,,,,,false,,,,336146.69999999553,336146.6000000015,,336146.3999999985,,336145.339,8,400,,,
sequence,flow.Sequence,4_36,2023-09-15T21:31:00.087Z,,0,,,3141.7600000014645,completion,,,,,false,,,,336146.799999997,336146.6000000015,332987.313,332992.799999997,333004.84,336145.339,8,400,,,
trial,html.Screen,4_37_0,2023-09-15T21:31:03.101Z,,0,1,,3014.9609999970417,response,ISIC_6101007.JPG,8,ISIC_9199158.JPG,ISIC_9199158.JPG,false,0,keypress(z),500,339160.69999999553,339160.299999997,336129.027,336146.8999999985,336145.339,339170.369,8,400,38,,ISIC_6101007.JPG
break,html.Screen,4_37_1,2023-09-15T21:31:03.103Z,,0,,,NaN,,,,,,false,,,,339162.8999999985,339162.6000000015,,339161.1000000015,,339170.369,8,400,,,
break_continue,html.Screen,4_37_2,2023-09-15T21:31:03.104Z,,0,,,NaN,,,,,,false,,,,339163.5,339163.299999997,,339163.1000000015,,339170.369,8,400,,,
sequence,flow.Sequence,4_37,2023-09-15T21:31:03.104Z,,0,,,3017.9609999970417,completion,,,,,false,,,,339163.69999999553,339163.299999997,336129.027,336146.799999997,336145.339,339170.369,8,400,,,
trial,html.Screen,4_38_0,2023-09-15T21:31:05.944Z,,0,1,,2833.731000001484,response,ISIC_0011733.JPG,9,ISIC_2345504.JPG,ISIC_2345504.JPG,false,0,keypress(z),500,342004.3999999985,342004.1000000015,339154.08,339163.799999997,339170.369,342013.349,8,400,39,,ISIC_0011733.JPG
break,html.Screen,4_38_1,2023-09-15T21:31:05.947Z,,0,,,NaN,,,,,,false,,,,342007.19999999553,342006.69999999553,,342004.6000000015,,342013.349,8,400,,,
break_continue,html.Screen,4_38_2,2023-09-15T21:31:05.948Z,,0,,,NaN,,,,,,false,,,,342007.5,342007.5,,342007.299999997,,342013.349,8,400,,,
sequence,flow.Sequence,4_38,2023-09-15T21:31:05.948Z,,0,,,2837.130999999994,completion,,,,,false,,,,342007.69999999553,342007.5,339154.08,339163.799999997,339170.369,342013.349,8,400,,,
trial,html.Screen,4_39_0,2023-09-15T21:31:08.546Z,,0,1,,2592.1510000000126,response,ISIC_9802008.JPG,6,ISIC_1142962.JPG,ISIC_9802008.JPG,false,1,keypress(m),500,344605.69999999553,344605.5,341995.999,342007.799999997,342013.349,344622.891,8,400,40,,ISIC_1142962.JPG
break,html.Screen,4_39_1,2023-09-15T21:31:08.547Z,,0,,,NaN,,,,,,false,,,,344606.8999999985,344606.69999999553,,344605.799999997,,344622.891,8,400,,,
break_continue,html.Screen,4_39_2,2023-09-15T21:31:08.547Z,,0,,,NaN,,,,,,false,,,,344607,344607,,344606.8999999985,,344622.891,8,400,,,
sequence,flow.Sequence,4_39,2023-09-15T21:31:08.547Z,,0,,,2593.6510000000126,completion,,,,,false,,,,344607.1000000015,344607,341995.999,342007.69999999553,342013.349,344622.891,8,400,,,
trial,html.Screen,4_40_0,2023-09-15T21:31:11.863Z,,0,1,,3299.6089999999967,response,ISIC_6390738.JPG,5,ISIC_8292179.JPG,ISIC_6390738.JPG,false,1,keypress(m),500,347922.69999999553,347922.5,344605.601,344607.19999999553,344622.891,347930.712,8,400,41,,ISIC_8292179.JPG
break,html.Screen,4_40_1,2023-09-15T21:31:11.865Z,,0,,,NaN,,,,,,false,,,,347925.1000000015,347924.8999999985,,347922.799999997,,347930.712,8,400,,,
break_continue,html.Screen,4_40_2,2023-09-15T21:31:11.865Z,,0,,,NaN,,,,,,false,,,,347925.3999999985,347925.3999999985,,347925.19999999553,,347930.712,8,400,,,
sequence,flow.Sequence,4_40,2023-09-15T21:31:11.866Z,,0,,,3302.5089999985066,completion,,,,,false,,,,347925.6000000015,347925.3999999985,344605.601,344607.19999999553,344622.891,347930.712,8,400,,,
trial,html.Screen,4_41_0,2023-09-15T21:31:14.875Z,,0,1,,3004.1879999985103,response,ISIC_2998367.JPG,9,ISIC_4460849.JPG,ISIC_2998367.JPG,false,1,keypress(m),500,350935.19999999553,350934.8999999985,347913.148,347925.69999999553,347930.712,350938.212,8,400,42,,ISIC_4460849.JPG
break,html.Screen,4_41_1,2023-09-15T21:31:14.878Z,,0,,,NaN,,,,,,false,,,,350937.6000000015,350937.19999999553,,350935.6000000015,,350938.212,8,400,,,
break_continue,html.Screen,4_41_2,2023-09-15T21:31:14.879Z,,0,,,NaN,,,,,,false,,,,350938.799999997,350938,,350937.799999997,,350938.212,8,400,,,
sequence,flow.Sequence,4_41,2023-09-15T21:31:14.879Z,,0,,,3007.2880000000005,completion,,,,,false,,,,350939,350938,347913.148,347925.6000000015,347930.712,350938.212,8,400,,,
trial,html.Screen,4_42_0,2023-09-15T21:31:19.063Z,,0,1,,4184.08799999702,response,ISIC_0072631.JPG,8,ISIC_8650516.JPG,ISIC_8650516.JPG,false,0,keypress(z),500,355122.5,355122.299999997,350921.838,350939.19999999553,350938.212,355126.728,8,400,43,,ISIC_0072631.JPG
break,html.Screen,4_42_1,2023-09-15T21:31:19.064Z,,0,,,NaN,,,,,,false,,,,355123.69999999553,355123.3999999985,,355122.69999999553,,355126.728,8,400,,,
break_continue,html.Screen,4_42_2,2023-09-15T21:31:19.064Z,,0,,,NaN,,,,,,false,,,,355123.8999999985,355123.8999999985,,355123.799999997,,355126.728,8,400,,,
sequence,flow.Sequence,4_42,2023-09-15T21:31:19.064Z,,0,,,4185.68799999851,completion,,,,,false,,,,355124.1000000015,355123.8999999985,350921.838,350939.19999999553,350938.212,355126.728,8,400,,,
trial,html.Screen,4_43_0,2023-09-15T21:31:21.716Z,,0,1,,2648.671999998507,response,ISIC_5879789.JPG,12,ISIC_1805921.JPG,ISIC_1805921.JPG,false,0,keypress(z),500,357775.69999999553,357775.3999999985,355110.462,355124.1000000015,355126.728,357802.736,8,400,44,,ISIC_5879789.JPG
break,html.Screen,4_43_1,2023-09-15T21:31:21.717Z,,0,,,NaN,,,,,,false,,,,357776.6000000015,357776.3999999985,,357775.799999997,,357802.736,8,400,,,
break_continue,html.Screen,4_43_2,2023-09-15T21:31:21.717Z,,0,,,NaN,,,,,,false,,,,357777.299999997,357777.1000000015,,357777,,357802.736,8,400,,,
sequence,flow.Sequence,4_43,2023-09-15T21:31:21.717Z,,0,,,2650.3720000014873,completion,,,,,false,,,,357777.3999999985,357777.1000000015,355110.462,355124.1000000015,355126.728,357802.736,8,400,,,
trial,html.Screen,4_44_0,2023-09-15T21:31:24.472Z,,0,1,,2728.5639999970444,response,ISIC_1543544.JPG,8,ISIC_0060829.JPG,ISIC_1543544.JPG,false,1,keypress(m),500,360531.69999999553,360531.299999997,357786.475,357777.5,357802.736,360545.289,8,400,45,,ISIC_0060829.JPG
break,html.Screen,4_44_1,2023-09-15T21:31:24.475Z,,0,,,NaN,,,,,,false,,,,360534.6000000015,360534.299999997,,360532,,360545.289,8,400,,,
break_continue,html.Screen,4_44_2,2023-09-15T21:31:24.475Z,,0,,,NaN,,,,,,false,,,,360535,360534.799999997,,360534.69999999553,,360545.289,8,400,,,
sequence,flow.Sequence,4_44,2023-09-15T21:31:24.475Z,,0,,,2732.0639999970444,completion,,,,,false,,,,360535.1000000015,360534.799999997,357786.475,357777.5,357802.736,360545.289,8,400,,,
trial,html.Screen,4_45_0,2023-09-15T21:31:27.218Z,,0,1,,2732.11099999852,response,ISIC_4216750.JPG,10,ISIC_4900077.JPG,ISIC_4900077.JPG,false,0,keypress(z),500,363277.69999999553,363277.3999999985,360529.17,360535.19999999553,360545.289,363287.935,8,400,46,,ISIC_4216750.JPG
break,html.Screen,4_45_1,2023-09-15T21:31:27.221Z,,0,,,NaN,,,,,,false,,,,363280.299999997,363280,,363278,,363287.935,8,400,,,
break_continue,html.Screen,4_45_2,2023-09-15T21:31:27.221Z,,0,,,NaN,,,,,,false,,,,363280.69999999553,363280.69999999553,,363280.5,,363287.935,8,400,,,
sequence,flow.Sequence,4_45,2023-09-15T21:31:27.221Z,,0,,,2735.41099999554,completion,,,,,false,,,,363280.8999999985,363280.69999999553,360529.17,360535.19999999553,360545.289,363287.935,8,400,,,
trial,html.Screen,4_46_0,2023-09-15T21:31:31.196Z,,0,1,,3967.464999998512,response,ISIC_0016112.JPG,12,ISIC_0025648.JPG,ISIC_0016112.JPG,false,1,keypress(m),500,367255.69999999553,367255.3999999985,363271.468,363281.1000000015,363287.935,367260.331,8,400,47,,ISIC_0025648.JPG
break,html.Screen,4_46_1,2023-09-15T21:31:31.197Z,,0,,,NaN,,,,,,false,,,,367257,367256.69999999553,,367255.8999999985,,367260.331,8,400,,,
break_continue,html.Screen,4_46_2,2023-09-15T21:31:31.198Z,,0,,,NaN,,,,,,false,,,,367257.299999997,367257.299999997,,367257.1000000015,,367260.331,8,400,,,
sequence,flow.Sequence,4_46,2023-09-15T21:31:31.198Z,,0,,,3969.364999997022,completion,,,,,false,,,,367257.3999999985,367257.299999997,363271.468,363281,363287.935,367260.331,8,400,,,
trial,html.Screen,4_47_0,2023-09-15T21:31:34.001Z,,0,1,,2799.968999997014,response,ISIC_0057420.JPG,7,ISIC_6913272.JPG,ISIC_0057420.JPG,false,1,keypress(m),500,370060.5,370060.299999997,367244.038,367257.5,367260.331,370069.501,8,400,48,,ISIC_6913272.JPG
break,html.Screen,4_47_1,2023-09-15T21:31:34.003Z,,0,,,NaN,,,,,,false,,,,370062.19999999553,370062,,370060.69999999553,,370069.501,8,400,,,
break_continue,html.Screen,4_47_2,2023-09-15T21:31:34.003Z,,0,,,NaN,,,,,,false,,,,370062.6000000015,370062.6000000015,,370062.3999999985,,370069.501,8,400,,,
sequence,flow.Sequence,4_47,2023-09-15T21:31:34.003Z,,0,,,2802.2690000014845,completion,,,,,false,,,,370062.799999997,370062.6000000015,367244.038,367257.3999999985,367260.331,370069.501,8,400,,,
trial,html.Screen,4_48_0,2023-09-15T21:31:36.751Z,,0,1,,2740.599000001501,response,ISIC_0069432.JPG,6,ISIC_0025231.JPG,ISIC_0025231.JPG,false,0,keypress(z),500,372810.5,372810.1000000015,370052.458,370062.8999999985,370069.501,372832.918,8,400,49,,ISIC_0069432.JPG
break,html.Screen,4_48_1,2023-09-15T21:31:36.753Z,,0,,,NaN,,,,,,false,,,,372812.5,372812.19999999553,,372810.799999997,,372832.918,8,400,,,
break_continue,html.Screen,4_48_2,2023-09-15T21:31:36.753Z,,0,,,NaN,,,,,,false,,,,372813,372812.8999999985,,372812.69999999553,,372832.918,8,400,,,
sequence,flow.Sequence,4_48,2023-09-15T21:31:36.754Z,,0,,,2743.3989999985206,completion,,,,,false,,,,372813.19999999553,372812.8999999985,370052.458,370062.799999997,370069.501,372832.918,8,400,,,
trial,html.Screen,4_49_0,2023-09-15T21:31:40.583Z,,0,1,,3809.081999999995,response,ISIC_0217267.JPG,13,ISIC_7747712.JPG,ISIC_0217267.JPG,false,1,keypress(m),500,376642.5,376642,372795.574,372813.3999999985,372832.918,376651.57,8,400,50,,ISIC_7747712.JPG
break,html.Screen,4_49_1,2023-09-15T21:31:50.583Z,,0,,,10005.92300000001,timeout,,,,,false,,,,386642.69999999553,386641.142,376635.084,376643.19999999553,376651.57,386657.493,8,400,,,
break_continue,html.Screen,4_49_2,2023-09-15T21:35:13.521Z,,0,,,202920.7069999955,response,,,,,false,continue,keypress(Space),,589583.1000000015,589578.1999999955,386641.142,386642.8999999985,386657.493,589613.216,8,400,,,
sequence,flow.Sequence,4_49,2023-09-15T21:35:13.521Z,,0,,,216745.28199999552,completion,,,,,false,,,,589583.1000000015,589578.1999999955,372795.574,372813.299999997,372832.918,589613.216,8,400,,,
trial,html.Screen,4_50_0,2023-09-15T21:35:17.349Z,,0,2,,3797.283999999985,response,ISIC_0013365.JPG,0,ISIC_8935085.JPG,ISIC_0013365.JPG,false,1,keypress(m),500,593411,593410.5,589596.595,589583.1999999955,589613.216,593419.481,8,400,1,,ISIC_8935085.JPG
break,html.Screen,4_50_1,2023-09-15T21:35:17.351Z,,0,,,NaN,,,,,,false,,,,593413.5,593413.1000000015,,593411.299999997,,593419.481,8,400,,,
break_continue,html.Screen,4_50_2,2023-09-15T21:35:17.352Z,,0,,,NaN,,,,,,false,,,,593414.1000000015,593414,,593413.6999999955,,593419.481,8,400,,,
sequence,flow.Sequence,4_50,2023-09-15T21:35:17.352Z,,0,,,3800.783999999985,completion,,,,,false,,,,593414.299999997,593414,589596.595,589583.1999999955,589613.216,593419.481,8,400,,,
trial,html.Screen,4_51_0,2023-09-15T21:35:21.109Z,,0,2,,3751.718999995501,response,ISIC_2597678.JPG,10,ISIC_0030238.JPG,ISIC_2597678.JPG,false,1,keypress(m),500,597171.6999999955,597171.1999999955,593402.717,593414.5,593419.481,597175.544,8,400,2,,ISIC_0030238.JPG
break,html.Screen,4_51_1,2023-09-15T21:35:21.112Z,,0,,,NaN,,,,,,false,,,,597174.1999999955,597173.6999999955,,597172,,597175.544,8,400,,,
break_continue,html.Screen,4_51_2,2023-09-15T21:35:21.113Z,,0,,,NaN,,,,,,false,,,,597174.799999997,597174.6000000015,,597174.299999997,,597175.544,8,400,,,
sequence,flow.Sequence,4_51,2023-09-15T21:35:21.113Z,,0,,,3755.1190000014612,completion,,,,,false,,,,597174.8999999985,597174.6000000015,593402.717,593414.5,593419.481,597175.544,8,400,,,
trial,html.Screen,4_52_0,2023-09-15T21:35:24.300Z,,0,2,,3186.7559999970254,response,ISIC_0028573.JPG,6,ISIC_0031941.JPG,ISIC_0028573.JPG,false,1,keypress(m),500,600362.6999999955,600362.299999997,597159.306,597175,597175.544,600366.825,8,400,3,,ISIC_0031941.JPG
break,html.Screen,4_52_1,2023-09-15T21:35:24.303Z,,0,,,NaN,,,,,,false,,,,600365.1999999955,600364.799999997,,600363,,600366.825,8,400,,,
break_continue,html.Screen,4_52_2,2023-09-15T21:35:24.304Z,,0,,,NaN,,,,,,false,,,,600365.8999999985,600365.6999999955,,600365.299999997,,600366.825,8,400,,,
sequence,flow.Sequence,4_52,2023-09-15T21:35:24.316Z,,0,,,3190.1559999955352,completion,,,,,false,,,,600378.299999997,600365.6999999955,597159.306,597175,597175.544,600366.825,8,400,,,
trial,html.Screen,4_53_0,2023-09-15T21:35:30.146Z,,0,2,,5840.874999995576,response,ISIC_5377977.JPG,13,ISIC_0025611.JPG,ISIC_0025611.JPG,false,0,keypress(z),500,606208,606207.6999999955,600350.43,600378.299999997,600366.825,606218.077,8,400,4,,ISIC_5377977.JPG
break,html.Screen,4_53_1,2023-09-15T21:35:30.147Z,,0,,,NaN,,,,,,false,,,,606209.5,606209.3999999985,,606208.1999999955,,606218.077,8,400,,,
break_continue,html.Screen,4_53_2,2023-09-15T21:35:30.148Z,,0,,,NaN,,,,,,false,,,,606209.8999999985,606209.8999999985,,606209.6999999955,,606218.077,8,400,,,
sequence,flow.Sequence,4_53,2023-09-15T21:35:30.148Z,,0,,,5843.074999998556,completion,,,,,false,,,,606210.1000000015,606209.8999999985,600350.43,600378.299999997,600366.825,606218.077,8,400,,,
trial,html.Screen,4_54_0,2023-09-15T21:35:33.469Z,,0,2,,3312.4229999999516,response,ISIC_6398283.JPG,5,ISIC_0031295.JPG,ISIC_6398283.JPG,false,1,keypress(m),500,609530.799999997,609530.5,606201.067,606210.1000000015,606218.077,609542.707,8,400,5,,ISIC_0031295.JPG
break,html.Screen,4_54_1,2023-09-15T21:35:33.470Z,,0,,,NaN,,,,,,false,,,,609532.6000000015,609532.299999997,,609531,,609542.707,8,400,,,
break_continue,html.Screen,4_54_2,2023-09-15T21:35:33.471Z,,0,,,NaN,,,,,,false,,,,609533.1000000015,609533,,609532.6999999955,,609542.707,8,400,,,
sequence,flow.Sequence,4_54,2023-09-15T21:35:33.471Z,,0,,,3314.9229999999516,completion,,,,,false,,,,609533.1999999955,609533,606201.067,606210.1000000015,606218.077,609542.707,8,400,,,
trial,html.Screen,4_55_0,2023-09-15T21:35:36.518Z,,0,2,,3037.5929999969667,response,ISIC_1806179.JPG,13,ISIC_5315486.JPG,ISIC_5315486.JPG,false,0,keypress(z),500,612580.6000000015,612580.299999997,609526.126,609533.299999997,609542.707,612583.475,8,400,6,,ISIC_1806179.JPG
break,html.Screen,4_55_1,2023-09-15T21:35:36.520Z,,0,,,NaN,,,,,,false,,,,612582.1999999955,612582,,612580.799999997,,612583.475,8,400,,,
break_continue,html.Screen,4_55_2,2023-09-15T21:35:36.520Z,,0,,,NaN,,,,,,false,,,,612582.6000000015,612582.6000000015,,612582.299999997,,612583.475,8,400,,,
sequence,flow.Sequence,4_55,2023-09-15T21:35:36.521Z,,0,,,3039.893000001437,completion,,,,,false,,,,612582.799999997,612582.6000000015,609526.126,609533.1999999955,609542.707,612583.475,8,400,,,
trial,html.Screen,4_56_0,2023-09-15T21:35:40.850Z,,0,2,,4328.224999995553,response,ISIC_0013636.JPG,10,ISIC_4384861.JPG,ISIC_4384861.JPG,false,0,keypress(z),500,616912,616911.6999999955,612567.227,612582.8999999985,612583.475,616921.724,8,400,7,,ISIC_0013636.JPG
break,html.Screen,4_56_1,2023-09-15T21:35:40.852Z,,0,,,NaN,,,,,,false,,,,616913.799999997,616913.6000000015,,616912.1999999955,,616921.724,8,400,,,
break_continue,html.Screen,4_56_2,2023-09-15T21:35:40.852Z,,0,,,NaN,,,,,,false,,,,616914.1999999955,616914.1000000015,,616913.8999999985,,616921.724,8,400,,,
sequence,flow.Sequence,4_56,2023-09-15T21:35:40.852Z,,0,,,4330.625000001513,completion,,,,,false,,,,616914.299999997,616914.1000000015,612567.227,612582.8999999985,612583.475,616921.724,8,400,,,
trial,html.Screen,4_57_0,2023-09-15T21:35:44.445Z,,0,2,,3585.075999996974,response,ISIC_1300967.JPG,8,ISIC_0068407.JPG,ISIC_0068407.JPG,false,0,keypress(z),500,620507.299999997,620506.799999997,616904.515,616914.5,616921.724,620511.862,8,400,8,,ISIC_1300967.JPG
break,html.Screen,4_57_1,2023-09-15T21:35:44.447Z,,0,,,NaN,,,,,,false,,,,620509.6000000015,620509.1999999955,,620507.6000000015,,620511.862,8,400,,,
break_continue,html.Screen,4_57_2,2023-09-15T21:35:44.448Z,,0,,,NaN,,,,,,false,,,,620510.1000000015,620510.1000000015,,620509.799999997,,620511.862,8,400,,,
sequence,flow.Sequence,4_57,2023-09-15T21:35:44.448Z,,0,,,3588.3760000014445,completion,,,,,false,,,,620510.299999997,620510.1000000015,616904.515,616914.3999999985,616921.724,620511.862,8,400,,,
trial,html.Screen,4_58_0,2023-09-15T21:35:47.369Z,,0,2,,2919.437999997055,response,ISIC_7365615.JPG,11,ISIC_6661904.JPG,ISIC_7365615.JPG,false,1,keypress(m),500,623431.6999999955,623431.299999997,620495.751,620510.5,620511.862,623437.25,8,400,9,,ISIC_6661904.JPG
break,html.Screen,4_58_1,2023-09-15T21:35:47.372Z,,0,,,NaN,,,,,,false,,,,623433.799999997,623433.5,,623432.1000000015,,623437.25,8,400,,,
break_continue,html.Screen,4_58_2,2023-09-15T21:35:47.372Z,,0,,,NaN,,,,,,false,,,,623434.3999999985,623434.299999997,,623434,,623437.25,8,400,,,
sequence,flow.Sequence,4_58,2023-09-15T21:35:47.372Z,,0,,,2922.437999997055,completion,,,,,false,,,,623434.6000000015,623434.299999997,620495.751,620510.3999999985,620511.862,623437.25,8,400,,,
trial,html.Screen,4_59_0,2023-09-15T21:35:53.154Z,,0,2,,5779.04999999702,response,ISIC_0029026.JPG,7,ISIC_5307086.JPG,ISIC_5307086.JPG,false,0,keypress(z),500,629216.6999999955,629216.299999997,623421.515,623434.6999999955,623437.25,629221.427,8,400,10,,ISIC_0029026.JPG
break,html.Screen,4_59_1,2023-09-15T21:35:53.156Z,,0,,,NaN,,,,,,false,,,,629218.6000000015,629218.3999999985,,629216.8999999985,,629221.427,8,400,,,
break_continue,html.Screen,4_59_2,2023-09-15T21:35:53.157Z,,0,,,NaN,,,,,,false,,,,629219.1000000015,629218.8999999985,,629218.799999997,,629221.427,8,400,,,
sequence,flow.Sequence,4_59,2023-09-15T21:35:53.157Z,,0,,,5781.64999999851,completion,,,,,false,,,,629219.299999997,629218.8999999985,623421.515,623434.6000000015,623437.25,629221.427,8,400,,,
trial,html.Screen,4_60_0,2023-09-15T21:35:56.559Z,,0,2,,3399.173000001465,response,ISIC_7702857.JPG,6,ISIC_0011700.JPG,ISIC_7702857.JPG,false,1,keypress(m),500,632620.8999999985,632620.6000000015,629205.23,629219.3999999985,629221.427,632629.745,8,400,11,,ISIC_0011700.JPG
break,html.Screen,4_60_1,2023-09-15T21:35:56.561Z,,0,,,NaN,,,,,,false,,,,632623.5,632623.299999997,,632621.299999997,,632629.745,8,400,,,
break_continue,html.Screen,4_60_2,2023-09-15T21:35:56.562Z,,0,,,NaN,,,,,,false,,,,632624.1000000015,632624,,632623.799999997,,632629.745,8,400,,,
sequence,flow.Sequence,4_60,2023-09-15T21:35:56.562Z,,0,,,3402.572999999975,completion,,,,,false,,,,632624.299999997,632624,629205.23,629219.3999999985,629221.427,632629.745,8,400,,,
trial,html.Screen,4_61_0,2023-09-15T21:36:01.973Z,,0,2,,5405.554999997024,response,ISIC_8397011.JPG,11,ISIC_7299025.JPG,ISIC_8397011.JPG,false,1,keypress(m),500,638035.6999999955,638035.299999997,632615.095,632624.3999999985,632629.745,638048.411,8,400,12,,ISIC_7299025.JPG
break,html.Screen,4_61_1,2023-09-15T21:36:01.976Z,,0,,,NaN,,,,,,false,,,,638038.1999999955,638037.799999997,,638036,,638048.411,8,400,,,
break_continue,html.Screen,4_61_2,2023-09-15T21:36:01.977Z,,0,,,NaN,,,,,,false,,,,638038.799999997,638038.6000000015,,638038.299999997,,638048.411,8,400,,,
sequence,flow.Sequence,4_61,2023-09-15T21:36:01.977Z,,0,,,5408.855000001495,completion,,,,,false,,,,638039,638038.6000000015,632615.095,632624.299999997,632629.745,638048.411,8,400,,,
trial,html.Screen,4_62_0,2023-09-15T21:36:04.899Z,,0,2,,2912.288999995566,response,ISIC_1793821.JPG,4,ISIC_1534391.JPG,ISIC_1534391.JPG,false,0,keypress(z),500,640961,640960.6999999955,638030.865,638039,638048.411,640973.134,8,400,13,,ISIC_1793821.JPG
break,html.Screen,4_62_1,2023-09-15T21:36:04.900Z,,0,,,NaN,,,,,,false,,,,640962.5,640962.299999997,,640961.1999999955,,640973.134,8,400,,,
break_continue,html.Screen,4_62_2,2023-09-15T21:36:04.901Z,,0,,,NaN,,,,,,false,,,,640962.8999999985,640962.799999997,,640962.6999999955,,640973.134,8,400,,,
sequence,flow.Sequence,4_62,2023-09-15T21:36:04.901Z,,0,,,2914.388999997056,completion,,,,,false,,,,640963,640962.799999997,638030.865,638039,638048.411,640973.134,8,400,,,
trial,html.Screen,4_63_0,2023-09-15T21:36:07.679Z,,0,2,,2767.665999997058,response,ISIC_4253346.JPG,5,ISIC_0033679.JPG,ISIC_4253346.JPG,false,1,keypress(m),500,643741.1999999955,643740.799999997,640956.228,640963,640973.134,643748.468,8,400,14,,ISIC_0033679.JPG
break,html.Screen,4_63_1,2023-09-15T21:36:07.681Z,,0,,,NaN,,,,,,false,,,,643743.6000000015,643743.1999999955,,643741.5,,643748.468,8,400,,,
break_continue,html.Screen,4_63_2,2023-09-15T21:36:07.682Z,,0,,,NaN,,,,,,false,,,,643744.1000000015,643744,,643743.799999997,,643748.468,8,400,,,
sequence,flow.Sequence,4_63,2023-09-15T21:36:07.682Z,,0,,,2770.866000000038,completion,,,,,false,,,,643744.3999999985,643744,640956.228,640963,640973.134,643748.468,8,400,,,
trial,html.Screen,4_64_0,2023-09-15T21:36:10.648Z,,0,2,,2958.9319999985164,response,ISIC_0029839.JPG,5,ISIC_0026141.JPG,ISIC_0026141.JPG,false,0,keypress(z),500,646707.6999999955,646707.3999999985,643732.4,643744.5,643748.468,646724.045,8,400,15,,ISIC_0029839.JPG
break,html.Screen,4_64_1,2023-09-15T21:36:10.650Z,,0,,,NaN,,,,,,false,,,,646710.1999999955,646709.8999999985,,646708.1000000015,,646724.045,8,400,,,
break_continue,html.Screen,4_64_2,2023-09-15T21:36:10.651Z,,0,,,NaN,,,,,,false,,,,646710.8999999985,646710.6000000015,,646710.3999999985,,646724.045,8,400,,,
sequence,flow.Sequence,4_64,2023-09-15T21:36:10.651Z,,0,,,2962.1320000014966,completion,,,,,false,,,,646711,646710.6000000015,643732.4,643744.5,643748.468,646724.045,8,400,,,
trial,html.Screen,4_65_0,2023-09-15T21:36:13.888Z,,0,2,,3223.6549999954877,response,ISIC_7075474.JPG,6,ISIC_7942881.JPG,ISIC_7075474.JPG,false,1,keypress(m),500,649948.1000000015,649947.6999999955,646707.494,646711.1000000015,646724.045,649965.074,8,400,16,,ISIC_7942881.JPG
break,html.Screen,4_65_1,2023-09-15T21:36:13.891Z,,0,,,NaN,,,,,,false,,,,649950.3999999985,649950.1000000015,,649948.5,,649965.074,8,400,,,
break_continue,html.Screen,4_65_2,2023-09-15T21:36:13.891Z,,0,,,NaN,,,,,,false,,,,649951,649950.8999999985,,649950.6999999955,,649965.074,8,400,,,
sequence,flow.Sequence,4_65,2023-09-15T21:36:13.891Z,,0,,,3226.854999998468,completion,,,,,false,,,,649951.1999999955,649950.8999999985,646707.494,646711.1000000015,646724.045,649965.074,8,400,,,
trial,html.Screen,4_66_0,2023-09-15T21:36:16.430Z,,0,2,,2524.5260000014678,response,ISIC_0001138.JPG,10,ISIC_0806303.JPG,ISIC_0806303.JPG,false,0,keypress(z),500,652490,652489.6000000015,649948.754,649951.299999997,649965.074,652512.675,8,400,17,,ISIC_0001138.JPG
break,html.Screen,4_66_1,2023-09-15T21:36:16.433Z,,0,,,NaN,,,,,,false,,,,652492.299999997,652492,,652490.299999997,,652512.675,8,400,,,
break_continue,html.Screen,4_66_2,2023-09-15T21:36:16.433Z,,0,,,NaN,,,,,,false,,,,652492.8999999985,652492.799999997,,652492.5,,652512.675,8,400,,,
sequence,flow.Sequence,4_66,2023-09-15T21:36:16.433Z,,0,,,2527.7259999969974,completion,,,,,false,,,,652493,652492.799999997,649948.754,649951.299999997,649965.074,652512.675,8,400,,,
trial,html.Screen,4_67_0,2023-09-15T21:36:19.019Z,,0,2,,2566.124999996973,response,ISIC_0663824.JPG,7,ISIC_0029303.JPG,ISIC_0663824.JPG,false,1,keypress(m),500,655079.1000000015,655078.799999997,652475.164,652493.1000000015,652512.675,655084.196,8,400,18,,ISIC_0029303.JPG
break,html.Screen,4_67_1,2023-09-15T21:36:19.021Z,,0,,,NaN,,,,,,false,,,,655080.5,655080.3999999985,,655079.1999999955,,655084.196,8,400,,,
break_continue,html.Screen,4_67_2,2023-09-15T21:36:19.021Z,,0,,,NaN,,,,,,false,,,,655080.8999999985,655080.8999999985,,655080.6999999955,,655084.196,8,400,,,
sequence,flow.Sequence,4_67,2023-09-15T21:36:19.021Z,,0,,,2568.2249999984633,completion,,,,,false,,,,655081,655080.8999999985,652475.164,652493.1000000015,652512.675,655084.196,8,400,,,
trial,html.Screen,4_68_0,2023-09-15T21:36:21.723Z,,0,2,,2698.1039999970235,response,ISIC_7206167.JPG,4,ISIC_9270367.JPG,ISIC_9270367.JPG,false,0,keypress(z),500,657782.6000000015,657782.299999997,655070.648,655081.1000000015,655084.196,657793.592,8,400,19,,ISIC_7206167.JPG
break,html.Screen,4_68_1,2023-09-15T21:36:21.725Z,,0,,,NaN,,,,,,false,,,,657784.799999997,657784.3999999985,,657782.8999999985,,657793.592,8,400,,,
break_continue,html.Screen,4_68_2,2023-09-15T21:36:21.725Z,,0,,,NaN,,,,,,false,,,,657785.1999999955,657785.1000000015,,657784.8999999985,,657793.592,8,400,,,
sequence,flow.Sequence,4_68,2023-09-15T21:36:21.726Z,,0,,,2700.904000001494,completion,,,,,false,,,,657785.299999997,657785.1000000015,655070.648,655081.1000000015,655084.196,657793.592,8,400,,,
trial,html.Screen,4_69_0,2023-09-15T21:36:24.722Z,,0,2,,2988.207999997074,response,ISIC_0003217.JPG,11,ISIC_0034262.JPG,ISIC_0003217.JPG,false,1,keypress(m),500,660782,660781.799999997,657777.29,657785.5,657793.592,660785.311,8,400,20,,ISIC_0034262.JPG
break,html.Screen,4_69_1,2023-09-15T21:36:24.724Z,,0,,,NaN,,,,,,false,,,,660783.8999999985,660783.6000000015,,660782.1000000015,,660785.311,8,400,,,
break_continue,html.Screen,4_69_2,2023-09-15T21:36:24.724Z,,0,,,NaN,,,,,,false,,,,660784.1999999955,660784.1999999955,,660783.8999999985,,660785.311,8,400,,,
sequence,flow.Sequence,4_69,2023-09-15T21:36:24.725Z,,0,,,2990.6079999955837,completion,,,,,false,,,,660784.3999999985,660784.1999999955,657777.29,657785.5,657793.592,660785.311,8,400,,,
trial,html.Screen,4_70_0,2023-09-15T21:36:27.790Z,,0,2,,3063.488999997033,response,ISIC_8023705.JPG,6,ISIC_1461068.JPG,ISIC_1461068.JPG,false,0,keypress(z),500,663849.3999999985,663848.799999997,660769.232,660784.3999999985,660785.311,663860.284,8,400,21,,ISIC_8023705.JPG
break,html.Screen,4_70_1,2023-09-15T21:36:27.793Z,,0,,,NaN,,,,,,false,,,,663852.3999999985,663852,,663849.8999999985,,663860.284,8,400,,,
break_continue,html.Screen,4_70_2,2023-09-15T21:36:27.793Z,,0,,,NaN,,,,,,false,,,,663853,663852.8999999985,,663852.6000000015,,663860.284,8,400,,,
sequence,flow.Sequence,4_70,2023-09-15T21:36:27.793Z,,0,,,3067.588999998523,completion,,,,,false,,,,663853.1999999955,663852.8999999985,660769.232,660784.3999999985,660785.311,663860.284,8,400,,,
trial,html.Screen,4_71_0,2023-09-15T21:36:30.502Z,,0,2,,2700.9159999955446,response,ISIC_1945381.JPG,11,ISIC_0025796.JPG,ISIC_1945381.JPG,false,1,keypress(m),500,666561.6999999955,666561.1999999955,663844.282,663853.3999999985,663860.284,666570.524,8,400,22,,ISIC_0025796.JPG
break,html.Screen,4_71_1,2023-09-15T21:36:30.504Z,,0,,,NaN,,,,,,false,,,,666564,666563.6000000015,,666561.8999999985,,666570.524,8,400,,,
break_continue,html.Screen,4_71_2,2023-09-15T21:36:30.505Z,,0,,,NaN,,,,,,false,,,,666564.5,666564.299999997,,666564.1000000015,,666570.524,8,400,,,
sequence,flow.Sequence,4_71,2023-09-15T21:36:30.505Z,,0,,,2704.0159999970347,completion,,,,,false,,,,666564.6999999955,666564.299999997,663844.282,663853.3999999985,663860.284,666570.524,8,400,,,
trial,html.Screen,4_72_0,2023-09-15T21:36:34.094Z,,0,2,,3583.0760000015143,response,ISIC_0072441.JPG,12,ISIC_1034397.JPG,ISIC_1034397.JPG,false,0,keypress(z),500,670153.8999999985,670153.6000000015,666555.932,666564.6999999955,666570.524,670159.842,8,400,23,,ISIC_0072441.JPG
break,html.Screen,4_72_1,2023-09-15T21:36:34.096Z,,0,,,NaN,,,,,,false,,,,670155.6000000015,670155.3999999985,,670154.1000000015,,670159.842,8,400,,,
break_continue,html.Screen,4_72_2,2023-09-15T21:36:34.096Z,,0,,,NaN,,,,,,false,,,,670156.1000000015,670156,,670155.799999997,,670159.842,8,400,,,
sequence,flow.Sequence,4_72,2023-09-15T21:36:34.096Z,,0,,,3585.476000000024,completion,,,,,false,,,,670156.1999999955,670156,666555.932,666564.6999999955,666570.524,670159.842,8,400,,,
trial,html.Screen,4_73_0,2023-09-15T21:36:37.624Z,,0,2,,3523.758000001544,response,ISIC_0029459.JPG,11,ISIC_7260013.JPG,ISIC_7260013.JPG,false,0,keypress(z),500,673683.8999999985,673683.6000000015,670143.269,670156.299999997,670159.842,673700.525,8,400,24,,ISIC_0029459.JPG
break,html.Screen,4_73_1,2023-09-15T21:36:37.626Z,,0,,,NaN,,,,,,false,,,,673686.1999999955,673686,,673684.1000000015,,673700.525,8,400,,,
break_continue,html.Screen,4_73_2,2023-09-15T21:36:37.627Z,,0,,,NaN,,,,,,false,,,,673686.6000000015,673686.5,,673686.3999999985,,673700.525,8,400,,,
sequence,flow.Sequence,4_73,2023-09-15T21:36:37.627Z,,0,,,3526.658000000054,completion,,,,,false,,,,673686.799999997,673686.5,670143.269,670156.299999997,670159.842,673700.525,8,400,,,
trial,html.Screen,4_74_0,2023-09-15T21:36:40.769Z,,0,2,,3127.7749999969965,response,ISIC_0013936.JPG,4,ISIC_3207651.JPG,ISIC_0013936.JPG,false,1,keypress(m),500,676828.6000000015,676828.299999997,673683.92,673686.799999997,673700.525,676841.933,8,400,25,,ISIC_3207651.JPG
break,html.Screen,4_74_1,2023-09-15T21:36:40.770Z,,0,,,NaN,,,,,,false,,,,676830.1000000015,676829.8999999985,,676828.799999997,,676841.933,8,400,,,
break_continue,html.Screen,4_74_2,2023-09-15T21:36:40.771Z,,0,,,NaN,,,,,,false,,,,676830.3999999985,676830.3999999985,,676830.1999999955,,676841.933,8,400,,,
sequence,flow.Sequence,4_74,2023-09-15T21:36:40.771Z,,0,,,3129.8749999984866,completion,,,,,false,,,,676830.5,676830.3999999985,673683.92,673686.799999997,673700.525,676841.933,8,400,,,
trial,html.Screen,4_75_0,2023-09-15T21:36:44.669Z,,0,2,,3886.067000000039,response,ISIC_0064559.JPG,7,ISIC_6653311.JPG,ISIC_6653311.JPG,false,0,keypress(z),500,680728.3999999985,680728,676825.427,676830.6000000015,676841.933,680730.96,8,400,26,,ISIC_0064559.JPG
break,html.Screen,4_75_1,2023-09-15T21:36:44.671Z,,0,,,NaN,,,,,,false,,,,680730.799999997,680730.299999997,,680728.799999997,,680730.96,8,400,,,
break_continue,html.Screen,4_75_2,2023-09-15T21:36:44.672Z,,0,,,NaN,,,,,,false,,,,680731.799999997,680731.6000000015,,680731.299999997,,680730.96,8,400,,,
sequence,flow.Sequence,4_75,2023-09-15T21:36:44.672Z,,0,,,3889.6670000015292,completion,,,,,false,,,,680732,680731.6000000015,676825.427,676830.6000000015,676841.933,680730.96,8,400,,,
trial,html.Screen,4_76_0,2023-09-15T21:36:48.906Z,,0,2,,4234.540000000037,response,ISIC_7562175.JPG,4,ISIC_1737600.JPG,ISIC_7562175.JPG,false,1,keypress(m),500,684965.8999999985,684965.5,680716.926,680732.1999999955,680730.96,684969.351,8,400,27,,ISIC_1737600.JPG
break,html.Screen,4_76_1,2023-09-15T21:36:48.908Z,,0,,,NaN,,,,,,false,,,,684967.299999997,684967.1000000015,,684966,,684969.351,8,400,,,
break_continue,html.Screen,4_76_2,2023-09-15T21:36:48.908Z,,0,,,NaN,,,,,,false,,,,684967.6999999955,684967.6000000015,,684967.3999999985,,684969.351,8,400,,,
sequence,flow.Sequence,4_76,2023-09-15T21:36:48.908Z,,0,,,4236.640000001527,completion,,,,,false,,,,684967.799999997,684967.6000000015,680716.926,680732.1000000015,680730.96,684969.351,8,400,,,
trial,html.Screen,4_77_0,2023-09-15T21:36:52.007Z,,0,2,,3097.148999999976,response,ISIC_0056271.JPG,5,ISIC_7839712.JPG,ISIC_7839712.JPG,false,0,keypress(z),500,688067,688066.5,684953.135,684967.8999999985,684969.351,688077.537,8,400,28,,ISIC_0056271.JPG
break,html.Screen,4_77_1,2023-09-15T21:36:52.010Z,,0,,,NaN,,,,,,false,,,,688069.6999999955,688069.3999999985,,688067.5,,688077.537,8,400,,,
break_continue,html.Screen,4_77_2,2023-09-15T21:36:52.011Z,,0,,,NaN,,,,,,false,,,,688070.299999997,688070.1000000015,,688069.8999999985,,688077.537,8,400,,,
sequence,flow.Sequence,4_77,2023-09-15T21:36:52.011Z,,0,,,3100.749000001466,completion,,,,,false,,,,688070.5,688070.1000000015,684953.135,684967.8999999985,684969.351,688077.537,8,400,,,
trial,html.Screen,4_78_0,2023-09-15T21:36:54.590Z,,0,2,,2572.2629999970086,response,ISIC_0034289.JPG,7,ISIC_0234248.JPG,ISIC_0234248.JPG,false,0,keypress(z),500,690650.1999999955,690649.799999997,688061.306,688070.6000000015,688077.537,690670.912,8,400,29,,ISIC_0034289.JPG
break,html.Screen,4_78_1,2023-09-15T21:36:54.592Z,,0,,,NaN,,,,,,false,,,,690651.5,690651.1000000015,,690650.5,,690670.912,8,400,,,
break_continue,html.Screen,4_78_2,2023-09-15T21:36:54.592Z,,0,,,NaN,,,,,,false,,,,690652,690651.8999999985,,690651.6999999955,,690670.912,8,400,,,
sequence,flow.Sequence,4_78,2023-09-15T21:36:54.592Z,,0,,,2574.3629999984987,completion,,,,,false,,,,690652.1000000015,690651.8999999985,688061.306,688070.6000000015,688077.537,690670.912,8,400,,,
trial,html.Screen,4_79_0,2023-09-15T21:36:57.445Z,,0,2,,2833.087999999989,response,ISIC_2470790.JPG,7,ISIC_3356776.JPG,ISIC_3356776.JPG,false,0,keypress(z),500,693504.5,693504,690653.908,690652.299999997,690670.912,693513.213,8,400,30,,ISIC_2470790.JPG
break,html.Screen,4_79_1,2023-09-15T21:36:57.447Z,,0,,,NaN,,,,,,false,,,,693506.6000000015,693506.299999997,,693504.6999999955,,693513.213,8,400,,,
break_continue,html.Screen,4_79_2,2023-09-15T21:36:57.447Z,,0,,,NaN,,,,,,false,,,,693507.1000000015,693506.8999999985,,693506.6999999955,,693513.213,8,400,,,
sequence,flow.Sequence,4_79,2023-09-15T21:36:57.447Z,,0,,,2835.9879999984987,completion,,,,,false,,,,693507.299999997,693506.8999999985,690653.908,690652.1999999955,690670.912,693513.213,8,400,,,
trial,html.Screen,4_80_0,2023-09-15T21:37:00.032Z,,0,2,,2578.586999997031,response,ISIC_6511689.JPG,6,ISIC_1711973.JPG,ISIC_6511689.JPG,false,1,keypress(m),500,696092,696091.799999997,693499.02,693507.3999999985,693513.213,696105.655,8,400,31,,ISIC_1711973.JPG
break,html.Screen,4_80_1,2023-09-15T21:37:00.034Z,,0,,,NaN,,,,,,false,,,,696093.299999997,696093.1000000015,,696092.1999999955,,696105.655,8,400,,,
break_continue,html.Screen,4_80_2,2023-09-15T21:37:00.034Z,,0,,,NaN,,,,,,false,,,,696093.6999999955,696093.6000000015,,696093.5,,696105.655,8,400,,,
sequence,flow.Sequence,4_80,2023-09-15T21:37:00.034Z,,0,,,2580.3870000015013,completion,,,,,false,,,,696093.799999997,696093.6000000015,693499.02,693507.3999999985,693513.213,696105.655,8,400,,,
trial,html.Screen,4_81_0,2023-09-15T21:37:03.354Z,,0,2,,3308.244999998482,response,ISIC_0034170.JPG,12,ISIC_4874581.JPG,ISIC_4874581.JPG,false,0,keypress(z),500,699414.1999999955,699413.8999999985,696089.447,696093.8999999985,696105.655,699430.319,8,400,32,,ISIC_0034170.JPG
break,html.Screen,4_81_1,2023-09-15T21:37:03.356Z,,0,,,NaN,,,,,,false,,,,699416,699415.6999999955,,699414.3999999985,,699430.319,8,400,,,
break_continue,html.Screen,4_81_2,2023-09-15T21:37:03.357Z,,0,,,NaN,,,,,,false,,,,699416.3999999985,699416.3999999985,,699416.1000000015,,699430.319,8,400,,,
sequence,flow.Sequence,4_81,2023-09-15T21:37:03.357Z,,0,,,3310.744999998482,completion,,,,,false,,,,699416.6000000015,699416.3999999985,696089.447,696093.8999999985,696105.655,699430.319,8,400,,,
trial,html.Screen,4_82_0,2023-09-15T21:37:06.548Z,,0,2,,3176.580999998492,response,ISIC_0029881.JPG,11,ISIC_2642873.JPG,ISIC_2642873.JPG,false,0,keypress(z),500,702607.3999999985,702606.8999999985,699413.415,699416.6000000015,699430.319,702621.557,8,400,33,,ISIC_0029881.JPG
break,html.Screen,4_82_1,2023-09-15T21:37:06.550Z,,0,,,NaN,,,,,,false,,,,702609.8999999985,702609.3999999985,,702607.6999999955,,702621.557,8,400,,,
break_continue,html.Screen,4_82_2,2023-09-15T21:37:06.551Z,,0,,,NaN,,,,,,false,,,,702610.5,702610.299999997,,702610,,702621.557,8,400,,,
sequence,flow.Sequence,4_82,2023-09-15T21:37:06.551Z,,0,,,3179.980999997002,completion,,,,,false,,,,702610.6999999955,702610.299999997,699413.415,699416.6000000015,699430.319,702621.557,8,400,,,
trial,html.Screen,4_83_0,2023-09-15T21:37:10.331Z,,0,2,,3768.84299999848,response,ISIC_9655520.JPG,10,ISIC_5557025.JPG,ISIC_5557025.JPG,false,0,keypress(z),500,706390.6000000015,706390.3999999985,702604.994,702610.799999997,702621.557,706394.296,8,400,34,,ISIC_9655520.JPG
break,html.Screen,4_83_1,2023-09-15T21:37:10.332Z,,0,,,NaN,,,,,,false,,,,706392.1000000015,706391.799999997,,706390.8999999985,,706394.296,8,400,,,
break_continue,html.Screen,4_83_2,2023-09-15T21:37:10.333Z,,0,,,NaN,,,,,,false,,,,706392.799999997,706392.6000000015,,706392.1999999955,,706394.296,8,400,,,
sequence,flow.Sequence,4_83,2023-09-15T21:37:10.333Z,,0,,,3771.0430000014603,completion,,,,,false,,,,706392.8999999985,706392.6000000015,702604.994,702610.6999999955,702621.557,706394.296,8,400,,,
trial,html.Screen,4_84_0,2023-09-15T21:37:14.532Z,,0,2,,4197.704000000027,response,ISIC_0059571.JPG,8,ISIC_4708642.JPG,ISIC_4708642.JPG,false,0,keypress(z),500,710592.299999997,710592,706378.172,706393.1000000015,706394.296,710600.001,8,400,35,,ISIC_0059571.JPG
break,html.Screen,4_84_1,2023-09-15T21:37:14.534Z,,0,,,NaN,,,,,,false,,,,710593.6000000015,710593.3999999985,,710592.5,,710600.001,8,400,,,
break_continue,html.Screen,4_84_2,2023-09-15T21:37:14.534Z,,0,,,NaN,,,,,,false,,,,710593.8999999985,710593.799999997,,710593.6999999955,,710600.001,8,400,,,
sequence,flow.Sequence,4_84,2023-09-15T21:37:14.534Z,,0,,,4199.503999997047,completion,,,,,false,,,,710594,710593.799999997,706378.172,706393,706394.296,710600.001,8,400,,,
trial,html.Screen,4_85_0,2023-09-15T21:37:18.672Z,,0,2,,4131.798999996972,response,ISIC_9822801.JPG,22,ISIC_0056677.JPG,ISIC_9822801.JPG,false,1,keypress(m),500,714732,714731.799999997,710583.347,710594.1000000015,710600.001,714738.163,8,400,36,,ISIC_0056677.JPG
break,html.Screen,4_85_1,2023-09-15T21:37:18.673Z,,0,,,NaN,,,,,,false,,,,714733.299999997,714732.8999999985,,714732.3999999985,,714738.163,8,400,,,
break_continue,html.Screen,4_85_2,2023-09-15T21:37:18.674Z,,0,,,NaN,,,,,,false,,,,714733.8999999985,714733.6999999955,,714733.5,,714738.163,8,400,,,
sequence,flow.Sequence,4_85,2023-09-15T21:37:18.674Z,,0,,,4133.698999995482,completion,,,,,false,,,,714734.1000000015,714733.6999999955,710583.347,710594.1000000015,710600.001,714738.163,8,400,,,
trial,html.Screen,4_86_0,2023-09-15T21:37:24.889Z,,0,2,,6210.736999998568,response,ISIC_9106601.JPG,10,ISIC_9955163.JPG,ISIC_9106601.JPG,false,1,keypress(m),500,720949.1999999955,720948.8999999985,714721.502,714734.1999999955,714738.163,720954.845,8,400,37,,ISIC_9955163.JPG
break,html.Screen,4_86_1,2023-09-15T21:37:24.891Z,,0,,,NaN,,,,,,false,,,,720950.5,720950.299999997,,720949.3999999985,,720954.845,8,400,,,
break_continue,html.Screen,4_86_2,2023-09-15T21:37:24.891Z,,0,,,NaN,,,,,,false,,,,720951.1000000015,720950.8999999985,,720950.6999999955,,720954.845,8,400,,,
sequence,flow.Sequence,4_86,2023-09-15T21:37:24.891Z,,0,,,6212.736999998568,completion,,,,,false,,,,720951.299999997,720950.8999999985,714721.502,714734.1000000015,714738.163,720954.845,8,400,,,
trial,html.Screen,4_87_0,2023-09-15T21:37:30.678Z,,0,2,,5782.755000001518,response,ISIC_9270367.JPG,8,ISIC_0000296.JPG,ISIC_9270367.JPG,false,1,keypress(m),500,726737.8999999985,726737.6000000015,720938.357,720951.3999999985,720954.845,726772.298,8,400,38,,ISIC_0000296.JPG
break,html.Screen,4_87_1,2023-09-15T21:37:30.680Z,,0,,,NaN,,,,,,false,,,,726739.6000000015,726739.3999999985,,726738.1000000015,,726772.298,8,400,,,
break_continue,html.Screen,4_87_2,2023-09-15T21:37:30.680Z,,0,,,NaN,,,,,,false,,,,726740,726739.8999999985,,726739.6999999955,,726772.298,8,400,,,
sequence,flow.Sequence,4_87,2023-09-15T21:37:30.680Z,,0,,,5785.054999998538,completion,,,,,false,,,,726740.1000000015,726739.8999999985,720938.357,720951.299999997,720954.845,726772.298,8,400,,,
trial,html.Screen,4_88_0,2023-09-15T21:37:34.641Z,,0,2,,3928.8020000015385,response,ISIC_0064875.JPG,9,ISIC_5287748.JPG,ISIC_5287748.JPG,false,0,keypress(z),500,730701.5,730701.1000000015,726755.732,726740.1999999955,726772.298,730712.646,8,400,39,,ISIC_0064875.JPG
break,html.Screen,4_88_1,2023-09-15T21:37:34.644Z,,0,,,NaN,,,,,,false,,,,730703.5,730703.299999997,,730701.799999997,,730712.646,8,400,,,
break_continue,html.Screen,4_88_2,2023-09-15T21:37:34.644Z,,0,,,NaN,,,,,,false,,,,730704.1000000015,730703.8999999985,,730703.6000000015,,730712.646,8,400,,,
sequence,flow.Sequence,4_88,2023-09-15T21:37:34.644Z,,0,,,3931.6019999985583,completion,,,,,false,,,,730704.1000000015,730703.8999999985,726755.732,726740.1999999955,726772.298,730712.646,8,400,,,
trial,html.Screen,4_89_0,2023-09-15T21:37:38.365Z,,0,2,,3712.05399999558,response,ISIC_0066935.JPG,8,ISIC_1453899.JPG,ISIC_1453899.JPG,false,0,keypress(z),500,734425,734424.6999999955,730695.048,730704.299999997,730712.646,734435.635,8,400,40,,ISIC_0066935.JPG
break,html.Screen,4_89_1,2023-09-15T21:37:38.367Z,,0,,,NaN,,,,,,false,,,,734426.6999999955,734426.3999999985,,734425.1999999955,,734435.635,8,400,,,
break_continue,html.Screen,4_89_2,2023-09-15T21:37:38.367Z,,0,,,NaN,,,,,,false,,,,734427.1999999955,734427,,734426.8999999985,,734435.635,8,400,,,
sequence,flow.Sequence,4_89,2023-09-15T21:37:38.367Z,,0,,,3714.3540000000503,completion,,,,,false,,,,734427.299999997,734427,730695.048,730704.1999999955,730712.646,734435.635,8,400,,,
trial,html.Screen,4_90_0,2023-09-15T21:37:41.672Z,,0,2,,3296.2649999985006,response,ISIC_8899350.JPG,11,ISIC_8082988.JPG,ISIC_8082988.JPG,false,0,keypress(z),500,737732.1999999955,737731.8999999985,734418.332,734427.3999999985,734435.635,737742.066,8,400,41,,ISIC_8899350.JPG
break,html.Screen,4_90_1,2023-09-15T21:37:41.674Z,,0,,,NaN,,,,,,false,,,,737734.299999997,737733.8999999985,,737732.5,,737742.066,8,400,,,
break_continue,html.Screen,4_90_2,2023-09-15T21:37:41.676Z,,0,,,NaN,,,,,,false,,,,737736.299999997,737734.6000000015,,737734.3999999985,,737742.066,8,400,,,
sequence,flow.Sequence,4_90,2023-09-15T21:37:41.676Z,,0,,,3298.965000001481,completion,,,,,false,,,,737736.5,737734.6000000015,734418.332,734427.3999999985,734435.635,737742.066,8,400,,,
trial,html.Screen,4_91_0,2023-09-15T21:37:45.193Z,,0,2,,3510.9340000000084,response,ISIC_8010862.JPG,8,ISIC_4540332.JPG,ISIC_8010862.JPG,false,1,keypress(m),500,741253.3999999985,741253,737725.86,737736.6000000015,737742.066,741265.947,8,400,42,,ISIC_4540332.JPG
break,html.Screen,4_91_1,2023-09-15T21:37:45.196Z,,0,,,NaN,,,,,,false,,,,741255.6999999955,741255.3999999985,,741253.799999997,,741265.947,8,400,,,
break_continue,html.Screen,4_91_2,2023-09-15T21:37:45.196Z,,0,,,NaN,,,,,,false,,,,741256.1999999955,741256.1000000015,,741255.8999999985,,741265.947,8,400,,,
sequence,flow.Sequence,4_91,2023-09-15T21:37:45.196Z,,0,,,3514.0340000014985,completion,,,,,false,,,,741256.3999999985,741256.1000000015,737725.86,737736.6000000015,737742.066,741265.947,8,400,,,
trial,html.Screen,4_92_0,2023-09-15T21:37:48.224Z,,0,2,,3018.252999995486,response,ISIC_2680588.JPG,1,ISIC_3474472.JPG,ISIC_3474472.JPG,false,0,keypress(z),500,744284.3999999985,744284.1999999955,741249.081,741256.5,741265.947,744307.848,8,400,43,,ISIC_2680588.JPG
break,html.Screen,4_92_1,2023-09-15T21:37:48.225Z,,0,,,NaN,,,,,,false,,,,744285.1999999955,744285.1000000015,,744284.6000000015,,744307.848,8,400,,,
break_continue,html.Screen,4_92_2,2023-09-15T21:37:48.226Z,,0,,,NaN,,,,,,false,,,,744285.6000000015,744285.3999999985,,744285.299999997,,744307.848,8,400,,,
sequence,flow.Sequence,4_92,2023-09-15T21:37:48.226Z,,0,,,3019.452999998466,completion,,,,,false,,,,744285.6000000015,744285.3999999985,741249.081,741256.5,741265.947,744307.848,8,400,,,
trial,html.Screen,4_93_0,2023-09-15T21:37:52.408Z,,0,2,,4160.252000001492,response,ISIC_7626256.JPG,6,ISIC_0032001.JPG,ISIC_0032001.JPG,false,0,keypress(z),500,748468.3999999985,748468.1000000015,744290.885,744285.6999999955,744307.848,748479.795,8,400,44,,ISIC_7626256.JPG
break,html.Screen,4_93_1,2023-09-15T21:37:52.410Z,,0,,,NaN,,,,,,false,,,,748470.1000000015,748469.799999997,,748468.6999999955,,748479.795,8,400,,,
break_continue,html.Screen,4_93_2,2023-09-15T21:37:52.411Z,,0,,,NaN,,,,,,false,,,,748470.5,748470.5,,748470.299999997,,748479.795,8,400,,,
sequence,flow.Sequence,4_93,2023-09-15T21:37:52.411Z,,0,,,4162.652000000002,completion,,,,,false,,,,748470.6999999955,748470.5,744290.885,744285.6999999955,744307.848,748479.795,8,400,,,
trial,html.Screen,4_94_0,2023-09-15T21:37:55.126Z,,0,2,,2705.704999999958,response,ISIC_0028692.JPG,12,ISIC_0057858.JPG,ISIC_0028692.JPG,false,1,keypress(m),500,751186,751185.5,748464.495,748470.6999999955,748479.795,751205.746,8,400,45,,ISIC_0057858.JPG
break,html.Screen,4_94_1,2023-09-15T21:37:55.127Z,,0,,,NaN,,,,,,false,,,,751187.3999999985,751187,,751186.299999997,,751205.746,8,400,,,
break_continue,html.Screen,4_94_2,2023-09-15T21:37:55.128Z,,0,,,NaN,,,,,,false,,,,751187.8999999985,751187.799999997,,751187.6000000015,,751205.746,8,400,,,
sequence,flow.Sequence,4_94,2023-09-15T21:37:55.128Z,,0,,,2708.004999996978,completion,,,,,false,,,,751188.1000000015,751187.799999997,748464.495,748470.6999999955,748479.795,751205.746,8,400,,,
trial,html.Screen,4_95_0,2023-09-15T21:37:57.988Z,,0,2,,2840.053999996977,response,ISIC_7293518.JPG,11,ISIC_0066492.JPG,ISIC_7293518.JPG,false,1,keypress(m),500,754048.1999999955,754045.799999997,751188.812,751188.1999999955,751205.746,754064.633,8,400,46,,ISIC_0066492.JPG
break,html.Screen,4_95_1,2023-09-15T21:37:57.990Z,,0,,,NaN,,,,,,false,,,,754050.299999997,754050,,754048.5,,754064.633,8,400,,,
break_continue,html.Screen,4_95_2,2023-09-15T21:37:57.991Z,,0,,,NaN,,,,,,false,,,,754050.6999999955,754050.6000000015,,754050.3999999985,,754064.633,8,400,,,
sequence,flow.Sequence,4_95,2023-09-15T21:37:57.991Z,,0,,,2844.8540000014473,completion,,,,,false,,,,754050.8999999985,754050.6000000015,751188.812,751188.1999999955,751205.746,754064.633,8,400,,,
trial,html.Screen,4_96_0,2023-09-15T21:38:02.394Z,,0,2,,4389.166999996989,response,ISIC_3343475.JPG,8,ISIC_0000482.JPG,ISIC_0000482.JPG,false,0,keypress(z),500,758454.1999999955,758453.799999997,754047.744,754051,754064.633,758486.379,8,400,47,,ISIC_3343475.JPG
break,html.Screen,4_96_1,2023-09-15T21:38:02.395Z,,0,,,NaN,,,,,,false,,,,758455.299999997,758455,,758454.3999999985,,758486.379,8,400,,,
break_continue,html.Screen,4_96_2,2023-09-15T21:38:02.396Z,,0,,,NaN,,,,,,false,,,,758455.799999997,758455.6999999955,,758455.3999999985,,758486.379,8,400,,,
sequence,flow.Sequence,4_96,2023-09-15T21:38:02.396Z,,0,,,4391.066999995499,completion,,,,,false,,,,758455.8999999985,758455.6999999955,754047.744,754050.8999999985,754064.633,758486.379,8,400,,,
trial,html.Screen,4_97_0,2023-09-15T21:38:05.237Z,,0,2,,2810.4209999970626,response,ISIC_0061941.JPG,12,ISIC_4197990.JPG,ISIC_4197990.JPG,false,0,keypress(z),500,761297.1999999955,761296.799999997,758469.067,758456.1000000015,758486.379,761311.487,8,400,48,,ISIC_0061941.JPG
break,html.Screen,4_97_1,2023-09-15T21:38:05.239Z,,0,,,NaN,,,,,,false,,,,761298.8999999985,761298.799999997,,761297.299999997,,761311.487,8,400,,,
break_continue,html.Screen,4_97_2,2023-09-15T21:38:05.239Z,,0,,,NaN,,,,,,false,,,,761299.3999999985,761299.299999997,,761299.1000000015,,761311.487,8,400,,,
sequence,flow.Sequence,4_97,2023-09-15T21:38:05.240Z,,0,,,2812.9209999970626,completion,,,,,false,,,,761299.5,761299.299999997,758469.067,758456.1000000015,758486.379,761311.487,8,400,,,
trial,html.Screen,4_98_0,2023-09-15T21:38:12.309Z,,0,2,,7057.312999997055,response,ISIC_1294049.JPG,6,ISIC_3760796.JPG,ISIC_3760796.JPG,false,0,keypress(z),500,768368.8999999985,768368.799999997,761294.89,761299.6000000015,761311.487,768391.841,8,400,49,,ISIC_1294049.JPG
break,html.Screen,4_98_1,2023-09-15T21:38:12.310Z,,0,,,NaN,,,,,,false,,,,768369.8999999985,768369.799999997,,768369.1000000015,,768391.841,8,400,,,
break_continue,html.Screen,4_98_2,2023-09-15T21:38:12.310Z,,0,,,NaN,,,,,,false,,,,768370.1000000015,768370.1000000015,,768370,,768391.841,8,400,,,
sequence,flow.Sequence,4_98,2023-09-15T21:38:12.310Z,,0,,,7058.6130000015255,completion,,,,,false,,,,768370.1999999955,768370.1000000015,761294.89,761299.6000000015,761311.487,768391.841,8,400,,,
trial,html.Screen,4_99_0,2023-09-15T21:38:15.691Z,,0,2,,3358.958999997005,response,ISIC_0057484.JPG,10,ISIC_0026407.JPG,ISIC_0026407.JPG,false,0,keypress(z),500,771751,771750.799999997,768375.227,768370.299999997,768391.841,771766.519,8,400,50,,ISIC_0057484.JPG
break,html.Screen,4_99_1,2023-09-15T21:38:25.696Z,,0,,,10005.476000000024,timeout,,,,,false,,,,781755.8999999985,781755.379,771749.765,771751.299999997,771766.519,781771.995,8,400,,,
break_continue,html.Screen,4_99_2,2023-09-15T21:44:02.782Z,,0,,,337048.005,response,,,,,false,continue,keypress(Space),,1118845.799999997,1118820,781755.379,781756.1000000015,781771.995,1118852.528,8,400,,,
sequence,flow.Sequence,4_99,2023-09-15T21:44:02.782Z,,0,,,350428.159,completion,,,,,false,,,,1118846.1000000015,1118820,768375.227,768370.1999999955,768391.841,1118852.528,8,400,,,
trial,html.Screen,4_100_0,2023-09-15T21:44:06.342Z,,0,3,,3553.472000000067,response,ISIC_0063988.JPG,9,ISIC_0064270.JPG,ISIC_0063988.JPG,false,1,keypress(m),500,1122406.5,1122406,1118836.011,1118846.1999999955,1118852.528,1122409.509,8,400,1,,ISIC_0064270.JPG
break,html.Screen,4_100_1,2023-09-15T21:44:06.345Z,,0,,,NaN,,,,,,false,,,,1122409.1999999955,1122408.5,,1122406.8999999985,,1122409.509,8,400,,,
break_continue,html.Screen,4_100_2,2023-09-15T21:44:06.346Z,,0,,,NaN,,,,,,false,,,,1122410.299999997,1122410.1000000015,,1122409.3999999985,,1122409.509,8,400,,,
sequence,flow.Sequence,4_100,2023-09-15T21:44:06.346Z,,0,,,3557.572000001557,completion,,,,,false,,,,1122410.6000000015,1122410.1000000015,1118836.011,1118846.1999999955,1118852.528,1122409.509,8,400,,,
trial,html.Screen,4_101_0,2023-09-15T21:44:09.568Z,,0,3,,3222.7909999969415,response,ISIC_0014480.JPG,6,ISIC_8167374.JPG,ISIC_0014480.JPG,false,1,keypress(m),500,1125632.6999999955,1125632.299999997,1122393.286,1122410.6999999955,1122409.509,1125655.973,8,400,2,,ISIC_8167374.JPG
break,html.Screen,4_101_1,2023-09-15T21:44:09.570Z,,0,,,NaN,,,,,,false,,,,1125634.6000000015,1125634.299999997,,1125632.8999999985,,1125655.973,8,400,,,
break_continue,html.Screen,4_101_2,2023-09-15T21:44:09.571Z,,0,,,NaN,,,,,,false,,,,1125635,1125634.8999999985,,1125634.6999999955,,1125655.973,8,400,,,
sequence,flow.Sequence,4_101,2023-09-15T21:44:09.571Z,,0,,,3225.3909999984317,completion,,,,,false,,,,1125635.1000000015,1125634.8999999985,1122393.286,1122410.6000000015,1122409.509,1125655.973,8,400,,,
trial,html.Screen,4_102_0,2023-09-15T21:44:13.384Z,,0,3,,3791.527000000002,response,ISIC_0010895.JPG,10,ISIC_0645454.JPG,ISIC_0010895.JPG,false,1,keypress(m),500,1129447.799999997,1129447.5,1125617.809,1125635.299999997,1125655.973,1129457.032,8,400,3,,ISIC_0645454.JPG
break,html.Screen,4_102_1,2023-09-15T21:44:13.386Z,,0,,,NaN,,,,,,false,,,,1129450.299999997,1129450,,1129448.299999997,,1129457.032,8,400,,,
break_continue,html.Screen,4_102_2,2023-09-15T21:44:13.387Z,,0,,,NaN,,,,,,false,,,,1129450.8999999985,1129450.6999999955,,1129450.5,,1129457.032,8,400,,,
sequence,flow.Sequence,4_102,2023-09-15T21:44:13.387Z,,0,,,3794.7269999955315,completion,,,,,false,,,,1129451.1000000015,1129450.6999999955,1125617.809,1125635.1999999955,1125655.973,1129457.032,8,400,,,
trial,html.Screen,4_103_0,2023-09-15T21:44:16.673Z,,0,3,,3279.6679999956395,response,ISIC_4428769.JPG,13,ISIC_0015411.JPG,ISIC_0015411.JPG,false,0,keypress(z),500,1132737,1132736.6999999955,1129440.467,1129451.1999999955,1129457.032,1132748.797,8,400,4,,ISIC_4428769.JPG
break,html.Screen,4_103_1,2023-09-15T21:44:16.675Z,,0,,,NaN,,,,,,false,,,,1132739,1132738.6999999955,,1132737.299999997,,1132748.797,8,400,,,
break_continue,html.Screen,4_103_2,2023-09-15T21:44:16.675Z,,0,,,NaN,,,,,,false,,,,1132739.5,1132739.299999997,,1132739.1000000015,,1132748.797,8,400,,,
sequence,flow.Sequence,4_103,2023-09-15T21:44:16.675Z,,0,,,3282.2679999971297,completion,,,,,false,,,,1132739.6000000015,1132739.299999997,1129440.467,1129451.1999999955,1129457.032,1132748.797,8,400,,,
trial,html.Screen,4_104_0,2023-09-15T21:44:21.933Z,,0,3,,5248.2029999999795,response,ISIC_4451735.JPG,13,ISIC_0033546.JPG,ISIC_0033546.JPG,false,0,keypress(z),500,1137997.299999997,1137997,1132731.672,1132739.6999999955,1132748.797,1138000.298,8,400,5,,ISIC_4451735.JPG
break,html.Screen,4_104_1,2023-09-15T21:44:21.935Z,,0,,,NaN,,,,,,false,,,,1137999.299999997,1137999,,1137997.5,,1138000.298,8,400,,,
break_continue,html.Screen,4_104_2,2023-09-15T21:44:21.936Z,,0,,,NaN,,,,,,false,,,,1137999.6999999955,1137999.6000000015,,1137999.299999997,,1138000.298,8,400,,,
sequence,flow.Sequence,4_104,2023-09-15T21:44:21.936Z,,0,,,5250.80300000147,completion,,,,,false,,,,1137999.799999997,1137999.6000000015,1132731.672,1132739.6999999955,1132748.797,1138000.298,8,400,,,
trial,html.Screen,4_105_0,2023-09-15T21:44:25.127Z,,0,3,,3190.501999997068,response,ISIC_0025800.JPG,6,ISIC_0000143.JPG,ISIC_0000143.JPG,false,0,keypress(z),500,1141191.1999999955,1141190.799999997,1137985.803,1137999.8999999985,1138000.298,1141208.827,8,400,6,,ISIC_0025800.JPG
break,html.Screen,4_105_1,2023-09-15T21:44:25.129Z,,0,,,NaN,,,,,,false,,,,1141193.1000000015,1141192.8999999985,,1141191.3999999985,,1141208.827,8,400,,,
break_continue,html.Screen,4_105_2,2023-09-15T21:44:25.129Z,,0,,,NaN,,,,,,false,,,,1141193.6000000015,1141193.3999999985,,1141193.1999999955,,1141208.827,8,400,,,
sequence,flow.Sequence,4_105,2023-09-15T21:44:25.129Z,,0,,,3193.1019999985583,completion,,,,,false,,,,1141193.6999999955,1141193.3999999985,1137985.803,1137999.8999999985,1138000.298,1141208.827,8,400,,,
trial,html.Screen,4_106_0,2023-09-15T21:44:28.884Z,,0,3,,3738.7730000014417,response,ISIC_3031102.JPG,8,ISIC_0026039.JPG,ISIC_3031102.JPG,false,1,keypress(m),500,1144947.799999997,1144947.6000000015,1141191.918,1141193.799999997,1141208.827,1144965.051,8,400,7,,ISIC_0026039.JPG
break,html.Screen,4_106_1,2023-09-15T21:44:28.885Z,,0,,,NaN,,,,,,false,,,,1144949.6999999955,1144949.3999999985,,1144948,,1144965.051,8,400,,,
break_continue,html.Screen,4_106_2,2023-09-15T21:44:28.886Z,,0,,,NaN,,,,,,false,,,,1144950.1000000015,1144950,,1144949.799999997,,1144965.051,8,400,,,
sequence,flow.Sequence,4_106,2023-09-15T21:44:28.886Z,,0,,,3741.1729999999516,completion,,,,,false,,,,1144950.1999999955,1144950,1141191.918,1141193.799999997,1141208.827,1144965.051,8,400,,,
trial,html.Screen,4_107_0,2023-09-15T21:44:33.596Z,,0,3,,4694.648999995552,response,ISIC_7755875.JPG,9,ISIC_1615996.JPG,ISIC_7755875.JPG,false,1,keypress(m),500,1149660.1000000015,1149659.6999999955,1144948.316,1144950.299999997,1144965.051,1149668.444,8,400,8,,ISIC_1615996.JPG
break,html.Screen,4_107_1,2023-09-15T21:44:33.598Z,,0,,,NaN,,,,,,false,,,,1149662.1000000015,1149661.6999999955,,1149660.3999999985,,1149668.444,8,400,,,
break_continue,html.Screen,4_107_2,2023-09-15T21:44:33.598Z,,0,,,NaN,,,,,,false,,,,1149662.6000000015,1149662.5,,1149662.1999999955,,1149668.444,8,400,,,
sequence,flow.Sequence,4_107,2023-09-15T21:44:33.599Z,,0,,,4697.449000000022,completion,,,,,false,,,,1149662.6999999955,1149662.5,1144948.316,1144950.299999997,1144965.051,1149668.444,8,400,,,
trial,html.Screen,4_108_0,2023-09-15T21:44:42.439Z,,0,3,,8834.656000001589,response,ISIC_1960468.JPG,6,ISIC_3148886.JPG,ISIC_3148886.JPG,false,0,keypress(z),500,1158503.3999999985,1158503.1000000015,1149652.109,1149662.8999999985,1149668.444,1158511.264,8,400,9,,ISIC_1960468.JPG
break,html.Screen,4_108_1,2023-09-15T21:44:42.441Z,,0,,,NaN,,,,,,false,,,,1158505.299999997,1158505.1000000015,,1158503.6999999955,,1158511.264,8,400,,,
break_continue,html.Screen,4_108_2,2023-09-15T21:44:42.442Z,,0,,,NaN,,,,,,false,,,,1158505.6999999955,1158505.6000000015,,1158505.3999999985,,1158511.264,8,400,,,
sequence,flow.Sequence,4_108,2023-09-15T21:44:42.442Z,,0,,,8837.156000001589,completion,,,,,false,,,,1158505.799999997,1158505.6000000015,1149652.109,1149662.8999999985,1149668.444,1158511.264,8,400,,,
trial,html.Screen,4_109_0,2023-09-15T21:44:50.623Z,,0,3,,8175.135999998543,response,ISIC_5895384.JPG,10,ISIC_0006829.JPG,ISIC_0006829.JPG,false,0,keypress(z),500,1166686.799999997,1166686.3999999985,1158494.582,1158505.8999999985,1158511.264,1166688.713,8,400,10,,ISIC_5895384.JPG
break,html.Screen,4_109_1,2023-09-15T21:44:50.624Z,,0,,,NaN,,,,,,false,,,,1166688.3999999985,1166688.1999999955,,1166687,,1166688.713,8,400,,,
break_continue,html.Screen,4_109_2,2023-09-15T21:44:50.625Z,,0,,,NaN,,,,,,false,,,,1166689.1000000015,1166689,,1166688.6000000015,,1166688.713,8,400,,,
sequence,flow.Sequence,4_109,2023-09-15T21:44:50.625Z,,0,,,8177.7360000000335,completion,,,,,false,,,,1166689.299999997,1166689,1158494.582,1158505.8999999985,1158511.264,1166688.713,8,400,,,
trial,html.Screen,4_110_0,2023-09-15T21:44:53.980Z,,0,3,,3354.787000000011,response,ISIC_0015226.JPG,7,ISIC_0025603.JPG,ISIC_0015226.JPG,false,1,keypress(m),500,1170043.8999999985,1170043.5,1166672.332,1166689.3999999985,1166688.713,1170046.253,8,400,11,,ISIC_0025603.JPG
break,html.Screen,4_110_1,2023-09-15T21:44:53.982Z,,0,,,NaN,,,,,,false,,,,1170046.6999999955,1170045.8999999985,,1170044.1999999955,,1170046.253,8,400,,,
break_continue,html.Screen,4_110_2,2023-09-15T21:44:53.983Z,,0,,,NaN,,,,,,false,,,,1170047.299999997,1170047.1999999955,,1170046.8999999985,,1170046.253,8,400,,,
sequence,flow.Sequence,4_110,2023-09-15T21:44:53.983Z,,0,,,3358.486999995541,completion,,,,,false,,,,1170047.5,1170047.1999999955,1166672.332,1166689.3999999985,1166688.713,1170046.253,8,400,,,
trial,html.Screen,4_111_0,2023-09-15T21:45:05.473Z,,0,3,,11518.955000000075,timeout,ISIC_9547089.JPG,13,ISIC_0010895.JPG,,false,,,500,1181533.1000000015,1181532.799999997,1170029.95,1170047.6000000015,1170046.253,1181565.208,8,400,12,,
break,html.Screen,4_111_1,2023-09-15T21:45:05.474Z,,0,,,NaN,,,,,,false,,,,1181534.1999999955,1181533.8999999985,,1181533.299999997,,1181565.208,8,400,,,
break_continue,html.Screen,4_111_2,2023-09-15T21:45:05.475Z,,0,,,NaN,,,,,,false,,,,1181534.6000000015,1181534.3999999985,,1181534.299999997,,1181565.208,8,400,,,
sequence,flow.Sequence,4_111,2023-09-15T21:45:05.475Z,,0,,,11488.146999998484,completion,,,,,false,,,,1181534.6999999955,1181534.3999999985,1170029.95,1170047.6000000015,1170046.253,1181565.208,8,400,,,
trial,html.Screen,4_112_0,2023-09-15T21:45:08.692Z,,0,3,,3186.6919999984093,response,ISIC_0026690.JPG,13,ISIC_2075546.JPG,ISIC_2075546.JPG,false,0,keypress(z),500,1184752.1999999955,1184751.8999999985,1181549.417,1181534.799999997,1181565.208,1184756.081,8,400,13,,ISIC_0026690.JPG
break,html.Screen,4_112_1,2023-09-15T21:45:08.694Z,,0,,,NaN,,,,,,false,,,,1184754.299999997,1184754,,1184752.5,,1184756.081,8,400,,,
break_continue,html.Screen,4_112_2,2023-09-15T21:45:08.695Z,,0,,,NaN,,,,,,false,,,,1184754.6999999955,1184754.6000000015,,1184754.3999999985,,1184756.081,8,400,,,
sequence,flow.Sequence,4_112,2023-09-15T21:45:08.695Z,,0,,,3189.3920000013895,completion,,,,,false,,,,1184754.8999999985,1184754.6000000015,1181549.417,1181534.799999997,1181565.208,1184756.081,8,400,,,
trial,html.Screen,4_113_0,2023-09-15T21:45:12.477Z,,0,3,,3780.0190000014845,response,ISIC_0070784.JPG,11,ISIC_0029944.JPG,ISIC_0029944.JPG,false,0,keypress(z),500,1188536.6000000015,1188536.1000000015,1184739.782,1184754.8999999985,1184756.081,1188546.6,8,400,14,,ISIC_0070784.JPG
break,html.Screen,4_113_1,2023-09-15T21:45:12.479Z,,0,,,NaN,,,,,,false,,,,1188539,1188538.6999999955,,1188536.8999999985,,1188546.6,8,400,,,
break_continue,html.Screen,4_113_2,2023-09-15T21:45:12.480Z,,0,,,NaN,,,,,,false,,,,1188539.6999999955,1188539.5,,1188539.1999999955,,1188546.6,8,400,,,
sequence,flow.Sequence,4_113,2023-09-15T21:45:12.480Z,,0,,,3783.4189999999944,completion,,,,,false,,,,1188539.8999999985,1188539.5,1184739.782,1184754.8999999985,1184756.081,1188546.6,8,400,,,
trial,html.Screen,4_114_0,2023-09-15T21:45:15.619Z,,0,3,,3132.2999999984168,response,ISIC_0032988.JPG,5,ISIC_0014270.JPG,ISIC_0014270.JPG,false,0,keypress(z),500,1191679.1999999955,1191678.8999999985,1188529.445,1188540,1188546.6,1191687.244,8,400,15,,ISIC_0032988.JPG
break,html.Screen,4_114_1,2023-09-15T21:45:15.621Z,,0,,,NaN,,,,,,false,,,,1191681.1000000015,1191680.799999997,,1191679.5,,1191687.244,8,400,,,
break_continue,html.Screen,4_114_2,2023-09-15T21:45:15.622Z,,0,,,NaN,,,,,,false,,,,1191681.5,1191681.3999999985,,1191681.299999997,,1191687.244,8,400,,,
sequence,flow.Sequence,4_114,2023-09-15T21:45:15.622Z,,0,,,3134.7999999984168,completion,,,,,false,,,,1191681.6999999955,1191681.3999999985,1188529.445,1188539.8999999985,1188546.6,1191687.244,8,400,,,
trial,html.Screen,4_115_0,2023-09-15T21:45:19.829Z,,0,3,,4201.155999998562,response,ISIC_0033228.JPG,11,ISIC_0034313.JPG,ISIC_0034313.JPG,false,0,keypress(z),500,1195888.6999999955,1195888.3999999985,1191670.937,1191681.6999999955,1191687.244,1195892.396,8,400,16,,ISIC_0033228.JPG
break,html.Screen,4_115_1,2023-09-15T21:45:19.831Z,,0,,,NaN,,,,,,false,,,,1195890.8999999985,1195890.6000000015,,1195889,,1195892.396,8,400,,,
break_continue,html.Screen,4_115_2,2023-09-15T21:45:19.831Z,,0,,,NaN,,,,,,false,,,,1195891.3999999985,1195891.1999999955,,1195891,,1195892.396,8,400,,,
sequence,flow.Sequence,4_115,2023-09-15T21:45:19.832Z,,0,,,4203.955999995582,completion,,,,,false,,,,1195891.6000000015,1195891.1999999955,1191670.937,1191681.6999999955,1191687.244,1195892.396,8,400,,,
trial,html.Screen,4_116_0,2023-09-15T21:45:22.846Z,,0,3,,3013.6040000000503,response,ISIC_0058346.JPG,9,ISIC_0046706.JPG,ISIC_0058346.JPG,false,1,keypress(m),500,1198906.299999997,1198906,1195876.19,1195891.6999999955,1195892.396,1198917.816,8,400,17,,ISIC_0046706.JPG
break,html.Screen,4_116_1,2023-09-15T21:45:22.848Z,,0,,,NaN,,,,,,false,,,,1198907.799999997,1198907.6999999955,,1198906.5,,1198917.816,8,400,,,
break_continue,html.Screen,4_116_2,2023-09-15T21:45:22.848Z,,0,,,NaN,,,,,,false,,,,1198908.1999999955,1198908.1000000015,,1198907.8999999985,,1198917.816,8,400,,,
sequence,flow.Sequence,4_116,2023-09-15T21:45:22.848Z,,0,,,3015.7040000015404,completion,,,,,false,,,,1198908.299999997,1198908.1000000015,1195876.19,1195891.6000000015,1195892.396,1198917.816,8,400,,,
trial,html.Screen,4_117_0,2023-09-15T21:45:25.478Z,,0,3,,2620.183999999892,response,ISIC_0060585.JPG,7,ISIC_7129085.JPG,ISIC_7129085.JPG,false,0,keypress(z),500,1201538.299999997,1201538,1198901.241,1198908.299999997,1198917.816,1201560.672,8,400,18,,ISIC_0060585.JPG
break,html.Screen,4_117_1,2023-09-15T21:45:25.480Z,,0,,,NaN,,,,,,false,,,,1201539.6999999955,1201539.3999999985,,1201538.6000000015,,1201560.672,8,400,,,
break_continue,html.Screen,4_117_2,2023-09-15T21:45:25.480Z,,0,,,NaN,,,,,,false,,,,1201540.1999999955,1201540,,1201539.799999997,,1201560.672,8,400,,,
sequence,flow.Sequence,4_117,2023-09-15T21:45:25.480Z,,0,,,2622.183999999892,completion,,,,,false,,,,1201540.299999997,1201540,1198901.241,1198908.299999997,1198917.816,1201560.672,8,400,,,
trial,html.Screen,4_118_0,2023-09-15T21:45:28.402Z,,0,3,,2900.527999995509,response,ISIC_0063493.JPG,12,ISIC_4853597.JPG,ISIC_4853597.JPG,false,0,keypress(z),500,1204461.5,1204461.1999999955,1201544.026,1201540.5,1201560.672,1204468.952,8,400,19,,ISIC_0063493.JPG
break,html.Screen,4_118_1,2023-09-15T21:45:28.419Z,,0,,,NaN,,,,,,false,,,,1204478.6000000015,1204478.3999999985,,1204461.799999997,,1204468.952,8,400,,,
break_continue,html.Screen,4_118_2,2023-09-15T21:45:28.419Z,,0,,,NaN,,,,,,false,,,,1204479,1204479,,1204478.6999999955,,1204468.952,8,400,,,
sequence,flow.Sequence,4_118,2023-09-15T21:45:28.419Z,,0,,,2918.3279999999795,completion,,,,,false,,,,1204479.1999999955,1204479,1201544.026,1201540.3999999985,1201560.672,1204468.952,8,400,,,
trial,html.Screen,4_119_0,2023-09-15T21:45:31.356Z,,0,3,,2946.6480000014417,response,ISIC_0011750.JPG,5,ISIC_0031785.JPG,ISIC_0031785.JPG,false,0,keypress(z),500,1207415.799999997,1207415.6000000015,1204452.8,1204479.1999999955,1204468.952,1207427.912,8,400,20,,ISIC_0011750.JPG
break,html.Screen,4_119_1,2023-09-15T21:45:31.357Z,,0,,,NaN,,,,,,false,,,,1207417.1000000015,1207416.8999999985,,1207416,,1207427.912,8,400,,,
break_continue,html.Screen,4_119_2,2023-09-15T21:45:31.357Z,,0,,,NaN,,,,,,false,,,,1207417.3999999985,1207417.299999997,,1207417.1999999955,,1207427.912,8,400,,,
sequence,flow.Sequence,4_119,2023-09-15T21:45:31.358Z,,0,,,2948.3479999969713,completion,,,,,false,,,,1207417.5,1207417.299999997,1204452.8,1204479.1999999955,1204468.952,1207427.912,8,400,,,
trial,html.Screen,4_120_0,2023-09-15T21:45:35.509Z,,0,3,,4140.688000001479,response,ISIC_5629390.JPG,10,ISIC_1919324.JPG,ISIC_5629390.JPG,false,1,keypress(m),500,1211568.8999999985,1211568.6000000015,1207411.258,1207417.6000000015,1207427.912,1211583.157,8,400,21,,ISIC_1919324.JPG
break,html.Screen,4_120_1,2023-09-15T21:45:35.510Z,,0,,,NaN,,,,,,false,,,,1211569.8999999985,1211569.6999999955,,1211569.1000000015,,1211583.157,8,400,,,
break_continue,html.Screen,4_120_2,2023-09-15T21:45:35.510Z,,0,,,NaN,,,,,,false,,,,1211570.299999997,1211570.299999997,,1211570.1000000015,,1211583.157,8,400,,,
sequence,flow.Sequence,4_120,2023-09-15T21:45:35.511Z,,0,,,4142.387999997009,completion,,,,,false,,,,1211570.8999999985,1211570.299999997,1207411.258,1207417.5,1207427.912,1211583.157,8,400,,,
trial,html.Screen,4_121_0,2023-09-15T21:45:38.240Z,,0,3,,2716.34300000011,response,ISIC_0001118.JPG,6,ISIC_4277207.JPG,ISIC_4277207.JPG,false,0,keypress(z),500,1214300.1999999955,1214299.5,1211566.802,1211571,1211583.157,1214308.837,8,400,22,,ISIC_0001118.JPG
break,html.Screen,4_121_1,2023-09-15T21:45:38.242Z,,0,,,NaN,,,,,,false,,,,1214302.299999997,1214302,,1214300.6000000015,,1214308.837,8,400,,,
break_continue,html.Screen,4_121_2,2023-09-15T21:45:38.243Z,,0,,,NaN,,,,,,false,,,,1214302.8999999985,1214302.799999997,,1214302.5,,1214308.837,8,400,,,
sequence,flow.Sequence,4_121,2023-09-15T21:45:38.243Z,,0,,,2719.6429999971297,completion,,,,,false,,,,1214303.1000000015,1214302.799999997,1211566.802,1211571,1211583.157,1214308.837,8,400,,,
trial,html.Screen,4_122_0,2023-09-15T21:45:41.194Z,,0,3,,2944.6629999999423,response,ISIC_4436342.JPG,8,ISIC_5071555.JPG,ISIC_5071555.JPG,false,0,keypress(z),500,1217253.799999997,1217253.5,1214292.425,1214303.1999999955,1214308.837,1217267.768,8,400,23,,ISIC_4436342.JPG
break,html.Screen,4_122_1,2023-09-15T21:45:41.196Z,,0,,,NaN,,,,,,false,,,,1217255.6000000015,1217255.299999997,,1217254,,1217267.768,8,400,,,
break_continue,html.Screen,4_122_2,2023-09-15T21:45:41.196Z,,0,,,NaN,,,,,,false,,,,1217256.1000000015,1217256,,1217255.799999997,,1217267.768,8,400,,,
sequence,flow.Sequence,4_122,2023-09-15T21:45:41.196Z,,0,,,2947.1629999999423,completion,,,,,false,,,,1217256.1000000015,1217256,1214292.425,1214303.1999999955,1214308.837,1217267.768,8,400,,,
trial,html.Screen,4_123_0,2023-09-15T21:45:44.083Z,,0,3,,2875.2320000000764,response,ISIC_0394157.JPG,10,ISIC_2376016.JPG,ISIC_2376016.JPG,false,0,keypress(z),500,1220143.299999997,1220143,1217251.227,1217256.299999997,1217267.768,1220159.494,8,400,24,,ISIC_0394157.JPG
break,html.Screen,4_123_1,2023-09-15T21:45:44.086Z,,0,,,NaN,,,,,,false,,,,1220145.3999999985,1220145.1000000015,,1220143.6000000015,,1220159.494,8,400,,,
break_continue,html.Screen,4_123_2,2023-09-15T21:45:44.086Z,,0,,,NaN,,,,,,false,,,,1220146,1220145.799999997,,1220145.6000000015,,1220159.494,8,400,,,
sequence,flow.Sequence,4_123,2023-09-15T21:45:44.086Z,,0,,,2878.031999997096,completion,,,,,false,,,,1220146.1000000015,1220145.799999997,1217251.227,1217256.299999997,1217267.768,1220159.494,8,400,,,
trial,html.Screen,4_124_0,2023-09-15T21:45:47.236Z,,0,3,,3136.205999995582,response,ISIC_8789051.JPG,10,ISIC_1414751.JPG,ISIC_8789051.JPG,false,1,keypress(m),500,1223296.1000000015,1223295.6999999955,1220143.201,1220146.1999999955,1220159.494,1223300.961,8,400,25,,ISIC_1414751.JPG
break,html.Screen,4_124_1,2023-09-15T21:45:47.239Z,,0,,,NaN,,,,,,false,,,,1223298.5,1223298.1999999955,,1223296.5,,1223300.961,8,400,,,
break_continue,html.Screen,4_124_2,2023-09-15T21:45:47.239Z,,0,,,NaN,,,,,,false,,,,1223299.1000000015,1223299,,1223298.6999999955,,1223300.961,8,400,,,
sequence,flow.Sequence,4_124,2023-09-15T21:45:47.239Z,,0,,,3139.506000000052,completion,,,,,false,,,,1223299.299999997,1223299,1220143.201,1220146.1000000015,1220159.494,1223300.961,8,400,,,
trial,html.Screen,4_125_0,2023-09-15T21:45:49.903Z,,0,3,,2662.1390000015963,response,ISIC_0033498.JPG,7,ISIC_0065206.JPG,ISIC_0065206.JPG,false,0,keypress(z),500,1225963.3999999985,1225963.1000000015,1223284.607,1223299.3999999985,1223300.961,1225977.222,8,400,26,,ISIC_0033498.JPG
break,html.Screen,4_125_1,2023-09-15T21:45:49.905Z,,0,,,NaN,,,,,,false,,,,1225965.3999999985,1225965.1000000015,,1225963.6999999955,,1225977.222,8,400,,,
break_continue,html.Screen,4_125_2,2023-09-15T21:45:49.906Z,,0,,,NaN,,,,,,false,,,,1225965.8999999985,1225965.6999999955,,1225965.5,,1225977.222,8,400,,,
sequence,flow.Sequence,4_125,2023-09-15T21:45:49.906Z,,0,,,2664.738999995636,completion,,,,,false,,,,1225966,1225965.6999999955,1223284.607,1223299.299999997,1223300.961,1225977.222,8,400,,,
