sender,sender_type,sender_id,timestamp,meta,,blockNo,condition,duration,ended_on,img_left,img_reveal,img_right,loser,practice,response,response_action,selection_duration,time_commit,time_end,time_render,time_run,time_show,time_switch,total_blocks,total_trials,trialNo,url,winner
informed_consent,html.Screen,0,2023-09-08T18:43:18.586Z,"{""labjs_version"":""20.2.4"",""labjs_build"":{""flavor"":""production"",""commit"":""f5b4a49f956347addd546a832a3327688c2c0fef""},""location"":""https://run.pavlovia.org/MurrayBennett/melanoma-2afc/?participant=5e38e79295ff561112eae457&STUDY_ID=64f8c92207ba404bcb356c90&SESSION_ID=64fb6b27fd030ceeb301f4fd&platform=prolific"",""userAgent"":""Mozilla/5.0 (Windows NT 10.0; Win64; x64) AppleWebKit/537.36 (KHTML, like Gecko) Chrome/116.0.0.0 Safari/537.36"",""platform"":""Win32"",""language"":""en-US"",""locale"":""en-US"",""timeZone"":""America/Los_Angeles"",""timezoneOffset"":420,""screen_width"":1920,""screen_height"":1080,""scroll_width"":1920,""scroll_height"":883,""window_innerWidth"":1920,""window_innerHeight"":931,""devicePixelRatio"":1}",,,,22459.747,response,,,,,,consent,click button,,24321.79999999702,24321,1844.622,1835.2999999970198,1861.253,24349.896,,,,"{""participant"":""5e38e79295ff561112eae457"",""STUDY_ID"":""64f8c92207ba404bcb356c90"",""SESSION_ID"":""64fb6b27fd030ceeb301f4fd"",""platform"":""prolific""}",
Welcome,html.Screen,1,2023-09-08T19:10:09.225Z,,,,symmetry,1610611.203999994,response,,,,,,continue,click button,,1634961.599999994,1634961.099999994,24333.244,24321.89999999851,24349.896,1634973.611,,,,,
trial,html.Screen,2_0_0,2023-09-08T19:10:13.056Z,,0,0,,3817.8889999999665,response,ISIC_6997061.JPG,,ISIC_0069348.JPG,ISIC_0069348.JPG,true,0,keypress(z),500,1638791.799999997,1638791.5,1634956.916,1634961.6999999955,1634973.611,1638794.013,1,6,1,,ISIC_6997061.JPG
sequence,flow.Sequence,2_0,2023-09-08T19:10:13.056Z,,0,,,3817.8889999999665,completion,,,,,true,,,,1638792,1638791.5,1634956.916,1634961.6999999955,1634973.611,1638794.013,1,6,,,
trial,html.Screen,2_1_0,2023-09-08T19:10:17.303Z,,0,0,,4244.786999996984,response,ISIC_0009529.JPG,,ISIC_0057368.JPG,ISIC_0057368.JPG,true,0,keypress(z),500,1643038.8999999985,1643038.799999997,1638777.328,1638792.099999994,1638794.013,1643048.173,1,6,2,,ISIC_0009529.JPG
sequence,flow.Sequence,2_1,2023-09-08T19:10:17.303Z,,0,,,4244.786999996984,completion,,,,,true,,,,1643039,1643038.799999997,1638777.328,1638792,1638794.013,1643048.173,1,6,,,
trial,html.Screen,2_2_0,2023-09-08T19:10:21.007Z,,0,0,,3695.026999995578,response,ISIC_9758671.JPG,,ISIC_0064954.JPG,ISIC_9758671.JPG,true,1,keypress(m),500,1646743.3999999985,1646743.1999999955,1643031.457,1643039.1999999955,1643048.173,1646751.782,1,6,3,,ISIC_0064954.JPG
sequence,flow.Sequence,2_2,2023-09-08T19:10:21.007Z,,0,,,3695.026999995578,completion,,,,,true,,,,1646743.599999994,1646743.1999999955,1643031.457,1643039.099999994,1643048.173,1646751.782,1,6,,,
trial,html.Screen,2_3_0,2023-09-08T19:10:24.961Z,,0,0,,3945.21800000011,response,ISIC_0005785.JPG,,ISIC_0000080.JPG,ISIC_0005785.JPG,true,1,keypress(m),500,1650697.1999999955,1650697,1646735.098,1646743.599999994,1646751.782,1650705.65,1,6,4,,ISIC_0000080.JPG
sequence,flow.Sequence,2_3,2023-09-08T19:10:24.961Z,,0,,,3945.21800000011,completion,,,,,true,,,,1650697.299999997,1650697,1646735.098,1646743.599999994,1646751.782,1650705.65,1,6,,,
trial,html.Screen,2_4_0,2023-09-08T19:10:27.923Z,,0,0,,2952.9499999941327,response,ISIC_7944028.JPG,,ISIC_5390060.JPG,ISIC_5390060.JPG,true,0,keypress(z),500,1653658.8999999985,1653658.599999994,1650688.955,1650697.5,1650705.65,1653675.207,1,6,5,,ISIC_7944028.JPG
sequence,flow.Sequence,2_4,2023-09-08T19:10:27.923Z,,0,,,2952.9499999941327,completion,,,,,true,,,,1653659,1653658.599999994,1650688.955,1650697.3999999985,1650705.65,1653675.207,1,6,,,
trial,html.Screen,2_5_0,2023-09-08T19:10:30.772Z,,0,0,,2832.592999997083,response,ISIC_0794216.JPG,,ISIC_0010188.JPG,ISIC_0010188.JPG,true,0,keypress(z),500,1656508,1656507.799999997,1653658.533,1653659.1999999955,1653675.207,1656511.329,1,6,6,,ISIC_0794216.JPG
sequence,flow.Sequence,2_5,2023-09-08T19:10:30.772Z,,0,,,2832.592999997083,completion,,,,,true,,,,1656508.099999994,1656507.799999997,1653658.533,1653659.099999994,1653675.207,1656511.329,1,6,,,
loop,flow.Loop,2,2023-09-08T19:10:30.772Z,,,,,21534.188999996986,completion,,,,,true,,,,1656508.1999999955,1656507.799999997,1634956.916,1634961.6999999955,1634973.611,1656511.329,1,6,,,
exp_instructions,html.Screen,3,2023-09-08T19:10:50.529Z,,,,,19753.87099999562,response,,,,,,continue,keypress(Space),,1676265.599999994,1676265.1999999955,1656494.637,1656508.299999997,1656511.329,1676280.637,,,,,
trial,html.Screen,4_0_0,2023-09-08T19:10:54.741Z,,0,1,,4196.462999993935,response,ISIC_0024757.JPG,5,ISIC_8248922.JPG,ISIC_0024757.JPG,false,1,keypress(m),500,1680477.099999994,1680477.099999994,1676263.991,1676265.799999997,1676280.637,1680484.764,8,400,1,,ISIC_8248922.JPG
break,html.Screen,4_0_1,2023-09-08T19:10:54.741Z,,0,,,NaN,,,,,,false,,,,1680477.5,1680477.5,,1680477.1999999955,,1680484.764,8,400,,,
break_continue,html.Screen,4_0_2,2023-09-08T19:10:54.741Z,,0,,,NaN,,,,,,false,,,,1680477.6999999955,1680477.6999999955,,1680477.6999999955,,1680484.764,8,400,,,
sequence,flow.Sequence,4_0,2023-09-08T19:10:54.742Z,,0,,,4197.062999995425,completion,,,,,false,,,,1680477.799999997,1680477.6999999955,1676263.991,1676265.799999997,1676280.637,1680484.764,8,400,,,
trial,html.Screen,4_1_0,2023-09-08T19:10:58.589Z,,0,1,,3840.7360000000335,response,ISIC_0025658.JPG,5,ISIC_2508901.JPG,ISIC_2508901.JPG,false,0,keypress(z),500,1684325.6999999955,1684325.5,1680468.06,1680477.799999997,1680484.764,1684338.52,8,400,2,,ISIC_0025658.JPG
break,html.Screen,4_1_1,2023-09-08T19:10:58.590Z,,0,,,NaN,,,,,,false,,,,1684326,1684325.8999999985,,1684325.799999997,,1684338.52,8,400,,,
break_continue,html.Screen,4_1_2,2023-09-08T19:10:58.590Z,,0,,,NaN,,,,,,false,,,,1684326.5,1684326.3999999985,,1684326.3999999985,,1684338.52,8,400,,,
sequence,flow.Sequence,4_1,2023-09-08T19:10:58.590Z,,0,,,3841.6359999985434,completion,,,,,false,,,,1684326.5,1684326.3999999985,1680468.06,1680477.799999997,1680484.764,1684338.52,8,400,,,
trial,html.Screen,4_2_0,2023-09-08T19:11:02.463Z,,0,1,,3860.9799999999814,response,ISIC_7034769.JPG,4,ISIC_0053796.JPG,ISIC_0053796.JPG,false,0,keypress(z),500,1688199.5,1688199.5,1684321.825,1684326.599999994,1684338.52,1688208.971,8,400,3,,ISIC_7034769.JPG
break,html.Screen,4_2_1,2023-09-08T19:11:02.464Z,,0,,,NaN,,,,,,false,,,,1688199.8999999985,1688199.799999997,,1688199.599999994,,1688208.971,8,400,,,
break_continue,html.Screen,4_2_2,2023-09-08T19:11:02.464Z,,0,,,NaN,,,,,,false,,,,1688200,1688199.8999999985,,1688199.8999999985,,1688208.971,8,400,,,
sequence,flow.Sequence,4_2,2023-09-08T19:11:02.464Z,,0,,,3861.3799999984913,completion,,,,,false,,,,1688200.099999994,1688199.8999999985,1684321.825,1684326.5,1684338.52,1688208.971,8,400,,,
trial,html.Screen,4_3_0,2023-09-08T19:11:06.209Z,,0,1,,3736.4289999986067,response,ISIC_2807121.JPG,5,ISIC_0000413.JPG,ISIC_0000413.JPG,false,0,keypress(z),500,1691945.5,1691945.3999999985,1688192.274,1688200.099999994,1688208.971,1691979.316,8,400,4,,ISIC_2807121.JPG
break,html.Screen,4_3_1,2023-09-08T19:11:06.210Z,,0,,,NaN,,,,,,false,,,,1691945.799999997,1691945.6999999955,,1691945.599999994,,1691979.316,8,400,,,
break_continue,html.Screen,4_3_2,2023-09-08T19:11:06.210Z,,0,,,NaN,,,,,,false,,,,1691945.8999999985,1691945.8999999985,,1691945.8999999985,,1691979.316,8,400,,,
sequence,flow.Sequence,4_3,2023-09-08T19:11:06.210Z,,0,,,3736.9289999986067,completion,,,,,false,,,,1691946,1691945.8999999985,1688192.274,1688200.099999994,1688208.971,1691979.316,8,400,,,
trial,html.Screen,4_4_0,2023-09-08T19:11:11.029Z,,0,1,,4785.483999996912,response,ISIC_0001129.JPG,4,ISIC_0057259.JPG,ISIC_0001129.JPG,false,1,keypress(m),500,1696765,1696764.799999997,1691962.627,1691946,1691979.316,1696767.353,8,400,5,,ISIC_0057259.JPG
break,html.Screen,4_4_1,2023-09-08T19:11:11.029Z,,0,,,NaN,,,,,,false,,,,1696765.299999997,1696765.1999999955,,1696765,,1696767.353,8,400,,,
break_continue,html.Screen,4_4_2,2023-09-08T19:11:11.029Z,,0,,,NaN,,,,,,false,,,,1696765.3999999985,1696765.3999999985,,1696765.299999997,,1696767.353,8,400,,,
sequence,flow.Sequence,4_4,2023-09-08T19:11:11.029Z,,0,,,4786.083999998402,completion,,,,,false,,,,1696765.3999999985,1696765.3999999985,1691962.627,1691946,1691979.316,1696767.353,8,400,,,
trial,html.Screen,4_5_0,2023-09-08T19:11:14.646Z,,0,1,,3614.6470000001136,response,ISIC_5482426.JPG,5,ISIC_0033365.JPG,ISIC_0033365.JPG,false,0,keypress(z),500,1700382.1999999955,1700382,1696750.624,1696765.5,1696767.353,1700387.529,8,400,6,,ISIC_5482426.JPG
break,html.Screen,4_5_1,2023-09-08T19:11:14.646Z,,0,,,NaN,,,,,,false,,,,1700382.599999994,1700382.5,,1700382.299999997,,1700387.529,8,400,,,
break_continue,html.Screen,4_5_2,2023-09-08T19:11:14.646Z,,0,,,NaN,,,,,,false,,,,1700382.6999999955,1700382.6999999955,,1700382.599999994,,1700387.529,8,400,,,
sequence,flow.Sequence,4_5,2023-09-08T19:11:14.647Z,,0,,,3615.3469999956433,completion,,,,,false,,,,1700382.799999997,1700382.6999999955,1696750.624,1696765.5,1696767.353,1700387.529,8,400,,,
trial,html.Screen,4_6_0,2023-09-08T19:11:19.911Z,,0,1,,5259.670999995433,response,ISIC_0011931.JPG,4,ISIC_8158081.JPG,ISIC_0011931.JPG,false,1,keypress(m),500,1705647.3999999985,1705647.1999999955,1700370.839,1700382.799999997,1700387.529,1705659.346,8,400,7,,ISIC_8158081.JPG
break,html.Screen,4_6_1,2023-09-08T19:11:19.912Z,,0,,,NaN,,,,,,false,,,,1705647.799999997,1705647.6999999955,,1705647.5,,1705659.346,8,400,,,
break_continue,html.Screen,4_6_2,2023-09-08T19:11:19.912Z,,0,,,NaN,,,,,,false,,,,1705647.8999999985,1705647.799999997,,1705647.799999997,,1705659.346,8,400,,,
sequence,flow.Sequence,4_6,2023-09-08T19:11:19.912Z,,0,,,5260.270999996923,completion,,,,,false,,,,1705647.8999999985,1705647.799999997,1700370.839,1700382.799999997,1700387.529,1705659.346,8,400,,,
trial,html.Screen,4_7_0,2023-09-08T19:11:23.788Z,,0,1,,3865.0539999986067,response,ISIC_4070687.JPG,4,ISIC_9947369.JPG,ISIC_9947369.JPG,false,0,keypress(z),500,1709524.5,1709524.3999999985,1705642.647,1705647.8999999985,1705659.346,1709529.792,8,400,8,,ISIC_4070687.JPG
break,html.Screen,4_7_1,2023-09-08T19:11:23.789Z,,0,,,NaN,,,,,,false,,,,1709524.799999997,1709524.799999997,,1709524.599999994,,1709529.792,8,400,,,
break_continue,html.Screen,4_7_2,2023-09-08T19:11:23.789Z,,0,,,NaN,,,,,,false,,,,1709524.8999999985,1709524.8999999985,,1709524.8999999985,,1709529.792,8,400,,,
sequence,flow.Sequence,4_7,2023-09-08T19:11:23.789Z,,0,,,3865.5539999986067,completion,,,,,false,,,,1709525,1709524.8999999985,1705642.647,1705647.8999999985,1705659.346,1709529.792,8,400,,,
trial,html.Screen,4_8_0,2023-09-08T19:11:28.260Z,,0,1,,4466.6079999986105,response,ISIC_0014919.JPG,5,ISIC_1757941.JPG,ISIC_1757941.JPG,false,0,keypress(z),500,1713996.3999999985,1713996.3999999985,1709513.104,1709525,1709529.792,1714000.844,8,400,9,,ISIC_0014919.JPG
break,html.Screen,4_8_1,2023-09-08T19:11:28.261Z,,0,,,NaN,,,,,,false,,,,1713997,1713996.8999999985,,1713996.6999999955,,1714000.844,8,400,,,
break_continue,html.Screen,4_8_2,2023-09-08T19:11:28.261Z,,0,,,NaN,,,,,,false,,,,1713997.099999994,1713997,,1713997,,1714000.844,8,400,,,
sequence,flow.Sequence,4_8,2023-09-08T19:11:28.261Z,,0,,,4467.208000000101,completion,,,,,false,,,,1713997.099999994,1713997,1709513.104,1709525,1709529.792,1714000.844,8,400,,,
trial,html.Screen,4_9_0,2023-09-08T19:11:32.444Z,,0,1,,4179.255999993999,response,ISIC_0046647.JPG,4,ISIC_2085855.JPG,ISIC_0046647.JPG,false,1,keypress(m),500,1718180.1999999955,1718180.099999994,1713984.139,1713997.099999994,1714000.844,1718188.249,8,400,10,,ISIC_2085855.JPG
break,html.Screen,4_9_1,2023-09-08T19:11:32.444Z,,0,,,NaN,,,,,,false,,,,1718180.5,1718180.5,,1718180.299999997,,1718188.249,8,400,,,
break_continue,html.Screen,4_9_2,2023-09-08T19:11:32.444Z,,0,,,NaN,,,,,,false,,,,1718180.599999994,1718180.599999994,,1718180.599999994,,1718188.249,8,400,,,
sequence,flow.Sequence,4_9,2023-09-08T19:11:32.444Z,,0,,,4179.755999993999,completion,,,,,false,,,,1718180.599999994,1718180.599999994,1713984.139,1713997.099999994,1714000.844,1718188.249,8,400,,,
trial,html.Screen,4_10_0,2023-09-08T19:11:36.799Z,,0,1,,4346.950999995461,response,ISIC_0033004.JPG,4,ISIC_5153848.JPG,ISIC_5153848.JPG,false,0,keypress(z),500,1722535.299999997,1722535.1999999955,1718171.562,1718180.6999999955,1718188.249,1722542.494,8,400,11,,ISIC_0033004.JPG
break,html.Screen,4_10_1,2023-09-08T19:11:36.799Z,,0,,,NaN,,,,,,false,,,,1722535.6999999955,1722535.6999999955,,1722535.5,,1722542.494,8,400,,,
break_continue,html.Screen,4_10_2,2023-09-08T19:11:36.800Z,,0,,,NaN,,,,,,false,,,,1722535.8999999985,1722535.799999997,,1722535.6999999955,,1722542.494,8,400,,,
sequence,flow.Sequence,4_10,2023-09-08T19:11:36.800Z,,0,,,4347.550999996951,completion,,,,,false,,,,1722535.8999999985,1722535.799999997,1718171.562,1718180.6999999955,1718188.249,1722542.494,8,400,,,
trial,html.Screen,4_11_0,2023-09-08T19:11:41.380Z,,0,1,,4573.506000000052,response,ISIC_7558912.JPG,5,ISIC_1040340.JPG,ISIC_7558912.JPG,false,1,keypress(m),500,1727116,1727116,1722525.817,1722535.8999999985,1722542.494,1727130.322,8,400,12,,ISIC_1040340.JPG
break,html.Screen,4_11_1,2023-09-08T19:11:41.380Z,,0,,,NaN,,,,,,false,,,,1727116.3999999985,1727116.299999997,,1727116.099999994,,1727130.322,8,400,,,
break_continue,html.Screen,4_11_2,2023-09-08T19:11:41.380Z,,0,,,NaN,,,,,,false,,,,1727116.5,1727116.5,,1727116.3999999985,,1727130.322,8,400,,,
sequence,flow.Sequence,4_11,2023-09-08T19:11:41.380Z,,0,,,4574.006000000052,completion,,,,,false,,,,1727116.599999994,1727116.5,1722525.817,1722535.8999999985,1722542.494,1727130.322,8,400,,,
trial,html.Screen,4_12_0,2023-09-08T19:11:45.541Z,,0,1,,4146.777999994112,response,ISIC_9961652.JPG,4,ISIC_0961235.JPG,ISIC_9961652.JPG,false,1,keypress(m),500,1731277.1999999955,1731277.099999994,1727113.633,1727116.599999994,1727130.322,1731284.375,8,400,13,,ISIC_0961235.JPG
break,html.Screen,4_12_1,2023-09-08T19:11:45.541Z,,0,,,NaN,,,,,,false,,,,1731277.599999994,1731277.5,,1731277.299999997,,1731284.375,8,400,,,
break_continue,html.Screen,4_12_2,2023-09-08T19:11:45.541Z,,0,,,NaN,,,,,,false,,,,1731277.6999999955,1731277.6999999955,,1731277.599999994,,1731284.375,8,400,,,
sequence,flow.Sequence,4_12,2023-09-08T19:11:45.542Z,,0,,,4147.377999995602,completion,,,,,false,,,,1731277.6999999955,1731277.6999999955,1727113.633,1727116.599999994,1727130.322,1731284.375,8,400,,,
trial,html.Screen,4_13_0,2023-09-08T19:11:49.814Z,,0,1,,4266.02499999851,response,ISIC_8071637.JPG,5,ISIC_0883408.JPG,ISIC_8071637.JPG,false,1,keypress(m),500,1735550.5,1735550.3999999985,1731267.693,1731277.799999997,1731284.375,1735555.259,8,400,14,,ISIC_0883408.JPG
break,html.Screen,4_13_1,2023-09-08T19:11:49.815Z,,0,,,NaN,,,,,,false,,,,1735550.799999997,1735550.799999997,,1735550.599999994,,1735555.259,8,400,,,
break_continue,html.Screen,4_13_2,2023-09-08T19:11:49.815Z,,0,,,NaN,,,,,,false,,,,1735551,1735550.8999999985,,1735550.8999999985,,1735555.259,8,400,,,
sequence,flow.Sequence,4_13,2023-09-08T19:11:49.815Z,,0,,,4266.52499999851,completion,,,,,false,,,,1735551,1735550.8999999985,1731267.693,1731277.6999999955,1731284.375,1735555.259,8,400,,,
trial,html.Screen,4_14_0,2023-09-08T19:11:54.840Z,,0,1,,5020.640999998432,response,ISIC_9764024.JPG,5,ISIC_0059929.JPG,ISIC_0059929.JPG,false,0,keypress(z),500,1740576,1740575.8999999985,1735538.529,1735551.099999994,1735555.259,1740593.938,8,400,15,,ISIC_9764024.JPG
break,html.Screen,4_14_1,2023-09-08T19:11:54.840Z,,0,,,NaN,,,,,,false,,,,1740576.3999999985,1740576.299999997,,1740576.099999994,,1740593.938,8,400,,,
break_continue,html.Screen,4_14_2,2023-09-08T19:11:54.841Z,,0,,,NaN,,,,,,false,,,,1740576.5,1740576.5,,1740576.3999999985,,1740593.938,8,400,,,
sequence,flow.Sequence,4_14,2023-09-08T19:11:54.841Z,,0,,,5021.240999999922,completion,,,,,false,,,,1740576.5,1740576.5,1735538.529,1735551.099999994,1735555.259,1740593.938,8,400,,,
trial,html.Screen,4_15_0,2023-09-08T19:11:59.611Z,,0,1,,4752.361999996938,response,ISIC_8773962.JPG,5,ISIC_6801680.JPG,ISIC_8773962.JPG,false,1,keypress(m),500,1745346.3999999985,1745346.299999997,1740560.094,1740576.599999994,1740593.938,1745348.132,8,400,16,,ISIC_6801680.JPG
break,html.Screen,4_15_1,2023-09-08T19:11:59.611Z,,0,,,NaN,,,,,,false,,,,1745346.6999999955,1745346.6999999955,,1745346.599999994,,1745348.132,8,400,,,
break_continue,html.Screen,4_15_2,2023-09-08T19:11:59.611Z,,0,,,NaN,,,,,,false,,,,1745346.8999999985,1745346.8999999985,,1745346.799999997,,1745348.132,8,400,,,
sequence,flow.Sequence,4_15,2023-09-08T19:11:59.611Z,,0,,,4752.961999998428,completion,,,,,false,,,,1745347,1745346.8999999985,1740560.094,1740576.5,1740593.938,1745348.132,8,400,,,
trial,html.Screen,4_16_0,2023-09-08T19:12:04.675Z,,0,1,,5062.567999995546,response,ISIC_0054963.JPG,5,ISIC_3952030.JPG,ISIC_3952030.JPG,false,0,keypress(z),500,1750410.799999997,1750410.6999999955,1745331.425,1745347,1745348.132,1750419.728,8,400,17,,ISIC_0054963.JPG
break,html.Screen,4_16_1,2023-09-08T19:12:04.675Z,,0,,,NaN,,,,,,false,,,,1750411.1999999955,1750411.099999994,,1750410.8999999985,,1750419.728,8,400,,,
break_continue,html.Screen,4_16_2,2023-09-08T19:12:04.675Z,,0,,,NaN,,,,,,false,,,,1750411.299999997,1750411.1999999955,,1750411.1999999955,,1750419.728,8,400,,,
sequence,flow.Sequence,4_16,2023-09-08T19:12:04.675Z,,0,,,5063.067999995546,completion,,,,,false,,,,1750411.3999999985,1750411.1999999955,1745331.425,1745347,1745348.132,1750419.728,8,400,,,
trial,html.Screen,4_17_0,2023-09-08T19:12:10.187Z,,0,1,,5502.772000000114,response,ISIC_0068246.JPG,4,ISIC_3596927.JPG,ISIC_0068246.JPG,false,1,keypress(m),500,1755922.599999994,1755922.5,1750403.056,1750411.3999999985,1750419.728,1755925.127,8,400,18,,ISIC_3596927.JPG
break,html.Screen,4_17_1,2023-09-08T19:12:10.187Z,,0,,,NaN,,,,,,false,,,,1755922.8999999985,1755922.8999999985,,1755922.6999999955,,1755925.127,8,400,,,
break_continue,html.Screen,4_17_2,2023-09-08T19:12:10.187Z,,0,,,NaN,,,,,,false,,,,1755923,1755923,,1755923,,1755925.127,8,400,,,
sequence,flow.Sequence,4_17,2023-09-08T19:12:10.187Z,,0,,,5503.272000000114,completion,,,,,false,,,,1755923.1999999955,1755923,1750403.056,1750411.3999999985,1750419.728,1755925.127,8,400,,,
trial,html.Screen,4_18_0,2023-09-08T19:12:16.034Z,,0,1,,5844.872999999905,response,ISIC_1731109.JPG,5,ISIC_0071586.JPG,ISIC_1731109.JPG,false,1,keypress(m),500,1761770.099999994,1761770,1755908.432,1755923.1999999955,1755925.127,1761780.841,8,400,19,,ISIC_0071586.JPG
break,html.Screen,4_18_1,2023-09-08T19:12:16.034Z,,0,,,NaN,,,,,,false,,,,1761770.3999999985,1761770.299999997,,1761770.099999994,,1761780.841,8,400,,,
break_continue,html.Screen,4_18_2,2023-09-08T19:12:16.035Z,,0,,,NaN,,,,,,false,,,,1761770.5,1761770.5,,1761770.5,,1761780.841,8,400,,,
sequence,flow.Sequence,4_18,2023-09-08T19:12:16.035Z,,0,,,5845.372999999905,completion,,,,,false,,,,1761770.599999994,1761770.5,1755908.432,1755923.1999999955,1755925.127,1761780.841,8,400,,,
trial,html.Screen,4_19_0,2023-09-08T19:12:22.164Z,,0,1,,6119.158999999985,response,ISIC_2197722.JPG,4,ISIC_1843053.JPG,ISIC_1843053.JPG,false,0,keypress(z),500,1767900.099999994,1767900,1761764.137,1761770.599999994,1761780.841,1767903.518,8,400,20,,ISIC_2197722.JPG
break,html.Screen,4_19_1,2023-09-08T19:12:22.165Z,,0,,,NaN,,,,,,false,,,,1767900.599999994,1767900.5,,1767900.299999997,,1767903.518,8,400,,,
break_continue,html.Screen,4_19_2,2023-09-08T19:12:22.165Z,,0,,,NaN,,,,,,false,,,,1767900.6999999955,1767900.6999999955,,1767900.599999994,,1767903.518,8,400,,,
sequence,flow.Sequence,4_19,2023-09-08T19:12:22.165Z,,0,,,6119.858999995515,completion,,,,,false,,,,1767900.6999999955,1767900.6999999955,1761764.137,1761770.599999994,1761780.841,1767903.518,8,400,,,
trial,html.Screen,4_20_0,2023-09-08T19:12:27.798Z,,0,1,,5629.982000000076,response,ISIC_3170155.JPG,5,ISIC_3833013.JPG,ISIC_3170155.JPG,false,1,keypress(m),500,1773533.6999999955,1773533.5,1767886.802,1767900.799999997,1767903.518,1773542.336,8,400,21,,ISIC_3833013.JPG
break,html.Screen,4_20_1,2023-09-08T19:12:27.798Z,,0,,,NaN,,,,,,false,,,,1773534,1773533.8999999985,,1773533.799999997,,1773542.336,8,400,,,
break_continue,html.Screen,4_20_2,2023-09-08T19:12:27.798Z,,0,,,NaN,,,,,,false,,,,1773534.1999999955,1773534.1999999955,,1773534,,1773542.336,8,400,,,
sequence,flow.Sequence,4_20,2023-09-08T19:12:27.798Z,,0,,,5630.681999995606,completion,,,,,false,,,,1773534.299999997,1773534.1999999955,1767886.802,1767900.6999999955,1767903.518,1773542.336,8,400,,,
trial,html.Screen,4_21_0,2023-09-08T19:12:31.671Z,,0,1,,3864.664000000106,response,ISIC_8320640.JPG,5,ISIC_0030697.JPG,ISIC_8320640.JPG,false,1,keypress(m),500,1777407.099999994,1777407,1773525.644,1773534.299999997,1773542.336,1777412.782,8,400,22,,ISIC_0030697.JPG
break,html.Screen,4_21_1,2023-09-08T19:12:31.671Z,,0,,,NaN,,,,,,false,,,,1777407.5,1777407.3999999985,,1777407.299999997,,1777412.782,8,400,,,
break_continue,html.Screen,4_21_2,2023-09-08T19:12:31.672Z,,0,,,NaN,,,,,,false,,,,1777407.5,1777407.5,,1777407.5,,1777412.782,8,400,,,
sequence,flow.Sequence,4_21,2023-09-08T19:12:31.672Z,,0,,,3865.164000000106,completion,,,,,false,,,,1777407.6999999955,1777407.5,1773525.644,1773534.299999997,1773542.336,1777412.782,8,400,,,
trial,html.Screen,4_22_0,2023-09-08T19:12:35.802Z,,0,1,,4124.61799999862,response,ISIC_4752144.JPG,5,ISIC_0060153.JPG,ISIC_4752144.JPG,false,1,keypress(m),500,1781537.5,1781537.3999999985,1777396.079,1777407.6999999955,1777412.782,1781550.153,8,400,23,,ISIC_0060153.JPG
break,html.Screen,4_22_1,2023-09-08T19:12:35.802Z,,0,,,NaN,,,,,,false,,,,1781537.799999997,1781537.799999997,,1781537.599999994,,1781550.153,8,400,,,
break_continue,html.Screen,4_22_2,2023-09-08T19:12:35.802Z,,0,,,NaN,,,,,,false,,,,1781538,1781538,,1781537.8999999985,,1781550.153,8,400,,,
sequence,flow.Sequence,4_22,2023-09-08T19:12:35.802Z,,0,,,4125.21800000011,completion,,,,,false,,,,1781538,1781538,1777396.079,1777407.6999999955,1777412.782,1781550.153,8,400,,,
trial,html.Screen,4_23_0,2023-09-08T19:12:40.187Z,,0,1,,4373.046999995597,response,ISIC_0068677.JPG,5,ISIC_0011238.JPG,ISIC_0011238.JPG,false,0,keypress(z),500,1785923.299999997,1785923.1999999955,1781533.468,1781538.099999994,1781550.153,1785937.78,8,400,24,,ISIC_0068677.JPG
break,html.Screen,4_23_1,2023-09-08T19:12:40.188Z,,0,,,NaN,,,,,,false,,,,1785923.599999994,1785923.5,,1785923.3999999985,,1785937.78,8,400,,,
break_continue,html.Screen,4_23_2,2023-09-08T19:12:40.188Z,,0,,,NaN,,,,,,false,,,,1785923.799999997,1785923.799999997,,1785923.599999994,,1785937.78,8,400,,,
sequence,flow.Sequence,4_23,2023-09-08T19:12:40.188Z,,0,,,4373.646999997087,completion,,,,,false,,,,1785923.799999997,1785923.799999997,1781533.468,1781538,1781550.153,1785937.78,8,400,,,
trial,html.Screen,4_24_0,2023-09-08T19:12:44.593Z,,0,1,,4391.219999999972,response,ISIC_3926019.JPG,5,ISIC_0817140.JPG,ISIC_0817140.JPG,false,0,keypress(z),500,1790329.099999994,1790329,1785921.079,1785923.799999997,1785937.78,1790342.069,8,400,25,,ISIC_3926019.JPG
break,html.Screen,4_24_1,2023-09-08T19:12:44.594Z,,0,,,NaN,,,,,,false,,,,1790329.599999994,1790329.5,,1790329.299999997,,1790342.069,8,400,,,
break_continue,html.Screen,4_24_2,2023-09-08T19:12:44.594Z,,0,,,NaN,,,,,,false,,,,1790329.6999999955,1790329.6999999955,,1790329.6999999955,,1790342.069,8,400,,,
sequence,flow.Sequence,4_24,2023-09-08T19:12:44.594Z,,0,,,4391.919999995502,completion,,,,,false,,,,1790329.6999999955,1790329.6999999955,1785921.079,1785923.799999997,1785937.78,1790342.069,8,400,,,
trial,html.Screen,4_25_0,2023-09-08T19:12:49.129Z,,0,1,,4522.7309999971185,response,ISIC_0011684.JPG,5,ISIC_1870415.JPG,ISIC_0011684.JPG,false,1,keypress(m),500,1794865,1794864.799999997,1790325.39,1790329.8999999985,1790342.069,1794879.851,8,400,26,,ISIC_1870415.JPG
break,html.Screen,4_25_1,2023-09-08T19:12:49.129Z,,0,,,NaN,,,,,,false,,,,1794865.299999997,1794865.299999997,,1794865.099999994,,1794879.851,8,400,,,
break_continue,html.Screen,4_25_2,2023-09-08T19:12:49.129Z,,0,,,NaN,,,,,,false,,,,1794865.3999999985,1794865.3999999985,,1794865.299999997,,1794879.851,8,400,,,
sequence,flow.Sequence,4_25,2023-09-08T19:12:49.130Z,,0,,,4523.330999998609,completion,,,,,false,,,,1794865.5,1794865.3999999985,1790325.39,1790329.799999997,1790342.069,1794879.851,8,400,,,
trial,html.Screen,4_26_0,2023-09-08T19:12:53.008Z,,0,1,,3864.148999999976,response,ISIC_0028781.JPG,4,ISIC_0032546.JPG,ISIC_0032546.JPG,false,0,keypress(z),500,1798744,1798744,1794863.158,1794865.599999994,1794879.851,1798750.305,8,400,27,,ISIC_0028781.JPG
break,html.Screen,4_26_1,2023-09-08T19:12:53.008Z,,0,,,NaN,,,,,,false,,,,1798744.3999999985,1798744.299999997,,1798744.1999999955,,1798750.305,8,400,,,
break_continue,html.Screen,4_26_2,2023-09-08T19:12:53.009Z,,0,,,NaN,,,,,,false,,,,1798744.5,1798744.5,,1798744.3999999985,,1798750.305,8,400,,,
sequence,flow.Sequence,4_26,2023-09-08T19:12:53.009Z,,0,,,3864.648999999976,completion,,,,,false,,,,1798744.5,1798744.5,1794863.158,1794865.599999994,1794879.851,1798750.305,8,400,,,
trial,html.Screen,4_27_0,2023-09-08T19:12:59.112Z,,0,1,,6097.494999997085,response,ISIC_1142962.JPG,4,ISIC_0066033.JPG,ISIC_0066033.JPG,false,0,keypress(z),500,1804848,1804847.799999997,1798733.605,1798744.599999994,1798750.305,1804872.93,8,400,28,,ISIC_1142962.JPG
break,html.Screen,4_27_1,2023-09-08T19:12:59.112Z,,0,,,NaN,,,,,,false,,,,1804848.299999997,1804848.299999997,,1804848.099999994,,1804872.93,8,400,,,
break_continue,html.Screen,4_27_2,2023-09-08T19:12:59.112Z,,0,,,NaN,,,,,,false,,,,1804848.3999999985,1804848.3999999985,,1804848.299999997,,1804872.93,8,400,,,
sequence,flow.Sequence,4_27,2023-09-08T19:12:59.113Z,,0,,,6098.094999998575,completion,,,,,false,,,,1804848.5,1804848.3999999985,1798733.605,1798744.5,1798750.305,1804872.93,8,400,,,
trial,html.Screen,4_28_0,2023-09-08T19:13:04.257Z,,0,1,,5119.269999995595,response,ISIC_0024351.JPG,5,ISIC_0065943.JPG,ISIC_0065943.JPG,false,0,keypress(z),500,1809992.3999999985,1809992.1999999955,1804856.263,1804848.5,1804872.93,1809994.621,8,400,29,,ISIC_0024351.JPG
break,html.Screen,4_28_1,2023-09-08T19:13:04.257Z,,0,,,NaN,,,,,,false,,,,1809992.6999999955,1809992.6999999955,,1809992.5,,1809994.621,8,400,,,
break_continue,html.Screen,4_28_2,2023-09-08T19:13:04.257Z,,0,,,NaN,,,,,,false,,,,1809992.799999997,1809992.799999997,,1809992.799999997,,1809994.621,8,400,,,
sequence,flow.Sequence,4_28,2023-09-08T19:13:04.257Z,,0,,,5119.869999997085,completion,,,,,false,,,,1809992.8999999985,1809992.799999997,1804856.263,1804848.5,1804872.93,1809994.621,8,400,,,
trial,html.Screen,4_29_0,2023-09-08T19:13:09.330Z,,0,1,,5071.378999999957,response,ISIC_0033845.JPG,4,ISIC_2095347.JPG,ISIC_2095347.JPG,false,0,keypress(z),500,1815066.099999994,1815066,1809977.925,1809992.8999999985,1809994.621,1815082.917,8,400,30,,ISIC_0033845.JPG
break,html.Screen,4_29_1,2023-09-08T19:13:09.331Z,,0,,,NaN,,,,,,false,,,,1815066.3999999985,1815066.3999999985,,1815066.1999999955,,1815082.917,8,400,,,
break_continue,html.Screen,4_29_2,2023-09-08T19:13:09.331Z,,0,,,NaN,,,,,,false,,,,1815066.5,1815066.5,,1815066.3999999985,,1815082.917,8,400,,,
sequence,flow.Sequence,4_29,2023-09-08T19:13:09.331Z,,0,,,5071.878999999957,completion,,,,,false,,,,1815066.599999994,1815066.5,1809977.925,1809992.8999999985,1809994.621,1815082.917,8,400,,,
trial,html.Screen,4_30_0,2023-09-08T19:13:13.636Z,,0,1,,4288.38299999712,response,ISIC_7205745.JPG,4,ISIC_0025757.JPG,ISIC_7205745.JPG,false,1,keypress(m),500,1819371.5,1819371.299999997,1815066.224,1815066.599999994,1815082.917,1819387.117,8,400,31,,ISIC_0025757.JPG
break,html.Screen,4_30_1,2023-09-08T19:13:13.636Z,,0,,,NaN,,,,,,false,,,,1819371.799999997,1819371.6999999955,,1819371.599999994,,1819387.117,8,400,,,
break_continue,html.Screen,4_30_2,2023-09-08T19:13:13.636Z,,0,,,NaN,,,,,,false,,,,1819371.8999999985,1819371.8999999985,,1819371.8999999985,,1819387.117,8,400,,,
sequence,flow.Sequence,4_30,2023-09-08T19:13:13.636Z,,0,,,4288.9829999986105,completion,,,,,false,,,,1819372,1819371.8999999985,1815066.224,1815066.599999994,1815082.917,1819387.117,8,400,,,
trial,html.Screen,4_31_0,2023-09-08T19:13:19.063Z,,0,1,,5412.182999996934,response,ISIC_0010609.JPG,6,ISIC_0071135.JPG,ISIC_0010609.JPG,false,1,keypress(m),500,1824799.3999999985,1824799.299999997,1819370.421,1819372,1819387.117,1824809.072,8,400,32,,ISIC_0071135.JPG
break,html.Screen,4_31_1,2023-09-08T19:13:19.064Z,,0,,,NaN,,,,,,false,,,,1824799.6999999955,1824799.6999999955,,1824799.599999994,,1824809.072,8,400,,,
break_continue,html.Screen,4_31_2,2023-09-08T19:13:19.064Z,,0,,,NaN,,,,,,false,,,,1824799.799999997,1824799.799999997,,1824799.799999997,,1824809.072,8,400,,,
sequence,flow.Sequence,4_31,2023-09-08T19:13:19.064Z,,0,,,5412.682999996934,completion,,,,,false,,,,1824799.8999999985,1824799.799999997,1819370.421,1819372,1819387.117,1824809.072,8,400,,,
trial,html.Screen,4_32_0,2023-09-08T19:13:23.055Z,,0,1,,3981.8279999985825,response,ISIC_0014800.JPG,5,ISIC_0028396.JPG,ISIC_0014800.JPG,false,1,keypress(m),500,1828791.099999994,1828790.8999999985,1824792.393,1824800,1824809.072,1828796.311,8,400,33,,ISIC_0028396.JPG
break,html.Screen,4_32_1,2023-09-08T19:13:23.055Z,,0,,,NaN,,,,,,false,,,,1828791.299999997,1828791.299999997,,1828791.1999999955,,1828796.311,8,400,,,
break_continue,html.Screen,4_32_2,2023-09-08T19:13:23.056Z,,0,,,NaN,,,,,,false,,,,1828791.5,1828791.5,,1828791.3999999985,,1828796.311,8,400,,,
sequence,flow.Sequence,4_32,2023-09-08T19:13:23.056Z,,0,,,3982.4280000000726,completion,,,,,false,,,,1828791.5,1828791.5,1824792.393,1824800,1824809.072,1828796.311,8,400,,,
trial,html.Screen,4_33_0,2023-09-08T19:13:27.079Z,,0,1,,4018.2889999940526,response,ISIC_0063241.JPG,5,ISIC_3994250.JPG,ISIC_0063241.JPG,false,1,keypress(m),500,1832814.6999999955,1832814.599999994,1828779.626,1828791.5,1828796.311,1832816.906,8,400,34,,ISIC_3994250.JPG
break,html.Screen,4_33_1,2023-09-08T19:13:27.079Z,,0,,,NaN,,,,,,false,,,,1832815,1832815,,1832814.799999997,,1832816.906,8,400,,,
break_continue,html.Screen,4_33_2,2023-09-08T19:13:27.079Z,,0,,,NaN,,,,,,false,,,,1832815.1999999955,1832815.1999999955,,1832815.099999994,,1832816.906,8,400,,,
sequence,flow.Sequence,4_33,2023-09-08T19:13:27.079Z,,0,,,4018.8889999955427,completion,,,,,false,,,,1832815.1999999955,1832815.1999999955,1828779.626,1828791.5,1828796.311,1832816.906,8,400,,,
trial,html.Screen,4_34_0,2023-09-08T19:13:31.352Z,,0,1,,4271.094000000041,response,ISIC_5219334.JPG,5,ISIC_0060390.JPG,ISIC_0060390.JPG,false,0,keypress(z),500,1837088.099999994,1837088,1832800.222,1832815.299999997,1832816.906,1837104.421,8,400,35,,ISIC_5219334.JPG
break,html.Screen,4_34_1,2023-09-08T19:13:31.352Z,,0,,,NaN,,,,,,false,,,,1837088.3999999985,1837088.299999997,,1837088.1999999955,,1837104.421,8,400,,,
break_continue,html.Screen,4_34_2,2023-09-08T19:13:31.353Z,,0,,,NaN,,,,,,false,,,,1837088.5,1837088.5,,1837088.5,,1837104.421,8,400,,,
sequence,flow.Sequence,4_34,2023-09-08T19:13:31.353Z,,0,,,4271.594000000041,completion,,,,,false,,,,1837088.5,1837088.5,1832800.222,1832815.1999999955,1832816.906,1837104.421,8,400,,,
trial,html.Screen,4_35_0,2023-09-08T19:13:36.554Z,,0,1,,5185.17899999395,response,ISIC_0009622.JPG,4,ISIC_6532137.JPG,ISIC_6532137.JPG,false,0,keypress(z),500,1842289.799999997,1842289.599999994,1837087.743,1837088.599999994,1837104.421,1842292.847,8,400,36,,ISIC_0009622.JPG
break,html.Screen,4_35_1,2023-09-08T19:13:36.554Z,,0,,,NaN,,,,,,false,,,,1842290.099999994,1842290.099999994,,1842289.8999999985,,1842292.847,8,400,,,
break_continue,html.Screen,4_35_2,2023-09-08T19:13:36.554Z,,0,,,NaN,,,,,,false,,,,1842290.1999999955,1842290.1999999955,,1842290.099999994,,1842292.847,8,400,,,
sequence,flow.Sequence,4_35,2023-09-08T19:13:36.554Z,,0,,,5185.77899999544,completion,,,,,false,,,,1842290.1999999955,1842290.1999999955,1837087.743,1837088.599999994,1837104.421,1842292.847,8,400,,,
trial,html.Screen,4_36_0,2023-09-08T19:13:42.123Z,,0,1,,5566.2529999939725,response,ISIC_0963531.JPG,4,ISIC_0028220.JPG,ISIC_0028220.JPG,false,0,keypress(z),500,1847859.1999999955,1847859.099999994,1842276.147,1842290.299999997,1842292.847,1847864.926,8,400,37,,ISIC_0963531.JPG
break,html.Screen,4_36_1,2023-09-08T19:13:42.124Z,,0,,,NaN,,,,,,false,,,,1847859.599999994,1847859.5,,1847859.3999999985,,1847864.926,8,400,,,
break_continue,html.Screen,4_36_2,2023-09-08T19:13:42.124Z,,0,,,NaN,,,,,,false,,,,1847859.599999994,1847859.599999994,,1847859.599999994,,1847864.926,8,400,,,
sequence,flow.Sequence,4_36,2023-09-08T19:13:42.124Z,,0,,,5566.7529999939725,completion,,,,,false,,,,1847859.799999997,1847859.599999994,1842276.147,1842290.1999999955,1842292.847,1847864.926,8,400,,,
trial,html.Screen,4_37_0,2023-09-08T19:13:46.446Z,,0,1,,4317.173999994062,response,ISIC_0708542.JPG,5,ISIC_0034188.JPG,ISIC_0708542.JPG,false,1,keypress(m),500,1852182.299999997,1852182.099999994,1847848.259,1847859.799999997,1847864.926,1852202.519,8,400,38,,ISIC_0034188.JPG
break,html.Screen,4_37_1,2023-09-08T19:13:46.447Z,,0,,,NaN,,,,,,false,,,,1852182.599999994,1852182.3999999985,,1852182.299999997,,1852202.519,8,400,,,
break_continue,html.Screen,4_37_2,2023-09-08T19:13:46.447Z,,0,,,NaN,,,,,,false,,,,1852182.6999999955,1852182.599999994,,1852182.599999994,,1852202.519,8,400,,,
sequence,flow.Sequence,4_37,2023-09-08T19:13:46.447Z,,0,,,4317.673999994062,completion,,,,,false,,,,1852182.6999999955,1852182.599999994,1847848.259,1847859.799999997,1847864.926,1852202.519,8,400,,,
trial,html.Screen,4_38_0,2023-09-08T19:13:50.609Z,,0,1,,4141.880999998422,response,ISIC_0679781.JPG,4,ISIC_3401631.JPG,ISIC_3401631.JPG,false,0,keypress(z),500,1856344.5,1856344.3999999985,1852185.824,1852182.6999999955,1852202.519,1856356.568,8,400,39,,ISIC_0679781.JPG
break,html.Screen,4_38_1,2023-09-08T19:13:50.609Z,,0,,,NaN,,,,,,false,,,,1856344.799999997,1856344.6999999955,,1856344.599999994,,1856356.568,8,400,,,
break_continue,html.Screen,4_38_2,2023-09-08T19:13:50.609Z,,0,,,NaN,,,,,,false,,,,1856344.8999999985,1856344.8999999985,,1856344.799999997,,1856356.568,8,400,,,
sequence,flow.Sequence,4_38,2023-09-08T19:13:50.609Z,,0,,,4142.380999998422,completion,,,,,false,,,,1856345,1856344.8999999985,1852185.824,1852182.6999999955,1852202.519,1856356.568,8,400,,,
trial,html.Screen,4_39_0,2023-09-08T19:13:55.718Z,,0,1,,5097.73199999705,response,ISIC_1620401.JPG,5,ISIC_0060380.JPG,ISIC_0060380.JPG,false,0,keypress(z),500,1861454.3999999985,1861454.299999997,1856339.889,1856345,1856356.568,1861461.572,8,400,40,,ISIC_1620401.JPG
break,html.Screen,4_39_1,2023-09-08T19:13:55.719Z,,0,,,NaN,,,,,,false,,,,1861454.6999999955,1861454.6999999955,,1861454.5,,1861461.572,8,400,,,
break_continue,html.Screen,4_39_2,2023-09-08T19:13:55.719Z,,0,,,NaN,,,,,,false,,,,1861454.8999999985,1861454.799999997,,1861454.799999997,,1861461.572,8,400,,,
sequence,flow.Sequence,4_39,2023-09-08T19:13:55.719Z,,0,,,5098.23199999705,completion,,,,,false,,,,1861454.8999999985,1861454.799999997,1856339.889,1856345,1856356.568,1861461.572,8,400,,,
trial,html.Screen,4_40_0,2023-09-08T19:13:59.864Z,,0,1,,4137.928000000073,response,ISIC_2954564.JPG,5,ISIC_9167290.JPG,ISIC_2954564.JPG,false,1,keypress(m),500,1865599.6999999955,1865599.5,1861444.91,1861455,1861461.572,1865615.625,8,400,41,,ISIC_9167290.JPG
break,html.Screen,4_40_1,2023-09-08T19:13:59.864Z,,0,,,NaN,,,,,,false,,,,1865600,1865599.8999999985,,1865599.6999999955,,1865615.625,8,400,,,
break_continue,html.Screen,4_40_2,2023-09-08T19:13:59.864Z,,0,,,NaN,,,,,,false,,,,1865600.099999994,1865600,,1865600,,1865615.625,8,400,,,
sequence,flow.Sequence,4_40,2023-09-08T19:13:59.864Z,,0,,,4138.428000000073,completion,,,,,false,,,,1865600.099999994,1865600,1861444.91,1861455,1861461.572,1865615.625,8,400,,,
trial,html.Screen,4_41_0,2023-09-08T19:14:04.233Z,,0,1,,4353.17499999702,response,ISIC_4246086.JPG,6,ISIC_2916677.JPG,ISIC_4246086.JPG,false,1,keypress(m),500,1869968.8999999985,1869968.799999997,1865598.93,1865600.1999999955,1865615.625,1869987.857,8,400,42,,ISIC_2916677.JPG
break,html.Screen,4_41_1,2023-09-08T19:14:04.233Z,,0,,,NaN,,,,,,false,,,,1869969.299999997,1869969.099999994,,1869969,,1869987.857,8,400,,,
break_continue,html.Screen,4_41_2,2023-09-08T19:14:04.233Z,,0,,,NaN,,,,,,false,,,,1869969.3999999985,1869969.3999999985,,1869969.299999997,,1869987.857,8,400,,,
sequence,flow.Sequence,4_41,2023-09-08T19:14:04.233Z,,0,,,4353.77499999851,completion,,,,,false,,,,1869969.5,1869969.3999999985,1865598.93,1865600.1999999955,1865615.625,1869987.857,8,400,,,
trial,html.Screen,4_42_0,2023-09-08T19:14:08.541Z,,0,1,,4288.942999996943,response,ISIC_0010863.JPG,5,ISIC_0009622.JPG,ISIC_0010863.JPG,false,1,keypress(m),500,1874277,1874276.799999997,1869953.188,1869969.5,1869987.857,1874290.772,8,400,43,,ISIC_0009622.JPG
break,html.Screen,4_42_1,2023-09-08T19:14:08.541Z,,0,,,NaN,,,,,,false,,,,1874277.299999997,1874277.1999999955,,1874277,,1874290.772,8,400,,,
break_continue,html.Screen,4_42_2,2023-09-08T19:14:08.541Z,,0,,,NaN,,,,,,false,,,,1874277.3999999985,1874277.3999999985,,1874277.299999997,,1874290.772,8,400,,,
sequence,flow.Sequence,4_42,2023-09-08T19:14:08.541Z,,0,,,4289.5429999984335,completion,,,,,false,,,,1874277.5,1874277.3999999985,1869953.188,1869969.5,1869987.857,1874290.772,8,400,,,
trial,html.Screen,4_43_0,2023-09-08T19:14:13.039Z,,0,1,,4483.727999999886,response,ISIC_4243283.JPG,4,ISIC_0011289.JPG,ISIC_0011289.JPG,false,0,keypress(z),500,1878774.6999999955,1878774.5,1874274.078,1874277.5,1874290.772,1878778.5,8,400,44,,ISIC_4243283.JPG
break,html.Screen,4_43_1,2023-09-08T19:14:13.039Z,,0,,,NaN,,,,,,false,,,,1878775,1878775,,1878774.6999999955,,1878778.5,8,400,,,
break_continue,html.Screen,4_43_2,2023-09-08T19:14:13.039Z,,0,,,NaN,,,,,,false,,,,1878775.1999999955,1878775.099999994,,1878775.099999994,,1878778.5,8,400,,,
sequence,flow.Sequence,4_43,2023-09-08T19:14:13.039Z,,0,,,4484.327999993926,completion,,,,,false,,,,1878775.1999999955,1878775.099999994,1874274.078,1874277.5,1874290.772,1878778.5,8,400,,,
trial,html.Screen,4_44_0,2023-09-08T19:14:17.013Z,,0,1,,3970.39999999851,response,ISIC_0055917.JPG,5,ISIC_9130157.JPG,ISIC_0055917.JPG,false,1,keypress(m),500,1882749.099999994,1882748.8999999985,1878761.795,1878775.1999999955,1878778.5,1882765.701,8,400,45,,ISIC_9130157.JPG
break,html.Screen,4_44_1,2023-09-08T19:14:17.013Z,,0,,,NaN,,,,,,false,,,,1882749.3999999985,1882749.299999997,,1882749.1999999955,,1882765.701,8,400,,,
break_continue,html.Screen,4_44_2,2023-09-08T19:14:17.014Z,,0,,,NaN,,,,,,false,,,,1882749.5,1882749.3999999985,,1882749.3999999985,,1882765.701,8,400,,,
sequence,flow.Sequence,4_44,2023-09-08T19:14:17.014Z,,0,,,3970.89999999851,completion,,,,,false,,,,1882749.5,1882749.3999999985,1878761.795,1878775.1999999955,1878778.5,1882765.701,8,400,,,
trial,html.Screen,4_45_0,2023-09-08T19:14:22.509Z,,0,1,,5478.898999994155,response,ISIC_0013588.JPG,5,ISIC_3529778.JPG,ISIC_0013588.JPG,false,1,keypress(m),500,1888244.799999997,1888244.599999994,1882749.018,1882749.599999994,1882765.701,1888254.399,8,400,46,,ISIC_3529778.JPG
break,html.Screen,4_45_1,2023-09-08T19:14:22.509Z,,0,,,NaN,,,,,,false,,,,1888245.1999999955,1888245.099999994,,1888244.8999999985,,1888254.399,8,400,,,
break_continue,html.Screen,4_45_2,2023-09-08T19:14:22.509Z,,0,,,NaN,,,,,,false,,,,1888245.3999999985,1888245.299999997,,1888245.299999997,,1888254.399,8,400,,,
sequence,flow.Sequence,4_45,2023-09-08T19:14:22.510Z,,0,,,5479.598999997135,completion,,,,,false,,,,1888245.3999999985,1888245.299999997,1882749.018,1882749.599999994,1882765.701,1888254.399,8,400,,,
trial,html.Screen,4_46_0,2023-09-08T19:14:26.997Z,,0,1,,4478.400999997044,response,ISIC_0029993.JPG,5,ISIC_0030404.JPG,ISIC_0029993.JPG,false,1,keypress(m),500,1892732.8999999985,1892732.799999997,1888237.702,1888245.5,1888254.399,1892758.804,8,400,47,,ISIC_0030404.JPG
break,html.Screen,4_46_1,2023-09-08T19:14:26.997Z,,0,,,NaN,,,,,,false,,,,1892733.099999994,1892733.099999994,,1892733,,1892758.804,8,400,,,
break_continue,html.Screen,4_46_2,2023-09-08T19:14:26.997Z,,0,,,NaN,,,,,,false,,,,1892733.299999997,1892733.299999997,,1892733.1999999955,,1892758.804,8,400,,,
sequence,flow.Sequence,4_46,2023-09-08T19:14:26.997Z,,0,,,4478.900999997044,completion,,,,,false,,,,1892733.299999997,1892733.299999997,1888237.702,1888245.5,1888254.399,1892758.804,8,400,,,
trial,html.Screen,4_47_0,2023-09-08T19:14:33.014Z,,0,1,,5991.295999994036,response,ISIC_0065121.JPG,4,ISIC_2885086.JPG,ISIC_2885086.JPG,false,0,keypress(z),500,1898750.1999999955,1898750.099999994,1892742.118,1892733.3999999985,1892758.804,1898764.668,8,400,48,,ISIC_0065121.JPG
break,html.Screen,4_47_1,2023-09-08T19:14:33.015Z,,0,,,NaN,,,,,,false,,,,1898750.5,1898750.3999999985,,1898750.1999999955,,1898764.668,8,400,,,
break_continue,html.Screen,4_47_2,2023-09-08T19:14:33.015Z,,0,,,NaN,,,,,,false,,,,1898750.599999994,1898750.5,,1898750.5,,1898764.668,8,400,,,
sequence,flow.Sequence,4_47,2023-09-08T19:14:33.015Z,,0,,,5991.695999999996,completion,,,,,false,,,,1898750.6999999955,1898750.5,1892742.118,1892733.3999999985,1892758.804,1898764.668,8,400,,,
trial,html.Screen,4_48_0,2023-09-08T19:14:38.183Z,,0,1,,5154.431999993976,response,ISIC_0055191.JPG,4,ISIC_1331993.JPG,ISIC_1331993.JPG,false,0,keypress(z),500,1903919.1999999955,1903919.099999994,1898747.98,1898750.6999999955,1898764.668,1903953.083,8,400,49,,ISIC_0055191.JPG
break,html.Screen,4_48_1,2023-09-08T19:14:38.184Z,,0,,,NaN,,,,,,false,,,,1903919.599999994,1903919.5,,1903919.3999999985,,1903953.083,8,400,,,
break_continue,html.Screen,4_48_2,2023-09-08T19:14:38.184Z,,0,,,NaN,,,,,,false,,,,1903919.6999999955,1903919.6999999955,,1903919.599999994,,1903953.083,8,400,,,
sequence,flow.Sequence,4_48,2023-09-08T19:14:38.184Z,,0,,,5155.031999995466,completion,,,,,false,,,,1903919.6999999955,1903919.6999999955,1898747.98,1898750.6999999955,1898764.668,1903953.083,8,400,,,
trial,html.Screen,4_49_0,2023-09-08T19:14:44.025Z,,0,1,,5807.516999993939,response,ISIC_0072865.JPG,6,ISIC_3105136.JPG,ISIC_0072865.JPG,false,1,keypress(m),500,1909760.6999999955,1909760.599999994,1903936.41,1903919.799999997,1903953.083,1909775.423,8,400,50,,ISIC_3105136.JPG
break,html.Screen,4_49_1,2023-09-08T19:14:54.016Z,,0,,,9993.107000000076,timeout,,,,,false,,,,1919752,1919751.835,1909758.748,1909760.8999999985,1909775.423,1919768.53,8,400,,,
break_continue,html.Screen,4_49_2,2023-09-08T19:14:56.593Z,,0,,,2557.869999998482,response,,,,,false,continue,keypress(Space),,1922329.599999994,1922326.3999999985,1919751.835,1919752,1919768.53,1922337.703,8,400,,,
sequence,flow.Sequence,4_49,2023-09-08T19:14:56.593Z,,0,,,18373.31699999841,completion,,,,,false,,,,1922329.599999994,1922326.3999999985,1903936.41,1903919.799999997,1903953.083,1922337.703,8,400,,,
trial,html.Screen,4_50_0,2023-09-08T19:15:00.514Z,,0,2,,3912.49699999555,response,ISIC_7167479.JPG,4,ISIC_1200689.JPG,ISIC_1200689.JPG,false,0,keypress(z),500,1926250.299999997,1926250.1999999955,1922321.013,1922329.6999999955,1922337.703,1926258.209,8,400,1,,ISIC_7167479.JPG
break,html.Screen,4_50_1,2023-09-08T19:15:00.514Z,,0,,,NaN,,,,,,false,,,,1926250.599999994,1926250.5,,1926250.3999999985,,1926258.209,8,400,,,
break_continue,html.Screen,4_50_2,2023-09-08T19:15:00.515Z,,0,,,NaN,,,,,,false,,,,1926250.799999997,1926250.6999999955,,1926250.599999994,,1926258.209,8,400,,,
sequence,flow.Sequence,4_50,2023-09-08T19:15:00.515Z,,0,,,3912.99699999555,completion,,,,,false,,,,1926250.799999997,1926250.6999999955,1922321.013,1922329.6999999955,1922337.703,1926258.209,8,400,,,
trial,html.Screen,4_51_0,2023-09-08T19:15:04.539Z,,0,2,,4016.2909999999683,response,ISIC_4554863.JPG,4,ISIC_0009883.JPG,ISIC_0009883.JPG,false,0,keypress(z),500,1930274.6999999955,1930274.5,1926241.509,1926250.799999997,1926258.209,1930278.82,8,400,2,,ISIC_4554863.JPG
break,html.Screen,4_51_1,2023-09-08T19:15:04.539Z,,0,,,NaN,,,,,,false,,,,1930275,1930275,,1930274.799999997,,1930278.82,8,400,,,
break_continue,html.Screen,4_51_2,2023-09-08T19:15:04.539Z,,0,,,NaN,,,,,,false,,,,1930275.099999994,1930275.099999994,,1930275.099999994,,1930278.82,8,400,,,
sequence,flow.Sequence,4_51,2023-09-08T19:15:04.539Z,,0,,,4016.890999994008,completion,,,,,false,,,,1930275.1999999955,1930275.099999994,1926241.509,1926250.799999997,1926258.209,1930278.82,8,400,,,
trial,html.Screen,4_52_0,2023-09-08T19:15:09.250Z,,0,2,,4707.179999999935,response,ISIC_5367118.JPG,6,ISIC_5552066.JPG,ISIC_5552066.JPG,false,0,keypress(z),500,1934986.1999999955,1934986,1930262.132,1930275.299999997,1930278.82,1935000.078,8,400,3,,ISIC_5367118.JPG
break,html.Screen,4_52_1,2023-09-08T19:15:09.250Z,,0,,,NaN,,,,,,false,,,,1934986.5,1934986.5,,1934986.299999997,,1935000.078,8,400,,,
break_continue,html.Screen,4_52_2,2023-09-08T19:15:09.250Z,,0,,,NaN,,,,,,false,,,,1934986.599999994,1934986.599999994,,1934986.5,,1935000.078,8,400,,,
sequence,flow.Sequence,4_52,2023-09-08T19:15:09.251Z,,0,,,4707.779999993974,completion,,,,,false,,,,1934986.6999999955,1934986.599999994,1930262.132,1930275.299999997,1930278.82,1935000.078,8,400,,,
trial,html.Screen,4_53_0,2023-09-08T19:15:14.971Z,,0,2,,5707.22199999704,response,ISIC_0033279.JPG,5,ISIC_0071944.JPG,ISIC_0033279.JPG,false,1,keypress(m),500,1940707.3999999985,1940707.299999997,1934983.604,1934986.799999997,1935000.078,1940722.335,8,400,4,,ISIC_0071944.JPG
break,html.Screen,4_53_1,2023-09-08T19:15:14.972Z,,0,,,NaN,,,,,,false,,,,1940707.6999999955,1940707.6999999955,,1940707.599999994,,1940722.335,8,400,,,
break_continue,html.Screen,4_53_2,2023-09-08T19:15:14.972Z,,0,,,NaN,,,,,,false,,,,1940707.8999999985,1940707.8999999985,,1940707.799999997,,1940722.335,8,400,,,
sequence,flow.Sequence,4_53,2023-09-08T19:15:14.972Z,,0,,,5707.82199999853,completion,,,,,false,,,,1940707.8999999985,1940707.8999999985,1934983.604,1934986.799999997,1935000.078,1940722.335,8,400,,,
trial,html.Screen,4_54_0,2023-09-08T19:15:19.442Z,,0,2,,4455.864999995567,response,ISIC_5910975.JPG,4,ISIC_5961092.JPG,ISIC_5910975.JPG,false,1,keypress(m),500,1945178.299999997,1945178.1999999955,1940705.647,1940708,1940722.335,1945193.375,8,400,5,,ISIC_5961092.JPG
break,html.Screen,4_54_1,2023-09-08T19:15:19.442Z,,0,,,NaN,,,,,,false,,,,1945178.599999994,1945178.599999994,,1945178.3999999985,,1945193.375,8,400,,,
break_continue,html.Screen,4_54_2,2023-09-08T19:15:19.442Z,,0,,,NaN,,,,,,false,,,,1945178.6999999955,1945178.6999999955,,1945178.599999994,,1945193.375,8,400,,,
sequence,flow.Sequence,4_54,2023-09-08T19:15:19.443Z,,0,,,4456.364999995567,completion,,,,,false,,,,1945178.6999999955,1945178.6999999955,1940705.647,1940708,1940722.335,1945193.375,8,400,,,
trial,html.Screen,4_55_0,2023-09-08T19:15:24.004Z,,0,2,,4546.42499999702,response,ISIC_2457024.JPG,5,ISIC_0032095.JPG,ISIC_2457024.JPG,false,1,keypress(m),500,1949740,1949739.799999997,1945176.676,1945178.799999997,1945193.375,1949747.838,8,400,6,,ISIC_0032095.JPG
break,html.Screen,4_55_1,2023-09-08T19:15:24.004Z,,0,,,NaN,,,,,,false,,,,1949740.299999997,1949740.1999999955,,1949740.099999994,,1949747.838,8,400,,,
break_continue,html.Screen,4_55_2,2023-09-08T19:15:24.004Z,,0,,,NaN,,,,,,false,,,,1949740.3999999985,1949740.3999999985,,1949740.299999997,,1949747.838,8,400,,,
sequence,flow.Sequence,4_55,2023-09-08T19:15:24.004Z,,0,,,4547.02499999851,completion,,,,,false,,,,1949740.3999999985,1949740.3999999985,1945176.676,1945178.6999999955,1945193.375,1949747.838,8,400,,,
trial,html.Screen,4_56_0,2023-09-08T19:15:29.994Z,,0,2,,5981.861999995541,response,ISIC_7319686.JPG,5,ISIC_0025491.JPG,ISIC_7319686.JPG,false,1,keypress(m),500,1955729.799999997,1955729.6999999955,1949731.139,1949740.3999999985,1949747.838,1955737.018,8,400,7,,ISIC_0025491.JPG
break,html.Screen,4_56_1,2023-09-08T19:15:29.994Z,,0,,,NaN,,,,,,false,,,,1955730.099999994,1955730,,1955729.8999999985,,1955737.018,8,400,,,
break_continue,html.Screen,4_56_2,2023-09-08T19:15:29.994Z,,0,,,NaN,,,,,,false,,,,1955730.1999999955,1955730.1999999955,,1955730.099999994,,1955737.018,8,400,,,
sequence,flow.Sequence,4_56,2023-09-08T19:15:29.994Z,,0,,,5982.361999995541,completion,,,,,false,,,,1955730.299999997,1955730.1999999955,1949731.139,1949740.3999999985,1949747.838,1955737.018,8,400,,,
trial,html.Screen,4_57_0,2023-09-08T19:15:34.955Z,,0,2,,4954.181999995606,response,ISIC_5439597.JPG,5,ISIC_0033605.JPG,ISIC_0033605.JPG,false,0,keypress(z),500,1960691.299999997,1960691.1999999955,1955720.323,1955730.299999997,1955737.018,1960709.161,8,400,8,,ISIC_5439597.JPG
break,html.Screen,4_57_1,2023-09-08T19:15:34.955Z,,0,,,NaN,,,,,,false,,,,1960691.599999994,1960691.599999994,,1960691.3999999985,,1960709.161,8,400,,,
break_continue,html.Screen,4_57_2,2023-09-08T19:15:34.956Z,,0,,,NaN,,,,,,false,,,,1960691.6999999955,1960691.6999999955,,1960691.599999994,,1960709.161,8,400,,,
sequence,flow.Sequence,4_57,2023-09-08T19:15:34.956Z,,0,,,4954.681999995606,completion,,,,,false,,,,1960691.799999997,1960691.6999999955,1955720.323,1955730.299999997,1955737.018,1960709.161,8,400,,,
trial,html.Screen,4_58_0,2023-09-08T19:15:39.473Z,,0,2,,4500.33899999992,response,ISIC_0071826.JPG,4,ISIC_0063447.JPG,ISIC_0071826.JPG,false,1,keypress(m),500,1965209.599999994,1965209.5,1960675.165,1960691.799999997,1960709.161,1965212.96,8,400,9,,ISIC_0063447.JPG
break,html.Screen,4_58_1,2023-09-08T19:15:39.474Z,,0,,,NaN,,,,,,false,,,,1965209.8999999985,1965209.8999999985,,1965209.6999999955,,1965212.96,8,400,,,
break_continue,html.Screen,4_58_2,2023-09-08T19:15:39.474Z,,0,,,NaN,,,,,,false,,,,1965210.099999994,1965210.099999994,,1965210,,1965212.96,8,400,,,
sequence,flow.Sequence,4_58,2023-09-08T19:15:39.474Z,,0,,,4500.938999993959,completion,,,,,false,,,,1965210.1999999955,1965210.099999994,1960675.165,1960691.799999997,1960709.161,1965212.96,8,400,,,
trial,html.Screen,4_59_0,2023-09-08T19:15:44.595Z,,0,2,,5117.939999998547,response,ISIC_4874581.JPG,5,ISIC_0021442.JPG,ISIC_0021442.JPG,false,0,keypress(z),500,1970331,1970330.8999999985,1965196.249,1965210.1999999955,1965212.96,1970334.645,8,400,10,,ISIC_4874581.JPG
break,html.Screen,4_59_1,2023-09-08T19:15:44.595Z,,0,,,NaN,,,,,,false,,,,1970331.299999997,1970331.099999994,,1970331,,1970334.645,8,400,,,
break_continue,html.Screen,4_59_2,2023-09-08T19:15:44.595Z,,0,,,NaN,,,,,,false,,,,1970331.3999999985,1970331.299999997,,1970331.299999997,,1970334.645,8,400,,,
sequence,flow.Sequence,4_59,2023-09-08T19:15:44.595Z,,0,,,5118.339999997057,completion,,,,,false,,,,1970331.3999999985,1970331.299999997,1965196.249,1965210.1999999955,1965212.96,1970334.645,8,400,,,
trial,html.Screen,4_60_0,2023-09-08T19:15:50.388Z,,0,2,,5789.154999997001,response,ISIC_6255113.JPG,4,ISIC_6673956.JPG,ISIC_6255113.JPG,false,1,keypress(m),500,1976123.8999999985,1976123.799999997,1970317.921,1970331.5,1970334.645,1976140.271,8,400,11,,ISIC_6673956.JPG
break,html.Screen,4_60_1,2023-09-08T19:15:50.388Z,,0,,,NaN,,,,,,false,,,,1976124.299999997,1976124.1999999955,,1976124.099999994,,1976140.271,8,400,,,
break_continue,html.Screen,4_60_2,2023-09-08T19:15:50.388Z,,0,,,NaN,,,,,,false,,,,1976124.3999999985,1976124.3999999985,,1976124.3999999985,,1976140.271,8,400,,,
sequence,flow.Sequence,4_60,2023-09-08T19:15:50.388Z,,0,,,5789.754999998491,completion,,,,,false,,,,1976124.5,1976124.3999999985,1970317.921,1970331.5,1970334.645,1976140.271,8,400,,,
trial,html.Screen,4_61_0,2023-09-08T19:15:55.061Z,,0,2,,4656.82899999409,response,ISIC_0430356.JPG,4,ISIC_6225409.JPG,ISIC_6225409.JPG,false,0,keypress(z),500,1980797.1999999955,1980797.099999994,1976123.592,1976124.5,1976140.271,1980811.501,8,400,12,,ISIC_0430356.JPG
break,html.Screen,4_61_1,2023-09-08T19:15:55.062Z,,0,,,NaN,,,,,,false,,,,1980797.599999994,1980797.599999994,,1980797.3999999985,,1980811.501,8,400,,,
break_continue,html.Screen,4_61_2,2023-09-08T19:15:55.062Z,,0,,,NaN,,,,,,false,,,,1980797.6999999955,1980797.6999999955,,1980797.6999999955,,1980811.501,8,400,,,
sequence,flow.Sequence,4_61,2023-09-08T19:15:55.062Z,,0,,,4657.42899999558,completion,,,,,false,,,,1980797.799999997,1980797.6999999955,1976123.592,1976124.5,1976140.271,1980811.501,8,400,,,
trial,html.Screen,4_62_0,2023-09-08T19:15:59.496Z,,0,2,,4420.598999994108,response,ISIC_0000029.JPG,5,ISIC_2778131.JPG,ISIC_2778131.JPG,false,0,keypress(z),500,1985232.299999997,1985232.099999994,1980794.82,1980797.799999997,1980811.501,1985249.169,8,400,13,,ISIC_0000029.JPG
break,html.Screen,4_62_1,2023-09-08T19:15:59.497Z,,0,,,NaN,,,,,,false,,,,1985232.599999994,1985232.5,,1985232.299999997,,1985249.169,8,400,,,
break_continue,html.Screen,4_62_2,2023-09-08T19:15:59.497Z,,0,,,NaN,,,,,,false,,,,1985232.599999994,1985232.599999994,,1985232.599999994,,1985249.169,8,400,,,
sequence,flow.Sequence,4_62,2023-09-08T19:15:59.497Z,,0,,,4421.098999994108,completion,,,,,false,,,,1985232.799999997,1985232.599999994,1980794.82,1980797.799999997,1980811.501,1985249.169,8,400,,,
trial,html.Screen,4_63_0,2023-09-08T19:16:03.665Z,,0,2,,4151.331000000006,response,ISIC_3706743.JPG,5,ISIC_0046741.JPG,ISIC_0046741.JPG,false,0,keypress(z),500,1989400.6999999955,1989400.5,1985232.494,1985232.799999997,1985249.169,1989403.252,8,400,14,,ISIC_3706743.JPG
break,html.Screen,4_63_1,2023-09-08T19:16:03.665Z,,0,,,NaN,,,,,,false,,,,1989401,1989400.8999999985,,1989400.6999999955,,1989403.252,8,400,,,
break_continue,html.Screen,4_63_2,2023-09-08T19:16:03.665Z,,0,,,NaN,,,,,,false,,,,1989401.099999994,1989401.099999994,,1989401.099999994,,1989403.252,8,400,,,
sequence,flow.Sequence,4_63,2023-09-08T19:16:03.665Z,,0,,,4151.930999994045,completion,,,,,false,,,,1989401.099999994,1989401.099999994,1985232.494,1985232.799999997,1985249.169,1989403.252,8,400,,,
trial,html.Screen,4_64_0,2023-09-08T19:16:09.096Z,,0,2,,5428.8479999939445,response,ISIC_3084213.JPG,5,ISIC_7727830.JPG,ISIC_7727830.JPG,false,0,keypress(z),500,1994832.1999999955,1994832.099999994,1989386.552,1989401.1999999955,1989403.252,1994841.876,8,400,15,,ISIC_3084213.JPG
break,html.Screen,4_64_1,2023-09-08T19:16:09.097Z,,0,,,NaN,,,,,,false,,,,1994832.599999994,1994832.5,,1994832.299999997,,1994841.876,8,400,,,
break_continue,html.Screen,4_64_2,2023-09-08T19:16:09.097Z,,0,,,NaN,,,,,,false,,,,1994832.6999999955,1994832.6999999955,,1994832.599999994,,1994841.876,8,400,,,
sequence,flow.Sequence,4_64,2023-09-08T19:16:09.097Z,,0,,,5429.447999995435,completion,,,,,false,,,,1994832.6999999955,1994832.6999999955,1989386.552,1989401.1999999955,1989403.252,1994841.876,8,400,,,
trial,html.Screen,4_65_0,2023-09-08T19:16:13.744Z,,0,2,,4637.723999994108,response,ISIC_0011448.JPG,6,ISIC_9756117.JPG,ISIC_9756117.JPG,false,0,keypress(z),500,1999479.799999997,1999479.599999994,1994825.189,1994832.799999997,1994841.876,1999496.438,8,400,16,,ISIC_0011448.JPG
break,html.Screen,4_65_1,2023-09-08T19:16:13.744Z,,0,,,NaN,,,,,,false,,,,1999480.099999994,1999480,,1999479.799999997,,1999496.438,8,400,,,
break_continue,html.Screen,4_65_2,2023-09-08T19:16:13.744Z,,0,,,NaN,,,,,,false,,,,1999480.1999999955,1999480.099999994,,1999480.099999994,,1999496.438,8,400,,,
sequence,flow.Sequence,4_65,2023-09-08T19:16:13.744Z,,0,,,4638.223999994108,completion,,,,,false,,,,1999480.1999999955,1999480.099999994,1994825.189,1994832.799999997,1994841.876,1999496.438,8,400,,,
trial,html.Screen,4_66_0,2023-09-08T19:16:17.928Z,,0,2,,4167.461999998428,response,ISIC_7266604.JPG,5,ISIC_7415335.JPG,ISIC_7266604.JPG,false,1,keypress(m),500,2003664.099999994,2003663.8999999985,1999479.741,1999480.1999999955,1999496.438,2003667.183,8,400,17,,ISIC_7415335.JPG
break,html.Screen,4_66_1,2023-09-08T19:16:17.928Z,,0,,,NaN,,,,,,false,,,,2003664.299999997,2003664.299999997,,2003664.1999999955,,2003667.183,8,400,,,
break_continue,html.Screen,4_66_2,2023-09-08T19:16:17.929Z,,0,,,NaN,,,,,,false,,,,2003664.5,2003664.3999999985,,2003664.3999999985,,2003667.183,8,400,,,
sequence,flow.Sequence,4_66,2023-09-08T19:16:17.929Z,,0,,,4167.961999998428,completion,,,,,false,,,,2003664.5,2003664.3999999985,1999479.741,1999480.1999999955,1999496.438,2003667.183,8,400,,,
trial,html.Screen,4_67_0,2023-09-08T19:16:23.808Z,,0,2,,5876.516999995569,response,ISIC_2341100.JPG,5,ISIC_0060148.JPG,ISIC_0060148.JPG,false,0,keypress(z),500,2009543.799999997,2009543.6999999955,2003650.466,2003664.599999994,2003667.183,2009556.244,8,400,18,,ISIC_2341100.JPG
break,html.Screen,4_67_1,2023-09-08T19:16:23.808Z,,0,,,NaN,,,,,,false,,,,2009544.099999994,2009544,,2009543.799999997,,2009556.244,8,400,,,
break_continue,html.Screen,4_67_2,2023-09-08T19:16:23.808Z,,0,,,NaN,,,,,,false,,,,2009544.099999994,2009544.099999994,,2009544.099999994,,2009556.244,8,400,,,
sequence,flow.Sequence,4_67,2023-09-08T19:16:23.808Z,,0,,,5876.916999994079,completion,,,,,false,,,,2009544.1999999955,2009544.099999994,2003650.466,2003664.599999994,2003667.183,2009556.244,8,400,,,
trial,html.Screen,4_68_0,2023-09-08T19:16:28.231Z,,0,2,,4410.756000000052,response,ISIC_8704257.JPG,4,ISIC_1352841.JPG,ISIC_8704257.JPG,false,1,keypress(m),500,2013967.099999994,2013967,2009539.569,2009544.1999999955,2009556.244,2013977.259,8,400,19,,ISIC_1352841.JPG
break,html.Screen,4_68_1,2023-09-08T19:16:28.232Z,,0,,,NaN,,,,,,false,,,,2013967.5,2013967.3999999985,,2013967.1999999955,,2013977.259,8,400,,,
break_continue,html.Screen,4_68_2,2023-09-08T19:16:28.232Z,,0,,,NaN,,,,,,false,,,,2013967.599999994,2013967.5,,2013967.5,,2013977.259,8,400,,,
sequence,flow.Sequence,4_68,2023-09-08T19:16:28.232Z,,0,,,4411.256000000052,completion,,,,,false,,,,2013967.599999994,2013967.5,2009539.569,2009544.1999999955,2009556.244,2013977.259,8,400,,,
trial,html.Screen,4_69_0,2023-09-08T19:16:33.400Z,,0,2,,5158.840999993961,response,ISIC_6906476.JPG,4,ISIC_2720426.JPG,ISIC_6906476.JPG,false,1,keypress(m),500,2019136.1999999955,2019136.099999994,2013960.559,2013967.599999994,2013977.259,2019148.975,8,400,20,,ISIC_2720426.JPG
break,html.Screen,4_69_1,2023-09-08T19:16:33.401Z,,0,,,NaN,,,,,,false,,,,2019136.3999999985,2019136.3999999985,,2019136.299999997,,2019148.975,8,400,,,
break_continue,html.Screen,4_69_2,2023-09-08T19:16:33.401Z,,0,,,NaN,,,,,,false,,,,2019136.599999994,2019136.599999994,,2019136.5,,2019148.975,8,400,,,
sequence,flow.Sequence,4_69,2023-09-08T19:16:33.401Z,,0,,,5159.340999993961,completion,,,,,false,,,,2019136.6999999955,2019136.599999994,2013960.559,2013967.599999994,2013977.259,2019148.975,8,400,,,
trial,html.Screen,4_70_0,2023-09-08T19:16:37.823Z,,0,2,,4410.124999993946,response,ISIC_0025219.JPG,4,ISIC_0013073.JPG,ISIC_0013073.JPG,false,0,keypress(z),500,2023559.299999997,2023559.099999994,2019132.274,2019136.6999999955,2019148.975,2023569.951,8,400,21,,ISIC_0025219.JPG
break,html.Screen,4_70_1,2023-09-08T19:16:37.824Z,,0,,,NaN,,,,,,false,,,,2023559.599999994,2023559.5,,2023559.299999997,,2023569.951,8,400,,,
break_continue,html.Screen,4_70_2,2023-09-08T19:16:37.824Z,,0,,,NaN,,,,,,false,,,,2023559.6999999955,2023559.6999999955,,2023559.599999994,,2023569.951,8,400,,,
sequence,flow.Sequence,4_70,2023-09-08T19:16:37.824Z,,0,,,4410.7249999954365,completion,,,,,false,,,,2023559.799999997,2023559.6999999955,2019132.274,2019136.6999999955,2019148.975,2023569.951,8,400,,,
trial,html.Screen,4_71_0,2023-09-08T19:16:42.177Z,,0,2,,4342.448999998625,response,ISIC_0028919.JPG,5,ISIC_4541530.JPG,ISIC_4541530.JPG,false,0,keypress(z),500,2027912.5,2027912.3999999985,2023553.261,2023559.799999997,2023569.951,2027924.21,8,400,22,,ISIC_0028919.JPG
break,html.Screen,4_71_1,2023-09-08T19:16:42.177Z,,0,,,NaN,,,,,,false,,,,2027912.799999997,2027912.6999999955,,2027912.599999994,,2027924.21,8,400,,,
break_continue,html.Screen,4_71_2,2023-09-08T19:16:42.177Z,,0,,,NaN,,,,,,false,,,,2027913,2027912.8999999985,,2027912.799999997,,2027924.21,8,400,,,
sequence,flow.Sequence,4_71,2023-09-08T19:16:42.177Z,,0,,,4342.948999998625,completion,,,,,false,,,,2027913,2027912.8999999985,2023553.261,2023559.799999997,2023569.951,2027924.21,8,400,,,
trial,html.Screen,4_72_0,2023-09-08T19:16:46.306Z,,0,2,,4117.889999994077,response,ISIC_2680588.JPG,4,ISIC_0054705.JPG,ISIC_0054705.JPG,false,0,keypress(z),500,2032042.1999999955,2032042.099999994,2027907.511,2027913,2027924.21,2032044.913,8,400,23,,ISIC_2680588.JPG
break,html.Screen,4_72_1,2023-09-08T19:16:46.307Z,,0,,,NaN,,,,,,false,,,,2032042.599999994,2032042.5,,2032042.299999997,,2032044.913,8,400,,,
break_continue,html.Screen,4_72_2,2023-09-08T19:16:46.307Z,,0,,,NaN,,,,,,false,,,,2032042.6999999955,2032042.599999994,,2032042.599999994,,2032044.913,8,400,,,
sequence,flow.Sequence,4_72,2023-09-08T19:16:46.307Z,,0,,,4118.389999994077,completion,,,,,false,,,,2032042.6999999955,2032042.599999994,2027907.511,2027913,2027924.21,2032044.913,8,400,,,
trial,html.Screen,4_73_0,2023-09-08T19:16:49.972Z,,0,2,,3663.2869999955874,response,ISIC_0010317.JPG,5,ISIC_8777813.JPG,ISIC_8777813.JPG,false,0,keypress(z),500,2035708.3999999985,2035708.1999999955,2032028.219,2032042.6999999955,2032044.913,2035715.163,8,400,24,,ISIC_0010317.JPG
break,html.Screen,4_73_1,2023-09-08T19:16:49.973Z,,0,,,NaN,,,,,,false,,,,2035708.599999994,2035708.599999994,,2035708.3999999985,,2035715.163,8,400,,,
break_continue,html.Screen,4_73_2,2023-09-08T19:16:49.973Z,,0,,,NaN,,,,,,false,,,,2035708.799999997,2035708.6999999955,,2035708.6999999955,,2035715.163,8,400,,,
sequence,flow.Sequence,4_73,2023-09-08T19:16:49.973Z,,0,,,3663.7869999955874,completion,,,,,false,,,,2035708.799999997,2035708.6999999955,2032028.219,2032042.6999999955,2032044.913,2035715.163,8,400,,,
trial,html.Screen,4_74_0,2023-09-08T19:16:53.975Z,,0,2,,3996.1369999970775,response,ISIC_2153686.JPG,6,ISIC_0012037.JPG,ISIC_2153686.JPG,false,1,keypress(m),500,2039711.3999999985,2039711.299999997,2035698.472,2035708.799999997,2035715.163,2039719.068,8,400,25,,ISIC_0012037.JPG
break,html.Screen,4_74_1,2023-09-08T19:16:53.976Z,,0,,,NaN,,,,,,false,,,,2039711.6999999955,2039711.599999994,,2039711.5,,2039719.068,8,400,,,
break_continue,html.Screen,4_74_2,2023-09-08T19:16:53.976Z,,0,,,NaN,,,,,,false,,,,2039711.799999997,2039711.799999997,,2039711.799999997,,2039719.068,8,400,,,
sequence,flow.Sequence,4_74,2023-09-08T19:16:53.976Z,,0,,,3996.6369999970775,completion,,,,,false,,,,2039711.8999999985,2039711.799999997,2035698.472,2035708.799999997,2035715.163,2039719.068,8,400,,,
trial,html.Screen,4_75_0,2023-09-08T19:16:57.529Z,,0,2,,3546.0319999940693,response,ISIC_8692155.JPG,5,ISIC_0064874.JPG,ISIC_8692155.JPG,false,1,keypress(m),500,2043265.299999997,2043265.099999994,2039702.384,2039711.8999999985,2039719.068,2043272.556,8,400,26,,ISIC_0064874.JPG
break,html.Screen,4_75_1,2023-09-08T19:16:57.530Z,,0,,,NaN,,,,,,false,,,,2043265.599999994,2043265.599999994,,2043265.299999997,,2043272.556,8,400,,,
break_continue,html.Screen,4_75_2,2023-09-08T19:16:57.530Z,,0,,,NaN,,,,,,false,,,,2043265.6999999955,2043265.6999999955,,2043265.6999999955,,2043272.556,8,400,,,
sequence,flow.Sequence,4_75,2023-09-08T19:16:57.530Z,,0,,,3546.6319999955595,completion,,,,,false,,,,2043265.799999997,2043265.6999999955,2039702.384,2039711.8999999985,2039719.068,2043272.556,8,400,,,
trial,html.Screen,4_76_0,2023-09-08T19:17:00.939Z,,0,2,,3401.9439999999013,response,ISIC_3869533.JPG,6,ISIC_0012288.JPG,ISIC_0012288.JPG,false,0,keypress(z),500,2046674.599999994,2046674.5,2043255.856,2043265.799999997,2043272.556,2046693.482,8,400,27,,ISIC_3869533.JPG
break,html.Screen,4_76_1,2023-09-08T19:17:00.939Z,,0,,,NaN,,,,,,false,,,,2046674.8999999985,2046674.8999999985,,2046674.599999994,,2046693.482,8,400,,,
break_continue,html.Screen,4_76_2,2023-09-08T19:17:00.939Z,,0,,,NaN,,,,,,false,,,,2046675.099999994,2046674.8999999985,,2046674.8999999985,,2046693.482,8,400,,,
sequence,flow.Sequence,4_76,2023-09-08T19:17:00.939Z,,0,,,3402.343999998411,completion,,,,,false,,,,2046675.099999994,2046674.8999999985,2043255.856,2043265.799999997,2043272.556,2046693.482,8,400,,,
trial,html.Screen,4_77_0,2023-09-08T19:17:05.324Z,,0,2,,4366.117999993963,response,ISIC_0070651.JPG,4,ISIC_0031742.JPG,ISIC_0031742.JPG,false,0,keypress(z),500,2051059.799999997,2051059.599999994,2046659.18,2046675.1999999955,2046693.482,2051063.484,8,400,28,,ISIC_0070651.JPG
break,html.Screen,4_77_1,2023-09-08T19:17:05.324Z,,0,,,NaN,,,,,,false,,,,2051060,2051060,,2051059.799999997,,2051063.484,8,400,,,
break_continue,html.Screen,4_77_2,2023-09-08T19:17:05.324Z,,0,,,NaN,,,,,,false,,,,2051060.1999999955,2051060.1999999955,,2051060.099999994,,2051063.484,8,400,,,
sequence,flow.Sequence,4_77,2023-09-08T19:17:05.324Z,,0,,,4366.717999995453,completion,,,,,false,,,,2051060.1999999955,2051060.1999999955,2046659.18,2046675.099999994,2046693.482,2051063.484,8,400,,,
trial,html.Screen,4_78_0,2023-09-08T19:17:09.454Z,,0,2,,4126.0160000000615,response,ISIC_0010398.JPG,5,ISIC_7186677.JPG,ISIC_0010398.JPG,false,1,keypress(m),500,2055189.599999994,2055189.5,2051046.792,2051060.299999997,2051063.484,2055200.865,8,400,29,,ISIC_7186677.JPG
break,html.Screen,4_78_1,2023-09-08T19:17:09.454Z,,0,,,NaN,,,,,,false,,,,2055189.8999999985,2055189.799999997,,2055189.6999999955,,2055200.865,8,400,,,
break_continue,html.Screen,4_78_2,2023-09-08T19:17:09.454Z,,0,,,NaN,,,,,,false,,,,2055190,2055190,,2055189.8999999985,,2055200.865,8,400,,,
sequence,flow.Sequence,4_78,2023-09-08T19:17:09.454Z,,0,,,4126.5160000000615,completion,,,,,false,,,,2055190.099999994,2055190,2051046.792,2051060.1999999955,2051063.484,2055200.865,8,400,,,
trial,html.Screen,4_79_0,2023-09-08T19:17:13.743Z,,0,2,,4277.934999997029,response,ISIC_1353668.JPG,5,ISIC_5816399.JPG,ISIC_5816399.JPG,false,0,keypress(z),500,2059478.8999999985,2059478.799999997,2055184.176,2055190.099999994,2055200.865,2059488.395,8,400,30,,ISIC_1353668.JPG
break,html.Screen,4_79_1,2023-09-08T19:17:13.743Z,,0,,,NaN,,,,,,false,,,,2059479.1999999955,2059479.099999994,,2059479,,2059488.395,8,400,,,
break_continue,html.Screen,4_79_2,2023-09-08T19:17:13.743Z,,0,,,NaN,,,,,,false,,,,2059479.299999997,2059479.299999997,,2059479.299999997,,2059488.395,8,400,,,
sequence,flow.Sequence,4_79,2023-09-08T19:17:13.743Z,,0,,,4278.434999997029,completion,,,,,false,,,,2059479.3999999985,2059479.299999997,2055184.176,2055190.099999994,2055200.865,2059488.395,8,400,,,
trial,html.Screen,4_80_0,2023-09-08T19:17:18.545Z,,0,2,,4791.904999997001,response,ISIC_8375123.JPG,4,ISIC_0010398.JPG,ISIC_8375123.JPG,false,1,keypress(m),500,2064280.599999994,2064280.299999997,2059471.681,2059479.3999999985,2059488.395,2064293.084,8,400,31,,ISIC_0010398.JPG
break,html.Screen,4_80_1,2023-09-08T19:17:18.545Z,,0,,,NaN,,,,,,false,,,,2064280.8999999985,2064280.799999997,,2064280.6999999955,,2064293.084,8,400,,,
break_continue,html.Screen,4_80_2,2023-09-08T19:17:18.545Z,,0,,,NaN,,,,,,false,,,,2064281,2064281,,2064280.8999999985,,2064293.084,8,400,,,
sequence,flow.Sequence,4_80,2023-09-08T19:17:18.545Z,,0,,,4792.604999999981,completion,,,,,false,,,,2064281.099999994,2064281,2059471.681,2059479.3999999985,2059488.395,2064293.084,8,400,,,
trial,html.Screen,4_81_0,2023-09-08T19:17:22.421Z,,0,2,,3863.715999996988,response,ISIC_8207974.JPG,5,ISIC_8957571.JPG,ISIC_8957571.JPG,false,0,keypress(z),500,2068156.8999999985,2068156.799999997,2064276.389,2064281.1999999955,2064293.084,2068163.532,8,400,32,,ISIC_8207974.JPG
break,html.Screen,4_81_1,2023-09-08T19:17:22.421Z,,0,,,NaN,,,,,,false,,,,2068157.299999997,2068157.1999999955,,2068157,,2068163.532,8,400,,,
break_continue,html.Screen,4_81_2,2023-09-08T19:17:22.421Z,,0,,,NaN,,,,,,false,,,,2068157.299999997,2068157.299999997,,2068157.299999997,,2068163.532,8,400,,,
sequence,flow.Sequence,4_81,2023-09-08T19:17:22.421Z,,0,,,3864.215999996988,completion,,,,,false,,,,2068157.3999999985,2068157.299999997,2064276.389,2064281.099999994,2064293.084,2068163.532,8,400,,,
trial,html.Screen,4_82_0,2023-09-08T19:17:26.893Z,,0,2,,4465.067999994149,response,ISIC_2253931.JPG,4,ISIC_7797655.JPG,ISIC_2253931.JPG,false,1,keypress(m),500,2072628.799999997,2072628.599999994,2068146.839,2068157.5,2068163.532,2072634.575,8,400,33,,ISIC_7797655.JPG
break,html.Screen,4_82_1,2023-09-08T19:17:26.893Z,,0,,,NaN,,,,,,false,,,,2072629.1999999955,2072629.1999999955,,2072628.8999999985,,2072634.575,8,400,,,
break_continue,html.Screen,4_82_2,2023-09-08T19:17:26.893Z,,0,,,NaN,,,,,,false,,,,2072629.3999999985,2072629.299999997,,2072629.299999997,,2072634.575,8,400,,,
sequence,flow.Sequence,4_82,2023-09-08T19:17:26.893Z,,0,,,4465.76799999713,completion,,,,,false,,,,2072629.3999999985,2072629.299999997,2068146.839,2068157.5,2068163.532,2072634.575,8,400,,,
trial,html.Screen,4_83_0,2023-09-08T19:17:31.381Z,,0,2,,4482.224999997066,response,ISIC_9348399.JPG,5,ISIC_2431690.JPG,ISIC_9348399.JPG,false,1,keypress(m),500,2077116.799999997,2077116.799999997,2072617.879,2072629.3999999985,2072634.575,2077122.27,8,400,34,,ISIC_2431690.JPG
break,html.Screen,4_83_1,2023-09-08T19:17:31.381Z,,0,,,NaN,,,,,,false,,,,2077117.1999999955,2077117.099999994,,2077117,,2077122.27,8,400,,,
break_continue,html.Screen,4_83_2,2023-09-08T19:17:31.381Z,,0,,,NaN,,,,,,false,,,,2077117.299999997,2077117.299999997,,2077117.1999999955,,2077122.27,8,400,,,
sequence,flow.Sequence,4_83,2023-09-08T19:17:31.381Z,,0,,,4482.724999997066,completion,,,,,false,,,,2077117.299999997,2077117.299999997,2072617.879,2072629.3999999985,2072634.575,2077122.27,8,400,,,
trial,html.Screen,4_84_0,2023-09-08T19:17:35.815Z,,0,2,,4428.029999997001,response,ISIC_0232101.JPG,5,ISIC_0068776.JPG,ISIC_0232101.JPG,false,1,keypress(m),500,2081550.3999999985,2081550.299999997,2077105.599,2077117.299999997,2077122.27,2081559.963,8,400,35,,ISIC_0068776.JPG
break,html.Screen,4_84_1,2023-09-08T19:17:35.815Z,,0,,,NaN,,,,,,false,,,,2081550.799999997,2081550.6999999955,,2081550.5,,2081559.963,8,400,,,
break_continue,html.Screen,4_84_2,2023-09-08T19:17:35.815Z,,0,,,NaN,,,,,,false,,,,2081550.8999999985,2081550.799999997,,2081550.799999997,,2081559.963,8,400,,,
sequence,flow.Sequence,4_84,2023-09-08T19:17:35.815Z,,0,,,4428.529999997001,completion,,,,,false,,,,2081550.8999999985,2081550.799999997,2077105.599,2077117.299999997,2077122.27,2081559.963,8,400,,,
trial,html.Screen,4_85_0,2023-09-08T19:17:39.998Z,,0,2,,4173.436999998521,response,ISIC_3814807.JPG,5,ISIC_2133938.JPG,ISIC_3814807.JPG,false,1,keypress(m),500,2085733.599999994,2085733.3999999985,2081543.268,2081550.8999999985,2081559.963,2085747.372,8,400,36,,ISIC_2133938.JPG
break,html.Screen,4_85_1,2023-09-08T19:17:39.998Z,,0,,,NaN,,,,,,false,,,,2085734,2085733.8999999985,,2085733.599999994,,2085747.372,8,400,,,
break_continue,html.Screen,4_85_2,2023-09-08T19:17:39.998Z,,0,,,NaN,,,,,,false,,,,2085734.099999994,2085734.099999994,,2085734.099999994,,2085747.372,8,400,,,
sequence,flow.Sequence,4_85,2023-09-08T19:17:39.998Z,,0,,,4174.136999994051,completion,,,,,false,,,,2085734.1999999955,2085734.099999994,2081543.268,2081550.8999999985,2081559.963,2085747.372,8,400,,,
trial,html.Screen,4_86_0,2023-09-08T19:17:46.463Z,,0,2,,6451.427999997046,response,ISIC_2030997.JPG,5,ISIC_0056127.JPG,ISIC_2030997.JPG,false,1,keypress(m),500,2092198.8999999985,2092198.799999997,2085730.693,2085734.1999999955,2085747.372,2092203.73,8,400,37,,ISIC_0056127.JPG
break,html.Screen,4_86_1,2023-09-08T19:17:46.463Z,,0,,,NaN,,,,,,false,,,,2092199.1999999955,2092199.1999999955,,2092199,,2092203.73,8,400,,,
break_continue,html.Screen,4_86_2,2023-09-08T19:17:46.463Z,,0,,,NaN,,,,,,false,,,,2092199.299999997,2092199.299999997,,2092199.1999999955,,2092203.73,8,400,,,
sequence,flow.Sequence,4_86,2023-09-08T19:17:46.463Z,,0,,,6451.927999997046,completion,,,,,false,,,,2092199.5,2092199.299999997,2085730.693,2085734.1999999955,2085747.372,2092203.73,8,400,,,
trial,html.Screen,4_87_0,2023-09-08T19:17:51.524Z,,0,2,,5056.270000000019,response,ISIC_0055140.JPG,5,ISIC_1661837.JPG,ISIC_0055140.JPG,false,1,keypress(m),500,2097260.1999999955,2097260,2092187.002,2092199.5,2092203.73,2097275.306,8,400,38,,ISIC_1661837.JPG
break,html.Screen,4_87_1,2023-09-08T19:17:51.525Z,,0,,,NaN,,,,,,false,,,,2097260.599999994,2097260.3999999985,,2097260.1999999955,,2097275.306,8,400,,,
break_continue,html.Screen,4_87_2,2023-09-08T19:17:51.525Z,,0,,,NaN,,,,,,false,,,,2097260.6999999955,2097260.6999999955,,2097260.6999999955,,2097275.306,8,400,,,
sequence,flow.Sequence,4_87,2023-09-08T19:17:51.525Z,,0,,,5056.969999995548,completion,,,,,false,,,,2097260.799999997,2097260.6999999955,2092187.002,2092199.5,2092203.73,2097275.306,8,400,,,
trial,html.Screen,4_88_0,2023-09-08T19:17:56.252Z,,0,2,,4712.194000000134,response,ISIC_0029318.JPG,5,ISIC_9792253.JPG,ISIC_0029318.JPG,false,1,keypress(m),500,2101987.6999999955,2101987.5,2097258.623,2097260.799999997,2097275.306,2101996.596,8,400,39,,ISIC_9792253.JPG
break,html.Screen,4_88_1,2023-09-08T19:17:56.252Z,,0,,,NaN,,,,,,false,,,,2101988,2101987.8999999985,,2101987.799999997,,2101996.596,8,400,,,
break_continue,html.Screen,4_88_2,2023-09-08T19:17:56.252Z,,0,,,NaN,,,,,,false,,,,2101988.1999999955,2101988.099999994,,2101988,,2101996.596,8,400,,,
sequence,flow.Sequence,4_88,2023-09-08T19:17:56.252Z,,0,,,4712.793999994174,completion,,,,,false,,,,2101988.1999999955,2101988.099999994,2097258.623,2097260.799999997,2097275.306,2101996.596,8,400,,,
trial,html.Screen,4_89_0,2023-09-08T19:18:00.494Z,,0,2,,4232.6039999956265,response,ISIC_2377039.JPG,4,ISIC_0011086.JPG,ISIC_0011086.JPG,false,0,keypress(z),500,2106229.3999999985,2106229.1999999955,2101979.907,2101988.299999997,2101996.596,2106234.159,8,400,40,,ISIC_2377039.JPG
break,html.Screen,4_89_1,2023-09-08T19:18:00.494Z,,0,,,NaN,,,,,,false,,,,2106229.799999997,2106229.6999999955,,2106229.5,,2106234.159,8,400,,,
break_continue,html.Screen,4_89_2,2023-09-08T19:18:00.494Z,,0,,,NaN,,,,,,false,,,,2106229.799999997,2106229.799999997,,2106229.799999997,,2106234.159,8,400,,,
sequence,flow.Sequence,4_89,2023-09-08T19:18:00.494Z,,0,,,4233.203999997117,completion,,,,,false,,,,2106229.8999999985,2106229.799999997,2101979.907,2101988.299999997,2101996.596,2106234.159,8,400,,,
trial,html.Screen,4_90_0,2023-09-08T19:18:04.900Z,,0,2,,4401.240999998525,response,ISIC_2006783.JPG,5,ISIC_9348399.JPG,ISIC_2006783.JPG,false,1,keypress(m),500,2110635.5,2110635.3999999985,2106217.404,2106229.8999999985,2106234.159,2110638.389,8,400,41,,ISIC_9348399.JPG
break,html.Screen,4_90_1,2023-09-08T19:18:04.900Z,,0,,,NaN,,,,,,false,,,,2110635.799999997,2110635.6999999955,,2110635.599999994,,2110638.389,8,400,,,
break_continue,html.Screen,4_90_2,2023-09-08T19:18:04.900Z,,0,,,NaN,,,,,,false,,,,2110635.8999999985,2110635.8999999985,,2110635.8999999985,,2110638.389,8,400,,,
sequence,flow.Sequence,4_90,2023-09-08T19:18:04.900Z,,0,,,4401.740999998525,completion,,,,,false,,,,2110636,2110635.8999999985,2106217.404,2106229.8999999985,2106234.159,2110638.389,8,400,,,
trial,html.Screen,4_91_0,2023-09-08T19:18:08.827Z,,0,2,,3924.710999994073,response,ISIC_0024235.JPG,5,ISIC_1080647.JPG,ISIC_1080647.JPG,false,0,keypress(z),500,2114563.1999999955,2114563.099999994,2110621.67,2110636,2110638.389,2114575.556,8,400,42,,ISIC_0024235.JPG
break,html.Screen,4_91_1,2023-09-08T19:18:08.828Z,,0,,,NaN,,,,,,false,,,,2114563.5,2114563.5,,2114563.299999997,,2114575.556,8,400,,,
break_continue,html.Screen,4_91_2,2023-09-08T19:18:08.828Z,,0,,,NaN,,,,,,false,,,,2114563.6999999955,2114563.6999999955,,2114563.599999994,,2114575.556,8,400,,,
sequence,flow.Sequence,4_91,2023-09-08T19:18:08.828Z,,0,,,3925.310999995563,completion,,,,,false,,,,2114563.6999999955,2114563.6999999955,2110621.67,2110636,2110638.389,2114575.556,8,400,,,
trial,html.Screen,4_92_0,2023-09-08T19:18:13.076Z,,0,2,,4236.143999995664,response,ISIC_2682861.JPG,5,ISIC_0011957.JPG,ISIC_0011957.JPG,false,0,keypress(z),500,2118811.799999997,2118811.6999999955,2114558.87,2114563.6999999955,2114575.556,2118830.715,8,400,43,,ISIC_2682861.JPG
break,html.Screen,4_92_1,2023-09-08T19:18:13.076Z,,0,,,NaN,,,,,,false,,,,2118812.1999999955,2118812.099999994,,2118812,,2118830.715,8,400,,,
break_continue,html.Screen,4_92_2,2023-09-08T19:18:13.076Z,,0,,,NaN,,,,,,false,,,,2118812.299999997,2118812.1999999955,,2118812.1999999955,,2118830.715,8,400,,,
sequence,flow.Sequence,4_92,2023-09-08T19:18:13.076Z,,0,,,4236.643999995664,completion,,,,,false,,,,2118812.3999999985,2118812.1999999955,2114558.87,2114563.6999999955,2114575.556,2118830.715,8,400,,,
trial,html.Screen,4_93_0,2023-09-08T19:18:19.222Z,,0,2,,6126.884999994189,response,ISIC_0016127.JPG,5,ISIC_0014480.JPG,ISIC_0014480.JPG,false,0,keypress(z),500,2124957.6999999955,2124957.599999994,2118796.346,2118812.3999999985,2118830.715,2124969.038,8,400,44,,ISIC_0016127.JPG
break,html.Screen,4_93_1,2023-09-08T19:18:19.222Z,,0,,,NaN,,,,,,false,,,,2124958,2124957.8999999985,,2124957.799999997,,2124969.038,8,400,,,
break_continue,html.Screen,4_93_2,2023-09-08T19:18:19.222Z,,0,,,NaN,,,,,,false,,,,2124958.099999994,2124958.099999994,,2124958.099999994,,2124969.038,8,400,,,
sequence,flow.Sequence,4_93,2023-09-08T19:18:19.222Z,,0,,,6127.384999994189,completion,,,,,false,,,,2124958.1999999955,2124958.099999994,2118796.346,2118812.3999999985,2118830.715,2124969.038,8,400,,,
trial,html.Screen,4_94_0,2023-09-08T19:18:23.223Z,,0,2,,3989.961999999825,response,ISIC_0011587.JPG,4,ISIC_0255997.JPG,ISIC_0255997.JPG,false,0,keypress(z),500,2128959,2128959,2124952.341,2124958.299999997,2124969.038,2128972.958,8,400,45,,ISIC_0011587.JPG
break,html.Screen,4_94_1,2023-09-08T19:18:23.223Z,,0,,,NaN,,,,,,false,,,,2128959.299999997,2128959.1999999955,,2128959.099999994,,2128972.958,8,400,,,
break_continue,html.Screen,4_94_2,2023-09-08T19:18:23.224Z,,0,,,NaN,,,,,,false,,,,2128959.3999999985,2128959.3999999985,,2128959.3999999985,,2128972.958,8,400,,,
sequence,flow.Sequence,4_94,2023-09-08T19:18:23.224Z,,0,,,3990.361999998335,completion,,,,,false,,,,2128959.799999997,2128959.3999999985,2124952.341,2124958.1999999955,2124969.038,2128972.958,8,400,,,
trial,html.Screen,4_95_0,2023-09-08T19:18:26.843Z,,0,2,,3605.5419999998994,response,ISIC_3649632.JPG,5,ISIC_0072041.JPG,ISIC_0072041.JPG,false,0,keypress(z),500,2132578.6999999955,2132578.5,2128956.26,2128959.8999999985,2128972.958,2132593.155,8,400,46,,ISIC_3649632.JPG
break,html.Screen,4_95_1,2023-09-08T19:18:26.843Z,,0,,,NaN,,,,,,false,,,,2132579,2132578.799999997,,2132578.6999999955,,2132593.155,8,400,,,
break_continue,html.Screen,4_95_2,2023-09-08T19:18:26.843Z,,0,,,NaN,,,,,,false,,,,2132579,2132579,,2132579,,2132593.155,8,400,,,
sequence,flow.Sequence,4_95,2023-09-08T19:18:26.843Z,,0,,,3606.0419999998994,completion,,,,,false,,,,2132579.099999994,2132579,2128956.26,2128959.8999999985,2128972.958,2132593.155,8,400,,,
trial,html.Screen,4_96_0,2023-09-08T19:18:30.755Z,,0,2,,3897.1449999972247,response,ISIC_0032645.JPG,6,ISIC_0000087.JPG,ISIC_0032645.JPG,false,1,keypress(m),500,2136490.3999999985,2136490.299999997,2132576.468,2132579.099999994,2132593.155,2136496.963,8,400,47,,ISIC_0000087.JPG
break,html.Screen,4_96_1,2023-09-08T19:18:30.755Z,,0,,,NaN,,,,,,false,,,,2136490.6999999955,2136490.6999999955,,2136490.5,,2136496.963,8,400,,,
break_continue,html.Screen,4_96_2,2023-09-08T19:18:30.755Z,,0,,,NaN,,,,,,false,,,,2136490.8999999985,2136490.8999999985,,2136490.799999997,,2136496.963,8,400,,,
sequence,flow.Sequence,4_96,2023-09-08T19:18:30.755Z,,0,,,3897.744999998715,completion,,,,,false,,,,2136491,2136490.8999999985,2132576.468,2132579.099999994,2132593.155,2136496.963,8,400,,,
trial,html.Screen,4_97_0,2023-09-08T19:18:35.226Z,,0,2,,4465.037000000011,response,ISIC_0010808.JPG,5,ISIC_0033585.JPG,ISIC_0010808.JPG,false,1,keypress(m),500,2140962.1999999955,2140962,2136480.284,2136491,2136496.963,2140968.016,8,400,48,,ISIC_0033585.JPG
break,html.Screen,4_97_1,2023-09-08T19:18:35.227Z,,0,,,NaN,,,,,,false,,,,2140962.5,2140962.3999999985,,2140962.299999997,,2140968.016,8,400,,,
break_continue,html.Screen,4_97_2,2023-09-08T19:18:35.227Z,,0,,,NaN,,,,,,false,,,,2140962.5,2140962.5,,2140962.5,,2140968.016,8,400,,,
sequence,flow.Sequence,4_97,2023-09-08T19:18:35.227Z,,0,,,4465.537000000011,completion,,,,,false,,,,2140962.599999994,2140962.5,2136480.284,2136491,2136496.963,2140968.016,8,400,,,
trial,html.Screen,4_98_0,2023-09-08T19:18:39.186Z,,0,2,,3953.683999995701,response,ISIC_4129321.JPG,5,ISIC_0010837.JPG,ISIC_4129321.JPG,false,1,keypress(m),500,2144921.799999997,2144921.6999999955,2140951.32,2140962.6999999955,2140968.016,2144938.559,8,400,49,,ISIC_0010837.JPG
break,html.Screen,4_98_1,2023-09-08T19:18:39.186Z,,0,,,NaN,,,,,,false,,,,2144922.1999999955,2144922.1999999955,,2144921.8999999985,,2144938.559,8,400,,,
break_continue,html.Screen,4_98_2,2023-09-08T19:18:39.186Z,,0,,,NaN,,,,,,false,,,,2144922.299999997,2144922.1999999955,,2144922.1999999955,,2144938.559,8,400,,,
sequence,flow.Sequence,4_98,2023-09-08T19:18:39.186Z,,0,,,3954.183999995701,completion,,,,,false,,,,2144922.299999997,2144922.1999999955,2140951.32,2140962.6999999955,2140968.016,2144938.559,8,400,,,
trial,html.Screen,4_99_0,2023-09-08T19:18:43.172Z,,0,2,,3969.0409999941476,response,ISIC_0001151.JPG,4,ISIC_0034183.JPG,ISIC_0001151.JPG,false,1,keypress(m),500,2148907.799999997,2148907.599999994,2144921.866,2144922.3999999985,2144938.559,2148926.145,8,400,50,,ISIC_0034183.JPG
break,html.Screen,4_99_1,2023-09-08T19:18:53.166Z,,0,,,9992.734000000171,timeout,,,,,false,,,,2158902.299999997,2158902.184,2148892.411,2148907.8999999985,2148926.145,2158918.879,8,400,,,
break_continue,html.Screen,4_99_2,2023-09-08T19:18:55.161Z,,0,,,1973.02099999832,response,,,,,false,continue,keypress(Space),,2160897.799999997,2160891.8999999985,2158902.184,2158902.5,2158918.879,2160904.144,8,400,,,
sequence,flow.Sequence,4_99,2023-09-08T19:18:55.162Z,,0,,,15953.340999998618,completion,,,,,false,,,,2160897.8999999985,2160891.8999999985,2144921.866,2144922.3999999985,2144938.559,2160904.144,8,400,,,
trial,html.Screen,4_100_0,2023-09-08T19:18:59.835Z,,0,3,,4666.555999995675,response,ISIC_0030077.JPG,4,ISIC_0025546.JPG,ISIC_0030077.JPG,false,1,keypress(m),500,2165570.8999999985,2165570.6999999955,2160887.444,2160897.8999999985,2160904.144,2165575.438,8,400,1,,ISIC_0025546.JPG
break,html.Screen,4_100_1,2023-09-08T19:18:59.835Z,,0,,,NaN,,,,,,false,,,,2165571.1999999955,2165571.1999999955,,2165571,,2165575.438,8,400,,,
break_continue,html.Screen,4_100_2,2023-09-08T19:18:59.835Z,,0,,,NaN,,,,,,false,,,,2165571.3999999985,2165571.299999997,,2165571.299999997,,2165575.438,8,400,,,
sequence,flow.Sequence,4_100,2023-09-08T19:18:59.835Z,,0,,,4667.155999997165,completion,,,,,false,,,,2165571.3999999985,2165571.299999997,2160887.444,2160897.8999999985,2160904.144,2165575.438,8,400,,,
trial,html.Screen,4_101_0,2023-09-08T19:19:05.756Z,,0,3,,5917.061999999918,response,ISIC_0068628.JPG,5,ISIC_0012066.JPG,ISIC_0068628.JPG,false,1,keypress(m),500,2171492.599999994,2171492.5,2165558.694,2165571.3999999985,2165575.438,2171497.85,8,400,2,,ISIC_0012066.JPG
break,html.Screen,4_101_1,2023-09-08T19:19:05.757Z,,0,,,NaN,,,,,,false,,,,2171492.8999999985,2171492.799999997,,2171492.6999999955,,2171497.85,8,400,,,
break_continue,html.Screen,4_101_2,2023-09-08T19:19:05.757Z,,0,,,NaN,,,,,,false,,,,2171493,2171493,,2171493,,2171497.85,8,400,,,
sequence,flow.Sequence,4_101,2023-09-08T19:19:05.757Z,,0,,,5917.561999999918,completion,,,,,false,,,,2171493.099999994,2171493,2165558.694,2165571.3999999985,2165575.438,2171497.85,8,400,,,
trial,html.Screen,4_102_0,2023-09-08T19:19:10.222Z,,0,3,,4460.649999999907,response,ISIC_8447658.JPG,5,ISIC_2134975.JPG,ISIC_2134975.JPG,false,0,keypress(z),500,2175958.6999999955,2175958.5,2171481.152,2171493.099999994,2171497.85,2175968.887,8,400,3,,ISIC_8447658.JPG
break,html.Screen,4_102_1,2023-09-08T19:19:10.223Z,,0,,,NaN,,,,,,false,,,,2175959.099999994,2175959.099999994,,2175958.6999999955,,2175968.887,8,400,,,
break_continue,html.Screen,4_102_2,2023-09-08T19:19:10.223Z,,0,,,NaN,,,,,,false,,,,2175959.299999997,2175959.1999999955,,2175959.1999999955,,2175968.887,8,400,,,
sequence,flow.Sequence,4_102,2023-09-08T19:19:10.223Z,,0,,,4461.3499999954365,completion,,,,,false,,,,2175959.3999999985,2175959.1999999955,2171481.152,2171493.099999994,2171497.85,2175968.887,8,400,,,
trial,html.Screen,4_103_0,2023-09-08T19:19:14.368Z,,0,3,,4135.712999993935,response,ISIC_0053742.JPG,5,ISIC_6558697.JPG,ISIC_0053742.JPG,false,1,keypress(m),500,2180104.6999999955,2180104.599999994,2175952.182,2175959.3999999985,2175968.887,2180106.275,8,400,4,,ISIC_6558697.JPG
break,html.Screen,4_103_1,2023-09-08T19:19:14.369Z,,0,,,NaN,,,,,,false,,,,2180105,2180104.8999999985,,2180104.799999997,,2180106.275,8,400,,,
break_continue,html.Screen,4_103_2,2023-09-08T19:19:14.369Z,,0,,,NaN,,,,,,false,,,,2180105.1999999955,2180105.099999994,,2180105.099999994,,2180106.275,8,400,,,
sequence,flow.Sequence,4_103,2023-09-08T19:19:14.369Z,,0,,,4136.212999993935,completion,,,,,false,,,,2180105.1999999955,2180105.099999994,2175952.182,2175959.3999999985,2175968.887,2180106.275,8,400,,,
trial,html.Screen,4_104_0,2023-09-08T19:19:18.392Z,,0,3,,4021.624999998603,response,ISIC_2587955.JPG,5,ISIC_7696538.JPG,ISIC_2587955.JPG,false,1,keypress(m),500,2184128,2184127.8999999985,2180089.566,2180105.1999999955,2180106.275,2184143.533,8,400,5,,ISIC_7696538.JPG
break,html.Screen,4_104_1,2023-09-08T19:19:18.392Z,,0,,,NaN,,,,,,false,,,,2184128.299999997,2184128.1999999955,,2184128,,2184143.533,8,400,,,
break_continue,html.Screen,4_104_2,2023-09-08T19:19:18.392Z,,0,,,NaN,,,,,,false,,,,2184128.3999999985,2184128.299999997,,2184128.299999997,,2184143.533,8,400,,,
sequence,flow.Sequence,4_104,2023-09-08T19:19:18.392Z,,0,,,4022.024999997113,completion,,,,,false,,,,2184128.3999999985,2184128.299999997,2180089.566,2180105.1999999955,2180106.275,2184143.533,8,400,,,
trial,html.Screen,4_105_0,2023-09-08T19:19:23.721Z,,0,3,,5313.766999997199,response,ISIC_0031972.JPG,6,ISIC_1798471.JPG,ISIC_0031972.JPG,false,1,keypress(m),500,2189457.3999999985,2189457.299999997,2184126.839,2184128.5,2184143.533,2189465.404,8,400,6,,ISIC_1798471.JPG
break,html.Screen,4_105_1,2023-09-08T19:19:23.721Z,,0,,,NaN,,,,,,false,,,,2189457.599999994,2189457.599999994,,2189457.5,,2189465.404,8,400,,,
break_continue,html.Screen,4_105_2,2023-09-08T19:19:23.721Z,,0,,,NaN,,,,,,false,,,,2189457.799999997,2189457.799999997,,2189457.799999997,,2189465.404,8,400,,,
sequence,flow.Sequence,4_105,2023-09-08T19:19:23.721Z,,0,,,5314.266999997199,completion,,,,,false,,,,2189457.8999999985,2189457.799999997,2184126.839,2184128.5,2184143.533,2189465.404,8,400,,,
trial,html.Screen,4_106_0,2023-09-08T19:19:27.803Z,,0,3,,4073.495999998413,response,ISIC_7582818.JPG,5,ISIC_0046633.JPG,ISIC_0046633.JPG,false,0,keypress(z),500,2193539.099999994,2193538.8999999985,2189448.711,2189457.8999999985,2189465.404,2193552.727,8,400,7,,ISIC_7582818.JPG
break,html.Screen,4_106_1,2023-09-08T19:19:27.803Z,,0,,,NaN,,,,,,false,,,,2193539.3999999985,2193539.299999997,,2193539.099999994,,2193552.727,8,400,,,
break_continue,html.Screen,4_106_2,2023-09-08T19:19:27.803Z,,0,,,NaN,,,,,,false,,,,2193539.3999999985,2193539.3999999985,,2193539.3999999985,,2193552.727,8,400,,,
sequence,flow.Sequence,4_106,2023-09-08T19:19:27.803Z,,0,,,4073.995999998413,completion,,,,,false,,,,2193539.5,2193539.3999999985,2189448.711,2189457.8999999985,2189465.404,2193552.727,8,400,,,
trial,html.Screen,4_107_0,2023-09-08T19:19:33.200Z,,0,3,,5383.5729999970645,response,ISIC_0030219.JPG,5,ISIC_0011448.JPG,ISIC_0011448.JPG,false,0,keypress(z),500,2198936.3999999985,2198936.299999997,2193536.036,2193539.599999994,2193552.727,2198941.346,8,400,8,,ISIC_0030219.JPG
break,html.Screen,4_107_1,2023-09-08T19:19:33.200Z,,0,,,NaN,,,,,,false,,,,2198936.799999997,2198936.599999994,,2198936.5,,2198941.346,8,400,,,
break_continue,html.Screen,4_107_2,2023-09-08T19:19:33.200Z,,0,,,NaN,,,,,,false,,,,2198936.799999997,2198936.799999997,,2198936.799999997,,2198941.346,8,400,,,
sequence,flow.Sequence,4_107,2023-09-08T19:19:33.201Z,,0,,,5384.0729999970645,completion,,,,,false,,,,2198936.8999999985,2198936.799999997,2193536.036,2193539.599999994,2193552.727,2198941.346,8,400,,,
trial,html.Screen,4_108_0,2023-09-08T19:19:38.433Z,,0,3,,5227.953999997117,response,ISIC_0053611.JPG,5,ISIC_5309572.JPG,ISIC_0053611.JPG,false,1,keypress(m),500,2204169.5,2204169.299999997,2198924.638,2198937,2198941.346,2204179.77,8,400,9,,ISIC_5309572.JPG
break,html.Screen,4_108_1,2023-09-08T19:19:38.433Z,,0,,,NaN,,,,,,false,,,,2204169.799999997,2204169.6999999955,,2204169.5,,2204179.77,8,400,,,
break_continue,html.Screen,4_108_2,2023-09-08T19:19:38.433Z,,0,,,NaN,,,,,,false,,,,2204169.8999999985,2204169.799999997,,2204169.799999997,,2204179.77,8,400,,,
sequence,flow.Sequence,4_108,2023-09-08T19:19:38.434Z,,0,,,5228.453999997117,completion,,,,,false,,,,2204169.8999999985,2204169.799999997,2198924.638,2198936.8999999985,2198941.346,2204179.77,8,400,,,
trial,html.Screen,4_109_0,2023-09-08T19:19:43.315Z,,0,3,,4871.329999994021,response,ISIC_2644988.JPG,4,ISIC_0059768.JPG,ISIC_0059768.JPG,false,0,keypress(z),500,2209051.1999999955,2209051.099999994,2204163.092,2204169.8999999985,2204179.77,2209067.893,8,400,10,,ISIC_2644988.JPG
break,html.Screen,4_109_1,2023-09-08T19:19:43.315Z,,0,,,NaN,,,,,,false,,,,2209051.599999994,2209051.5,,2209051.299999997,,2209067.893,8,400,,,
break_continue,html.Screen,4_109_2,2023-09-08T19:19:43.315Z,,0,,,NaN,,,,,,false,,,,2209051.6999999955,2209051.599999994,,2209051.599999994,,2209067.893,8,400,,,
sequence,flow.Sequence,4_109,2023-09-08T19:19:43.315Z,,0,,,4871.829999994021,completion,,,,,false,,,,2209051.6999999955,2209051.599999994,2204163.092,2204169.8999999985,2204179.77,2209067.893,8,400,,,
trial,html.Screen,4_110_0,2023-09-08T19:19:47.541Z,,0,3,,4208.906999996863,response,ISIC_0027253.JPG,4,ISIC_7869255.JPG,ISIC_0027253.JPG,false,1,keypress(m),500,2213277,2213276.799999997,2209051.196,2209051.6999999955,2209067.893,2213288.671,8,400,11,,ISIC_7869255.JPG
break,html.Screen,4_110_1,2023-09-08T19:19:47.541Z,,0,,,NaN,,,,,,false,,,,2213277.299999997,2213277.1999999955,,2213277.099999994,,2213288.671,8,400,,,
break_continue,html.Screen,4_110_2,2023-09-08T19:19:47.541Z,,0,,,NaN,,,,,,false,,,,2213277.5,2213277.3999999985,,2213277.299999997,,2213288.671,8,400,,,
sequence,flow.Sequence,4_110,2023-09-08T19:19:47.541Z,,0,,,4209.506999998353,completion,,,,,false,,,,2213277.5,2213277.3999999985,2209051.196,2209051.6999999955,2209067.893,2213288.671,8,400,,,
trial,html.Screen,4_111_0,2023-09-08T19:19:52.070Z,,0,3,,4517.92899999395,response,ISIC_6066292.JPG,5,ISIC_0033725.JPG,ISIC_0033725.JPG,false,0,keypress(z),500,2217806.799999997,2217806.599999994,2213271.992,2213277.5,2213288.671,2217809.785,8,400,12,,ISIC_6066292.JPG
break,html.Screen,4_111_1,2023-09-08T19:19:52.071Z,,0,,,NaN,,,,,,false,,,,2217807.099999994,2217807,,2217806.799999997,,2217809.785,8,400,,,
break_continue,html.Screen,4_111_2,2023-09-08T19:19:52.071Z,,0,,,NaN,,,,,,false,,,,2217807.1999999955,2217807.1999999955,,2217807.1999999955,,2217809.785,8,400,,,
sequence,flow.Sequence,4_111,2023-09-08T19:19:52.071Z,,0,,,4518.52899999544,completion,,,,,false,,,,2217807.299999997,2217807.1999999955,2213271.992,2213277.5,2213288.671,2217809.785,8,400,,,
trial,html.Screen,4_112_0,2023-09-08T19:19:57.215Z,,0,3,,5140.914999995381,response,ISIC_4949672.JPG,4,ISIC_0006744.JPG,ISIC_0006744.JPG,false,0,keypress(z),500,2222950.799999997,2222950.6999999955,2217793.083,2217807.3999999985,2217809.785,2222964.791,8,400,13,,ISIC_4949672.JPG
break,html.Screen,4_112_1,2023-09-08T19:19:57.215Z,,0,,,NaN,,,,,,false,,,,2222951.099999994,2222951.099999994,,2222950.8999999985,,2222964.791,8,400,,,
break_continue,html.Screen,4_112_2,2023-09-08T19:19:57.215Z,,0,,,NaN,,,,,,false,,,,2222951.1999999955,2222951.1999999955,,2222951.1999999955,,2222964.791,8,400,,,
sequence,flow.Sequence,4_112,2023-09-08T19:19:57.215Z,,0,,,5141.414999995381,completion,,,,,false,,,,2222951.299999997,2222951.1999999955,2217793.083,2217807.299999997,2217809.785,2222964.791,8,400,,,
trial,html.Screen,4_113_0,2023-09-08T19:20:01.761Z,,0,3,,4531.808999993838,response,ISIC_4718237.JPG,4,ISIC_0069865.JPG,ISIC_0069865.JPG,false,0,keypress(z),500,2227496.799999997,2227496.599999994,2222948.114,2222951.299999997,2222964.791,2227502.584,8,400,14,,ISIC_4718237.JPG
break,html.Screen,4_113_1,2023-09-08T19:20:01.761Z,,0,,,NaN,,,,,,false,,,,2227497.099999994,2227497.099999994,,2227496.8999999985,,2227502.584,8,400,,,
break_continue,html.Screen,4_113_2,2023-09-08T19:20:01.761Z,,0,,,NaN,,,,,,false,,,,2227497.1999999955,2227497.1999999955,,2227497.099999994,,2227502.584,8,400,,,
sequence,flow.Sequence,4_113,2023-09-08T19:20:01.761Z,,0,,,4532.4089999953285,completion,,,,,false,,,,2227497.299999997,2227497.1999999955,2222948.114,2222951.299999997,2222964.791,2227502.584,8,400,,,
trial,html.Screen,4_114_0,2023-09-08T19:20:06.855Z,,0,3,,5087.916000000201,response,ISIC_2345504.JPG,4,ISIC_0063061.JPG,ISIC_0063061.JPG,false,0,keypress(z),500,2232590.5,2232590.5,2227485.884,2227497.299999997,2227502.584,2232607.556,8,400,15,,ISIC_2345504.JPG
break,html.Screen,4_114_1,2023-09-08T19:20:06.855Z,,0,,,NaN,,,,,,false,,,,2232590.8999999985,2232590.799999997,,2232590.6999999955,,2232607.556,8,400,,,
break_continue,html.Screen,4_114_2,2023-09-08T19:20:06.855Z,,0,,,NaN,,,,,,false,,,,2232590.8999999985,2232590.8999999985,,2232590.8999999985,,2232607.556,8,400,,,
sequence,flow.Sequence,4_114,2023-09-08T19:20:06.855Z,,0,,,5088.315999998711,completion,,,,,false,,,,2232591,2232590.8999999985,2227485.884,2227497.299999997,2227502.584,2232607.556,8,400,,,
trial,html.Screen,4_115_0,2023-09-08T19:20:11.240Z,,0,3,,4368.043999994174,response,ISIC_0064180.JPG,5,ISIC_1132966.JPG,ISIC_0064180.JPG,false,1,keypress(m),500,2236975.6999999955,2236975.599999994,2232590.873,2232591,2232607.556,2236978.526,8,400,16,,ISIC_1132966.JPG
break,html.Screen,4_115_1,2023-09-08T19:20:11.240Z,,0,,,NaN,,,,,,false,,,,2236976,2236976,,2236975.799999997,,2236978.526,8,400,,,
break_continue,html.Screen,4_115_2,2023-09-08T19:20:11.240Z,,0,,,NaN,,,,,,false,,,,2236976.1999999955,2236976.099999994,,2236976.099999994,,2236978.526,8,400,,,
sequence,flow.Sequence,4_115,2023-09-08T19:20:11.240Z,,0,,,4368.543999994174,completion,,,,,false,,,,2236976.1999999955,2236976.099999994,2232590.873,2232591,2232607.556,2236978.526,8,400,,,
trial,html.Screen,4_116_0,2023-09-08T19:20:15.342Z,,0,3,,4099.273999996949,response,ISIC_0031705.JPG,8,ISIC_3560519.JPG,ISIC_3560519.JPG,false,0,keypress(z),500,2241077.8999999985,2241077.799999997,2236961.811,2236976.1999999955,2236978.526,2241082.528,8,400,17,,ISIC_0031705.JPG
break,html.Screen,4_116_1,2023-09-08T19:20:15.342Z,,0,,,NaN,,,,,,false,,,,2241078.3999999985,2241078.299999997,,2241078.1999999955,,2241082.528,8,400,,,
break_continue,html.Screen,4_116_2,2023-09-08T19:20:15.343Z,,0,,,NaN,,,,,,false,,,,2241078.5,2241078.3999999985,,2241078.3999999985,,2241082.528,8,400,,,
sequence,flow.Sequence,4_116,2023-09-08T19:20:15.343Z,,0,,,4099.873999998439,completion,,,,,false,,,,2241078.5,2241078.3999999985,2236961.811,2236976.1999999955,2236978.526,2241082.528,8,400,,,
trial,html.Screen,4_117_0,2023-09-08T19:20:19.855Z,,0,3,,4508.571999994107,response,ISIC_6855540.JPG,4,ISIC_7759376.JPG,ISIC_6855540.JPG,false,1,keypress(m),500,2245591.099999994,2245591.099999994,2241065.913,2241078.599999994,2241082.528,2245603.583,8,400,18,,ISIC_7759376.JPG
break,html.Screen,4_117_1,2023-09-08T19:20:19.856Z,,0,,,NaN,,,,,,false,,,,2245591.5,2245591.3999999985,,2245591.299999997,,2245603.583,8,400,,,
break_continue,html.Screen,4_117_2,2023-09-08T19:20:19.856Z,,0,,,NaN,,,,,,false,,,,2245591.6999999955,2245591.599999994,,2245591.5,,2245603.583,8,400,,,
sequence,flow.Sequence,4_117,2023-09-08T19:20:19.856Z,,0,,,4509.071999994107,completion,,,,,false,,,,2245591.6999999955,2245591.599999994,2241065.913,2241078.599999994,2241082.528,2245603.583,8,400,,,
trial,html.Screen,4_118_0,2023-09-08T19:20:26.053Z,,0,3,,6185.716999996919,response,ISIC_4341261.JPG,6,ISIC_0030428.JPG,ISIC_4341261.JPG,false,1,keypress(m),500,2251789.5,2251789.299999997,2245586.901,2245591.6999999955,2245603.583,2251793.003,8,400,19,,ISIC_0030428.JPG
break,html.Screen,4_118_1,2023-09-08T19:20:26.054Z,,0,,,NaN,,,,,,false,,,,2251789.799999997,2251789.599999994,,2251789.599999994,,2251793.003,8,400,,,
break_continue,html.Screen,4_118_2,2023-09-08T19:20:26.054Z,,0,,,NaN,,,,,,false,,,,2251789.8999999985,2251789.8999999985,,2251789.799999997,,2251793.003,8,400,,,
sequence,flow.Sequence,4_118,2023-09-08T19:20:26.054Z,,0,,,6186.316999998409,completion,,,,,false,,,,2251789.8999999985,2251789.8999999985,2245586.901,2245591.6999999955,2245603.583,2251793.003,8,400,,,
trial,html.Screen,4_119_0,2023-09-08T19:20:31.335Z,,0,3,,5277.996999999974,response,ISIC_0032095.JPG,5,ISIC_5315125.JPG,ISIC_5315125.JPG,false,0,keypress(z),500,2257071.099999994,2257071,2251776.285,2251790,2251793.003,2257081.469,8,400,20,,ISIC_0032095.JPG
break,html.Screen,4_119_1,2023-09-08T19:20:31.335Z,,0,,,NaN,,,,,,false,,,,2257071.3999999985,2257071.299999997,,2257071.1999999955,,2257081.469,8,400,,,
break_continue,html.Screen,4_119_2,2023-09-08T19:20:31.336Z,,0,,,NaN,,,,,,false,,,,2257071.5,2257071.5,,2257071.3999999985,,2257081.469,8,400,,,
sequence,flow.Sequence,4_119,2023-09-08T19:20:31.336Z,,0,,,5278.496999999974,completion,,,,,false,,,,2257071.599999994,2257071.5,2251776.285,2251789.8999999985,2251793.003,2257081.469,8,400,,,
trial,html.Screen,4_120_0,2023-09-08T19:20:35.688Z,,0,3,,4342.530999999959,response,ISIC_1387456.JPG,5,ISIC_0028239.JPG,ISIC_0028239.JPG,false,0,keypress(z),500,2261424.099999994,2261424,2257064.789,2257071.599999994,2257081.469,2261435.742,8,400,21,,ISIC_1387456.JPG
break,html.Screen,4_120_1,2023-09-08T19:20:35.688Z,,0,,,NaN,,,,,,false,,,,2261424.3999999985,2261424.3999999985,,2261424.099999994,,2261435.742,8,400,,,
break_continue,html.Screen,4_120_2,2023-09-08T19:20:35.689Z,,0,,,NaN,,,,,,false,,,,2261424.5,2261424.3999999985,,2261424.3999999985,,2261435.742,8,400,,,
sequence,flow.Sequence,4_120,2023-09-08T19:20:35.689Z,,0,,,4342.930999998469,completion,,,,,false,,,,2261424.5,2261424.3999999985,2257064.789,2257071.599999994,2257081.469,2261435.742,8,400,,,
trial,html.Screen,4_121_0,2023-09-08T19:20:39.562Z,,0,3,,3862.457999995444,response,ISIC_3926019.JPG,5,ISIC_0026120.JPG,ISIC_0026120.JPG,false,0,keypress(z),500,2265298.3999999985,2265298.1999999955,2261419.046,2261424.6999999955,2261435.742,2265306.194,8,400,22,,ISIC_3926019.JPG
break,html.Screen,4_121_1,2023-09-08T19:20:39.563Z,,0,,,NaN,,,,,,false,,,,2265298.6999999955,2265298.599999994,,2265298.3999999985,,2265306.194,8,400,,,
break_continue,html.Screen,4_121_2,2023-09-08T19:20:39.563Z,,0,,,NaN,,,,,,false,,,,2265298.6999999955,2265298.6999999955,,2265298.6999999955,,2265306.194,8,400,,,
sequence,flow.Sequence,4_121,2023-09-08T19:20:39.563Z,,0,,,3862.957999995444,completion,,,,,false,,,,2265298.799999997,2265298.6999999955,2261419.046,2261424.599999994,2261435.742,2265306.194,8,400,,,
trial,html.Screen,4_122_0,2023-09-08T19:20:44.460Z,,0,3,,4890.105999996886,response,ISIC_0060660.JPG,4,ISIC_0071050.JPG,ISIC_0071050.JPG,false,0,keypress(z),500,2270196.3999999985,2270196.299999997,2265289.491,2265298.8999999985,2265306.194,2270211.108,8,400,23,,ISIC_0060660.JPG
break,html.Screen,4_122_1,2023-09-08T19:20:44.461Z,,0,,,NaN,,,,,,false,,,,2270196.799999997,2270196.599999994,,2270196.5,,2270211.108,8,400,,,
break_continue,html.Screen,4_122_2,2023-09-08T19:20:44.461Z,,0,,,NaN,,,,,,false,,,,2270196.8999999985,2270196.799999997,,2270196.799999997,,2270211.108,8,400,,,
sequence,flow.Sequence,4_122,2023-09-08T19:20:44.461Z,,0,,,4890.605999996886,completion,,,,,false,,,,2270196.8999999985,2270196.799999997,2265289.491,2265298.8999999985,2265306.194,2270211.108,8,400,,,
trial,html.Screen,4_123_0,2023-09-08T19:20:48.820Z,,0,3,,4345.191999997012,response,ISIC_0025603.JPG,5,ISIC_0003046.JPG,ISIC_0025603.JPG,false,1,keypress(m),500,2274556.5,2274556.299999997,2270194.286,2270197,2270211.108,2274565.227,8,400,24,,ISIC_0003046.JPG
break,html.Screen,4_123_1,2023-09-08T19:20:48.821Z,,0,,,NaN,,,,,,false,,,,2274556.6999999955,2274556.6999999955,,2274556.5,,2274565.227,8,400,,,
break_continue,html.Screen,4_123_2,2023-09-08T19:20:48.821Z,,0,,,NaN,,,,,,false,,,,2274556.799999997,2274556.799999997,,2274556.6999999955,,2274565.227,8,400,,,
