sender,sender_type,sender_id,timestamp,meta,,blockNo,condition,duration,ended_on,img_left,img_reveal,img_right,loser,practice,response,response_action,selection_duration,time_commit,time_end,time_render,time_run,time_show,time_switch,total_blocks,total_trials,trialNo,url,winner
informed_consent,html.Screen,0,2023-11-06T15:17:34.227Z,"{""labjs_version"":""20.2.4"",""labjs_build"":{""flavor"":""production"",""commit"":""f5b4a49f956347addd546a832a3327688c2c0fef""},""location"":""https://run.pavlovia.org/MurrayBennett/melanoma-2afc/?participant=65706&platform=sona"",""userAgent"":""Mozilla/5.0 (Windows NT 10.0; Win64; x64) AppleWebKit/537.36 (KHTML, like Gecko) Chrome/118.0.0.0 Safari/537.36 Edg/118.0.2088.76"",""platform"":""Win32"",""language"":""en-US"",""locale"":""en-US"",""timeZone"":""America/Chicago"",""timezoneOffset"":360,""screen_width"":1368,""screen_height"":912,""scroll_width"":1368,""scroll_height"":745,""window_innerWidth"":1368,""window_innerHeight"":793,""devicePixelRatio"":2}",,,,3788.938,response,,,,,,consent,click button,,6810.5,6808,2001.736,3008,3019.062,6821.627,,,,"{""participant"":""65706"",""platform"":""sona""}",
Welcome,html.Screen,1,2023-11-06T15:17:42.285Z,,,,uniform,8041.672999952316,response,,,,,,continue,click button,,14868.5,14863.299999952316,6805.088,6810.699999928474,6821.627,14877.235,,,,,
trial,html.Screen,2_0_0,2023-11-06T15:17:49.777Z,,0,0,,7482.864999904632,response,ISIC_0063388.JPG,,ISIC_0025593.JPG,ISIC_0025593.JPG,true,0,keypress(z),500,22360.799999952316,22360.099999904633,14860.963,14868.899999976158,14877.235,22365.948,1,6,1,,ISIC_0063388.JPG
sequence,flow.Sequence,2_0,2023-11-06T15:17:49.778Z,,0,,,7482.864999904632,completion,,,,,true,,,,22361.5,22360.099999904633,14860.963,14868.799999952316,14877.235,22365.948,1,6,,,
trial,html.Screen,2_1_0,2023-11-06T15:17:54.774Z,,0,0,,4991.451999976158,response,ISIC_1309015.JPG,,ISIC_0028178.JPG,ISIC_1309015.JPG,true,1,keypress(m),500,27357.699999928474,27357.399999976158,22349.329,22361.699999928474,22365.948,27369.523,1,6,2,,ISIC_0028178.JPG
sequence,flow.Sequence,2_1,2023-11-06T15:17:54.774Z,,0,,,4991.451999976158,completion,,,,,true,,,,27358,27357.399999976158,22349.329,22361.599999904633,22365.948,27369.523,1,6,,,
trial,html.Screen,2_2_0,2023-11-06T15:17:59.178Z,,0,0,,4391.876999976157,response,ISIC_3314853.JPG,,ISIC_0031128.JPG,ISIC_0031128.JPG,true,0,keypress(z),500,31761.799999952316,31761.399999976158,27352.764,27358.299999952316,27369.523,31772.01,1,6,3,,ISIC_3314853.JPG
sequence,flow.Sequence,2_2,2023-11-06T15:17:59.178Z,,0,,,4391.876999976157,completion,,,,,true,,,,31762,31761.399999976158,27352.764,27358.199999928474,27369.523,31772.01,1,6,,,
trial,html.Screen,2_3_0,2023-11-06T15:18:03.228Z,,0,0,,4039.3899999761597,response,ISIC_0031612.JPG,,ISIC_8980141.JPG,ISIC_0031612.JPG,true,1,keypress(m),500,35811.89999997616,35811.39999997616,31755.27,31762.199999928474,31772.01,35824.967,1,6,4,,ISIC_8980141.JPG
sequence,flow.Sequence,2_3,2023-11-06T15:18:03.229Z,,0,,,4039.3899999761597,completion,,,,,true,,,,35812.39999997616,35811.39999997616,31755.27,31762.099999904633,31772.01,35824.967,1,6,,,
trial,html.Screen,2_4_0,2023-11-06T15:18:08.559Z,,0,0,,5317.7329999284775,response,ISIC_1197737.JPG,,ISIC_9721604.JPG,ISIC_1197737.JPG,true,1,keypress(m),500,41143.199999928474,41142.699999928474,35808.431,35812.59999990463,35824.967,41163.464,1,6,5,,ISIC_9721604.JPG
sequence,flow.Sequence,2_4,2023-11-06T15:18:08.560Z,,0,,,5317.7329999284775,completion,,,,,true,,,,41143.799999952316,41142.699999928474,35808.431,35812.59999990463,35824.967,41163.464,1,6,,,
trial,html.Screen,2_5_0,2023-11-06T15:18:12.323Z,,0,0,,3743.2359999284745,response,ISIC_0010681.JPG,,ISIC_0025346.JPG,ISIC_0025346.JPG,true,0,keypress(z),500,44907,44906.699999928474,41129.367,41144.09999990463,41163.464,44914.365,1,6,6,,ISIC_0010681.JPG
sequence,flow.Sequence,2_5,2023-11-06T15:18:12.324Z,,0,,,3743.2359999284745,completion,,,,,true,,,,44907.39999997616,44906.699999928474,41129.367,41144,41163.464,44914.365,1,6,,,
loop,flow.Loop,2,2023-11-06T15:18:12.324Z,,,,,30029.464999928474,completion,,,,,true,,,,44907.699999928474,44906.699999928474,14860.963,14868.699999928474,14877.235,44914.365,1,6,,,
exp_instructions,html.Screen,3,2023-11-06T15:18:41.899Z,,,,,29570.234999904635,response,,,,,,continue,keypress(Space),,74486.19999992847,74484.59999990463,44897.747,44907.799999952316,44914.365,74501.234,,,,,
trial,html.Screen,4_0_0,2023-11-06T15:18:45.953Z,,0,1,,4038.865999904636,response,ISIC_0060656.JPG,7,ISIC_0008934.JPG,ISIC_0008934.JPG,false,0,keypress(z),500,78540.39999997616,78540.09999990463,74484.516,74486.5,74501.234,78554.008,8,400,1,,ISIC_0060656.JPG
break,html.Screen,4_0_1,2023-11-06T15:18:45.954Z,,0,,,NaN,,,,,,false,,,,78542.09999990463,78541.69999992847,,78540.59999990463,,78554.008,8,400,,,
break_continue,html.Screen,4_0_2,2023-11-06T15:18:45.955Z,,0,,,NaN,,,,,,false,,,,78542.5,78542.39999997616,,78542.19999992847,,78554.008,8,400,,,
sequence,flow.Sequence,4_0,2023-11-06T15:18:45.955Z,,0,,,4041.1659999761614,completion,,,,,false,,,,78542.69999992847,78542.39999997616,74484.516,74486.5,74501.234,78554.008,8,400,,,
trial,html.Screen,4_1_0,2023-11-06T15:18:49.542Z,,0,1,,3574.8919999761565,response,ISIC_7428248.JPG,11,ISIC_0069791.JPG,ISIC_0069791.JPG,false,0,keypress(z),500,82129.19999992847,82128.89999997616,78537.681,78542.89999997616,78554.008,82139.904,8,400,2,,ISIC_7428248.JPG
break,html.Screen,4_1_1,2023-11-06T15:18:49.543Z,,0,,,NaN,,,,,,false,,,,82130.39999997616,82130.09999990463,,82129.59999990463,,82139.904,8,400,,,
break_continue,html.Screen,4_1_2,2023-11-06T15:18:49.543Z,,0,,,NaN,,,,,,false,,,,82130.69999992847,82130.59999990463,,82130.59999990463,,82139.904,8,400,,,
sequence,flow.Sequence,4_1,2023-11-06T15:18:49.543Z,,0,,,3576.591999904631,completion,,,,,false,,,,82130.89999997616,82130.59999990463,78537.681,78542.79999995232,78554.008,82139.904,8,400,,,
trial,html.Screen,4_2_0,2023-11-06T15:18:53.388Z,,0,1,,3834.995999976163,response,ISIC_0010347.JPG,8,ISIC_0316668.JPG,ISIC_0010347.JPG,false,1,keypress(m),500,85975.19999992847,85974.89999997616,82123.552,82131,82139.904,85992.686,8,400,3,,ISIC_0316668.JPG
break,html.Screen,4_2_1,2023-11-06T15:18:53.389Z,,0,,,NaN,,,,,,false,,,,85976.69999992847,85975.89999997616,,85975.39999997616,,85992.686,8,400,,,
break_continue,html.Screen,4_2_2,2023-11-06T15:18:53.390Z,,0,,,NaN,,,,,,false,,,,85977.19999992847,85977.09999990463,,85976.89999997616,,85992.686,8,400,,,
sequence,flow.Sequence,4_2,2023-11-06T15:18:53.390Z,,0,,,3837.1959999046376,completion,,,,,false,,,,85977.39999997616,85977.09999990463,82123.552,82131,82139.904,85992.686,8,400,,,
trial,html.Screen,4_3_0,2023-11-06T15:18:58.290Z,,0,1,,4884.3139999999985,response,ISIC_0010705.JPG,13,ISIC_0054670.JPG,ISIC_0054670.JPG,false,0,keypress(z),500,90877.19999992847,90877,85975.622,85977.59999990463,85992.686,90879.633,8,400,4,,ISIC_0010705.JPG
break,html.Screen,4_3_1,2023-11-06T15:18:58.291Z,,0,,,NaN,,,,,,false,,,,90878.59999990463,90878.19999992847,,90877.39999997616,,90879.633,8,400,,,
break_continue,html.Screen,4_3_2,2023-11-06T15:18:58.291Z,,0,,,NaN,,,,,,false,,,,90878.89999997616,90878.79999995232,,90878.69999992847,,90879.633,8,400,,,
sequence,flow.Sequence,4_3,2023-11-06T15:18:58.292Z,,0,,,4886.113999952315,completion,,,,,false,,,,90879.59999990463,90878.79999995232,85975.622,85977.59999990463,85992.686,90879.633,8,400,,,
trial,html.Screen,4_4_0,2023-11-06T15:19:01.688Z,,0,1,,3395.8669999999984,response,ISIC_2431690.JPG,6,ISIC_0024591.JPG,ISIC_2431690.JPG,false,1,keypress(m),500,94275.79999995232,94275.5,90862.681,90880.19999992847,90879.633,94281.432,8,400,5,,ISIC_0024591.JPG
break,html.Screen,4_4_1,2023-11-06T15:19:01.689Z,,0,,,NaN,,,,,,false,,,,94277.09999990463,94276.79999995232,,94276,,94281.432,8,400,,,
break_continue,html.Screen,4_4_2,2023-11-06T15:19:01.690Z,,0,,,NaN,,,,,,false,,,,94277.39999997616,94277.29999995232,,94277.19999992847,,94281.432,8,400,,,
sequence,flow.Sequence,4_4,2023-11-06T15:19:01.690Z,,0,,,3397.6669999523147,completion,,,,,false,,,,94277.59999990463,94277.29999995232,90862.681,90880.09999990463,90879.633,94281.432,8,400,,,
trial,html.Screen,4_5_0,2023-11-06T15:19:05.820Z,,0,1,,4126.367999952316,response,ISIC_0014264.JPG,24,ISIC_0068895.JPG,ISIC_0068895.JPG,false,0,keypress(z),500,98408,98407.79999995232,94265.307,94277.79999995232,94281.432,98417.595,8,400,6,,ISIC_0014264.JPG
break,html.Screen,4_5_1,2023-11-06T15:19:05.822Z,,0,,,NaN,,,,,,false,,,,98409.29999995232,98409,,98408.19999992847,,98417.595,8,400,,,
break_continue,html.Screen,4_5_2,2023-11-06T15:19:05.822Z,,0,,,NaN,,,,,,false,,,,98409.79999995232,98409.59999990463,,98409.5,,98417.595,8,400,,,
sequence,flow.Sequence,4_5,2023-11-06T15:19:05.822Z,,0,,,4128.167999904632,completion,,,,,false,,,,98409.89999997616,98409.59999990463,94265.307,94277.79999995232,94281.432,98417.595,8,400,,,
trial,html.Screen,4_6_0,2023-11-06T15:19:10.451Z,,0,1,,4620.204999952315,response,ISIC_3292151.JPG,6,ISIC_0026292.JPG,ISIC_3292151.JPG,false,1,keypress(m),500,103038.29999995232,103037.79999995232,98400.92,98410.09999990463,98417.595,103054.07,8,400,7,,ISIC_0026292.JPG
break,html.Screen,4_6_1,2023-11-06T15:19:10.452Z,,0,,,NaN,,,,,,false,,,,103039.69999992847,103039.39999997616,,103038.59999990463,,103054.07,8,400,,,
break_continue,html.Screen,4_6_2,2023-11-06T15:19:10.452Z,,0,,,NaN,,,,,,false,,,,103040.19999992847,103040,,103039.89999997616,,103054.07,8,400,,,
sequence,flow.Sequence,4_6,2023-11-06T15:19:10.453Z,,0,,,4622.404999999999,completion,,,,,false,,,,103040.39999997616,103040,98400.92,98410,98417.595,103054.07,8,400,,,
trial,html.Screen,4_7_0,2023-11-06T15:19:13.896Z,,0,1,,3429.6299999284674,response,ISIC_6784593.JPG,24,ISIC_3689759.JPG,ISIC_6784593.JPG,false,1,keypress(m),500,106484.19999992847,106483.69999992847,103037.718,103040.39999997616,103054.07,106489.804,8,400,8,,ISIC_3689759.JPG
break,html.Screen,4_7_1,2023-11-06T15:19:13.898Z,,0,,,NaN,,,,,,false,,,,106485.59999990463,106485.09999990463,,106484.5,,106489.804,8,400,,,
break_continue,html.Screen,4_7_2,2023-11-06T15:19:13.899Z,,0,,,NaN,,,,,,false,,,,106486.09999990463,106486,,106485.79999995232,,106489.804,8,400,,,
sequence,flow.Sequence,4_7,2023-11-06T15:19:13.899Z,,0,,,3431.929999999993,completion,,,,,false,,,,106486.39999997616,106486,103037.718,103040.39999997616,103054.07,106489.804,8,400,,,
trial,html.Screen,4_8_0,2023-11-06T15:19:17.457Z,,0,1,,3554.4959999523126,response,ISIC_0082704.JPG,7,ISIC_0034032.JPG,ISIC_0082704.JPG,false,1,keypress(m),500,110044.69999992847,110044.29999995232,106473.159,106486.5,106489.804,110058.869,8,400,9,,ISIC_0034032.JPG
break,html.Screen,4_8_1,2023-11-06T15:19:17.458Z,,0,,,NaN,,,,,,false,,,,110046,110045.69999992847,,110044.79999995232,,110058.869,8,400,,,
break_continue,html.Screen,4_8_2,2023-11-06T15:19:17.459Z,,0,,,NaN,,,,,,false,,,,110046.39999997616,110046.29999995232,,110046.19999992847,,110058.869,8,400,,,
sequence,flow.Sequence,4_8,2023-11-06T15:19:17.459Z,,0,,,3556.4959999523126,completion,,,,,false,,,,110046.59999990463,110046.29999995232,106473.159,106486.39999997616,106489.804,110058.869,8,400,,,
trial,html.Screen,4_9_0,2023-11-06T15:19:22.408Z,,0,1,,4936.330999928468,response,ISIC_0063650.JPG,601,ISIC_0069946.JPG,ISIC_0069946.JPG,false,0,keypress(z),500,114995.5,114995.19999992847,110042.467,110046.69999992847,110058.869,115012.359,8,400,10,,ISIC_0063650.JPG
break,html.Screen,4_9_1,2023-11-06T15:19:22.409Z,,0,,,NaN,,,,,,false,,,,114996.89999997616,114996.39999997616,,114995.79999995232,,115012.359,8,400,,,
break_continue,html.Screen,4_9_2,2023-11-06T15:19:22.410Z,,0,,,NaN,,,,,,false,,,,114997.5,114997.39999997616,,114997.19999992847,,115012.359,8,400,,,
sequence,flow.Sequence,4_9,2023-11-06T15:19:22.410Z,,0,,,4938.530999976152,completion,,,,,false,,,,114997.69999992847,114997.39999997616,110042.467,110046.69999992847,110058.869,115012.359,8,400,,,
trial,html.Screen,4_10_0,2023-11-06T15:19:25.902Z,,0,1,,3477.240999904636,response,ISIC_4252285.JPG,3,ISIC_0169604.JPG,ISIC_4252285.JPG,false,1,keypress(m),500,118489.79999995232,118489.59999990463,114995.972,114997.89999997616,115012.359,118498.866,8,400,11,,ISIC_0169604.JPG
break,html.Screen,4_10_1,2023-11-06T15:19:25.903Z,,0,,,NaN,,,,,,false,,,,118491.09999990463,118490.59999990463,,118490.09999990463,,118498.866,8,400,,,
break_continue,html.Screen,4_10_2,2023-11-06T15:19:25.904Z,,0,,,NaN,,,,,,false,,,,118491.59999990463,118491.59999990463,,118491.39999997616,,118498.866,8,400,,,
sequence,flow.Sequence,4_10,2023-11-06T15:19:25.904Z,,0,,,3479.240999904636,completion,,,,,false,,,,118491.89999997616,118491.59999990463,114995.972,114997.79999995232,115012.359,118498.866,8,400,,,
trial,html.Screen,4_11_0,2023-11-06T15:19:29.459Z,,0,1,,3547.83399992848,response,ISIC_0900349.JPG,4,ISIC_7685761.JPG,ISIC_7685761.JPG,false,0,keypress(z),500,122046.89999997616,122046.69999992847,118481.578,118492,118498.866,122050.397,8,400,12,,ISIC_0900349.JPG
break,html.Screen,4_11_1,2023-11-06T15:19:29.460Z,,0,,,NaN,,,,,,false,,,,122048.09999990463,122047.89999997616,,122047.19999992847,,122050.397,8,400,,,
break_continue,html.Screen,4_11_2,2023-11-06T15:19:29.461Z,,0,,,NaN,,,,,,false,,,,122048.5,122048.39999997616,,122048.19999992847,,122050.397,8,400,,,
sequence,flow.Sequence,4_11,2023-11-06T15:19:29.461Z,,0,,,3549.5339999761636,completion,,,,,false,,,,122048.59999990463,122048.39999997616,118481.578,118492,118498.866,122050.397,8,400,,,
trial,html.Screen,4_12_0,2023-11-06T15:19:33.084Z,,0,1,,3617.302999928477,response,ISIC_0162967.JPG,7,ISIC_3717983.JPG,ISIC_0162967.JPG,false,1,keypress(m),500,125668,125667.69999992847,122033.889,122048.69999992847,122050.397,125687.394,8,400,13,,ISIC_3717983.JPG
break,html.Screen,4_12_1,2023-11-06T15:19:33.086Z,,0,,,NaN,,,,,,false,,,,125669.5,125669.29999995232,,125668.39999997616,,125687.394,8,400,,,
break_continue,html.Screen,4_12_2,2023-11-06T15:19:33.086Z,,0,,,NaN,,,,,,false,,,,125670.09999990463,125669.89999997616,,125669.69999992847,,125687.394,8,400,,,
sequence,flow.Sequence,4_12,2023-11-06T15:19:33.087Z,,0,,,3619.502999976161,completion,,,,,false,,,,125670.29999995232,125669.89999997616,122033.889,122048.59999990463,122050.397,125687.394,8,400,,,
trial,html.Screen,4_13_0,2023-11-06T15:19:37.394Z,,0,1,,4289.905999952316,response,ISIC_2293230.JPG,5,ISIC_9895220.JPG,ISIC_2293230.JPG,false,1,keypress(m),500,129977.59999990463,129977.29999995232,125653.251,125670.5,125687.394,129989.256,8,400,14,,ISIC_9895220.JPG
break,html.Screen,4_13_1,2023-11-06T15:19:37.395Z,,0,,,NaN,,,,,,false,,,,129979.19999992847,129978.89999997616,,129978,,129989.256,8,400,,,
break_continue,html.Screen,4_13_2,2023-11-06T15:19:37.396Z,,0,,,NaN,,,,,,false,,,,129979.59999990463,129979.39999997616,,129979.29999995232,,129989.256,8,400,,,
sequence,flow.Sequence,4_13,2023-11-06T15:19:37.396Z,,0,,,4292.005999976158,completion,,,,,false,,,,129979.79999995232,129979.39999997616,125653.251,125670.5,125687.394,129989.256,8,400,,,
trial,html.Screen,4_14_0,2023-11-06T15:19:41.959Z,,0,1,,4552.744000000006,response,ISIC_0067653.JPG,22,ISIC_7667157.JPG,ISIC_0067653.JPG,false,1,keypress(m),500,134542.19999992847,134542,129973.125,129979.89999997616,129989.256,134559.02,8,400,15,,ISIC_7667157.JPG
break,html.Screen,4_14_1,2023-11-06T15:19:41.960Z,,0,,,NaN,,,,,,false,,,,134543.59999990463,134543.09999990463,,134542.59999990463,,134559.02,8,400,,,
break_continue,html.Screen,4_14_2,2023-11-06T15:19:41.960Z,,0,,,NaN,,,,,,false,,,,134544.19999992847,134544,,134543.79999995232,,134559.02,8,400,,,
sequence,flow.Sequence,4_14,2023-11-06T15:19:41.961Z,,0,,,4554.744000000006,completion,,,,,false,,,,134544.29999995232,134544,129973.125,129979.89999997616,129989.256,134559.02,8,400,,,
trial,html.Screen,4_15_0,2023-11-06T15:19:48.475Z,,0,1,,6499.779999952327,response,ISIC_2703002.JPG,7,ISIC_9775430.JPG,ISIC_2703002.JPG,false,1,keypress(m),500,141059.09999990463,141058.79999995232,134542.669,134544.39999997616,134559.02,141063.386,8,400,16,,ISIC_9775430.JPG
break,html.Screen,4_15_1,2023-11-06T15:19:48.477Z,,0,,,NaN,,,,,,false,,,,141060.29999995232,141059.79999995232,,141059.39999997616,,141063.386,8,400,,,
break_continue,html.Screen,4_15_2,2023-11-06T15:19:48.477Z,,0,,,NaN,,,,,,false,,,,141060.59999990463,141060.59999990463,,141060.39999997616,,141063.386,8,400,,,
sequence,flow.Sequence,4_15,2023-11-06T15:19:48.477Z,,0,,,6501.579999904643,completion,,,,,false,,,,141060.89999997616,141060.59999990463,134542.669,134544.39999997616,134559.02,141063.386,8,400,,,
trial,html.Screen,4_16_0,2023-11-06T15:19:52.896Z,,0,1,,4416.413999952318,response,ISIC_0012055.JPG,5,ISIC_0000429.JPG,ISIC_0000429.JPG,false,0,keypress(z),500,145480.19999992847,145479.79999995232,141046.793,141061,141063.386,145483.098,8,400,17,,ISIC_0012055.JPG
break,html.Screen,4_16_1,2023-11-06T15:19:52.898Z,,0,,,NaN,,,,,,false,,,,145481.29999995232,145480.89999997616,,145480.39999997616,,145483.098,8,400,,,
break_continue,html.Screen,4_16_2,2023-11-06T15:19:52.898Z,,0,,,NaN,,,,,,false,,,,145481.69999992847,145481.59999990463,,145481.5,,145483.098,8,400,,,
sequence,flow.Sequence,4_16,2023-11-06T15:19:52.898Z,,0,,,4418.213999904634,completion,,,,,false,,,,145481.89999997616,145481.59999990463,141046.793,141060.89999997616,141063.386,145483.098,8,400,,,
trial,html.Screen,4_17_0,2023-11-06T15:19:56.036Z,,0,1,,3136.5019999046344,response,ISIC_0029859.JPG,1,ISIC_3188062.JPG,ISIC_0029859.JPG,false,1,keypress(m),500,148620.09999990463,148619.59999990463,145466.817,145482.09999990463,145483.098,148635.24,8,400,18,,ISIC_3188062.JPG
break,html.Screen,4_17_1,2023-11-06T15:19:56.038Z,,0,,,NaN,,,,,,false,,,,148621.29999995232,148620.79999995232,,148620.29999995232,,148635.24,8,400,,,
break_continue,html.Screen,4_17_2,2023-11-06T15:19:56.038Z,,0,,,NaN,,,,,,false,,,,148621.69999992847,148621.59999990463,,148621.5,,148635.24,8,400,,,
sequence,flow.Sequence,4_17,2023-11-06T15:19:56.038Z,,0,,,3138.5019999046344,completion,,,,,false,,,,148621.89999997616,148621.59999990463,145466.817,145482,145483.098,148635.24,8,400,,,
trial,html.Screen,4_18_0,2023-11-06T15:19:59.227Z,,0,1,,3175.1599999761675,response,ISIC_5706192.JPG,5,ISIC_5550263.JPG,ISIC_5706192.JPG,false,1,keypress(m),500,151810.69999992847,151810.39999997616,148618.945,148622,148635.24,151820.969,8,400,19,,ISIC_5550263.JPG
break,html.Screen,4_18_1,2023-11-06T15:19:59.228Z,,0,,,NaN,,,,,,false,,,,151811.79999995232,151811.29999995232,,151810.89999997616,,151820.969,8,400,,,
break_continue,html.Screen,4_18_2,2023-11-06T15:19:59.228Z,,0,,,NaN,,,,,,false,,,,151812.19999992847,151812.09999990463,,151811.89999997616,,151820.969,8,400,,,
sequence,flow.Sequence,4_18,2023-11-06T15:19:59.229Z,,0,,,3176.859999904642,completion,,,,,false,,,,151812.39999997616,151812.09999990463,148618.945,148621.89999997616,148635.24,151820.969,8,400,,,
trial,html.Screen,4_19_0,2023-11-06T15:20:02.450Z,,0,1,,3212.530999999988,response,ISIC_3300710.JPG,1,ISIC_0001138.JPG,ISIC_0001138.JPG,false,0,keypress(z),500,155033.69999992847,155033.5,151804.077,151812.39999997616,151820.969,155039.833,8,400,20,,ISIC_3300710.JPG
break,html.Screen,4_19_1,2023-11-06T15:20:02.451Z,,0,,,NaN,,,,,,false,,,,155035,155034.59999990463,,155034,,155039.833,8,400,,,
break_continue,html.Screen,4_19_2,2023-11-06T15:20:02.452Z,,0,,,NaN,,,,,,false,,,,155035.5,155035.39999997616,,155035.19999992847,,155039.833,8,400,,,
sequence,flow.Sequence,4_19,2023-11-06T15:20:02.452Z,,0,,,3214.4309999761463,completion,,,,,false,,,,155035.59999990463,155035.39999997616,151804.077,151812.39999997616,151820.969,155039.833,8,400,,,
trial,html.Screen,4_20_0,2023-11-06T15:20:05.626Z,,0,1,,3169.466999952303,response,ISIC_9720044.JPG,7,ISIC_6906476.JPG,ISIC_6906476.JPG,false,0,keypress(z),500,158209.59999990463,158209.29999995232,155023.224,155035.79999995232,155039.833,158225.144,8,400,21,,ISIC_9720044.JPG
break,html.Screen,4_20_1,2023-11-06T15:20:05.627Z,,0,,,NaN,,,,,,false,,,,158210.5,158210.19999992847,,158209.79999995232,,158225.144,8,400,,,
break_continue,html.Screen,4_20_2,2023-11-06T15:20:05.627Z,,0,,,NaN,,,,,,false,,,,158211,158210.89999997616,,158210.69999992847,,158225.144,8,400,,,
sequence,flow.Sequence,4_20,2023-11-06T15:20:05.627Z,,0,,,3171.066999976145,completion,,,,,false,,,,158211.19999992847,158210.89999997616,155023.224,155035.69999992847,155039.833,158225.144,8,400,,,
trial,html.Screen,4_21_0,2023-11-06T15:20:08.753Z,,0,1,,3110.9559999046323,response,ISIC_0032993.JPG,22,ISIC_0029630.JPG,ISIC_0029630.JPG,false,0,keypress(z),500,161336.39999997616,161336.09999990463,158208.858,158211.29999995232,158225.144,161344.365,8,400,22,,ISIC_0032993.JPG
break,html.Screen,4_21_1,2023-11-06T15:20:08.754Z,,0,,,NaN,,,,,,false,,,,161337.39999997616,161337.09999990463,,161336.59999990463,,161344.365,8,400,,,
break_continue,html.Screen,4_21_2,2023-11-06T15:20:08.754Z,,0,,,NaN,,,,,,false,,,,161337.89999997616,161337.79999995232,,161337.59999990463,,161344.365,8,400,,,
sequence,flow.Sequence,4_21,2023-11-06T15:20:08.754Z,,0,,,3112.655999952316,completion,,,,,false,,,,161338,161337.79999995232,158208.858,158211.29999995232,158225.144,161344.365,8,400,,,
trial,html.Screen,4_22_0,2023-11-06T15:20:12.135Z,,0,1,,3374.4349999523256,response,ISIC_0053810.JPG,5,ISIC_8814398.JPG,ISIC_8814398.JPG,false,0,keypress(z),500,164719,164718.79999995232,161327.448,161338.29999995232,161344.365,164729.796,8,400,23,,ISIC_0053810.JPG
break,html.Screen,4_22_1,2023-11-06T15:20:12.137Z,,0,,,NaN,,,,,,false,,,,164720.29999995232,164719.79999995232,,164719.19999992847,,164729.796,8,400,,,
break_continue,html.Screen,4_22_2,2023-11-06T15:20:12.137Z,,0,,,NaN,,,,,,false,,,,164720.59999990463,164720.5,,164720.39999997616,,164729.796,8,400,,,
sequence,flow.Sequence,4_22,2023-11-06T15:20:12.137Z,,0,,,3376.1350000000093,completion,,,,,false,,,,164720.79999995232,164720.5,161327.448,161338.29999995232,161344.365,164729.796,8,400,,,
trial,html.Screen,4_23_0,2023-11-06T15:20:15.435Z,,0,1,,3288.9039999284723,response,ISIC_1453899.JPG,21,ISIC_3429835.JPG,ISIC_1453899.JPG,false,1,keypress(m),500,168019,168018.69999992847,164712.92,164720.89999997616,164729.796,168031.987,8,400,24,,ISIC_3429835.JPG
break,html.Screen,4_23_1,2023-11-06T15:20:15.436Z,,0,,,NaN,,,,,,false,,,,168020.19999992847,168019.79999995232,,168019.19999992847,,168031.987,8,400,,,
break_continue,html.Screen,4_23_2,2023-11-06T15:20:15.437Z,,0,,,NaN,,,,,,false,,,,168020.59999990463,168020.5,,168020.29999995232,,168031.987,8,400,,,
sequence,flow.Sequence,4_23,2023-11-06T15:20:15.437Z,,0,,,3290.703999999998,completion,,,,,false,,,,168020.79999995232,168020.5,164712.92,164720.89999997616,164729.796,168031.987,8,400,,,
trial,html.Screen,4_24_0,2023-11-06T15:20:18.736Z,,0,1,,3287.0130000000063,response,ISIC_0063070.JPG,7,ISIC_0011789.JPG,ISIC_0063070.JPG,false,1,keypress(m),500,171319.29999995232,171319,168015.172,168020.89999997616,168031.987,171350.79,8,400,25,,ISIC_0011789.JPG
break,html.Screen,4_24_1,2023-11-06T15:20:18.736Z,,0,,,NaN,,,,,,false,,,,171319.89999997616,171319.89999997616,,171319.5,,171350.79,8,400,,,
break_continue,html.Screen,4_24_2,2023-11-06T15:20:18.737Z,,0,,,NaN,,,,,,false,,,,171320.29999995232,171320.19999992847,,171320,,171350.79,8,400,,,
sequence,flow.Sequence,4_24,2023-11-06T15:20:18.737Z,,0,,,3288.2129999284807,completion,,,,,false,,,,171320.5,171320.19999992847,168015.172,168020.89999997616,168031.987,171350.79,8,400,,,
trial,html.Screen,4_25_0,2023-11-06T15:20:21.829Z,,0,1,,3061.4099999284663,response,ISIC_0026781.JPG,20,ISIC_2977718.JPG,ISIC_0026781.JPG,false,1,keypress(m),500,174412.39999997616,174412.19999992847,171334.464,171320.59999990463,171350.79,174419.564,8,400,26,,ISIC_2977718.JPG
break,html.Screen,4_25_1,2023-11-06T15:20:21.830Z,,0,,,NaN,,,,,,false,,,,174413.59999990463,174413.09999990463,,174412.59999990463,,174419.564,8,400,,,
break_continue,html.Screen,4_25_2,2023-11-06T15:20:21.830Z,,0,,,NaN,,,,,,false,,,,174414.09999990463,174413.89999997616,,174413.79999995232,,174419.564,8,400,,,
sequence,flow.Sequence,4_25,2023-11-06T15:20:21.831Z,,0,,,3063.10999997615,completion,,,,,false,,,,174414.19999992847,174413.89999997616,171334.464,171320.59999990463,171350.79,174419.564,8,400,,,
trial,html.Screen,4_26_0,2023-11-06T15:20:24.889Z,,0,1,,3052.7359999523032,response,ISIC_0030969.JPG,7,ISIC_0029089.JPG,ISIC_0029089.JPG,false,0,keypress(z),500,177472.69999992847,177472.29999995232,174402.995,174414.39999997616,174419.564,177488.455,8,400,27,,ISIC_0030969.JPG
break,html.Screen,4_26_1,2023-11-06T15:20:24.890Z,,0,,,NaN,,,,,,false,,,,177474,177473.5,,177473,,177488.455,8,400,,,
break_continue,html.Screen,4_26_2,2023-11-06T15:20:24.891Z,,0,,,NaN,,,,,,false,,,,177474.39999997616,177474.29999995232,,177474.19999992847,,177488.455,8,400,,,
sequence,flow.Sequence,4_26,2023-11-06T15:20:24.891Z,,0,,,3054.7359999523032,completion,,,,,false,,,,177474.5,177474.29999995232,174402.995,174414.29999995232,174419.564,177488.455,8,400,,,
trial,html.Screen,4_27_0,2023-11-06T15:20:28.752Z,,0,1,,3847.1449999046454,response,ISIC_3256116.JPG,17,ISIC_0010852.JPG,ISIC_3256116.JPG,false,1,keypress(m),500,181336,181335.59999990463,177472.391,177474.69999992847,177488.455,181357.682,8,400,28,,ISIC_0010852.JPG
break,html.Screen,4_27_1,2023-11-06T15:20:28.753Z,,0,,,NaN,,,,,,false,,,,181336.69999992847,181336.59999990463,,181336.19999992847,,181357.682,8,400,,,
break_continue,html.Screen,4_27_2,2023-11-06T15:20:28.753Z,,0,,,NaN,,,,,,false,,,,181337,181336.89999997616,,181336.89999997616,,181357.682,8,400,,,
sequence,flow.Sequence,4_27,2023-11-06T15:20:28.753Z,,0,,,3848.444999976171,completion,,,,,false,,,,181337.19999992847,181336.89999997616,177472.391,177474.69999992847,177488.455,181357.682,8,400,,,
trial,html.Screen,4_28_0,2023-11-06T15:20:32.628Z,,0,1,,3853.6179999523156,response,ISIC_7141153.JPG,5,ISIC_1037945.JPG,ISIC_1037945.JPG,false,0,keypress(z),500,185211.59999990463,185211.29999995232,181341.287,181337.29999995232,181357.682,185226.905,8,400,29,,ISIC_7141153.JPG
break,html.Screen,4_28_1,2023-11-06T15:20:32.629Z,,0,,,NaN,,,,,,false,,,,185212.79999995232,185212.29999995232,,185211.89999997616,,185226.905,8,400,,,
break_continue,html.Screen,4_28_2,2023-11-06T15:20:32.629Z,,0,,,NaN,,,,,,false,,,,185213.09999990463,185213.09999990463,,185212.89999997616,,185226.905,8,400,,,
sequence,flow.Sequence,4_28,2023-11-06T15:20:32.630Z,,0,,,3855.417999904632,completion,,,,,false,,,,185213.29999995232,185213.09999990463,181341.287,181337.29999995232,181357.682,185226.905,8,400,,,
trial,html.Screen,4_29_0,2023-11-06T15:20:36.635Z,,0,1,,3991.3949999523174,response,ISIC_1358527.JPG,21,ISIC_0026272.JPG,ISIC_0026272.JPG,false,0,keypress(z),500,189218.69999992847,189218.29999995232,185210.631,185213.5,185226.905,189230.13,8,400,30,,ISIC_1358527.JPG
break,html.Screen,4_29_1,2023-11-06T15:20:36.636Z,,0,,,NaN,,,,,,false,,,,189220.09999990463,189219.59999990463,,189219,,189230.13,8,400,,,
break_continue,html.Screen,4_29_2,2023-11-06T15:20:36.637Z,,0,,,NaN,,,,,,false,,,,189220.5,189220.39999997616,,189220.19999992847,,189230.13,8,400,,,
sequence,flow.Sequence,4_29,2023-11-06T15:20:36.637Z,,0,,,3993.4949999761593,completion,,,,,false,,,,189220.69999992847,189220.39999997616,185210.631,185213.39999997616,185226.905,189230.13,8,400,,,
trial,html.Screen,4_30_0,2023-11-06T15:20:40.001Z,,0,1,,3354.1699999523116,response,ISIC_8674332.JPG,5,ISIC_0031021.JPG,ISIC_8674332.JPG,false,1,keypress(m),500,192584.69999992847,192584.29999995232,189213.289,189220.79999995232,189230.13,192598.602,8,400,31,,ISIC_0031021.JPG
break,html.Screen,4_30_1,2023-11-06T15:20:40.002Z,,0,,,NaN,,,,,,false,,,,192585.79999995232,192585.29999995232,,192584.89999997616,,192598.602,8,400,,,
break_continue,html.Screen,4_30_2,2023-11-06T15:20:40.003Z,,0,,,NaN,,,,,,false,,,,192586.19999992847,192586.09999990463,,192585.89999997616,,192598.602,8,400,,,
sequence,flow.Sequence,4_30,2023-11-06T15:20:40.003Z,,0,,,3355.969999904628,completion,,,,,false,,,,192586.39999997616,192586.09999990463,189213.289,189220.79999995232,189230.13,192598.602,8,400,,,
trial,html.Screen,4_31_0,2023-11-06T15:20:43.624Z,,0,1,,3608.8979999999865,response,ISIC_0024967.JPG,26,ISIC_9445196.JPG,ISIC_9445196.JPG,false,0,keypress(z),500,196207.79999995232,196207.5,192582.607,192586.39999997616,192598.602,196217.728,8,400,32,,ISIC_0024967.JPG
break,html.Screen,4_31_1,2023-11-06T15:20:43.625Z,,0,,,NaN,,,,,,false,,,,196209,196208.59999990463,,196208,,196217.728,8,400,,,
break_continue,html.Screen,4_31_2,2023-11-06T15:20:43.626Z,,0,,,NaN,,,,,,false,,,,196209.39999997616,196209.29999995232,,196209.19999992847,,196217.728,8,400,,,
sequence,flow.Sequence,4_31,2023-11-06T15:20:43.626Z,,0,,,3610.697999952303,completion,,,,,false,,,,196209.5,196209.29999995232,192582.607,192586.39999997616,192598.602,196217.728,8,400,,,
trial,html.Screen,4_32_0,2023-11-06T15:20:47.313Z,,0,1,,3679.0719999523135,response,ISIC_0055013.JPG,5,ISIC_0218072.JPG,ISIC_0055013.JPG,false,1,keypress(m),500,199897,199896.79999995232,196201.123,196209.69999992847,196217.728,199903.625,8,400,33,,ISIC_0218072.JPG
break,html.Screen,4_32_1,2023-11-06T15:20:47.315Z,,0,,,NaN,,,,,,false,,,,199898.5,199897.79999995232,,199897.29999995232,,199903.625,8,400,,,
break_continue,html.Screen,4_32_2,2023-11-06T15:20:47.315Z,,0,,,NaN,,,,,,false,,,,199898.89999997616,199898.69999992847,,199898.59999990463,,199903.625,8,400,,,
sequence,flow.Sequence,4_32,2023-11-06T15:20:47.315Z,,0,,,3680.9719999284716,completion,,,,,false,,,,199899,199898.69999992847,196201.123,196209.69999992847,196217.728,199903.625,8,400,,,
trial,html.Screen,4_33_0,2023-11-06T15:20:50.470Z,,0,1,,3149.9749999046326,response,ISIC_0010940.JPG,5,ISIC_0026231.JPG,ISIC_0010940.JPG,false,1,keypress(m),500,203053.89999997616,203053.59999990463,199886.992,199899.19999992847,199903.625,203073.279,8,400,34,,ISIC_0026231.JPG
break,html.Screen,4_33_1,2023-11-06T15:20:50.471Z,,0,,,NaN,,,,,,false,,,,203055.09999990463,203054.59999990463,,203054.09999990463,,203073.279,8,400,,,
break_continue,html.Screen,4_33_2,2023-11-06T15:20:50.472Z,,0,,,NaN,,,,,,false,,,,203055.89999997616,203055.5,,203055.39999997616,,203073.279,8,400,,,
sequence,flow.Sequence,4_33,2023-11-06T15:20:50.472Z,,0,,,3151.875,completion,,,,,false,,,,203056.09999990463,203055.5,199886.992,199899.19999992847,199903.625,203073.279,8,400,,,
trial,html.Screen,4_34_0,2023-11-06T15:20:54.188Z,,0,1,,3698.2209999999905,response,ISIC_8931948.JPG,7,ISIC_6448312.JPG,ISIC_8931948.JPG,false,1,keypress(m),500,206771.89999997616,206771.5,203039.153,203056.39999997616,203073.279,206774.979,8,400,35,,ISIC_6448312.JPG
break,html.Screen,4_34_1,2023-11-06T15:20:54.189Z,,0,,,NaN,,,,,,false,,,,206773,206772.59999990463,,206772.09999990463,,206774.979,8,400,,,
break_continue,html.Screen,4_34_2,2023-11-06T15:20:54.190Z,,0,,,NaN,,,,,,false,,,,206773.39999997616,206773.29999995232,,206773.19999992847,,206774.979,8,400,,,
sequence,flow.Sequence,4_34,2023-11-06T15:20:54.190Z,,0,,,3700.0209999523067,completion,,,,,false,,,,206773.59999990463,206773.29999995232,203039.153,203056.29999995232,203073.279,206774.979,8,400,,,
trial,html.Screen,4_35_0,2023-11-06T15:21:03.923Z,,0,1,,9731.021000000008,response,ISIC_9944671.JPG,27,ISIC_0024720.JPG,ISIC_0024720.JPG,false,0,keypress(z),500,216506.29999995232,216506,206758.391,206773.69999992847,206774.979,216514.989,8,400,36,,ISIC_9944671.JPG
break,html.Screen,4_35_1,2023-11-06T15:21:03.924Z,,0,,,NaN,,,,,,false,,,,216507.59999990463,216507.19999992847,,216506.59999990463,,216514.989,8,400,,,
break_continue,html.Screen,4_35_2,2023-11-06T15:21:03.924Z,,0,,,NaN,,,,,,false,,,,216508,216507.89999997616,,216507.69999992847,,216514.989,8,400,,,
sequence,flow.Sequence,4_35,2023-11-06T15:21:03.924Z,,0,,,9732.920999976166,completion,,,,,false,,,,216508.09999990463,216507.89999997616,206758.391,206773.59999990463,206774.979,216514.989,8,400,,,
trial,html.Screen,4_36_0,2023-11-06T15:21:07.197Z,,0,1,,3265.110999904631,response,ISIC_0976232.JPG,7,ISIC_7141153.JPG,ISIC_7141153.JPG,false,0,keypress(z),500,219780.5,219780.09999990463,216498.558,216508.19999992847,216514.989,219783.847,8,400,37,,ISIC_0976232.JPG
break,html.Screen,4_36_1,2023-11-06T15:21:07.198Z,,0,,,NaN,,,,,,false,,,,219782,219781.59999990463,,219780.79999995232,,219783.847,8,400,,,
break_continue,html.Screen,4_36_2,2023-11-06T15:21:07.199Z,,0,,,NaN,,,,,,false,,,,219782.39999997616,219782.19999992847,,219782.09999990463,,219783.847,8,400,,,
sequence,flow.Sequence,4_36,2023-11-06T15:21:07.199Z,,0,,,3267.210999928473,completion,,,,,false,,,,219782.5,219782.19999992847,216498.558,216508.19999992847,216514.989,219783.847,8,400,,,
trial,html.Screen,4_37_0,2023-11-06T15:21:12.737Z,,0,1,,5536.252999904624,response,ISIC_0054640.JPG,12,ISIC_3073634.JPG,ISIC_3073634.JPG,false,0,keypress(z),500,225320.5,225320.09999990463,219767.426,219782.59999990463,219783.847,225337.833,8,400,38,,ISIC_0054640.JPG
break,html.Screen,4_37_1,2023-11-06T15:21:12.738Z,,0,,,NaN,,,,,,false,,,,225321.69999992847,225321.5,,225320.79999995232,,225337.833,8,400,,,
break_continue,html.Screen,4_37_2,2023-11-06T15:21:12.739Z,,0,,,NaN,,,,,,false,,,,225322.29999995232,225322.09999990463,,225321.89999997616,,225337.833,8,400,,,
sequence,flow.Sequence,4_37,2023-11-06T15:21:12.739Z,,0,,,5538.252999904624,completion,,,,,false,,,,225322.5,225322.09999990463,219767.426,219782.59999990463,219783.847,225337.833,8,400,,,
trial,html.Screen,4_38_0,2023-11-06T15:21:16.888Z,,0,1,,4133.366999928461,response,ISIC_0057759.JPG,8,ISIC_4264600.JPG,ISIC_0057759.JPG,false,1,keypress(m),500,229471.5,229471.19999992847,225321.238,225322.69999992847,225337.833,229473.829,8,400,39,,ISIC_4264600.JPG
break,html.Screen,4_38_1,2023-11-06T15:21:16.889Z,,0,,,NaN,,,,,,false,,,,229473.09999990463,229472.79999995232,,229471.89999997616,,229473.829,8,400,,,
break_continue,html.Screen,4_38_2,2023-11-06T15:21:16.890Z,,0,,,NaN,,,,,,false,,,,229473.39999997616,229473.29999995232,,229473.19999992847,,229473.829,8,400,,,
sequence,flow.Sequence,4_38,2023-11-06T15:21:16.890Z,,0,,,4135.466999952303,completion,,,,,false,,,,229473.59999990463,229473.29999995232,225321.238,225322.59999990463,225337.833,229473.829,8,400,,,
trial,html.Screen,4_39_0,2023-11-06T15:21:20.606Z,,0,1,,3715.5709999761602,response,ISIC_9024078.JPG,8,ISIC_0065192.JPG,ISIC_0065192.JPG,false,0,keypress(z),500,233189.69999992847,233189.39999997616,229457.431,229473.69999992847,229473.829,233193.003,8,400,40,,ISIC_9024078.JPG
break,html.Screen,4_39_1,2023-11-06T15:21:20.607Z,,0,,,NaN,,,,,,false,,,,233191.09999990463,233190.79999995232,,233190.09999990463,,233193.003,8,400,,,
break_continue,html.Screen,4_39_2,2023-11-06T15:21:20.608Z,,0,,,NaN,,,,,,false,,,,233191.5,233191.39999997616,,233191.19999992847,,233193.003,8,400,,,
sequence,flow.Sequence,4_39,2023-11-06T15:21:20.608Z,,0,,,3717.5709999761602,completion,,,,,false,,,,233191.69999992847,233191.39999997616,229457.431,229473.69999992847,229473.829,233193.003,8,400,,,
trial,html.Screen,4_40_0,2023-11-06T15:21:26.916Z,,0,1,,6306.896999976161,response,ISIC_3260571.JPG,5,ISIC_8637134.JPG,ISIC_3260571.JPG,false,1,keypress(m),500,239500.09999990463,239499.89999997616,233176.654,233191.79999995232,233193.003,239531.183,8,400,41,,ISIC_8637134.JPG
break,html.Screen,4_40_1,2023-11-06T15:21:26.918Z,,0,,,NaN,,,,,,false,,,,239501.19999992847,239500.79999995232,,239500.39999997616,,239531.183,8,400,,,
break_continue,html.Screen,4_40_2,2023-11-06T15:21:26.918Z,,0,,,NaN,,,,,,false,,,,239501.69999992847,239501.5,,239501.39999997616,,239531.183,8,400,,,
sequence,flow.Sequence,4_40,2023-11-06T15:21:26.918Z,,0,,,6308.497000000003,completion,,,,,false,,,,239501.79999995232,239501.5,233176.654,233191.79999995232,233193.003,239531.183,8,400,,,
trial,html.Screen,4_41_0,2023-11-06T15:21:30.394Z,,0,1,,3445.9169999046426,response,ISIC_0025580.JPG,6,ISIC_9109361.JPG,ISIC_0025580.JPG,false,1,keypress(m),500,242977.5,242977.09999990463,239514.376,239501.89999997616,239531.183,242983.086,8,400,42,,ISIC_9109361.JPG
break,html.Screen,4_41_1,2023-11-06T15:21:30.395Z,,0,,,NaN,,,,,,false,,,,242978.89999997616,242978.39999997616,,242977.79999995232,,242983.086,8,400,,,
break_continue,html.Screen,4_41_2,2023-11-06T15:21:30.396Z,,0,,,NaN,,,,,,false,,,,242979.5,242979.29999995232,,242979.19999992847,,242983.086,8,400,,,
sequence,flow.Sequence,4_41,2023-11-06T15:21:30.396Z,,0,,,3448.1169999523263,completion,,,,,false,,,,242979.59999990463,242979.29999995232,239514.376,239501.79999995232,239531.183,242983.086,8,400,,,
trial,html.Screen,4_42_0,2023-11-06T15:21:34.258Z,,0,1,,3858.113999928464,response,ISIC_0046450.JPG,1,ISIC_9927486.JPG,ISIC_9927486.JPG,false,0,keypress(z),500,246841.5,246841.19999992847,242966.279,242979.79999995232,242983.086,246852.35,8,400,43,,ISIC_0046450.JPG
break,html.Screen,4_42_1,2023-11-06T15:21:34.259Z,,0,,,NaN,,,,,,false,,,,246842.69999992847,246842.19999992847,,246841.79999995232,,246852.35,8,400,,,
break_continue,html.Screen,4_42_2,2023-11-06T15:21:34.260Z,,0,,,NaN,,,,,,false,,,,246843.39999997616,246843.29999995232,,246843.09999990463,,246852.35,8,400,,,
sequence,flow.Sequence,4_42,2023-11-06T15:21:34.260Z,,0,,,3860.213999952306,completion,,,,,false,,,,246843.69999992847,246843.29999995232,242966.279,242979.79999995232,242983.086,246852.35,8,400,,,
trial,html.Screen,4_43_0,2023-11-06T15:21:40.406Z,,0,1,,6137.049999976152,response,ISIC_0024256.JPG,7,ISIC_1102075.JPG,ISIC_0024256.JPG,false,1,keypress(m),500,252989.79999995232,252989.39999997616,246835.797,246843.89999997616,246852.35,253006.658,8,400,44,,ISIC_1102075.JPG
break,html.Screen,4_43_1,2023-11-06T15:21:40.407Z,,0,,,NaN,,,,,,false,,,,252991.19999992847,252990.89999997616,,252990.29999995232,,253006.658,8,400,,,
break_continue,html.Screen,4_43_2,2023-11-06T15:21:40.408Z,,0,,,NaN,,,,,,false,,,,252991.59999990463,252991.5,,252991.39999997616,,253006.658,8,400,,,
sequence,flow.Sequence,4_43,2023-11-06T15:21:40.408Z,,0,,,6139.149999999994,completion,,,,,false,,,,252991.79999995232,252991.5,246835.797,246843.89999997616,246852.35,253006.658,8,400,,,
trial,html.Screen,4_44_0,2023-11-06T15:21:43.533Z,,0,1,,3109.4419999046368,response,ISIC_6299036.JPG,6,ISIC_8319768.JPG,ISIC_8319768.JPG,false,0,keypress(z),500,256116.5,256116.09999990463,252989.891,252991.89999997616,253006.658,256125.328,8,400,45,,ISIC_6299036.JPG
break,html.Screen,4_44_1,2023-11-06T15:21:43.534Z,,0,,,NaN,,,,,,false,,,,256117.69999992847,256117.29999995232,,256116.69999992847,,256125.328,8,400,,,
break_continue,html.Screen,4_44_2,2023-11-06T15:21:43.534Z,,0,,,NaN,,,,,,false,,,,256118,256118,,256117.89999997616,,256125.328,8,400,,,
sequence,flow.Sequence,4_44,2023-11-06T15:21:43.534Z,,0,,,3111.342000000004,completion,,,,,false,,,,256118.29999995232,256118,252989.891,252991.89999997616,253006.658,256125.328,8,400,,,
trial,html.Screen,4_45_0,2023-11-06T15:21:47.057Z,,0,1,,3515.371999928466,response,ISIC_0740449.JPG,3,ISIC_0033029.JPG,ISIC_0033029.JPG,false,0,keypress(z),500,259641.09999990463,259640.69999992847,256109.298,256118.29999995232,256125.328,259644.409,8,400,46,,ISIC_0740449.JPG
break,html.Screen,4_45_1,2023-11-06T15:21:47.059Z,,0,,,NaN,,,,,,false,,,,259642.59999990463,259642.29999995232,,259641.39999997616,,259644.409,8,400,,,
break_continue,html.Screen,4_45_2,2023-11-06T15:21:47.059Z,,0,,,NaN,,,,,,false,,,,259643,259643,,259642.79999995232,,259644.409,8,400,,,
sequence,flow.Sequence,4_45,2023-11-06T15:21:47.059Z,,0,,,3517.6719999999914,completion,,,,,false,,,,259643.29999995232,259643,256109.298,256118.29999995232,256125.328,259644.409,8,400,,,
trial,html.Screen,4_46_0,2023-11-06T15:21:50.634Z,,0,1,,3572.990999976144,response,ISIC_4867043.JPG,7,ISIC_0064557.JPG,ISIC_4867043.JPG,false,1,keypress(m),500,263217.59999990463,263217.39999997616,259628.023,259643.39999997616,259644.409,263230.384,8,400,47,,ISIC_0064557.JPG
break,html.Screen,4_46_1,2023-11-06T15:21:50.635Z,,0,,,NaN,,,,,,false,,,,263218.7999999523,263218.2999999523,,263217.7999999523,,263230.384,8,400,,,
break_continue,html.Screen,4_46_2,2023-11-06T15:21:50.635Z,,0,,,NaN,,,,,,false,,,,263219.09999990463,263219.09999990463,,263219,,263230.384,8,400,,,
sequence,flow.Sequence,4_46,2023-11-06T15:21:50.635Z,,0,,,3574.6909999046184,completion,,,,,false,,,,263219.2999999523,263219.09999990463,259628.023,259643.29999995232,259644.409,263230.384,8,400,,,
trial,html.Screen,4_47_0,2023-11-06T15:21:54.785Z,,0,1,,4138.11599999998,response,ISIC_8588957.JPG,12,ISIC_1758558.JPG,ISIC_8588957.JPG,false,1,keypress(m),500,267368.89999997616,267368.5,263213.912,263219.39999997616,263230.384,267383.03,8,400,48,,ISIC_1758558.JPG
break,html.Screen,4_47_1,2023-11-06T15:21:54.786Z,,0,,,NaN,,,,,,false,,,,267370.1999999285,267369.89999997616,,267369.09999990463,,267383.03,8,400,,,
break_continue,html.Screen,4_47_2,2023-11-06T15:21:54.787Z,,0,,,NaN,,,,,,false,,,,267370.5,267370.39999997616,,267370.2999999523,,267383.03,8,400,,,
sequence,flow.Sequence,4_47,2023-11-06T15:21:54.787Z,,0,,,4140.015999976138,completion,,,,,false,,,,267370.6999999285,267370.39999997616,263213.912,263219.39999997616,263230.384,267383.03,8,400,,,
trial,html.Screen,4_48_0,2023-11-06T15:21:58.679Z,,0,1,,3879.2699999522883,response,ISIC_5382189.JPG,4,ISIC_3440004.JPG,ISIC_5382189.JPG,false,1,keypress(m),500,271262.6999999285,271262.2999999523,267366.685,267370.89999997616,267383.03,271269.027,8,400,49,,ISIC_3440004.JPG
break,html.Screen,4_48_1,2023-11-06T15:21:58.680Z,,0,,,NaN,,,,,,false,,,,271264.09999990463,271263.59999990463,,271263,,271269.027,8,400,,,
break_continue,html.Screen,4_48_2,2023-11-06T15:21:58.681Z,,0,,,NaN,,,,,,false,,,,271264.5,271264.39999997616,,271264.1999999285,,271269.027,8,400,,,
sequence,flow.Sequence,4_48,2023-11-06T15:21:58.681Z,,0,,,3881.36999997613,completion,,,,,false,,,,271264.6999999285,271264.39999997616,267366.685,267370.7999999523,267383.03,271269.027,8,400,,,
trial,html.Screen,4_49_0,2023-11-06T15:22:01.995Z,,0,1,,3309.7729999523144,response,ISIC_0011150.JPG,9,ISIC_0056201.JPG,ISIC_0056201.JPG,false,0,keypress(z),500,274579.1999999285,274578.7999999523,271252.815,271264.7999999523,271269.027,274588.02,8,400,50,,ISIC_0011150.JPG
break,html.Screen,4_49_1,2023-11-06T15:22:11.996Z,,0,,,10007.070000000007,timeout,,,,,false,,,,284580.1999999285,284578.535,274571.294,274579.39999997616,274588.02,284595.09,8,400,,,
break_continue,html.Screen,4_49_2,2023-11-06T15:22:13.437Z,,0,,,1401.3099999761325,response,,,,,false,continue,keypress(Space),,286020.2999999523,285996.39999997616,284578.535,284580.39999997616,284595.09,286029.091,8,400,,,
sequence,flow.Sequence,4_49,2023-11-06T15:22:13.437Z,,0,,,14727.372999976156,completion,,,,,false,,,,286020.6999999285,285996.39999997616,271252.815,271264.6999999285,271269.027,286029.091,8,400,,,
trial,html.Screen,4_50_0,2023-11-06T15:22:16.723Z,,0,2,,3277.5089999046177,response,ISIC_1509635.JPG,5,ISIC_1772828.JPG,ISIC_1509635.JPG,false,1,keypress(m),500,289306.7999999523,289306.59999990463,286012.634,286020.89999997616,286029.091,289314.708,8,400,1,,ISIC_1772828.JPG
break,html.Screen,4_50_1,2023-11-06T15:22:16.724Z,,0,,,NaN,,,,,,false,,,,289308,289307.5,,289307.09999990463,,289314.708,8,400,,,
break_continue,html.Screen,4_50_2,2023-11-06T15:22:16.725Z,,0,,,NaN,,,,,,false,,,,289308.5,289308.39999997616,,289308.1999999285,,289314.708,8,400,,,
sequence,flow.Sequence,4_50,2023-11-06T15:22:16.725Z,,0,,,3279.3089999761432,completion,,,,,false,,,,289308.6999999285,289308.39999997616,286012.634,286020.89999997616,286029.091,289314.708,8,400,,,
trial,html.Screen,4_51_0,2023-11-06T15:22:19.848Z,,0,2,,3116.691999976174,response,ISIC_0029502.JPG,8,ISIC_8863344.JPG,ISIC_8863344.JPG,false,0,keypress(z),500,292431.6999999285,292431.39999997616,289298.33,289308.7999999523,289314.708,292451.939,8,400,2,,ISIC_0029502.JPG
break,html.Screen,4_51_1,2023-11-06T15:22:19.849Z,,0,,,NaN,,,,,,false,,,,292432.89999997616,292432.39999997616,,292432,,292451.939,8,400,,,
break_continue,html.Screen,4_51_2,2023-11-06T15:22:19.850Z,,0,,,NaN,,,,,,false,,,,292433.5,292433.2999999523,,292433.09999990463,,292451.939,8,400,,,
sequence,flow.Sequence,4_51,2023-11-06T15:22:19.850Z,,0,,,3118.591999952332,completion,,,,,false,,,,292433.6999999285,292433.2999999523,289298.33,289308.6999999285,289314.708,292451.939,8,400,,,
trial,html.Screen,4_52_0,2023-11-06T15:22:22.909Z,,0,2,,3040.3609999523032,response,ISIC_0054655.JPG,8,ISIC_0027646.JPG,ISIC_0054655.JPG,false,1,keypress(m),500,295492.59999990463,295492.2999999523,292416.824,292433.7999999523,292451.939,295502.26,8,400,3,,ISIC_0027646.JPG
break,html.Screen,4_52_1,2023-11-06T15:22:22.910Z,,0,,,NaN,,,,,,false,,,,295493.89999997616,295493.1999999285,,295492.7999999523,,295502.26,8,400,,,
break_continue,html.Screen,4_52_2,2023-11-06T15:22:22.910Z,,0,,,NaN,,,,,,false,,,,295494.2999999523,295494.1999999285,,295494,,295502.26,8,400,,,
sequence,flow.Sequence,4_52,2023-11-06T15:22:22.911Z,,0,,,3042.2609999284614,completion,,,,,false,,,,295494.5,295494.1999999285,292416.824,292433.7999999523,292451.939,295502.26,8,400,,,
trial,html.Screen,4_53_0,2023-11-06T15:22:26.273Z,,0,2,,3354.539999952307,response,ISIC_0016085.JPG,18,ISIC_0072266.JPG,ISIC_0016085.JPG,false,1,keypress(m),500,298857.2999999523,298856.7999999523,295485.546,295494.59999990463,295502.26,298871.225,8,400,4,,ISIC_0072266.JPG
break,html.Screen,4_53_1,2023-11-06T15:22:26.275Z,,0,,,NaN,,,,,,false,,,,298858.7999999523,298858.2999999523,,298857.6999999285,,298871.225,8,400,,,
break_continue,html.Screen,4_53_2,2023-11-06T15:22:26.276Z,,0,,,NaN,,,,,,false,,,,298859.39999997616,298859.2999999523,,298859,,298871.225,8,400,,,
sequence,flow.Sequence,4_53,2023-11-06T15:22:26.276Z,,0,,,3357.039999952307,completion,,,,,false,,,,298859.59999990463,298859.2999999523,295485.546,295494.5,295502.26,298871.225,8,400,,,
trial,html.Screen,4_54_0,2023-11-06T15:22:28.984Z,,0,2,,2696.7750000000233,response,ISIC_0026627.JPG,8,ISIC_0016085.JPG,ISIC_0016085.JPG,false,0,keypress(z),500,301568.2999999523,301568,298854.742,298859.6999999285,298871.225,301573.081,8,400,5,,ISIC_0026627.JPG
break,html.Screen,4_54_1,2023-11-06T15:22:28.986Z,,0,,,NaN,,,,,,false,,,,301569.5,301568.89999997616,,301568.5,,301573.081,8,400,,,
break_continue,html.Screen,4_54_2,2023-11-06T15:22:28.986Z,,0,,,NaN,,,,,,false,,,,301569.7999999523,301569.7999999523,,301569.59999990463,,301573.081,8,400,,,
sequence,flow.Sequence,4_54,2023-11-06T15:22:28.986Z,,0,,,2698.5749999523396,completion,,,,,false,,,,301570,301569.7999999523,298854.742,298859.6999999285,298871.225,301573.081,8,400,,,
trial,html.Screen,4_55_0,2023-11-06T15:22:32.127Z,,0,2,,3137.9189999999944,response,ISIC_0012382.JPG,8,ISIC_2241755.JPG,ISIC_2241755.JPG,false,0,keypress(z),500,304711.1999999285,304711,301556.407,301570.1999999285,301573.081,304725.272,8,400,6,,ISIC_0012382.JPG
break,html.Screen,4_55_1,2023-11-06T15:22:32.129Z,,0,,,NaN,,,,,,false,,,,304712.39999997616,304711.89999997616,,304711.39999997616,,304725.272,8,400,,,
break_continue,html.Screen,4_55_2,2023-11-06T15:22:32.129Z,,0,,,NaN,,,,,,false,,,,304712.7999999523,304712.6999999285,,304712.5,,304725.272,8,400,,,
sequence,flow.Sequence,4_55,2023-11-06T15:22:32.129Z,,0,,,3139.618999928469,completion,,,,,false,,,,304713,304712.6999999285,301556.407,301570.09999990463,301573.081,304725.272,8,400,,,
trial,html.Screen,4_56_0,2023-11-06T15:22:35.558Z,,0,2,,3416.3279999046354,response,ISIC_0063053.JPG,7,ISIC_9913573.JPG,ISIC_9913573.JPG,false,0,keypress(z),500,308142,308141.59999990463,304708.739,304713.09999990463,304725.272,308162.913,8,400,7,,ISIC_0063053.JPG
break,html.Screen,4_56_1,2023-11-06T15:22:35.560Z,,0,,,NaN,,,,,,false,,,,308143.39999997616,308142.89999997616,,308142.2999999523,,308162.913,8,400,,,
break_continue,html.Screen,4_56_2,2023-11-06T15:22:35.560Z,,0,,,NaN,,,,,,false,,,,308143.89999997616,308143.6999999285,,308143.5,,308162.913,8,400,,,
sequence,flow.Sequence,4_56,2023-11-06T15:22:35.560Z,,0,,,3418.427999928477,completion,,,,,false,,,,308144.09999990463,308143.6999999285,304708.739,304713.09999990463,304725.272,308162.913,8,400,,,
trial,html.Screen,4_57_0,2023-11-06T15:22:38.765Z,,0,2,,3185.386999952316,response,ISIC_4980656.JPG,26,ISIC_0072215.JPG,ISIC_4980656.JPG,false,1,keypress(m),500,311348.6999999285,311348.2999999523,308127.959,308144.2999999523,308162.913,311363.08,8,400,8,,ISIC_0072215.JPG
break,html.Screen,4_57_1,2023-11-06T15:22:38.766Z,,0,,,NaN,,,,,,false,,,,311349.89999997616,311349.5,,311349,,311363.08,8,400,,,
break_continue,html.Screen,4_57_2,2023-11-06T15:22:38.767Z,,0,,,NaN,,,,,,false,,,,311350.39999997616,311350.2999999523,,311350.09999990463,,311363.08,8,400,,,
sequence,flow.Sequence,4_57,2023-11-06T15:22:38.767Z,,0,,,3187.386999952316,completion,,,,,false,,,,311350.6999999285,311350.2999999523,308127.959,308144.1999999285,308162.913,311363.08,8,400,,,
trial,html.Screen,4_58_0,2023-11-06T15:22:41.893Z,,0,2,,3113.619999928458,response,ISIC_0011633.JPG,6,ISIC_0030828.JPG,ISIC_0011633.JPG,false,1,keypress(m),500,314477.09999990463,314476.6999999285,311346.461,311350.7999999523,311363.08,314481.888,8,400,9,,ISIC_0030828.JPG
break,html.Screen,4_58_1,2023-11-06T15:22:41.894Z,,0,,,NaN,,,,,,false,,,,314478.1999999285,314477.6999999285,,314477.2999999523,,314481.888,8,400,,,
break_continue,html.Screen,4_58_2,2023-11-06T15:22:41.895Z,,0,,,NaN,,,,,,false,,,,314478.5,314478.39999997616,,314478.2999999523,,314481.888,8,400,,,
sequence,flow.Sequence,4_58,2023-11-06T15:22:41.895Z,,0,,,3115.319999976142,completion,,,,,false,,,,314478.6999999285,314478.39999997616,311346.461,311350.7999999523,311363.08,314481.888,8,400,,,
trial,html.Screen,4_59_0,2023-11-06T15:22:45.178Z,,0,2,,3279.3119999284972,response,ISIC_8484660.JPG,23,ISIC_7641956.JPG,ISIC_8484660.JPG,false,1,keypress(m),500,317761.59999990463,317761.1999999285,314465.566,314478.6999999285,314481.888,317767.486,8,400,10,,ISIC_7641956.JPG
break,html.Screen,4_59_1,2023-11-06T15:22:45.179Z,,0,,,NaN,,,,,,false,,,,317762.89999997616,317762.5,,317761.89999997616,,317767.486,8,400,,,
break_continue,html.Screen,4_59_2,2023-11-06T15:22:45.180Z,,0,,,NaN,,,,,,false,,,,317763.39999997616,317763.2999999523,,317763.09999990463,,317767.486,8,400,,,
sequence,flow.Sequence,4_59,2023-11-06T15:22:45.180Z,,0,,,3281.411999952339,completion,,,,,false,,,,317763.7999999523,317763.2999999523,314465.566,314478.6999999285,314481.888,317767.486,8,400,,,
trial,html.Screen,4_60_0,2023-11-06T15:22:48.654Z,,0,2,,3470.413999976183,response,ISIC_5993530.JPG,7,ISIC_0054357.JPG,ISIC_5993530.JPG,false,1,keypress(m),500,321238.1999999285,321237.89999997616,317751.163,317763.89999997616,317767.486,321270.229,8,400,11,,ISIC_0054357.JPG
break,html.Screen,4_60_1,2023-11-06T15:22:48.655Z,,0,,,NaN,,,,,,false,,,,321239,321238.7999999523,,321238.39999997616,,321270.229,8,400,,,
break_continue,html.Screen,4_60_2,2023-11-06T15:22:48.656Z,,0,,,NaN,,,,,,false,,,,321239.39999997616,321239.2999999523,,321239.09999990463,,321270.229,8,400,,,
sequence,flow.Sequence,4_60,2023-11-06T15:22:48.656Z,,0,,,3471.813999952341,completion,,,,,false,,,,321239.59999990463,321239.2999999523,317751.163,317763.89999997616,317767.486,321270.229,8,400,,,
trial,html.Screen,4_61_0,2023-11-06T15:22:52.274Z,,0,2,,3587.271000000008,response,ISIC_0055608.JPG,12,ISIC_2245069.JPG,ISIC_0055608.JPG,false,1,keypress(m),500,324857.89999997616,324857.5,321253.574,321239.6999999285,321270.229,324872.317,8,400,12,,ISIC_2245069.JPG
break,html.Screen,4_61_1,2023-11-06T15:22:52.275Z,,0,,,NaN,,,,,,false,,,,324859.09999990463,324858.6999999285,,324858.1999999285,,324872.317,8,400,,,
break_continue,html.Screen,4_61_2,2023-11-06T15:22:52.276Z,,0,,,NaN,,,,,,false,,,,324859.5,324859.39999997616,,324859.1999999285,,324872.317,8,400,,,
sequence,flow.Sequence,4_61,2023-11-06T15:22:52.276Z,,0,,,3589.170999976166,completion,,,,,false,,,,324859.6999999285,324859.39999997616,321253.574,321239.6999999285,321270.229,324872.317,8,400,,,
trial,html.Screen,4_62_0,2023-11-06T15:22:55.654Z,,0,2,,3365.4829999523354,response,ISIC_0029024.JPG,4,ISIC_0027694.JPG,ISIC_0027694.JPG,false,0,keypress(z),500,328238.1999999285,328237.7999999523,324856.107,324859.7999999523,324872.317,328241.336,8,400,13,,ISIC_0029024.JPG
break,html.Screen,4_62_1,2023-11-06T15:22:55.656Z,,0,,,NaN,,,,,,false,,,,328239.5,328239.1999999285,,328238.39999997616,,328241.336,8,400,,,
break_continue,html.Screen,4_62_2,2023-11-06T15:22:55.656Z,,0,,,NaN,,,,,,false,,,,328239.7999999523,328239.7999999523,,328239.59999990463,,328241.336,8,400,,,
sequence,flow.Sequence,4_62,2023-11-06T15:22:55.656Z,,0,,,3367.4829999523354,completion,,,,,false,,,,328240.09999990463,328239.7999999523,324856.107,324859.7999999523,324872.317,328241.336,8,400,,,
trial,html.Screen,4_63_0,2023-11-06T15:22:59.084Z,,0,2,,3426.1639999999898,response,ISIC_5929687.JPG,3,ISIC_2720426.JPG,ISIC_2720426.JPG,false,0,keypress(z),500,331667.89999997616,331667.5,328224.999,328240.1999999285,328241.336,331677.029,8,400,14,,ISIC_5929687.JPG
break,html.Screen,4_63_1,2023-11-06T15:22:59.086Z,,0,,,NaN,,,,,,false,,,,331669.5,331669.09999990463,,331668.1999999285,,331677.029,8,400,,,
break_continue,html.Screen,4_63_2,2023-11-06T15:22:59.086Z,,0,,,NaN,,,,,,false,,,,331670,331669.7999999523,,331669.6999999285,,331677.029,8,400,,,
sequence,flow.Sequence,4_63,2023-11-06T15:22:59.086Z,,0,,,3428.463999952306,completion,,,,,false,,,,331670.09999990463,331669.7999999523,328224.999,328240.09999990463,328241.336,331677.029,8,400,,,
trial,html.Screen,4_64_0,2023-11-06T15:23:01.858Z,,0,2,,2764.9710000000196,response,ISIC_0034192.JPG,6,ISIC_9109361.JPG,ISIC_0034192.JPG,false,1,keypress(m),500,334442.1999999285,334442,331660.631,331670.2999999523,331677.029,334445.501,8,400,15,,ISIC_9109361.JPG
break,html.Screen,4_64_1,2023-11-06T15:23:01.859Z,,0,,,NaN,,,,,,false,,,,334443,334442.6999999285,,334442.39999997616,,334445.501,8,400,,,
break_continue,html.Screen,4_64_2,2023-11-06T15:23:01.859Z,,0,,,NaN,,,,,,false,,,,334443.1999999285,334443.09999990463,,334443,,334445.501,8,400,,,
sequence,flow.Sequence,4_64,2023-11-06T15:23:01.860Z,,0,,,2766.070999904652,completion,,,,,false,,,,334443.2999999523,334443.09999990463,331660.631,331670.1999999285,331677.029,334445.501,8,400,,,
trial,html.Screen,4_65_0,2023-11-06T15:23:05.590Z,,0,2,,3727.398999976169,response,ISIC_3370062.JPG,6,ISIC_0025748.JPG,ISIC_3370062.JPG,false,1,keypress(m),500,338173.2999999523,338172.89999997616,334428.722,334443.2999999523,334445.501,338198.191,8,400,16,,ISIC_0025748.JPG
break,html.Screen,4_65_1,2023-11-06T15:23:05.591Z,,0,,,NaN,,,,,,false,,,,338174.39999997616,338174.09999990463,,338173.59999990463,,338198.191,8,400,,,
break_continue,html.Screen,4_65_2,2023-11-06T15:23:05.591Z,,0,,,NaN,,,,,,false,,,,338174.6999999285,338174.59999990463,,338174.5,,338198.191,8,400,,,
sequence,flow.Sequence,4_65,2023-11-06T15:23:05.591Z,,0,,,3729.0989999046433,completion,,,,,false,,,,338174.89999997616,338174.59999990463,334428.722,334443.2999999523,334445.501,338198.191,8,400,,,
trial,html.Screen,4_66_0,2023-11-06T15:23:09.195Z,,0,2,,3580.1089999523247,response,ISIC_3495799.JPG,6,ISIC_5434229.JPG,ISIC_5434229.JPG,false,0,keypress(z),500,341778.59999990463,341778.2999999523,338181.807,338175,338198.191,341783.901,8,400,17,,ISIC_3495799.JPG
break,html.Screen,4_66_1,2023-11-06T15:23:09.196Z,,0,,,NaN,,,,,,false,,,,341780,341779.6999999285,,341778.7999999523,,341783.901,8,400,,,
break_continue,html.Screen,4_66_2,2023-11-06T15:23:09.197Z,,0,,,NaN,,,,,,false,,,,341780.39999997616,341780.2999999523,,341780.09999990463,,341783.901,8,400,,,
sequence,flow.Sequence,4_66,2023-11-06T15:23:09.197Z,,0,,,3582.1089999523247,completion,,,,,false,,,,341780.59999990463,341780.2999999523,338181.807,338175,338198.191,341783.901,8,400,,,
trial,html.Screen,4_67_0,2023-11-06T15:23:12.496Z,,0,2,,3295.19899990462,response,ISIC_9546876.JPG,22,ISIC_0025702.JPG,ISIC_9546876.JPG,false,1,keypress(m),500,345079.59999990463,345079.09999990463,341767.364,341780.6999999285,341783.901,345086.312,8,400,18,,ISIC_0025702.JPG
break,html.Screen,4_67_1,2023-11-06T15:23:12.497Z,,0,,,NaN,,,,,,false,,,,345081.09999990463,345080.5,,345080,,345086.312,8,400,,,
break_continue,html.Screen,4_67_2,2023-11-06T15:23:12.498Z,,0,,,NaN,,,,,,false,,,,345081.59999990463,345081.5,,345081.2999999523,,345086.312,8,400,,,
sequence,flow.Sequence,4_67,2023-11-06T15:23:12.498Z,,0,,,3297.5989999999874,completion,,,,,false,,,,345081.89999997616,345081.5,341767.364,341780.59999990463,341783.901,345086.312,8,400,,,
trial,html.Screen,4_68_0,2023-11-06T15:23:15.780Z,,0,2,,3276.887999928498,response,ISIC_0005655.JPG,8,ISIC_8742407.JPG,ISIC_8742407.JPG,false,0,keypress(z),500,348363.59999990463,348363.1999999285,345069.45,345082,345086.312,348372.767,8,400,19,,ISIC_0005655.JPG
break,html.Screen,4_68_1,2023-11-06T15:23:15.781Z,,0,,,NaN,,,,,,false,,,,348365.1999999285,348364.7999999523,,348364,,348372.767,8,400,,,
break_continue,html.Screen,4_68_2,2023-11-06T15:23:15.782Z,,0,,,NaN,,,,,,false,,,,348365.7999999523,348365.5,,348365.39999997616,,348372.767,8,400,,,
sequence,flow.Sequence,4_68,2023-11-06T15:23:15.782Z,,0,,,3279.1880000000237,completion,,,,,false,,,,348366,348365.5,345069.45,345081.89999997616,345086.312,348372.767,8,400,,,
trial,html.Screen,4_69_0,2023-11-06T15:23:19.065Z,,0,2,,3275.6329999761656,response,ISIC_0000371.JPG,7,ISIC_7973601.JPG,ISIC_7973601.JPG,false,0,keypress(z),500,351648.7999999523,351648.39999997616,348355.4,348366.1999999285,348372.767,351674.223,8,400,20,,ISIC_0000371.JPG
break,html.Screen,4_69_1,2023-11-06T15:23:19.066Z,,0,,,NaN,,,,,,false,,,,351649.89999997616,351649.5,,351649.09999990463,,351674.223,8,400,,,
break_continue,html.Screen,4_69_2,2023-11-06T15:23:19.067Z,,0,,,NaN,,,,,,false,,,,351650.39999997616,351650.1999999285,,351650.09999990463,,351674.223,8,400,,,
sequence,flow.Sequence,4_69,2023-11-06T15:23:19.067Z,,0,,,3277.432999928482,completion,,,,,false,,,,351650.5,351650.1999999285,348355.4,348366.1999999285,348372.767,351674.223,8,400,,,
trial,html.Screen,4_70_0,2023-11-06T15:23:22.237Z,,0,2,,3146.67699997616,response,ISIC_5895384.JPG,8,ISIC_3688407.JPG,ISIC_3688407.JPG,false,0,keypress(z),500,354821.1999999285,354820.89999997616,351657.66,351650.59999990463,351674.223,354826.156,8,400,21,,ISIC_5895384.JPG
break,html.Screen,4_70_1,2023-11-06T15:23:22.239Z,,0,,,NaN,,,,,,false,,,,354822.59999990463,354822,,354821.39999997616,,354826.156,8,400,,,
break_continue,html.Screen,4_70_2,2023-11-06T15:23:22.239Z,,0,,,NaN,,,,,,false,,,,354823.09999990463,354822.89999997616,,354822.7999999523,,354826.156,8,400,,,
sequence,flow.Sequence,4_70,2023-11-06T15:23:22.239Z,,0,,,3148.67699997616,completion,,,,,false,,,,354823.09999990463,354822.89999997616,351657.66,351650.59999990463,351674.223,354826.156,8,400,,,
trial,html.Screen,4_71_0,2023-11-06T15:23:25.697Z,,0,2,,3454.043999928457,response,ISIC_0058047.JPG,0,ISIC_4614604.JPG,ISIC_0058047.JPG,false,1,keypress(m),500,358280.59999990463,358280.1999999285,354809.833,354823.2999999523,354826.156,358311.982,8,400,22,,ISIC_4614604.JPG
break,html.Screen,4_71_1,2023-11-06T15:23:25.698Z,,0,,,NaN,,,,,,false,,,,358281.39999997616,358281.1999999285,,358280.7999999523,,358311.982,8,400,,,
break_continue,html.Screen,4_71_2,2023-11-06T15:23:25.698Z,,0,,,NaN,,,,,,false,,,,358281.6999999285,358281.59999990463,,358281.59999990463,,358311.982,8,400,,,
sequence,flow.Sequence,4_71,2023-11-06T15:23:25.698Z,,0,,,3455.4439999046153,completion,,,,,false,,,,358281.89999997616,358281.59999990463,354809.833,354823.2999999523,354826.156,358311.982,8,400,,,
trial,html.Screen,4_72_0,2023-11-06T15:23:30.218Z,,0,2,,4489.117999904614,response,ISIC_0030718.JPG,5,ISIC_0064822.JPG,ISIC_0030718.JPG,false,1,keypress(m),500,362801.39999997616,362801.09999990463,358295.55,358282,358311.982,362815.096,8,400,23,,ISIC_0064822.JPG
break,html.Screen,4_72_1,2023-11-06T15:23:30.219Z,,0,,,NaN,,,,,,false,,,,362802.59999990463,362802.39999997616,,362801.6999999285,,362815.096,8,400,,,
break_continue,html.Screen,4_72_2,2023-11-06T15:23:30.219Z,,0,,,NaN,,,,,,false,,,,362803,362802.89999997616,,362802.6999999285,,362815.096,8,400,,,
sequence,flow.Sequence,4_72,2023-11-06T15:23:30.219Z,,0,,,4490.91799997614,completion,,,,,false,,,,362803.1999999285,362802.89999997616,358295.55,358282,358311.982,362815.096,8,400,,,
trial,html.Screen,4_73_0,2023-11-06T15:23:33.922Z,,0,2,,3690.103999928455,response,ISIC_2225927.JPG,28,ISIC_4958578.JPG,ISIC_4958578.JPG,false,0,keypress(z),500,366505.59999990463,366505.1999999285,362798.355,362803.2999999523,362815.096,366517.597,8,400,24,,ISIC_2225927.JPG
break,html.Screen,4_73_1,2023-11-06T15:23:33.923Z,,0,,,NaN,,,,,,false,,,,366506.6999999285,366506.1999999285,,366505.7999999523,,366517.597,8,400,,,
break_continue,html.Screen,4_73_2,2023-11-06T15:23:33.923Z,,0,,,NaN,,,,,,false,,,,366507,366506.89999997616,,366506.7999999523,,366517.597,8,400,,,
sequence,flow.Sequence,4_73,2023-11-06T15:23:33.923Z,,0,,,3691.8039999761386,completion,,,,,false,,,,366507.1999999285,366506.89999997616,362798.355,362803.1999999285,362815.096,366517.597,8,400,,,
trial,html.Screen,4_74_0,2023-11-06T15:23:37.303Z,,0,2,,3368.6029999284656,response,ISIC_0030970.JPG,7,ISIC_7302456.JPG,ISIC_7302456.JPG,false,0,keypress(z),500,369886.5,369886.1999999285,366501.166,366507.2999999523,366517.597,369903.189,8,400,25,,ISIC_0030970.JPG
break,html.Screen,4_74_1,2023-11-06T15:23:37.304Z,,0,,,NaN,,,,,,false,,,,369887.7999999523,369887.39999997616,,369886.89999997616,,369903.189,8,400,,,
break_continue,html.Screen,4_74_2,2023-11-06T15:23:37.305Z,,0,,,NaN,,,,,,false,,,,369888.2999999523,369888.1999999285,,369888,,369903.189,8,400,,,
sequence,flow.Sequence,4_74,2023-11-06T15:23:37.305Z,,0,,,3370.6029999284656,completion,,,,,false,,,,369888.5,369888.1999999285,366501.166,366507.2999999523,366517.597,369903.189,8,400,,,
trial,html.Screen,4_75_0,2023-11-06T15:23:41.356Z,,0,2,,4036.4109999046195,response,ISIC_4732241.JPG,22,ISIC_0055311.JPG,ISIC_4732241.JPG,false,1,keypress(m),500,373939.89999997616,373939.59999990463,369886.455,369888.59999990463,369903.189,373955.971,8,400,26,,ISIC_0055311.JPG
break,html.Screen,4_75_1,2023-11-06T15:23:41.358Z,,0,,,NaN,,,,,,false,,,,373941.2999999523,373940.7999999523,,373940.2999999523,,373955.971,8,400,,,
break_continue,html.Screen,4_75_2,2023-11-06T15:23:41.358Z,,0,,,NaN,,,,,,false,,,,373941.6999999285,373941.59999990463,,373941.5,,373955.971,8,400,,,
sequence,flow.Sequence,4_75,2023-11-06T15:23:41.358Z,,0,,,4038.4109999046195,completion,,,,,false,,,,373941.89999997616,373941.59999990463,369886.455,369888.59999990463,369903.189,373955.971,8,400,,,
trial,html.Screen,4_76_0,2023-11-06T15:23:44.466Z,,0,2,,3093.4289999761386,response,ISIC_0055876.JPG,5,ISIC_0174983.JPG,ISIC_0174983.JPG,false,0,keypress(z),500,377049.7999999523,377049.39999997616,373939.559,373941.89999997616,373955.971,377057.976,8,400,27,,ISIC_0055876.JPG
break,html.Screen,4_76_1,2023-11-06T15:23:44.467Z,,0,,,NaN,,,,,,false,,,,377051.1999999285,377050.89999997616,,377050.09999990463,,377057.976,8,400,,,
break_continue,html.Screen,4_76_2,2023-11-06T15:23:44.468Z,,0,,,NaN,,,,,,false,,,,377051.5,377051.39999997616,,377051.2999999523,,377057.976,8,400,,,
sequence,flow.Sequence,4_76,2023-11-06T15:23:44.468Z,,0,,,3095.4289999761386,completion,,,,,false,,,,377051.6999999285,377051.39999997616,373939.559,373941.89999997616,373955.971,377057.976,8,400,,,
trial,html.Screen,4_77_0,2023-11-06T15:23:47.415Z,,0,2,,2940.6239999046084,response,ISIC_0047008.JPG,0,ISIC_0069167.JPG,ISIC_0069167.JPG,false,0,keypress(z),500,379999,379998.59999990463,377041.619,377051.7999999523,377057.976,380010.148,8,400,28,,ISIC_0047008.JPG
break,html.Screen,4_77_1,2023-11-06T15:23:47.417Z,,0,,,NaN,,,,,,false,,,,380000.39999997616,379999.89999997616,,379999.2999999523,,380010.148,8,400,,,
break_continue,html.Screen,4_77_2,2023-11-06T15:23:47.417Z,,0,,,NaN,,,,,,false,,,,380001,380000.7999999523,,380000.6999999285,,380010.148,8,400,,,
sequence,flow.Sequence,4_77,2023-11-06T15:23:47.417Z,,0,,,2942.823999952292,completion,,,,,false,,,,380001.1999999285,380000.7999999523,377041.619,377051.6999999285,377057.976,380010.148,8,400,,,
trial,html.Screen,4_78_0,2023-11-06T15:23:50.365Z,,0,2,,2937.951999904646,response,ISIC_2086540.JPG,5,ISIC_0064107.JPG,ISIC_0064107.JPG,false,0,keypress(z),500,382948.5,382948.09999990463,379993.705,380001.2999999523,380010.148,382962.136,8,400,29,,ISIC_2086540.JPG
break,html.Screen,4_78_1,2023-11-06T15:23:50.366Z,,0,,,NaN,,,,,,false,,,,382949.6999999285,382949.09999990463,,382948.6999999285,,382962.136,8,400,,,
break_continue,html.Screen,4_78_2,2023-11-06T15:23:50.366Z,,0,,,NaN,,,,,,false,,,,382950.09999990463,382949.89999997616,,382949.7999999523,,382962.136,8,400,,,
sequence,flow.Sequence,4_78,2023-11-06T15:23:50.366Z,,0,,,2939.7519999761716,completion,,,,,false,,,,382950.1999999285,382949.89999997616,379993.705,380001.1999999285,380010.148,382962.136,8,400,,,
trial,html.Screen,4_79_0,2023-11-06T15:23:53.043Z,,0,2,,2664.6639999523177,response,ISIC_0064860.JPG,6,ISIC_9923630.JPG,ISIC_0064860.JPG,false,1,keypress(m),500,385627.1999999285,385626.7999999523,382945.369,382950.2999999523,382962.136,385630.522,8,400,30,,ISIC_9923630.JPG
break,html.Screen,4_79_1,2023-11-06T15:23:53.045Z,,0,,,NaN,,,,,,false,,,,385628.7999999523,385628.39999997616,,385627.5,,385630.522,8,400,,,
break_continue,html.Screen,4_79_2,2023-11-06T15:23:53.045Z,,0,,,NaN,,,,,,false,,,,385629.1999999285,385629.09999990463,,385629,,385630.522,8,400,,,
sequence,flow.Sequence,4_79,2023-11-06T15:23:53.046Z,,0,,,2666.963999904634,completion,,,,,false,,,,385629.2999999523,385629.09999990463,382945.369,382950.2999999523,382962.136,385630.522,8,400,,,
trial,html.Screen,4_80_0,2023-11-06T15:23:56.409Z,,0,2,,3362.377999976161,response,ISIC_2804864.JPG,7,ISIC_5675703.JPG,ISIC_5675703.JPG,false,0,keypress(z),500,388993.1999999285,388992.89999997616,385614.248,385629.5,385630.522,388999.467,8,400,31,,ISIC_2804864.JPG
break,html.Screen,4_80_1,2023-11-06T15:23:56.411Z,,0,,,NaN,,,,,,false,,,,388994.5,388994,,388993.5,,388999.467,8,400,,,
break_continue,html.Screen,4_80_2,2023-11-06T15:23:56.411Z,,0,,,NaN,,,,,,false,,,,388994.89999997616,388994.7999999523,,388994.59999990463,,388999.467,8,400,,,
sequence,flow.Sequence,4_80,2023-11-06T15:23:56.411Z,,0,,,3364.277999952319,completion,,,,,false,,,,388995.09999990463,388994.7999999523,385614.248,385629.5,385630.522,388999.467,8,400,,,
trial,html.Screen,4_81_0,2023-11-06T15:23:59.246Z,,0,2,,2829.832999952312,response,ISIC_0072195.JPG,28,ISIC_7131689.JPG,ISIC_0072195.JPG,false,1,keypress(m),500,391829.59999990463,391829.2999999523,388983.184,388995.1999999285,388999.467,391834.772,8,400,32,,ISIC_7131689.JPG
break,html.Screen,4_81_1,2023-11-06T15:23:59.247Z,,0,,,NaN,,,,,,false,,,,391830.89999997616,391830.5,,391829.7999999523,,391834.772,8,400,,,
break_continue,html.Screen,4_81_2,2023-11-06T15:23:59.248Z,,0,,,NaN,,,,,,false,,,,391831.2999999523,391831.09999990463,,391831,,391834.772,8,400,,,
sequence,flow.Sequence,4_81,2023-11-06T15:23:59.248Z,,0,,,2831.6329999046284,completion,,,,,false,,,,391831.5,391831.09999990463,388983.184,388995.1999999285,388999.467,391834.772,8,400,,,
trial,html.Screen,4_82_0,2023-11-06T15:24:02.340Z,,0,2,,3088.728000000003,response,ISIC_5510604.JPG,8,ISIC_0294399.JPG,ISIC_0294399.JPG,false,0,keypress(z),500,394923.89999997616,394923.5,391818.297,391831.59999990463,391834.772,394936.855,8,400,33,,ISIC_5510604.JPG
break,html.Screen,4_82_1,2023-11-06T15:24:02.342Z,,0,,,NaN,,,,,,false,,,,394925.39999997616,394925.09999990463,,394924.2999999523,,394936.855,8,400,,,
break_continue,html.Screen,4_82_2,2023-11-06T15:24:02.342Z,,0,,,NaN,,,,,,false,,,,394925.7999999523,394925.6999999285,,394925.5,,394936.855,8,400,,,
sequence,flow.Sequence,4_82,2023-11-06T15:24:02.342Z,,0,,,3090.927999928477,completion,,,,,false,,,,394926,394925.6999999285,391818.297,391831.59999990463,391834.772,394936.855,8,400,,,
trial,html.Screen,4_83_0,2023-11-06T15:24:05.659Z,,0,2,,3305.0449999761768,response,ISIC_0013549.JPG,7,ISIC_1985763.JPG,ISIC_1985763.JPG,false,0,keypress(z),500,398242.2999999523,398241.89999997616,394920.436,394926.09999990463,394936.855,398255.981,8,400,34,,ISIC_0013549.JPG
break,html.Screen,4_83_1,2023-11-06T15:24:05.660Z,,0,,,NaN,,,,,,false,,,,398243.7999999523,398243.2999999523,,398242.59999990463,,398255.981,8,400,,,
break_continue,html.Screen,4_83_2,2023-11-06T15:24:05.660Z,,0,,,NaN,,,,,,false,,,,398244.1999999285,398244,,398243.89999997616,,398255.981,8,400,,,
sequence,flow.Sequence,4_83,2023-11-06T15:24:05.661Z,,0,,,3307.1450000000186,completion,,,,,false,,,,398244.2999999523,398244,394920.436,394926.09999990463,394936.855,398255.981,8,400,,,
trial,html.Screen,4_84_0,2023-11-06T15:24:08.528Z,,0,2,,2855.518999999971,response,ISIC_0305800.JPG,8,ISIC_0068223.JPG,ISIC_0068223.JPG,false,0,keypress(z),500,401111.7999999523,401111.5,398239.408,398244.5,398255.981,401124.425,8,400,35,,ISIC_0305800.JPG
break,html.Screen,4_84_1,2023-11-06T15:24:08.529Z,,0,,,NaN,,,,,,false,,,,401113,401112.5,,401112,,401124.425,8,400,,,
break_continue,html.Screen,4_84_2,2023-11-06T15:24:08.530Z,,0,,,NaN,,,,,,false,,,,401113.39999997616,401113.2999999523,,401113.09999990463,,401124.425,8,400,,,
sequence,flow.Sequence,4_84,2023-11-06T15:24:08.530Z,,0,,,2857.3189999522874,completion,,,,,false,,,,401113.5,401113.2999999523,398239.408,398244.39999997616,398255.981,401124.425,8,400,,,
trial,html.Screen,4_85_0,2023-11-06T15:24:11.286Z,,0,2,,2744.674999904644,response,ISIC_4220010.JPG,7,ISIC_0002026.JPG,ISIC_4220010.JPG,false,1,keypress(m),500,403869.2999999523,403869.09999990463,401108.083,401113.7999999523,401124.425,403876.511,8,400,36,,ISIC_0002026.JPG
break,html.Screen,4_85_1,2023-11-06T15:24:11.287Z,,0,,,NaN,,,,,,false,,,,403870.6999999285,403870.1999999285,,403869.59999990463,,403876.511,8,400,,,
break_continue,html.Screen,4_85_2,2023-11-06T15:24:11.287Z,,0,,,NaN,,,,,,false,,,,403871.09999990463,403871,,403870.7999999523,,403876.511,8,400,,,
sequence,flow.Sequence,4_85,2023-11-06T15:24:11.287Z,,0,,,2746.5750000000116,completion,,,,,false,,,,403871.2999999523,403871,401108.083,401113.6999999285,401124.425,403876.511,8,400,,,
trial,html.Screen,4_86_0,2023-11-06T15:24:13.899Z,,0,2,,2605.4890000000014,response,ISIC_0010785.JPG,8,ISIC_0031377.JPG,ISIC_0010785.JPG,false,1,keypress(m),500,406482.2999999523,406482,403860.009,403871.39999997616,403876.511,406494.846,8,400,37,,ISIC_0031377.JPG
break,html.Screen,4_86_1,2023-11-06T15:24:13.900Z,,0,,,NaN,,,,,,false,,,,406483.59999990463,406482.89999997616,,406482.39999997616,,406494.846,8,400,,,
break_continue,html.Screen,4_86_2,2023-11-06T15:24:13.900Z,,0,,,NaN,,,,,,false,,,,406484,406483.89999997616,,406483.6999999285,,406494.846,8,400,,,
sequence,flow.Sequence,4_86,2023-11-06T15:24:13.901Z,,0,,,2607.3889999761595,completion,,,,,false,,,,406484.2999999523,406483.89999997616,403860.009,403871.2999999523,403876.511,406494.846,8,400,,,
trial,html.Screen,4_87_0,2023-11-06T15:24:17.536Z,,0,2,,3624.853999928455,response,ISIC_3826001.JPG,7,ISIC_7299025.JPG,ISIC_7299025.JPG,false,0,keypress(z),500,410120,410119.6999999285,406478.409,406484.39999997616,406494.846,410130.806,8,400,38,,ISIC_3826001.JPG
break,html.Screen,4_87_1,2023-11-06T15:24:17.537Z,,0,,,NaN,,,,,,false,,,,410121.2999999523,410120.6999999285,,410120.1999999285,,410130.806,8,400,,,
break_continue,html.Screen,4_87_2,2023-11-06T15:24:17.538Z,,0,,,NaN,,,,,,false,,,,410121.6999999285,410121.5,,410121.2999999523,,410130.806,8,400,,,
sequence,flow.Sequence,4_87,2023-11-06T15:24:17.538Z,,0,,,3626.6539999999804,completion,,,,,false,,,,410121.7999999523,410121.5,406478.409,406484.39999997616,406494.846,410130.806,8,400,,,
trial,html.Screen,4_88_0,2023-11-06T15:24:20.807Z,,0,2,,3259.893999928492,response,ISIC_2826766.JPG,8,ISIC_8764464.JPG,ISIC_8764464.JPG,false,0,keypress(z),500,413391,413390.6999999285,410113.966,410121.89999997616,410130.806,413400.273,8,400,39,,ISIC_2826766.JPG
break,html.Screen,4_88_1,2023-11-06T15:24:20.808Z,,0,,,NaN,,,,,,false,,,,413392.1999999285,413391.59999990463,,413391.1999999285,,413400.273,8,400,,,
break_continue,html.Screen,4_88_2,2023-11-06T15:24:20.809Z,,0,,,NaN,,,,,,false,,,,413392.5,413392.39999997616,,413392.2999999523,,413400.273,8,400,,,
sequence,flow.Sequence,4_88,2023-11-06T15:24:20.809Z,,0,,,3261.593999976176,completion,,,,,false,,,,413392.6999999285,413392.39999997616,410113.966,410121.89999997616,410130.806,413400.273,8,400,,,
trial,html.Screen,4_89_0,2023-11-06T15:24:24.316Z,,0,2,,3498.926999928488,response,ISIC_3701563.JPG,17,ISIC_2275181.JPG,ISIC_2275181.JPG,false,0,keypress(z),500,416899.5,416899.1999999285,413383.004,413392.7999999523,413400.273,416901.891,8,400,40,,ISIC_3701563.JPG
break,html.Screen,4_89_1,2023-11-06T15:24:24.317Z,,0,,,NaN,,,,,,false,,,,416900.7999999523,416900.2999999523,,416899.6999999285,,416901.891,8,400,,,
break_continue,html.Screen,4_89_2,2023-11-06T15:24:24.318Z,,0,,,NaN,,,,,,false,,,,416901.2999999523,416901.1999999285,,416901,,416901.891,8,400,,,
sequence,flow.Sequence,4_89,2023-11-06T15:24:24.318Z,,0,,,3500.926999928488,completion,,,,,false,,,,416901.39999997616,416901.1999999285,413383.004,413392.6999999285,413400.273,416901.891,8,400,,,
trial,html.Screen,4_90_0,2023-11-06T15:24:29.300Z,,0,2,,4981.708999904629,response,ISIC_0032204.JPG,6,ISIC_4748605.JPG,ISIC_0032204.JPG,false,1,keypress(m),500,421883.89999997616,421883.59999990463,416885.443,416901.5,416901.891,421888.615,8,400,41,,ISIC_4748605.JPG
break,html.Screen,4_90_1,2023-11-06T15:24:29.301Z,,0,,,NaN,,,,,,false,,,,421885.09999990463,421884.59999990463,,421884.1999999285,,421888.615,8,400,,,
break_continue,html.Screen,4_90_2,2023-11-06T15:24:29.302Z,,0,,,NaN,,,,,,false,,,,421885.59999990463,421885.39999997616,,421885.1999999285,,421888.615,8,400,,,
sequence,flow.Sequence,4_90,2023-11-06T15:24:29.302Z,,0,,,4983.508999976155,completion,,,,,false,,,,421885.6999999285,421885.39999997616,416885.443,416901.5,416901.891,421888.615,8,400,,,
trial,html.Screen,4_91_0,2023-11-06T15:24:32.762Z,,0,2,,3456.3850000000093,response,ISIC_1216201.JPG,5,ISIC_0046917.JPG,ISIC_1216201.JPG,false,1,keypress(m),500,425345.39999997616,425345,421872.25,421885.7999999523,421888.615,425357.646,8,400,42,,ISIC_0046917.JPG
break,html.Screen,4_91_1,2023-11-06T15:24:32.763Z,,0,,,NaN,,,,,,false,,,,425346.89999997616,425346.5,,425345.59999990463,,425357.646,8,400,,,
break_continue,html.Screen,4_91_2,2023-11-06T15:24:32.763Z,,0,,,NaN,,,,,,false,,,,425347.2999999523,425347.09999990463,,425347,,425357.646,8,400,,,
sequence,flow.Sequence,4_91,2023-11-06T15:24:32.764Z,,0,,,3458.484999904642,completion,,,,,false,,,,425347.39999997616,425347.09999990463,421872.25,421885.7999999523,421888.615,425357.646,8,400,,,
trial,html.Screen,4_92_0,2023-11-06T15:24:36.110Z,,0,2,,3335.353999999992,response,ISIC_0031213.JPG,6,ISIC_0356904.JPG,ISIC_0356904.JPG,false,0,keypress(z),500,428693.39999997616,428693,425341.122,425347.5,425357.646,428709.941,8,400,43,,ISIC_0031213.JPG
break,html.Screen,4_92_1,2023-11-06T15:24:36.111Z,,0,,,NaN,,,,,,false,,,,428694.7999999523,428694.2999999523,,428693.6999999285,,428709.941,8,400,,,
break_continue,html.Screen,4_92_2,2023-11-06T15:24:36.111Z,,0,,,NaN,,,,,,false,,,,428695.1999999285,428695.09999990463,,428695,,428709.941,8,400,,,
sequence,flow.Sequence,4_92,2023-11-06T15:24:36.112Z,,0,,,3337.4539999046247,completion,,,,,false,,,,428695.39999997616,428695.09999990463,425341.122,425347.5,425357.646,428709.941,8,400,,,
trial,html.Screen,4_93_0,2023-11-06T15:24:39.108Z,,0,2,,2981.5590000000084,response,ISIC_7218890.JPG,8,ISIC_0033638.JPG,ISIC_7218890.JPG,false,1,keypress(m),500,431691.7999999523,431691.5,428693.613,428695.5,428709.941,431695.304,8,400,44,,ISIC_0033638.JPG
break,html.Screen,4_93_1,2023-11-06T15:24:39.109Z,,0,,,NaN,,,,,,false,,,,431693.09999990463,431692.59999990463,,431692,,431695.304,8,400,,,
break_continue,html.Screen,4_93_2,2023-11-06T15:24:39.110Z,,0,,,NaN,,,,,,false,,,,431693.39999997616,431693.2999999523,,431693.1999999285,,431695.304,8,400,,,
sequence,flow.Sequence,4_93,2023-11-06T15:24:39.110Z,,0,,,2983.3589999523247,completion,,,,,false,,,,431693.5,431693.2999999523,428693.613,428695.39999997616,428709.941,431695.304,8,400,,,
trial,html.Screen,4_94_0,2023-11-06T15:24:42.249Z,,0,2,,3137.0959999761544,response,ISIC_3837132.JPG,21,ISIC_0030506.JPG,ISIC_3837132.JPG,false,1,keypress(m),500,434832.6999999285,434832.39999997616,431678.936,431693.6999999285,431695.304,434847.464,8,400,45,,ISIC_0030506.JPG
break,html.Screen,4_94_1,2023-11-06T15:24:42.250Z,,0,,,NaN,,,,,,false,,,,434833.89999997616,434833.2999999523,,434832.89999997616,,434847.464,8,400,,,
break_continue,html.Screen,4_94_2,2023-11-06T15:24:42.250Z,,0,,,NaN,,,,,,false,,,,434834.2999999523,434834.1999999285,,434834,,434847.464,8,400,,,
sequence,flow.Sequence,4_94,2023-11-06T15:24:42.251Z,,0,,,3138.8959999284707,completion,,,,,false,,,,434834.39999997616,434834.1999999285,431678.936,431693.59999990463,431695.304,434847.464,8,400,,,
trial,html.Screen,4_95_0,2023-11-06T15:24:45.438Z,,0,2,,3174.036000000022,response,ISIC_0071568.JPG,6,ISIC_0033081.JPG,ISIC_0071568.JPG,false,1,keypress(m),500,438021.7999999523,438021.5,434830.786,434834.59999990463,434847.464,438033.109,8,400,46,,ISIC_0033081.JPG
break,html.Screen,4_95_1,2023-11-06T15:24:45.439Z,,0,,,NaN,,,,,,false,,,,438023.09999990463,438022.59999990463,,438022.09999990463,,438033.109,8,400,,,
break_continue,html.Screen,4_95_2,2023-11-06T15:24:45.440Z,,0,,,NaN,,,,,,false,,,,438023.7999999523,438023.59999990463,,438023.39999997616,,438033.109,8,400,,,
sequence,flow.Sequence,4_95,2023-11-06T15:24:45.440Z,,0,,,3176.1359999046545,completion,,,,,false,,,,438023.89999997616,438023.59999990463,434830.786,434834.5,434847.464,438033.109,8,400,,,
trial,html.Screen,4_96_0,2023-11-06T15:24:48.898Z,,0,2,,3448.2909999761614,response,ISIC_0014790.JPG,19,ISIC_6356522.JPG,ISIC_6356522.JPG,false,0,keypress(z),500,441481.59999990463,441481.39999997616,438016.785,438024,438033.109,441485.521,8,400,47,,ISIC_0014790.JPG
break,html.Screen,4_96_1,2023-11-06T15:24:48.899Z,,0,,,NaN,,,,,,false,,,,441483.1999999285,441482.89999997616,,441482,,441485.521,8,400,,,
break_continue,html.Screen,4_96_2,2023-11-06T15:24:48.900Z,,0,,,NaN,,,,,,false,,,,441483.7999999523,441483.59999990463,,441483.39999997616,,441485.521,8,400,,,
sequence,flow.Sequence,4_96,2023-11-06T15:24:48.900Z,,0,,,3450.490999904636,completion,,,,,false,,,,441484,441483.59999990463,438016.785,438024,438033.109,441485.521,8,400,,,
trial,html.Screen,4_97_0,2023-11-06T15:24:51.962Z,,0,2,,3059.7789999523084,response,ISIC_0013842.JPG,6,ISIC_0002900.JPG,ISIC_0013842.JPG,false,1,keypress(m),500,444545.59999990463,444545.2999999523,441468.735,441484.2999999523,441485.521,444554.124,8,400,48,,ISIC_0002900.JPG
break,html.Screen,4_97_1,2023-11-06T15:24:51.963Z,,0,,,NaN,,,,,,false,,,,444546.6999999285,444546.2999999523,,444545.7999999523,,444554.124,8,400,,,
break_continue,html.Screen,4_97_2,2023-11-06T15:24:51.963Z,,0,,,NaN,,,,,,false,,,,444547.09999990463,444547,,444546.89999997616,,444554.124,8,400,,,
sequence,flow.Sequence,4_97,2023-11-06T15:24:51.963Z,,0,,,3061.478999999992,completion,,,,,false,,,,444547.2999999523,444547,441468.735,441484.1999999285,441485.521,444554.124,8,400,,,
trial,html.Screen,4_98_0,2023-11-06T15:24:54.942Z,,0,2,,2971.1759999523056,response,ISIC_8194467.JPG,6,ISIC_0025343.JPG,ISIC_0025343.JPG,false,0,keypress(z),500,447525.59999990463,447525.2999999523,444537.788,444547.39999997616,444554.124,447539.632,8,400,49,,ISIC_8194467.JPG
break,html.Screen,4_98_1,2023-11-06T15:24:54.943Z,,0,,,NaN,,,,,,false,,,,447527.09999990463,447526.59999990463,,447526.09999990463,,447539.632,8,400,,,
break_continue,html.Screen,4_98_2,2023-11-06T15:24:54.944Z,,0,,,NaN,,,,,,false,,,,447527.59999990463,447527.39999997616,,447527.2999999523,,447539.632,8,400,,,
sequence,flow.Sequence,4_98,2023-11-06T15:24:54.944Z,,0,,,2973.2759999761474,completion,,,,,false,,,,447527.7999999523,447527.39999997616,444537.788,444547.39999997616,444554.124,447539.632,8,400,,,
trial,html.Screen,4_99_0,2023-11-06T15:24:58.198Z,,0,2,,3241.767999976175,response,ISIC_8575769.JPG,7,ISIC_3298596.JPG,ISIC_8575769.JPG,false,1,keypress(m),500,450781.6999999285,450781.39999997616,447522.865,447528,447539.632,450791.765,8,400,50,,ISIC_3298596.JPG
break,html.Screen,4_99_1,2023-11-06T15:25:08.200Z,,0,,,10006.90399999998,timeout,,,,,false,,,,460784,460782.653,450775.231,450781.89999997616,450791.765,460798.669,8,400,,,
break_continue,html.Screen,4_99_2,2023-11-06T15:25:21.686Z,,0,,,13430.331000000006,response,,,,,false,continue,keypress(Space),,474269.7999999523,474229,460782.653,460784.2999999523,460798.669,474274.524,8,400,,,
sequence,flow.Sequence,4_99,2023-11-06T15:25:21.686Z,,0,,,26689.368000000017,completion,,,,,false,,,,474270.09999990463,474229,447522.865,447528,447539.632,474274.524,8,400,,,
trial,html.Screen,4_100_0,2023-11-06T15:25:26.708Z,,0,3,,5017.2759999523405,response,ISIC_2945324.JPG,6,ISIC_0013052.JPG,ISIC_0013052.JPG,false,0,keypress(z),500,479292.09999990463,479291.7999999523,474257.239,474270.09999990463,474274.524,479294.516,8,400,1,,ISIC_2945324.JPG
break,html.Screen,4_100_1,2023-11-06T15:25:26.710Z,,0,,,NaN,,,,,,false,,,,479293.2999999523,479292.7999999523,,479292.39999997616,,479294.516,8,400,,,
break_continue,html.Screen,4_100_2,2023-11-06T15:25:26.710Z,,0,,,NaN,,,,,,false,,,,479293.7999999523,479293.59999990463,,479293.5,,479294.516,8,400,,,
sequence,flow.Sequence,4_100,2023-11-06T15:25:26.710Z,,0,,,5019.075999904657,completion,,,,,false,,,,479293.89999997616,479293.59999990463,474257.239,474270.09999990463,474274.524,479294.516,8,400,,,
trial,html.Screen,4_101_0,2023-11-06T15:25:29.994Z,,0,3,,3282.683999928471,response,ISIC_0025085.JPG,29,ISIC_7711947.JPG,ISIC_7711947.JPG,false,0,keypress(z),500,482577.59999990463,482577.1999999285,479278.058,479294,479294.516,482580.096,8,400,2,,ISIC_0025085.JPG
break,html.Screen,4_101_1,2023-11-06T15:25:29.995Z,,0,,,NaN,,,,,,false,,,,482578.89999997616,482578.5,,482577.89999997616,,482580.096,8,400,,,
break_continue,html.Screen,4_101_2,2023-11-06T15:25:29.996Z,,0,,,NaN,,,,,,false,,,,482579.39999997616,482579.1999999285,,482579.09999990463,,482580.096,8,400,,,
sequence,flow.Sequence,4_101,2023-11-06T15:25:29.996Z,,0,,,3284.683999928471,completion,,,,,false,,,,482579.5,482579.1999999285,479278.058,479294,479294.516,482580.096,8,400,,,
trial,html.Screen,4_102_0,2023-11-06T15:25:32.850Z,,0,3,,2853.2039999522967,response,ISIC_0063496.JPG,8,ISIC_0053742.JPG,ISIC_0053742.JPG,false,0,keypress(z),500,485433.6999999285,485433.2999999523,482563.515,482579.59999990463,482580.096,485448.802,8,400,3,,ISIC_0063496.JPG
break,html.Screen,4_102_1,2023-11-06T15:25:32.851Z,,0,,,NaN,,,,,,false,,,,485435.1999999285,485435,,485434.09999990463,,485448.802,8,400,,,
break_continue,html.Screen,4_102_2,2023-11-06T15:25:32.852Z,,0,,,NaN,,,,,,false,,,,485435.6999999285,485435.59999990463,,485435.39999997616,,485448.802,8,400,,,
sequence,flow.Sequence,4_102,2023-11-06T15:25:32.852Z,,0,,,2855.503999904613,completion,,,,,false,,,,485435.7999999523,485435.59999990463,482563.515,482579.59999990463,482580.096,485448.802,8,400,,,
trial,html.Screen,4_103_0,2023-11-06T15:25:35.785Z,,0,3,,2919.097999976133,response,ISIC_0006821.JPG,7,ISIC_7935007.JPG,ISIC_0006821.JPG,false,1,keypress(m),500,488368.1999999285,488367.89999997616,485432.298,485436,485448.802,488384.055,8,400,4,,ISIC_7935007.JPG
break,html.Screen,4_103_1,2023-11-06T15:25:35.786Z,,0,,,NaN,,,,,,false,,,,488370,488369.5,,488368.7999999523,,488384.055,8,400,,,
break_continue,html.Screen,4_103_2,2023-11-06T15:25:35.787Z,,0,,,NaN,,,,,,false,,,,488370.5,488370.2999999523,,488370.09999990463,,488384.055,8,400,,,
sequence,flow.Sequence,4_103,2023-11-06T15:25:35.787Z,,0,,,2921.497999952291,completion,,,,,false,,,,488370.7999999523,488370.2999999523,485432.298,485435.89999997616,485448.802,488384.055,8,400,,,
trial,html.Screen,4_104_0,2023-11-06T15:25:38.816Z,,0,3,,3015.1449999284814,response,ISIC_0030508.JPG,7,ISIC_0057655.JPG,ISIC_0057655.JPG,false,0,keypress(z),500,491399.39999997616,491399.1999999285,488367.734,488371,488384.055,491402.764,8,400,5,,ISIC_0030508.JPG
break,html.Screen,4_104_1,2023-11-06T15:25:38.817Z,,0,,,NaN,,,,,,false,,,,491400.59999990463,491400,,491399.59999990463,,491402.764,8,400,,,
break_continue,html.Screen,4_104_2,2023-11-06T15:25:38.817Z,,0,,,NaN,,,,,,false,,,,491401,491400.89999997616,,491400.6999999285,,491402.764,8,400,,,
sequence,flow.Sequence,4_104,2023-11-06T15:25:38.818Z,,0,,,3016.844999976165,completion,,,,,false,,,,491401.2999999523,491400.89999997616,488367.734,488370.89999997616,488384.055,491402.764,8,400,,,
trial,html.Screen,4_105_0,2023-11-06T15:25:41.876Z,,0,3,,3056.1359999761335,response,ISIC_0879097.JPG,13,ISIC_0887792.JPG,ISIC_0879097.JPG,false,1,keypress(m),500,494459.1999999285,494458.89999997616,491386.093,491401.2999999523,491402.764,494471.564,8,400,6,,ISIC_0887792.JPG
break,html.Screen,4_105_1,2023-11-06T15:25:41.877Z,,0,,,NaN,,,,,,false,,,,494460.5,494460.09999990463,,494459.5,,494471.564,8,400,,,
break_continue,html.Screen,4_105_2,2023-11-06T15:25:41.877Z,,0,,,NaN,,,,,,false,,,,494461,494460.7999999523,,494460.6999999285,,494471.564,8,400,,,
sequence,flow.Sequence,4_105,2023-11-06T15:25:41.877Z,,0,,,3058.0359999522916,completion,,,,,false,,,,494461.1999999285,494460.7999999523,491386.093,491401.2999999523,491402.764,494471.564,8,400,,,
trial,html.Screen,4_106_0,2023-11-06T15:25:44.809Z,,0,3,,2920.1359999284614,response,ISIC_0072604.JPG,6,ISIC_0046683.JPG,ISIC_0072604.JPG,false,1,keypress(m),500,497392.1999999285,497391.6999999285,494455.181,494461.2999999523,494471.564,497407.059,8,400,7,,ISIC_0046683.JPG
break,html.Screen,4_106_1,2023-11-06T15:25:44.810Z,,0,,,NaN,,,,,,false,,,,497393.89999997616,497393.59999990463,,497392.59999990463,,497407.059,8,400,,,
break_continue,html.Screen,4_106_2,2023-11-06T15:25:44.811Z,,0,,,NaN,,,,,,false,,,,497394.2999999523,497394.1999999285,,497394,,497407.059,8,400,,,
sequence,flow.Sequence,4_106,2023-11-06T15:25:44.811Z,,0,,,2922.6359999284614,completion,,,,,false,,,,497394.59999990463,497394.1999999285,494455.181,494461.1999999285,494471.564,497407.059,8,400,,,
trial,html.Screen,4_107_0,2023-11-06T15:25:47.678Z,,0,3,,2854.3409999761498,response,ISIC_9626241.JPG,7,ISIC_0030457.JPG,ISIC_9626241.JPG,false,1,keypress(m),500,500261.6999999285,500261.39999997616,497390.211,497394.59999990463,497407.059,500275.596,8,400,8,,ISIC_0030457.JPG
break,html.Screen,4_107_1,2023-11-06T15:25:47.679Z,,0,,,NaN,,,,,,false,,,,500263,500262.59999990463,,500261.7999999523,,500275.596,8,400,,,
break_continue,html.Screen,4_107_2,2023-11-06T15:25:47.680Z,,0,,,NaN,,,,,,false,,,,500263.2999999523,500263.2999999523,,500263.09999990463,,500275.596,8,400,,,
sequence,flow.Sequence,4_107,2023-11-06T15:25:47.680Z,,0,,,2856.240999952308,completion,,,,,false,,,,500263.5,500263.2999999523,497390.211,497394.59999990463,497407.059,500275.596,8,400,,,
trial,html.Screen,4_108_0,2023-11-06T15:25:50.340Z,,0,3,,2647.503999904613,response,ISIC_4898865.JPG,5,ISIC_7147898.JPG,ISIC_7147898.JPG,false,0,keypress(z),500,502923.5,502923.09999990463,500259.013,500263.59999990463,500275.596,502927.329,8,400,9,,ISIC_4898865.JPG
break,html.Screen,4_108_1,2023-11-06T15:25:50.341Z,,0,,,NaN,,,,,,false,,,,502924.6999999285,502924.1999999285,,502923.6999999285,,502927.329,8,400,,,
break_continue,html.Screen,4_108_2,2023-11-06T15:25:50.341Z,,0,,,NaN,,,,,,false,,,,502925.1999999285,502925,,502924.7999999523,,502927.329,8,400,,,
sequence,flow.Sequence,4_108,2023-11-06T15:25:50.342Z,,0,,,2649.4039999999804,completion,,,,,false,,,,502925.39999997616,502925,500259.013,500263.59999990463,500275.596,502927.329,8,400,,,
trial,html.Screen,4_109_0,2023-11-06T15:25:53.497Z,,0,3,,3152.4709999522893,response,ISIC_1234463.JPG,6,ISIC_0004907.JPG,ISIC_0004907.JPG,false,0,keypress(z),500,506080.1999999285,506079.7999999523,502910.739,502925.39999997616,502927.329,506096.379,8,400,10,,ISIC_1234463.JPG
break,html.Screen,4_109_1,2023-11-06T15:25:53.498Z,,0,,,NaN,,,,,,false,,,,506081.5,506081,,506080.5,,506096.379,8,400,,,
break_continue,html.Screen,4_109_2,2023-11-06T15:25:53.498Z,,0,,,NaN,,,,,,false,,,,506081.89999997616,506081.7999999523,,506081.6999999285,,506096.379,8,400,,,
sequence,flow.Sequence,4_109,2023-11-06T15:25:53.498Z,,0,,,3154.4709999522893,completion,,,,,false,,,,506082.09999990463,506081.7999999523,502910.739,502925.39999997616,502927.329,506096.379,8,400,,,
trial,html.Screen,4_110_0,2023-11-06T15:25:56.829Z,,0,3,,3315.6209999999846,response,ISIC_0028488.JPG,6,ISIC_9254641.JPG,ISIC_0028488.JPG,false,1,keypress(m),500,509412.2999999523,509412,506079.765,506082.1999999285,506096.379,509415.099,8,400,11,,ISIC_9254641.JPG
break,html.Screen,4_110_1,2023-11-06T15:25:56.830Z,,0,,,NaN,,,,,,false,,,,509413.59999990463,509413.1999999285,,509412.59999990463,,509415.099,8,400,,,
break_continue,html.Screen,4_110_2,2023-11-06T15:25:56.830Z,,0,,,NaN,,,,,,false,,,,509414,509413.89999997616,,509413.7999999523,,509415.099,8,400,,,
sequence,flow.Sequence,4_110,2023-11-06T15:25:56.830Z,,0,,,3317.520999976143,completion,,,,,false,,,,509414.09999990463,509413.89999997616,506079.765,506082.1999999285,506096.379,509415.099,8,400,,,
trial,html.Screen,4_111_0,2023-11-06T15:26:00.645Z,,0,3,,3813.100999928487,response,ISIC_5438156.JPG,0,ISIC_0010468.JPG,ISIC_0010468.JPG,false,0,keypress(z),500,513228.59999990463,513228.1999999285,509398.486,509414.1999999285,509415.099,513234.36,8,400,12,,ISIC_5438156.JPG
break,html.Screen,4_111_1,2023-11-06T15:26:00.646Z,,0,,,NaN,,,,,,false,,,,513229.89999997616,513229.1999999285,,513228.7999999523,,513234.36,8,400,,,
break_continue,html.Screen,4_111_2,2023-11-06T15:26:00.647Z,,0,,,NaN,,,,,,false,,,,513230.2999999523,513230.1999999285,,513230.09999990463,,513234.36,8,400,,,
sequence,flow.Sequence,4_111,2023-11-06T15:26:00.647Z,,0,,,3815.100999928487,completion,,,,,false,,,,513230.5,513230.1999999285,509398.486,509414.1999999285,509415.099,513234.36,8,400,,,
trial,html.Screen,4_112_0,2023-11-06T15:26:03.963Z,,0,3,,3311.4399999523303,response,ISIC_0008510.JPG,4,ISIC_0033337.JPG,ISIC_0033337.JPG,false,0,keypress(z),500,516546.39999997616,516545.7999999523,513217.659,513230.59999990463,513234.36,516553.297,8,400,13,,ISIC_0008510.JPG
break,html.Screen,4_112_1,2023-11-06T15:26:03.964Z,,0,,,NaN,,,,,,false,,,,516547.7999999523,516547.5,,516546.6999999285,,516553.297,8,400,,,
break_continue,html.Screen,4_112_2,2023-11-06T15:26:03.965Z,,0,,,NaN,,,,,,false,,,,516548.59999990463,516548.2999999523,,516548.09999990463,,516553.297,8,400,,,
sequence,flow.Sequence,4_112,2023-11-06T15:26:03.965Z,,0,,,3313.9399999523303,completion,,,,,false,,,,516548.7999999523,516548.2999999523,513217.659,513230.59999990463,513234.36,516553.297,8,400,,,
trial,html.Screen,4_113_0,2023-11-06T15:26:07.314Z,,0,3,,3343.6029999761377,response,ISIC_7331345.JPG,5,ISIC_4153687.JPG,ISIC_7331345.JPG,false,1,keypress(m),500,519897.2999999523,519896.89999997616,516536.958,516549,516553.297,519905.584,8,400,14,,ISIC_4153687.JPG
break,html.Screen,4_113_1,2023-11-06T15:26:07.315Z,,0,,,NaN,,,,,,false,,,,519898.7999999523,519898.1999999285,,519897.59999990463,,519905.584,8,400,,,
break_continue,html.Screen,4_113_2,2023-11-06T15:26:07.316Z,,0,,,NaN,,,,,,false,,,,519899.2999999523,519899.09999990463,,519899,,519905.584,8,400,,,
sequence,flow.Sequence,4_113,2023-11-06T15:26:07.316Z,,0,,,3345.802999904612,completion,,,,,false,,,,519899.39999997616,519899.09999990463,516536.958,516548.89999997616,516553.297,519905.584,8,400,,,
trial,html.Screen,4_114_0,2023-11-06T15:26:10.279Z,,0,3,,2956.215999952343,response,ISIC_6423860.JPG,7,ISIC_0011669.JPG,ISIC_0011669.JPG,false,0,keypress(z),500,522862.2999999523,522861.7999999523,519889.287,519899.59999990463,519905.584,522874.339,8,400,15,,ISIC_6423860.JPG
break,html.Screen,4_114_1,2023-11-06T15:26:10.280Z,,0,,,NaN,,,,,,false,,,,522863.7999999523,522863.39999997616,,522862.59999990463,,522874.339,8,400,,,
break_continue,html.Screen,4_114_2,2023-11-06T15:26:10.281Z,,0,,,NaN,,,,,,false,,,,522864.1999999285,522864.09999990463,,522864,,522874.339,8,400,,,
sequence,flow.Sequence,4_114,2023-11-06T15:26:10.281Z,,0,,,2958.515999904659,completion,,,,,false,,,,522864.39999997616,522864.09999990463,519889.287,519899.59999990463,519905.584,522874.339,8,400,,,
trial,html.Screen,4_115_0,2023-11-06T15:26:13.659Z,,0,3,,3367.661000000022,response,ISIC_0067012.JPG,8,ISIC_0538042.JPG,ISIC_0067012.JPG,false,1,keypress(m),500,526242.1999999285,526242,522858.001,522864.59999990463,522874.339,526260.297,8,400,16,,ISIC_0538042.JPG
break,html.Screen,4_115_1,2023-11-06T15:26:13.660Z,,0,,,NaN,,,,,,false,,,,526243.5999999046,526243.0999999046,,526242.5,,526260.297,8,400,,,
break_continue,html.Screen,4_115_2,2023-11-06T15:26:13.660Z,,0,,,NaN,,,,,,false,,,,526244.0999999046,526244,,526243.7999999523,,526260.297,8,400,,,
sequence,flow.Sequence,4_115,2023-11-06T15:26:13.661Z,,0,,,3369.661000000022,completion,,,,,false,,,,526244.3999999762,526244,522858.001,522864.5,522874.339,526260.297,8,400,,,
trial,html.Screen,4_116_0,2023-11-06T15:26:16.496Z,,0,3,,2819.302999904612,response,ISIC_6688417.JPG,8,ISIC_3386656.JPG,ISIC_3386656.JPG,false,0,keypress(z),500,529079.8999999762,529079.5999999046,526226.819,526244.5999999046,526260.297,529095.46,8,400,17,,ISIC_6688417.JPG
break,html.Screen,4_116_1,2023-11-06T15:26:16.498Z,,0,,,NaN,,,,,,false,,,,529081.3999999762,529081.0999999046,,529080.2999999523,,529095.46,8,400,,,
break_continue,html.Screen,4_116_2,2023-11-06T15:26:16.498Z,,0,,,NaN,,,,,,false,,,,529081.7999999523,529081.6999999285,,529081.5999999046,,529095.46,8,400,,,
sequence,flow.Sequence,4_116,2023-11-06T15:26:16.498Z,,0,,,2821.402999928454,completion,,,,,false,,,,529082,529081.6999999285,526226.819,526244.5999999046,526260.297,529095.46,8,400,,,
trial,html.Screen,4_117_0,2023-11-06T15:26:19.320Z,,0,3,,2808.13999990467,response,ISIC_4462773.JPG,6,ISIC_5550263.JPG,ISIC_5550263.JPG,false,0,keypress(z),500,531903.8999999762,531903.5999999046,529078.79,529082,529095.46,531913.926,8,400,18,,ISIC_4462773.JPG
break,html.Screen,4_117_1,2023-11-06T15:26:19.321Z,,0,,,NaN,,,,,,false,,,,531905,531904.3999999762,,531904,,531913.926,8,400,,,
break_continue,html.Screen,4_117_2,2023-11-06T15:26:19.322Z,,0,,,NaN,,,,,,false,,,,531905.5,531905.2999999523,,531905.1999999285,,531913.926,8,400,,,
sequence,flow.Sequence,4_117,2023-11-06T15:26:19.322Z,,0,,,2809.8399999523535,completion,,,,,false,,,,531905.5999999046,531905.2999999523,529078.79,529082,529095.46,531913.926,8,400,,,
trial,html.Screen,4_118_0,2023-11-06T15:26:22.429Z,,0,3,,3098.9739999761805,response,ISIC_0029998.JPG,7,ISIC_0027669.JPG,ISIC_0027669.JPG,false,0,keypress(z),500,535013.1999999285,535012.8999999762,531897.557,531905.7999999523,531913.926,535015.913,8,400,19,,ISIC_0029998.JPG
break,html.Screen,4_118_1,2023-11-06T15:26:22.431Z,,0,,,NaN,,,,,,false,,,,535014.3999999762,535013.8999999762,,535013.2999999523,,535015.913,8,400,,,
break_continue,html.Screen,4_118_2,2023-11-06T15:26:22.431Z,,0,,,NaN,,,,,,false,,,,535014.7999999523,535014.6999999285,,535014.5999999046,,535015.913,8,400,,,
sequence,flow.Sequence,4_118,2023-11-06T15:26:22.431Z,,0,,,3100.773999928497,completion,,,,,false,,,,535015,535014.6999999285,531897.557,531905.5999999046,531913.926,535015.913,8,400,,,
trial,html.Screen,4_119_0,2023-11-06T15:26:25.682Z,,0,3,,3249.886999952374,response,ISIC_0028916.JPG,15,ISIC_5410481.JPG,ISIC_0028916.JPG,false,1,keypress(m),500,538266.0999999046,538265.7999999523,534999.585,535015.0999999046,535015.913,538286.242,8,400,20,,ISIC_5410481.JPG
break,html.Screen,4_119_1,2023-11-06T15:26:25.684Z,,0,,,NaN,,,,,,false,,,,538267.3999999762,538267,,538266.2999999523,,538286.242,8,400,,,
break_continue,html.Screen,4_119_2,2023-11-06T15:26:25.684Z,,0,,,NaN,,,,,,false,,,,538267.7999999523,538267.6999999285,,538267.5,,538286.242,8,400,,,
sequence,flow.Sequence,4_119,2023-11-06T15:26:25.684Z,,0,,,3251.786999928532,completion,,,,,false,,,,538268,538267.6999999285,534999.585,535015.0999999046,535015.913,538286.242,8,400,,,
trial,html.Screen,4_120_0,2023-11-06T15:26:29.112Z,,0,3,,3409.457999928505,response,ISIC_1927858.JPG,9,ISIC_0007760.JPG,ISIC_0007760.JPG,false,0,keypress(z),500,541696.0999999046,541695.6999999285,538251.839,538268.1999999285,538286.242,541703.808,8,400,21,,ISIC_1927858.JPG
break,html.Screen,4_120_1,2023-11-06T15:26:29.114Z,,0,,,NaN,,,,,,false,,,,541697.5,541697.1999999285,,541696.3999999762,,541703.808,8,400,,,
break_continue,html.Screen,4_120_2,2023-11-06T15:26:29.114Z,,0,,,NaN,,,,,,false,,,,541697.7999999523,541697.6999999285,,541697.5999999046,,541703.808,8,400,,,
sequence,flow.Sequence,4_120,2023-11-06T15:26:29.114Z,,0,,,3411.457999928505,completion,,,,,false,,,,541697.8999999762,541697.6999999285,538251.839,538268.1999999285,538286.242,541703.808,8,400,,,
trial,html.Screen,4_121_0,2023-11-06T15:26:32.751Z,,0,3,,3630.2919999046717,response,ISIC_1957685.JPG,22,ISIC_0046706.JPG,ISIC_0046706.JPG,false,0,keypress(z),500,545334.3999999762,545334.0999999046,541687.16,541698.1999999285,541703.808,545339.633,8,400,22,,ISIC_1957685.JPG
break,html.Screen,4_121_1,2023-11-06T15:26:32.752Z,,0,,,NaN,,,,,,false,,,,545335.6999999285,545335,,545334.5999999046,,545339.633,8,400,,,
break_continue,html.Screen,4_121_2,2023-11-06T15:26:32.752Z,,0,,,NaN,,,,,,false,,,,545336.0999999046,545336,,545335.8999999762,,545339.633,8,400,,,
sequence,flow.Sequence,4_121,2023-11-06T15:26:32.753Z,,0,,,3632.192000000039,completion,,,,,false,,,,545336.2999999523,545336,541687.16,541698.0999999046,541703.808,545339.633,8,400,,,
trial,html.Screen,4_122_0,2023-11-06T15:26:35.668Z,,0,3,,2911.2669999761274,response,ISIC_0476606.JPG,9,ISIC_9351418.JPG,ISIC_9351418.JPG,false,0,keypress(z),500,548251.2999999523,548250.8999999762,545323.061,545336.3999999762,545339.633,548275.014,8,400,23,,ISIC_0476606.JPG
break,html.Screen,4_122_1,2023-11-06T15:26:35.669Z,,0,,,NaN,,,,,,false,,,,548252.2999999523,548252.0999999046,,548251.5999999046,,548275.014,8,400,,,
break_continue,html.Screen,4_122_2,2023-11-06T15:26:35.669Z,,0,,,NaN,,,,,,false,,,,548253.0999999046,548252.6999999285,,548252.5,,548275.014,8,400,,,
sequence,flow.Sequence,4_122,2023-11-06T15:26:35.670Z,,0,,,2913.0669999284437,completion,,,,,false,,,,548253.2999999523,548252.6999999285,545323.061,545336.3999999762,545339.633,548275.014,8,400,,,
trial,html.Screen,4_123_0,2023-11-06T15:26:38.632Z,,0,3,,2940.185999928508,response,ISIC_6916924.JPG,6,ISIC_0072101.JPG,ISIC_0072101.JPG,false,0,keypress(z),500,551215.5999999046,551215.1999999285,548258.694,548253.5,548275.014,551227.136,8,400,24,,ISIC_6916924.JPG
break,html.Screen,4_123_1,2023-11-06T15:26:38.633Z,,0,,,NaN,,,,,,false,,,,551216.6999999285,551216.2999999523,,551215.7999999523,,551227.136,8,400,,,
break_continue,html.Screen,4_123_2,2023-11-06T15:26:38.634Z,,0,,,NaN,,,,,,false,,,,551217.3999999762,551217.1999999285,,551217.0999999046,,551227.136,8,400,,,
sequence,flow.Sequence,4_123,2023-11-06T15:26:38.634Z,,0,,,2942.185999928508,completion,,,,,false,,,,551217.7999999523,551217.1999999285,548258.694,548253.3999999762,548275.014,551227.136,8,400,,,
trial,html.Screen,4_124_0,2023-11-06T15:26:42.190Z,,0,3,,3546.4639999045758,response,ISIC_0046361.JPG,8,ISIC_2245069.JPG,ISIC_0046361.JPG,false,1,keypress(m),500,554774,554773.5999999046,551210.666,551218,551227.136,554779.444,8,400,25,,ISIC_2245069.JPG
break,html.Screen,4_124_1,2023-11-06T15:26:42.192Z,,0,,,NaN,,,,,,false,,,,554775.2999999523,554774.8999999762,,554774.1999999285,,554779.444,8,400,,,
break_continue,html.Screen,4_124_2,2023-11-06T15:26:42.192Z,,0,,,NaN,,,,,,false,,,,554775.8999999762,554775.5999999046,,554775.5,,554779.444,8,400,,,
sequence,flow.Sequence,4_124,2023-11-06T15:26:42.193Z,,0,,,3548.4639999045758,completion,,,,,false,,,,554776.2999999523,554775.5999999046,551210.666,551217.8999999762,551227.136,554779.444,8,400,,,
trial,html.Screen,4_125_0,2023-11-06T15:26:45.188Z,,0,3,,2991.9559999761404,response,ISIC_0030002.JPG,26,ISIC_0645834.JPG,ISIC_0030002.JPG,false,1,keypress(m),500,557771.5999999046,557771.3999999762,554763.115,554776.5,554779.444,557781.459,8,400,26,,ISIC_0645834.JPG
