sender,sender_type,sender_id,timestamp,meta,,blockNo,condition,duration,ended_on,img_left,img_reveal,img_right,loser,practice,response,response_action,selection_duration,time_commit,time_end,time_render,time_run,time_show,time_switch,total_blocks,total_trials,trialNo,url,winner
informed_consent,html.Screen,0,2023-09-08T20:42:35.484Z,"{""labjs_version"":""20.2.4"",""labjs_build"":{""flavor"":""production"",""commit"":""f5b4a49f956347addd546a832a3327688c2c0fef""},""location"":""https://run.pavlovia.org/MurrayBennett/melanoma-2afc/?participant=60c382725a7a55abef2e8e99&STUDY_ID=64f8c92207ba404bcb356c90&SESSION_ID=64fb8718de752bf0ebf947af&platform=prolific"",""userAgent"":""Mozilla/5.0 (Macintosh; Intel Mac OS X 10_15_7) AppleWebKit/537.36 (KHTML, like Gecko) Chrome/116.0.0.0 Safari/537.36"",""platform"":""MacIntel"",""language"":""en-US"",""locale"":""en-US"",""timeZone"":""America/New_York"",""timezoneOffset"":240,""screen_width"":1440,""screen_height"":900,""scroll_width"":1298,""scroll_height"":657,""window_innerWidth"":1298,""window_innerHeight"":705,""devicePixelRatio"":1}",,,,4331.848000023841,response,,,,,,consent,click button,,13830.199999928474,13827.600000023842,9479.041,4295,9495.752,13857.323,,,,"{""participant"":""60c382725a7a55abef2e8e99"",""STUDY_ID"":""64f8c92207ba404bcb356c90"",""SESSION_ID"":""64fb8718de752bf0ebf947af"",""platform"":""prolific""}",
Welcome,html.Screen,1,2023-09-08T20:43:03.778Z,,,,asymmetry,28263.976999952316,response,,,,,,continue,click button,,42123.299999952316,42121.299999952316,13823.901,13830.5,13857.323,42132.804,,,,,
trial,html.Screen,2_0_0,2023-09-08T20:43:07.893Z,,0,0,,4105.196000000004,response,ISIC_6997061.JPG,,ISIC_0069348.JPG,ISIC_6997061.JPG,true,1,keypress(m),500,46238.39999997616,46238,42116.093,42123.60000002384,42132.804,46243.71,1,6,1,,ISIC_0069348.JPG
sequence,flow.Sequence,2_0,2023-09-08T20:43:07.893Z,,0,,,4105.196000000004,completion,,,,,true,,,,46239.10000002384,46238,42116.093,42123.5,42132.804,46243.71,1,6,,,
trial,html.Screen,2_1_0,2023-09-08T20:43:10.900Z,,0,0,,3001.089999952317,response,ISIC_0057368.JPG,,ISIC_0009529.JPG,ISIC_0009529.JPG,true,0,keypress(z),500,49245.10000002384,49244.799999952316,46226.999,46239.299999952316,46243.71,49251.831,1,6,2,,ISIC_0057368.JPG
sequence,flow.Sequence,2_1,2023-09-08T20:43:10.900Z,,0,,,3001.089999952317,completion,,,,,true,,,,49245.5,49244.799999952316,46226.999,46239.199999928474,46243.71,49251.831,1,6,,,
trial,html.Screen,2_2_0,2023-09-08T20:43:15.379Z,,0,0,,4472.468999952318,response,ISIC_9758671.JPG,,ISIC_0064954.JPG,ISIC_0064954.JPG,true,0,keypress(z),500,53724.5,53724.299999952316,49235.12,49245.699999928474,49251.831,53730.379,1,6,3,,ISIC_9758671.JPG
sequence,flow.Sequence,2_2,2023-09-08T20:43:15.380Z,,0,,,4472.468999952318,completion,,,,,true,,,,53725,53724.299999952316,49235.12,49245.699999928474,49251.831,53730.379,1,6,,,
trial,html.Screen,2_3_0,2023-09-08T20:43:19.158Z,,0,0,,3772.620999999999,response,ISIC_0005785.JPG,,ISIC_0000080.JPG,ISIC_0000080.JPG,true,0,keypress(z),500,57503.299999952316,57503,53713.668,53725.299999952316,53730.379,57507.065,1,6,4,,ISIC_0005785.JPG
sequence,flow.Sequence,2_3,2023-09-08T20:43:19.158Z,,0,,,3772.620999999999,completion,,,,,true,,,,57503.699999928474,57503,53713.668,53725.10000002384,53730.379,57507.065,1,6,,,
trial,html.Screen,2_4_0,2023-09-08T20:43:22.187Z,,0,0,,3024.9349999999977,response,ISIC_7944028.JPG,,ISIC_5390060.JPG,ISIC_7944028.JPG,true,1,keypress(m),500,60532.199999928474,60532,57490.354,57503.89999997616,57507.065,60548.772,1,6,5,,ISIC_5390060.JPG
sequence,flow.Sequence,2_4,2023-09-08T20:43:22.187Z,,0,,,3024.9349999999977,completion,,,,,true,,,,60532.5,60532,57490.354,57503.799999952316,57507.065,60548.772,1,6,,,
trial,html.Screen,2_5_0,2023-09-08T20:43:25.010Z,,0,0,,2806.3280000238447,response,ISIC_0794216.JPG,,ISIC_0010188.JPG,ISIC_0794216.JPG,true,1,keypress(m),500,63355.39999997616,63355.10000002384,60532.061,60532.799999952316,60548.772,63372.931,1,6,6,,ISIC_0010188.JPG
sequence,flow.Sequence,2_5,2023-09-08T20:43:25.011Z,,0,,,2806.3280000238447,completion,,,,,true,,,,63355.799999952316,63355.10000002384,60532.061,60532.699999928474,60548.772,63372.931,1,6,,,
loop,flow.Loop,2,2023-09-08T20:43:25.011Z,,,,,21222.296000023845,completion,,,,,true,,,,63356.199999928474,63355.10000002384,42116.093,42123.5,42132.804,63372.931,1,6,,,
exp_instructions,html.Screen,3,2023-09-08T20:47:56.514Z,,,,,271471.66900002386,response,,,,,,continue,keypress(Space),,334850.60000002384,334844.60000002384,63356.22,63356.199999928474,63372.931,334864.491,,,,,
trial,html.Screen,4_0_0,2023-09-08T20:47:59.908Z,,0,1,,3379.8089999523363,response,ISIC_9754098.JPG,9,ISIC_0011947.JPG,ISIC_0011947.JPG,false,0,keypress(z),500,338244.60000002384,338244.2999999523,334847.78,334851.2999999523,334864.491,338257.011,8,400,1,,ISIC_9754098.JPG
break,html.Screen,4_0_1,2023-09-08T20:47:59.909Z,,0,,,NaN,,,,,,false,,,,338245.6999999285,338245.39999997616,,338244.7999999523,,338257.011,8,400,,,
break_continue,html.Screen,4_0_2,2023-09-08T20:47:59.909Z,,0,,,NaN,,,,,,false,,,,338246.2999999523,338246.10000002384,,338245.89999997616,,338257.011,8,400,,,
sequence,flow.Sequence,4_0,2023-09-08T20:47:59.910Z,,0,,,3381.609000023862,completion,,,,,false,,,,338246.5,338246.10000002384,334847.78,334851.1999999285,334864.491,338257.011,8,400,,,
trial,html.Screen,4_1_0,2023-09-08T20:48:02.619Z,,0,1,,2698.2889999523177,response,ISIC_9382494.JPG,6,ISIC_8357415.JPG,ISIC_8357415.JPG,false,0,keypress(z),500,340955.60000002384,340955.2999999523,338240.3,338246.6999999285,338257.011,340964.193,8,400,2,,ISIC_9382494.JPG
break,html.Screen,4_1_1,2023-09-08T20:48:02.620Z,,0,,,NaN,,,,,,false,,,,340956.2999999523,340956.1999999285,,340955.7999999523,,340964.193,8,400,,,
break_continue,html.Screen,4_1_2,2023-09-08T20:48:02.620Z,,0,,,NaN,,,,,,false,,,,340956.7999999523,340956.6999999285,,340956.5,,340964.193,8,400,,,
sequence,flow.Sequence,4_1,2023-09-08T20:48:02.620Z,,0,,,2699.688999928476,completion,,,,,false,,,,340957.10000002384,340956.6999999285,338240.3,338246.6999999285,338257.011,340964.193,8,400,,,
trial,html.Screen,4_2_0,2023-09-08T20:48:05.709Z,,0,1,,3080.9070000238135,response,ISIC_0069189.JPG,7,ISIC_0443835.JPG,ISIC_0443835.JPG,false,0,keypress(z),500,344045.39999997616,344045.10000002384,340947.482,340957.1999999285,340964.193,344055.728,8,400,3,,ISIC_0069189.JPG
break,html.Screen,4_2_1,2023-09-08T20:48:05.709Z,,0,,,NaN,,,,,,false,,,,344046.1999999285,344046,,344045.60000002384,,344055.728,8,400,,,
break_continue,html.Screen,4_2_2,2023-09-08T20:48:05.710Z,,0,,,NaN,,,,,,false,,,,344046.60000002384,344046.39999997616,,344046.2999999523,,344055.728,8,400,,,
sequence,flow.Sequence,4_2,2023-09-08T20:48:05.710Z,,0,,,3082.2069999761297,completion,,,,,false,,,,344046.7999999523,344046.39999997616,340947.482,340957.1999999285,340964.193,344055.728,8,400,,,
trial,html.Screen,4_3_0,2023-09-08T20:48:09.441Z,,0,1,,3721.872000023839,response,ISIC_0060679.JPG,7,ISIC_0029909.JPG,ISIC_0060679.JPG,false,1,keypress(m),500,347777.6999999285,347777.60000002384,344039.017,344047,344055.728,347782.54,8,400,4,,ISIC_0029909.JPG
break,html.Screen,4_3_1,2023-09-08T20:48:09.442Z,,0,,,NaN,,,,,,false,,,,347778.1999999285,347778.10000002384,,347777.89999997616,,347782.54,8,400,,,
break_continue,html.Screen,4_3_2,2023-09-08T20:48:09.442Z,,0,,,NaN,,,,,,false,,,,347778.5,347778.39999997616,,347778.39999997616,,347782.54,8,400,,,
sequence,flow.Sequence,4_3,2023-09-08T20:48:09.442Z,,0,,,3722.6719999761553,completion,,,,,false,,,,347778.6999999285,347778.39999997616,344039.017,344046.89999997616,344055.728,347782.54,8,400,,,
trial,html.Screen,4_4_0,2023-09-08T20:48:12.564Z,,0,1,,3117.960000000021,response,ISIC_0010442.JPG,6,ISIC_0015938.JPG,ISIC_0010442.JPG,false,1,keypress(m),500,350900.7999999523,350900.5,347765.829,347778.7999999523,347782.54,350924.208,8,400,5,,ISIC_0015938.JPG
break,html.Screen,4_4_1,2023-09-08T20:48:12.565Z,,0,,,NaN,,,,,,false,,,,350901.60000002384,350901.39999997616,,350901,,350924.208,8,400,,,
break_continue,html.Screen,4_4_2,2023-09-08T20:48:12.566Z,,0,,,NaN,,,,,,false,,,,350902.10000002384,350901.89999997616,,350901.6999999285,,350924.208,8,400,,,
sequence,flow.Sequence,4_4,2023-09-08T20:48:12.566Z,,0,,,3119.359999976179,completion,,,,,false,,,,350902.2999999523,350901.89999997616,347765.829,347778.6999999285,347782.54,350924.208,8,400,,,
trial,html.Screen,4_5_0,2023-09-08T20:48:15.529Z,,0,1,,2941.3920000238577,response,ISIC_9066201.JPG,8,ISIC_0014629.JPG,ISIC_9066201.JPG,false,1,keypress(m),500,353865.7999999523,353865.60000002384,350907.497,350902.39999997616,350924.208,353882.055,8,400,6,,ISIC_0014629.JPG
break,html.Screen,4_5_1,2023-09-08T20:48:15.530Z,,0,,,NaN,,,,,,false,,,,353866.60000002384,353866.39999997616,,353866,,353882.055,8,400,,,
break_continue,html.Screen,4_5_2,2023-09-08T20:48:15.531Z,,0,,,NaN,,,,,,false,,,,353867,353866.89999997616,,353866.7999999523,,353882.055,8,400,,,
sequence,flow.Sequence,4_5,2023-09-08T20:48:15.531Z,,0,,,2942.691999976174,completion,,,,,false,,,,353867.39999997616,353866.89999997616,350907.497,350902.39999997616,350924.208,353882.055,8,400,,,
trial,html.Screen,4_6_0,2023-09-08T20:48:18.741Z,,0,1,,3193.445000000007,response,ISIC_0056983.JPG,6,ISIC_0069189.JPG,ISIC_0056983.JPG,false,1,keypress(m),500,357075.6999999285,357075.5,353865.344,353867.60000002384,353882.055,357090.712,8,400,7,,ISIC_0069189.JPG
break,html.Screen,4_6_1,2023-09-08T20:48:18.742Z,,0,,,NaN,,,,,,false,,,,357076.60000002384,357076.2999999523,,357076,,357090.712,8,400,,,
break_continue,html.Screen,4_6_2,2023-09-08T20:48:18.742Z,,0,,,NaN,,,,,,false,,,,357077,357076.89999997616,,357076.6999999285,,357090.712,8,400,,,
sequence,flow.Sequence,4_6,2023-09-08T20:48:18.742Z,,0,,,3194.844999976165,completion,,,,,false,,,,357077.1999999285,357076.89999997616,353865.344,353867.5,353882.055,357090.712,8,400,,,
trial,html.Screen,4_7_0,2023-09-08T20:48:21.945Z,,0,1,,3186.0879999523167,response,ISIC_3994250.JPG,8,ISIC_0032903.JPG,ISIC_3994250.JPG,false,1,keypress(m),500,360277,360276.7999999523,357074.001,357077.5,357090.712,360282.513,8,400,8,,ISIC_0032903.JPG
break,html.Screen,4_7_1,2023-09-08T20:48:21.946Z,,0,,,NaN,,,,,,false,,,,360277.7999999523,360277.60000002384,,360277.1999999285,,360282.513,8,400,,,
break_continue,html.Screen,4_7_2,2023-09-08T20:48:21.946Z,,0,,,NaN,,,,,,false,,,,360278.2999999523,360278.1999999285,,360278,,360282.513,8,400,,,
sequence,flow.Sequence,4_7,2023-09-08T20:48:21.946Z,,0,,,3187.487999928475,completion,,,,,false,,,,360278.5,360278.1999999285,357074.001,357077.39999997616,357090.712,360282.513,8,400,,,
trial,html.Screen,4_8_0,2023-09-08T20:48:26.314Z,,0,1,,4360.686999928497,response,ISIC_0013059.JPG,10,ISIC_0055887.JPG,ISIC_0013059.JPG,false,1,keypress(m),500,364643.5,364643.1999999285,360265.802,360278.6999999285,360282.513,364660.795,8,400,9,,ISIC_0055887.JPG
break,html.Screen,4_8_1,2023-09-08T20:48:26.315Z,,0,,,NaN,,,,,,false,,,,364644.39999997616,364644.10000002384,,364643.7999999523,,364660.795,8,400,,,
break_continue,html.Screen,4_8_2,2023-09-08T20:48:26.315Z,,0,,,NaN,,,,,,false,,,,364644.89999997616,364644.7999999523,,364644.60000002384,,364660.795,8,400,,,
sequence,flow.Sequence,4_8,2023-09-08T20:48:26.316Z,,0,,,4362.286999952339,completion,,,,,false,,,,364645.1999999285,364644.7999999523,360265.802,360278.6999999285,360282.513,364660.795,8,400,,,
trial,html.Screen,4_9_0,2023-09-08T20:48:29.299Z,,0,1,,2965.4049999284907,response,ISIC_0014288.JPG,8,ISIC_0032624.JPG,ISIC_0014288.JPG,false,1,keypress(m),500,367626.5,367626.1999999285,364644.084,364645.39999997616,364660.795,367635.603,8,400,10,,ISIC_0032624.JPG
break,html.Screen,4_9_1,2023-09-08T20:48:29.299Z,,0,,,NaN,,,,,,false,,,,367627.2999999523,367627.10000002384,,367626.6999999285,,367635.603,8,400,,,
break_continue,html.Screen,4_9_2,2023-09-08T20:48:29.300Z,,0,,,NaN,,,,,,false,,,,367627.7999999523,367627.6999999285,,367627.39999997616,,367635.603,8,400,,,
sequence,flow.Sequence,4_9,2023-09-08T20:48:29.301Z,,0,,,2966.9049999284907,completion,,,,,false,,,,367629.1999999285,367627.6999999285,364644.084,364645.2999999523,364660.795,367635.603,8,400,,,
trial,html.Screen,4_10_0,2023-09-08T20:48:33.165Z,,0,1,,3855.396999999997,response,ISIC_3460125.JPG,9,ISIC_2421696.JPG,ISIC_2421696.JPG,false,0,keypress(z),500,371491.1999999285,371491,367618.892,367629.39999997616,367635.603,371495.844,8,400,11,,ISIC_3460125.JPG
break,html.Screen,4_10_1,2023-09-08T20:48:33.166Z,,0,,,NaN,,,,,,false,,,,371492,371491.89999997616,,371491.5,,371495.844,8,400,,,
break_continue,html.Screen,4_10_2,2023-09-08T20:48:33.166Z,,0,,,NaN,,,,,,false,,,,371492.5,371492.39999997616,,371492.1999999285,,371495.844,8,400,,,
sequence,flow.Sequence,4_10,2023-09-08T20:48:33.166Z,,0,,,3856.7969999761553,completion,,,,,false,,,,371492.6999999285,371492.39999997616,367618.892,367629.39999997616,367635.603,371495.844,8,400,,,
trial,html.Screen,4_11_0,2023-09-08T20:48:36.658Z,,0,1,,3486.756000023859,response,ISIC_2616327.JPG,5,ISIC_7025208.JPG,ISIC_7025208.JPG,false,0,keypress(z),500,374982.7999999523,374982.60000002384,371479.133,371492.89999997616,371495.844,374988.443,8,400,12,,ISIC_2616327.JPG
break,html.Screen,4_11_1,2023-09-08T20:48:36.658Z,,0,,,NaN,,,,,,false,,,,374983.39999997616,374983.2999999523,,374983.10000002384,,374988.443,8,400,,,
break_continue,html.Screen,4_11_2,2023-09-08T20:48:36.659Z,,0,,,NaN,,,,,,false,,,,374983.7999999523,374983.6999999285,,374983.60000002384,,374988.443,8,400,,,
sequence,flow.Sequence,4_11,2023-09-08T20:48:36.659Z,,0,,,3487.8559999284917,completion,,,,,false,,,,374983.89999997616,374983.6999999285,371479.133,371492.89999997616,371495.844,374988.443,8,400,,,
trial,html.Screen,4_12_0,2023-09-08T20:48:40.744Z,,0,1,,4078.856999952288,response,ISIC_3230874.JPG,8,ISIC_4789784.JPG,ISIC_4789784.JPG,false,0,keypress(z),500,379067.60000002384,379067.2999999523,374971.732,374984.10000002384,374988.443,379082.833,8,400,13,,ISIC_3230874.JPG
break,html.Screen,4_12_1,2023-09-08T20:48:40.744Z,,0,,,NaN,,,,,,false,,,,379068.39999997616,379068.1999999285,,379067.6999999285,,379082.833,8,400,,,
break_continue,html.Screen,4_12_2,2023-09-08T20:48:40.745Z,,0,,,NaN,,,,,,false,,,,379069,379068.7999999523,,379068.39999997616,,379082.833,8,400,,,
sequence,flow.Sequence,4_12,2023-09-08T20:48:40.745Z,,0,,,4080.356999952288,completion,,,,,false,,,,379069.2999999523,379068.7999999523,374971.732,374984,374988.443,379082.833,8,400,,,
trial,html.Screen,4_13_0,2023-09-08T20:48:44.910Z,,0,1,,4149.767000023858,response,ISIC_0058138.JPG,8,ISIC_0062364.JPG,ISIC_0062364.JPG,false,0,keypress(z),500,383232.7999999523,383232.60000002384,379066.122,379069.39999997616,379082.833,383243.872,8,400,14,,ISIC_0058138.JPG
break,html.Screen,4_13_1,2023-09-08T20:48:44.911Z,,0,,,NaN,,,,,,false,,,,383233.7999999523,383233.5,,383233.1999999285,,383243.872,8,400,,,
break_continue,html.Screen,4_13_2,2023-09-08T20:48:44.911Z,,0,,,NaN,,,,,,false,,,,383234.10000002384,383234,,383233.89999997616,,383243.872,8,400,,,
sequence,flow.Sequence,4_13,2023-09-08T20:48:44.911Z,,0,,,4151.167000000016,completion,,,,,false,,,,383234.39999997616,383234,379066.122,379069.2999999523,379082.833,383243.872,8,400,,,
trial,html.Screen,4_14_0,2023-09-08T20:48:48.473Z,,0,1,,3551.3279999285005,response,ISIC_8298434.JPG,7,ISIC_0011364.JPG,ISIC_8298434.JPG,false,1,keypress(m),500,386795.5,386795.1999999285,383227.161,383234.5,383243.872,386803.506,8,400,15,,ISIC_0011364.JPG
break,html.Screen,4_14_1,2023-09-08T20:48:48.474Z,,0,,,NaN,,,,,,false,,,,386796.1999999285,386796.10000002384,,386795.6999999285,,386803.506,8,400,,,
break_continue,html.Screen,4_14_2,2023-09-08T20:48:48.474Z,,0,,,NaN,,,,,,false,,,,386796.6999999285,386796.60000002384,,386796.5,,386803.506,8,400,,,
sequence,flow.Sequence,4_14,2023-09-08T20:48:48.475Z,,0,,,3552.728000023868,completion,,,,,false,,,,386797,386796.60000002384,383227.161,383234.39999997616,383243.872,386803.506,8,400,,,
trial,html.Screen,4_15_0,2023-09-08T20:48:51.532Z,,0,1,,3050.594000023848,response,ISIC_0063053.JPG,8,ISIC_4097868.JPG,ISIC_4097868.JPG,false,0,keypress(z),500,389854.39999997616,389854.10000002384,386786.795,386797.10000002384,386803.506,389861.619,8,400,16,,ISIC_0063053.JPG
break,html.Screen,4_15_1,2023-09-08T20:48:51.533Z,,0,,,NaN,,,,,,false,,,,389855.10000002384,389855,,389854.60000002384,,389861.619,8,400,,,
break_continue,html.Screen,4_15_2,2023-09-08T20:48:51.534Z,,0,,,NaN,,,,,,false,,,,389855.60000002384,389855.39999997616,,389855.39999997616,,389861.619,8,400,,,
sequence,flow.Sequence,4_15,2023-09-08T20:48:51.534Z,,0,,,3051.893999976164,completion,,,,,false,,,,389855.89999997616,389855.39999997616,386786.795,386797,386803.506,389861.619,8,400,,,
trial,html.Screen,4_16_0,2023-09-08T20:48:54.226Z,,0,1,,2685.5809999284684,response,ISIC_0028906.JPG,6,ISIC_9462979.JPG,ISIC_9462979.JPG,false,0,keypress(z),500,392547.39999997616,392547.1999999285,389844.908,389856.10000002384,389861.619,392552.09,8,400,17,,ISIC_0028906.JPG
break,html.Screen,4_16_1,2023-09-08T20:48:54.226Z,,0,,,NaN,,,,,,false,,,,392547.89999997616,392547.7999999523,,392547.5,,392552.09,8,400,,,
break_continue,html.Screen,4_16_2,2023-09-08T20:48:54.227Z,,0,,,NaN,,,,,,false,,,,392548.1999999285,392548.10000002384,,392548,,392552.09,8,400,,,
sequence,flow.Sequence,4_16,2023-09-08T20:48:54.227Z,,0,,,2686.481000023836,completion,,,,,false,,,,392548.2999999523,392548.10000002384,389844.908,389856,389861.619,392552.09,8,400,,,
trial,html.Screen,4_17_0,2023-09-08T20:48:57.131Z,,0,1,,2899.7099999522907,response,ISIC_2514994.JPG,9,ISIC_1216698.JPG,ISIC_2514994.JPG,false,1,keypress(m),500,395452.10000002384,395451.7999999523,392535.379,392548.5,392552.09,395459.804,8,400,18,,ISIC_1216698.JPG
break,html.Screen,4_17_1,2023-09-08T20:48:57.132Z,,0,,,NaN,,,,,,false,,,,395452.89999997616,395452.6999999285,,395452.39999997616,,395459.804,8,400,,,
break_continue,html.Screen,4_17_2,2023-09-08T20:48:57.132Z,,0,,,NaN,,,,,,false,,,,395453.39999997616,395453.2999999523,,395453.10000002384,,395459.804,8,400,,,
sequence,flow.Sequence,4_17,2023-09-08T20:48:57.132Z,,0,,,2901.2099999522907,completion,,,,,false,,,,395453.60000002384,395453.2999999523,392535.379,392548.39999997616,392552.09,395459.804,8,400,,,
trial,html.Screen,4_18_0,2023-09-08T20:49:00.031Z,,0,1,,2891.4959999523126,response,ISIC_9160614.JPG,9,ISIC_8626909.JPG,ISIC_9160614.JPG,false,1,keypress(m),500,398351.60000002384,398351.2999999523,395443.093,395453.7999999523,395459.804,398367.688,8,400,19,,ISIC_8626909.JPG
break,html.Screen,4_18_1,2023-09-08T20:49:00.031Z,,0,,,NaN,,,,,,false,,,,398352.39999997616,398352.1999999285,,398351.7999999523,,398367.688,8,400,,,
break_continue,html.Screen,4_18_2,2023-09-08T20:49:00.032Z,,0,,,NaN,,,,,,false,,,,398352.7999999523,398352.6999999285,,398352.5,,398367.688,8,400,,,
sequence,flow.Sequence,4_18,2023-09-08T20:49:00.032Z,,0,,,2892.8959999284707,completion,,,,,false,,,,398353,398352.6999999285,395443.093,395453.6999999285,395459.804,398367.688,8,400,,,
trial,html.Screen,4_19_0,2023-09-08T20:49:02.835Z,,0,1,,2787.5119999284507,response,ISIC_1860707.JPG,5,ISIC_0027187.JPG,ISIC_1860707.JPG,false,1,keypress(m),500,401155.39999997616,401155.1999999285,398350.977,398353.2999999523,398367.688,401158.425,8,400,20,,ISIC_0027187.JPG
break,html.Screen,4_19_1,2023-09-08T20:49:02.835Z,,0,,,NaN,,,,,,false,,,,401156.1999999285,401155.89999997616,,401155.60000002384,,401158.425,8,400,,,
break_continue,html.Screen,4_19_2,2023-09-08T20:49:02.836Z,,0,,,NaN,,,,,,false,,,,401156.7999999523,401156.60000002384,,401156.39999997616,,401158.425,8,400,,,
sequence,flow.Sequence,4_19,2023-09-08T20:49:02.836Z,,0,,,2788.912000023818,completion,,,,,false,,,,401157,401156.60000002384,398350.977,398353.1999999285,398367.688,401158.425,8,400,,,
trial,html.Screen,4_20_0,2023-09-08T20:49:05.944Z,,0,1,,3105.774999928486,response,ISIC_5624273.JPG,5,ISIC_3509838.JPG,ISIC_3509838.JPG,false,0,keypress(z),500,404264.39999997616,404264.1999999285,401141.714,401157.10000002384,401158.425,404266.671,8,400,21,,ISIC_5624273.JPG
break,html.Screen,4_20_1,2023-09-08T20:49:05.945Z,,0,,,NaN,,,,,,false,,,,404265.10000002384,404264.89999997616,,404264.60000002384,,404266.671,8,400,,,
break_continue,html.Screen,4_20_2,2023-09-08T20:49:05.945Z,,0,,,NaN,,,,,,false,,,,404265.5,404265.39999997616,,404265.2999999523,,404266.671,8,400,,,
sequence,flow.Sequence,4_20,2023-09-08T20:49:05.945Z,,0,,,3106.97499997617,completion,,,,,false,,,,404265.60000002384,404265.39999997616,401141.714,401157,401158.425,404266.671,8,400,,,
trial,html.Screen,4_21_0,2023-09-08T20:49:08.820Z,,0,1,,2873.1289999523433,response,ISIC_3892947.JPG,7,ISIC_6806124.JPG,ISIC_6806124.JPG,false,0,keypress(z),500,407140,407139.7999999523,404249.96,404265.7999999523,404266.671,407141.04,8,400,22,,ISIC_3892947.JPG
break,html.Screen,4_21_1,2023-09-08T20:49:08.820Z,,0,,,NaN,,,,,,false,,,,407140.7999999523,407140.60000002384,,407140.1999999285,,407141.04,8,400,,,
break_continue,html.Screen,4_21_2,2023-09-08T20:49:08.821Z,,0,,,NaN,,,,,,false,,,,407141.1999999285,407141,,407140.89999997616,,407141.04,8,400,,,
sequence,flow.Sequence,4_21,2023-09-08T20:49:08.821Z,,0,,,2874.329000000027,completion,,,,,false,,,,407141.5,407141,404249.96,404265.7999999523,404266.671,407141.04,8,400,,,
trial,html.Screen,4_22_0,2023-09-08T20:49:12.889Z,,0,1,,4068.1599999284954,response,ISIC_8523143.JPG,5,ISIC_0067094.JPG,ISIC_0067094.JPG,false,0,keypress(z),500,411209.39999997616,411209.1999999285,407124.329,407141.89999997616,407141.04,411218.524,8,400,23,,ISIC_8523143.JPG
break,html.Screen,4_22_1,2023-09-08T20:49:12.890Z,,0,,,NaN,,,,,,false,,,,411210,411209.7999999523,,411209.60000002384,,411218.524,8,400,,,
break_continue,html.Screen,4_22_2,2023-09-08T20:49:12.890Z,,0,,,NaN,,,,,,false,,,,411210.2999999523,411210.2999999523,,411210.10000002384,,411218.524,8,400,,,
sequence,flow.Sequence,4_22,2023-09-08T20:49:12.890Z,,0,,,4069.2599999523372,completion,,,,,false,,,,411210.5,411210.2999999523,407124.329,407141.6999999285,407141.04,411218.524,8,400,,,
trial,html.Screen,4_23_0,2023-09-08T20:49:15.902Z,,0,1,,3003.3759999761824,response,ISIC_6877295.JPG,5,ISIC_0011039.JPG,ISIC_6877295.JPG,false,1,keypress(m),500,414222.1999999285,414221.89999997616,411201.813,411210.6999999285,411218.524,414243.215,8,400,24,,ISIC_0011039.JPG
break,html.Screen,4_23_1,2023-09-08T20:49:15.903Z,,0,,,NaN,,,,,,false,,,,414222.89999997616,414222.6999999285,,414222.2999999523,,414243.215,8,400,,,
break_continue,html.Screen,4_23_2,2023-09-08T20:49:15.903Z,,0,,,NaN,,,,,,false,,,,414223.2999999523,414223.1999999285,,414223.10000002384,,414243.215,8,400,,,
sequence,flow.Sequence,4_23,2023-09-08T20:49:15.904Z,,0,,,3004.6759999284986,completion,,,,,false,,,,414223.5,414223.1999999285,411201.813,411210.6999999285,411218.524,414243.215,8,400,,,
trial,html.Screen,4_24_0,2023-09-08T20:49:18.850Z,,0,1,,2926.3850000238162,response,ISIC_0072624.JPG,6,ISIC_0011375.JPG,ISIC_0072624.JPG,false,1,keypress(m),500,417169.89999997616,417169.60000002384,414226.504,414223.6999999285,414243.215,417184.575,8,400,25,,ISIC_0011375.JPG
break,html.Screen,4_24_1,2023-09-08T20:49:18.851Z,,0,,,NaN,,,,,,false,,,,417170.60000002384,417170.39999997616,,417170.10000002384,,417184.575,8,400,,,
break_continue,html.Screen,4_24_2,2023-09-08T20:49:18.851Z,,0,,,NaN,,,,,,false,,,,417171,417170.89999997616,,417170.6999999285,,417184.575,8,400,,,
sequence,flow.Sequence,4_24,2023-09-08T20:49:18.851Z,,0,,,2927.6849999761325,completion,,,,,false,,,,417171.1999999285,417170.89999997616,414226.504,414223.60000002384,414243.215,417184.575,8,400,,,
trial,html.Screen,4_25_0,2023-09-08T20:49:21.766Z,,0,1,,2900.9249999999884,response,ISIC_9896801.JPG,6,ISIC_0072773.JPG,ISIC_0072773.JPG,false,0,keypress(z),500,420085.7999999523,420085.5,417167.864,417171.2999999523,417184.575,420092.289,8,400,26,,ISIC_9896801.JPG
break,html.Screen,4_25_1,2023-09-08T20:49:21.767Z,,0,,,NaN,,,,,,false,,,,420086.5,420086.2999999523,,420086,,420092.289,8,400,,,
break_continue,html.Screen,4_25_2,2023-09-08T20:49:21.767Z,,0,,,NaN,,,,,,false,,,,420087,420086.89999997616,,420086.7999999523,,420092.289,8,400,,,
sequence,flow.Sequence,4_25,2023-09-08T20:49:21.768Z,,0,,,2902.3249999761465,completion,,,,,false,,,,420087.1999999285,420086.89999997616,417167.864,417171.2999999523,417184.575,420092.289,8,400,,,
trial,html.Screen,4_26_0,2023-09-08T20:49:25.226Z,,0,1,,3453.1109999761684,response,ISIC_9002603.JPG,8,ISIC_2798803.JPG,ISIC_9002603.JPG,false,1,keypress(m),500,423545.60000002384,423545.39999997616,420075.578,420087.2999999523,420092.289,423551.466,8,400,27,,ISIC_2798803.JPG
break,html.Screen,4_26_1,2023-09-08T20:49:25.227Z,,0,,,NaN,,,,,,false,,,,423546.5,423546.1999999285,,423545.89999997616,,423551.466,8,400,,,
break_continue,html.Screen,4_26_2,2023-09-08T20:49:25.227Z,,0,,,NaN,,,,,,false,,,,423546.89999997616,423546.7999999523,,423546.60000002384,,423551.466,8,400,,,
sequence,flow.Sequence,4_26,2023-09-08T20:49:25.228Z,,0,,,3454.5109999523265,completion,,,,,false,,,,423547.10000002384,423546.7999999523,420075.578,420087.2999999523,420092.289,423551.466,8,400,,,
trial,html.Screen,4_27_0,2023-09-08T20:49:28.228Z,,0,1,,2995.533999999985,response,ISIC_2406492.JPG,5,ISIC_8429798.JPG,ISIC_2406492.JPG,false,1,keypress(m),500,426547.1999999285,426547,423534.755,423547.2999999523,423551.466,426559.446,8,400,28,,ISIC_8429798.JPG
break,html.Screen,4_27_1,2023-09-08T20:49:28.229Z,,0,,,NaN,,,,,,false,,,,426548,426547.7999999523,,426547.39999997616,,426559.446,8,400,,,
break_continue,html.Screen,4_27_2,2023-09-08T20:49:28.229Z,,0,,,NaN,,,,,,false,,,,426548.39999997616,426548.2999999523,,426548.1999999285,,426559.446,8,400,,,
sequence,flow.Sequence,4_27,2023-09-08T20:49:28.229Z,,0,,,2996.8339999523014,completion,,,,,false,,,,426548.60000002384,426548.2999999523,423534.755,423547.1999999285,423551.466,426559.446,8,400,,,
trial,html.Screen,4_28_0,2023-09-08T20:49:31.910Z,,0,1,,3669.0540000000037,response,ISIC_1872823.JPG,9,ISIC_4728167.JPG,ISIC_1872823.JPG,false,1,keypress(m),500,430228.7999999523,430228.5,426542.735,426548.89999997616,426559.446,430236.123,8,400,29,,ISIC_4728167.JPG
break,html.Screen,4_28_1,2023-09-08T20:49:31.910Z,,0,,,NaN,,,,,,false,,,,430229.60000002384,430229.39999997616,,430229,,430236.123,8,400,,,
break_continue,html.Screen,4_28_2,2023-09-08T20:49:31.911Z,,0,,,NaN,,,,,,false,,,,430230,430229.89999997616,,430229.6999999285,,430236.123,8,400,,,
sequence,flow.Sequence,4_28,2023-09-08T20:49:31.911Z,,0,,,3670.453999976162,completion,,,,,false,,,,430230.1999999285,430229.89999997616,426542.735,426548.7999999523,426559.446,430236.123,8,400,,,
trial,html.Screen,4_29_0,2023-09-08T20:49:35.733Z,,0,1,,3815.176999952295,response,ISIC_0027266.JPG,8,ISIC_6808543.JPG,ISIC_6808543.JPG,false,0,keypress(z),500,434051.60000002384,434051.2999999523,430219.412,430230.39999997616,430236.123,434062.942,8,400,30,,ISIC_0027266.JPG
break,html.Screen,4_29_1,2023-09-08T20:49:35.733Z,,0,,,NaN,,,,,,false,,,,434052.2999999523,434052.1999999285,,434051.7999999523,,434062.942,8,400,,,
break_continue,html.Screen,4_29_2,2023-09-08T20:49:35.734Z,,0,,,NaN,,,,,,false,,,,434052.7999999523,434052.60000002384,,434052.60000002384,,434062.942,8,400,,,
sequence,flow.Sequence,4_29,2023-09-08T20:49:35.734Z,,0,,,3816.4770000238204,completion,,,,,false,,,,434053,434052.60000002384,430219.412,430230.39999997616,430236.123,434062.942,8,400,,,
trial,html.Screen,4_30_0,2023-09-08T20:49:39.466Z,,0,1,,3721.3579999523354,response,ISIC_0029531.JPG,6,ISIC_4107717.JPG,ISIC_4107717.JPG,false,0,keypress(z),500,437784.6999999285,437784.2999999523,434046.231,434053.1999999285,434062.942,437789.674,8,400,31,,ISIC_0029531.JPG
break,html.Screen,4_30_1,2023-09-08T20:49:39.467Z,,0,,,NaN,,,,,,false,,,,437785.6999999285,437785.2999999523,,437785,,437789.674,8,400,,,
break_continue,html.Screen,4_30_2,2023-09-08T20:49:39.467Z,,0,,,NaN,,,,,,false,,,,437786.39999997616,437786.1999999285,,437785.89999997616,,437789.674,8,400,,,
sequence,flow.Sequence,4_30,2023-09-08T20:49:39.468Z,,0,,,3723.2579999284935,completion,,,,,false,,,,437786.5,437786.1999999285,434046.231,434053.1999999285,434062.942,437789.674,8,400,,,
trial,html.Screen,4_31_0,2023-09-08T20:49:42.308Z,,0,1,,2837.0259999284754,response,ISIC_0033061.JPG,7,ISIC_9482251.JPG,ISIC_0033061.JPG,false,1,keypress(m),500,440626.89999997616,440626.6999999285,437772.963,437786.6999999285,437789.674,440630.544,8,400,32,,ISIC_9482251.JPG
break,html.Screen,4_31_1,2023-09-08T20:49:42.309Z,,0,,,NaN,,,,,,false,,,,440627.5,440627.39999997616,,440627.10000002384,,440630.544,8,400,,,
break_continue,html.Screen,4_31_2,2023-09-08T20:49:42.309Z,,0,,,NaN,,,,,,false,,,,440627.89999997616,440627.7999999523,,440627.6999999285,,440630.544,8,400,,,
sequence,flow.Sequence,4_31,2023-09-08T20:49:42.309Z,,0,,,2838.125999952317,completion,,,,,false,,,,440628.10000002384,440627.7999999523,437772.963,437786.6999999285,437789.674,440630.544,8,400,,,
trial,html.Screen,4_32_0,2023-09-08T20:49:44.938Z,,0,1,,2625.8559999761637,response,ISIC_9644813.JPG,7,ISIC_1144024.JPG,ISIC_9644813.JPG,false,1,keypress(m),500,443256.6999999285,443256.39999997616,440613.833,440628.2999999523,440630.544,443270.882,8,400,33,,ISIC_1144024.JPG
break,html.Screen,4_32_1,2023-09-08T20:49:44.939Z,,0,,,NaN,,,,,,false,,,,443257.5,443257.2999999523,,443256.89999997616,,443270.882,8,400,,,
break_continue,html.Screen,4_32_2,2023-09-08T20:49:44.939Z,,0,,,NaN,,,,,,false,,,,443257.89999997616,443257.7999999523,,443257.6999999285,,443270.882,8,400,,,
sequence,flow.Sequence,4_32,2023-09-08T20:49:44.939Z,,0,,,2627.255999952322,completion,,,,,false,,,,443258.1999999285,443257.7999999523,440613.833,440628.1999999285,440630.544,443270.882,8,400,,,
trial,html.Screen,4_33_0,2023-09-08T20:49:48.133Z,,0,1,,3180.317999928491,response,ISIC_2406492.JPG,7,ISIC_4382115.JPG,ISIC_4382115.JPG,false,0,keypress(z),500,446451.5,446451.1999999285,443254.171,443258.39999997616,443270.882,446462.683,8,400,34,,ISIC_2406492.JPG
break,html.Screen,4_33_1,2023-09-08T20:49:48.134Z,,0,,,NaN,,,,,,false,,,,446452.1999999285,446452,,446451.7999999523,,446462.683,8,400,,,
break_continue,html.Screen,4_33_2,2023-09-08T20:49:48.134Z,,0,,,NaN,,,,,,false,,,,446452.6999999285,446452.5,,446452.39999997616,,446462.683,8,400,,,
sequence,flow.Sequence,4_33,2023-09-08T20:49:48.134Z,,0,,,3181.6180000000168,completion,,,,,false,,,,446453,446452.5,443254.171,443258.2999999523,443270.882,446462.683,8,400,,,
trial,html.Screen,4_34_0,2023-09-08T20:49:51.005Z,,0,1,,2859.716999976139,response,ISIC_5449076.JPG,9,ISIC_3738751.JPG,ISIC_5449076.JPG,false,1,keypress(m),500,449323.2999999523,449322.39999997616,446445.972,446453.2999999523,446462.683,449337.159,8,400,35,,ISIC_3738751.JPG
break,html.Screen,4_34_1,2023-09-08T20:49:51.005Z,,0,,,NaN,,,,,,false,,,,449324,449323.89999997616,,449323.60000002384,,449337.159,8,400,,,
break_continue,html.Screen,4_34_2,2023-09-08T20:49:51.006Z,,0,,,NaN,,,,,,false,,,,449324.1999999285,449324.1999999285,,449324,,449337.159,8,400,,,
sequence,flow.Sequence,4_34,2023-09-08T20:49:51.006Z,,0,,,2861.5169999284553,completion,,,,,false,,,,449324.2999999523,449324.1999999285,446445.972,446453.1999999285,446462.683,449337.159,8,400,,,
trial,html.Screen,4_35_0,2023-09-08T20:49:54.050Z,,0,1,,3031.0409999284893,response,ISIC_0024516.JPG,7,ISIC_6067430.JPG,ISIC_6067430.JPG,false,0,keypress(z),500,452368.5,452368.1999999285,449320.448,449324.39999997616,449337.159,452378.561,8,400,36,,ISIC_0024516.JPG
break,html.Screen,4_35_1,2023-09-08T20:49:54.051Z,,0,,,NaN,,,,,,false,,,,452369.1999999285,452369,,452368.60000002384,,452378.561,8,400,,,
break_continue,html.Screen,4_35_2,2023-09-08T20:49:54.051Z,,0,,,NaN,,,,,,false,,,,452369.6999999285,452369.5,,452369.39999997616,,452378.561,8,400,,,
sequence,flow.Sequence,4_35,2023-09-08T20:49:54.051Z,,0,,,3032.341000000015,completion,,,,,false,,,,452369.89999997616,452369.5,449320.448,449324.39999997616,449337.159,452378.561,8,400,,,
trial,html.Screen,4_36_0,2023-09-08T20:49:56.771Z,,0,1,,2711.039000023855,response,ISIC_0031039.JPG,9,ISIC_0011094.JPG,ISIC_0031039.JPG,false,1,keypress(m),500,455089.6999999285,455089.60000002384,452361.85,452370.1999999285,452378.561,455119.165,8,400,37,,ISIC_0011094.JPG
break,html.Screen,4_36_1,2023-09-08T20:49:56.772Z,,0,,,NaN,,,,,,false,,,,455090.1999999285,455090.10000002384,,455089.7999999523,,455119.165,8,400,,,
break_continue,html.Screen,4_36_2,2023-09-08T20:49:56.772Z,,0,,,NaN,,,,,,false,,,,455090.39999997616,455090.2999999523,,455090.1999999285,,455119.165,8,400,,,
sequence,flow.Sequence,4_36,2023-09-08T20:49:56.772Z,,0,,,2711.7389999523293,completion,,,,,false,,,,455090.60000002384,455090.2999999523,452361.85,452370.10000002384,452378.561,455119.165,8,400,,,
trial,html.Screen,4_37_0,2023-09-08T20:49:59.624Z,,0,1,,2822.734999976179,response,ISIC_1568268.JPG,5,ISIC_1696845.JPG,ISIC_1568268.JPG,false,1,keypress(m),500,457942.10000002384,457941.89999997616,455102.454,455090.60000002384,455119.165,457943.324,8,400,38,,ISIC_1696845.JPG
break,html.Screen,4_37_1,2023-09-08T20:49:59.625Z,,0,,,NaN,,,,,,false,,,,457942.7999999523,457942.6999999285,,457942.2999999523,,457943.324,8,400,,,
break_continue,html.Screen,4_37_2,2023-09-08T20:49:59.625Z,,0,,,NaN,,,,,,false,,,,457943.2999999523,457943.1999999285,,457943,,457943.324,8,400,,,
sequence,flow.Sequence,4_37,2023-09-08T20:49:59.625Z,,0,,,2824.0349999284954,completion,,,,,false,,,,457943.5,457943.1999999285,455102.454,455090.60000002384,455119.165,457943.324,8,400,,,
trial,html.Screen,4_38_0,2023-09-08T20:50:02.268Z,,0,1,,2642.1759999999776,response,ISIC_4446385.JPG,7,ISIC_0065918.JPG,ISIC_4446385.JPG,false,1,keypress(m),500,460585.7999999523,460585.5,457926.613,457943.6999999285,457943.324,460600.454,8,400,39,,ISIC_0065918.JPG
break,html.Screen,4_38_1,2023-09-08T20:50:02.269Z,,0,,,NaN,,,,,,false,,,,460586.7999999523,460586.60000002384,,460586.1999999285,,460600.454,8,400,,,
break_continue,html.Screen,4_38_2,2023-09-08T20:50:02.269Z,,0,,,NaN,,,,,,false,,,,460587.2999999523,460587.10000002384,,460586.89999997616,,460600.454,8,400,,,
sequence,flow.Sequence,4_38,2023-09-08T20:50:02.269Z,,0,,,2643.7760000238195,completion,,,,,false,,,,460587.60000002384,460587.10000002384,457926.613,457943.60000002384,457943.324,460600.454,8,400,,,
trial,html.Screen,4_39_0,2023-09-08T20:50:05.202Z,,0,1,,2919.545999999973,response,ISIC_0032248.JPG,5,ISIC_7738955.JPG,ISIC_7738955.JPG,false,0,keypress(z),500,463520.1999999285,463520,460583.743,460587.7999999523,460600.454,463524.879,8,400,40,,ISIC_0032248.JPG
break,html.Screen,4_39_1,2023-09-08T20:50:05.203Z,,0,,,NaN,,,,,,false,,,,463520.89999997616,463520.6999999285,,463520.39999997616,,463524.879,8,400,,,
break_continue,html.Screen,4_39_2,2023-09-08T20:50:05.203Z,,0,,,NaN,,,,,,false,,,,463521.39999997616,463521.1999999285,,463521.10000002384,,463524.879,8,400,,,
sequence,flow.Sequence,4_39,2023-09-08T20:50:05.203Z,,0,,,2920.7459999284474,completion,,,,,false,,,,463521.5,463521.1999999285,460583.743,460587.6999999285,460600.454,463524.879,8,400,,,
trial,html.Screen,4_40_0,2023-09-08T20:50:07.896Z,,0,1,,2688.820999928459,response,ISIC_0333091.JPG,7,ISIC_0011904.JPG,ISIC_0011904.JPG,false,0,keypress(z),500,466213.7999999523,466213.6999999285,463508.168,463521.6999999285,463524.879,466215.35,8,400,41,,ISIC_0333091.JPG
break,html.Screen,4_40_1,2023-09-08T20:50:07.896Z,,0,,,NaN,,,,,,false,,,,466214.5,466214.39999997616,,466214,,466215.35,8,400,,,
break_continue,html.Screen,4_40_2,2023-09-08T20:50:07.897Z,,0,,,NaN,,,,,,false,,,,466214.7999999523,466214.6999999285,,466214.60000002384,,466215.35,8,400,,,
sequence,flow.Sequence,4_40,2023-09-08T20:50:07.897Z,,0,,,2689.820999928459,completion,,,,,false,,,,466214.89999997616,466214.6999999285,463508.168,463521.6999999285,463524.879,466215.35,8,400,,,
trial,html.Screen,4_41_0,2023-09-08T20:50:10.619Z,,0,1,,2721.4499999523396,response,ISIC_1050000.JPG,8,ISIC_7223327.JPG,ISIC_1050000.JPG,false,1,keypress(m),500,468936.89999997616,468936.7999999523,466198.639,466215,466215.35,468939.469,8,400,42,,ISIC_7223327.JPG
break,html.Screen,4_41_1,2023-09-08T20:50:10.619Z,,0,,,NaN,,,,,,false,,,,468937.39999997616,468937.2999999523,,468937.10000002384,,468939.469,8,400,,,
break_continue,html.Screen,4_41_2,2023-09-08T20:50:10.620Z,,0,,,NaN,,,,,,false,,,,468937.6999999285,468937.60000002384,,468937.5,,468939.469,8,400,,,
sequence,flow.Sequence,4_41,2023-09-08T20:50:10.620Z,,0,,,2722.250000023865,completion,,,,,false,,,,468937.7999999523,468937.60000002384,466198.639,466215,466215.35,468939.469,8,400,,,
trial,html.Screen,4_42_0,2023-09-08T20:50:13.975Z,,0,1,,3352.7309999284917,response,ISIC_0031184.JPG,8,ISIC_8169564.JPG,ISIC_0031184.JPG,false,1,keypress(m),500,472292.5,472292.1999999285,468922.758,468937.89999997616,468939.469,472298.38,8,400,43,,ISIC_8169564.JPG
break,html.Screen,4_42_1,2023-09-08T20:50:13.975Z,,0,,,NaN,,,,,,false,,,,472293.1999999285,472293,,472292.6999999285,,472298.38,8,400,,,
break_continue,html.Screen,4_42_2,2023-09-08T20:50:13.976Z,,0,,,NaN,,,,,,false,,,,472293.6999999285,472293.5,,472293.39999997616,,472298.38,8,400,,,
sequence,flow.Sequence,4_42,2023-09-08T20:50:13.976Z,,0,,,3354.0310000000172,completion,,,,,false,,,,472293.89999997616,472293.5,468922.758,468937.89999997616,468939.469,472298.38,8,400,,,
trial,html.Screen,4_43_0,2023-09-08T20:50:16.663Z,,0,1,,2682.6199999999953,response,ISIC_0033428.JPG,8,ISIC_5835765.JPG,ISIC_5835765.JPG,false,0,keypress(z),500,474981.2999999523,474981,472281.669,472294,472298.38,474988.851,8,400,44,,ISIC_0033428.JPG
break,html.Screen,4_43_1,2023-09-08T20:50:16.664Z,,0,,,NaN,,,,,,false,,,,474982,474981.7999999523,,474981.5,,474988.851,8,400,,,
break_continue,html.Screen,4_43_2,2023-09-08T20:50:16.665Z,,0,,,NaN,,,,,,false,,,,474982.5,474982.2999999523,,474982.1999999285,,474988.851,8,400,,,
sequence,flow.Sequence,4_43,2023-09-08T20:50:16.665Z,,0,,,2683.9199999523116,completion,,,,,false,,,,474982.60000002384,474982.2999999523,472281.669,472293.89999997616,472298.38,474988.851,8,400,,,
trial,html.Screen,4_44_0,2023-09-08T20:50:19.372Z,,0,1,,2700.2490000238176,response,ISIC_8384985.JPG,5,ISIC_1423737.JPG,ISIC_8384985.JPG,false,1,keypress(m),500,477689.39999997616,477689.10000002384,474972.14,474982.89999997616,474988.851,477696.033,8,400,45,,ISIC_1423737.JPG
break,html.Screen,4_44_1,2023-09-08T20:50:19.372Z,,0,,,NaN,,,,,,false,,,,477690.10000002384,477689.89999997616,,477689.60000002384,,477696.033,8,400,,,
break_continue,html.Screen,4_44_2,2023-09-08T20:50:19.373Z,,0,,,NaN,,,,,,false,,,,477690.39999997616,477690.2999999523,,477690.1999999285,,477696.033,8,400,,,
sequence,flow.Sequence,4_44,2023-09-08T20:50:19.373Z,,0,,,2701.448999952292,completion,,,,,false,,,,477690.60000002384,477690.2999999523,474972.14,474982.7999999523,474988.851,477696.033,8,400,,,
trial,html.Screen,4_45_0,2023-09-08T20:50:22.530Z,,0,1,,3151.8669999761623,response,ISIC_3564461.JPG,7,ISIC_4810500.JPG,ISIC_3564461.JPG,false,1,keypress(m),500,480848.10000002384,480847.89999997616,477679.322,477690.7999999523,477696.033,480854.658,8,400,46,,ISIC_4810500.JPG
break,html.Screen,4_45_1,2023-09-08T20:50:22.531Z,,0,,,NaN,,,,,,false,,,,480848.6999999285,480848.60000002384,,480848.2999999523,,480854.658,8,400,,,
break_continue,html.Screen,4_45_2,2023-09-08T20:50:22.531Z,,0,,,NaN,,,,,,false,,,,480849,480848.89999997616,,480848.7999999523,,480854.658,8,400,,,
sequence,flow.Sequence,4_45,2023-09-08T20:50:22.532Z,,0,,,3152.8669999761623,completion,,,,,false,,,,480849.1999999285,480848.89999997616,477679.322,477690.6999999285,477696.033,480854.658,8,400,,,
trial,html.Screen,4_46_0,2023-09-08T20:50:25.351Z,,0,1,,2813.5419999284786,response,ISIC_4847584.JPG,8,ISIC_0026115.JPG,ISIC_4847584.JPG,false,1,keypress(m),500,483668.5,483668.1999999285,480837.947,480849.1999999285,480854.658,483678.817,8,400,47,,ISIC_0026115.JPG
break,html.Screen,4_46_1,2023-09-08T20:50:25.352Z,,0,,,NaN,,,,,,false,,,,483669.1999999285,483669,,483668.6999999285,,483678.817,8,400,,,
break_continue,html.Screen,4_46_2,2023-09-08T20:50:25.352Z,,0,,,NaN,,,,,,false,,,,483669.6999999285,483669.5,,483669.39999997616,,483678.817,8,400,,,
sequence,flow.Sequence,4_46,2023-09-08T20:50:25.352Z,,0,,,2814.842000000004,completion,,,,,false,,,,483669.7999999523,483669.5,480837.947,480849.1999999285,480854.658,483678.817,8,400,,,
trial,html.Screen,4_47_0,2023-09-08T20:50:28.798Z,,0,1,,3436.4829999523354,response,ISIC_0029950.JPG,8,ISIC_0065658.JPG,ISIC_0029950.JPG,false,1,keypress(m),500,487115.5,487115.2999999523,483662.106,483670.10000002384,483678.817,487121.283,8,400,48,,ISIC_0065658.JPG
break,html.Screen,4_47_1,2023-09-08T20:50:28.799Z,,0,,,NaN,,,,,,false,,,,487116.10000002384,487116,,487115.6999999285,,487121.283,8,400,,,
break_continue,html.Screen,4_47_2,2023-09-08T20:50:28.799Z,,0,,,NaN,,,,,,false,,,,487116.60000002384,487116.5,,487116.2999999523,,487121.283,8,400,,,
sequence,flow.Sequence,4_47,2023-09-08T20:50:28.799Z,,0,,,3437.683000000019,completion,,,,,false,,,,487116.6999999285,487116.5,483662.106,483670,483678.817,487121.283,8,400,,,
trial,html.Screen,4_48_0,2023-09-08T20:50:31.762Z,,0,1,,2957.217000000004,response,ISIC_7482149.JPG,5,ISIC_0010863.JPG,ISIC_7482149.JPG,false,1,keypress(m),500,490079,490078.5,487104.572,487116.89999997616,487121.283,490096.045,8,400,49,,ISIC_0010863.JPG
break,html.Screen,4_48_1,2023-09-08T20:50:31.763Z,,0,,,NaN,,,,,,false,,,,490079.89999997616,490079.6999999285,,490079.2999999523,,490096.045,8,400,,,
break_continue,html.Screen,4_48_2,2023-09-08T20:50:31.763Z,,0,,,NaN,,,,,,false,,,,490080.5,490080.1999999285,,490080.10000002384,,490096.045,8,400,,,
sequence,flow.Sequence,4_48,2023-09-08T20:50:31.763Z,,0,,,2958.9169999284786,completion,,,,,false,,,,490080.89999997616,490080.1999999285,487104.572,487116.89999997616,487121.283,490096.045,8,400,,,
trial,html.Screen,4_49_0,2023-09-08T20:50:35.294Z,,0,1,,3514.6549999284907,response,ISIC_4654443.JPG,7,ISIC_5823292.JPG,ISIC_4654443.JPG,false,1,keypress(m),500,493611,493610.6999999285,490079.334,490081.10000002384,490096.045,493638.777,8,400,50,,ISIC_5823292.JPG
break,html.Screen,4_49_1,2023-09-08T20:50:45.301Z,,0,,,9993.245999999985,timeout,,,,,false,,,,503617.6999999285,503615.312,493622.066,493611.2999999523,493638.777,503632.023,8,400,,,
break_continue,html.Screen,4_49_2,2023-09-08T20:50:46.379Z,,0,,,1050.3769999761716,response,,,,,false,continue,keypress(Space),,504696.2999999523,504682.39999997616,503615.312,503618,503632.023,504701.527,8,400,,,
sequence,flow.Sequence,4_49,2023-09-08T20:50:46.380Z,,0,,,14586.354999976174,completion,,,,,false,,,,504696.5,504682.39999997616,490079.334,490081,490096.045,504701.527,8,400,,,
trial,html.Screen,4_50_0,2023-09-08T20:50:49.311Z,,0,2,,2925.7729999523144,response,ISIC_0024525.JPG,8,ISIC_0005239.JPG,ISIC_0005239.JPG,false,0,keypress(z),500,507627.60000002384,507627.2999999523,504684.816,504696.60000002384,504701.527,507642.663,8,400,1,,ISIC_0024525.JPG
break,html.Screen,4_50_1,2023-09-08T20:50:49.312Z,,0,,,NaN,,,,,,false,,,,507628.39999997616,507628.1999999285,,507627.89999997616,,507642.663,8,400,,,
break_continue,html.Screen,4_50_2,2023-09-08T20:50:49.312Z,,0,,,NaN,,,,,,false,,,,507628.7999999523,507628.7999999523,,507628.60000002384,,507642.663,8,400,,,
sequence,flow.Sequence,4_50,2023-09-08T20:50:49.312Z,,0,,,2927.2729999523144,completion,,,,,false,,,,507629.10000002384,507628.7999999523,504684.816,504696.5,504701.527,507642.663,8,400,,,
trial,html.Screen,4_51_0,2023-09-08T20:50:52.610Z,,0,2,,3283.8369999999995,response,ISIC_8615491.JPG,7,ISIC_6285925.JPG,ISIC_8615491.JPG,false,1,keypress(m),500,510926.7999999523,510926.5,507625.952,507629.1999999285,507642.663,510934.972,8,400,2,,ISIC_6285925.JPG
break,html.Screen,4_51_1,2023-09-08T20:50:52.611Z,,0,,,NaN,,,,,,false,,,,510927.60000002384,510927.39999997616,,510927,,510934.972,8,400,,,
break_continue,html.Screen,4_51_2,2023-09-08T20:50:52.611Z,,0,,,NaN,,,,,,false,,,,510928,510927.89999997616,,510927.6999999285,,510934.972,8,400,,,
sequence,flow.Sequence,4_51,2023-09-08T20:50:52.612Z,,0,,,3285.2369999761577,completion,,,,,false,,,,510928.1999999285,510927.89999997616,507625.952,507629.1999999285,507642.663,510934.972,8,400,,,
trial,html.Screen,4_52_0,2023-09-08T20:50:55.463Z,,0,2,,2844.128000023833,response,ISIC_3985031.JPG,6,ISIC_0026314.JPG,ISIC_3985031.JPG,false,1,keypress(m),500,513779.5,513779.10000002384,510918.261,510928.5,510934.972,513792.553,8,400,3,,ISIC_0026314.JPG
break,html.Screen,4_52_1,2023-09-08T20:50:55.464Z,,0,,,NaN,,,,,,false,,,,513780.89999997616,513780.60000002384,,513780,,513792.553,8,400,,,
break_continue,html.Screen,4_52_2,2023-09-08T20:50:55.465Z,,0,,,NaN,,,,,,false,,,,513781.39999997616,513781.1999999285,,513781,,513792.553,8,400,,,
sequence,flow.Sequence,4_52,2023-09-08T20:50:55.465Z,,0,,,2846.2279999284656,completion,,,,,false,,,,513781.6999999285,513781.1999999285,510918.261,510928.39999997616,510934.972,513792.553,8,400,,,
trial,html.Screen,4_53_0,2023-09-08T20:50:58.396Z,,0,2,,2919.64699992846,response,ISIC_7626256.JPG,8,ISIC_0068530.JPG,ISIC_0068530.JPG,false,0,keypress(z),500,516712.39999997616,516712.1999999285,513775.842,513781.7999999523,513792.553,516716.978,8,400,4,,ISIC_7626256.JPG
break,html.Screen,4_53_1,2023-09-08T20:50:58.397Z,,0,,,NaN,,,,,,false,,,,516713.5,516713.1999999285,,516712.6999999285,,516716.978,8,400,,,
break_continue,html.Screen,4_53_2,2023-09-08T20:50:58.397Z,,0,,,NaN,,,,,,false,,,,516714,516713.89999997616,,516713.6999999285,,516716.978,8,400,,,
sequence,flow.Sequence,4_53,2023-09-08T20:50:58.398Z,,0,,,2921.3469999761437,completion,,,,,false,,,,516714.2999999523,516713.89999997616,513775.842,513781.7999999523,513792.553,516716.978,8,400,,,
trial,html.Screen,4_54_0,2023-09-08T20:51:01.297Z,,0,2,,2896.521999999997,response,ISIC_8666446.JPG,7,ISIC_0029675.JPG,ISIC_8666446.JPG,false,1,keypress(m),500,519613.7999999523,519613.5,516700.267,516714.39999997616,516716.978,519624.692,8,400,5,,ISIC_0029675.JPG
break,html.Screen,4_54_1,2023-09-08T20:51:01.298Z,,0,,,NaN,,,,,,false,,,,519614.5,519614.2999999523,,519613.89999997616,,519624.692,8,400,,,
break_continue,html.Screen,4_54_2,2023-09-08T20:51:01.299Z,,0,,,NaN,,,,,,false,,,,519615,519614.89999997616,,519614.6999999285,,519624.692,8,400,,,
sequence,flow.Sequence,4_54,2023-09-08T20:51:01.299Z,,0,,,2897.9219999761553,completion,,,,,false,,,,519615.1999999285,519614.89999997616,516700.267,516714.39999997616,516716.978,519624.692,8,400,,,
trial,html.Screen,4_55_0,2023-09-08T20:51:04.623Z,,0,2,,3314.6079999523354,response,ISIC_0012057.JPG,8,ISIC_6317162.JPG,ISIC_6317162.JPG,false,0,keypress(z),500,522939.5,522939.2999999523,519607.981,519615.39999997616,519624.692,522950.423,8,400,6,,ISIC_0012057.JPG
break,html.Screen,4_55_1,2023-09-08T20:51:04.624Z,,0,,,NaN,,,,,,false,,,,522940.1999999285,522940,,522939.7999999523,,522950.423,8,400,,,
break_continue,html.Screen,4_55_2,2023-09-08T20:51:04.624Z,,0,,,NaN,,,,,,false,,,,522940.6999999285,522940.5,,522940.39999997616,,522950.423,8,400,,,
sequence,flow.Sequence,4_55,2023-09-08T20:51:04.625Z,,0,,,3315.808000000019,completion,,,,,false,,,,522940.89999997616,522940.5,519607.981,519615.2999999523,519624.692,522950.423,8,400,,,
trial,html.Screen,4_56_0,2023-09-08T20:51:07.649Z,,0,2,,3014.7769999284646,response,ISIC_0054982.JPG,8,ISIC_7803114.JPG,ISIC_0054982.JPG,false,1,keypress(m),500,525965.5,525965.1999999285,522933.712,522941.10000002384,522950.423,525975.114,8,400,7,,ISIC_7803114.JPG
break,html.Screen,4_56_1,2023-09-08T20:51:07.650Z,,0,,,NaN,,,,,,false,,,,525966.1999999285,525965.8999999762,,525965.6999999285,,525975.114,8,400,,,
break_continue,html.Screen,4_56_2,2023-09-08T20:51:07.650Z,,0,,,NaN,,,,,,false,,,,525966.6000000238,525966.5,,525966.2999999523,,525975.114,8,400,,,
sequence,flow.Sequence,4_56,2023-09-08T20:51:07.651Z,,0,,,3016.07699999999,completion,,,,,false,,,,525967,525966.5,522933.712,522941.10000002384,522950.423,525975.114,8,400,,,
trial,html.Screen,4_57_0,2023-09-08T20:51:10.391Z,,0,2,,2731.386000000057,response,ISIC_4363603.JPG,7,ISIC_8869929.JPG,ISIC_8869929.JPG,false,0,keypress(z),500,528706.7999999523,528706.5,525958.403,525967.1999999285,525975.114,528715.718,8,400,8,,ISIC_4363603.JPG
break,html.Screen,4_57_1,2023-09-08T20:51:10.391Z,,0,,,NaN,,,,,,false,,,,528707.6000000238,528707.3999999762,,528707.1000000238,,528715.718,8,400,,,
break_continue,html.Screen,4_57_2,2023-09-08T20:51:10.392Z,,0,,,NaN,,,,,,false,,,,528708,528707.8999999762,,528707.7999999523,,528715.718,8,400,,,
sequence,flow.Sequence,4_57,2023-09-08T20:51:10.392Z,,0,,,2732.785999976215,completion,,,,,false,,,,528708.1999999285,528707.8999999762,525958.403,525967.1999999285,525975.114,528715.718,8,400,,,
trial,html.Screen,4_58_0,2023-09-08T20:51:12.955Z,,0,2,,2555.581999952323,response,ISIC_3356355.JPG,6,ISIC_0067235.JPG,ISIC_3356355.JPG,false,1,keypress(m),500,531271.6000000238,531271.2999999523,528699.007,528708.5,528715.718,531272.629,8,400,9,,ISIC_0067235.JPG
break,html.Screen,4_58_1,2023-09-08T20:51:12.956Z,,0,,,NaN,,,,,,false,,,,531272.2999999523,531272.1999999285,,531271.7999999523,,531272.629,8,400,,,
break_continue,html.Screen,4_58_2,2023-09-08T20:51:12.957Z,,0,,,NaN,,,,,,false,,,,531272.7999999523,531272.6999999285,,531272.5,,531272.629,8,400,,,
sequence,flow.Sequence,4_58,2023-09-08T20:51:12.957Z,,0,,,2556.981999928481,completion,,,,,false,,,,531273,531272.6999999285,528699.007,528708.3999999762,528715.718,531272.629,8,400,,,
trial,html.Screen,4_59_0,2023-09-08T20:51:15.795Z,,0,2,,2837.670999952359,response,ISIC_3610783.JPG,7,ISIC_7806926.JPG,ISIC_7806926.JPG,false,0,keypress(z),500,534110.5,534110.2999999523,531255.918,531273.1999999285,531272.629,534113.499,8,400,10,,ISIC_3610783.JPG
break,html.Screen,4_59_1,2023-09-08T20:51:15.795Z,,0,,,NaN,,,,,,false,,,,534111.1000000238,534110.8999999762,,534110.6999999285,,534113.499,8,400,,,
break_continue,html.Screen,4_59_2,2023-09-08T20:51:15.795Z,,0,,,NaN,,,,,,false,,,,534111.5,534111.3999999762,,534111.1999999285,,534113.499,8,400,,,
sequence,flow.Sequence,4_59,2023-09-08T20:51:15.796Z,,0,,,2838.770999976201,completion,,,,,false,,,,534111.7999999523,534111.3999999762,531255.918,531273.1000000238,531272.629,534113.499,8,400,,,
trial,html.Screen,4_60_0,2023-09-08T20:51:18.944Z,,0,2,,3145.800999952364,response,ISIC_0013549.JPG,8,ISIC_0025316.JPG,ISIC_0025316.JPG,false,0,keypress(z),500,537259.5,537259.2999999523,534096.788,534111.8999999762,534113.499,537271.878,8,400,11,,ISIC_0013549.JPG
break,html.Screen,4_60_1,2023-09-08T20:51:18.944Z,,0,,,NaN,,,,,,false,,,,537260.3999999762,537260.1999999285,,537259.7999999523,,537271.878,8,400,,,
break_continue,html.Screen,4_60_2,2023-09-08T20:51:18.945Z,,0,,,NaN,,,,,,false,,,,537260.7999999523,537260.6999999285,,537260.6000000238,,537271.878,8,400,,,
sequence,flow.Sequence,4_60,2023-09-08T20:51:18.945Z,,0,,,3147.200999928522,completion,,,,,false,,,,537261.1000000238,537260.6999999285,534096.788,534111.8999999762,534113.499,537271.878,8,400,,,
trial,html.Screen,4_61_0,2023-09-08T20:51:22.008Z,,0,2,,3051.42199995229,response,ISIC_0485996.JPG,5,ISIC_8692006.JPG,ISIC_8692006.JPG,false,0,keypress(z),500,540323.6000000238,540323.2999999523,537255.167,537261.1999999285,537271.878,540329.991,8,400,12,,ISIC_0485996.JPG
break,html.Screen,4_61_1,2023-09-08T20:51:22.009Z,,0,,,NaN,,,,,,false,,,,540324.3999999762,540324.1999999285,,540323.7999999523,,540329.991,8,400,,,
break_continue,html.Screen,4_61_2,2023-09-08T20:51:22.009Z,,0,,,NaN,,,,,,false,,,,540324.7999999523,540324.6000000238,,540324.5,,540329.991,8,400,,,
sequence,flow.Sequence,4_61,2023-09-08T20:51:22.009Z,,0,,,3052.722000023816,completion,,,,,false,,,,540325,540324.6000000238,537255.167,537261.1999999285,537271.878,540329.991,8,400,,,
trial,html.Screen,4_62_0,2023-09-08T20:51:24.683Z,,0,2,,2668.90899997612,response,ISIC_0062133.JPG,5,ISIC_0033258.JPG,ISIC_0062133.JPG,false,1,keypress(m),500,542999.1999999285,542998.8999999762,540313.28,540325.1999999285,540329.991,543003.916,8,400,13,,ISIC_0033258.JPG
break,html.Screen,4_62_1,2023-09-08T20:51:24.684Z,,0,,,NaN,,,,,,false,,,,543000,542999.7999999523,,542999.3999999762,,543003.916,8,400,,,
break_continue,html.Screen,4_62_2,2023-09-08T20:51:24.685Z,,0,,,NaN,,,,,,false,,,,543000.3999999762,543000.1999999285,,543000.1999999285,,543003.916,8,400,,,
sequence,flow.Sequence,4_62,2023-09-08T20:51:24.685Z,,0,,,2670.2089999284362,completion,,,,,false,,,,543000.6000000238,543000.1999999285,540313.28,540325.1000000238,540329.991,543003.916,8,400,,,
trial,html.Screen,4_63_0,2023-09-08T20:51:27.496Z,,0,2,,2807.1840000238735,response,ISIC_7648726.JPG,5,ISIC_7268804.JPG,ISIC_7648726.JPG,false,1,keypress(m),500,545811.3999999762,545811.1000000238,542987.205,543000.6999999285,543003.916,545828.075,8,400,14,,ISIC_7268804.JPG
break,html.Screen,4_63_1,2023-09-08T20:51:27.497Z,,0,,,NaN,,,,,,false,,,,545812.1999999285,545811.8999999762,,545811.6000000238,,545828.075,8,400,,,
break_continue,html.Screen,4_63_2,2023-09-08T20:51:27.497Z,,0,,,NaN,,,,,,false,,,,545812.6999999285,545812.5,,545812.2999999523,,545828.075,8,400,,,
sequence,flow.Sequence,4_63,2023-09-08T20:51:27.497Z,,0,,,2808.5840000000317,completion,,,,,false,,,,545812.8999999762,545812.5,542987.205,543000.6999999285,543003.916,545828.075,8,400,,,
trial,html.Screen,4_64_0,2023-09-08T20:51:30.526Z,,0,2,,3013.224999952363,response,ISIC_2094429.JPG,8,ISIC_0011136.JPG,ISIC_0011136.JPG,false,0,keypress(z),500,548841.6000000238,548841.2999999523,545811.364,545813,545828.075,548852.766,8,400,15,,ISIC_2094429.JPG
break,html.Screen,4_64_1,2023-09-08T20:51:30.527Z,,0,,,NaN,,,,,,false,,,,548842.2999999523,548842.1000000238,,548841.7999999523,,548852.766,8,400,,,
break_continue,html.Screen,4_64_2,2023-09-08T20:51:30.527Z,,0,,,NaN,,,,,,false,,,,548842.7999999523,548842.6000000238,,548842.5,,548852.766,8,400,,,
sequence,flow.Sequence,4_64,2023-09-08T20:51:30.527Z,,0,,,3014.5250000238884,completion,,,,,false,,,,548842.8999999762,548842.6000000238,545811.364,545813,545828.075,548852.766,8,400,,,
trial,html.Screen,4_65_0,2023-09-08T20:51:33.234Z,,0,2,,2696.334000023897,response,ISIC_0026652.JPG,8,ISIC_0028396.JPG,ISIC_0028396.JPG,false,0,keypress(z),500,551549.2999999523,551549.1000000238,548836.055,548843.1999999285,548852.766,551559.948,8,400,16,,ISIC_0026652.JPG
break,html.Screen,4_65_1,2023-09-08T20:51:33.234Z,,0,,,NaN,,,,,,false,,,,551549.7999999523,551549.6000000238,,551549.3999999762,,551559.948,8,400,,,
break_continue,html.Screen,4_65_2,2023-09-08T20:51:33.234Z,,0,,,NaN,,,,,,false,,,,551549.8999999762,551549.8999999762,,551549.8999999762,,551559.948,8,400,,,
sequence,flow.Sequence,4_65,2023-09-08T20:51:33.235Z,,0,,,2697.133999976213,completion,,,,,false,,,,551550.1000000238,551549.8999999762,548836.055,548843.1000000238,548852.766,551559.948,8,400,,,
trial,html.Screen,4_66_0,2023-09-08T20:51:35.824Z,,0,2,,2579.652000023867,response,ISIC_0067006.JPG,6,ISIC_0057496.JPG,ISIC_0057496.JPG,false,0,keypress(z),500,554139.8999999762,554139.6000000238,551543.237,551550.1000000238,551559.948,554150.344,8,400,17,,ISIC_0067006.JPG
break,html.Screen,4_66_1,2023-09-08T20:51:35.825Z,,0,,,NaN,,,,,,false,,,,554140.6000000238,554140.2999999523,,554140.1000000238,,554150.344,8,400,,,
break_continue,html.Screen,4_66_2,2023-09-08T20:51:35.826Z,,0,,,NaN,,,,,,false,,,,554141,554140.8999999762,,554140.7999999523,,554150.344,8,400,,,
sequence,flow.Sequence,4_66,2023-09-08T20:51:35.826Z,,0,,,2580.9519999761833,completion,,,,,false,,,,554141.1999999285,554140.8999999762,551543.237,551550.1000000238,551559.948,554150.344,8,400,,,
trial,html.Screen,4_67_0,2023-09-08T20:51:38.628Z,,0,2,,2792.756000023801,response,ISIC_1264576.JPG,4,ISIC_0033016.JPG,ISIC_0033016.JPG,false,0,keypress(z),500,556943.2999999523,556943.1000000238,554133.633,554141.3999999762,554150.344,556957.792,8,400,18,,ISIC_1264576.JPG
break,html.Screen,4_67_1,2023-09-08T20:51:38.629Z,,0,,,NaN,,,,,,false,,,,556944.1000000238,556943.8999999762,,556943.6000000238,,556957.792,8,400,,,
break_continue,html.Screen,4_67_2,2023-09-08T20:51:38.629Z,,0,,,NaN,,,,,,false,,,,556944.5,556944.3999999762,,556944.2999999523,,556957.792,8,400,,,
sequence,flow.Sequence,4_67,2023-09-08T20:51:38.629Z,,0,,,2794.055999976117,completion,,,,,false,,,,556944.6999999285,556944.3999999762,554133.633,554141.3999999762,554150.344,556957.792,8,400,,,
trial,html.Screen,4_68_0,2023-09-08T20:51:41.560Z,,0,2,,2916.9079999284586,response,ISIC_0027636.JPG,5,ISIC_4890201.JPG,ISIC_4890201.JPG,false,0,keypress(z),500,559875,559874.6999999285,556941.081,556944.8999999762,556957.792,559882.217,8,400,19,,ISIC_0027636.JPG
break,html.Screen,4_68_1,2023-09-08T20:51:41.561Z,,0,,,NaN,,,,,,false,,,,559875.7999999523,559875.6000000238,,559875.1999999285,,559882.217,8,400,,,
break_continue,html.Screen,4_68_2,2023-09-08T20:51:41.561Z,,0,,,NaN,,,,,,false,,,,559876.2999999523,559876.1000000238,,559876,,559882.217,8,400,,,
sequence,flow.Sequence,4_68,2023-09-08T20:51:41.561Z,,0,,,2918.308000023826,completion,,,,,false,,,,559876.3999999762,559876.1000000238,556941.081,556944.7999999523,556957.792,559882.217,8,400,,,
trial,html.Screen,4_69_0,2023-09-08T20:51:44.319Z,,0,2,,2751.783000000054,response,ISIC_3952030.JPG,5,ISIC_3021188.JPG,ISIC_3021188.JPG,false,0,keypress(z),500,562634.2999999523,562634,559865.506,559876.6999999285,559882.217,562639.809,8,400,20,,ISIC_3952030.JPG
break,html.Screen,4_69_1,2023-09-08T20:51:44.320Z,,0,,,NaN,,,,,,false,,,,562634.7999999523,562634.6999999285,,562634.3999999762,,562639.809,8,400,,,
break_continue,html.Screen,4_69_2,2023-09-08T20:51:44.320Z,,0,,,NaN,,,,,,false,,,,562635,562635,,562634.7999999523,,562639.809,8,400,,,
sequence,flow.Sequence,4_69,2023-09-08T20:51:44.320Z,,0,,,2752.783000000054,completion,,,,,false,,,,562635.1000000238,562635,559865.506,559876.6000000238,559882.217,562639.809,8,400,,,
trial,html.Screen,4_70_0,2023-09-08T20:51:47.636Z,,0,2,,3310.6909999999916,response,ISIC_1522266.JPG,7,ISIC_8911683.JPG,ISIC_8911683.JPG,false,0,keypress(z),500,565950.7999999523,565950.5,562623.098,562635.2999999523,562639.809,565965.298,8,400,21,,ISIC_1522266.JPG
break,html.Screen,4_70_1,2023-09-08T20:51:47.636Z,,0,,,NaN,,,,,,false,,,,565951.5,565951.2999999523,,565951,,565965.298,8,400,,,
break_continue,html.Screen,4_70_2,2023-09-08T20:51:47.637Z,,0,,,NaN,,,,,,false,,,,565951.8999999762,565951.7999999523,,565951.6999999285,,565965.298,8,400,,,
sequence,flow.Sequence,4_70,2023-09-08T20:51:47.637Z,,0,,,3311.990999952308,completion,,,,,false,,,,565952.1000000238,565951.7999999523,562623.098,562635.1999999285,562639.809,565965.298,8,400,,,
trial,html.Screen,4_71_0,2023-09-08T20:51:50.360Z,,0,2,,2709.6019999762066,response,ISIC_0032278.JPG,7,ISIC_0028666.JPG,ISIC_0032278.JPG,false,1,keypress(m),500,568675.1999999285,568674.8999999762,565948.587,565952.2999999523,565965.298,568689.191,8,400,22,,ISIC_0028666.JPG
break,html.Screen,4_71_1,2023-09-08T20:51:50.361Z,,0,,,NaN,,,,,,false,,,,568675.8999999762,568675.6999999285,,568675.3999999762,,568689.191,8,400,,,
break_continue,html.Screen,4_71_2,2023-09-08T20:51:50.362Z,,0,,,NaN,,,,,,false,,,,568676.6000000238,568676.5,,568676.1999999285,,568689.191,8,400,,,
sequence,flow.Sequence,4_71,2023-09-08T20:51:50.362Z,,0,,,2711.2020000000484,completion,,,,,false,,,,568676.8999999762,568676.5,565948.587,565952.2999999523,565965.298,568689.191,8,400,,,
trial,html.Screen,4_72_0,2023-09-08T20:51:52.908Z,,0,2,,2533.8090000000084,response,ISIC_0027507.JPG,5,ISIC_0025603.JPG,ISIC_0027507.JPG,false,1,keypress(m),500,571223.1999999285,571223,568672.48,568677,568689.191,571229.263,8,400,23,,ISIC_0025603.JPG
break,html.Screen,4_72_1,2023-09-08T20:51:52.909Z,,0,,,NaN,,,,,,false,,,,571224,571223.7999999523,,571223.5,,571229.263,8,400,,,
break_continue,html.Screen,4_72_2,2023-09-08T20:51:52.910Z,,0,,,NaN,,,,,,false,,,,571224.5,571224.3999999762,,571224.1999999285,,571229.263,8,400,,,
sequence,flow.Sequence,4_72,2023-09-08T20:51:52.910Z,,0,,,2535.2089999761665,completion,,,,,false,,,,571224.6999999285,571224.3999999762,568672.48,568677,568689.191,571229.263,8,400,,,
trial,html.Screen,4_73_0,2023-09-08T20:51:56.802Z,,0,2,,3887.3370000238065,response,ISIC_0071783.JPG,5,ISIC_0028126.JPG,ISIC_0071783.JPG,false,1,keypress(m),500,575116.7999999523,575116.6000000238,571212.552,571224.8999999762,571229.263,575156.411,8,400,24,,ISIC_0028126.JPG
break,html.Screen,4_73_1,2023-09-08T20:51:56.802Z,,0,,,NaN,,,,,,false,,,,575117.1999999285,575117.1000000238,,575117,,575156.411,8,400,,,
break_continue,html.Screen,4_73_2,2023-09-08T20:51:56.803Z,,0,,,NaN,,,,,,false,,,,575117.3999999762,575117.3999999762,,575117.2999999523,,575156.411,8,400,,,
sequence,flow.Sequence,4_73,2023-09-08T20:51:56.803Z,,0,,,3888.1369999761228,completion,,,,,false,,,,575117.6000000238,575117.3999999762,571212.552,571224.7999999523,571229.263,575156.411,8,400,,,
trial,html.Screen,4_74_0,2023-09-08T20:52:01.718Z,,0,2,,4876.4889999761945,response,ISIC_9511832.JPG,8,ISIC_2283509.JPG,ISIC_2283509.JPG,false,0,keypress(z),500,580033,580032.8999999762,575139.7,575117.6999999285,575156.411,580036.023,8,400,25,,ISIC_9511832.JPG
break,html.Screen,4_74_1,2023-09-08T20:52:01.719Z,,0,,,NaN,,,,,,false,,,,580033.7999999523,580033.6999999285,,580033.2999999523,,580036.023,8,400,,,
break_continue,html.Screen,4_74_2,2023-09-08T20:52:01.720Z,,0,,,NaN,,,,,,false,,,,580034.2999999523,580034.1000000238,,580034,,580036.023,8,400,,,
sequence,flow.Sequence,4_74,2023-09-08T20:52:01.720Z,,0,,,4877.689000023878,completion,,,,,false,,,,580034.5,580034.1000000238,575139.7,575117.6999999285,575156.411,580036.023,8,400,,,
trial,html.Screen,4_75_0,2023-09-08T20:52:05.564Z,,0,2,,3842.2769999522716,response,ISIC_0068223.JPG,6,ISIC_0033995.JPG,ISIC_0068223.JPG,false,1,keypress(m),500,583878.5,583878.2999999523,580019.312,580034.6000000238,580036.023,583879.856,8,400,26,,ISIC_0033995.JPG
break,html.Screen,4_75_1,2023-09-08T20:52:05.565Z,,0,,,NaN,,,,,,false,,,,583879.1999999285,583879,,583878.6999999285,,583879.856,8,400,,,
break_continue,html.Screen,4_75_2,2023-09-08T20:52:05.565Z,,0,,,NaN,,,,,,false,,,,583879.6000000238,583879.5,,583879.2999999523,,583879.856,8,400,,,
sequence,flow.Sequence,4_75,2023-09-08T20:52:05.565Z,,0,,,3843.4769999999553,completion,,,,,false,,,,583879.8999999762,583879.5,580019.312,580034.6000000238,580036.023,583879.856,8,400,,,
trial,html.Screen,4_76_0,2023-09-08T20:52:08.266Z,,0,2,,2700.4439999522874,response,ISIC_0067521.JPG,6,ISIC_0028903.JPG,ISIC_0028903.JPG,false,0,keypress(z),500,586580.5,586580.2999999523,583863.145,583880.1000000238,583879.856,586587.038,8,400,27,,ISIC_0067521.JPG
break,html.Screen,4_76_1,2023-09-08T20:52:08.267Z,,0,,,NaN,,,,,,false,,,,586581.2999999523,586581.1000000238,,586580.7999999523,,586587.038,8,400,,,
break_continue,html.Screen,4_76_2,2023-09-08T20:52:08.267Z,,0,,,NaN,,,,,,false,,,,586581.7999999523,586581.6000000238,,586581.3999999762,,586587.038,8,400,,,
sequence,flow.Sequence,4_76,2023-09-08T20:52:08.268Z,,0,,,2701.744000023813,completion,,,,,false,,,,586582.1000000238,586581.6000000238,583863.145,583880,583879.856,586587.038,8,400,,,
trial,html.Screen,4_77_0,2023-09-08T20:52:11.310Z,,0,2,,3037.5620000238996,response,ISIC_4554863.JPG,4,ISIC_1348538.JPG,ISIC_4554863.JPG,false,1,keypress(m),500,589624.7999999523,589624.6000000238,586570.327,586582.2999999523,586587.038,589628.44,8,400,28,,ISIC_1348538.JPG
break,html.Screen,4_77_1,2023-09-08T20:52:11.311Z,,0,,,NaN,,,,,,false,,,,589625.6000000238,589625.2999999523,,589625.1000000238,,589628.44,8,400,,,
break_continue,html.Screen,4_77_2,2023-09-08T20:52:11.312Z,,0,,,NaN,,,,,,false,,,,589626,589625.7999999523,,589625.6999999285,,589628.44,8,400,,,
sequence,flow.Sequence,4_77,2023-09-08T20:52:11.312Z,,0,,,3038.761999952374,completion,,,,,false,,,,589626.1999999285,589625.7999999523,586570.327,586582.1999999285,586587.038,589628.44,8,400,,,
trial,html.Screen,4_78_0,2023-09-08T20:52:14.357Z,,0,2,,3042.560000000056,response,ISIC_0014183.JPG,5,ISIC_7128007.JPG,ISIC_7128007.JPG,false,0,keypress(z),500,592671.1999999285,592671,589611.729,589626.2999999523,589628.44,592686.553,8,400,29,,ISIC_0014183.JPG
break,html.Screen,4_78_1,2023-09-08T20:52:14.358Z,,0,,,NaN,,,,,,false,,,,592671.7999999523,592671.6999999285,,592671.3999999762,,592686.553,8,400,,,
break_continue,html.Screen,4_78_2,2023-09-08T20:52:14.358Z,,0,,,NaN,,,,,,false,,,,592672.1999999285,592672.1000000238,,592672,,592686.553,8,400,,,
sequence,flow.Sequence,4_78,2023-09-08T20:52:14.358Z,,0,,,3043.6600000238977,completion,,,,,false,,,,592672.3999999762,592672.1000000238,589611.729,589626.2999999523,589628.44,592686.553,8,400,,,
trial,html.Screen,4_79_0,2023-09-08T20:52:17.409Z,,0,2,,3036.646999928518,response,ISIC_9900191.JPG,7,ISIC_0032569.JPG,ISIC_9900191.JPG,false,1,keypress(m),500,595723.5,595723.1999999285,592669.842,592672.5,592686.553,595728.141,8,400,30,,ISIC_0032569.JPG
break,html.Screen,4_79_1,2023-09-08T20:52:17.410Z,,0,,,NaN,,,,,,false,,,,595724.1999999285,595724,,595723.6999999285,,595728.141,8,400,,,
break_continue,html.Screen,4_79_2,2023-09-08T20:52:17.410Z,,0,,,NaN,,,,,,false,,,,595724.6000000238,595724.5,,595724.3999999762,,595728.141,8,400,,,
sequence,flow.Sequence,4_79,2023-09-08T20:52:17.411Z,,0,,,3037.9470000000438,completion,,,,,false,,,,595724.7999999523,595724.5,592669.842,592672.3999999762,592686.553,595728.141,8,400,,,
trial,html.Screen,4_80_0,2023-09-08T20:52:20.648Z,,0,2,,3233.859000000055,response,ISIC_0174983.JPG,8,ISIC_0064095.JPG,ISIC_0174983.JPG,false,1,keypress(m),500,598962.1000000238,598962,595711.43,595725,595728.141,598970.075,8,400,31,,ISIC_0064095.JPG
break,html.Screen,4_80_1,2023-09-08T20:52:20.649Z,,0,,,NaN,,,,,,false,,,,598962.8999999762,598962.6999999285,,598962.3999999762,,598970.075,8,400,,,
break_continue,html.Screen,4_80_2,2023-09-08T20:52:20.649Z,,0,,,NaN,,,,,,false,,,,598963.2999999523,598963.1000000238,,598963,,598970.075,8,400,,,
sequence,flow.Sequence,4_80,2023-09-08T20:52:20.649Z,,0,,,3234.959000023897,completion,,,,,false,,,,598963.3999999762,598963.1000000238,595711.43,595724.8999999762,595728.141,598970.075,8,400,,,
trial,html.Screen,4_81_0,2023-09-08T20:52:23.355Z,,0,2,,2698.9250000000466,response,ISIC_0770920.JPG,6,ISIC_0059216.JPG,ISIC_0770920.JPG,false,1,keypress(m),500,601669.1999999285,601669,598953.364,598963.6000000238,598970.075,601677.257,8,400,32,,ISIC_0059216.JPG
break,html.Screen,4_81_1,2023-09-08T20:52:23.356Z,,0,,,NaN,,,,,,false,,,,601670,601669.7999999523,,601669.5,,601677.257,8,400,,,
break_continue,html.Screen,4_81_2,2023-09-08T20:52:23.356Z,,0,,,NaN,,,,,,false,,,,601670.3999999762,601670.2999999523,,601670.1999999285,,601677.257,8,400,,,
sequence,flow.Sequence,4_81,2023-09-08T20:52:23.357Z,,0,,,2700.224999952363,completion,,,,,false,,,,601670.6999999285,601670.2999999523,598953.364,598963.6000000238,598970.075,601677.257,8,400,,,
trial,html.Screen,4_82_0,2023-09-08T20:52:26.496Z,,0,2,,3132.2430000000168,response,ISIC_5557806.JPG,6,ISIC_3912838.JPG,ISIC_3912838.JPG,false,0,keypress(z),500,604809.6999999285,604809.5,601660.546,601671,601677.257,604819.123,8,400,33,,ISIC_5557806.JPG
break,html.Screen,4_82_1,2023-09-08T20:52:26.497Z,,0,,,NaN,,,,,,false,,,,604810.3999999762,604810.2999999523,,604810,,604819.123,8,400,,,
break_continue,html.Screen,4_82_2,2023-09-08T20:52:26.497Z,,0,,,NaN,,,,,,false,,,,604810.8999999762,604810.7999999523,,604810.6000000238,,604819.123,8,400,,,
sequence,flow.Sequence,4_82,2023-09-08T20:52:26.497Z,,0,,,3133.542999952333,completion,,,,,false,,,,604811.1999999285,604810.7999999523,601660.546,601670.8999999762,601677.257,604819.123,8,400,,,
trial,html.Screen,4_83_0,2023-09-08T20:52:30.261Z,,0,2,,3755.9770000238204,response,ISIC_0025217.JPG,7,ISIC_0024313.JPG,ISIC_0025217.JPG,false,1,keypress(m),500,608575.1999999285,608575.1000000238,604802.412,604811.2999999523,604819.123,608579.098,8,400,34,,ISIC_0024313.JPG
break,html.Screen,4_83_1,2023-09-08T20:52:30.262Z,,0,,,NaN,,,,,,false,,,,608575.8999999762,608575.6999999285,,608575.3999999762,,608579.098,8,400,,,
break_continue,html.Screen,4_83_2,2023-09-08T20:52:30.262Z,,0,,,NaN,,,,,,false,,,,608576.2999999523,608576.1999999285,,608576,,608579.098,8,400,,,
sequence,flow.Sequence,4_83,2023-09-08T20:52:30.263Z,,0,,,3757.076999928453,completion,,,,,false,,,,608576.5,608576.1999999285,604802.412,604811.1999999285,604819.123,608579.098,8,400,,,
trial,html.Screen,4_84_0,2023-09-08T20:52:33.978Z,,0,2,,3712.80199997616,response,ISIC_0033998.JPG,7,ISIC_0014548.JPG,ISIC_0033998.JPG,false,1,keypress(m),500,612292.1000000238,612291.8999999762,608562.387,608576.6999999285,608579.098,612305.651,8,400,35,,ISIC_0014548.JPG
break,html.Screen,4_84_1,2023-09-08T20:52:33.979Z,,0,,,NaN,,,,,,false,,,,612292.6000000238,612292.5,,612292.1999999285,,612305.651,8,400,,,
break_continue,html.Screen,4_84_2,2023-09-08T20:52:33.979Z,,0,,,NaN,,,,,,false,,,,612292.8999999762,612292.7999999523,,612292.6999999285,,612305.651,8,400,,,
sequence,flow.Sequence,4_84,2023-09-08T20:52:33.979Z,,0,,,3713.701999952318,completion,,,,,false,,,,612293,612292.7999999523,608562.387,608576.5,608579.098,612305.651,8,400,,,
trial,html.Screen,4_85_0,2023-09-08T20:52:37.087Z,,0,2,,3094.3490000000456,response,ISIC_0030747.JPG,7,ISIC_0026966.JPG,ISIC_0030747.JPG,false,1,keypress(m),500,615400.1999999285,615400,612288.94,612293,612305.651,615414.092,8,400,36,,ISIC_0026966.JPG
break,html.Screen,4_85_1,2023-09-08T20:52:37.088Z,,0,,,NaN,,,,,,false,,,,615401.1999999285,615400.8999999762,,615400.6000000238,,615414.092,8,400,,,
break_continue,html.Screen,4_85_2,2023-09-08T20:52:37.088Z,,0,,,NaN,,,,,,false,,,,615401.7999999523,615401.6000000238,,615401.3999999762,,615414.092,8,400,,,
sequence,flow.Sequence,4_85,2023-09-08T20:52:37.088Z,,0,,,3095.9490000238875,completion,,,,,false,,,,615402,615401.6000000238,612288.94,612293,612305.651,615414.092,8,400,,,
trial,html.Screen,4_86_0,2023-09-08T20:52:40.219Z,,0,2,,3117.7079999523703,response,ISIC_1265755.JPG,5,ISIC_6745554.JPG,ISIC_6745554.JPG,false,0,keypress(z),500,618532,618531.7999999523,615397.381,615402.1000000238,615414.092,618555.76,8,400,37,,ISIC_1265755.JPG
break,html.Screen,4_86_1,2023-09-08T20:52:40.219Z,,0,,,NaN,,,,,,false,,,,618532.6999999285,618532.5,,618532.2999999523,,618555.76,8,400,,,
break_continue,html.Screen,4_86_2,2023-09-08T20:52:40.220Z,,0,,,NaN,,,,,,false,,,,618533.1000000238,618533,,618532.7999999523,,618555.76,8,400,,,
sequence,flow.Sequence,4_86,2023-09-08T20:52:40.220Z,,0,,,3118.908000000054,completion,,,,,false,,,,618533.2999999523,618533,615397.381,615402.1000000238,615414.092,618555.76,8,400,,,
trial,html.Screen,4_87_0,2023-09-08T20:52:44.064Z,,0,2,,3821.7399999999907,response,ISIC_8837443.JPG,7,ISIC_0056603.JPG,ISIC_8837443.JPG,false,1,keypress(m),500,622377.6999999285,622377.5,618539.049,618533.5,618555.76,622382.579,8,400,38,,ISIC_0056603.JPG
break,html.Screen,4_87_1,2023-09-08T20:52:44.065Z,,0,,,NaN,,,,,,false,,,,622378.2999999523,622378.1000000238,,622377.8999999762,,622382.579,8,400,,,
break_continue,html.Screen,4_87_2,2023-09-08T20:52:44.065Z,,0,,,NaN,,,,,,false,,,,622378.6999999285,622378.6000000238,,622378.5,,622382.579,8,400,,,
sequence,flow.Sequence,4_87,2023-09-08T20:52:44.065Z,,0,,,3822.8400000238325,completion,,,,,false,,,,622378.8999999762,622378.6000000238,618539.049,618533.3999999762,618555.76,622382.579,8,400,,,
trial,html.Screen,4_88_0,2023-09-08T20:52:46.996Z,,0,2,,2926.521000023815,response,ISIC_0068184.JPG,8,ISIC_2383335.JPG,ISIC_0068184.JPG,false,1,keypress(m),500,625309.2999999523,625309.1000000238,622365.868,622379,622382.579,625340.56,8,400,39,,ISIC_2383335.JPG
break,html.Screen,4_88_1,2023-09-08T20:52:46.997Z,,0,,,NaN,,,,,,false,,,,625310,625309.8999999762,,625309.6000000238,,625340.56,8,400,,,
break_continue,html.Screen,4_88_2,2023-09-08T20:52:46.997Z,,0,,,NaN,,,,,,false,,,,625310.5,625310.2999999523,,625310.2999999523,,625340.56,8,400,,,
sequence,flow.Sequence,4_88,2023-09-08T20:52:46.997Z,,0,,,2927.7209999522893,completion,,,,,false,,,,625310.7999999523,625310.2999999523,622365.868,622379,622382.579,625340.56,8,400,,,
trial,html.Screen,4_89_0,2023-09-08T20:52:49.832Z,,0,2,,2804.8399999761023,response,ISIC_4197990.JPG,6,ISIC_2447578.JPG,ISIC_4197990.JPG,false,1,keypress(m),500,628145.6999999285,628145.3999999762,625323.849,625310.8999999762,625340.56,628148.008,8,400,40,,ISIC_2447578.JPG
break,html.Screen,4_89_1,2023-09-08T20:52:49.833Z,,0,,,NaN,,,,,,false,,,,628146.3999999762,628146.1999999285,,628145.8999999762,,628148.008,8,400,,,
break_continue,html.Screen,4_89_2,2023-09-08T20:52:49.834Z,,0,,,NaN,,,,,,false,,,,628146.7999999523,628146.6999999285,,628146.5,,628148.008,8,400,,,
sequence,flow.Sequence,4_89,2023-09-08T20:52:49.834Z,,0,,,2806.1399999284185,completion,,,,,false,,,,628147,628146.6999999285,625323.849,625310.8999999762,625340.56,628148.008,8,400,,,
trial,html.Screen,4_90_0,2023-09-08T20:52:53.710Z,,0,2,,3874.9919999999693,response,ISIC_2902328.JPG,6,ISIC_8584748.JPG,ISIC_8584748.JPG,false,0,keypress(z),500,632023.2999999523,632023,628131.297,628147.1999999285,628148.008,632024.96,8,400,41,,ISIC_2902328.JPG
break,html.Screen,4_90_1,2023-09-08T20:52:53.711Z,,0,,,NaN,,,,,,false,,,,632024.1000000238,632023.8999999762,,632023.5,,632024.96,8,400,,,
break_continue,html.Screen,4_90_2,2023-09-08T20:52:53.711Z,,0,,,NaN,,,,,,false,,,,632024.5,632024.3999999762,,632024.1999999285,,632024.96,8,400,,,
sequence,flow.Sequence,4_90,2023-09-08T20:52:53.712Z,,0,,,3876.3919999761274,completion,,,,,false,,,,632024.6999999285,632024.3999999762,628131.297,628147.1000000238,628148.008,632024.96,8,400,,,
trial,html.Screen,4_91_0,2023-09-08T20:52:56.427Z,,0,2,,2714.7399999285117,response,ISIC_0028352.JPG,7,ISIC_0011437.JPG,ISIC_0011437.JPG,false,0,keypress(z),500,634740,634739.6999999285,632008.249,632024.8999999762,632024.96,634748.853,8,400,42,,ISIC_0028352.JPG
break,html.Screen,4_91_1,2023-09-08T20:52:56.428Z,,0,,,NaN,,,,,,false,,,,634740.6999999285,634740.6000000238,,634740.2999999523,,634748.853,8,400,,,
break_continue,html.Screen,4_91_2,2023-09-08T20:52:56.428Z,,0,,,NaN,,,,,,false,,,,634741.1999999285,634741.1000000238,,634740.8999999762,,634748.853,8,400,,,
sequence,flow.Sequence,4_91,2023-09-08T20:52:56.428Z,,0,,,2716.140000023879,completion,,,,,false,,,,634741.3999999762,634741.1000000238,632008.249,632024.8999999762,632024.96,634748.853,8,400,,,
trial,html.Screen,4_92_0,2023-09-08T20:52:59.279Z,,0,2,,2842.747000023839,response,ISIC_0010266.JPG,7,ISIC_0011529.JPG,ISIC_0010266.JPG,false,1,keypress(m),500,637591.8999999762,637591.6000000238,634732.142,634741.5,634748.853,637606.644,8,400,43,,ISIC_0011529.JPG
break,html.Screen,4_92_1,2023-09-08T20:52:59.280Z,,0,,,NaN,,,,,,false,,,,637592.6000000238,637592.2999999523,,637592.1000000238,,637606.644,8,400,,,
break_continue,html.Screen,4_92_2,2023-09-08T20:52:59.280Z,,0,,,NaN,,,,,,false,,,,637593,637592.8999999762,,637592.7999999523,,637606.644,8,400,,,
sequence,flow.Sequence,4_92,2023-09-08T20:52:59.280Z,,0,,,2844.0469999761553,completion,,,,,false,,,,637593.1999999285,637592.8999999762,634732.142,634741.5,634748.853,637606.644,8,400,,,
trial,html.Screen,4_93_0,2023-09-08T20:53:02.259Z,,0,2,,2965.5559999285033,response,ISIC_0028109.JPG,7,ISIC_0046977.JPG,ISIC_0028109.JPG,false,1,keypress(m),500,640572.2999999523,640572.1999999285,637589.933,637593.3999999762,637606.644,640581.202,8,400,44,,ISIC_0046977.JPG
break,html.Screen,4_93_1,2023-09-08T20:53:02.260Z,,0,,,NaN,,,,,,false,,,,640573,640572.7999999523,,640572.5,,640581.202,8,400,,,
break_continue,html.Screen,4_93_2,2023-09-08T20:53:02.261Z,,0,,,NaN,,,,,,false,,,,640573.3999999762,640573.1999999285,,640573.1000000238,,640581.202,8,400,,,
sequence,flow.Sequence,4_93,2023-09-08T20:53:02.261Z,,0,,,2966.5559999285033,completion,,,,,false,,,,640573.6000000238,640573.1999999285,637589.933,637593.2999999523,637606.644,640581.202,8,400,,,
trial,html.Screen,4_94_0,2023-09-08T20:53:05.323Z,,0,2,,3054.497999928426,response,ISIC_0010208.JPG,6,ISIC_4810500.JPG,ISIC_4810500.JPG,false,0,keypress(z),500,643635.7999999523,643635.6999999285,640564.491,640573.6999999285,640581.202,643639.315,8,400,45,,ISIC_0010208.JPG
break,html.Screen,4_94_1,2023-09-08T20:53:05.324Z,,0,,,NaN,,,,,,false,,,,643636.1999999285,643636.1999999285,,643635.8999999762,,643639.315,8,400,,,
break_continue,html.Screen,4_94_2,2023-09-08T20:53:05.324Z,,0,,,NaN,,,,,,false,,,,643636.5,643636.3999999762,,643636.2999999523,,643639.315,8,400,,,
sequence,flow.Sequence,4_94,2023-09-08T20:53:05.324Z,,0,,,3055.1979999761097,completion,,,,,false,,,,643636.6000000238,643636.3999999762,640564.491,640573.6000000238,640581.202,643639.315,8,400,,,
trial,html.Screen,4_95_0,2023-09-08T20:53:08.066Z,,0,2,,2739.3849999285303,response,ISIC_0032070.JPG,6,ISIC_4530249.JPG,ISIC_4530249.JPG,false,0,keypress(z),500,646379,646378.6999999285,643622.604,643636.6000000238,643639.315,646380.046,8,400,46,,ISIC_0032070.JPG
break,html.Screen,4_95_1,2023-09-08T20:53:08.067Z,,0,,,NaN,,,,,,false,,,,646379.5,646379.3999999762,,646379.1000000238,,646380.046,8,400,,,
break_continue,html.Screen,4_95_2,2023-09-08T20:53:08.067Z,,0,,,NaN,,,,,,false,,,,646379.8999999762,646379.7999999523,,646379.6999999285,,646380.046,8,400,,,
sequence,flow.Sequence,4_95,2023-09-08T20:53:08.068Z,,0,,,2740.484999952372,completion,,,,,false,,,,646380.2999999523,646379.7999999523,643622.604,643636.6000000238,643639.315,646380.046,8,400,,,
trial,html.Screen,4_96_0,2023-09-08T20:53:11.035Z,,0,2,,2967.6539999285014,response,ISIC_1092432.JPG,6,ISIC_0056119.JPG,ISIC_1092432.JPG,false,1,keypress(m),500,649348,649347.6999999285,646363.335,646380.3999999762,646380.046,649354.604,8,400,47,,ISIC_0056119.JPG
break,html.Screen,4_96_1,2023-09-08T20:53:11.037Z,,0,,,NaN,,,,,,false,,,,649349.1999999285,649348.6999999285,,649348.3999999762,,649354.604,8,400,,,
break_continue,html.Screen,4_96_2,2023-09-08T20:53:11.037Z,,0,,,NaN,,,,,,false,,,,649349.7999999523,649349.6999999285,,649349.2999999523,,649354.604,8,400,,,
sequence,flow.Sequence,4_96,2023-09-08T20:53:11.037Z,,0,,,2969.6539999285014,completion,,,,,false,,,,649350,649349.6999999285,646363.335,646380.3999999762,646380.046,649354.604,8,400,,,
trial,html.Screen,4_97_0,2023-09-08T20:53:13.744Z,,0,2,,2701.4960000237916,response,ISIC_0064823.JPG,6,ISIC_4848047.JPG,ISIC_4848047.JPG,false,0,keypress(z),500,652056.3999999762,652056.1000000238,649337.893,649350.1999999285,649354.604,652061.786,8,400,48,,ISIC_0064823.JPG
break,html.Screen,4_97_1,2023-09-08T20:53:13.745Z,,0,,,NaN,,,,,,false,,,,652057.1000000238,652056.8999999762,,652056.6000000238,,652061.786,8,400,,,
break_continue,html.Screen,4_97_2,2023-09-08T20:53:13.745Z,,0,,,NaN,,,,,,false,,,,652057.5,652057.3999999762,,652057.1999999285,,652061.786,8,400,,,
sequence,flow.Sequence,4_97,2023-09-08T20:53:13.745Z,,0,,,2702.795999976108,completion,,,,,false,,,,652057.6999999285,652057.3999999762,649337.893,649350.1999999285,649354.604,652061.786,8,400,,,
trial,html.Screen,4_98_0,2023-09-08T20:53:18.171Z,,0,2,,4421.314000023878,response,ISIC_0008424.JPG,7,ISIC_0026812.JPG,ISIC_0008424.JPG,false,1,keypress(m),500,656483.2999999523,656483.1000000238,652045.075,652057.8999999762,652061.786,656490.397,8,400,49,,ISIC_0026812.JPG
break,html.Screen,4_98_1,2023-09-08T20:53:18.172Z,,0,,,NaN,,,,,,false,,,,656484.1999999285,656483.8999999762,,656483.5,,656490.397,8,400,,,
break_continue,html.Screen,4_98_2,2023-09-08T20:53:18.172Z,,0,,,NaN,,,,,,false,,,,656484.6000000238,656484.5,,656484.3999999762,,656490.397,8,400,,,
sequence,flow.Sequence,4_98,2023-09-08T20:53:18.172Z,,0,,,4422.714000000036,completion,,,,,false,,,,656484.7999999523,656484.5,652045.075,652057.8999999762,652061.786,656490.397,8,400,,,
trial,html.Screen,4_99_0,2023-09-08T20:53:21.163Z,,0,2,,2984.502999976161,response,ISIC_0030951.JPG,8,ISIC_7210119.JPG,ISIC_7210119.JPG,false,0,keypress(z),500,659475,659474.8999999762,656473.686,656484.8999999762,656490.397,659481.666,8,400,50,,ISIC_0030951.JPG
break,html.Screen,4_99_1,2023-09-08T20:53:31.367Z,,0,,,10327.606000000029,timeout,,,,,false,,,,669679,669678.3999999762,659464.955,659475.2999999523,659481.666,669809.272,8,400,,,
break_continue,html.Screen,4_99_2,2023-09-08T20:53:33.243Z,,0,,,1718.7280000000028,response,,,,,false,continue,keypress(Space),,671554.6999999285,671528,669678.3999999762,669679.3999999762,669809.272,671563.927,8,400,,,
sequence,flow.Sequence,4_99,2023-09-08T20:53:33.243Z,,0,,,15037.603000000003,completion,,,,,false,,,,671555,671528,656473.686,656484.8999999762,656490.397,671563.927,8,400,,,
trial,html.Screen,4_100_0,2023-09-08T20:53:36.703Z,,0,3,,3450.872999952291,response,ISIC_0032360.JPG,8,ISIC_7017387.JPG,ISIC_7017387.JPG,false,0,keypress(z),500,675015.1000000238,675014.7999999523,671547.216,671555.1999999285,671563.927,675023.104,8,400,1,,ISIC_0032360.JPG
break,html.Screen,4_100_1,2023-09-08T20:53:36.704Z,,0,,,NaN,,,,,,false,,,,675015.6000000238,675015.5,,675015.1999999285,,675023.104,8,400,,,
break_continue,html.Screen,4_100_2,2023-09-08T20:53:36.704Z,,0,,,NaN,,,,,,false,,,,675016,675015.8999999762,,675015.7999999523,,675023.104,8,400,,,
sequence,flow.Sequence,4_100,2023-09-08T20:53:36.704Z,,0,,,3451.972999976133,completion,,,,,false,,,,675016.1000000238,675015.8999999762,671547.216,671555.1999999285,671563.927,675023.104,8,400,,,
trial,html.Screen,4_101_0,2023-09-08T20:53:40.700Z,,0,3,,3988.095999928424,response,ISIC_0006321.JPG,6,ISIC_3945916.JPG,ISIC_3945916.JPG,false,0,keypress(z),500,679011.5,679011.1999999285,675006.393,675016.2999999523,675023.104,679017.141,8,400,2,,ISIC_0006321.JPG
break,html.Screen,4_101_1,2023-09-08T20:53:40.701Z,,0,,,NaN,,,,,,false,,,,679012.2999999523,679012.1999999285,,679011.7999999523,,679017.141,8,400,,,
break_continue,html.Screen,4_101_2,2023-09-08T20:53:40.702Z,,0,,,NaN,,,,,,false,,,,679013.1999999285,679012.8999999762,,679012.5,,679017.141,8,400,,,
sequence,flow.Sequence,4_101,2023-09-08T20:53:40.702Z,,0,,,3989.795999976108,completion,,,,,false,,,,679013.5,679012.8999999762,675006.393,675016.2999999523,675023.104,679017.141,8,400,,,
trial,html.Screen,4_102_0,2023-09-08T20:53:44.508Z,,0,3,,3801.859000000055,response,ISIC_0000848.JPG,5,ISIC_6000407.JPG,ISIC_6000407.JPG,false,0,keypress(z),500,682819.1000000238,682819,679000.43,679013.7999999523,679017.141,682827.249,8,400,3,,ISIC_0000848.JPG
break,html.Screen,4_102_1,2023-09-08T20:53:44.508Z,,0,,,NaN,,,,,,false,,,,682819.7999999523,682819.6999999285,,682819.3999999762,,682827.249,8,400,,,
break_continue,html.Screen,4_102_2,2023-09-08T20:53:44.509Z,,0,,,NaN,,,,,,false,,,,682820.1999999285,682820,,682819.8999999762,,682827.249,8,400,,,
sequence,flow.Sequence,4_102,2023-09-08T20:53:44.509Z,,0,,,3802.859000000055,completion,,,,,false,,,,682820.2999999523,682820,679000.43,679013.6999999285,679017.141,682827.249,8,400,,,
trial,html.Screen,4_103_0,2023-09-08T20:53:47.524Z,,0,3,,3007.950999928522,response,ISIC_0024735.JPG,5,ISIC_0055714.JPG,ISIC_0024735.JPG,false,1,keypress(m),500,685835.5,685835.1999999285,682810.538,682820.5,682827.249,685851.94,8,400,4,,ISIC_0055714.JPG
break,html.Screen,4_103_1,2023-09-08T20:53:47.525Z,,0,,,NaN,,,,,,false,,,,685836.3999999762,685836.1999999285,,685835.8999999762,,685851.94,8,400,,,
break_continue,html.Screen,4_103_2,2023-09-08T20:53:47.525Z,,0,,,NaN,,,,,,false,,,,685836.8999999762,685836.6999999285,,685836.6999999285,,685851.94,8,400,,,
sequence,flow.Sequence,4_103,2023-09-08T20:53:47.526Z,,0,,,3009.450999928522,completion,,,,,false,,,,685837.1000000238,685836.6999999285,682810.538,682820.5,682827.249,685851.94,8,400,,,
trial,html.Screen,4_104_0,2023-09-08T20:53:50.489Z,,0,3,,2948.060000000056,response,ISIC_0067697.JPG,6,ISIC_0028919.JPG,ISIC_0028919.JPG,false,0,keypress(z),500,688800.1999999285,688800,685835.229,685837.2999999523,685851.94,688810.022,8,400,5,,ISIC_0067697.JPG
break,html.Screen,4_104_1,2023-09-08T20:53:50.489Z,,0,,,NaN,,,,,,false,,,,688800.8999999762,688800.6999999285,,688800.3999999762,,688810.022,8,400,,,
break_continue,html.Screen,4_104_2,2023-09-08T20:53:50.490Z,,0,,,NaN,,,,,,false,,,,688801.1000000238,688801.1000000238,,688801,,688810.022,8,400,,,
sequence,flow.Sequence,4_104,2023-09-08T20:53:50.490Z,,0,,,2949.1600000238977,completion,,,,,false,,,,688801.2999999523,688801.1000000238,685835.229,685837.1999999285,685851.94,688810.022,8,400,,,
trial,html.Screen,4_105_0,2023-09-08T20:53:53.613Z,,0,3,,3114.377999976161,response,ISIC_0025127.JPG,8,ISIC_0024894.JPG,ISIC_0024894.JPG,false,0,keypress(z),500,691924.6999999285,691924.3999999762,688793.311,688801.3999999762,688810.022,691934.979,8,400,6,,ISIC_0025127.JPG
break,html.Screen,4_105_1,2023-09-08T20:53:53.614Z,,0,,,NaN,,,,,,false,,,,691925.3999999762,691925.1999999285,,691925,,691934.979,8,400,,,
break_continue,html.Screen,4_105_2,2023-09-08T20:53:53.615Z,,0,,,NaN,,,,,,false,,,,691925.7999999523,691925.6999999285,,691925.5,,691934.979,8,400,,,
sequence,flow.Sequence,4_105,2023-09-08T20:53:53.615Z,,0,,,3115.677999928477,completion,,,,,false,,,,691926.1000000238,691925.6999999285,688793.311,688801.3999999762,688810.022,691934.979,8,400,,,
trial,html.Screen,4_106_0,2023-09-08T20:53:56.636Z,,0,3,,3012.320999952266,response,ISIC_0032121.JPG,7,ISIC_4088444.JPG,ISIC_4088444.JPG,false,0,keypress(z),500,694947.5,694947.2999999523,691918.268,691926.1999999285,691934.979,694959.67,8,400,7,,ISIC_0032121.JPG
break,html.Screen,4_106_1,2023-09-08T20:53:56.637Z,,0,,,NaN,,,,,,false,,,,694948.2999999523,694948.1000000238,,694947.6999999285,,694959.67,8,400,,,
break_continue,html.Screen,4_106_2,2023-09-08T20:53:56.638Z,,0,,,NaN,,,,,,false,,,,694948.6999999285,694948.6000000238,,694948.5,,694959.67,8,400,,,
sequence,flow.Sequence,4_106,2023-09-08T20:53:56.638Z,,0,,,3013.6210000237916,completion,,,,,false,,,,694948.8999999762,694948.6000000238,691918.268,691926.1999999285,691934.979,694959.67,8,400,,,
trial,html.Screen,4_107_0,2023-09-08T20:53:59.300Z,,0,3,,2651.5299999284325,response,ISIC_0000000.JPG,8,ISIC_1210011.JPG,ISIC_0000000.JPG,false,1,keypress(m),500,697611.5,697611.1999999285,694942.959,694949.1000000238,694959.67,697616.94,8,400,8,,ISIC_1210011.JPG
break,html.Screen,4_107_1,2023-09-08T20:53:59.301Z,,0,,,NaN,,,,,,false,,,,697612.1999999285,697612.1000000238,,697611.6999999285,,697616.94,8,400,,,
break_continue,html.Screen,4_107_2,2023-09-08T20:53:59.302Z,,0,,,NaN,,,,,,false,,,,697612.6000000238,697612.6000000238,,697612.3999999762,,697616.94,8,400,,,
sequence,flow.Sequence,4_107,2023-09-08T20:53:59.302Z,,0,,,2652.9300000238,completion,,,,,false,,,,697612.7999999523,697612.6000000238,694942.959,694949,694959.67,697616.94,8,400,,,
trial,html.Screen,4_108_0,2023-09-08T20:54:01.979Z,,0,3,,2672.859999952372,response,ISIC_0014800.JPG,9,ISIC_0010837.JPG,ISIC_0010837.JPG,false,0,keypress(z),500,700290,700289.7999999523,697600.229,697613.1000000238,697616.94,700290.7,8,400,9,,ISIC_0014800.JPG
break,html.Screen,4_108_1,2023-09-08T20:54:01.980Z,,0,,,NaN,,,,,,false,,,,700290.6000000238,700290.3999999762,,700290.1000000238,,700290.7,8,400,,,
break_continue,html.Screen,4_108_2,2023-09-08T20:54:01.980Z,,0,,,NaN,,,,,,false,,,,700291,700290.7999999523,,700290.6999999285,,700290.7,8,400,,,
sequence,flow.Sequence,4_108,2023-09-08T20:54:01.980Z,,0,,,2673.859999952372,completion,,,,,false,,,,700291.1000000238,700290.7999999523,697600.229,697613,697616.94,700290.7,8,400,,,
trial,html.Screen,4_109_0,2023-09-08T20:54:06.623Z,,0,3,,4642.999999928521,response,ISIC_6985114.JPG,6,ISIC_0025929.JPG,ISIC_0025929.JPG,false,0,keypress(z),500,704934.1000000238,704933.6999999285,700273.989,700291.2999999523,700290.7,704953.069,8,400,10,,ISIC_6985114.JPG
break,html.Screen,4_109_1,2023-09-08T20:54:06.624Z,,0,,,NaN,,,,,,false,,,,704934.6999999285,704934.5,,704934.2999999523,,704953.069,8,400,,,
break_continue,html.Screen,4_109_2,2023-09-08T20:54:06.624Z,,0,,,NaN,,,,,,false,,,,704935.1000000238,704935,,704934.8999999762,,704953.069,8,400,,,
sequence,flow.Sequence,4_109,2023-09-08T20:54:06.624Z,,0,,,4644.300000000047,completion,,,,,false,,,,704935.3999999762,704935,700273.989,700291.2999999523,700290.7,704953.069,8,400,,,
trial,html.Screen,4_110_0,2023-09-08T20:54:09.798Z,,0,3,,3155.1309999284567,response,ISIC_0059330.JPG,9,ISIC_1798471.JPG,ISIC_1798471.JPG,false,0,keypress(z),500,708108.5,708108.1999999285,704936.358,704935.5,704953.069,708111.664,8,400,11,,ISIC_0059330.JPG
break,html.Screen,4_110_1,2023-09-08T20:54:09.798Z,,0,,,NaN,,,,,,false,,,,708109.2999999523,708109,,708108.6999999285,,708111.664,8,400,,,
break_continue,html.Screen,4_110_2,2023-09-08T20:54:09.799Z,,0,,,NaN,,,,,,false,,,,708109.6999999285,708109.5,,708109.2999999523,,708111.664,8,400,,,
sequence,flow.Sequence,4_110,2023-09-08T20:54:09.799Z,,0,,,3156.4309999999823,completion,,,,,false,,,,708109.8999999762,708109.5,704936.358,704935.5,704953.069,708111.664,8,400,,,
trial,html.Screen,4_111_0,2023-09-08T20:54:13.787Z,,0,3,,3985.436000023852,response,ISIC_2092911.JPG,6,ISIC_2095347.JPG,ISIC_2095347.JPG,false,0,keypress(z),500,712097.3999999762,712097.1000000238,708094.953,708110.1000000238,708111.664,712105.593,8,400,12,,ISIC_2092911.JPG
break,html.Screen,4_111_1,2023-09-08T20:54:13.787Z,,0,,,NaN,,,,,,false,,,,712098.1000000238,712097.8999999762,,712097.6000000238,,712105.593,8,400,,,
break_continue,html.Screen,4_111_2,2023-09-08T20:54:13.788Z,,0,,,NaN,,,,,,false,,,,712098.5,712098.3999999762,,712098.2999999523,,712105.593,8,400,,,
sequence,flow.Sequence,4_111,2023-09-08T20:54:13.788Z,,0,,,3986.7359999761684,completion,,,,,false,,,,712098.6999999285,712098.3999999762,708094.953,708110,708111.664,712105.593,8,400,,,
trial,html.Screen,4_112_0,2023-09-08T20:54:17.749Z,,0,3,,3953.206999952323,response,ISIC_0059350.JPG,7,ISIC_8651765.JPG,ISIC_0059350.JPG,false,1,keypress(m),500,716059.1999999285,716058.7999999523,712088.882,712098.8999999762,712105.593,716066.1,8,400,13,,ISIC_8651765.JPG
break,html.Screen,4_112_1,2023-09-08T20:54:17.750Z,,0,,,NaN,,,,,,false,,,,716060.3999999762,716060.1000000238,,716059.5,,716066.1,8,400,,,
break_continue,html.Screen,4_112_2,2023-09-08T20:54:17.750Z,,0,,,NaN,,,,,,false,,,,716060.7999999523,716060.6000000238,,716060.5,,716066.1,8,400,,,
sequence,flow.Sequence,4_112,2023-09-08T20:54:17.750Z,,0,,,3955.0070000238484,completion,,,,,false,,,,716060.8999999762,716060.6000000238,712088.882,712098.8999999762,712105.593,716066.1,8,400,,,
trial,html.Screen,4_113_0,2023-09-08T20:54:20.798Z,,0,3,,3041.5999999284977,response,ISIC_0005006.JPG,8,ISIC_6265473.JPG,ISIC_0005006.JPG,false,1,keypress(m),500,719108,719107.6999999285,716049.389,716061,716066.1,719124.36,8,400,14,,ISIC_6265473.JPG
break,html.Screen,4_113_1,2023-09-08T20:54:20.798Z,,0,,,NaN,,,,,,false,,,,719108.6999999285,719108.5,,719108.1999999285,,719124.36,8,400,,,
break_continue,html.Screen,4_113_2,2023-09-08T20:54:20.799Z,,0,,,NaN,,,,,,false,,,,719109.1999999285,719109,,719108.8999999762,,719124.36,8,400,,,
sequence,flow.Sequence,4_113,2023-09-08T20:54:20.799Z,,0,,,3042.9000000000233,completion,,,,,false,,,,719109.2999999523,719109,716049.389,716061,716066.1,719124.36,8,400,,,
trial,html.Screen,4_114_0,2023-09-08T20:54:24.195Z,,0,3,,3381.039999976172,response,ISIC_7984646.JPG,4,ISIC_8786606.JPG,ISIC_8786606.JPG,false,0,keypress(z),500,722505.6999999285,722505.3999999762,719107.649,719109.6000000238,719124.36,722516.693,8,400,15,,ISIC_7984646.JPG
break,html.Screen,4_114_1,2023-09-08T20:54:24.196Z,,0,,,NaN,,,,,,false,,,,722506.2999999523,722506.1000000238,,722505.8999999762,,722516.693,8,400,,,
break_continue,html.Screen,4_114_2,2023-09-08T20:54:24.196Z,,0,,,NaN,,,,,,false,,,,722506.7999999523,722506.6999999285,,722506.5,,722516.693,8,400,,,
sequence,flow.Sequence,4_114,2023-09-08T20:54:24.197Z,,0,,,3382.3399999284884,completion,,,,,false,,,,722507,722506.6999999285,719107.649,719109.6000000238,719124.36,722516.693,8,400,,,
trial,html.Screen,4_115_0,2023-09-08T20:54:26.926Z,,0,3,,2719.206999976188,response,ISIC_0032187.JPG,7,ISIC_4253346.JPG,ISIC_4253346.JPG,false,0,keypress(z),500,725236.1000000238,725235.8999999762,722499.982,722507.1999999285,722516.693,725240.586,8,400,16,,ISIC_0032187.JPG
break,html.Screen,4_115_1,2023-09-08T20:54:26.927Z,,0,,,NaN,,,,,,false,,,,725236.7999999523,725236.6000000238,,725236.3999999762,,725240.586,8,400,,,
break_continue,html.Screen,4_115_2,2023-09-08T20:54:26.927Z,,0,,,NaN,,,,,,false,,,,725237.1999999285,725237,,725236.8999999762,,725240.586,8,400,,,
sequence,flow.Sequence,4_115,2023-09-08T20:54:26.927Z,,0,,,2720.30700000003,completion,,,,,false,,,,725237.2999999523,725237,722499.982,722507.1999999285,722516.693,725240.586,8,400,,,
trial,html.Screen,4_116_0,2023-09-08T20:54:32.514Z,,0,3,,5583.41399999999,response,ISIC_0783513.JPG,8,ISIC_7699223.JPG,ISIC_0783513.JPG,false,1,keypress(m),500,730824.2999999523,730824,725223.875,725237.3999999762,725240.586,730838.934,8,400,17,,ISIC_7699223.JPG
break,html.Screen,4_116_1,2023-09-08T20:54:32.515Z,,0,,,NaN,,,,,,false,,,,730825,730824.8999999762,,730824.5,,730838.934,8,400,,,
break_continue,html.Screen,4_116_2,2023-09-08T20:54:32.515Z,,0,,,NaN,,,,,,false,,,,730825.3999999762,730825.2999999523,,730825.1999999285,,730838.934,8,400,,,
sequence,flow.Sequence,4_116,2023-09-08T20:54:32.516Z,,0,,,5584.713999952306,completion,,,,,false,,,,730825.6999999285,730825.2999999523,725223.875,725237.3999999762,725240.586,730838.934,8,400,,,
trial,html.Screen,4_117_0,2023-09-08T20:54:35.608Z,,0,3,,3079.265999928466,response,ISIC_0963536.JPG,7,ISIC_4969996.JPG,ISIC_4969996.JPG,false,0,keypress(z),500,733918.3999999762,733918.1999999285,730822.223,730825.7999999523,730838.934,733930.469,8,400,18,,ISIC_0963536.JPG
break,html.Screen,4_117_1,2023-09-08T20:54:35.609Z,,0,,,NaN,,,,,,false,,,,733919,733918.7999999523,,733918.6000000238,,733930.469,8,400,,,
break_continue,html.Screen,4_117_2,2023-09-08T20:54:35.609Z,,0,,,NaN,,,,,,false,,,,733919.3999999762,733919.1999999285,,733919.1999999285,,733930.469,8,400,,,
sequence,flow.Sequence,4_117,2023-09-08T20:54:35.610Z,,0,,,3080.265999928466,completion,,,,,false,,,,733919.5,733919.1999999285,730822.223,730825.7999999523,730838.934,733930.469,8,400,,,
trial,html.Screen,4_118_0,2023-09-08T20:54:38.494Z,,0,3,,2872.7309999284334,response,ISIC_8431648.JPG,6,ISIC_0024892.JPG,ISIC_8431648.JPG,false,1,keypress(m),500,736803.3999999762,736803.1999999285,733913.758,733919.6999999285,733930.469,736804.761,8,400,19,,ISIC_0024892.JPG
break,html.Screen,4_118_1,2023-09-08T20:54:38.494Z,,0,,,NaN,,,,,,false,,,,736804,736804,,736803.6000000238,,736804.761,8,400,,,
break_continue,html.Screen,4_118_2,2023-09-08T20:54:38.494Z,,0,,,NaN,,,,,,false,,,,736804.3999999762,736804.2999999523,,736804.1999999285,,736804.761,8,400,,,
sequence,flow.Sequence,4_118,2023-09-08T20:54:38.495Z,,0,,,2873.8309999522753,completion,,,,,false,,,,736804.5,736804.2999999523,733913.758,733919.6999999285,733930.469,736804.761,8,400,,,
trial,html.Screen,4_119_0,2023-09-08T20:54:41.425Z,,0,3,,2929.9389999284176,response,ISIC_8910589.JPG,7,ISIC_0065360.JPG,ISIC_8910589.JPG,false,1,keypress(m),500,739734.8999999762,739734.6999999285,736788.05,736804.6000000238,736804.761,739746.173,8,400,20,,ISIC_0065360.JPG
break,html.Screen,4_119_1,2023-09-08T20:54:41.426Z,,0,,,NaN,,,,,,false,,,,739735.6999999285,739735.5,,739735.1000000238,,739746.173,8,400,,,
break_continue,html.Screen,4_119_2,2023-09-08T20:54:41.426Z,,0,,,NaN,,,,,,false,,,,739736.1000000238,739736,,739735.7999999523,,739746.173,8,400,,,
sequence,flow.Sequence,4_119,2023-09-08T20:54:41.427Z,,0,,,2931.238999999943,completion,,,,,false,,,,739736.3999999762,739736,736788.05,736804.6000000238,736804.761,739746.173,8,400,,,
trial,html.Screen,4_120_0,2023-09-08T20:54:44.663Z,,0,3,,3226.026999928523,response,ISIC_0009960.JPG,7,ISIC_0027122.JPG,ISIC_0009960.JPG,false,1,keypress(m),500,742972.3999999762,742972.1999999285,739729.462,739736.5,739746.173,742988.107,8,400,21,,ISIC_0027122.JPG
break,html.Screen,4_120_1,2023-09-08T20:54:44.663Z,,0,,,NaN,,,,,,false,,,,742973.1999999285,742973,,742972.6000000238,,742988.107,8,400,,,
break_continue,html.Screen,4_120_2,2023-09-08T20:54:44.664Z,,0,,,NaN,,,,,,false,,,,742973.6999999285,742973.5,,742973.2999999523,,742988.107,8,400,,,
sequence,flow.Sequence,4_120,2023-09-08T20:54:44.664Z,,0,,,3227.3270000000484,completion,,,,,false,,,,742973.8999999762,742973.5,739729.462,739736.5,739746.173,742988.107,8,400,,,
trial,html.Screen,4_121_0,2023-09-08T20:54:48.030Z,,0,3,,3351.1929999523563,response,ISIC_0028716.JPG,7,ISIC_0000535.JPG,ISIC_0000535.JPG,false,0,keypress(z),500,746339.3999999762,746339.2999999523,742971.396,742974,742988.107,746347.018,8,400,22,,ISIC_0028716.JPG
break,html.Screen,4_121_1,2023-09-08T20:54:48.030Z,,0,,,NaN,,,,,,false,,,,746340,746339.7999999523,,746339.6000000238,,746347.018,8,400,,,
break_continue,html.Screen,4_121_2,2023-09-08T20:54:48.031Z,,0,,,NaN,,,,,,false,,,,746340.2999999523,746340.1999999285,,746340.1999999285,,746347.018,8,400,,,
sequence,flow.Sequence,4_121,2023-09-08T20:54:48.031Z,,0,,,3352.0929999285145,completion,,,,,false,,,,746340.6000000238,746340.1999999285,742971.396,742974,742988.107,746347.018,8,400,,,
trial,html.Screen,4_122_0,2023-09-08T20:54:52.353Z,,0,3,,4315.281999952276,response,ISIC_7266604.JPG,8,ISIC_7017387.JPG,ISIC_7266604.JPG,false,1,keypress(m),500,750662.5,750662.2999999523,746330.307,746340.6999999285,746347.018,750675.333,8,400,23,,ISIC_7017387.JPG
break,html.Screen,4_122_1,2023-09-08T20:54:52.353Z,,0,,,NaN,,,,,,false,,,,750662.8999999762,750662.7999999523,,750662.5,,750675.333,8,400,,,
break_continue,html.Screen,4_122_2,2023-09-08T20:54:52.354Z,,0,,,NaN,,,,,,false,,,,750663.1000000238,750663.1000000238,,750663,,750675.333,8,400,,,
sequence,flow.Sequence,4_122,2023-09-08T20:54:52.354Z,,0,,,4316.082000023802,completion,,,,,false,,,,750663.2999999523,750663.1000000238,746330.307,746340.6000000238,746347.018,750675.333,8,400,,,
trial,html.Screen,4_123_0,2023-09-08T20:54:54.982Z,,0,3,,2615.8669999284903,response,ISIC_3673080.JPG,8,ISIC_0638889.JPG,ISIC_0638889.JPG,false,0,keypress(z),500,753291.5,753291.1999999285,750658.622,750663.3999999762,750675.333,753298.96,8,400,24,,ISIC_3673080.JPG
break,html.Screen,4_123_1,2023-09-08T20:54:54.983Z,,0,,,NaN,,,,,,false,,,,753292.1999999285,753292.1000000238,,753291.6999999285,,753298.96,8,400,,,
break_continue,html.Screen,4_123_2,2023-09-08T20:54:54.983Z,,0,,,NaN,,,,,,false,,,,753292.6999999285,753292.6000000238,,753292.3999999762,,753298.96,8,400,,,
sequence,flow.Sequence,4_123,2023-09-08T20:54:54.983Z,,0,,,2617.2670000238577,completion,,,,,false,,,,753292.8999999762,753292.6000000238,750658.622,750663.2999999523,750675.333,753298.96,8,400,,,
trial,html.Screen,4_124_0,2023-09-08T20:54:57.593Z,,0,3,,2603.640000023879,response,ISIC_0071430.JPG,5,ISIC_0030552.JPG,ISIC_0030552.JPG,false,0,keypress(z),500,755902.7999999523,755902.6000000238,753282.249,753293.1000000238,753298.96,755905.876,8,400,25,,ISIC_0071430.JPG
break,html.Screen,4_124_1,2023-09-08T20:54:57.594Z,,0,,,NaN,,,,,,false,,,,755903.6000000238,755903.3999999762,,755903,,755905.876,8,400,,,
break_continue,html.Screen,4_124_2,2023-09-08T20:54:57.595Z,,0,,,NaN,,,,,,false,,,,755904,755903.8999999762,,755903.6999999285,,755905.876,8,400,,,
sequence,flow.Sequence,4_124,2023-09-08T20:54:57.595Z,,0,,,2604.9399999761954,completion,,,,,false,,,,755904.2999999523,755903.8999999762,753282.249,753293,753298.96,755905.876,8,400,,,
trial,html.Screen,4_125_0,2023-09-08T20:55:00.494Z,,0,3,,2897.323999928427,response,ISIC_0030828.JPG,6,ISIC_0010900.JPG,ISIC_0030828.JPG,false,1,keypress(m),500,758803.5,758803.1999999285,755889.165,755904.5,755905.876,758813.59,8,400,26,,ISIC_0010900.JPG
break,html.Screen,4_125_1,2023-09-08T20:55:00.495Z,,0,,,NaN,,,,,,false,,,,758804.1999999285,758804.1000000238,,758803.6999999285,,758813.59,8,400,,,
break_continue,html.Screen,4_125_2,2023-09-08T20:55:00.495Z,,0,,,NaN,,,,,,false,,,,758804.6999999285,758804.6000000238,,758804.3999999762,,758813.59,8,400,,,
sequence,flow.Sequence,4_125,2023-09-08T20:55:00.496Z,,0,,,2898.7240000237944,completion,,,,,false,,,,758805,758804.6000000238,755889.165,755904.3999999762,755905.876,758813.59,8,400,,,
