sender,sender_type,sender_id,timestamp,meta,,blockNo,condition,duration,ended_on,img_left,img_reveal,img_right,loser,practice,response,response_action,selection_duration,time_commit,time_end,time_render,time_run,time_show,time_switch,total_blocks,total_trials,trialNo,url,winner
informed_consent,html.Screen,0,2023-11-03T01:33:10.814Z,"{""labjs_version"":""20.2.4"",""labjs_build"":{""flavor"":""production"",""commit"":""f5b4a49f956347addd546a832a3327688c2c0fef""},""location"":""https://run.pavlovia.org/MurrayBennett/melanoma-2afc/?participant=66163&platform=sona"",""userAgent"":""Mozilla/5.0 (Windows NT 10.0; Win64; x64) AppleWebKit/537.36 (KHTML, like Gecko) Chrome/118.0.0.0 Safari/537.36"",""platform"":""Win32"",""language"":""en-US"",""locale"":""en-US"",""timeZone"":""America/Chicago"",""timezoneOffset"":300,""screen_width"":1920,""screen_height"":1080,""scroll_width"":1920,""scroll_height"":909,""window_innerWidth"":1920,""window_innerHeight"":957,""devicePixelRatio"":1}",,,,19372.641,response,,,,,,consent,click button,,24035.600000023842,24034.5,4654.915,4656.100000023842,4661.859,24043.139,,,,"{""participant"":""66163"",""platform"":""sona""}",
Welcome,html.Screen,1,2023-11-03T01:33:47.105Z,,,,colourful,36283.661000011925,response,,,,,,continue,click button,,60327.5,60326.80000001192,24029.251,24035.80000001192,24043.139,60340.543,,,,,
trial,html.Screen,2_0_0,2023-11-03T01:33:51.956Z,,0,0,,4836.957000000002,response,ISIC_0063388.JPG,,ISIC_0025593.JPG,ISIC_0063388.JPG,true,1,keypress(m),500,65177.70000001788,65177.5,60326.445,60327.70000001788,60340.543,65180.538,1,6,1,,ISIC_0025593.JPG
sequence,flow.Sequence,2_0,2023-11-03T01:33:51.956Z,,0,,,4836.957000000002,completion,,,,,true,,,,65177.90000000596,65177.5,60326.445,60327.60000002384,60340.543,65180.538,1,6,,,
trial,html.Screen,2_1_0,2023-11-03T01:33:57.397Z,,0,0,,5438.4619999999995,response,ISIC_0028178.JPG,,ISIC_1309015.JPG,ISIC_1309015.JPG,true,0,keypress(z),500,70619,70619,65173.594,65178,65180.538,70631.835,1,6,2,,ISIC_0028178.JPG
sequence,flow.Sequence,2_1,2023-11-03T01:33:57.397Z,,0,,,5438.4619999999995,completion,,,,,true,,,,70619.20000001788,70619,65173.594,65177.90000000596,65180.538,70631.835,1,6,,,
trial,html.Screen,2_2_0,2023-11-03T01:34:03.910Z,,0,0,,6499.865000017875,response,ISIC_0031128.JPG,,ISIC_3314853.JPG,ISIC_3314853.JPG,true,0,keypress(z),500,77131.90000000596,77131.70000001788,70617.873,70619.30000001192,70631.835,77145.537,1,6,3,,ISIC_0031128.JPG
sequence,flow.Sequence,2_2,2023-11-03T01:34:03.910Z,,0,,,6499.865000017875,completion,,,,,true,,,,77132,77131.70000001788,70617.873,70619.30000001192,70631.835,77145.537,1,6,,,
trial,html.Screen,2_3_0,2023-11-03T01:34:09.816Z,,0,0,,5891.063000023845,response,ISIC_0031612.JPG,,ISIC_8980141.JPG,ISIC_8980141.JPG,true,0,keypress(z),500,83036.70000001788,83036.60000002384,77131.487,77132.10000002384,77145.537,83041.096,1,6,4,,ISIC_0031612.JPG
sequence,flow.Sequence,2_3,2023-11-03T01:34:09.816Z,,0,,,5891.063000023845,completion,,,,,true,,,,83036.90000000596,83036.60000002384,77131.487,77132.10000002384,77145.537,83041.096,1,6,,,
trial,html.Screen,2_4_0,2023-11-03T01:34:15.513Z,,0,0,,5692.604000017876,response,ISIC_1197737.JPG,,ISIC_9721604.JPG,ISIC_9721604.JPG,true,0,keypress(z),500,88733.90000000596,88733.70000001788,83034.152,83037.10000002384,83041.096,88735.265,1,6,5,,ISIC_1197737.JPG
sequence,flow.Sequence,2_4,2023-11-03T01:34:15.513Z,,0,,,5692.604000017876,completion,,,,,true,,,,88734.30000001192,88733.70000001788,83034.152,83037,83041.096,88735.265,1,6,,,
trial,html.Screen,2_5_0,2023-11-03T01:34:19.579Z,,0,0,,4064.7350000000006,response,ISIC_0010681.JPG,,ISIC_0025346.JPG,ISIC_0010681.JPG,true,1,keypress(m),500,92800.10000002384,92800,88728.321,88734.60000002384,88735.265,92804.697,1,6,6,,ISIC_0025346.JPG
sequence,flow.Sequence,2_5,2023-11-03T01:34:19.579Z,,0,,,4064.7350000000006,completion,,,,,true,,,,92800.30000001192,92800,88728.321,88734.5,88735.265,92804.697,1,6,,,
loop,flow.Loop,2,2023-11-03T01:34:19.579Z,,,,,32459.457000000002,completion,,,,,true,,,,92800.40000000596,92800,60326.445,60327.60000002384,60340.543,92804.697,1,6,,,
exp_instructions,html.Screen,3,2023-11-03T01:34:33.281Z,,,,,13697.503000017881,response,,,,,,continue,keypress(Space),,106502.60000002384,106502.20000001788,92797.753,92800.5,92804.697,106505.138,,,,,
trial,html.Screen,4_0_0,2023-11-03T01:34:38.307Z,,0,1,,5023.062000017875,response,ISIC_0027838.JPG,5,ISIC_0063289.JPG,ISIC_0027838.JPG,false,1,keypress(m),500,111528.30000001192,111528.20000001788,106498.194,106502.60000002384,106505.138,111533.219,8,400,1,,ISIC_0063289.JPG
break,html.Screen,4_0_1,2023-11-03T01:34:38.308Z,,0,,,NaN,,,,,,false,,,,111528.80000001192,111528.70000001788,,111528.5,,111533.219,8,400,,,
break_continue,html.Screen,4_0_2,2023-11-03T01:34:38.308Z,,0,,,NaN,,,,,,false,,,,111529.10000002384,111528.90000000596,,111528.90000000596,,111533.219,8,400,,,
sequence,flow.Sequence,4_0,2023-11-03T01:34:38.308Z,,0,,,5023.762000005954,completion,,,,,false,,,,111529.10000002384,111528.90000000596,106498.194,106502.60000002384,106505.138,111533.219,8,400,,,
trial,html.Screen,4_1_0,2023-11-03T01:34:41.862Z,,0,1,,3549.681000005963,response,ISIC_0057406.JPG,5,ISIC_3556039.JPG,ISIC_3556039.JPG,false,0,keypress(z),500,115083.10000002384,115082.90000000596,111526.207,111529.30000001192,111533.219,115095.593,8,400,2,,ISIC_0057406.JPG
break,html.Screen,4_1_1,2023-11-03T01:34:41.862Z,,0,,,NaN,,,,,,false,,,,115083.40000000596,115083.30000001192,,115083.20000001788,,115095.593,8,400,,,
break_continue,html.Screen,4_1_2,2023-11-03T01:34:41.862Z,,0,,,NaN,,,,,,false,,,,115083.5,115083.5,,115083.40000000596,,115095.593,8,400,,,
sequence,flow.Sequence,4_1,2023-11-03T01:34:41.862Z,,0,,,3550.2810000000027,completion,,,,,false,,,,115083.5,115083.5,111526.207,111529.20000001788,111533.219,115095.593,8,400,,,
trial,html.Screen,4_2_0,2023-11-03T01:34:45.639Z,,0,1,,3764.5070000238484,response,ISIC_3065253.JPG,5,ISIC_4505178.JPG,ISIC_3065253.JPG,false,1,keypress(m),500,118860.30000001192,118860.10000002384,115081.513,115083.60000002384,115095.593,118866.286,8,400,3,,ISIC_4505178.JPG
break,html.Screen,4_2_1,2023-11-03T01:34:45.639Z,,0,,,NaN,,,,,,false,,,,118860.60000002384,118860.5,,118860.30000001192,,118866.286,8,400,,,
break_continue,html.Screen,4_2_2,2023-11-03T01:34:45.640Z,,0,,,NaN,,,,,,false,,,,118860.70000001788,118860.70000001788,,118860.60000002384,,118866.286,8,400,,,
sequence,flow.Sequence,4_2,2023-11-03T01:34:45.640Z,,0,,,3765.107000017888,completion,,,,,false,,,,118860.90000000596,118860.70000001788,115081.513,115083.60000002384,115095.593,118866.286,8,400,,,
trial,html.Screen,4_3_0,2023-11-03T01:34:51.945Z,,0,1,,6299.514000011928,response,ISIC_0011532.JPG,5,ISIC_0000303.JPG,ISIC_0000303.JPG,false,0,keypress(z),500,125165.90000000596,125165.80000001192,118859.342,118860.90000000596,118866.286,125171.677,8,400,4,,ISIC_0011532.JPG
break,html.Screen,4_3_1,2023-11-03T01:34:51.945Z,,0,,,NaN,,,,,,false,,,,125166.20000001788,125166.10000002384,,125165.90000000596,,125171.677,8,400,,,
break_continue,html.Screen,4_3_2,2023-11-03T01:34:51.945Z,,0,,,NaN,,,,,,false,,,,125166.30000001192,125166.30000001192,,125166.20000001788,,125171.677,8,400,,,
sequence,flow.Sequence,4_3,2023-11-03T01:34:51.945Z,,0,,,6300.014000011928,completion,,,,,false,,,,125166.40000000596,125166.30000001192,118859.342,118860.90000000596,118866.286,125171.677,8,400,,,
trial,html.Screen,4_4_0,2023-11-03T01:34:56.458Z,,0,1,,4507.223000005964,response,ISIC_7580408.JPG,6,ISIC_0029777.JPG,ISIC_7580408.JPG,false,1,keypress(m),500,129679,129678.90000000596,125164.577,125166.40000000596,125171.677,129685.382,8,400,5,,ISIC_0029777.JPG
break,html.Screen,4_4_1,2023-11-03T01:34:56.458Z,,0,,,NaN,,,,,,false,,,,129679.40000000596,129679.30000001192,,129679.10000002384,,129685.382,8,400,,,
break_continue,html.Screen,4_4_2,2023-11-03T01:34:56.458Z,,0,,,NaN,,,,,,false,,,,129679.60000002384,129679.5,,129679.5,,129685.382,8,400,,,
sequence,flow.Sequence,4_4,2023-11-03T01:34:56.458Z,,0,,,4507.823000000004,completion,,,,,false,,,,129679.70000001788,129679.5,125164.577,125166.40000000596,125171.677,129685.382,8,400,,,
trial,html.Screen,4_5_0,2023-11-03T01:35:00.316Z,,0,1,,3851.5180000059627,response,ISIC_0030417.JPG,5,ISIC_8843592.JPG,ISIC_8843592.JPG,false,0,keypress(z),500,133537.10000002384,133536.90000000596,129678.402,129679.70000001788,129685.382,133539.258,8,400,6,,ISIC_0030417.JPG
break,html.Screen,4_5_1,2023-11-03T01:35:00.317Z,,0,,,NaN,,,,,,false,,,,133537.80000001192,133537.60000002384,,133537.30000001192,,133539.258,8,400,,,
break_continue,html.Screen,4_5_2,2023-11-03T01:35:00.317Z,,0,,,NaN,,,,,,false,,,,133538.10000002384,133538.10000002384,,133537.90000000596,,133539.258,8,400,,,
sequence,flow.Sequence,4_5,2023-11-03T01:35:00.317Z,,0,,,3852.718000023844,completion,,,,,false,,,,133538.30000001192,133538.10000002384,129678.402,129679.70000001788,129685.382,133539.258,8,400,,,
trial,html.Screen,4_6_0,2023-11-03T01:35:03.759Z,,0,1,,3440.8420000238402,response,ISIC_0025238.JPG,5,ISIC_5837098.JPG,ISIC_0025238.JPG,false,1,keypress(m),500,136980.20000001788,136980.10000002384,133532.314,133538.5,133539.258,136983.733,8,400,7,,ISIC_5837098.JPG
break,html.Screen,4_6_1,2023-11-03T01:35:03.759Z,,0,,,NaN,,,,,,false,,,,136980.60000002384,136980.60000002384,,136980.30000001192,,136983.733,8,400,,,
break_continue,html.Screen,4_6_2,2023-11-03T01:35:03.760Z,,0,,,NaN,,,,,,false,,,,136980.70000001788,136980.70000001788,,136980.70000001788,,136983.733,8,400,,,
sequence,flow.Sequence,4_6,2023-11-03T01:35:03.760Z,,0,,,3441.4420000178798,completion,,,,,false,,,,136980.80000001192,136980.70000001788,133532.314,133538.40000000596,133539.258,136983.733,8,400,,,
trial,html.Screen,4_7_0,2023-11-03T01:35:07.937Z,,0,1,,4174.367000023834,response,ISIC_7147713.JPG,5,ISIC_0253516.JPG,ISIC_7147713.JPG,false,1,keypress(m),500,141158.30000001192,141158.10000002384,136976.789,136980.80000001192,136983.733,141164.191,8,400,8,,ISIC_0253516.JPG
break,html.Screen,4_7_1,2023-11-03T01:35:07.938Z,,0,,,NaN,,,,,,false,,,,141158.90000000596,141158.70000001788,,141158.5,,141164.191,8,400,,,
break_continue,html.Screen,4_7_2,2023-11-03T01:35:07.938Z,,0,,,NaN,,,,,,false,,,,141159.20000001788,141159.10000002384,,141159,,141164.191,8,400,,,
sequence,flow.Sequence,4_7,2023-11-03T01:35:07.938Z,,0,,,4175.367000023834,completion,,,,,false,,,,141159.30000001192,141159.10000002384,136976.789,136980.80000001192,136983.733,141164.191,8,400,,,
trial,html.Screen,4_8_0,2023-11-03T01:35:10.788Z,,0,1,,2844.50900001789,response,ISIC_0014217.JPG,4,ISIC_8812621.JPG,ISIC_8812621.JPG,false,0,keypress(z),500,144008.80000001192,144008.70000001788,141157.151,141159.40000000596,141164.191,144011.263,8,400,9,,ISIC_0014217.JPG
break,html.Screen,4_8_1,2023-11-03T01:35:10.788Z,,0,,,NaN,,,,,,false,,,,144009.20000001788,144009.20000001788,,144009,,144011.263,8,400,,,
break_continue,html.Screen,4_8_2,2023-11-03T01:35:10.788Z,,0,,,NaN,,,,,,false,,,,144009.40000000596,144009.40000000596,,144009.30000001192,,144011.263,8,400,,,
sequence,flow.Sequence,4_8,2023-11-03T01:35:10.788Z,,0,,,2845.209000005969,completion,,,,,false,,,,144009.5,144009.40000000596,141157.151,141159.30000001192,141164.191,144011.263,8,400,,,
trial,html.Screen,4_9_0,2023-11-03T01:35:14.182Z,,0,1,,3391.437000017875,response,ISIC_0000174.JPG,5,ISIC_0033995.JPG,ISIC_0033995.JPG,false,0,keypress(z),500,147403,147402.70000001788,144004.319,144009.60000002384,144011.263,147407.006,8,400,10,,ISIC_0000174.JPG
break,html.Screen,4_9_1,2023-11-03T01:35:14.182Z,,0,,,NaN,,,,,,false,,,,147403.30000001192,147403.20000001788,,147403.10000002384,,147407.006,8,400,,,
break_continue,html.Screen,4_9_2,2023-11-03T01:35:14.182Z,,0,,,NaN,,,,,,false,,,,147403.60000002384,147403.5,,147403.40000000596,,147407.006,8,400,,,
sequence,flow.Sequence,4_9,2023-11-03T01:35:14.182Z,,0,,,3392.2369999999937,completion,,,,,false,,,,147403.60000002384,147403.5,144004.319,144009.60000002384,144011.263,147407.006,8,400,,,
trial,html.Screen,4_10_0,2023-11-03T01:35:19.752Z,,0,1,,5566.194000017887,response,ISIC_0030831.JPG,5,ISIC_8128335.JPG,ISIC_8128335.JPG,false,0,keypress(z),500,152973.30000001192,152973.20000001788,147399.995,147403.70000001788,147407.006,152976.107,8,400,11,,ISIC_0030831.JPG
break,html.Screen,4_10_1,2023-11-03T01:35:19.753Z,,0,,,NaN,,,,,,false,,,,152973.80000001192,152973.70000001788,,152973.5,,152976.107,8,400,,,
break_continue,html.Screen,4_10_2,2023-11-03T01:35:19.753Z,,0,,,NaN,,,,,,false,,,,152973.90000000596,152973.80000001192,,152973.80000001192,,152976.107,8,400,,,
sequence,flow.Sequence,4_10,2023-11-03T01:35:19.753Z,,0,,,5566.794000011927,completion,,,,,false,,,,152974,152973.80000001192,147399.995,147403.60000002384,147407.006,152976.107,8,400,,,
trial,html.Screen,4_11_0,2023-11-03T01:35:23.067Z,,0,1,,3311.993000023853,response,ISIC_6362735.JPG,5,ISIC_9709594.JPG,ISIC_6362735.JPG,false,1,keypress(m),500,156288.30000001192,156288.10000002384,152969.163,152974.10000002384,152976.107,156302.533,8,400,12,,ISIC_9709594.JPG
break,html.Screen,4_11_1,2023-11-03T01:35:23.068Z,,0,,,NaN,,,,,,false,,,,156288.90000000596,156288.70000001788,,156288.5,,156302.533,8,400,,,
break_continue,html.Screen,4_11_2,2023-11-03T01:35:23.068Z,,0,,,NaN,,,,,,false,,,,156289.30000001192,156289.20000001788,,156289.10000002384,,156302.533,8,400,,,
sequence,flow.Sequence,4_11,2023-11-03T01:35:23.068Z,,0,,,3313.0930000178923,completion,,,,,false,,,,156289.5,156289.20000001788,152969.163,152974,152976.107,156302.533,8,400,,,
trial,html.Screen,4_12_0,2023-11-03T01:35:27.854Z,,0,1,,4772.767000011925,response,ISIC_3401631.JPG,5,ISIC_0029182.JPG,ISIC_0029182.JPG,false,0,keypress(z),500,161075.40000000596,161075.30000001192,156288.653,156289.60000002384,156302.533,161087.104,8,400,13,,ISIC_3401631.JPG
break,html.Screen,4_12_1,2023-11-03T01:35:27.855Z,,0,,,NaN,,,,,,false,,,,161076,161075.80000001192,,161075.5,,161087.104,8,400,,,
break_continue,html.Screen,4_12_2,2023-11-03T01:35:27.855Z,,0,,,NaN,,,,,,false,,,,161076.30000001192,161076.20000001788,,161076.10000002384,,161087.104,8,400,,,
sequence,flow.Sequence,4_12,2023-11-03T01:35:27.855Z,,0,,,4773.667000017886,completion,,,,,false,,,,161076.40000000596,161076.20000001788,156288.653,156289.60000002384,156302.533,161087.104,8,400,,,
trial,html.Screen,4_13_0,2023-11-03T01:35:30.626Z,,0,1,,2759.7960000059684,response,ISIC_0015071.JPG,5,ISIC_4728968.JPG,ISIC_4728968.JPG,false,0,keypress(z),500,163847,163846.90000000596,161073.135,161076.60000002384,161087.104,163857.843,8,400,14,,ISIC_0015071.JPG
break,html.Screen,4_13_1,2023-11-03T01:35:30.626Z,,0,,,NaN,,,,,,false,,,,163847.30000001192,163847.30000001192,,163847.10000002384,,163857.843,8,400,,,
break_continue,html.Screen,4_13_2,2023-11-03T01:35:30.626Z,,0,,,NaN,,,,,,false,,,,163847.40000000596,163847.30000001192,,163847.30000001192,,163857.843,8,400,,,
sequence,flow.Sequence,4_13,2023-11-03T01:35:30.626Z,,0,,,2760.196000011929,completion,,,,,false,,,,163847.5,163847.30000001192,161073.135,161076.5,161087.104,163857.843,8,400,,,
trial,html.Screen,4_14_0,2023-11-03T01:35:38.659Z,,0,1,,8022.6570000000065,response,ISIC_0005762.JPG,5,ISIC_3342474.JPG,ISIC_0005762.JPG,false,1,keypress(m),500,171880.70000001788,171880.5,163843.873,163847.5,163857.843,171892.3,8,400,15,,ISIC_3342474.JPG
break,html.Screen,4_14_1,2023-11-03T01:35:38.660Z,,0,,,NaN,,,,,,false,,,,171881,171881,,171880.80000001192,,171892.3,8,400,,,
break_continue,html.Screen,4_14_2,2023-11-03T01:35:38.660Z,,0,,,NaN,,,,,,false,,,,171881.20000001788,171881.20000001788,,171881.10000002384,,171892.3,8,400,,,
sequence,flow.Sequence,4_14,2023-11-03T01:35:38.660Z,,0,,,8023.357000017888,completion,,,,,false,,,,171881.30000001192,171881.20000001788,163843.873,163847.5,163857.843,171892.3,8,400,,,
trial,html.Screen,4_15_0,2023-11-03T01:35:43.734Z,,0,1,,5062.400000017893,response,ISIC_3686329.JPG,4,ISIC_6201695.JPG,ISIC_6201695.JPG,false,0,keypress(z),500,176954.90000000596,176954.70000001788,171878.425,171881.40000000596,171892.3,176968.522,8,400,16,,ISIC_3686329.JPG
break,html.Screen,4_15_1,2023-11-03T01:35:43.734Z,,0,,,NaN,,,,,,false,,,,176955.30000001192,176955.10000002384,,176955,,176968.522,8,400,,,
break_continue,html.Screen,4_15_2,2023-11-03T01:35:43.734Z,,0,,,NaN,,,,,,false,,,,176955.40000000596,176955.40000000596,,176955.30000001192,,176968.522,8,400,,,
sequence,flow.Sequence,4_15,2023-11-03T01:35:43.734Z,,0,,,5063.100000005972,completion,,,,,false,,,,176955.5,176955.40000000596,171878.425,171881.40000000596,171892.3,176968.522,8,400,,,
trial,html.Screen,4_16_0,2023-11-03T01:35:49.960Z,,0,1,,6212.478000000003,response,ISIC_2752919.JPG,5,ISIC_0010347.JPG,ISIC_0010347.JPG,false,0,keypress(z),500,183181.10000002384,183181,176954.525,176955.60000002384,176968.522,183183.443,8,400,17,,ISIC_2752919.JPG
break,html.Screen,4_16_1,2023-11-03T01:35:49.960Z,,0,,,NaN,,,,,,false,,,,183181.5,183181.40000000596,,183181.20000001788,,183183.443,8,400,,,
break_continue,html.Screen,4_16_2,2023-11-03T01:35:49.961Z,,0,,,NaN,,,,,,false,,,,183181.70000001788,183181.60000002384,,183181.60000002384,,183183.443,8,400,,,
sequence,flow.Sequence,4_16,2023-11-03T01:35:49.961Z,,0,,,6213.078000023845,completion,,,,,false,,,,183181.80000001192,183181.60000002384,176954.525,176955.60000002384,176968.522,183183.443,8,400,,,
trial,html.Screen,4_17_0,2023-11-03T01:35:55.017Z,,0,1,,5055.057000000001,response,ISIC_8281208.JPG,5,ISIC_0062686.JPG,ISIC_8281208.JPG,false,1,keypress(m),500,188238.60000002384,188238.5,183176.499,183181.90000000596,183183.443,188238.871,8,400,18,,ISIC_0062686.JPG
break,html.Screen,4_17_1,2023-11-03T01:35:55.018Z,,0,,,NaN,,,,,,false,,,,188239,188238.80000001192,,188238.70000001788,,188238.871,8,400,,,
break_continue,html.Screen,4_17_2,2023-11-03T01:35:55.018Z,,0,,,NaN,,,,,,false,,,,188239.10000002384,188239,,188239,,188238.871,8,400,,,
sequence,flow.Sequence,4_17,2023-11-03T01:35:55.018Z,,0,,,5055.557000000001,completion,,,,,false,,,,188239.20000001788,188239,183176.499,183181.90000000596,183183.443,188238.871,8,400,,,
trial,html.Screen,4_18_0,2023-11-03T01:36:01.227Z,,0,1,,6209.029000005947,response,ISIC_0002347.JPG,5,ISIC_4404772.JPG,ISIC_0002347.JPG,false,1,keypress(m),500,194448,194447.90000000596,188231.927,188239.30000001192,188238.871,194460.99,8,400,19,,ISIC_4404772.JPG
break,html.Screen,4_18_1,2023-11-03T01:36:01.227Z,,0,,,NaN,,,,,,false,,,,194448.30000001192,194448.30000001192,,194448.10000002384,,194460.99,8,400,,,
break_continue,html.Screen,4_18_2,2023-11-03T01:36:01.227Z,,0,,,NaN,,,,,,false,,,,194448.40000000596,194448.40000000596,,194448.30000001192,,194460.99,8,400,,,
sequence,flow.Sequence,4_18,2023-11-03T01:36:01.227Z,,0,,,6209.529000005947,completion,,,,,false,,,,194448.60000002384,194448.40000000596,188231.927,188239.30000001192,188238.871,194460.99,8,400,,,
trial,html.Screen,4_19_0,2023-11-03T01:36:04.878Z,,0,1,,3637.8100000119302,response,ISIC_0011697.JPG,5,ISIC_2585066.JPG,ISIC_2585066.JPG,false,0,keypress(z),500,198098.90000000596,198098.80000001192,194447.111,194448.60000002384,194460.99,198106.524,8,400,20,,ISIC_0011697.JPG
break,html.Screen,4_19_1,2023-11-03T01:36:04.878Z,,0,,,NaN,,,,,,false,,,,198099.20000001788,198099.20000001788,,198099.10000002384,,198106.524,8,400,,,
break_continue,html.Screen,4_19_2,2023-11-03T01:36:04.878Z,,0,,,NaN,,,,,,false,,,,198099.40000000596,198099.30000001192,,198099.20000001788,,198106.524,8,400,,,
sequence,flow.Sequence,4_19,2023-11-03T01:36:04.878Z,,0,,,3638.3100000119302,completion,,,,,false,,,,198099.40000000596,198099.30000001192,194447.111,194448.60000002384,194460.99,198106.524,8,400,,,
trial,html.Screen,4_20_0,2023-11-03T01:36:08.416Z,,0,1,,3530.475999999995,response,ISIC_0028883.JPG,5,ISIC_0022661.JPG,ISIC_0028883.JPG,false,1,keypress(m),500,201637,201637,198099.58,198099.5,198106.524,201648.207,8,400,21,,ISIC_0022661.JPG
break,html.Screen,4_20_1,2023-11-03T01:36:08.416Z,,0,,,NaN,,,,,,false,,,,201637.40000000596,201637.40000000596,,201637.10000002384,,201648.207,8,400,,,
break_continue,html.Screen,4_20_2,2023-11-03T01:36:08.416Z,,0,,,NaN,,,,,,false,,,,201637.60000002384,201637.60000002384,,201637.5,,201648.207,8,400,,,
sequence,flow.Sequence,4_20,2023-11-03T01:36:08.417Z,,0,,,3531.076000023837,completion,,,,,false,,,,201637.70000001788,201637.60000002384,198099.58,198099.5,198106.524,201648.207,8,400,,,
trial,html.Screen,4_21_0,2023-11-03T01:36:11.859Z,,0,1,,3431.793000000005,response,ISIC_0032586.JPG,4,ISIC_0033947.JPG,ISIC_0033947.JPG,false,0,keypress(z),500,205080.10000002384,205080,201634.343,201637.80000001192,201648.207,205092.6,8,400,22,,ISIC_0032586.JPG
break,html.Screen,4_21_1,2023-11-03T01:36:11.859Z,,0,,,NaN,,,,,,false,,,,205080.5,205080.40000000596,,205080.20000001788,,205092.6,8,400,,,
break_continue,html.Screen,4_21_2,2023-11-03T01:36:11.859Z,,0,,,NaN,,,,,,false,,,,205080.60000002384,205080.60000002384,,205080.5,,205092.6,8,400,,,
sequence,flow.Sequence,4_21,2023-11-03T01:36:11.860Z,,0,,,3432.393000023847,completion,,,,,false,,,,205080.80000001192,205080.60000002384,201634.343,201637.80000001192,201648.207,205092.6,8,400,,,
trial,html.Screen,4_22_0,2023-11-03T01:36:17.893Z,,0,1,,6021.200000011915,response,ISIC_0006331.JPG,6,ISIC_7303761.JPG,ISIC_0006331.JPG,false,1,keypress(m),500,211114,211113.80000001192,205078.672,205080.90000000596,205092.6,211120.141,8,400,23,,ISIC_7303761.JPG
break,html.Screen,4_22_1,2023-11-03T01:36:17.893Z,,0,,,NaN,,,,,,false,,,,211114.40000000596,211114.30000001192,,211114.10000002384,,211120.141,8,400,,,
break_continue,html.Screen,4_22_2,2023-11-03T01:36:17.893Z,,0,,,NaN,,,,,,false,,,,211114.5,211114.40000000596,,211114.40000000596,,211120.141,8,400,,,
sequence,flow.Sequence,4_22,2023-11-03T01:36:17.893Z,,0,,,6021.800000005955,completion,,,,,false,,,,211114.60000002384,211114.40000000596,205078.672,205080.80000001192,205092.6,211120.141,8,400,,,
trial,html.Screen,4_23_0,2023-11-03T01:36:21.255Z,,0,1,,3356.059000017878,response,ISIC_0062286.JPG,5,ISIC_0068886.JPG,ISIC_0062286.JPG,false,1,keypress(m),500,214476.40000000596,214476.20000001788,211113.195,211114.70000001788,211120.141,214488.123,8,400,24,,ISIC_0068886.JPG
break,html.Screen,4_23_1,2023-11-03T01:36:21.256Z,,0,,,NaN,,,,,,false,,,,214477.10000002384,214476.90000000596,,214476.60000002384,,214488.123,8,400,,,
break_continue,html.Screen,4_23_2,2023-11-03T01:36:21.256Z,,0,,,NaN,,,,,,false,,,,214477.40000000596,214477.30000001192,,214477.20000001788,,214488.123,8,400,,,
sequence,flow.Sequence,4_23,2023-11-03T01:36:21.256Z,,0,,,3357.1590000119177,completion,,,,,false,,,,214477.60000002384,214477.30000001192,211113.195,211114.70000001788,211120.141,214488.123,8,400,,,
trial,html.Screen,4_24_0,2023-11-03T01:36:26.474Z,,0,1,,5206.9770000238495,response,ISIC_7833178.JPG,5,ISIC_9022005.JPG,ISIC_9022005.JPG,false,0,keypress(z),500,219695.20000001788,219695.10000002384,214474.142,214477.70000001788,214488.123,219696.089,8,400,25,,ISIC_7833178.JPG
break,html.Screen,4_24_1,2023-11-03T01:36:26.474Z,,0,,,NaN,,,,,,false,,,,219695.60000002384,219695.5,,219695.30000001192,,219696.089,8,400,,,
break_continue,html.Screen,4_24_2,2023-11-03T01:36:26.475Z,,0,,,NaN,,,,,,false,,,,219695.80000001192,219695.70000001788,,219695.60000002384,,219696.089,8,400,,,
sequence,flow.Sequence,4_24,2023-11-03T01:36:26.475Z,,0,,,5207.577000017889,completion,,,,,false,,,,219695.80000001192,219695.70000001788,214474.142,214477.70000001788,214488.123,219696.089,8,400,,,
trial,html.Screen,4_25_0,2023-11-03T01:36:30.236Z,,0,1,,3761.410999999993,response,ISIC_0011136.JPG,5,ISIC_8689583.JPG,ISIC_0011136.JPG,false,1,keypress(m),500,223457.60000002384,223457.5,219689.145,219695.90000000596,219696.089,223459.951,8,400,26,,ISIC_8689583.JPG
break,html.Screen,4_25_1,2023-11-03T01:36:30.237Z,,0,,,NaN,,,,,,false,,,,223457.90000000596,223457.90000000596,,223457.80000001192,,223459.951,8,400,,,
break_continue,html.Screen,4_25_2,2023-11-03T01:36:30.237Z,,0,,,NaN,,,,,,false,,,,223458.10000002384,223458,,223458,,223459.951,8,400,,,
sequence,flow.Sequence,4_25,2023-11-03T01:36:30.237Z,,0,,,3761.910999999993,completion,,,,,false,,,,223458.20000001788,223458,219689.145,219695.80000001192,219696.089,223459.951,8,400,,,
trial,html.Screen,4_26_0,2023-11-03T01:36:34.303Z,,0,1,,4064.34900001192,response,ISIC_0073086.JPG,5,ISIC_0062576.JPG,ISIC_0073086.JPG,false,1,keypress(m),500,227524.5,227524.30000001192,223453.007,223458.30000001192,223459.951,227529.276,8,400,27,,ISIC_0062576.JPG
break,html.Screen,4_26_1,2023-11-03T01:36:34.304Z,,0,,,NaN,,,,,,false,,,,227525.10000002384,227525,,227524.70000001788,,227529.276,8,400,,,
break_continue,html.Screen,4_26_2,2023-11-03T01:36:34.304Z,,0,,,NaN,,,,,,false,,,,227525.5,227525.40000000596,,227525.30000001192,,227529.276,8,400,,,
sequence,flow.Sequence,4_26,2023-11-03T01:36:34.304Z,,0,,,4065.4490000059595,completion,,,,,false,,,,227525.70000001788,227525.40000000596,223453.007,223458.20000001788,223459.951,227529.276,8,400,,,
trial,html.Screen,4_27_0,2023-11-03T01:36:39.668Z,,0,1,,5359.624000005948,response,ISIC_3975743.JPG,4,ISIC_0010500.JPG,ISIC_3975743.JPG,false,1,keypress(m),500,232889,232888.90000000596,227522.332,227525.80000001192,227529.276,232890.783,8,400,28,,ISIC_0010500.JPG
break,html.Screen,4_27_1,2023-11-03T01:36:39.668Z,,0,,,NaN,,,,,,false,,,,232889.40000000596,232889.30000001192,,232889.10000002384,,232890.783,8,400,,,
break_continue,html.Screen,4_27_2,2023-11-03T01:36:39.668Z,,0,,,NaN,,,,,,false,,,,232889.5,232889.5,,232889.5,,232890.783,8,400,,,
sequence,flow.Sequence,4_27,2023-11-03T01:36:39.668Z,,0,,,5360.223999999987,completion,,,,,false,,,,232889.60000002384,232889.5,227522.332,227525.80000001192,227529.276,232890.783,8,400,,,
trial,html.Screen,4_28_0,2023-11-03T01:36:45.061Z,,0,1,,5391.417000017886,response,ISIC_0064669.JPG,5,ISIC_6526489.JPG,ISIC_0064669.JPG,false,1,keypress(m),500,238282.30000001192,238282.20000001788,232883.839,232889.60000002384,232890.783,238285.744,8,400,29,,ISIC_6526489.JPG
break,html.Screen,4_28_1,2023-11-03T01:36:45.061Z,,0,,,NaN,,,,,,false,,,,238282.70000001788,238282.60000002384,,238282.40000000596,,238285.744,8,400,,,
break_continue,html.Screen,4_28_2,2023-11-03T01:36:45.062Z,,0,,,NaN,,,,,,false,,,,238282.80000001192,238282.80000001192,,238282.70000001788,,238285.744,8,400,,,
sequence,flow.Sequence,4_28,2023-11-03T01:36:45.062Z,,0,,,5392.017000011925,completion,,,,,false,,,,238282.90000000596,238282.80000001192,232883.839,232889.60000002384,232890.783,238285.744,8,400,,,
trial,html.Screen,4_29_0,2023-11-03T01:36:48.807Z,,0,1,,3742.356000023836,response,ISIC_9470876.JPG,5,ISIC_0056534.JPG,ISIC_9470876.JPG,false,1,keypress(m),500,242028.30000001192,242028.10000002384,238278.8,238283,238285.744,242042.719,8,400,30,,ISIC_0056534.JPG
break,html.Screen,4_29_1,2023-11-03T01:36:48.808Z,,0,,,NaN,,,,,,false,,,,242028.90000000596,242028.90000000596,,242028.5,,242042.719,8,400,,,
break_continue,html.Screen,4_29_2,2023-11-03T01:36:48.808Z,,0,,,NaN,,,,,,false,,,,242029.30000001192,242029.20000001788,,242029.10000002384,,242042.719,8,400,,,
sequence,flow.Sequence,4_29,2023-11-03T01:36:48.808Z,,0,,,3743.4560000178753,completion,,,,,false,,,,242029.5,242029.20000001788,238278.8,238283,238285.744,242042.719,8,400,,,
trial,html.Screen,4_30_0,2023-11-03T01:36:51.770Z,,0,1,,2947.9810000178695,response,ISIC_0071289.JPG,5,ISIC_0228772.JPG,ISIC_0228772.JPG,false,0,keypress(z),500,244990.80000001192,244990.70000001788,242028.775,242029.60000002384,242042.719,245000.956,8,400,31,,ISIC_0071289.JPG
break,html.Screen,4_30_1,2023-11-03T01:36:51.770Z,,0,,,NaN,,,,,,false,,,,244991.10000002384,244991.10000002384,,244990.90000000596,,245000.956,8,400,,,
break_continue,html.Screen,4_30_2,2023-11-03T01:36:51.770Z,,0,,,NaN,,,,,,false,,,,244991.30000001192,244991.30000001192,,244991.30000001192,,245000.956,8,400,,,
sequence,flow.Sequence,4_30,2023-11-03T01:36:51.770Z,,0,,,2948.581000011909,completion,,,,,false,,,,244991.5,244991.30000001192,242028.775,242029.60000002384,242042.719,245000.956,8,400,,,
trial,html.Screen,4_31_0,2023-11-03T01:36:55.243Z,,0,1,,3463.444000005955,response,ISIC_8699453.JPG,4,ISIC_0890398.JPG,ISIC_8699453.JPG,false,1,keypress(m),500,248464.60000002384,248464.40000000596,244987.063,244991.5,245000.956,248465.896,8,400,32,,ISIC_0890398.JPG
break,html.Screen,4_31_1,2023-11-03T01:36:55.244Z,,0,,,NaN,,,,,,false,,,,248464.80000001192,248464.80000001192,,248464.60000002384,,248465.896,8,400,,,
break_continue,html.Screen,4_31_2,2023-11-03T01:36:55.244Z,,0,,,NaN,,,,,,false,,,,248465,248465,,248464.90000000596,,248465.896,8,400,,,
sequence,flow.Sequence,4_31,2023-11-03T01:36:55.244Z,,0,,,3464.0439999999944,completion,,,,,false,,,,248465.10000002384,248465,244987.063,244991.5,245000.956,248465.896,8,400,,,
trial,html.Screen,4_32_0,2023-11-03T01:37:00.941Z,,0,1,,5695.904000011913,response,ISIC_1343433.JPG,5,ISIC_0024423.JPG,ISIC_0024423.JPG,false,0,keypress(z),500,254161.90000000596,254161.80000001192,248458.952,248465.10000002384,248465.896,254167.296,8,400,33,,ISIC_1343433.JPG
break,html.Screen,4_32_1,2023-11-03T01:37:00.941Z,,0,,,NaN,,,,,,false,,,,254162.20000001788,254162.10000002384,,254161.90000000596,,254167.296,8,400,,,
break_continue,html.Screen,4_32_2,2023-11-03T01:37:00.941Z,,0,,,NaN,,,,,,false,,,,254162.40000000596,254162.30000001192,,254162.20000001788,,254167.296,8,400,,,
sequence,flow.Sequence,4_32,2023-11-03T01:37:00.941Z,,0,,,5696.404000011913,completion,,,,,false,,,,254162.40000000596,254162.30000001192,248458.952,248465.10000002384,248465.896,254167.296,8,400,,,
trial,html.Screen,4_33_0,2023-11-03T01:37:04.190Z,,0,1,,3243.4040000178793,response,ISIC_7297078.JPG,5,ISIC_8795740.JPG,ISIC_8795740.JPG,false,0,keypress(z),500,257410.90000000596,257410.70000001788,254160.291,254162.40000000596,254167.296,257417.197,8,400,34,,ISIC_7297078.JPG
break,html.Screen,4_33_1,2023-11-03T01:37:04.190Z,,0,,,NaN,,,,,,false,,,,257411.30000001192,257411.20000001788,,257411,,257417.197,8,400,,,
break_continue,html.Screen,4_33_2,2023-11-03T01:37:04.190Z,,0,,,NaN,,,,,,false,,,,257411.40000000596,257411.40000000596,,257411.40000000596,,257417.197,8,400,,,
sequence,flow.Sequence,4_33,2023-11-03T01:37:04.190Z,,0,,,3244.1040000059584,completion,,,,,false,,,,257411.60000002384,257411.40000000596,254160.291,254162.40000000596,254167.296,257417.197,8,400,,,
trial,html.Screen,4_34_0,2023-11-03T01:37:07.008Z,,0,1,,2811.503000017896,response,ISIC_0011185.JPG,4,ISIC_3273370.JPG,ISIC_3273370.JPG,false,0,keypress(z),500,260228.80000001192,260228.70000001788,257410.158,257411.60000002384,257417.197,260229.511,8,400,35,,ISIC_0011185.JPG
break,html.Screen,4_34_1,2023-11-03T01:37:07.008Z,,0,,,NaN,,,,,,false,,,,260229.20000001788,260229.10000002384,,260229,,260229.511,8,400,,,
break_continue,html.Screen,4_34_2,2023-11-03T01:37:07.008Z,,0,,,NaN,,,,,,false,,,,260229.40000000596,260229.30000001192,,260229.20000001788,,260229.511,8,400,,,
sequence,flow.Sequence,4_34,2023-11-03T01:37:07.008Z,,0,,,2812.1030000119354,completion,,,,,false,,,,260229.40000000596,260229.30000001192,257410.158,257411.60000002384,257417.197,260229.511,8,400,,,
trial,html.Screen,4_35_0,2023-11-03T01:37:10.465Z,,0,1,,3456.4890000000014,response,ISIC_0024958.JPG,4,ISIC_4745475.JPG,ISIC_4745475.JPG,false,0,keypress(z),500,263686.2000000179,263686,260222.567,260229.5,260229.511,263687.791,8,400,36,,ISIC_0024958.JPG
break,html.Screen,4_35_1,2023-11-03T01:37:10.465Z,,0,,,NaN,,,,,,false,,,,263686.60000002384,263686.40000000596,,263686.40000000596,,263687.791,8,400,,,
break_continue,html.Screen,4_35_2,2023-11-03T01:37:10.465Z,,0,,,NaN,,,,,,false,,,,263686.8000000119,263686.7000000179,,263686.60000002384,,263687.791,8,400,,,
sequence,flow.Sequence,4_35,2023-11-03T01:37:10.466Z,,0,,,3457.189000017883,completion,,,,,false,,,,263686.8000000119,263686.7000000179,260222.567,260229.5,260229.511,263687.791,8,400,,,
trial,html.Screen,4_36_0,2023-11-03T01:37:13.955Z,,0,1,,3488.609000005934,response,ISIC_6523459.JPG,4,ISIC_8637134.JPG,ISIC_6523459.JPG,false,1,keypress(m),500,267176.5,267176.40000000596,263680.847,263686.90000000596,263687.791,267180.76,8,400,37,,ISIC_8637134.JPG
break,html.Screen,4_36_1,2023-11-03T01:37:13.956Z,,0,,,NaN,,,,,,false,,,,267176.8000000119,267176.7000000179,,267176.5,,267180.76,8,400,,,
break_continue,html.Screen,4_36_2,2023-11-03T01:37:13.956Z,,0,,,NaN,,,,,,false,,,,267176.90000000596,267176.90000000596,,267176.8000000119,,267180.76,8,400,,,
sequence,flow.Sequence,4_36,2023-11-03T01:37:13.956Z,,0,,,3489.109000005934,completion,,,,,false,,,,267177,267176.90000000596,263680.847,263686.90000000596,263687.791,267180.76,8,400,,,
trial,html.Screen,4_37_0,2023-11-03T01:37:16.933Z,,0,1,,2972.940000017872,response,ISIC_0067798.JPG,5,ISIC_1514401.JPG,ISIC_1514401.JPG,false,0,keypress(z),500,270154,270153.7000000179,267173.786,267177,267180.76,270159.815,8,400,38,,ISIC_0067798.JPG
break,html.Screen,4_37_1,2023-11-03T01:37:16.933Z,,0,,,NaN,,,,,,false,,,,270154.3000000119,270154.3000000119,,270154.10000002384,,270159.815,8,400,,,
break_continue,html.Screen,4_37_2,2023-11-03T01:37:16.933Z,,0,,,NaN,,,,,,false,,,,270154.40000000596,270154.40000000596,,270154.3000000119,,270159.815,8,400,,,
sequence,flow.Sequence,4_37,2023-11-03T01:37:16.933Z,,0,,,2973.640000005951,completion,,,,,false,,,,270154.40000000596,270154.40000000596,267173.786,267177,267180.76,270159.815,8,400,,,
trial,html.Screen,4_38_0,2023-11-03T01:37:20.871Z,,0,1,,3931.9850000119186,response,ISIC_0009735.JPG,5,ISIC_0031844.JPG,ISIC_0009735.JPG,false,1,keypress(m),500,274092,274091.8000000119,270152.769,270154.5,270159.815,274097.052,8,400,39,,ISIC_0031844.JPG
break,html.Screen,4_38_1,2023-11-03T01:37:20.871Z,,0,,,NaN,,,,,,false,,,,274092.3000000119,274092.2000000179,,274092,,274097.052,8,400,,,
break_continue,html.Screen,4_38_2,2023-11-03T01:37:20.871Z,,0,,,NaN,,,,,,false,,,,274092.40000000596,274092.40000000596,,274092.40000000596,,274097.052,8,400,,,
sequence,flow.Sequence,4_38,2023-11-03T01:37:20.871Z,,0,,,3932.585000005958,completion,,,,,false,,,,274092.60000002384,274092.40000000596,270152.769,270154.5,270159.815,274097.052,8,400,,,
trial,html.Screen,4_39_0,2023-11-03T01:37:24.424Z,,0,1,,3548.3480000059353,response,ISIC_0032244.JPG,5,ISIC_0032995.JPG,ISIC_0032995.JPG,false,0,keypress(z),500,277645.60000002384,277645.40000000596,274090.1,274092.60000002384,274097.052,277652.608,8,400,40,,ISIC_0032244.JPG
break,html.Screen,4_39_1,2023-11-03T01:37:24.425Z,,0,,,NaN,,,,,,false,,,,277646,277645.90000000596,,277645.7000000179,,277652.608,8,400,,,
break_continue,html.Screen,4_39_2,2023-11-03T01:37:24.425Z,,0,,,NaN,,,,,,false,,,,277646.10000002384,277646,,277646,,277652.608,8,400,,,
sequence,flow.Sequence,4_39,2023-11-03T01:37:24.425Z,,0,,,3548.947999999975,completion,,,,,false,,,,277646.2000000179,277646,274090.1,274092.60000002384,274097.052,277652.608,8,400,,,
trial,html.Screen,4_40_0,2023-11-03T01:37:29.690Z,,0,1,,5258.1920000119135,response,ISIC_0024527.JPG,5,ISIC_2740756.JPG,ISIC_2740756.JPG,false,0,keypress(z),500,282910.90000000596,282910.8000000119,277645.628,277646.3000000119,277652.608,282916.37,8,400,41,,ISIC_0024527.JPG
break,html.Screen,4_40_1,2023-11-03T01:37:29.690Z,,0,,,NaN,,,,,,false,,,,282911.3000000119,282911.10000002384,,282911,,282916.37,8,400,,,
break_continue,html.Screen,4_40_2,2023-11-03T01:37:29.690Z,,0,,,NaN,,,,,,false,,,,282911.40000000596,282911.40000000596,,282911.40000000596,,282916.37,8,400,,,
sequence,flow.Sequence,4_40,2023-11-03T01:37:29.690Z,,0,,,5258.792000005953,completion,,,,,false,,,,282911.60000002384,282911.40000000596,277645.628,277646.3000000119,277652.608,282916.37,8,400,,,
trial,html.Screen,4_41_0,2023-11-03T01:37:32.844Z,,0,1,,3148.4300000119256,response,ISIC_0060760.JPG,5,ISIC_0070163.JPG,ISIC_0060760.JPG,false,1,keypress(m),500,286065,286064.8000000119,282909.289,282911.60000002384,282916.37,286069.007,8,400,42,,ISIC_0070163.JPG
break,html.Screen,4_41_1,2023-11-03T01:37:32.844Z,,0,,,NaN,,,,,,false,,,,286065.2000000179,286065.2000000179,,286065.10000002384,,286069.007,8,400,,,
break_continue,html.Screen,4_41_2,2023-11-03T01:37:32.844Z,,0,,,NaN,,,,,,false,,,,286065.40000000596,286065.40000000596,,286065.3000000119,,286069.007,8,400,,,
sequence,flow.Sequence,4_41,2023-11-03T01:37:32.844Z,,0,,,3149.030000005965,completion,,,,,false,,,,286065.40000000596,286065.40000000596,282909.289,282911.60000002384,282916.37,286069.007,8,400,,,
trial,html.Screen,4_42_0,2023-11-03T01:37:36.045Z,,0,1,,3196.9930000000168,response,ISIC_7658133.JPG,5,ISIC_0057898.JPG,ISIC_7658133.JPG,false,1,keypress(m),500,289266.2000000179,289266,286062.02,286065.40000000596,286069.007,289270.288,8,400,43,,ISIC_0057898.JPG
break,html.Screen,4_42_1,2023-11-03T01:37:36.045Z,,0,,,NaN,,,,,,false,,,,289266.5,289266.40000000596,,289266.3000000119,,289270.288,8,400,,,
break_continue,html.Screen,4_42_2,2023-11-03T01:37:36.045Z,,0,,,NaN,,,,,,false,,,,289266.7000000179,289266.7000000179,,289266.60000002384,,289270.288,8,400,,,
sequence,flow.Sequence,4_42,2023-11-03T01:37:36.045Z,,0,,,3197.693000017898,completion,,,,,false,,,,289266.8000000119,289266.7000000179,286062.02,286065.40000000596,286069.007,289270.288,8,400,,,
trial,html.Screen,4_43_0,2023-11-03T01:37:40.607Z,,0,1,,4557.7119999999995,response,ISIC_6118204.JPG,4,ISIC_9103090.JPG,ISIC_6118204.JPG,false,1,keypress(m),500,293828.10000002384,293828,289263.172,289266.90000000596,289270.288,293839.576,8,400,44,,ISIC_9103090.JPG
break,html.Screen,4_43_1,2023-11-03T01:37:40.607Z,,0,,,NaN,,,,,,false,,,,293828.60000002384,293828.40000000596,,293828.3000000119,,293839.576,8,400,,,
break_continue,html.Screen,4_43_2,2023-11-03T01:37:40.607Z,,0,,,NaN,,,,,,false,,,,293828.7000000179,293828.60000002384,,293828.60000002384,,293839.576,8,400,,,
sequence,flow.Sequence,4_43,2023-11-03T01:37:40.608Z,,0,,,4558.312000023841,completion,,,,,false,,,,293828.8000000119,293828.60000002384,289263.172,289266.8000000119,289270.288,293839.576,8,400,,,
trial,html.Screen,4_44_0,2023-11-03T01:37:43.569Z,,0,1,,2950.72400001192,response,ISIC_0064060.JPG,5,ISIC_0030296.JPG,ISIC_0030296.JPG,false,0,keypress(z),500,296790.40000000596,296790.3000000119,293825.581,293828.8000000119,293839.576,296790.85,8,400,45,,ISIC_0064060.JPG
break,html.Screen,4_44_1,2023-11-03T01:37:43.570Z,,0,,,NaN,,,,,,false,,,,296790.8000000119,296790.7000000179,,296790.5,,296790.85,8,400,,,
break_continue,html.Screen,4_44_2,2023-11-03T01:37:43.570Z,,0,,,NaN,,,,,,false,,,,296791,296790.90000000596,,296790.8000000119,,296790.85,8,400,,,
sequence,flow.Sequence,4_44,2023-11-03T01:37:43.570Z,,0,,,2951.3240000059595,completion,,,,,false,,,,296791.10000002384,296790.90000000596,293825.581,293828.8000000119,293839.576,296790.85,8,400,,,
trial,html.Screen,4_45_0,2023-11-03T01:37:46.755Z,,0,1,,3185.250000023865,response,ISIC_8002729.JPG,4,ISIC_3541663.JPG,ISIC_8002729.JPG,false,1,keypress(m),500,299976.2000000179,299976.10000002384,296783.906,296791.10000002384,296790.85,299978.214,8,400,46,,ISIC_3541663.JPG
break,html.Screen,4_45_1,2023-11-03T01:37:46.755Z,,0,,,NaN,,,,,,false,,,,299976.5,299976.40000000596,,299976.3000000119,,299978.214,8,400,,,
break_continue,html.Screen,4_45_2,2023-11-03T01:37:46.755Z,,0,,,NaN,,,,,,false,,,,299976.60000002384,299976.60000002384,,299976.5,,299978.214,8,400,,,
sequence,flow.Sequence,4_45,2023-11-03T01:37:46.756Z,,0,,,3185.750000023865,completion,,,,,false,,,,299976.8000000119,299976.60000002384,296783.906,296791.10000002384,296790.85,299978.214,8,400,,,
trial,html.Screen,4_46_0,2023-11-03T01:37:50.022Z,,0,1,,3264.8860000238637,response,ISIC_2486088.JPG,5,ISIC_6701139.JPG,ISIC_6701139.JPG,false,0,keypress(z),500,303243.3000000119,303243.10000002384,299971.27,299976.8000000119,299978.214,303248.982,8,400,47,,ISIC_2486088.JPG
break,html.Screen,4_46_1,2023-11-03T01:37:50.022Z,,0,,,NaN,,,,,,false,,,,303243.60000002384,303243.5,,303243.3000000119,,303248.982,8,400,,,
break_continue,html.Screen,4_46_2,2023-11-03T01:37:50.023Z,,0,,,NaN,,,,,,false,,,,303243.8000000119,303243.8000000119,,303243.7000000179,,303248.982,8,400,,,
sequence,flow.Sequence,4_46,2023-11-03T01:37:50.023Z,,0,,,3265.586000011943,completion,,,,,false,,,,303243.90000000596,303243.8000000119,299971.27,299976.8000000119,299978.214,303248.982,8,400,,,
trial,html.Screen,4_47_0,2023-11-03T01:37:54.407Z,,0,1,,4379.517999999982,response,ISIC_0029913.JPG,5,ISIC_4371210.JPG,ISIC_0029913.JPG,false,1,keypress(m),500,307628.5,307628.5,303241.875,303243.90000000596,303248.982,307630.71,8,400,48,,ISIC_4371210.JPG
break,html.Screen,4_47_1,2023-11-03T01:37:54.408Z,,0,,,NaN,,,,,,false,,,,307628.8000000119,307628.7000000179,,307628.60000002384,,307630.71,8,400,,,
break_continue,html.Screen,4_47_2,2023-11-03T01:37:54.408Z,,0,,,NaN,,,,,,false,,,,307629,307628.90000000596,,307628.8000000119,,307630.71,8,400,,,
sequence,flow.Sequence,4_47,2023-11-03T01:37:54.408Z,,0,,,4379.918000005942,completion,,,,,false,,,,307629,307628.90000000596,303241.875,303243.90000000596,303248.982,307630.71,8,400,,,
trial,html.Screen,4_48_0,2023-11-03T01:37:58.825Z,,0,1,,4415.0900000119,response,ISIC_7233368.JPG,6,ISIC_0033059.JPG,ISIC_0033059.JPG,false,0,keypress(z),500,312046,312045.8000000119,307623.766,307629,307630.71,312047.224,8,400,49,,ISIC_7233368.JPG
break,html.Screen,4_48_1,2023-11-03T01:37:58.825Z,,0,,,NaN,,,,,,false,,,,312046.3000000119,312046.3000000119,,312046,,312047.224,8,400,,,
break_continue,html.Screen,4_48_2,2023-11-03T01:37:58.825Z,,0,,,NaN,,,,,,false,,,,312046.5,312046.40000000596,,312046.40000000596,,312047.224,8,400,,,
sequence,flow.Sequence,4_48,2023-11-03T01:37:58.825Z,,0,,,4415.6900000059395,completion,,,,,false,,,,312046.60000002384,312046.40000000596,307623.766,307629,307630.71,312047.224,8,400,,,
trial,html.Screen,4_49_0,2023-11-03T01:38:02.699Z,,0,1,,3872.676000005973,response,ISIC_4692454.JPG,4,ISIC_9008095.JPG,ISIC_4692454.JPG,false,1,keypress(m),500,315920.10000002384,315919.90000000596,312040.28,312046.7000000179,312047.224,315922.128,8,400,50,,ISIC_9008095.JPG
break,html.Screen,4_49_1,2023-11-03T01:38:12.694Z,,0,,,9999.72199999995,timeout,,,,,false,,,,325915.2000000179,325914.908,315915.184,315920.10000002384,315922.128,325921.85,8,400,,,
break_continue,html.Screen,4_49_2,2023-11-03T01:38:20.831Z,,0,,,8120.050000005984,response,,,,,false,continue,keypress(Space),,334052.40000000596,334041.90000000596,325914.908,325915.3000000119,325921.85,334053.274,8,400,,,
sequence,flow.Sequence,4_49,2023-11-03T01:38:20.831Z,,0,,,21994.676000005973,completion,,,,,false,,,,334052.5,334041.90000000596,312040.28,312046.60000002384,312047.224,334053.274,8,400,,,
trial,html.Screen,4_50_0,2023-11-03T01:38:24.336Z,,0,2,,3504.4260000179056,response,ISIC_6609484.JPG,5,ISIC_0058946.JPG,ISIC_0058946.JPG,false,0,keypress(z),500,337557.8000000119,337557.7000000179,334046.33,334052.7000000179,334053.274,337560.199,8,400,1,,ISIC_6609484.JPG
break,html.Screen,4_50_1,2023-11-03T01:38:24.337Z,,0,,,NaN,,,,,,false,,,,337558.2000000179,337558.10000002384,,337558,,337560.199,8,400,,,
break_continue,html.Screen,4_50_2,2023-11-03T01:38:24.337Z,,0,,,NaN,,,,,,false,,,,337558.40000000596,337558.40000000596,,337558.40000000596,,337560.199,8,400,,,
sequence,flow.Sequence,4_50,2023-11-03T01:38:24.337Z,,0,,,3505.1260000059847,completion,,,,,false,,,,337558.5,337558.40000000596,334046.33,334052.7000000179,334053.274,337560.199,8,400,,,
trial,html.Screen,4_51_0,2023-11-03T01:38:28.914Z,,0,2,,4575.201000005938,response,ISIC_1396573.JPG,5,ISIC_6855540.JPG,ISIC_1396573.JPG,false,1,keypress(m),500,342135.60000002384,342135.40000000596,337553.255,337558.5,337560.199,342136.477,8,400,2,,ISIC_6855540.JPG
break,html.Screen,4_51_1,2023-11-03T01:38:28.915Z,,0,,,NaN,,,,,,false,,,,342136.10000002384,342136,,342135.8000000119,,342136.477,8,400,,,
break_continue,html.Screen,4_51_2,2023-11-03T01:38:28.915Z,,0,,,NaN,,,,,,false,,,,342136.40000000596,342136.3000000119,,342136.2000000179,,342136.477,8,400,,,
sequence,flow.Sequence,4_51,2023-11-03T01:38:28.915Z,,0,,,4576.101000011899,completion,,,,,false,,,,342136.5,342136.3000000119,337553.255,337558.5,337560.199,342136.477,8,400,,,
trial,html.Screen,4_52_0,2023-11-03T01:38:33.109Z,,0,2,,4193.723000017868,response,ISIC_0002901.JPG,4,ISIC_0013801.JPG,ISIC_0002901.JPG,false,1,keypress(m),500,346330.5,346330.2000000179,342129.533,342136.7000000179,342136.477,346337.82,8,400,3,,ISIC_0013801.JPG
break,html.Screen,4_52_1,2023-11-03T01:38:33.110Z,,0,,,NaN,,,,,,false,,,,346331.10000002384,346331,,346330.7000000179,,346337.82,8,400,,,
break_continue,html.Screen,4_52_2,2023-11-03T01:38:33.110Z,,0,,,NaN,,,,,,false,,,,346331.5,346331.40000000596,,346331.3000000119,,346337.82,8,400,,,
sequence,flow.Sequence,4_52,2023-11-03T01:38:33.110Z,,0,,,4194.923000005947,completion,,,,,false,,,,346331.7000000179,346331.40000000596,342129.533,342136.60000002384,342136.477,346337.82,8,400,,,
trial,html.Screen,4_53_0,2023-11-03T01:38:36.856Z,,0,2,,3739.980000011914,response,ISIC_1076091.JPG,5,ISIC_3031102.JPG,ISIC_3031102.JPG,false,0,keypress(z),500,350077.90000000596,350077.8000000119,346330.852,346331.8000000119,346337.82,350080.707,8,400,4,,ISIC_1076091.JPG
break,html.Screen,4_53_1,2023-11-03T01:38:36.857Z,,0,,,NaN,,,,,,false,,,,350078.3000000119,350078.2000000179,,350078,,350080.707,8,400,,,
break_continue,html.Screen,4_53_2,2023-11-03T01:38:36.857Z,,0,,,NaN,,,,,,false,,,,350078.5,350078.3000000119,,350078.3000000119,,350080.707,8,400,,,
sequence,flow.Sequence,4_53,2023-11-03T01:38:36.857Z,,0,,,3740.480000011914,completion,,,,,false,,,,350078.60000002384,350078.3000000119,346330.852,346331.8000000119,346337.82,350080.707,8,400,,,
trial,html.Screen,4_54_0,2023-11-03T01:38:40.762Z,,0,2,,3902.6930000059656,response,ISIC_0025835.JPG,5,ISIC_1532403.JPG,ISIC_1532403.JPG,false,0,keypress(z),500,353983.5,353983.40000000596,350073.763,350078.60000002384,350080.707,353990.333,8,400,5,,ISIC_0025835.JPG
break,html.Screen,4_54_1,2023-11-03T01:38:40.763Z,,0,,,NaN,,,,,,false,,,,353984.10000002384,353983.90000000596,,353983.7000000179,,353990.333,8,400,,,
break_continue,html.Screen,4_54_2,2023-11-03T01:38:40.763Z,,0,,,NaN,,,,,,false,,,,353984.5,353984.40000000596,,353984.3000000119,,353990.333,8,400,,,
sequence,flow.Sequence,4_54,2023-11-03T01:38:40.763Z,,0,,,3903.6930000059656,completion,,,,,false,,,,353984.60000002384,353984.40000000596,350073.763,350078.60000002384,350080.707,353990.333,8,400,,,
trial,html.Screen,4_55_0,2023-11-03T01:38:44.269Z,,0,2,,3500.4670000119368,response,ISIC_9509813.JPG,4,ISIC_0627979.JPG,ISIC_0627979.JPG,false,0,keypress(z),500,357490.90000000596,357490.8000000119,353983.342,353984.8000000119,353990.333,357497.166,8,400,6,,ISIC_9509813.JPG
break,html.Screen,4_55_1,2023-11-03T01:38:44.270Z,,0,,,NaN,,,,,,false,,,,357491.2000000179,357491.2000000179,,357491,,357497.166,8,400,,,
break_continue,html.Screen,4_55_2,2023-11-03T01:38:44.270Z,,0,,,NaN,,,,,,false,,,,357491.40000000596,357491.3000000119,,357491.2000000179,,357497.166,8,400,,,
sequence,flow.Sequence,4_55,2023-11-03T01:38:44.270Z,,0,,,3500.9670000119368,completion,,,,,false,,,,357491.40000000596,357491.3000000119,353983.342,353984.7000000179,353990.333,357497.166,8,400,,,
trial,html.Screen,4_56_0,2023-11-03T01:38:47.567Z,,0,2,,3291.234000005934,response,ISIC_3305055.JPG,6,ISIC_8650269.JPG,ISIC_8650269.JPG,false,0,keypress(z),500,360788.60000002384,360788.40000000596,357490.222,357491.40000000596,357497.166,360795.671,8,400,7,,ISIC_3305055.JPG
break,html.Screen,4_56_1,2023-11-03T01:38:47.567Z,,0,,,NaN,,,,,,false,,,,360788.8000000119,360788.8000000119,,360788.7000000179,,360795.671,8,400,,,
break_continue,html.Screen,4_56_2,2023-11-03T01:38:47.568Z,,0,,,NaN,,,,,,false,,,,360789,360788.90000000596,,360788.90000000596,,360795.671,8,400,,,
sequence,flow.Sequence,4_56,2023-11-03T01:38:47.568Z,,0,,,3291.734000005934,completion,,,,,false,,,,360789,360788.90000000596,357490.222,357491.40000000596,357497.166,360795.671,8,400,,,
trial,html.Screen,4_57_0,2023-11-03T01:38:51.601Z,,0,2,,4026.429000023869,response,ISIC_0974833.JPG,4,ISIC_0031324.JPG,ISIC_0974833.JPG,false,1,keypress(m),500,364822.3000000119,364822.10000002384,360788.67,360789.10000002384,360795.671,364823.273,8,400,8,,ISIC_0031324.JPG
break,html.Screen,4_57_1,2023-11-03T01:38:51.601Z,,0,,,NaN,,,,,,false,,,,364822.60000002384,364822.5,,364822.40000000596,,364823.273,8,400,,,
break_continue,html.Screen,4_57_2,2023-11-03T01:38:51.601Z,,0,,,NaN,,,,,,false,,,,364822.8000000119,364822.7000000179,,364822.7000000179,,364823.273,8,400,,,
sequence,flow.Sequence,4_57,2023-11-03T01:38:51.601Z,,0,,,4027.0290000179084,completion,,,,,false,,,,364822.8000000119,364822.7000000179,360788.67,360789.10000002384,360795.671,364823.273,8,400,,,
trial,html.Screen,4_58_0,2023-11-03T01:38:54.756Z,,0,2,,3153.8270000238554,response,ISIC_0032596.JPG,4,ISIC_2089231.JPG,ISIC_2089231.JPG,false,0,keypress(z),500,367977.2000000179,367977.10000002384,364816.329,364822.90000000596,364823.273,367982.954,8,400,9,,ISIC_0032596.JPG
break,html.Screen,4_58_1,2023-11-03T01:38:54.756Z,,0,,,NaN,,,,,,false,,,,367977.60000002384,367977.60000002384,,367977.40000000596,,367982.954,8,400,,,
break_continue,html.Screen,4_58_2,2023-11-03T01:38:54.756Z,,0,,,NaN,,,,,,false,,,,367977.8000000119,367977.7000000179,,367977.7000000179,,367982.954,8,400,,,
sequence,flow.Sequence,4_58,2023-11-03T01:38:54.756Z,,0,,,3154.427000017895,completion,,,,,false,,,,367977.90000000596,367977.7000000179,364816.329,364822.8000000119,364823.273,367982.954,8,400,,,
trial,html.Screen,4_59_0,2023-11-03T01:38:59.606Z,,0,2,,4844.146000023815,response,ISIC_0033427.JPG,5,ISIC_0031018.JPG,ISIC_0031018.JPG,false,0,keypress(z),500,372827.3000000119,372827.10000002384,367975.936,367977.90000000596,367982.954,372829.926,8,400,10,,ISIC_0033427.JPG
break,html.Screen,4_59_1,2023-11-03T01:38:59.606Z,,0,,,NaN,,,,,,false,,,,372827.60000002384,372827.5,,372827.3000000119,,372829.926,8,400,,,
break_continue,html.Screen,4_59_2,2023-11-03T01:38:59.606Z,,0,,,NaN,,,,,,false,,,,372827.8000000119,372827.7000000179,,372827.7000000179,,372829.926,8,400,,,
sequence,flow.Sequence,4_59,2023-11-03T01:38:59.606Z,,0,,,4844.746000017854,completion,,,,,false,,,,372828,372827.7000000179,367975.936,367977.90000000596,367982.954,372829.926,8,400,,,
trial,html.Screen,4_60_0,2023-11-03T01:39:03.144Z,,0,2,,3534.974000005983,response,ISIC_5359416.JPG,6,ISIC_1605629.JPG,ISIC_1605629.JPG,false,0,keypress(z),500,376365,376364.90000000596,372822.982,372828,372829.926,376371.531,8,400,11,,ISIC_5359416.JPG
break,html.Screen,4_60_1,2023-11-03T01:39:03.144Z,,0,,,NaN,,,,,,false,,,,376365.40000000596,376365.40000000596,,376365.2000000179,,376371.531,8,400,,,
break_continue,html.Screen,4_60_2,2023-11-03T01:39:03.144Z,,0,,,NaN,,,,,,false,,,,376365.60000002384,376365.5,,376365.5,,376371.531,8,400,,,
sequence,flow.Sequence,4_60,2023-11-03T01:39:03.144Z,,0,,,3535.5740000000224,completion,,,,,false,,,,376365.7000000179,376365.5,372822.982,372828,372829.926,376371.531,8,400,,,
trial,html.Screen,4_61_0,2023-11-03T01:39:06.762Z,,0,2,,3611.669000017864,response,ISIC_2143002.JPG,4,ISIC_8543040.JPG,ISIC_8543040.JPG,false,0,keypress(z),500,379983.40000000596,379983.2000000179,376364.587,376365.8000000119,376371.531,379989.466,8,400,12,,ISIC_2143002.JPG
break,html.Screen,4_61_1,2023-11-03T01:39:06.762Z,,0,,,NaN,,,,,,false,,,,379983.60000002384,379983.60000002384,,379983.5,,379989.466,8,400,,,
break_continue,html.Screen,4_61_2,2023-11-03T01:39:06.762Z,,0,,,NaN,,,,,,false,,,,379983.8000000119,379983.8000000119,,379983.7000000179,,379989.466,8,400,,,
sequence,flow.Sequence,4_61,2023-11-03T01:39:06.762Z,,0,,,3612.2690000119037,completion,,,,,false,,,,379983.90000000596,379983.8000000119,376364.587,376365.8000000119,376371.531,379989.466,8,400,,,
trial,html.Screen,4_62_0,2023-11-03T01:39:10.555Z,,0,2,,3786.9340000059456,response,ISIC_1952599.JPG,5,ISIC_1113629.JPG,ISIC_1952599.JPG,false,1,keypress(m),500,383776.60000002384,383776.40000000596,379982.462,379983.90000000596,379989.466,383780.992,8,400,13,,ISIC_1113629.JPG
break,html.Screen,4_62_1,2023-11-03T01:39:10.556Z,,0,,,NaN,,,,,,false,,,,383777.3000000119,383777.10000002384,,383776.8000000119,,383780.992,8,400,,,
break_continue,html.Screen,4_62_2,2023-11-03T01:39:10.556Z,,0,,,NaN,,,,,,false,,,,383777.7000000179,383777.5,,383777.40000000596,,383780.992,8,400,,,
sequence,flow.Sequence,4_62,2023-11-03T01:39:10.557Z,,0,,,3788.033999999985,completion,,,,,false,,,,383777.8000000119,383777.5,379982.462,379983.90000000596,379989.466,383780.992,8,400,,,
trial,html.Screen,4_63_0,2023-11-03T01:39:14.862Z,,0,2,,4302.0079999999725,response,ISIC_0026470.JPG,5,ISIC_7141361.JPG,ISIC_7141361.JPG,false,0,keypress(z),500,388083,388083,383774.021,383778,383780.992,388086.444,8,400,14,,ISIC_0026470.JPG
break,html.Screen,4_63_1,2023-11-03T01:39:14.862Z,,0,,,NaN,,,,,,false,,,,388083.40000000596,388083.3000000119,,388083.10000002384,,388086.444,8,400,,,
break_continue,html.Screen,4_63_2,2023-11-03T01:39:14.862Z,,0,,,NaN,,,,,,false,,,,388083.5,388083.40000000596,,388083.40000000596,,388086.444,8,400,,,
sequence,flow.Sequence,4_63,2023-11-03T01:39:14.862Z,,0,,,4302.408000005933,completion,,,,,false,,,,388083.5,388083.40000000596,383774.021,383777.90000000596,383780.992,388086.444,8,400,,,
trial,html.Screen,4_64_0,2023-11-03T01:39:18.240Z,,0,2,,3374.656000023824,response,ISIC_6654619.JPG,5,ISIC_1115160.JPG,ISIC_6654619.JPG,false,1,keypress(m),500,391461.3000000119,391461.10000002384,388079.446,388083.60000002384,388086.444,391468.25,8,400,15,,ISIC_1115160.JPG
break,html.Screen,4_64_1,2023-11-03T01:39:18.240Z,,0,,,NaN,,,,,,false,,,,391461.60000002384,391461.5,,391461.3000000119,,391468.25,8,400,,,
break_continue,html.Screen,4_64_2,2023-11-03T01:39:18.241Z,,0,,,NaN,,,,,,false,,,,391461.7000000179,391461.7000000179,,391461.60000002384,,391468.25,8,400,,,
sequence,flow.Sequence,4_64,2023-11-03T01:39:18.241Z,,0,,,3375.2560000178637,completion,,,,,false,,,,391461.90000000596,391461.7000000179,388079.446,388083.60000002384,388086.444,391468.25,8,400,,,
trial,html.Screen,4_65_0,2023-11-03T01:39:21.890Z,,0,2,,3643.350000023842,response,ISIC_5783440.JPG,5,ISIC_3232329.JPG,ISIC_5783440.JPG,false,1,keypress(m),500,395111.7000000179,395111.60000002384,391461.273,391461.90000000596,391468.25,395113.898,8,400,16,,ISIC_3232329.JPG
break,html.Screen,4_65_1,2023-11-03T01:39:21.891Z,,0,,,NaN,,,,,,false,,,,395112,395112,,395111.8000000119,,395113.898,8,400,,,
break_continue,html.Screen,4_65_2,2023-11-03T01:39:21.891Z,,0,,,NaN,,,,,,false,,,,395112.10000002384,395112.10000002384,,395112,,395113.898,8,400,,,
sequence,flow.Sequence,4_65,2023-11-03T01:39:21.891Z,,0,,,3643.850000023842,completion,,,,,false,,,,395112.2000000179,395112.10000002384,391461.273,391461.90000000596,391468.25,395113.898,8,400,,,
trial,html.Screen,4_66_0,2023-11-03T01:39:24.692Z,,0,2,,2799.002000005974,response,ISIC_0028573.JPG,6,ISIC_9445196.JPG,ISIC_9445196.JPG,false,0,keypress(z),500,397913.10000002384,397912.90000000596,395106.954,395112.2000000179,395113.898,397919.433,8,400,17,,ISIC_0028573.JPG
break,html.Screen,4_66_1,2023-11-03T01:39:24.692Z,,0,,,NaN,,,,,,false,,,,397913.7000000179,397913.60000002384,,397913.3000000119,,397919.433,8,400,,,
break_continue,html.Screen,4_66_2,2023-11-03T01:39:24.693Z,,0,,,NaN,,,,,,false,,,,397914,397913.90000000596,,397913.8000000119,,397919.433,8,400,,,
sequence,flow.Sequence,4_66,2023-11-03T01:39:24.693Z,,0,,,2800.002000005974,completion,,,,,false,,,,397914.10000002384,397913.90000000596,395106.954,395112.2000000179,395113.898,397919.433,8,400,,,
trial,html.Screen,4_67_0,2023-11-03T01:39:28.774Z,,0,2,,4075.9670000059414,response,ISIC_7369312.JPG,4,ISIC_5951430.JPG,ISIC_5951430.JPG,false,0,keypress(z),500,401995.60000002384,401995.40000000596,397912.433,397914.3000000119,397919.433,402002.607,8,400,18,,ISIC_7369312.JPG
break,html.Screen,4_67_1,2023-11-03T01:39:28.775Z,,0,,,NaN,,,,,,false,,,,401995.90000000596,401995.8000000119,,401995.7000000179,,402002.607,8,400,,,
break_continue,html.Screen,4_67_2,2023-11-03T01:39:28.775Z,,0,,,NaN,,,,,,false,,,,401996.10000002384,401996.10000002384,,401996,,402002.607,8,400,,,
sequence,flow.Sequence,4_67,2023-11-03T01:39:28.775Z,,0,,,4076.6670000238228,completion,,,,,false,,,,401996.2000000179,401996.10000002384,397912.433,397914.3000000119,397919.433,402002.607,8,400,,,
trial,html.Screen,4_68_0,2023-11-03T01:39:32.088Z,,0,2,,3306.6930000119028,response,ISIC_1848300.JPG,5,ISIC_4851652.JPG,ISIC_1848300.JPG,false,1,keypress(m),500,405309.5,405309.3000000119,401995.59,401996.3000000119,402002.607,405315.02,8,400,19,,ISIC_4851652.JPG
break,html.Screen,4_68_1,2023-11-03T01:39:32.089Z,,0,,,NaN,,,,,,false,,,,405309.8000000119,405309.7000000179,,405309.5,,405315.02,8,400,,,
break_continue,html.Screen,4_68_2,2023-11-03T01:39:32.089Z,,0,,,NaN,,,,,,false,,,,405309.90000000596,405309.90000000596,,405309.90000000596,,405315.02,8,400,,,
sequence,flow.Sequence,4_68,2023-11-03T01:39:32.089Z,,0,,,3307.2930000059423,completion,,,,,false,,,,405310,405309.90000000596,401995.59,401996.3000000119,402002.607,405315.02,8,400,,,
trial,html.Screen,4_69_0,2023-11-03T01:39:35.978Z,,0,2,,3884.2800000119023,response,ISIC_0029740.JPG,5,ISIC_0072569.JPG,ISIC_0072569.JPG,false,0,keypress(z),500,409199.5,409199.3000000119,405308.074,405310.10000002384,405315.02,409203.714,8,400,20,,ISIC_0029740.JPG
break,html.Screen,4_69_1,2023-11-03T01:39:35.979Z,,0,,,NaN,,,,,,false,,,,409200.2000000179,409200,,409199.7000000179,,409203.714,8,400,,,
break_continue,html.Screen,4_69_2,2023-11-03T01:39:35.979Z,,0,,,NaN,,,,,,false,,,,409200.5,409200.40000000596,,409200.3000000119,,409203.714,8,400,,,
sequence,flow.Sequence,4_69,2023-11-03T01:39:35.980Z,,0,,,3885.380000005942,completion,,,,,false,,,,409200.8000000119,409200.40000000596,405308.074,405310.10000002384,405315.02,409203.714,8,400,,,
trial,html.Screen,4_70_0,2023-11-03T01:39:38.989Z,,0,2,,3006.4860000179033,response,ISIC_6345354.JPG,5,ISIC_5580000.JPG,ISIC_6345354.JPG,false,1,keypress(m),500,412210.3000000119,412210.2000000179,409196.77,409200.90000000596,409203.714,412217.542,8,400,21,,ISIC_5580000.JPG
break,html.Screen,4_70_1,2023-11-03T01:39:38.989Z,,0,,,NaN,,,,,,false,,,,412210.7000000179,412210.60000002384,,412210.40000000596,,412217.542,8,400,,,
break_continue,html.Screen,4_70_2,2023-11-03T01:39:38.990Z,,0,,,NaN,,,,,,false,,,,412210.90000000596,412210.8000000119,,412210.7000000179,,412217.542,8,400,,,
sequence,flow.Sequence,4_70,2023-11-03T01:39:38.990Z,,0,,,3007.086000011943,completion,,,,,false,,,,412211,412210.8000000119,409196.77,409200.8000000119,409203.714,412217.542,8,400,,,
trial,html.Screen,4_71_0,2023-11-03T01:39:42.543Z,,0,2,,3546.258000011905,response,ISIC_0008423.JPG,6,ISIC_8414396.JPG,ISIC_0008423.JPG,false,1,keypress(m),500,415764,415763.8000000119,412210.586,412211,412217.542,415765.976,8,400,22,,ISIC_8414396.JPG
break,html.Screen,4_71_1,2023-11-03T01:39:42.543Z,,0,,,NaN,,,,,,false,,,,415764.3000000119,415764.2000000179,,415764,,415765.976,8,400,,,
break_continue,html.Screen,4_71_2,2023-11-03T01:39:42.543Z,,0,,,NaN,,,,,,false,,,,415764.5,415764.40000000596,,415764.40000000596,,415765.976,8,400,,,
sequence,flow.Sequence,4_71,2023-11-03T01:39:42.543Z,,0,,,3546.8580000059446,completion,,,,,false,,,,415764.5,415764.40000000596,412210.586,412211,412217.542,415765.976,8,400,,,
trial,html.Screen,4_72_0,2023-11-03T01:39:46.064Z,,0,2,,3519.224000017857,response,ISIC_9395707.JPG,4,ISIC_7976724.JPG,ISIC_9395707.JPG,false,1,keypress(m),500,419285.40000000596,419285.2000000179,415759.032,415764.60000002384,415765.976,419286.724,8,400,23,,ISIC_7976724.JPG
break,html.Screen,4_72_1,2023-11-03T01:39:46.065Z,,0,,,NaN,,,,,,false,,,,419286,419285.90000000596,,419285.60000002384,,419286.724,8,400,,,
break_continue,html.Screen,4_72_2,2023-11-03T01:39:46.065Z,,0,,,NaN,,,,,,false,,,,419286.3000000119,419286.2000000179,,419286.2000000179,,419286.724,8,400,,,
sequence,flow.Sequence,4_72,2023-11-03T01:39:46.065Z,,0,,,3520.224000017857,completion,,,,,false,,,,419286.60000002384,419286.2000000179,415759.032,415764.5,415765.976,419286.724,8,400,,,
trial,html.Screen,4_73_0,2023-11-03T01:39:49.187Z,,0,2,,3121.476000017894,response,ISIC_0002057.JPG,5,ISIC_0006717.JPG,ISIC_0006717.JPG,false,0,keypress(z),500,422408.40000000596,422408.2000000179,419279.78,419286.7000000179,419286.724,422411.598,8,400,24,,ISIC_0002057.JPG
break,html.Screen,4_73_1,2023-11-03T01:39:49.188Z,,0,,,NaN,,,,,,false,,,,422409.10000002384,422408.90000000596,,422408.60000002384,,422411.598,8,400,,,
break_continue,html.Screen,4_73_2,2023-11-03T01:39:49.188Z,,0,,,NaN,,,,,,false,,,,422409.40000000596,422409.3000000119,,422409.10000002384,,422411.598,8,400,,,
sequence,flow.Sequence,4_73,2023-11-03T01:39:49.188Z,,0,,,3122.5760000119335,completion,,,,,false,,,,422409.5,422409.3000000119,419279.78,419286.7000000179,419286.724,422411.598,8,400,,,
trial,html.Screen,4_74_0,2023-11-03T01:39:52.646Z,,0,2,,3455.702000011923,response,ISIC_0028998.JPG,4,ISIC_0952221.JPG,ISIC_0952221.JPG,false,0,keypress(z),500,425867.5,425867.3000000119,422404.654,422409.7000000179,422411.598,425869.865,8,400,25,,ISIC_0028998.JPG
break,html.Screen,4_74_1,2023-11-03T01:39:52.647Z,,0,,,NaN,,,,,,false,,,,425867.8000000119,425867.7000000179,,425867.5,,425869.865,8,400,,,
break_continue,html.Screen,4_74_2,2023-11-03T01:39:52.647Z,,0,,,NaN,,,,,,false,,,,425868,425867.90000000596,,425867.90000000596,,425869.865,8,400,,,
sequence,flow.Sequence,4_74,2023-11-03T01:39:52.647Z,,0,,,3456.3020000059623,completion,,,,,false,,,,425868,425867.90000000596,422404.654,422409.7000000179,422411.598,425869.865,8,400,,,
trial,html.Screen,4_75_0,2023-11-03T01:39:55.992Z,,0,2,,3343.1350000000093,response,ISIC_0192893.JPG,6,ISIC_0024967.JPG,ISIC_0192893.JPG,false,1,keypress(m),500,429213.2000000179,429213,425862.921,425868.10000002384,425869.865,429223.933,8,400,26,,ISIC_0024967.JPG
break,html.Screen,4_75_1,2023-11-03T01:39:55.992Z,,0,,,NaN,,,,,,false,,,,429213.5,429213.5,,429213.3000000119,,429223.933,8,400,,,
break_continue,html.Screen,4_75_2,2023-11-03T01:39:55.992Z,,0,,,NaN,,,,,,false,,,,429213.7000000179,429213.60000002384,,429213.60000002384,,429223.933,8,400,,,
sequence,flow.Sequence,4_75,2023-11-03T01:39:55.993Z,,0,,,3343.735000023851,completion,,,,,false,,,,429213.8000000119,429213.60000002384,425862.921,425868.10000002384,425869.865,429223.933,8,400,,,
trial,html.Screen,4_76_0,2023-11-03T01:39:59.194Z,,0,2,,3190.7670000178623,response,ISIC_0944273.JPG,4,ISIC_0002901.JPG,ISIC_0002901.JPG,false,0,keypress(z),500,432414.8000000119,432414.7000000179,429216.915,429213.90000000596,429223.933,432418.369,8,400,27,,ISIC_0944273.JPG
break,html.Screen,4_76_1,2023-11-03T01:39:59.194Z,,0,,,NaN,,,,,,false,,,,432415.10000002384,432415,,432414.90000000596,,432418.369,8,400,,,
break_continue,html.Screen,4_76_2,2023-11-03T01:39:59.194Z,,0,,,NaN,,,,,,false,,,,432415.2000000179,432415.10000002384,,432415.10000002384,,432418.369,8,400,,,
sequence,flow.Sequence,4_76,2023-11-03T01:39:59.194Z,,0,,,3191.1670000238228,completion,,,,,false,,,,432415.2000000179,432415.10000002384,429216.915,429213.90000000596,429223.933,432418.369,8,400,,,
trial,html.Screen,4_77_0,2023-11-03T01:40:02.107Z,,0,2,,2909.3310000178753,response,ISIC_7167811.JPG,4,ISIC_0032927.JPG,ISIC_7167811.JPG,false,1,keypress(m),500,435327.8000000119,435327.7000000179,432411.287,432415.3000000119,432418.369,435335.053,8,400,28,,ISIC_0032927.JPG
break,html.Screen,4_77_1,2023-11-03T01:40:02.107Z,,0,,,NaN,,,,,,false,,,,435328.3000000119,435328.10000002384,,435328,,435335.053,8,400,,,
break_continue,html.Screen,4_77_2,2023-11-03T01:40:02.107Z,,0,,,NaN,,,,,,false,,,,435328.40000000596,435328.40000000596,,435328.3000000119,,435335.053,8,400,,,
sequence,flow.Sequence,4_77,2023-11-03T01:40:02.107Z,,0,,,2910.0310000059544,completion,,,,,false,,,,435328.5,435328.40000000596,432411.287,432415.3000000119,432418.369,435335.053,8,400,,,
trial,html.Screen,4_78_0,2023-11-03T01:40:05.645Z,,0,2,,3531.4469999999856,response,ISIC_4266533.JPG,4,ISIC_5490257.JPG,ISIC_4266533.JPG,false,1,keypress(m),500,438866.60000002384,438866.5,435327.836,435328.60000002384,435335.053,438869.415,8,400,29,,ISIC_5490257.JPG
break,html.Screen,4_78_1,2023-11-03T01:40:05.646Z,,0,,,NaN,,,,,,false,,,,438866.90000000596,438866.8000000119,,438866.8000000119,,438869.415,8,400,,,
break_continue,html.Screen,4_78_2,2023-11-03T01:40:05.646Z,,0,,,NaN,,,,,,false,,,,438867,438867,,438866.90000000596,,438869.415,8,400,,,
sequence,flow.Sequence,4_78,2023-11-03T01:40:05.646Z,,0,,,3531.9469999999856,completion,,,,,false,,,,438867.10000002384,438867,435327.836,435328.60000002384,435335.053,438869.415,8,400,,,
trial,html.Screen,4_79_0,2023-11-03T01:40:08.719Z,,0,2,,3070.185000023863,response,ISIC_0025138.JPG,5,ISIC_0026909.JPG,ISIC_0025138.JPG,false,1,keypress(m),500,441939.7000000179,441939.60000002384,438862.442,438867.2000000179,438869.415,441945.833,8,400,30,,ISIC_0026909.JPG
break,html.Screen,4_79_1,2023-11-03T01:40:08.719Z,,0,,,NaN,,,,,,false,,,,441940.2000000179,441940.10000002384,,441940,,441945.833,8,400,,,
break_continue,html.Screen,4_79_2,2023-11-03T01:40:08.719Z,,0,,,NaN,,,,,,false,,,,441940.60000002384,441940.5,,441940.40000000596,,441945.833,8,400,,,
sequence,flow.Sequence,4_79,2023-11-03T01:40:08.719Z,,0,,,3071.085000000021,completion,,,,,false,,,,441940.7000000179,441940.5,438862.442,438867.2000000179,438869.415,441945.833,8,400,,,
trial,html.Screen,4_80_0,2023-11-03T01:40:11.825Z,,0,2,,3099.867000017897,response,ISIC_5220698.JPG,5,ISIC_8664718.JPG,ISIC_5220698.JPG,false,1,keypress(m),500,445045.90000000596,445045.7000000179,441938.749,441940.90000000596,441945.833,445049.749,8,400,31,,ISIC_8664718.JPG
break,html.Screen,4_80_1,2023-11-03T01:40:11.825Z,,0,,,NaN,,,,,,false,,,,445046.60000002384,445046.5,,445046.2000000179,,445049.749,8,400,,,
break_continue,html.Screen,4_80_2,2023-11-03T01:40:11.826Z,,0,,,NaN,,,,,,false,,,,445046.90000000596,445046.8000000119,,445046.7000000179,,445049.749,8,400,,,
sequence,flow.Sequence,4_80,2023-11-03T01:40:11.826Z,,0,,,3100.9670000119368,completion,,,,,false,,,,445047.2000000179,445046.8000000119,441938.749,441940.8000000119,441945.833,445049.749,8,400,,,
trial,html.Screen,4_81_0,2023-11-03T01:40:14.516Z,,0,2,,2687.55100001191,response,ISIC_0069743.JPG,4,ISIC_6618652.JPG,ISIC_6618652.JPG,false,0,keypress(z),500,447737.5,447737.3000000119,445042.805,445047.2000000179,445049.749,447751.086,8,400,32,,ISIC_0069743.JPG
break,html.Screen,4_81_1,2023-11-03T01:40:14.517Z,,0,,,NaN,,,,,,false,,,,447738.2000000179,447738,,447737.7000000179,,447751.086,8,400,,,
break_continue,html.Screen,4_81_2,2023-11-03T01:40:14.517Z,,0,,,NaN,,,,,,false,,,,447738.60000002384,447738.40000000596,,447738.3000000119,,447751.086,8,400,,,
sequence,flow.Sequence,4_81,2023-11-03T01:40:14.517Z,,0,,,2688.6510000059498,completion,,,,,false,,,,447738.7000000179,447738.40000000596,445042.805,445047.2000000179,445049.749,447751.086,8,400,,,
trial,html.Screen,4_82_0,2023-11-03T01:40:17.431Z,,0,2,,2901.114000017871,response,ISIC_0063164.JPG,6,ISIC_6661904.JPG,ISIC_6661904.JPG,false,0,keypress(z),500,450652.5,450652.2000000179,447737.161,447738.8000000119,447751.086,450653.763,8,400,33,,ISIC_0063164.JPG
break,html.Screen,4_82_1,2023-11-03T01:40:17.432Z,,0,,,NaN,,,,,,false,,,,450653.10000002384,450652.90000000596,,450652.60000002384,,450653.763,8,400,,,
break_continue,html.Screen,4_82_2,2023-11-03T01:40:17.432Z,,0,,,NaN,,,,,,false,,,,450653.40000000596,450653.3000000119,,450653.3000000119,,450653.763,8,400,,,
sequence,flow.Sequence,4_82,2023-11-03T01:40:17.432Z,,0,,,2902.2140000119107,completion,,,,,false,,,,450653.7000000179,450653.3000000119,447737.161,447738.7000000179,447751.086,450653.763,8,400,,,
trial,html.Screen,4_83_0,2023-11-03T01:40:20.810Z,,0,2,,3376.8370000238647,response,ISIC_8530010.JPG,5,ISIC_8357420.JPG,ISIC_8530010.JPG,false,1,keypress(m),500,454030.8000000119,454030.60000002384,450646.819,450653.8000000119,450653.763,454035.7,8,400,34,,ISIC_8357420.JPG
break,html.Screen,4_83_1,2023-11-03T01:40:20.810Z,,0,,,NaN,,,,,,false,,,,454031.10000002384,454031,,454030.90000000596,,454035.7,8,400,,,
break_continue,html.Screen,4_83_2,2023-11-03T01:40:20.810Z,,0,,,NaN,,,,,,false,,,,454031.2000000179,454031.10000002384,,454031.10000002384,,454035.7,8,400,,,
sequence,flow.Sequence,4_83,2023-11-03T01:40:20.810Z,,0,,,3377.3370000238647,completion,,,,,false,,,,454031.3000000119,454031.10000002384,450646.819,450653.7000000179,450653.763,454035.7,8,400,,,
trial,html.Screen,4_84_0,2023-11-03T01:40:23.932Z,,0,2,,3117.0000000178698,response,ISIC_0060297.JPG,5,ISIC_0033573.JPG,ISIC_0033573.JPG,false,0,keypress(z),500,457152.8000000119,457152.7000000179,454028.595,454031.40000000596,454035.7,457153.499,8,400,35,,ISIC_0060297.JPG
break,html.Screen,4_84_1,2023-11-03T01:40:23.932Z,,0,,,NaN,,,,,,false,,,,457153.2000000179,457153.2000000179,,457152.90000000596,,457153.499,8,400,,,
break_continue,html.Screen,4_84_2,2023-11-03T01:40:23.932Z,,0,,,NaN,,,,,,false,,,,457153.5,457153.3000000119,,457153.3000000119,,457153.499,8,400,,,
sequence,flow.Sequence,4_84,2023-11-03T01:40:23.932Z,,0,,,3117.6000000119093,completion,,,,,false,,,,457153.60000002384,457153.3000000119,454028.595,454031.40000000596,454035.7,457153.499,8,400,,,
trial,html.Screen,4_85_0,2023-11-03T01:40:27.086Z,,0,2,,3153.2010000178707,response,ISIC_4691689.JPG,5,ISIC_6779421.JPG,ISIC_6779421.JPG,false,0,keypress(z),500,460306.8000000119,460306.7000000179,457146.555,457153.60000002384,457153.499,460320.089,8,400,36,,ISIC_4691689.JPG
break,html.Screen,4_85_1,2023-11-03T01:40:27.086Z,,0,,,NaN,,,,,,false,,,,460307.10000002384,460307.10000002384,,460306.90000000596,,460320.089,8,400,,,
break_continue,html.Screen,4_85_2,2023-11-03T01:40:27.086Z,,0,,,NaN,,,,,,false,,,,460307.3000000119,460307.2000000179,,460307.2000000179,,460320.089,8,400,,,
sequence,flow.Sequence,4_85,2023-11-03T01:40:27.086Z,,0,,,3153.7010000178707,completion,,,,,false,,,,460307.40000000596,460307.2000000179,457146.555,457153.60000002384,457153.499,460320.089,8,400,,,
trial,html.Screen,4_86_0,2023-11-03T01:40:30.463Z,,0,2,,3364.5110000238637,response,ISIC_6489993.JPG,5,ISIC_0055474.JPG,ISIC_6489993.JPG,false,1,keypress(m),500,463684.7000000179,463684.60000002384,460306.186,460307.40000000596,460320.089,463694.995,8,400,37,,ISIC_0055474.JPG
break,html.Screen,4_86_1,2023-11-03T01:40:30.464Z,,0,,,NaN,,,,,,false,,,,463684.90000000596,463684.90000000596,,463684.8000000119,,463694.995,8,400,,,
break_continue,html.Screen,4_86_2,2023-11-03T01:40:30.464Z,,0,,,NaN,,,,,,false,,,,463685.10000002384,463685.10000002384,,463685.10000002384,,463694.995,8,400,,,
sequence,flow.Sequence,4_86,2023-11-03T01:40:30.464Z,,0,,,3365.0110000238637,completion,,,,,false,,,,463685.2000000179,463685.10000002384,460306.186,460307.40000000596,460320.089,463694.995,8,400,,,
trial,html.Screen,4_87_0,2023-11-03T01:40:34.417Z,,0,2,,3942.8050000119256,response,ISIC_6159783.JPG,5,ISIC_7768567.JPG,ISIC_7768567.JPG,false,0,keypress(z),500,467638,467637.8000000119,463681.033,463685.2000000179,463694.995,467639.277,8,400,38,,ISIC_6159783.JPG
break,html.Screen,4_87_1,2023-11-03T01:40:34.417Z,,0,,,NaN,,,,,,false,,,,467638.5,467638.40000000596,,467638.2000000179,,467639.277,8,400,,,
break_continue,html.Screen,4_87_2,2023-11-03T01:40:34.418Z,,0,,,NaN,,,,,,false,,,,467638.8000000119,467638.7000000179,,467638.60000002384,,467639.277,8,400,,,
sequence,flow.Sequence,4_87,2023-11-03T01:40:34.418Z,,0,,,3943.705000017886,completion,,,,,false,,,,467638.90000000596,467638.7000000179,463681.033,463685.2000000179,463694.995,467639.277,8,400,,,
trial,html.Screen,4_88_0,2023-11-03T01:40:38.211Z,,0,2,,3793.023000011919,response,ISIC_0010705.JPG,5,ISIC_1092432.JPG,ISIC_0010705.JPG,false,1,keypress(m),500,471432.40000000596,471432.3000000119,467632.333,467639.10000002384,467639.277,471437.773,8,400,39,,ISIC_1092432.JPG
break,html.Screen,4_88_1,2023-11-03T01:40:38.212Z,,0,,,NaN,,,,,,false,,,,471432.8000000119,471432.7000000179,,471432.5,,471437.773,8,400,,,
break_continue,html.Screen,4_88_2,2023-11-03T01:40:38.212Z,,0,,,NaN,,,,,,false,,,,471432.90000000596,471432.8000000119,,471432.8000000119,,471437.773,8,400,,,
sequence,flow.Sequence,4_88,2023-11-03T01:40:38.212Z,,0,,,3793.523000011919,completion,,,,,false,,,,471433,471432.8000000119,467632.333,467639.10000002384,467639.277,471437.773,8,400,,,
trial,html.Screen,4_89_0,2023-11-03T01:40:41.638Z,,0,2,,3420.7270000000135,response,ISIC_6618943.JPG,5,ISIC_0059349.JPG,ISIC_6618943.JPG,false,1,keypress(m),500,474858.7000000179,474858.5,471430.8,471433.10000002384,471437.773,474861.223,8,400,40,,ISIC_0059349.JPG
break,html.Screen,4_89_1,2023-11-03T01:40:41.638Z,,0,,,NaN,,,,,,false,,,,474859.2000000179,474859.10000002384,,474858.90000000596,,474861.223,8,400,,,
break_continue,html.Screen,4_89_2,2023-11-03T01:40:41.638Z,,0,,,NaN,,,,,,false,,,,474859.60000002384,474859.40000000596,,474859.40000000596,,474861.223,8,400,,,
sequence,flow.Sequence,4_89,2023-11-03T01:40:41.638Z,,0,,,3421.627000005974,completion,,,,,false,,,,474859.7000000179,474859.40000000596,471430.8,471433.10000002384,471437.773,474861.223,8,400,,,
trial,html.Screen,4_90_0,2023-11-03T01:40:45.881Z,,0,2,,4240.477000017883,response,ISIC_0034208.JPG,4,ISIC_0033549.JPG,ISIC_0033549.JPG,false,0,keypress(z),500,479101.90000000596,479101.7000000179,474854.279,474860.40000000596,474861.223,479104.102,8,400,41,,ISIC_0034208.JPG
break,html.Screen,4_90_1,2023-11-03T01:40:45.881Z,,0,,,NaN,,,,,,false,,,,479102.5,479102.3000000119,,479102,,479104.102,8,400,,,
break_continue,html.Screen,4_90_2,2023-11-03T01:40:45.882Z,,0,,,NaN,,,,,,false,,,,479102.8000000119,479102.7000000179,,479102.60000002384,,479104.102,8,400,,,
sequence,flow.Sequence,4_90,2023-11-03T01:40:45.882Z,,0,,,4241.477000017883,completion,,,,,false,,,,479102.90000000596,479102.7000000179,474854.279,474860.40000000596,474861.223,479104.102,8,400,,,
trial,html.Screen,4_91_0,2023-11-03T01:40:49.356Z,,0,2,,3473.098000017868,response,ISIC_0032856.JPG,5,ISIC_0012072.JPG,ISIC_0012072.JPG,false,0,keypress(z),500,482577.40000000596,482577.2000000179,479097.158,479103.10000002384,479104.102,482583.298,8,400,42,,ISIC_0032856.JPG
break,html.Screen,4_91_1,2023-11-03T01:40:49.357Z,,0,,,NaN,,,,,,false,,,,482577.7000000179,482577.60000002384,,482577.5,,482583.298,8,400,,,
break_continue,html.Screen,4_91_2,2023-11-03T01:40:49.357Z,,0,,,NaN,,,,,,false,,,,482578,482577.90000000596,,482577.8000000119,,482583.298,8,400,,,
sequence,flow.Sequence,4_91,2023-11-03T01:40:49.357Z,,0,,,3473.798000005947,completion,,,,,false,,,,482578,482577.90000000596,479097.158,479103,479104.102,482583.298,8,400,,,
trial,html.Screen,4_92_0,2023-11-03T01:40:53.567Z,,0,2,,4204.802000023832,response,ISIC_4526581.JPG,6,ISIC_5578239.JPG,ISIC_4526581.JPG,false,1,keypress(m),500,486788.2000000179,486788.10000002384,482576.354,482578.10000002384,482583.298,486791.412,8,400,43,,ISIC_5578239.JPG
break,html.Screen,4_92_1,2023-11-03T01:40:53.567Z,,0,,,NaN,,,,,,false,,,,486788.60000002384,486788.5,,486788.3000000119,,486791.412,8,400,,,
break_continue,html.Screen,4_92_2,2023-11-03T01:40:53.568Z,,0,,,NaN,,,,,,false,,,,486788.8000000119,486788.7000000179,,486788.7000000179,,486791.412,8,400,,,
sequence,flow.Sequence,4_92,2023-11-03T01:40:53.568Z,,0,,,4205.402000017872,completion,,,,,false,,,,486788.90000000596,486788.7000000179,482576.354,482578,482583.298,486791.412,8,400,,,
trial,html.Screen,4_93_0,2023-11-03T01:40:56.961Z,,0,2,,3390.78800001787,response,ISIC_5934239.JPG,5,ISIC_4573624.JPG,ISIC_4573624.JPG,false,0,keypress(z),500,490182.5,490182.2000000179,486784.466,486788.90000000596,486791.412,490187.137,8,400,44,,ISIC_5934239.JPG
break,html.Screen,4_93_1,2023-11-03T01:40:56.962Z,,0,,,NaN,,,,,,false,,,,490183,490182.90000000596,,490182.60000002384,,490187.137,8,400,,,
break_continue,html.Screen,4_93_2,2023-11-03T01:40:56.962Z,,0,,,NaN,,,,,,false,,,,490183.3000000119,490183.2000000179,,490183.10000002384,,490187.137,8,400,,,
sequence,flow.Sequence,4_93,2023-11-03T01:40:56.962Z,,0,,,3391.78800001787,completion,,,,,false,,,,490183.40000000596,490183.2000000179,486784.466,486788.90000000596,486791.412,490187.137,8,400,,,
trial,html.Screen,4_94_0,2023-11-03T01:41:02.515Z,,0,2,,5549.263000005973,response,ISIC_0033224.JPG,5,ISIC_0024398.JPG,ISIC_0024398.JPG,false,0,keypress(z),500,495736.60000002384,495736.40000000596,490180.172,490183.5,490187.137,495749.448,8,400,45,,ISIC_0033224.JPG
break,html.Screen,4_94_1,2023-11-03T01:41:02.516Z,,0,,,NaN,,,,,,false,,,,495736.90000000596,495736.90000000596,,495736.7000000179,,495749.448,8,400,,,
break_continue,html.Screen,4_94_2,2023-11-03T01:41:02.516Z,,0,,,NaN,,,,,,false,,,,495737.10000002384,495737.10000002384,,495737,,495749.448,8,400,,,
sequence,flow.Sequence,4_94,2023-11-03T01:41:02.516Z,,0,,,5549.963000023854,completion,,,,,false,,,,495737.2000000179,495737.10000002384,490180.172,490183.5,490187.137,495749.448,8,400,,,
trial,html.Screen,4_95_0,2023-11-03T01:41:05.749Z,,0,2,,3220.852000011946,response,ISIC_1264576.JPG,5,ISIC_8911740.JPG,ISIC_1264576.JPG,false,1,keypress(m),500,498970.40000000596,498970.3000000119,495735.46,495737.3000000119,495749.448,498971.635,8,400,46,,ISIC_8911740.JPG
break,html.Screen,4_95_1,2023-11-03T01:41:05.750Z,,0,,,NaN,,,,,,false,,,,498971.10000002384,498970.90000000596,,498970.60000002384,,498971.635,8,400,,,
break_continue,html.Screen,4_95_2,2023-11-03T01:41:05.750Z,,0,,,NaN,,,,,,false,,,,498971.40000000596,498971.40000000596,,498971.2000000179,,498971.635,8,400,,,
sequence,flow.Sequence,4_95,2023-11-03T01:41:05.750Z,,0,,,3221.9520000059856,completion,,,,,false,,,,498971.60000002384,498971.40000000596,495735.46,495737.3000000119,495749.448,498971.635,8,400,,,
trial,html.Screen,4_96_0,2023-11-03T01:41:10.504Z,,0,2,,4753.665000011912,response,ISIC_6733338.JPG,5,ISIC_0024739.JPG,ISIC_0024739.JPG,false,0,keypress(z),500,503725.40000000596,503725.3000000119,498964.691,498971.8000000119,498971.635,503728.351,8,400,47,,ISIC_6733338.JPG
break,html.Screen,4_96_1,2023-11-03T01:41:10.504Z,,0,,,NaN,,,,,,false,,,,503725.7000000179,503725.60000002384,,503725.5,,503728.351,8,400,,,
break_continue,html.Screen,4_96_2,2023-11-03T01:41:10.505Z,,0,,,NaN,,,,,,false,,,,503725.90000000596,503725.8000000119,,503725.8000000119,,503728.351,8,400,,,
sequence,flow.Sequence,4_96,2023-11-03T01:41:10.505Z,,0,,,4754.165000011912,completion,,,,,false,,,,503726,503725.8000000119,498964.691,498971.7000000179,498971.635,503728.351,8,400,,,
trial,html.Screen,4_97_0,2023-11-03T01:41:13.434Z,,0,2,,2926.9490000118967,response,ISIC_3087402.JPG,5,ISIC_0014903.JPG,ISIC_3087402.JPG,false,1,keypress(m),500,506655.5,506655.3000000119,503721.31,503726,503728.351,506658.773,8,400,48,,ISIC_0014903.JPG
break,html.Screen,4_97_1,2023-11-03T01:41:13.435Z,,0,,,NaN,,,,,,false,,,,506656.2000000179,506656.10000002384,,506655.7000000179,,506658.773,8,400,,,
break_continue,html.Screen,4_97_2,2023-11-03T01:41:13.435Z,,0,,,NaN,,,,,,false,,,,506656.5,506656.40000000596,,506656.3000000119,,506658.773,8,400,,,
sequence,flow.Sequence,4_97,2023-11-03T01:41:13.435Z,,0,,,2928.0490000059363,completion,,,,,false,,,,506656.7000000179,506656.40000000596,503721.31,503726,503728.351,506658.773,8,400,,,
trial,html.Screen,4_98_0,2023-11-03T01:41:16.413Z,,0,2,,2975.8270000238554,response,ISIC_0011799.JPG,4,ISIC_5190484.JPG,ISIC_5190484.JPG,false,0,keypress(z),500,509634.7000000179,509634.60000002384,506651.829,506656.90000000596,506658.773,509637.951,8,400,49,,ISIC_0011799.JPG
break,html.Screen,4_98_1,2023-11-03T01:41:16.414Z,,0,,,NaN,,,,,,false,,,,509635.10000002384,509635,,509634.90000000596,,509637.951,8,400,,,
break_continue,html.Screen,4_98_2,2023-11-03T01:41:16.414Z,,0,,,NaN,,,,,,false,,,,509635.3000000119,509635.2000000179,,509635.2000000179,,509637.951,8,400,,,
sequence,flow.Sequence,4_98,2023-11-03T01:41:16.414Z,,0,,,2976.427000017895,completion,,,,,false,,,,509635.3000000119,509635.2000000179,506651.829,506656.7000000179,506658.773,509637.951,8,400,,,
trial,html.Screen,4_99_0,2023-11-03T01:41:19.360Z,,0,2,,2943.34900001192,response,ISIC_2783450.JPG,5,ISIC_0032684.JPG,ISIC_2783450.JPG,false,1,keypress(m),500,512581.60000002384,512581.3000000119,509631.007,509636,509637.951,512582.203,8,400,50,,ISIC_0032684.JPG
break,html.Screen,4_99_1,2023-11-03T01:41:29.354Z,,0,,,9999.68300000002,timeout,,,,,false,,,,522575.40000000596,522574.938,512575.259,512581.7000000179,512582.203,522581.886,8,400,,,
break_continue,html.Screen,4_99_2,2023-11-03T01:42:05.888Z,,0,,,36519.81400001788,response,,,,,false,continue,keypress(Space),,559109.2000000179,559101.7000000179,522574.938,522575.5,522581.886,559115.185,8,400,,,
sequence,flow.Sequence,4_99,2023-11-03T01:42:05.888Z,,0,,,49463.74900001788,completion,,,,,false,,,,559109.400000006,559101.7000000179,509631.007,509635.40000000596,509637.951,559115.185,8,400,,,
trial,html.Screen,4_100_0,2023-11-03T01:42:09.250Z,,0,3,,3355.7150000059046,response,ISIC_9206499.JPG,5,ISIC_8635853.JPG,ISIC_8635853.JPG,false,0,keypress(z),500,562471,562470.900000006,559107.756,559109.400000006,559115.185,562483.327,8,400,1,,ISIC_9206499.JPG
break,html.Screen,4_100_1,2023-11-03T01:42:09.250Z,,0,,,NaN,,,,,,false,,,,562471.3000000119,562471.2000000179,,562471.1000000238,,562483.327,8,400,,,
break_continue,html.Screen,4_100_2,2023-11-03T01:42:09.250Z,,0,,,NaN,,,,,,false,,,,562471.5,562471.400000006,,562471.400000006,,562483.327,8,400,,,
sequence,flow.Sequence,4_100,2023-11-03T01:42:09.250Z,,0,,,3356.2150000059046,completion,,,,,false,,,,562471.6000000238,562471.400000006,559107.756,559109.400000006,559115.185,562483.327,8,400,,,
trial,html.Screen,4_101_0,2023-11-03T01:42:12.227Z,,0,3,,2965.1729999999516,response,ISIC_3464344.JPG,5,ISIC_6098768.JPG,ISIC_6098768.JPG,false,0,keypress(z),500,565448.7000000179,565448.5,562469.389,562471.7000000179,562483.327,565455.437,8,400,2,,ISIC_3464344.JPG
break,html.Screen,4_101_1,2023-11-03T01:42:12.228Z,,0,,,NaN,,,,,,false,,,,565449.400000006,565449.2000000179,,565448.900000006,,565455.437,8,400,,,
break_continue,html.Screen,4_101_2,2023-11-03T01:42:12.228Z,,0,,,NaN,,,,,,false,,,,565449.6000000238,565449.6000000238,,565449.400000006,,565455.437,8,400,,,
sequence,flow.Sequence,4_101,2023-11-03T01:42:12.229Z,,0,,,2966.2730000237934,completion,,,,,false,,,,565449.900000006,565449.6000000238,562469.389,562471.7000000179,562483.327,565455.437,8,400,,,
trial,html.Screen,4_102_0,2023-11-03T01:42:15.064Z,,0,3,,2829.963000005926,response,ISIC_0057048.JPG,6,ISIC_7022381.JPG,ISIC_7022381.JPG,false,0,keypress(z),500,568285.6000000238,568285.400000006,565448.491,565450.900000006,565455.437,568288.637,8,400,3,,ISIC_0057048.JPG
break,html.Screen,4_102_1,2023-11-03T01:42:15.065Z,,0,,,NaN,,,,,,false,,,,568286.400000006,568286.1000000238,,568285.8000000119,,568288.637,8,400,,,
break_continue,html.Screen,4_102_2,2023-11-03T01:42:15.065Z,,0,,,NaN,,,,,,false,,,,568286.7000000179,568286.6000000238,,568286.5,,568288.637,8,400,,,
sequence,flow.Sequence,4_102,2023-11-03T01:42:15.066Z,,0,,,2831.1630000238074,completion,,,,,false,,,,568286.900000006,568286.6000000238,565448.491,565450.900000006,565455.437,568288.637,8,400,,,
trial,html.Screen,4_103_0,2023-11-03T01:42:17.948Z,,0,3,,2880.863000000012,response,ISIC_4553633.JPG,5,ISIC_0013342.JPG,ISIC_0013342.JPG,false,0,keypress(z),500,571169.6000000238,571169.5,568281.693,568286.900000006,568288.637,571170.471,8,400,4,,ISIC_4553633.JPG
break,html.Screen,4_103_1,2023-11-03T01:42:17.949Z,,0,,,NaN,,,,,,false,,,,571170.3000000119,571170.1000000238,,571169.8000000119,,571170.471,8,400,,,
break_continue,html.Screen,4_103_2,2023-11-03T01:42:17.949Z,,0,,,NaN,,,,,,false,,,,571170.7000000179,571170.5,,571170.400000006,,571170.471,8,400,,,
sequence,flow.Sequence,4_103,2023-11-03T01:42:17.950Z,,0,,,2881.863000000012,completion,,,,,false,,,,571170.900000006,571170.5,568281.693,568286.900000006,568288.637,571170.471,8,400,,,
trial,html.Screen,4_104_0,2023-11-03T01:42:21.312Z,,0,3,,3362.8290000119014,response,ISIC_0000487.JPG,5,ISIC_1601784.JPG,ISIC_1601784.JPG,false,0,keypress(z),500,574533.400000006,574533.3000000119,571163.527,571171.1000000238,571170.471,574538.404,8,400,5,,ISIC_0000487.JPG
break,html.Screen,4_104_1,2023-11-03T01:42:21.312Z,,0,,,NaN,,,,,,false,,,,574533.7000000179,574533.6000000238,,574533.5,,574538.404,8,400,,,
break_continue,html.Screen,4_104_2,2023-11-03T01:42:21.313Z,,0,,,NaN,,,,,,false,,,,574533.900000006,574533.8000000119,,574533.8000000119,,574538.404,8,400,,,
sequence,flow.Sequence,4_104,2023-11-03T01:42:21.313Z,,0,,,3363.3290000119014,completion,,,,,false,,,,574533.900000006,574533.8000000119,571163.527,571171,571170.471,574538.404,8,400,,,
trial,html.Screen,4_105_0,2023-11-03T01:42:24.066Z,,0,3,,2748.99600000598,response,ISIC_0256715.JPG,4,ISIC_0064010.JPG,ISIC_0256715.JPG,false,1,keypress(m),500,577287.7000000179,577287.400000006,574531.46,574534,574538.404,577289.895,8,400,6,,ISIC_0064010.JPG
break,html.Screen,4_105_1,2023-11-03T01:42:24.067Z,,0,,,NaN,,,,,,false,,,,577288.3000000119,577288.2000000179,,577287.900000006,,577289.895,8,400,,,
break_continue,html.Screen,4_105_2,2023-11-03T01:42:24.067Z,,0,,,NaN,,,,,,false,,,,577288.6000000238,577288.400000006,,577288.400000006,,577289.895,8,400,,,
sequence,flow.Sequence,4_105,2023-11-03T01:42:24.067Z,,0,,,2749.99600000598,completion,,,,,false,,,,577288.7000000179,577288.400000006,574531.46,574534,574538.404,577289.895,8,400,,,
trial,html.Screen,4_106_0,2023-11-03T01:42:26.741Z,,0,3,,2672.3050000178628,response,ISIC_0034239.JPG,5,ISIC_9181399.JPG,ISIC_9181399.JPG,false,0,keypress(z),500,579962.3000000119,579962.2000000179,577282.951,577288.8000000119,577289.895,579968.883,8,400,7,,ISIC_0034239.JPG
break,html.Screen,4_106_1,2023-11-03T01:42:26.741Z,,0,,,NaN,,,,,,false,,,,579962.7000000179,579962.5,,579962.400000006,,579968.883,8,400,,,
break_continue,html.Screen,4_106_2,2023-11-03T01:42:26.742Z,,0,,,NaN,,,,,,false,,,,579962.8000000119,579962.8000000119,,579962.8000000119,,579968.883,8,400,,,
sequence,flow.Sequence,4_106,2023-11-03T01:42:26.742Z,,0,,,2672.9050000119023,completion,,,,,false,,,,579962.900000006,579962.8000000119,577282.951,577288.8000000119,577289.895,579968.883,8,400,,,
trial,html.Screen,4_107_0,2023-11-03T01:42:29.927Z,,0,3,,3179.6169999999693,response,ISIC_3474472.JPG,5,ISIC_0025877.JPG,ISIC_3474472.JPG,false,1,keypress(m),500,583148.6000000238,583148.5,579961.897,579963,579968.883,583149.226,8,400,8,,ISIC_0025877.JPG
break,html.Screen,4_107_1,2023-11-03T01:42:29.928Z,,0,,,NaN,,,,,,false,,,,583148.900000006,583148.900000006,,583148.7000000179,,583149.226,8,400,,,
break_continue,html.Screen,4_107_2,2023-11-03T01:42:29.928Z,,0,,,NaN,,,,,,false,,,,583149.1000000238,583149,,583149,,583149.226,8,400,,,
sequence,flow.Sequence,4_107,2023-11-03T01:42:29.928Z,,0,,,3180.1169999999693,completion,,,,,false,,,,583149.2000000179,583149,579961.897,579963,579968.883,583149.226,8,400,,,
trial,html.Screen,4_108_0,2023-11-03T01:42:34.713Z,,0,3,,4785.174000005936,response,ISIC_0189336.JPG,5,ISIC_0011483.JPG,ISIC_0189336.JPG,false,1,keypress(m),500,587934.5,587934.400000006,583142.282,583149.2000000179,583149.226,587940.993,8,400,9,,ISIC_0011483.JPG
break,html.Screen,4_108_1,2023-11-03T01:42:34.714Z,,0,,,NaN,,,,,,false,,,,587934.900000006,587934.7000000179,,587934.6000000238,,587940.993,8,400,,,
break_continue,html.Screen,4_108_2,2023-11-03T01:42:34.714Z,,0,,,NaN,,,,,,false,,,,587935,587934.900000006,,587934.900000006,,587940.993,8,400,,,
sequence,flow.Sequence,4_108,2023-11-03T01:42:34.714Z,,0,,,4785.674000005936,completion,,,,,false,,,,587935.1000000238,587934.900000006,583142.282,583149.2000000179,583149.226,587940.993,8,400,,,
trial,html.Screen,4_109_0,2023-11-03T01:42:38.458Z,,0,3,,3738.5069999999832,response,ISIC_0046729.JPG,4,ISIC_4286715.JPG,ISIC_4286715.JPG,false,0,keypress(z),500,591679.6000000238,591679.5,587933.769,587935.1000000238,587940.993,591690.692,8,400,10,,ISIC_0046729.JPG
break,html.Screen,4_109_1,2023-11-03T01:42:38.459Z,,0,,,NaN,,,,,,false,,,,591680,591680,,591679.8000000119,,591690.692,8,400,,,
break_continue,html.Screen,4_109_2,2023-11-03T01:42:38.459Z,,0,,,NaN,,,,,,false,,,,591680.2000000179,591680.2000000179,,591680.1000000238,,591690.692,8,400,,,
sequence,flow.Sequence,4_109,2023-11-03T01:42:38.459Z,,0,,,3739.2070000178646,completion,,,,,false,,,,591680.3000000119,591680.2000000179,587933.769,587935.1000000238,587940.993,591690.692,8,400,,,
trial,html.Screen,4_110_0,2023-11-03T01:42:42.572Z,,0,3,,4102.108000011882,response,ISIC_0247330.JPG,5,ISIC_0065658.JPG,ISIC_0247330.JPG,false,1,keypress(m),500,595793,595792.8000000119,591676.366,591680.3000000119,591690.692,595794.618,8,400,11,,ISIC_0065658.JPG
break,html.Screen,4_110_1,2023-11-03T01:42:42.572Z,,0,,,NaN,,,,,,false,,,,595793.5,595793.400000006,,595793.1000000238,,595794.618,8,400,,,
break_continue,html.Screen,4_110_2,2023-11-03T01:42:42.573Z,,0,,,NaN,,,,,,false,,,,595793.8000000119,595793.7000000179,,595793.6000000238,,595794.618,8,400,,,
sequence,flow.Sequence,4_110,2023-11-03T01:42:42.573Z,,0,,,4103.008000017842,completion,,,,,false,,,,595794,595793.7000000179,591676.366,591680.3000000119,591690.692,595794.618,8,400,,,
trial,html.Screen,4_111_0,2023-11-03T01:42:45.966Z,,0,3,,3392.682000011904,response,ISIC_0028086.JPG,6,ISIC_0033452.JPG,ISIC_0033452.JPG,false,0,keypress(z),500,599187.5,599187.3000000119,595787.674,595794.1000000238,595794.618,599190.575,8,400,12,,ISIC_0028086.JPG
break,html.Screen,4_111_1,2023-11-03T01:42:45.966Z,,0,,,NaN,,,,,,false,,,,599187.7000000179,599187.6000000238,,599187.5,,599190.575,8,400,,,
break_continue,html.Screen,4_111_2,2023-11-03T01:42:45.967Z,,0,,,NaN,,,,,,false,,,,599187.8000000119,599187.8000000119,,599187.8000000119,,599190.575,8,400,,,
sequence,flow.Sequence,4_111,2023-11-03T01:42:45.967Z,,0,,,3393.182000011904,completion,,,,,false,,,,599187.900000006,599187.8000000119,595787.674,595794.1000000238,595794.618,599190.575,8,400,,,
trial,html.Screen,4_112_0,2023-11-03T01:42:49.103Z,,0,3,,3134.0250000238884,response,ISIC_0009905.JPG,5,ISIC_0046571.JPG,ISIC_0046571.JPG,false,0,keypress(z),500,602324.8000000119,602324.6000000238,599183.429,599187.900000006,599190.575,602336.123,8,400,13,,ISIC_0009905.JPG
break,html.Screen,4_112_1,2023-11-03T01:42:49.104Z,,0,,,NaN,,,,,,false,,,,602325.2000000179,602325.1000000238,,602324.8000000119,,602336.123,8,400,,,
break_continue,html.Screen,4_112_2,2023-11-03T01:42:49.104Z,,0,,,NaN,,,,,,false,,,,602325.5,602325.400000006,,602325.3000000119,,602336.123,8,400,,,
sequence,flow.Sequence,4_112,2023-11-03T01:42:49.104Z,,0,,,3134.825000006007,completion,,,,,false,,,,602325.6000000238,602325.400000006,599183.429,599187.900000006,599190.575,602336.123,8,400,,,
trial,html.Screen,4_113_0,2023-11-03T01:42:52.049Z,,0,3,,2934.277000005939,response,ISIC_0231167.JPG,4,ISIC_0029470.JPG,ISIC_0231167.JPG,false,1,keypress(m),500,605270.5,605270.400000006,602322.455,602325.8000000119,602336.123,605273.512,8,400,14,,ISIC_0029470.JPG
break,html.Screen,4_113_1,2023-11-03T01:42:52.050Z,,0,,,NaN,,,,,,false,,,,605270.900000006,605270.900000006,,605270.7000000179,,605273.512,8,400,,,
break_continue,html.Screen,4_113_2,2023-11-03T01:42:52.050Z,,0,,,NaN,,,,,,false,,,,605271.1000000238,605271,,605271,,605273.512,8,400,,,
sequence,flow.Sequence,4_113,2023-11-03T01:42:52.050Z,,0,,,2934.8769999999786,completion,,,,,false,,,,605271.2000000179,605271,602322.455,602325.8000000119,602336.123,605273.512,8,400,,,
trial,html.Screen,4_114_0,2023-11-03T01:42:57.331Z,,0,3,,5278.988000000012,response,ISIC_1558504.JPG,6,ISIC_0294399.JPG,ISIC_1558504.JPG,false,1,keypress(m),500,610552.7000000179,610552.5,605266.568,605271.3000000119,605273.512,610557.99,8,400,15,,ISIC_0294399.JPG
break,html.Screen,4_114_1,2023-11-03T01:42:57.332Z,,0,,,NaN,,,,,,false,,,,610553.3000000119,610553.1000000238,,610552.900000006,,610557.99,8,400,,,
break_continue,html.Screen,4_114_2,2023-11-03T01:42:57.332Z,,0,,,NaN,,,,,,false,,,,610553.6000000238,610553.400000006,,610553.400000006,,610557.99,8,400,,,
sequence,flow.Sequence,4_114,2023-11-03T01:42:57.333Z,,0,,,5279.888000005973,completion,,,,,false,,,,610553.8000000119,610553.400000006,605266.568,605271.2000000179,605273.512,610557.99,8,400,,,
trial,html.Screen,4_115_0,2023-11-03T01:43:00.503Z,,0,3,,3165.8100000119302,response,ISIC_0010770.JPG,5,ISIC_6844752.JPG,ISIC_0010770.JPG,false,1,keypress(m),500,613723.900000006,613723.8000000119,610551.046,610553.8000000119,610557.99,613724.774,8,400,16,,ISIC_6844752.JPG
break,html.Screen,4_115_1,2023-11-03T01:43:00.503Z,,0,,,NaN,,,,,,false,,,,613724.3000000119,613724.2000000179,,613724,,613724.774,8,400,,,
break_continue,html.Screen,4_115_2,2023-11-03T01:43:00.503Z,,0,,,NaN,,,,,,false,,,,613724.400000006,613724.400000006,,613724.3000000119,,613724.774,8,400,,,
sequence,flow.Sequence,4_115,2023-11-03T01:43:00.503Z,,0,,,3166.41000000597,completion,,,,,false,,,,613724.5,613724.400000006,610551.046,610553.8000000119,610557.99,613724.774,8,400,,,
trial,html.Screen,4_116_0,2023-11-03T01:43:04.905Z,,0,3,,4401.526000011945,response,ISIC_3234899.JPG,4,ISIC_0064656.JPG,ISIC_3234899.JPG,false,1,keypress(m),500,618126.400000006,618126.3000000119,613717.83,613724.6000000238,613724.774,618127.388,8,400,17,,ISIC_0064656.JPG
break,html.Screen,4_116_1,2023-11-03T01:43:04.906Z,,0,,,NaN,,,,,,false,,,,618126.7000000179,618126.7000000179,,618126.5,,618127.388,8,400,,,
break_continue,html.Screen,4_116_2,2023-11-03T01:43:04.906Z,,0,,,NaN,,,,,,false,,,,618126.8000000119,618126.8000000119,,618126.8000000119,,618127.388,8,400,,,
sequence,flow.Sequence,4_116,2023-11-03T01:43:04.906Z,,0,,,4402.026000011945,completion,,,,,false,,,,618127,618126.8000000119,613717.83,613724.6000000238,613724.774,618127.388,8,400,,,
trial,html.Screen,4_117_0,2023-11-03T01:43:08.955Z,,0,3,,4048.1119999999646,response,ISIC_0067027.JPG,5,ISIC_4189981.JPG,ISIC_4189981.JPG,false,0,keypress(z),500,622175.8000000119,622175.5,618120.444,618127,618127.388,622182.682,8,400,18,,ISIC_0067027.JPG
break,html.Screen,4_117_1,2023-11-03T01:43:08.955Z,,0,,,NaN,,,,,,false,,,,622176.3000000119,622176.2000000179,,622176,,622182.682,8,400,,,
break_continue,html.Screen,4_117_2,2023-11-03T01:43:08.955Z,,0,,,NaN,,,,,,false,,,,622176.6000000238,622176.5,,622176.400000006,,622182.682,8,400,,,
sequence,flow.Sequence,4_117,2023-11-03T01:43:08.956Z,,0,,,4049.1119999999646,completion,,,,,false,,,,622176.8000000119,622176.5,618120.444,618127,618127.388,622182.682,8,400,,,
trial,html.Screen,4_118_0,2023-11-03T01:43:12.189Z,,0,3,,3227.2180000059307,response,ISIC_0066354.JPG,4,ISIC_0012057.JPG,ISIC_0012057.JPG,false,0,keypress(z),500,625410.2000000179,625409.900000006,622175.722,622176.900000006,622182.682,625411.769,8,400,19,,ISIC_0066354.JPG
break,html.Screen,4_118_1,2023-11-03T01:43:12.189Z,,0,,,NaN,,,,,,false,,,,625410.7000000179,625410.6000000238,,625410.3000000119,,625411.769,8,400,,,
break_continue,html.Screen,4_118_2,2023-11-03T01:43:12.190Z,,0,,,NaN,,,,,,false,,,,625411,625410.900000006,,625410.8000000119,,625411.769,8,400,,,
sequence,flow.Sequence,4_118,2023-11-03T01:43:12.190Z,,0,,,3228.2180000059307,completion,,,,,false,,,,625411.1000000238,625410.900000006,622175.722,622176.8000000119,622182.682,625411.769,8,400,,,
trial,html.Screen,4_119_0,2023-11-03T01:43:15.792Z,,0,3,,3600.9310000179103,response,ISIC_2565154.JPG,5,ISIC_1615996.JPG,ISIC_2565154.JPG,false,1,keypress(m),500,629012.8000000119,629012.7000000179,625404.825,625411.2000000179,625411.769,629015.902,8,400,20,,ISIC_1615996.JPG
break,html.Screen,4_119_1,2023-11-03T01:43:15.792Z,,0,,,NaN,,,,,,false,,,,629013.1000000238,629013,,629012.900000006,,629015.902,8,400,,,
break_continue,html.Screen,4_119_2,2023-11-03T01:43:15.792Z,,0,,,NaN,,,,,,false,,,,629013.2000000179,629013.2000000179,,629013.2000000179,,629015.902,8,400,,,
sequence,flow.Sequence,4_119,2023-11-03T01:43:15.792Z,,0,,,3601.4310000179103,completion,,,,,false,,,,629013.3000000119,629013.2000000179,625404.825,625411.1000000238,625411.769,629015.902,8,400,,,
trial,html.Screen,4_120_0,2023-11-03T01:43:19.714Z,,0,3,,3918.69800002384,response,ISIC_0054744.JPG,5,ISIC_0054792.JPG,ISIC_0054792.JPG,false,0,keypress(z),500,632934.8000000119,632934.6000000238,629008.958,629013.3000000119,629015.902,632939.381,8,400,21,,ISIC_0054744.JPG
break,html.Screen,4_120_1,2023-11-03T01:43:19.714Z,,0,,,NaN,,,,,,false,,,,632935.1000000238,632935,,632934.900000006,,632939.381,8,400,,,
break_continue,html.Screen,4_120_2,2023-11-03T01:43:19.714Z,,0,,,NaN,,,,,,false,,,,632935.400000006,632935.3000000119,,632935.2000000179,,632939.381,8,400,,,
sequence,flow.Sequence,4_120,2023-11-03T01:43:19.714Z,,0,,,3919.398000011919,completion,,,,,false,,,,632935.400000006,632935.3000000119,629008.958,629013.3000000119,629015.902,632939.381,8,400,,,
trial,html.Screen,4_121_0,2023-11-03T01:43:23.540Z,,0,3,,3821.5190000059083,response,ISIC_4786412.JPG,4,ISIC_0316668.JPG,ISIC_4786412.JPG,false,1,keypress(m),500,636761.1000000238,636760.900000006,632932.437,632935.6000000238,632939.381,636765.58,8,400,22,,ISIC_0316668.JPG
break,html.Screen,4_121_1,2023-11-03T01:43:23.540Z,,0,,,NaN,,,,,,false,,,,636761.400000006,636761.3000000119,,636761.2000000179,,636765.58,8,400,,,
break_continue,html.Screen,4_121_2,2023-11-03T01:43:23.540Z,,0,,,NaN,,,,,,false,,,,636761.6000000238,636761.5,,636761.5,,636765.58,8,400,,,
sequence,flow.Sequence,4_121,2023-11-03T01:43:23.540Z,,0,,,3822.118999999948,completion,,,,,false,,,,636761.7000000179,636761.5,632932.437,632935.5,632939.381,636765.58,8,400,,,
trial,html.Screen,4_122_0,2023-11-03T01:43:30.118Z,,0,3,,6573.720000011963,response,ISIC_0026652.JPG,5,ISIC_0015390.JPG,ISIC_0026652.JPG,false,1,keypress(m),500,643339.6000000238,643339.3000000119,636758.529,636761.7000000179,636765.58,643341.598,8,400,23,,ISIC_0015390.JPG
break,html.Screen,4_122_1,2023-11-03T01:43:30.119Z,,0,,,NaN,,,,,,false,,,,643340,643339.900000006,,643339.7000000179,,643341.598,8,400,,,
break_continue,html.Screen,4_122_2,2023-11-03T01:43:30.119Z,,0,,,NaN,,,,,,false,,,,643340.2000000179,643340.1000000238,,643340,,643341.598,8,400,,,
sequence,flow.Sequence,4_122,2023-11-03T01:43:30.119Z,,0,,,6574.520000023884,completion,,,,,false,,,,643340.3000000119,643340.1000000238,636758.529,636761.7000000179,636765.58,643341.598,8,400,,,
trial,html.Screen,4_123_0,2023-11-03T01:43:33.977Z,,0,3,,3856.902000000002,response,ISIC_5454766.JPG,5,ISIC_6180870.JPG,ISIC_6180870.JPG,false,0,keypress(z),500,647198.6000000238,647198.5,643334.654,643340.3000000119,643341.598,647202.768,8,400,24,,ISIC_5454766.JPG
break,html.Screen,4_123_1,2023-11-03T01:43:33.978Z,,0,,,NaN,,,,,,false,,,,647199.3000000119,647199.2000000179,,647198.900000006,,647202.768,8,400,,,
break_continue,html.Screen,4_123_2,2023-11-03T01:43:33.978Z,,0,,,NaN,,,,,,false,,,,647199.7000000179,647199.5,,647199.400000006,,647202.768,8,400,,,
sequence,flow.Sequence,4_123,2023-11-03T01:43:33.979Z,,0,,,3857.902000000002,completion,,,,,false,,,,647199.900000006,647199.5,643334.654,643340.3000000119,643341.598,647202.768,8,400,,,
trial,html.Screen,4_124_0,2023-11-03T01:43:38.028Z,,0,3,,4046.4320000178413,response,ISIC_0029905.JPG,5,ISIC_8429798.JPG,ISIC_0029905.JPG,false,1,keypress(m),500,651249.400000006,651249.2000000179,647195.824,647199.900000006,647202.768,651251.257,8,400,25,,ISIC_8429798.JPG
break,html.Screen,4_124_1,2023-11-03T01:43:38.029Z,,0,,,NaN,,,,,,false,,,,651250.1000000238,651249.900000006,,651249.6000000238,,651251.257,8,400,,,
break_continue,html.Screen,4_124_2,2023-11-03T01:43:38.029Z,,0,,,NaN,,,,,,false,,,,651250.6000000238,651250.3000000119,,651250.2000000179,,651251.257,8,400,,,
sequence,flow.Sequence,4_124,2023-11-03T01:43:38.030Z,,0,,,4047.532000011881,completion,,,,,false,,,,651250.7000000179,651250.3000000119,647195.824,647199.900000006,647202.768,651251.257,8,400,,,
trial,html.Screen,4_125_0,2023-11-03T01:43:41.072Z,,0,3,,3041.3430000238586,response,ISIC_0484171.JPG,5,ISIC_1396767.JPG,ISIC_1396767.JPG,false,0,keypress(z),500,654292.7000000179,654292.6000000238,651244.313,651250.900000006,651251.257,654299.649,8,400,26,,ISIC_0484171.JPG
break,html.Screen,4_125_1,2023-11-03T01:43:41.072Z,,0,,,NaN,,,,,,false,,,,654293,654293,,654292.900000006,,654299.649,8,400,,,
