sender,sender_type,sender_id,timestamp,meta,,blockNo,condition,duration,ended_on,img_left,img_reveal,img_right,loser,practice,response,response_action,selection_duration,time_commit,time_end,time_render,time_run,time_show,time_switch,total_blocks,total_trials,trialNo,url,winner
informed_consent,html.Screen,0,2023-05-01T22:51:38.989Z,"{""labjs_version"":""20.2.4"",""labjs_build"":{""flavor"":""production"",""commit"":""f5b4a49f956347addd546a832a3327688c2c0fef""},""location"":""https://run.pavlovia.org/MurrayBennett/melanoma-2afc/?participant=64725"",""userAgent"":""Mozilla/5.0 (Windows NT 10.0; Win64; x64) AppleWebKit/537.36 (KHTML, like Gecko) Chrome/112.0.0.0 Safari/537.36 Edg/112.0.1722.64"",""platform"":""Win32"",""language"":""en-US"",""locale"":""en-US"",""timeZone"":""America/Chicago"",""timezoneOffset"":300,""screen_width"":1280,""screen_height"":800,""scroll_width"":1280,""scroll_height"":633,""window_innerWidth"":1280,""window_innerHeight"":681,""devicePixelRatio"":1.5}",,,,2363.40700000149,response,,,,,,consent,click button,,5017.300000000745,5015.60000000149,2635.454,2635.5,2652.193,5045.369,,,,"{""participant"":""64725""}",
Welcome,html.Screen,1,2023-05-01T22:51:40.481Z,,,,irregular,1463.3309999992553,response,,,,,,continue,click button,,6509.5,6508.699999999255,5001.039,5017.5,5045.369,6517.009,,,,,
trial,html.Screen,2_0_0,2023-05-01T22:51:51.969Z,,0,0,,11511.928999999998,timeout,ISIC_0061792.JPG,,ISIC_4679428.JPG,,true,,,500,17996.5,17996.400000002235,6500.429,6509.5,6517.009,18028.938,1,6,1,,
sequence,flow.Sequence,2_0,2023-05-01T22:51:51.969Z,,0,,,11479.391000002235,completion,,,,,true,,,,17996.60000000149,17996.400000002235,6500.429,6509.5,6517.009,18028.938,1,6,,,
trial,html.Screen,2_1_0,2023-05-01T22:52:01.594Z,,0,0,,9593.261999999257,response,ISIC_0776486.JPG,,ISIC_5199497.JPG,ISIC_5199497.JPG,true,0,keypress(z),500,27622.400000002235,27622.199999999255,18012.28,17996.699999999255,18028.938,27624.528,1,6,2,,ISIC_0776486.JPG
sequence,flow.Sequence,2_1,2023-05-01T22:52:01.595Z,,0,,,9593.261999999257,completion,,,,,true,,,,27622.60000000149,27622.199999999255,18012.28,17996.699999999255,18028.938,27624.528,1,6,,,
trial,html.Screen,2_2_0,2023-05-01T22:52:03.928Z,,0,0,,2331.2720000007466,response,ISIC_2556187.JPG,,ISIC_8575776.JPG,ISIC_8575776.JPG,true,0,keypress(z),500,29956,29955.800000000745,27608.145,27622.800000000745,27624.528,29973.486,1,6,3,,ISIC_2556187.JPG
sequence,flow.Sequence,2_2,2023-05-01T22:52:03.928Z,,0,,,2331.2720000007466,completion,,,,,true,,,,29956.199999999255,29955.800000000745,27608.145,27622.800000000745,27624.528,29973.486,1,6,,,
trial,html.Screen,2_3_0,2023-05-01T22:52:06.033Z,,0,0,,2086.8140000007443,response,ISIC_8141769.JPG,,ISIC_9238366.JPG,ISIC_8141769.JPG,true,1,keypress(m),500,32060.5,32060.300000000745,29956.82,29956.400000002235,29973.486,32089.63,1,6,4,,ISIC_9238366.JPG
sequence,flow.Sequence,2_3,2023-05-01T22:52:06.033Z,,0,,,2086.8140000007443,completion,,,,,true,,,,32060.800000000745,32060.300000000745,29956.82,29956.400000002235,29973.486,32089.63,1,6,,,
trial,html.Screen,2_4_0,2023-05-01T22:52:08.270Z,,0,0,,2208.369999999999,response,ISIC_8949026.JPG,,ISIC_9959593.JPG,ISIC_8949026.JPG,true,1,keypress(m),500,34298.199999999255,34298,32072.918,32061,32089.63,34305.008,1,6,5,,ISIC_9959593.JPG
sequence,flow.Sequence,2_4,2023-05-01T22:52:08.271Z,,0,,,2208.369999999999,completion,,,,,true,,,,34298.699999999255,34298,32072.918,32061,32089.63,34305.008,1,6,,,
trial,html.Screen,2_5_0,2023-05-01T22:52:10.401Z,,0,0,,2123.5920000014885,response,ISIC_0010479.JPG,,ISIC_0460240.JPG,ISIC_0460240.JPG,true,0,keypress(z),500,36428.900000002235,36428.60000000149,34288.69,34298.900000002235,34305.008,36437.445,1,6,6,,ISIC_0010479.JPG
sequence,flow.Sequence,2_5,2023-05-01T22:52:10.401Z,,0,,,2123.5920000014885,completion,,,,,true,,,,36429.10000000149,36428.60000000149,34288.69,34298.900000002235,34305.008,36437.445,1,6,,,
loop,flow.Loop,2,2023-05-01T22:52:10.401Z,,,,,29911.591000001492,completion,,,,,true,,,,36429.300000000745,36428.60000000149,6500.429,6509.5,6517.009,36437.445,1,6,,,
exp_instructions,html.Screen,3,2023-05-01T22:52:29.252Z,,,,,18841.055,response,,,,,,continue,keypress(Space),,55279.60000000149,55278.5,36421.047,36429.400000002235,36437.445,55295.988,,,,,
trial,html.Screen,4_0_0,2023-05-01T22:52:31.421Z,,0,1,,2152.6120000014926,response,ISIC_2509304.JPG,,ISIC_0024496.JPG,ISIC_0024496.JPG,false,0,keypress(z),500,57448.800000000745,57448.60000000149,55274.475,55279.900000002235,55295.988,57461.748,8,400,1,,ISIC_2509304.JPG
break,html.Screen,4_0_1,2023-05-01T22:52:31.422Z,,0,,,NaN,,,,,,false,,,,57449.60000000149,57449.400000002235,,57449,,57461.748,8,400,,,
break_continue,html.Screen,4_0_2,2023-05-01T22:52:31.422Z,,0,,,NaN,,,,,,false,,,,57450.199999999255,57450.10000000149,,57449.900000002235,,57461.748,8,400,,,
sequence,flow.Sequence,4_0,2023-05-01T22:52:31.422Z,,0,,,2154.1120000014926,completion,,,,,false,,,,57450.5,57450.10000000149,55274.475,55279.900000002235,55295.988,57461.748,8,400,,,
trial,html.Screen,4_1_0,2023-05-01T22:52:33.523Z,,0,1,,2089.2520000000004,response,ISIC_0004996.JPG,,ISIC_0026500.JPG,ISIC_0026500.JPG,false,0,keypress(z),500,59551.400000002235,59551,57445.678,57450.5,57461.748,59560.673,8,400,2,,ISIC_0004996.JPG
break,html.Screen,4_1_1,2023-05-01T22:52:33.525Z,,0,,,NaN,,,,,,false,,,,59552.699999999255,59552.400000002235,,59551.699999999255,,59560.673,8,400,,,
break_continue,html.Screen,4_1_2,2023-05-01T22:52:33.525Z,,0,,,NaN,,,,,,false,,,,59553,59552.900000002235,,59552.800000000745,,59560.673,8,400,,,
sequence,flow.Sequence,4_1,2023-05-01T22:52:33.525Z,,0,,,2091.1520000022356,completion,,,,,false,,,,59553.300000000745,59552.900000002235,57445.678,57450.5,57461.748,59560.673,8,400,,,
trial,html.Screen,4_2_0,2023-05-01T22:52:35.671Z,,0,1,,2137.8269999999975,response,ISIC_3857463.JPG,,ISIC_1472731.JPG,ISIC_1472731.JPG,false,0,keypress(z),500,61698.699999999255,61698.5,59544.584,59553.300000000745,59560.673,61710.085,8,400,3,,ISIC_3857463.JPG
break,html.Screen,4_2_1,2023-05-01T22:52:35.671Z,,0,,,NaN,,,,,,false,,,,61699.300000000745,61699.199999999255,,61698.900000002235,,61710.085,8,400,,,
break_continue,html.Screen,4_2_2,2023-05-01T22:52:35.672Z,,0,,,NaN,,,,,,false,,,,61699.800000000745,61699.699999999255,,61699.5,,61710.085,8,400,,,
sequence,flow.Sequence,4_2,2023-05-01T22:52:35.672Z,,0,,,2139.0269999992524,completion,,,,,false,,,,61700.10000000149,61699.699999999255,59544.584,59553.300000000745,59560.673,61710.085,8,400,,,
trial,html.Screen,4_3_0,2023-05-01T22:52:37.755Z,,0,1,,2065.114999999256,response,ISIC_8194835.JPG,,ISIC_5181177.JPG,ISIC_5181177.JPG,false,0,keypress(z),500,63775.300000000745,63775.199999999255,61693.637,61700.199999999255,61710.085,63792.294,8,400,4,,ISIC_8194835.JPG
break,html.Screen,4_3_1,2023-05-01T22:52:37.756Z,,0,,,NaN,,,,,,false,,,,63776.199999999255,63775.900000002235,,63775.5,,63792.294,8,400,,,
break_continue,html.Screen,4_3_2,2023-05-01T22:52:37.756Z,,0,,,NaN,,,,,,false,,,,63776.5,63776.400000002235,,63776.400000002235,,63792.294,8,400,,,
sequence,flow.Sequence,4_3,2023-05-01T22:52:37.756Z,,0,,,2066.315000002236,completion,,,,,false,,,,63776.699999999255,63776.400000002235,61693.637,61700.199999999255,61710.085,63792.294,8,400,,,
trial,html.Screen,4_4_0,2023-05-01T22:52:39.844Z,,0,1,,2071.7059999999983,response,ISIC_0030657.JPG,,ISIC_6937199.JPG,ISIC_6937199.JPG,false,0,keypress(z),500,65864.19999999925,65864,63759.483,63776.900000002235,63792.294,65875.634,8,400,5,,ISIC_0030657.JPG
break,html.Screen,4_4_1,2023-05-01T22:52:39.845Z,,0,,,NaN,,,,,,false,,,,65866.10000000149,65865.80000000075,,65864.5,,65875.634,8,400,,,
break_continue,html.Screen,4_4_2,2023-05-01T22:52:39.846Z,,0,,,NaN,,,,,,false,,,,65866.5,65866.30000000075,,65866.19999999925,,65875.634,8,400,,,
sequence,flow.Sequence,4_4,2023-05-01T22:52:39.846Z,,0,,,2074.0060000007434,completion,,,,,false,,,,65866.69999999925,65866.30000000075,63759.483,63776.800000000745,63792.294,65875.634,8,400,,,
trial,html.Screen,4_5_0,2023-05-01T22:52:42.217Z,,0,1,,2361.8659999999945,response,ISIC_3105924.JPG,,ISIC_9590080.JPG,ISIC_3105924.JPG,false,1,keypress(m),500,68237.69999999925,68237.5,65858.253,65866.90000000224,65875.634,68240.248,8,400,6,,ISIC_9590080.JPG
break,html.Screen,4_5_1,2023-05-01T22:52:42.218Z,,0,,,NaN,,,,,,false,,,,68238.90000000224,68238.40000000224,,68237.90000000224,,68240.248,8,400,,,
break_continue,html.Screen,4_5_2,2023-05-01T22:52:42.219Z,,0,,,NaN,,,,,,false,,,,68239.19999999925,68239.10000000149,,68239,,68240.248,8,400,,,
sequence,flow.Sequence,4_5,2023-05-01T22:52:42.219Z,,0,,,2363.4660000014846,completion,,,,,false,,,,68239.30000000075,68239.10000000149,65858.253,65866.80000000075,65875.634,68240.248,8,400,,,
trial,html.Screen,4_6_0,2023-05-01T22:52:44.286Z,,0,1,,2065.8520000014832,response,ISIC_0012059.JPG,,ISIC_2797576.JPG,ISIC_0012059.JPG,false,1,keypress(m),500,70306.40000000224,70306.10000000149,68224.063,68239.5,68240.248,70322.658,8,400,7,,ISIC_2797576.JPG
break,html.Screen,4_6_1,2023-05-01T22:52:44.288Z,,0,,,NaN,,,,,,false,,,,70308.30000000075,70308,,70306.60000000149,,70322.658,8,400,,,
break_continue,html.Screen,4_6_2,2023-05-01T22:52:44.288Z,,0,,,NaN,,,,,,false,,,,70308.60000000149,70308.60000000149,,70308.40000000224,,70322.658,8,400,,,
sequence,flow.Sequence,4_6,2023-05-01T22:52:44.288Z,,0,,,2068.3520000014832,completion,,,,,false,,,,70308.80000000075,70308.60000000149,68224.063,68239.40000000224,68240.248,70322.658,8,400,,,
trial,html.Screen,4_7_0,2023-05-01T22:52:46.320Z,,0,1,,2017.4420000014943,response,ISIC_0030417.JPG,,ISIC_0027266.JPG,ISIC_0030417.JPG,false,1,keypress(m),500,72340.30000000075,72340.10000000149,70306.48,70308.90000000224,70322.658,72371.808,8,400,8,,ISIC_0027266.JPG
break,html.Screen,4_7_1,2023-05-01T22:52:46.322Z,,0,,,NaN,,,,,,false,,,,72342.19999999925,72341.90000000224,,72340.60000000149,,72371.808,8,400,,,
break_continue,html.Screen,4_7_2,2023-05-01T22:52:46.322Z,,0,,,NaN,,,,,,false,,,,72342.40000000224,72342.30000000075,,72342.19999999925,,72371.808,8,400,,,
sequence,flow.Sequence,4_7,2023-05-01T22:52:46.322Z,,0,,,2019.6420000007492,completion,,,,,false,,,,72342.60000000149,72342.30000000075,70306.48,70308.80000000075,70322.658,72371.808,8,400,,,
trial,html.Screen,4_8_0,2023-05-01T22:52:48.404Z,,0,1,,2052.0920000022306,response,ISIC_1102075.JPG,,ISIC_9322551.JPG,ISIC_1102075.JPG,false,1,keypress(m),500,74424.30000000075,74423.90000000224,72338.902,72342.69999999925,72371.808,74438.063,8,400,9,,ISIC_9322551.JPG
break,html.Screen,4_8_1,2023-05-01T22:52:48.405Z,,0,,,NaN,,,,,,false,,,,74425.69999999925,74425.30000000075,,74424.5,,74438.063,8,400,,,
break_continue,html.Screen,4_8_2,2023-05-01T22:52:48.406Z,,0,,,NaN,,,,,,false,,,,74426.19999999925,74426,,74425.80000000075,,74438.063,8,400,,,
sequence,flow.Sequence,4_8,2023-05-01T22:52:48.406Z,,0,,,2054.1919999999955,completion,,,,,false,,,,74426.40000000224,74426,72338.902,72342.60000000149,72371.808,74438.063,8,400,,,
trial,html.Screen,4_9_0,2023-05-01T22:52:50.469Z,,0,1,,2051.4370000000054,response,ISIC_5546488.JPG,,ISIC_5307210.JPG,ISIC_5546488.JPG,false,1,keypress(m),500,76489.80000000075,76489.5,74407.651,74426.60000000149,74438.063,76503.497,8,400,10,,ISIC_5307210.JPG
break,html.Screen,4_9_1,2023-05-01T22:52:50.470Z,,0,,,NaN,,,,,,false,,,,76490.5,76490.40000000224,,76490,,76503.497,8,400,,,
break_continue,html.Screen,4_9_2,2023-05-01T22:52:50.470Z,,0,,,NaN,,,,,,false,,,,76490.90000000224,76490.80000000075,,76490.60000000149,,76503.497,8,400,,,
sequence,flow.Sequence,4_9,2023-05-01T22:52:50.470Z,,0,,,2052.7370000007504,completion,,,,,false,,,,76491,76490.80000000075,74407.651,74426.5,74438.063,76503.497,8,400,,,
trial,html.Screen,4_10_0,2023-05-01T22:52:52.920Z,,0,1,,2437.103000001487,response,ISIC_9482251.JPG,,ISIC_4829706.JPG,ISIC_9482251.JPG,false,1,keypress(m),500,78940.90000000224,78940.60000000149,76487.102,76491.19999999925,76503.497,78952.656,8,400,11,,ISIC_4829706.JPG
break,html.Screen,4_10_1,2023-05-01T22:52:52.921Z,,0,,,NaN,,,,,,false,,,,78941.90000000224,78941.60000000149,,78941.10000000149,,78952.656,8,400,,,
break_continue,html.Screen,4_10_2,2023-05-01T22:52:52.922Z,,0,,,NaN,,,,,,false,,,,78942.5,78942.30000000075,,78942.10000000149,,78952.656,8,400,,,
sequence,flow.Sequence,4_10,2023-05-01T22:52:52.922Z,,0,,,2438.803000000742,completion,,,,,false,,,,78942.69999999925,78942.30000000075,76487.102,76491.10000000149,76503.497,78952.656,8,400,,,
trial,html.Screen,4_11_0,2023-05-01T22:52:55.050Z,,0,1,,2117.1440000007424,response,ISIC_0010266.JPG,,ISIC_0000026.JPG,ISIC_0010266.JPG,false,1,keypress(m),500,81070.30000000075,81069.80000000075,78935.637,78942.90000000224,78952.656,81084.712,8,400,12,,ISIC_0000026.JPG
break,html.Screen,4_11_1,2023-05-01T22:52:55.051Z,,0,,,NaN,,,,,,false,,,,81071.69999999925,81071.19999999925,,81070.5,,81084.712,8,400,,,
break_continue,html.Screen,4_11_2,2023-05-01T22:52:55.052Z,,0,,,NaN,,,,,,false,,,,81072.30000000075,81072.19999999925,,81071.90000000224,,81084.712,8,400,,,
sequence,flow.Sequence,4_11,2023-05-01T22:52:55.052Z,,0,,,2119.5439999992523,completion,,,,,false,,,,81072.60000000149,81072.19999999925,78935.637,78942.80000000075,78952.656,81084.712,8,400,,,
trial,html.Screen,4_12_0,2023-05-01T22:52:57.223Z,,0,1,,2158.1880000022356,response,ISIC_0001105.JPG,,ISIC_4563766.JPG,ISIC_0001105.JPG,false,1,keypress(m),500,83243.30000000075,83242.90000000224,81068.614,81072.69999999925,81084.712,83250.337,8,400,13,,ISIC_4563766.JPG
break,html.Screen,4_12_1,2023-05-01T22:52:57.225Z,,0,,,NaN,,,,,,false,,,,83245.10000000149,83244.80000000075,,83243.60000000149,,83250.337,8,400,,,
break_continue,html.Screen,4_12_2,2023-05-01T22:52:57.225Z,,0,,,NaN,,,,,,false,,,,83245.5,83245.30000000075,,83245.19999999925,,83250.337,8,400,,,
sequence,flow.Sequence,4_12,2023-05-01T22:52:57.225Z,,0,,,2160.5880000007455,completion,,,,,false,,,,83245.69999999925,83245.30000000075,81068.614,81072.69999999925,81084.712,83250.337,8,400,,,
trial,html.Screen,4_13_0,2023-05-01T22:52:59.721Z,,0,1,,2491.2630000014906,response,ISIC_0000513.JPG,,ISIC_0944273.JPG,ISIC_0000513.JPG,false,1,keypress(m),500,85741.80000000075,85741.60000000149,83234.318,83245.90000000224,83250.337,85749.371,8,400,14,,ISIC_0944273.JPG
break,html.Screen,4_13_1,2023-05-01T22:52:59.723Z,,0,,,NaN,,,,,,false,,,,85743.10000000149,85742.5,,85742.10000000149,,85749.371,8,400,,,
break_continue,html.Screen,4_13_2,2023-05-01T22:52:59.723Z,,0,,,NaN,,,,,,false,,,,85743.60000000149,85743.40000000224,,85743.19999999925,,85749.371,8,400,,,
sequence,flow.Sequence,4_13,2023-05-01T22:52:59.723Z,,0,,,2493.0630000022356,completion,,,,,false,,,,85743.90000000224,85743.40000000224,83234.318,83245.90000000224,83250.337,85749.371,8,400,,,
trial,html.Screen,4_14_0,2023-05-01T22:53:01.870Z,,0,1,,2140.729000001491,response,ISIC_0032709.JPG,,ISIC_0056938.JPG,ISIC_0032709.JPG,false,1,keypress(m),500,87890.5,87890.10000000149,85733.099,85744,85749.371,87898.432,8,400,15,,ISIC_0056938.JPG
break,html.Screen,4_14_1,2023-05-01T22:53:01.871Z,,0,,,NaN,,,,,,false,,,,87891.80000000075,87891.19999999925,,87890.69999999925,,87898.432,8,400,,,
break_continue,html.Screen,4_14_2,2023-05-01T22:53:01.872Z,,0,,,NaN,,,,,,false,,,,87892.40000000224,87892.19999999925,,87892.10000000149,,87898.432,8,400,,,
sequence,flow.Sequence,4_14,2023-05-01T22:53:01.872Z,,0,,,2142.8289999992558,completion,,,,,false,,,,87892.5,87892.19999999925,85733.099,85744,85749.371,87898.432,8,400,,,
trial,html.Screen,4_15_0,2023-05-01T22:53:03.973Z,,0,1,,2095.1680000014894,response,ISIC_0046985.JPG,,ISIC_4836699.JPG,ISIC_0046985.JPG,false,1,keypress(m),500,89993.90000000224,89993.60000000149,87881.685,87892.69999999925,87898.432,89997.46,8,400,16,,ISIC_4836699.JPG
break,html.Screen,4_15_1,2023-05-01T22:53:03.974Z,,0,,,NaN,,,,,,false,,,,89994.90000000224,89994.60000000149,,89994.10000000149,,89997.46,8,400,,,
break_continue,html.Screen,4_15_2,2023-05-01T22:53:03.975Z,,0,,,NaN,,,,,,false,,,,89995.69999999925,89995.40000000224,,89995.19999999925,,89997.46,8,400,,,
sequence,flow.Sequence,4_15,2023-05-01T22:53:03.975Z,,0,,,2096.9680000022345,completion,,,,,false,,,,89995.90000000224,89995.40000000224,87881.685,87892.60000000149,87898.432,89997.46,8,400,,,
trial,html.Screen,4_16_0,2023-05-01T22:53:06.245Z,,0,1,,2268.0399999999936,response,ISIC_2206284.JPG,,ISIC_0027751.JPG,ISIC_2206284.JPG,false,1,keypress(m),500,92265.69999999925,92265.5,89980.844,89996,89997.46,92296.687,8,400,17,,ISIC_0027751.JPG
break,html.Screen,4_16_1,2023-05-01T22:53:06.246Z,,0,,,NaN,,,,,,false,,,,92266.5,92266.30000000075,,92265.90000000224,,92296.687,8,400,,,
break_continue,html.Screen,4_16_2,2023-05-01T22:53:06.246Z,,0,,,NaN,,,,,,false,,,,92266.69999999925,92266.69999999925,,92266.60000000149,,92296.687,8,400,,,
sequence,flow.Sequence,4_16,2023-05-01T22:53:06.246Z,,0,,,2269.2399999992485,completion,,,,,false,,,,92266.80000000075,92266.69999999925,89980.844,89996,89997.46,92296.687,8,400,,,
trial,html.Screen,4_17_0,2023-05-01T22:53:08.421Z,,0,1,,2144.3129999999946,response,ISIC_3207651.JPG,,ISIC_0010478.JPG,ISIC_3207651.JPG,false,1,keypress(m),500,94441.30000000075,94441,92279.982,92266.90000000224,92296.687,94445.508,8,400,18,,ISIC_0010478.JPG
break,html.Screen,4_17_1,2023-05-01T22:53:08.422Z,,0,,,NaN,,,,,,false,,,,94442.5,94442,,94441.5,,94445.508,8,400,,,
break_continue,html.Screen,4_17_2,2023-05-01T22:53:08.422Z,,0,,,NaN,,,,,,false,,,,94443,94442.90000000224,,94442.69999999925,,94445.508,8,400,,,
sequence,flow.Sequence,4_17,2023-05-01T22:53:08.423Z,,0,,,2146.21300000223,completion,,,,,false,,,,94443.19999999925,94442.90000000224,92279.982,92266.90000000224,92296.687,94445.508,8,400,,,
trial,html.Screen,4_18_0,2023-05-01T22:53:12.273Z,,0,1,,3847.6919999992533,response,ISIC_0024296.JPG,,ISIC_1638436.JPG,ISIC_1638436.JPG,false,0,keypress(z),500,98293.5,98293.19999999925,94429.78,94443.40000000224,94445.508,98310.873,8,400,19,,ISIC_0024296.JPG
break,html.Screen,4_18_1,2023-05-01T22:53:12.274Z,,0,,,NaN,,,,,,false,,,,98294.60000000149,98294.30000000075,,98293.80000000075,,98310.873,8,400,,,
break_continue,html.Screen,4_18_2,2023-05-01T22:53:12.275Z,,0,,,NaN,,,,,,false,,,,98295.30000000075,98295.10000000149,,98295,,98310.873,8,400,,,
sequence,flow.Sequence,4_18,2023-05-01T22:53:12.275Z,,0,,,3849.5920000014885,completion,,,,,false,,,,98295.60000000149,98295.10000000149,94429.78,94443.30000000075,94445.508,98310.873,8,400,,,
trial,html.Screen,4_19_0,2023-05-01T22:53:15.320Z,,0,1,,3028.7270000014832,response,ISIC_0067172.JPG,,ISIC_0032140.JPG,ISIC_0032140.JPG,false,0,keypress(z),500,101340.30000000075,101339.60000000149,98294.5,98295.80000000075,98310.873,101370.624,8,400,20,,ISIC_0067172.JPG
break,html.Screen,4_19_1,2023-05-01T22:53:15.321Z,,0,,,NaN,,,,,,false,,,,101341.80000000075,101341.30000000075,,101340.60000000149,,101370.624,8,400,,,
break_continue,html.Screen,4_19_2,2023-05-01T22:53:15.322Z,,0,,,NaN,,,,,,false,,,,101342.80000000075,101342.40000000224,,101342.19999999925,,101370.624,8,400,,,
sequence,flow.Sequence,4_19,2023-05-01T22:53:15.322Z,,0,,,3031.5270000022283,completion,,,,,false,,,,101343,101342.40000000224,98294.5,98295.69999999925,98310.873,101370.624,8,400,,,
trial,html.Screen,4_20_0,2023-05-01T22:53:17.490Z,,0,1,,2139.075999999259,response,ISIC_7138875.JPG,,ISIC_2433965.JPG,ISIC_2433965.JPG,false,0,keypress(z),500,103510,103509.69999999925,101326.339,101343.19999999925,101370.624,103525.377,8,400,21,,ISIC_7138875.JPG
break,html.Screen,4_20_1,2023-05-01T22:53:17.491Z,,0,,,NaN,,,,,,false,,,,103511.60000000149,103510.90000000224,,103510.40000000224,,103525.377,8,400,,,
break_continue,html.Screen,4_20_2,2023-05-01T22:53:17.492Z,,0,,,NaN,,,,,,false,,,,103512,103511.90000000224,,103511.69999999925,,103525.377,8,400,,,
sequence,flow.Sequence,4_20,2023-05-01T22:53:17.492Z,,0,,,2141.276000002239,completion,,,,,false,,,,103512.30000000075,103511.90000000224,101326.339,101343.10000000149,101370.624,103525.377,8,400,,,
trial,html.Screen,4_21_0,2023-05-01T22:53:19.525Z,,0,1,,2019.523000002242,response,ISIC_7320371.JPG,,ISIC_3518299.JPG,ISIC_3518299.JPG,false,0,keypress(z),500,105545.19999999925,105544.90000000224,103508.829,103512.5,103525.377,105557.639,8,400,22,,ISIC_7320371.JPG
break,html.Screen,4_21_1,2023-05-01T22:53:19.526Z,,0,,,NaN,,,,,,false,,,,105546.69999999925,105545.90000000224,,105545.40000000224,,105557.639,8,400,,,
break_continue,html.Screen,4_21_2,2023-05-01T22:53:19.527Z,,0,,,NaN,,,,,,false,,,,105547.10000000149,105546.90000000224,,105546.90000000224,,105557.639,8,400,,,
sequence,flow.Sequence,4_21,2023-05-01T22:53:19.527Z,,0,,,2021.523000002242,completion,,,,,false,,,,105547.30000000075,105546.90000000224,103508.829,103512.40000000224,103525.377,105557.639,8,400,,,
trial,html.Screen,4_22_0,2023-05-01T22:53:21.646Z,,0,1,,2108.2610000022396,response,ISIC_9559922.JPG,,ISIC_0025152.JPG,ISIC_0025152.JPG,false,0,keypress(z),500,107666.40000000224,107665.90000000224,105541.186,105547.5,105557.639,107673.47,8,400,23,,ISIC_9559922.JPG
break,html.Screen,4_22_1,2023-05-01T22:53:21.647Z,,0,,,NaN,,,,,,false,,,,107667.30000000075,107667,,107666.60000000149,,107673.47,8,400,,,
break_continue,html.Screen,4_22_2,2023-05-01T22:53:21.647Z,,0,,,NaN,,,,,,false,,,,107667.69999999925,107667.5,,107667.40000000224,,107673.47,8,400,,,
sequence,flow.Sequence,4_22,2023-05-01T22:53:21.647Z,,0,,,2109.8610000000044,completion,,,,,false,,,,107667.90000000224,107667.5,105541.186,105547.40000000224,105557.639,107673.47,8,400,,,
trial,html.Screen,4_23_0,2023-05-01T22:53:23.635Z,,0,1,,1981.830000000744,response,ISIC_0033533.JPG,,ISIC_0012756.JPG,ISIC_0012756.JPG,false,0,keypress(z),500,109655.60000000149,109655.30000000075,107657.086,107668,107673.47,109660.132,8,400,24,,ISIC_0033533.JPG
break,html.Screen,4_23_1,2023-05-01T22:53:23.636Z,,0,,,NaN,,,,,,false,,,,109656.5,109656.40000000224,,109655.80000000075,,109660.132,8,400,,,
break_continue,html.Screen,4_23_2,2023-05-01T22:53:23.636Z,,0,,,NaN,,,,,,false,,,,109656.90000000224,109656.80000000075,,109656.69999999925,,109660.132,8,400,,,
sequence,flow.Sequence,4_23,2023-05-01T22:53:23.637Z,,0,,,1983.330000000744,completion,,,,,false,,,,109657.10000000149,109656.80000000075,107657.086,107668,107673.47,109660.132,8,400,,,
trial,html.Screen,4_24_0,2023-05-01T22:53:25.670Z,,0,1,,2030.4680000014923,response,ISIC_6697013.JPG,,ISIC_0024650.JPG,ISIC_0024650.JPG,false,0,keypress(z),500,111690.69999999925,111690.60000000149,109638.853,109657.19999999925,109660.132,111704.761,8,400,25,,ISIC_6697013.JPG
break,html.Screen,4_24_1,2023-05-01T22:53:25.671Z,,0,,,NaN,,,,,,false,,,,111691.19999999925,111691.10000000149,,111690.90000000224,,111704.761,8,400,,,
break_continue,html.Screen,4_24_2,2023-05-01T22:53:25.671Z,,0,,,NaN,,,,,,false,,,,111691.30000000075,111691.30000000075,,111691.19999999925,,111704.761,8,400,,,
sequence,flow.Sequence,4_24,2023-05-01T22:53:25.671Z,,0,,,2031.1680000007473,completion,,,,,false,,,,111691.40000000224,111691.30000000075,109638.853,109657.19999999925,109660.132,111704.761,8,400,,,
trial,html.Screen,4_25_0,2023-05-01T22:53:27.721Z,,0,1,,2036.0390000007465,response,ISIC_7409889.JPG,,ISIC_2426937.JPG,ISIC_2426937.JPG,false,0,keypress(z),500,113741.10000000149,113740.80000000075,111674.746,111691.40000000224,111704.761,113753.817,8,400,26,,ISIC_7409889.JPG
break,html.Screen,4_25_1,2023-05-01T22:53:27.722Z,,0,,,NaN,,,,,,false,,,,113742.30000000075,113741.90000000224,,113741.30000000075,,113753.817,8,400,,,
break_continue,html.Screen,4_25_2,2023-05-01T22:53:27.722Z,,0,,,NaN,,,,,,false,,,,113742.80000000075,113742.60000000149,,113742.60000000149,,113753.817,8,400,,,
sequence,flow.Sequence,4_25,2023-05-01T22:53:27.722Z,,0,,,2037.8390000014915,completion,,,,,false,,,,113743,113742.60000000149,111674.746,111691.40000000224,111704.761,113753.817,8,400,,,
trial,html.Screen,4_26_0,2023-05-01T22:53:29.790Z,,0,1,,2056.0830000022397,response,ISIC_7630208.JPG,,ISIC_5294540.JPG,ISIC_5294540.JPG,false,0,keypress(z),500,115810.19999999925,115809.90000000224,113737.549,113743.19999999925,113753.817,115821.411,8,400,27,,ISIC_7630208.JPG
break,html.Screen,4_26_1,2023-05-01T22:53:29.792Z,,0,,,NaN,,,,,,false,,,,115812.5,115812.19999999925,,115810.5,,115821.411,8,400,,,
break_continue,html.Screen,4_26_2,2023-05-01T22:53:29.792Z,,0,,,NaN,,,,,,false,,,,115812.90000000224,115812.80000000075,,115812.69999999925,,115821.411,8,400,,,
sequence,flow.Sequence,4_26,2023-05-01T22:53:29.793Z,,0,,,2058.9830000007496,completion,,,,,false,,,,115813.10000000149,115812.80000000075,113737.549,113743.19999999925,113753.817,115821.411,8,400,,,
trial,html.Screen,4_27_0,2023-05-01T22:53:31.923Z,,0,1,,2122.288999999262,response,ISIC_0028534.JPG,,ISIC_0009985.JPG,ISIC_0009985.JPG,false,0,keypress(z),500,117944,117943.69999999925,115803.383,115813.19999999925,115821.411,117967.255,8,400,28,,ISIC_0028534.JPG
break,html.Screen,4_27_1,2023-05-01T22:53:31.925Z,,0,,,NaN,,,,,,false,,,,117945.5,117945.30000000075,,117944.19999999925,,117967.255,8,400,,,
break_continue,html.Screen,4_27_2,2023-05-01T22:53:31.925Z,,0,,,NaN,,,,,,false,,,,117946,117945.90000000224,,117945.69999999925,,117967.255,8,400,,,
sequence,flow.Sequence,4_27,2023-05-01T22:53:31.926Z,,0,,,2124.4890000022424,completion,,,,,false,,,,117946.19999999925,117945.90000000224,115803.383,115813.10000000149,115821.411,117967.255,8,400,,,
trial,html.Screen,4_28_0,2023-05-01T22:53:34.055Z,,0,1,,2108.3450000014855,response,ISIC_0053846.JPG,,ISIC_9556334.JPG,ISIC_9556334.JPG,false,0,keypress(z),500,120075.80000000075,120075.60000000149,117935.718,117946.40000000224,117967.255,120084.444,8,400,29,,ISIC_0053846.JPG
break,html.Screen,4_28_1,2023-05-01T22:53:34.056Z,,0,,,NaN,,,,,,false,,,,120076.5,120076.40000000224,,120076.10000000149,,120084.444,8,400,,,
break_continue,html.Screen,4_28_2,2023-05-01T22:53:34.056Z,,0,,,NaN,,,,,,false,,,,120077,120076.80000000075,,120076.5,,120084.444,8,400,,,
sequence,flow.Sequence,4_28,2023-05-01T22:53:34.057Z,,0,,,2109.5450000007404,completion,,,,,false,,,,120077.19999999925,120076.80000000075,117935.718,117946.30000000075,117967.255,120084.444,8,400,,,
trial,html.Screen,4_29_0,2023-05-01T22:53:36.141Z,,0,1,,2077.055999999997,response,ISIC_9719936.JPG,,ISIC_8837880.JPG,ISIC_8837880.JPG,false,0,keypress(z),500,122161.60000000149,122161.5,120068.33,120077.19999999925,120084.444,122167.022,8,400,30,,ISIC_9719936.JPG
break,html.Screen,4_29_1,2023-05-01T22:53:36.142Z,,0,,,NaN,,,,,,false,,,,122162.5,122162.40000000224,,122161.69999999925,,122167.022,8,400,,,
break_continue,html.Screen,4_29_2,2023-05-01T22:53:36.142Z,,0,,,NaN,,,,,,false,,,,122162.69999999925,122162.69999999925,,122162.60000000149,,122167.022,8,400,,,
sequence,flow.Sequence,4_29,2023-05-01T22:53:36.142Z,,0,,,2078.255999999252,completion,,,,,false,,,,122162.69999999925,122162.69999999925,120068.33,120077.19999999925,120084.444,122167.022,8,400,,,
trial,html.Screen,4_30_0,2023-05-01T22:53:38.304Z,,0,1,,2158.078000001493,response,ISIC_0830131.JPG,,ISIC_3043475.JPG,ISIC_3043475.JPG,false,0,keypress(z),500,124325.40000000224,124325.10000000149,122150.525,122162.80000000075,122167.022,124332.478,8,400,31,,ISIC_0830131.JPG
break,html.Screen,4_30_1,2023-05-01T22:53:38.306Z,,0,,,NaN,,,,,,false,,,,124327.19999999925,124326.40000000224,,124325.69999999925,,124332.478,8,400,,,
break_continue,html.Screen,4_30_2,2023-05-01T22:53:38.306Z,,0,,,NaN,,,,,,false,,,,124327.69999999925,124327.40000000224,,124327.30000000075,,124332.478,8,400,,,
sequence,flow.Sequence,4_30,2023-05-01T22:53:38.307Z,,0,,,2160.378000002238,completion,,,,,false,,,,124327.80000000075,124327.40000000224,122150.525,122162.80000000075,122167.022,124332.478,8,400,,,
trial,html.Screen,4_31_0,2023-05-01T22:53:40.324Z,,0,1,,2012.6220000014873,response,ISIC_3679789.JPG,,ISIC_7961365.JPG,ISIC_7961365.JPG,false,0,keypress(z),500,126345.40000000224,126345.10000000149,124316.3,124327.90000000224,124332.478,126365.322,8,400,32,,ISIC_3679789.JPG
break,html.Screen,4_31_1,2023-05-01T22:53:40.326Z,,0,,,NaN,,,,,,false,,,,126346.80000000075,126346.30000000075,,126345.60000000149,,126365.322,8,400,,,
break_continue,html.Screen,4_31_2,2023-05-01T22:53:40.326Z,,0,,,NaN,,,,,,false,,,,126347.19999999925,126347,,126347,,126365.322,8,400,,,
sequence,flow.Sequence,4_31,2023-05-01T22:53:40.326Z,,0,,,2014.5219999999972,completion,,,,,false,,,,126347.40000000224,126347,124316.3,124327.90000000224,124332.478,126365.322,8,400,,,
trial,html.Screen,4_32_0,2023-05-01T22:53:43.880Z,,0,1,,3534.978000000745,response,ISIC_6606131.JPG,,ISIC_0025580.JPG,ISIC_6606131.JPG,false,1,keypress(m),500,129900.60000000149,129900.30000000075,126348.309,126347.60000000149,126365.322,129913.417,8,400,33,,ISIC_0025580.JPG
break,html.Screen,4_32_1,2023-05-01T22:53:43.881Z,,0,,,NaN,,,,,,false,,,,129902.10000000149,129901.30000000075,,129900.90000000224,,129913.417,8,400,,,
break_continue,html.Screen,4_32_2,2023-05-01T22:53:43.881Z,,0,,,NaN,,,,,,false,,,,129902.5,129902.40000000224,,129902.30000000075,,129913.417,8,400,,,
sequence,flow.Sequence,4_32,2023-05-01T22:53:43.882Z,,0,,,3537.078000002235,completion,,,,,false,,,,129902.69999999925,129902.40000000224,126348.309,126347.60000000149,126365.322,129913.417,8,400,,,
trial,html.Screen,4_33_0,2023-05-01T22:53:46.208Z,,0,1,,2315.383000000744,response,ISIC_8398000.JPG,,ISIC_0004907.JPG,ISIC_0004907.JPG,false,0,keypress(z),500,132229.6000000015,132228.80000000075,129897.234,129902.90000000224,129913.417,132246.18,8,400,34,,ISIC_8398000.JPG
break,html.Screen,4_33_1,2023-05-01T22:53:46.209Z,,0,,,NaN,,,,,,false,,,,132230.30000000075,132230.1000000015,,132229.80000000075,,132246.18,8,400,,,
break_continue,html.Screen,4_33_2,2023-05-01T22:53:46.210Z,,0,,,NaN,,,,,,false,,,,132230.6000000015,132230.5,,132230.40000000224,,132246.18,8,400,,,
sequence,flow.Sequence,4_33,2023-05-01T22:53:46.210Z,,0,,,2317.0829999999987,completion,,,,,false,,,,132230.80000000075,132230.5,129897.234,129902.80000000075,129913.417,132246.18,8,400,,,
trial,html.Screen,4_34_0,2023-05-01T22:53:48.420Z,,0,1,,2194.320000000007,response,ISIC_0009939.JPG,,ISIC_8748070.JPG,ISIC_0009939.JPG,false,1,keypress(m),500,134440.80000000075,134440.5,132212.867,132231,132246.18,134444.779,8,400,35,,ISIC_8748070.JPG
break,html.Screen,4_34_1,2023-05-01T22:53:48.421Z,,0,,,NaN,,,,,,false,,,,134441.69999999925,134441.30000000075,,134440.90000000224,,134444.779,8,400,,,
break_continue,html.Screen,4_34_2,2023-05-01T22:53:48.421Z,,0,,,NaN,,,,,,false,,,,134442.1000000015,134441.90000000224,,134441.90000000224,,134444.779,8,400,,,
sequence,flow.Sequence,4_34,2023-05-01T22:53:48.421Z,,0,,,2195.720000002242,completion,,,,,false,,,,134442.30000000075,134441.90000000224,132212.867,132230.90000000224,132246.18,134444.779,8,400,,,
trial,html.Screen,4_35_0,2023-05-01T22:53:50.564Z,,0,1,,2140.3210000014806,response,ISIC_8978290.JPG,,ISIC_6446779.JPG,ISIC_8978290.JPG,false,1,keypress(m),500,136585.30000000075,136585.1000000015,134428.665,134442.40000000224,134444.779,136611.149,8,400,36,,ISIC_6446779.JPG
break,html.Screen,4_35_1,2023-05-01T22:53:50.565Z,,0,,,NaN,,,,,,false,,,,136585.90000000224,136585.69999999925,,136585.40000000224,,136611.149,8,400,,,
break_continue,html.Screen,4_35_2,2023-05-01T22:53:50.565Z,,0,,,NaN,,,,,,false,,,,136586.30000000075,136586.1000000015,,136586.1000000015,,136611.149,8,400,,,
sequence,flow.Sequence,4_35,2023-05-01T22:53:50.565Z,,0,,,2141.3210000014806,completion,,,,,false,,,,136586.5,136586.1000000015,134428.665,134442.40000000224,134444.779,136611.149,8,400,,,
trial,html.Screen,4_36_0,2023-05-01T22:53:52.670Z,,0,1,,2079.350999999995,response,ISIC_7594601.JPG,,ISIC_0061320.JPG,ISIC_7594601.JPG,false,1,keypress(m),500,138690.69999999925,138690.5,136594.085,136586.5,136611.149,138692.918,8,400,37,,ISIC_0061320.JPG
break,html.Screen,4_36_1,2023-05-01T22:53:52.670Z,,0,,,NaN,,,,,,false,,,,138691.40000000224,138691.19999999925,,138690.80000000075,,138692.918,8,400,,,
break_continue,html.Screen,4_36_2,2023-05-01T22:53:52.671Z,,0,,,NaN,,,,,,false,,,,138691.90000000224,138691.69999999925,,138691.6000000015,,138692.918,8,400,,,
sequence,flow.Sequence,4_36,2023-05-01T22:53:52.671Z,,0,,,2080.55099999925,completion,,,,,false,,,,138692,138691.69999999925,136594.085,136586.5,136611.149,138692.918,8,400,,,
trial,html.Screen,4_37_0,2023-05-01T22:53:55.604Z,,0,1,,2931.581999999995,response,ISIC_0011715.JPG,,ISIC_5281762.JPG,ISIC_5281762.JPG,false,0,keypress(z),500,141624.90000000224,141624.5,138676.284,138692.1000000015,138692.918,141625.195,8,400,38,,ISIC_0011715.JPG
break,html.Screen,4_37_1,2023-05-01T22:53:55.605Z,,0,,,NaN,,,,,,false,,,,141626.1000000015,141625.80000000075,,141625.19999999925,,141625.195,8,400,,,
break_continue,html.Screen,4_37_2,2023-05-01T22:53:55.606Z,,0,,,NaN,,,,,,false,,,,141626.80000000075,141626.40000000224,,141626.30000000075,,141625.195,8,400,,,
sequence,flow.Sequence,4_37,2023-05-01T22:53:55.606Z,,0,,,2933.48200000223,completion,,,,,false,,,,141627,141626.40000000224,138676.284,138692.1000000015,138692.918,141625.195,8,400,,,
trial,html.Screen,4_38_0,2023-05-01T22:53:57.755Z,,0,1,,2150.504999999248,response,ISIC_0010960.JPG,,ISIC_0029459.JPG,ISIC_0029459.JPG,false,0,keypress(z),500,143776,143775.69999999925,141608.414,141627.19999999925,141625.195,143791.048,8,400,39,,ISIC_0010960.JPG
break,html.Screen,4_38_1,2023-05-01T22:53:57.757Z,,0,,,NaN,,,,,,false,,,,143777.80000000075,143777.5,,143776.30000000075,,143791.048,8,400,,,
break_continue,html.Screen,4_38_2,2023-05-01T22:53:57.757Z,,0,,,NaN,,,,,,false,,,,143778.40000000224,143778.19999999925,,143778.1000000015,,143791.048,8,400,,,
sequence,flow.Sequence,4_38,2023-05-01T22:53:57.757Z,,0,,,2153.004999999248,completion,,,,,false,,,,143778.5,143778.19999999925,141608.414,141627.19999999925,141625.195,143791.048,8,400,,,
trial,html.Screen,4_39_0,2023-05-01T22:53:59.793Z,,0,1,,2022.5520000014803,response,ISIC_0033369.JPG,,ISIC_9232153.JPG,ISIC_9232153.JPG,false,0,keypress(z),500,145813.90000000224,145813.6000000015,143774.576,143778.69999999925,143791.048,145823.188,8,400,40,,ISIC_0033369.JPG
break,html.Screen,4_39_1,2023-05-01T22:53:59.794Z,,0,,,NaN,,,,,,false,,,,145814.80000000075,145814.6000000015,,145814.1000000015,,145823.188,8,400,,,
break_continue,html.Screen,4_39_2,2023-05-01T22:53:59.794Z,,0,,,NaN,,,,,,false,,,,145815.19999999925,145815,,145814.90000000224,,145823.188,8,400,,,
sequence,flow.Sequence,4_39,2023-05-01T22:53:59.794Z,,0,,,2023.9519999999902,completion,,,,,false,,,,145815.30000000075,145815,143774.576,143778.69999999925,143791.048,145823.188,8,400,,,
trial,html.Screen,4_40_0,2023-05-01T22:54:02.983Z,,0,1,,3180.3120000000054,response,ISIC_1108178.JPG,,ISIC_0399142.JPG,ISIC_1108178.JPG,false,1,keypress(m),500,149003.80000000075,149003.5,145806.893,145815.5,145823.188,149021.757,8,400,41,,ISIC_0399142.JPG
break,html.Screen,4_40_1,2023-05-01T22:54:02.985Z,,0,,,NaN,,,,,,false,,,,149005.69999999925,149005.5,,149003.90000000224,,149021.757,8,400,,,
break_continue,html.Screen,4_40_2,2023-05-01T22:54:02.985Z,,0,,,NaN,,,,,,false,,,,149006,149005.90000000224,,149005.90000000224,,149021.757,8,400,,,
sequence,flow.Sequence,4_40,2023-05-01T22:54:02.985Z,,0,,,3182.7120000022405,completion,,,,,false,,,,149006.30000000075,149005.90000000224,145806.893,145815.5,145823.188,149021.757,8,400,,,
trial,html.Screen,4_41_0,2023-05-01T22:54:05.374Z,,0,1,,2372.7429999999877,response,ISIC_7680333.JPG,,ISIC_6633906.JPG,ISIC_6633906.JPG,false,0,keypress(z),500,151394.69999999925,151394.5,148989.039,149006.40000000224,149021.757,151407.184,8,400,42,,ISIC_7680333.JPG
break,html.Screen,4_41_1,2023-05-01T22:54:05.376Z,,0,,,NaN,,,,,,false,,,,151396.69999999925,151396.5,,151395,,151407.184,8,400,,,
break_continue,html.Screen,4_41_2,2023-05-01T22:54:05.376Z,,0,,,NaN,,,,,,false,,,,151397.1000000015,151397,,151396.80000000075,,151407.184,8,400,,,
sequence,flow.Sequence,4_41,2023-05-01T22:54:05.376Z,,0,,,2375.2429999999877,completion,,,,,false,,,,151397.30000000075,151397,148989.039,149006.40000000224,149021.757,151407.184,8,400,,,
trial,html.Screen,4_42_0,2023-05-01T22:54:08.124Z,,0,1,,2737.1160000007367,response,ISIC_0057028.JPG,,ISIC_0071289.JPG,ISIC_0071289.JPG,false,0,keypress(z),500,154144.69999999925,154144.30000000075,151387.563,151397.40000000224,151407.184,154152.909,8,400,43,,ISIC_0057028.JPG
break,html.Screen,4_42_1,2023-05-01T22:54:08.125Z,,0,,,NaN,,,,,,false,,,,154146.1000000015,154145.80000000075,,154144.90000000224,,154152.909,8,400,,,
break_continue,html.Screen,4_42_2,2023-05-01T22:54:08.125Z,,0,,,NaN,,,,,,false,,,,154146.6000000015,154146.40000000224,,154146.19999999925,,154152.909,8,400,,,
sequence,flow.Sequence,4_42,2023-05-01T22:54:08.126Z,,0,,,2739.216000002227,completion,,,,,false,,,,154146.80000000075,154146.40000000224,151387.563,151397.30000000075,151407.184,154152.909,8,400,,,
trial,html.Screen,4_43_0,2023-05-01T22:54:10.615Z,,0,1,,2483.090999999986,response,ISIC_5737704.JPG,,ISIC_7339533.JPG,ISIC_7339533.JPG,false,0,keypress(z),500,156636.19999999925,156636,154136.66,154147,154152.909,156651.854,8,400,44,,ISIC_5737704.JPG
break,html.Screen,4_43_1,2023-05-01T22:54:10.617Z,,0,,,NaN,,,,,,false,,,,156638.1000000015,156637.90000000224,,156636.40000000224,,156651.854,8,400,,,
break_continue,html.Screen,4_43_2,2023-05-01T22:54:10.617Z,,0,,,NaN,,,,,,false,,,,156638.5,156638.30000000075,,156638.19999999925,,156651.854,8,400,,,
sequence,flow.Sequence,4_43,2023-05-01T22:54:10.617Z,,0,,,2485.391000000731,completion,,,,,false,,,,156638.6000000015,156638.30000000075,154136.66,154146.80000000075,154152.909,156651.854,8,400,,,
trial,html.Screen,4_44_0,2023-05-01T22:54:13.362Z,,0,1,,2731.046000002243,response,ISIC_8837443.JPG,,ISIC_0060351.JPG,ISIC_0060351.JPG,false,0,keypress(z),500,159383.19999999925,159382.90000000224,156635.093,156638.69999999925,156651.854,159400.872,8,400,45,,ISIC_8837443.JPG
break,html.Screen,4_44_1,2023-05-01T22:54:13.363Z,,0,,,NaN,,,,,,false,,,,159384.1000000015,159383.80000000075,,159383.40000000224,,159400.872,8,400,,,
break_continue,html.Screen,4_44_2,2023-05-01T22:54:13.363Z,,0,,,NaN,,,,,,false,,,,159384.40000000224,159384.30000000075,,159384.19999999925,,159400.872,8,400,,,
sequence,flow.Sequence,4_44,2023-05-01T22:54:13.364Z,,0,,,2732.446000000753,completion,,,,,false,,,,159385.19999999925,159384.30000000075,156635.093,156638.69999999925,156651.854,159400.872,8,400,,,
trial,html.Screen,4_45_0,2023-05-01T22:54:17.906Z,,0,1,,4526.428000000742,response,ISIC_1604845.JPG,,ISIC_0064113.JPG,ISIC_1604845.JPG,false,1,keypress(m),500,163927.6000000015,163927.30000000075,159384.309,159385.40000000224,159400.872,163931.93,8,400,46,,ISIC_0064113.JPG
break,html.Screen,4_45_1,2023-05-01T22:54:17.908Z,,0,,,NaN,,,,,,false,,,,163928.80000000075,163928.40000000224,,163927.80000000075,,163931.93,8,400,,,
break_continue,html.Screen,4_45_2,2023-05-01T22:54:17.908Z,,0,,,NaN,,,,,,false,,,,163929.40000000224,163929.30000000075,,163929.1000000015,,163931.93,8,400,,,
sequence,flow.Sequence,4_45,2023-05-01T22:54:17.909Z,,0,,,4528.428000000742,completion,,,,,false,,,,163929.69999999925,163929.30000000075,159384.309,159385.30000000075,159400.872,163931.93,8,400,,,
trial,html.Screen,4_46_0,2023-05-01T22:54:20.707Z,,0,1,,2795.769999999262,response,ISIC_0059773.JPG,,ISIC_6703027.JPG,ISIC_0059773.JPG,false,1,keypress(m),500,166728,166727.69999999925,163915.811,163929.80000000075,163931.93,166747.832,8,400,47,,ISIC_6703027.JPG
break,html.Screen,4_46_1,2023-05-01T22:54:20.709Z,,0,,,NaN,,,,,,false,,,,166730.19999999925,166730,,166728.19999999925,,166747.832,8,400,,,
break_continue,html.Screen,4_46_2,2023-05-01T22:54:20.710Z,,0,,,NaN,,,,,,false,,,,166730.69999999925,166730.5,,166730.40000000224,,166747.832,8,400,,,
sequence,flow.Sequence,4_46,2023-05-01T22:54:20.710Z,,0,,,2798.570000000007,completion,,,,,false,,,,166730.90000000224,166730.5,163915.811,163929.69999999925,163931.93,166747.832,8,400,,,
trial,html.Screen,4_47_0,2023-05-01T22:54:22.711Z,,0,1,,1984.4680000007502,response,ISIC_3475932.JPG,,ISIC_0922552.JPG,ISIC_3475932.JPG,false,1,keypress(m),500,168732.5,168732.30000000075,166714.52,166731,166747.832,168747.174,8,400,48,,ISIC_0922552.JPG
break,html.Screen,4_47_1,2023-05-01T22:54:22.713Z,,0,,,NaN,,,,,,false,,,,168734.30000000075,168734,,168732.90000000224,,168747.174,8,400,,,
break_continue,html.Screen,4_47_2,2023-05-01T22:54:22.714Z,,0,,,NaN,,,,,,false,,,,168734.80000000075,168734.6000000015,,168734.40000000224,,168747.174,8,400,,,
sequence,flow.Sequence,4_47,2023-05-01T22:54:22.714Z,,0,,,1986.7680000014952,completion,,,,,false,,,,168734.90000000224,168734.6000000015,166714.52,166731,166747.832,168747.174,8,400,,,
trial,html.Screen,4_48_0,2023-05-01T22:54:25.262Z,,0,1,,2536.126000000746,response,ISIC_5999002.JPG,,ISIC_1373468.JPG,ISIC_5999002.JPG,false,1,keypress(m),500,171283.6000000015,171283.30000000075,168730.313,168735.1000000015,168747.174,171296.241,8,400,49,,ISIC_1373468.JPG
break,html.Screen,4_48_1,2023-05-01T22:54:25.264Z,,0,,,NaN,,,,,,false,,,,171285.5,171285.19999999925,,171283.80000000075,,171296.241,8,400,,,
break_continue,html.Screen,4_48_2,2023-05-01T22:54:25.265Z,,0,,,NaN,,,,,,false,,,,171285.80000000075,171285.69999999925,,171285.6000000015,,171296.241,8,400,,,
sequence,flow.Sequence,4_48,2023-05-01T22:54:25.265Z,,0,,,2538.525999999256,completion,,,,,false,,,,171286,171285.69999999925,168730.313,168735,168747.174,171296.241,8,400,,,
trial,html.Screen,4_49_0,2023-05-01T22:54:29.893Z,,0,1,,4617.758999999991,response,ISIC_0054770.JPG,,ISIC_9917640.JPG,ISIC_9917640.JPG,false,0,keypress(z),500,175914.40000000224,175914,171279.309,171286.19999999925,171296.241,175926.759,8,400,50,,ISIC_0054770.JPG
break,html.Screen,4_49_1,2023-05-01T22:54:34.889Z,,0,,,4998.203000000009,timeout,,,,,false,,,,180909.6000000015,180908.393,175910.589,175914.69999999925,175926.759,180924.962,8,400,,,
break_continue,html.Screen,4_49_2,2023-05-01T22:54:36.017Z,,0,,,1099.5380000000005,response,,,,,false,continue,keypress(Space),,182038,182024.5,180908.393,180909.90000000224,180924.962,182042.264,8,400,,,
sequence,flow.Sequence,4_49,2023-05-01T22:54:36.017Z,,0,,,10728.258999999991,completion,,,,,false,,,,182038.1000000015,182024.5,171279.309,171286.1000000015,171296.241,182042.264,8,400,,,
trial,html.Screen,4_50_0,2023-05-01T22:54:38.136Z,,0,2,,2113.8360000014945,response,ISIC_0010777.JPG,,ISIC_1605629.JPG,ISIC_1605629.JPG,false,0,keypress(z),500,184156.40000000224,184156.1000000015,182024.672,182038.1000000015,182042.264,184173.494,8,400,1,,ISIC_0010777.JPG
break,html.Screen,4_50_1,2023-05-01T22:54:38.138Z,,0,,,NaN,,,,,,false,,,,184158.6000000015,184158.40000000224,,184156.69999999925,,184173.494,8,400,,,
break_continue,html.Screen,4_50_2,2023-05-01T22:54:38.138Z,,0,,,NaN,,,,,,false,,,,184159,184158.90000000224,,184158.69999999925,,184173.494,8,400,,,
sequence,flow.Sequence,4_50,2023-05-01T22:54:38.139Z,,0,,,2116.6360000022396,completion,,,,,false,,,,184159.19999999925,184158.90000000224,182024.672,182038.1000000015,182042.264,184173.494,8,400,,,
trial,html.Screen,4_51_0,2023-05-01T22:54:40.408Z,,0,2,,2255.306000000739,response,ISIC_0009960.JPG,,ISIC_0029343.JPG,ISIC_0029343.JPG,false,0,keypress(z),500,186429.1000000015,186428.80000000075,184156.974,184159.40000000224,184173.494,186439.103,8,400,2,,ISIC_0009960.JPG
break,html.Screen,4_51_1,2023-05-01T22:54:40.411Z,,0,,,NaN,,,,,,false,,,,186431.40000000224,186431.1000000015,,186429.30000000075,,186439.103,8,400,,,
break_continue,html.Screen,4_51_2,2023-05-01T22:54:40.411Z,,0,,,NaN,,,,,,false,,,,186431.80000000075,186431.69999999925,,186431.5,,186439.103,8,400,,,
sequence,flow.Sequence,4_51,2023-05-01T22:54:40.411Z,,0,,,2258.205999999249,completion,,,,,false,,,,186432,186431.69999999925,184156.974,184159.30000000075,184173.494,186439.103,8,400,,,
trial,html.Screen,4_52_0,2023-05-01T22:54:43.690Z,,0,2,,3271.4970000014873,response,ISIC_0377965.JPG,,ISIC_3762459.JPG,ISIC_3762459.JPG,false,0,keypress(z),500,189710.90000000224,189710.6000000015,186422.562,186432.1000000015,186439.103,189720.703,8,400,3,,ISIC_0377965.JPG
break,html.Screen,4_52_1,2023-05-01T22:54:43.692Z,,0,,,NaN,,,,,,false,,,,189712.6000000015,189712.30000000075,,189711.19999999925,,189720.703,8,400,,,
break_continue,html.Screen,4_52_2,2023-05-01T22:54:43.692Z,,0,,,NaN,,,,,,false,,,,189713,189712.90000000224,,189712.80000000075,,189720.703,8,400,,,
sequence,flow.Sequence,4_52,2023-05-01T22:54:43.693Z,,0,,,3273.7970000022324,completion,,,,,false,,,,189713.6000000015,189712.90000000224,186422.562,186432.1000000015,186439.103,189720.703,8,400,,,
trial,html.Screen,4_53_0,2023-05-01T22:54:46.891Z,,0,2,,3190.2969999999914,response,ISIC_0061343.JPG,,ISIC_2440407.JPG,ISIC_2440407.JPG,false,0,keypress(z),500,192911.30000000075,192911,189704.275,189713.80000000075,189720.703,192919.422,8,400,4,,ISIC_0061343.JPG
break,html.Screen,4_53_1,2023-05-01T22:54:46.892Z,,0,,,NaN,,,,,,false,,,,192913.1000000015,192912.19999999925,,192911.6000000015,,192919.422,8,400,,,
break_continue,html.Screen,4_53_2,2023-05-01T22:54:46.893Z,,0,,,NaN,,,,,,false,,,,192913.6000000015,192913.40000000224,,192913.30000000075,,192919.422,8,400,,,
sequence,flow.Sequence,4_53,2023-05-01T22:54:46.893Z,,0,,,3192.6970000022266,completion,,,,,false,,,,192913.80000000075,192913.40000000224,189704.275,189713.80000000075,189720.703,192919.422,8,400,,,
trial,html.Screen,4_54_0,2023-05-01T22:54:50.374Z,,0,2,,3474.6780000014987,response,ISIC_0032098.JPG,,ISIC_8766254.JPG,ISIC_8766254.JPG,false,0,keypress(z),500,196394.6000000015,196394.1000000015,192903.048,192914,192919.422,196401.289,8,400,5,,ISIC_0032098.JPG
break,html.Screen,4_54_1,2023-05-01T22:54:50.376Z,,0,,,NaN,,,,,,false,,,,196396.5,196395.69999999925,,196394.90000000224,,196401.289,8,400,,,
break_continue,html.Screen,4_54_2,2023-05-01T22:54:50.377Z,,0,,,NaN,,,,,,false,,,,196397.19999999925,196397,,196396.69999999925,,196401.289,8,400,,,
sequence,flow.Sequence,4_54,2023-05-01T22:54:50.377Z,,0,,,3477.5780000000086,completion,,,,,false,,,,196397.69999999925,196397,192903.048,192913.90000000224,192919.422,196401.289,8,400,,,
trial,html.Screen,4_55_0,2023-05-01T22:54:52.770Z,,0,2,,2388.8110000015004,response,ISIC_5041679.JPG,,ISIC_0011209.JPG,ISIC_0011209.JPG,false,0,keypress(z),500,198790.40000000224,198790.1000000015,196384.583,196398,196401.289,198800.096,8,400,6,,ISIC_5041679.JPG
break,html.Screen,4_55_1,2023-05-01T22:54:52.771Z,,0,,,NaN,,,,,,false,,,,198791.80000000075,198791.40000000224,,198790.6000000015,,198800.096,8,400,,,
break_continue,html.Screen,4_55_2,2023-05-01T22:54:52.772Z,,0,,,NaN,,,,,,false,,,,198792.19999999925,198792,,198791.90000000224,,198800.096,8,400,,,
sequence,flow.Sequence,4_55,2023-05-01T22:54:52.772Z,,0,,,2390.7110000000102,completion,,,,,false,,,,198792.40000000224,198792,196384.583,196397.90000000224,196401.289,198800.096,8,400,,,
trial,html.Screen,4_56_0,2023-05-01T22:54:55.056Z,,0,2,,2276.0040000014997,response,ISIC_9672482.JPG,,ISIC_2027392.JPG,ISIC_9672482.JPG,false,1,keypress(m),500,201076.5,201076.1000000015,198783.652,198792.5,198800.096,201084.556,8,400,7,,ISIC_2027392.JPG
break,html.Screen,4_56_1,2023-05-01T22:54:55.058Z,,0,,,NaN,,,,,,false,,,,201078.6000000015,201078.19999999925,,201076.69999999925,,201084.556,8,400,,,
break_continue,html.Screen,4_56_2,2023-05-01T22:54:55.058Z,,0,,,NaN,,,,,,false,,,,201079,201078.90000000224,,201078.69999999925,,201084.556,8,400,,,
sequence,flow.Sequence,4_56,2023-05-01T22:54:55.059Z,,0,,,2278.8040000022447,completion,,,,,false,,,,201079.19999999925,201078.90000000224,198783.652,198792.5,198800.096,201084.556,8,400,,,
trial,html.Screen,4_57_0,2023-05-01T22:54:58.568Z,,0,2,,3503.5440000014787,response,ISIC_0030951.JPG,,ISIC_0033977.JPG,ISIC_0030951.JPG,false,1,keypress(m),500,204588.30000000075,204588.1000000015,201066.329,201079.40000000224,201084.556,204597.579,8,400,8,,ISIC_0033977.JPG
break,html.Screen,4_57_1,2023-05-01T22:54:58.568Z,,0,,,NaN,,,,,,false,,,,204588.80000000075,204588.6000000015,,204588.40000000224,,204597.579,8,400,,,
break_continue,html.Screen,4_57_2,2023-05-01T22:54:58.568Z,,0,,,NaN,,,,,,false,,,,204589.1000000015,204589,,204588.90000000224,,204597.579,8,400,,,
sequence,flow.Sequence,4_57,2023-05-01T22:54:58.568Z,,0,,,3504.4439999999886,completion,,,,,false,,,,204589.19999999925,204589,201066.329,201079.30000000075,201084.556,204597.579,8,400,,,
trial,html.Screen,4_58_0,2023-05-01T22:55:02.193Z,,0,2,,3616.021000001492,response,ISIC_0066101.JPG,,ISIC_4936610.JPG,ISIC_4936610.JPG,false,0,keypress(z),500,208213.90000000224,208213.6000000015,204581.045,204589.19999999925,204597.579,208232.658,8,400,9,,ISIC_0066101.JPG
break,html.Screen,4_58_1,2023-05-01T22:55:02.195Z,,0,,,NaN,,,,,,false,,,,208216.19999999925,208215.90000000224,,208214.19999999925,,208232.658,8,400,,,
break_continue,html.Screen,4_58_2,2023-05-01T22:55:02.196Z,,0,,,NaN,,,,,,false,,,,208216.5,208216.5,,208216.30000000075,,208232.658,8,400,,,
sequence,flow.Sequence,4_58,2023-05-01T22:55:02.196Z,,0,,,3618.921000000002,completion,,,,,false,,,,208216.80000000075,208216.5,204581.045,204589.19999999925,204597.579,208232.658,8,400,,,
trial,html.Screen,4_59_0,2023-05-01T22:55:05.369Z,,0,2,,3156.541999999259,response,ISIC_0071892.JPG,,ISIC_8899350.JPG,ISIC_0071892.JPG,false,1,keypress(m),500,211389.40000000224,211389.19999999925,208213.167,208216.90000000224,208232.658,211394.837,8,400,10,,ISIC_8899350.JPG
break,html.Screen,4_59_1,2023-05-01T22:55:05.369Z,,0,,,NaN,,,,,,false,,,,211390,211389.90000000224,,211389.6000000015,,211394.837,8,400,,,
break_continue,html.Screen,4_59_2,2023-05-01T22:55:05.370Z,,0,,,NaN,,,,,,false,,,,211390.5,211390.5,,211390.30000000075,,211394.837,8,400,,,
sequence,flow.Sequence,4_59,2023-05-01T22:55:05.370Z,,0,,,3157.842000000004,completion,,,,,false,,,,211390.80000000075,211390.5,208213.167,208216.80000000075,208232.658,211394.837,8,400,,,
trial,html.Screen,4_60_0,2023-05-01T22:55:08.766Z,,0,2,,3391.8629999992554,response,ISIC_1781273.JPG,,ISIC_0026115.JPG,ISIC_1781273.JPG,false,1,keypress(m),500,214787,214786.69999999925,211378.248,211391,211394.837,214793.622,8,400,11,,ISIC_0026115.JPG
break,html.Screen,4_60_1,2023-05-01T22:55:08.768Z,,0,,,NaN,,,,,,false,,,,214788.5,214788.19999999925,,214787.30000000075,,214793.622,8,400,,,
break_continue,html.Screen,4_60_2,2023-05-01T22:55:08.768Z,,0,,,NaN,,,,,,false,,,,214788.90000000224,214788.80000000075,,214788.69999999925,,214793.622,8,400,,,
sequence,flow.Sequence,4_60,2023-05-01T22:55:08.768Z,,0,,,3393.9630000007455,completion,,,,,false,,,,214789.1000000015,214788.80000000075,211378.248,211391,211394.837,214793.622,8,400,,,
trial,html.Screen,4_61_0,2023-05-01T22:55:12.209Z,,0,2,,3436.077999999252,response,ISIC_9059250.JPG,,ISIC_1140410.JPG,ISIC_1140410.JPG,false,0,keypress(z),500,218230,218229.69999999925,214777.1,214789.30000000075,214793.622,218242.047,8,400,12,,ISIC_9059250.JPG
break,html.Screen,4_61_1,2023-05-01T22:55:12.210Z,,0,,,NaN,,,,,,false,,,,218231.1000000015,218230.90000000224,,218230.30000000075,,218242.047,8,400,,,
break_continue,html.Screen,4_61_2,2023-05-01T22:55:12.211Z,,0,,,NaN,,,,,,false,,,,218232,218231.6000000015,,218231.40000000224,,218242.047,8,400,,,
sequence,flow.Sequence,4_61,2023-05-01T22:55:12.212Z,,0,,,3437.978000001487,completion,,,,,false,,,,218232.19999999925,218231.6000000015,214777.1,214789.30000000075,214793.622,218242.047,8,400,,,
trial,html.Screen,4_62_0,2023-05-01T22:55:15.663Z,,0,2,,3441.5530000014987,response,ISIC_0056849.JPG,,ISIC_3677945.JPG,ISIC_3677945.JPG,false,0,keypress(z),500,221684.1000000015,221683.6000000015,218225.597,218232.40000000224,218242.047,221690.137,8,400,13,,ISIC_0056849.JPG
break,html.Screen,4_62_1,2023-05-01T22:55:15.665Z,,0,,,NaN,,,,,,false,,,,221685.5,221684.90000000224,,221684.30000000075,,221690.137,8,400,,,
break_continue,html.Screen,4_62_2,2023-05-01T22:55:15.665Z,,0,,,NaN,,,,,,false,,,,221686.1000000015,221685.80000000075,,221685.69999999925,,221690.137,8,400,,,
sequence,flow.Sequence,4_62,2023-05-01T22:55:15.666Z,,0,,,3443.7530000007537,completion,,,,,false,,,,221686.19999999925,221685.80000000075,218225.597,218232.30000000075,218242.047,221690.137,8,400,,,
trial,html.Screen,4_63_0,2023-05-01T22:55:18.648Z,,0,2,,2978.2630000022473,response,ISIC_3787504.JPG,,ISIC_0070092.JPG,ISIC_0070092.JPG,false,0,keypress(z),500,224668.6000000015,224668.40000000224,221673.824,221686.40000000224,221690.137,224672.147,8,400,14,,ISIC_3787504.JPG
break,html.Screen,4_63_1,2023-05-01T22:55:18.649Z,,0,,,NaN,,,,,,false,,,,224669.69999999925,224669.1000000015,,224668.80000000075,,224672.147,8,400,,,
break_continue,html.Screen,4_63_2,2023-05-01T22:55:18.649Z,,0,,,NaN,,,,,,false,,,,224670,224669.90000000224,,224669.80000000075,,224672.147,8,400,,,
sequence,flow.Sequence,4_63,2023-05-01T22:55:18.650Z,,0,,,2979.7630000022473,completion,,,,,false,,,,224670.19999999925,224669.90000000224,221673.824,221686.40000000224,221690.137,224672.147,8,400,,,
trial,html.Screen,4_64_0,2023-05-01T22:55:24.102Z,,0,2,,5450.253000002238,response,ISIC_1155782.JPG,,ISIC_4383671.JPG,ISIC_1155782.JPG,false,1,keypress(m),500,230122.6000000015,230122.40000000224,224656.088,224670.30000000075,224672.147,230136.772,8,400,15,,ISIC_4383671.JPG
break,html.Screen,4_64_1,2023-05-01T22:55:24.103Z,,0,,,NaN,,,,,,false,,,,230123.5,230123.30000000075,,230122.90000000224,,230136.772,8,400,,,
break_continue,html.Screen,4_64_2,2023-05-01T22:55:24.104Z,,0,,,NaN,,,,,,false,,,,230124.19999999925,230124,,230123.90000000224,,230136.772,8,400,,,
sequence,flow.Sequence,4_64,2023-05-01T22:55:24.104Z,,0,,,5451.853000000003,completion,,,,,false,,,,230124.30000000075,230124,224656.088,224670.19999999925,224672.147,230136.772,8,400,,,
trial,html.Screen,4_65_0,2023-05-01T22:55:26.531Z,,0,2,,2414.328000001493,response,ISIC_0033885.JPG,,ISIC_0029021.JPG,ISIC_0033885.JPG,false,1,keypress(m),500,232551.40000000224,232551.1000000015,230120.419,230124.40000000224,230136.772,232569.327,8,400,16,,ISIC_0029021.JPG
break,html.Screen,4_65_1,2023-05-01T22:55:26.532Z,,0,,,NaN,,,,,,false,,,,232553.1000000015,232552.80000000075,,232551.80000000075,,232569.327,8,400,,,
break_continue,html.Screen,4_65_2,2023-05-01T22:55:26.533Z,,0,,,NaN,,,,,,false,,,,232553.6000000015,232553.5,,232553.30000000075,,232569.327,8,400,,,
sequence,flow.Sequence,4_65,2023-05-01T22:55:26.533Z,,0,,,2416.728000000003,completion,,,,,false,,,,232553.80000000075,232553.5,230120.419,230124.40000000224,230136.772,232569.327,8,400,,,
trial,html.Screen,4_66_0,2023-05-01T22:55:29.069Z,,0,2,,2520.2730000015,response,ISIC_0061562.JPG,,ISIC_5647697.JPG,ISIC_0061562.JPG,false,1,keypress(m),500,235089.80000000075,235089.6000000015,232552.27,232554,232569.327,235117.631,8,400,17,,ISIC_5647697.JPG
break,html.Screen,4_66_1,2023-05-01T22:55:29.070Z,,0,,,NaN,,,,,,false,,,,235090.69999999925,235090.5,,235090.1000000015,,235117.631,8,400,,,
break_continue,html.Screen,4_66_2,2023-05-01T22:55:29.071Z,,0,,,NaN,,,,,,false,,,,235091.19999999925,235091,,235090.90000000224,,235117.631,8,400,,,
sequence,flow.Sequence,4_66,2023-05-01T22:55:29.071Z,,0,,,2521.67300000001,completion,,,,,false,,,,235091.40000000224,235091,232552.27,232554,232569.327,235117.631,8,400,,,
trial,html.Screen,4_67_0,2023-05-01T22:55:31.615Z,,0,2,,2517.7690000022412,response,ISIC_1944650.JPG,,ISIC_0031010.JPG,ISIC_0031010.JPG,false,0,keypress(z),500,237635.90000000224,237635.40000000224,235100.943,235091.5,235117.631,237650.115,8,400,18,,ISIC_1944650.JPG
break,html.Screen,4_67_1,2023-05-01T22:55:31.617Z,,0,,,NaN,,,,,,false,,,,237637.90000000224,237636.80000000075,,237636.19999999925,,237650.115,8,400,,,
break_continue,html.Screen,4_67_2,2023-05-01T22:55:31.618Z,,0,,,NaN,,,,,,false,,,,237638.40000000224,237638.19999999925,,237638.1000000015,,237650.115,8,400,,,
sequence,flow.Sequence,4_67,2023-05-01T22:55:31.618Z,,0,,,2520.568999999261,completion,,,,,false,,,,237638.6000000015,237638.19999999925,235100.943,235091.5,235117.631,237650.115,8,400,,,
trial,html.Screen,4_68_0,2023-05-01T22:55:34.263Z,,0,2,,2633.3850000000093,response,ISIC_1495182.JPG,,ISIC_9011718.JPG,ISIC_1495182.JPG,false,1,keypress(m),500,240283.69999999925,240283.5,237633.597,237638.80000000075,237650.115,240298.934,8,400,19,,ISIC_9011718.JPG
break,html.Screen,4_68_1,2023-05-01T22:55:34.265Z,,0,,,NaN,,,,,,false,,,,240285.30000000075,240284.30000000075,,240284,,240298.934,8,400,,,
break_continue,html.Screen,4_68_2,2023-05-01T22:55:34.265Z,,0,,,NaN,,,,,,false,,,,240285.69999999925,240285.6000000015,,240285.40000000224,,240298.934,8,400,,,
sequence,flow.Sequence,4_68,2023-05-01T22:55:34.265Z,,0,,,2635.4850000014994,completion,,,,,false,,,,240285.90000000224,240285.6000000015,237633.597,237638.69999999925,237650.115,240298.934,8,400,,,
trial,html.Screen,4_69_0,2023-05-01T22:55:36.596Z,,0,2,,2317.0659999999916,response,ISIC_2430137.JPG,,ISIC_7413786.JPG,ISIC_2430137.JPG,false,1,keypress(m),500,242616.19999999925,242616,240282.562,240286,240298.934,242648.214,8,400,20,,ISIC_7413786.JPG
break,html.Screen,4_69_1,2023-05-01T22:55:36.596Z,,0,,,NaN,,,,,,false,,,,242616.69999999925,242616.6000000015,,242616.30000000075,,242648.214,8,400,,,
break_continue,html.Screen,4_69_2,2023-05-01T22:55:36.596Z,,0,,,NaN,,,,,,false,,,,242617,242617,,242616.80000000075,,242648.214,8,400,,,
sequence,flow.Sequence,4_69,2023-05-01T22:55:36.597Z,,0,,,2318.0659999999916,completion,,,,,false,,,,242617.1000000015,242617,240282.562,240285.90000000224,240298.934,242648.214,8,400,,,
trial,html.Screen,4_70_0,2023-05-01T22:55:38.997Z,,0,2,,2368.686000002228,response,ISIC_9433473.JPG,,ISIC_0054599.JPG,ISIC_9433473.JPG,false,1,keypress(m),500,245017.19999999925,245016.90000000224,242631.531,242617.19999999925,242648.214,245030.425,8,400,21,,ISIC_0054599.JPG
break,html.Screen,4_70_1,2023-05-01T22:55:38.998Z,,0,,,NaN,,,,,,false,,,,245018.40000000224,245018.1000000015,,245017.5,,245030.425,8,400,,,
break_continue,html.Screen,4_70_2,2023-05-01T22:55:38.998Z,,0,,,NaN,,,,,,false,,,,245019.1000000015,245018.80000000075,,245018.5,,245030.425,8,400,,,
sequence,flow.Sequence,4_70,2023-05-01T22:55:38.999Z,,0,,,2370.586000000738,completion,,,,,false,,,,245019.30000000075,245018.80000000075,242631.531,242617.19999999925,242648.214,245030.425,8,400,,,
trial,html.Screen,4_71_0,2023-05-01T22:55:42.673Z,,0,2,,3663.1750000015018,response,ISIC_0032171.JPG,,ISIC_6507412.JPG,ISIC_6507412.JPG,false,0,keypress(z),500,248693.80000000075,248693.6000000015,245013.921,245019.40000000224,245030.425,248712.245,8,400,22,,ISIC_0032171.JPG
break,html.Screen,4_71_1,2023-05-01T22:55:42.675Z,,0,,,NaN,,,,,,false,,,,248695.30000000075,248694.5,,248694,,248712.245,8,400,,,
break_continue,html.Screen,4_71_2,2023-05-01T22:55:42.675Z,,0,,,NaN,,,,,,false,,,,248695.80000000075,248695.6000000015,,248695.5,,248712.245,8,400,,,
sequence,flow.Sequence,4_71,2023-05-01T22:55:42.675Z,,0,,,3665.1750000015018,completion,,,,,false,,,,248696,248695.6000000015,245013.921,245019.40000000224,245030.425,248712.245,8,400,,,
trial,html.Screen,4_72_0,2023-05-01T22:55:45.323Z,,0,2,,2630.65500000224,response,ISIC_6970607.JPG,,ISIC_0879097.JPG,ISIC_0879097.JPG,false,0,keypress(z),500,251343.19999999925,251342.90000000224,248678.934,248696.1000000015,248712.245,251361.036,8,400,23,,ISIC_6970607.JPG
break,html.Screen,4_72_1,2023-05-01T22:55:45.324Z,,0,,,NaN,,,,,,false,,,,251344.40000000224,251343.80000000075,,251343.40000000224,,251361.036,8,400,,,
break_continue,html.Screen,4_72_2,2023-05-01T22:55:45.324Z,,0,,,NaN,,,,,,false,,,,251344.80000000075,251344.6000000015,,251344.40000000224,,251361.036,8,400,,,
sequence,flow.Sequence,4_72,2023-05-01T22:55:45.324Z,,0,,,2632.355000001495,completion,,,,,false,,,,251344.90000000224,251344.6000000015,248678.934,248696.1000000015,248712.245,251361.036,8,400,,,
trial,html.Screen,4_73_0,2023-05-01T22:55:48.457Z,,0,2,,3115.964000000007,response,ISIC_1870415.JPG,,ISIC_0033638.JPG,ISIC_1870415.JPG,false,1,keypress(m),500,254477.40000000224,254477,251343.931,251345,251361.036,254493.002,8,400,24,,ISIC_0033638.JPG
break,html.Screen,4_73_1,2023-05-01T22:55:48.459Z,,0,,,NaN,,,,,,false,,,,254479.30000000075,254479,,254477.6000000015,,254493.002,8,400,,,
break_continue,html.Screen,4_73_2,2023-05-01T22:55:48.459Z,,0,,,NaN,,,,,,false,,,,254479.69999999925,254479.6000000015,,254479.5,,254493.002,8,400,,,
sequence,flow.Sequence,4_73,2023-05-01T22:55:48.459Z,,0,,,3118.5640000014973,completion,,,,,false,,,,254479.90000000224,254479.6000000015,251343.931,251345,251361.036,254493.002,8,400,,,
trial,html.Screen,4_74_0,2023-05-01T22:55:51.004Z,,0,2,,2530.9979999999923,response,ISIC_5410481.JPG,,ISIC_0031529.JPG,ISIC_5410481.JPG,false,1,keypress(m),500,257024.19999999925,257024,254476.135,254480.1000000015,254493.002,257041.868,8,400,25,,ISIC_0031529.JPG
break,html.Screen,4_74_1,2023-05-01T22:55:51.005Z,,0,,,NaN,,,,,,false,,,,257025.40000000224,257025.1000000015,,257024.6000000015,,257041.868,8,400,,,
break_continue,html.Screen,4_74_2,2023-05-01T22:55:51.005Z,,0,,,NaN,,,,,,false,,,,257026.1000000015,257025.90000000224,,257025.69999999925,,257041.868,8,400,,,
sequence,flow.Sequence,4_74,2023-05-01T22:55:51.006Z,,0,,,2532.8980000022275,completion,,,,,false,,,,257026.30000000075,257025.90000000224,254476.135,254480,254493.002,257041.868,8,400,,,
trial,html.Screen,4_75_0,2023-05-01T22:55:53.585Z,,0,2,,2563.0320000022475,response,ISIC_7430054.JPG,,ISIC_0066149.JPG,ISIC_7430054.JPG,false,1,keypress(m),500,259605.19999999925,259604.90000000224,257025.304,257026.6000000015,257041.868,259624.09,8,400,26,,ISIC_0066149.JPG
break,html.Screen,4_75_1,2023-05-01T22:55:53.587Z,,0,,,NaN,,,,,,false,,,,259607.5,259607.30000000075,,259605.40000000224,,259624.09,8,400,,,
break_continue,html.Screen,4_75_2,2023-05-01T22:55:53.587Z,,0,,,NaN,,,,,,false,,,,259607.90000000224,259607.80000000075,,259607.6000000015,,259624.09,8,400,,,
sequence,flow.Sequence,4_75,2023-05-01T22:55:53.587Z,,0,,,2565.9320000007574,completion,,,,,false,,,,259608.1000000015,259607.80000000075,257025.304,257026.5,257041.868,259624.09,8,400,,,
trial,html.Screen,4_76_0,2023-05-01T22:55:56.051Z,,0,2,,2447.5100000014936,response,ISIC_0000431.JPG,,ISIC_0010350.JPG,ISIC_0000431.JPG,false,1,keypress(m),500,262071.90000000224,262071.6000000015,259590.755,259608.19999999925,259624.09,262089.585,8,400,27,,ISIC_0010350.JPG
break,html.Screen,4_76_1,2023-05-01T22:55:56.052Z,,0,,,NaN,,,,,,false,,,,262073,262072.69999999925,,262072.1000000015,,262089.585,8,400,,,
break_continue,html.Screen,4_76_2,2023-05-01T22:55:56.053Z,,0,,,NaN,,,,,,false,,,,262073.69999999925,262073.40000000224,,262073.30000000075,,262089.585,8,400,,,
sequence,flow.Sequence,4_76,2023-05-01T22:55:56.053Z,,0,,,2449.3100000022387,completion,,,,,false,,,,262073.90000000224,262073.40000000224,259590.755,259608.1000000015,259624.09,262089.585,8,400,,,
trial,html.Screen,4_77_0,2023-05-01T22:55:58.549Z,,0,2,,2479.8150000022433,response,ISIC_0025757.JPG,,ISIC_0055491.JPG,ISIC_0055491.JPG,false,0,keypress(z),500,264569.6000000015,264569.40000000224,262072.624,262074.1000000015,262089.585,264588.674,8,400,28,,ISIC_0025757.JPG
break,html.Screen,4_77_1,2023-05-01T22:55:58.550Z,,0,,,NaN,,,,,,false,,,,264570.40000000224,264570.30000000075,,264569.80000000075,,264588.674,8,400,,,
break_continue,html.Screen,4_77_2,2023-05-01T22:55:58.550Z,,0,,,NaN,,,,,,false,,,,264570.80000000075,264570.69999999925,,264570.6000000015,,264588.674,8,400,,,
sequence,flow.Sequence,4_77,2023-05-01T22:55:58.550Z,,0,,,2481.114999999263,completion,,,,,false,,,,264570.90000000224,264570.69999999925,262072.624,262074.1000000015,262089.585,264588.674,8,400,,,
trial,html.Screen,4_78_0,2023-05-01T22:56:01.275Z,,0,2,,2706.525999999256,response,ISIC_8654660.JPG,,ISIC_7365889.JPG,ISIC_7365889.JPG,false,0,keypress(z),500,267295.6000000015,267295.19999999925,264571.511,264571.1000000015,264588.674,267303.658,8,400,29,,ISIC_8654660.JPG
break,html.Screen,4_78_1,2023-05-01T22:56:01.276Z,,0,,,NaN,,,,,,false,,,,267296.69999999925,267296.40000000224,,267295.90000000224,,267303.658,8,400,,,
break_continue,html.Screen,4_78_2,2023-05-01T22:56:01.277Z,,0,,,NaN,,,,,,false,,,,267297.30000000075,267297,,267296.80000000075,,267303.658,8,400,,,
sequence,flow.Sequence,4_78,2023-05-01T22:56:01.277Z,,0,,,2708.326000000001,completion,,,,,false,,,,267297.5,267297,264571.511,264571,264588.674,267303.658,8,400,,,
trial,html.Screen,4_79_0,2023-05-01T22:56:04.133Z,,0,2,,2849.541999999259,response,ISIC_0034242.JPG,,ISIC_5509946.JPG,ISIC_5509946.JPG,false,0,keypress(z),500,270153.30000000075,270153.19999999925,267287.514,267297.69999999925,267303.658,270169.137,8,400,30,,ISIC_0034242.JPG
break,html.Screen,4_79_1,2023-05-01T22:56:04.133Z,,0,,,NaN,,,,,,false,,,,270153.80000000075,270153.80000000075,,270153.40000000224,,270169.137,8,400,,,
break_continue,html.Screen,4_79_2,2023-05-01T22:56:04.133Z,,0,,,NaN,,,,,,false,,,,270153.90000000224,270153.90000000224,,270153.90000000224,,270169.137,8,400,,,
sequence,flow.Sequence,4_79,2023-05-01T22:56:04.133Z,,0,,,2850.2420000022394,completion,,,,,false,,,,270154,270153.90000000224,267287.514,267297.69999999925,267303.658,270169.137,8,400,,,
trial,html.Screen,4_80_0,2023-05-01T22:56:06.896Z,,0,2,,2746.863000000012,response,ISIC_0030657.JPG,,ISIC_0060934.JPG,ISIC_0060934.JPG,false,0,keypress(z),500,272916.19999999925,272916,270152.705,270154,270169.137,272947.388,8,400,31,,ISIC_0030657.JPG
break,html.Screen,4_80_1,2023-05-01T22:56:06.896Z,,0,,,NaN,,,,,,false,,,,272916.80000000075,272916.69999999925,,272916.40000000224,,272947.388,8,400,,,
break_continue,html.Screen,4_80_2,2023-05-01T22:56:06.897Z,,0,,,NaN,,,,,,false,,,,272917.30000000075,272917.19999999925,,272917.1000000015,,272947.388,8,400,,,
sequence,flow.Sequence,4_80,2023-05-01T22:56:06.897Z,,0,,,2748.062999999267,completion,,,,,false,,,,272917.5,272917.19999999925,270152.705,270154,270169.137,272947.388,8,400,,,
trial,html.Screen,4_81_0,2023-05-01T22:56:09.430Z,,0,2,,2503.112000000023,response,ISIC_8993666.JPG,,ISIC_1615485.JPG,ISIC_8993666.JPG,false,1,keypress(m),500,275450.90000000224,275450.5,272902.823,272917.6000000015,272947.388,275471.788,8,400,32,,ISIC_1615485.JPG
break,html.Screen,4_81_1,2023-05-01T22:56:09.433Z,,0,,,NaN,,,,,,false,,,,275453.80000000075,275453.5,,275451.19999999925,,275471.788,8,400,,,
break_continue,html.Screen,4_81_2,2023-05-01T22:56:09.434Z,,0,,,NaN,,,,,,false,,,,275454.30000000075,275454.19999999925,,275454,,275471.788,8,400,,,
sequence,flow.Sequence,4_81,2023-05-01T22:56:09.434Z,,0,,,2506.8119999992778,completion,,,,,false,,,,275454.5,275454.19999999925,272902.823,272917.5,272947.388,275471.788,8,400,,,
trial,html.Screen,4_82_0,2023-05-01T22:56:11.735Z,,0,2,,2283.4119999992545,response,ISIC_0068153.JPG,,ISIC_0027095.JPG,ISIC_0027095.JPG,false,0,keypress(z),500,277755.5,277755.19999999925,275450.536,275454.69999999925,275471.788,277765.756,8,400,33,,ISIC_0068153.JPG
break,html.Screen,4_82_1,2023-05-01T22:56:11.737Z,,0,,,NaN,,,,,,false,,,,277757.30000000075,277756.40000000224,,277755.80000000075,,277765.756,8,400,,,
break_continue,html.Screen,4_82_2,2023-05-01T22:56:11.737Z,,0,,,NaN,,,,,,false,,,,277757.90000000224,277757.69999999925,,277757.6000000015,,277765.756,8,400,,,
sequence,flow.Sequence,4_82,2023-05-01T22:56:11.737Z,,0,,,2285.9119999992545,completion,,,,,false,,,,277758.1000000015,277757.69999999925,275450.536,275454.6000000015,275471.788,277765.756,8,400,,,
trial,html.Screen,4_83_0,2023-05-01T22:56:13.758Z,,0,2,,2012.443999999261,response,ISIC_8025644.JPG,,ISIC_3272999.JPG,ISIC_8025644.JPG,false,1,keypress(m),500,279778.40000000224,279778.19999999925,277749.406,277758.30000000075,277765.756,279781.437,8,400,34,,ISIC_3272999.JPG
break,html.Screen,4_83_1,2023-05-01T22:56:13.759Z,,0,,,NaN,,,,,,false,,,,279779.30000000075,279778.90000000224,,279778.6000000015,,279781.437,8,400,,,
break_continue,html.Screen,4_83_2,2023-05-01T22:56:13.759Z,,0,,,NaN,,,,,,false,,,,279779.80000000075,279779.69999999925,,279779.5,,279781.437,8,400,,,
sequence,flow.Sequence,4_83,2023-05-01T22:56:13.759Z,,0,,,2013.943999999261,completion,,,,,false,,,,279779.90000000224,279779.69999999925,277749.406,277758.30000000075,277765.756,279781.437,8,400,,,
trial,html.Screen,4_84_0,2023-05-01T22:56:15.845Z,,0,2,,2083.5630000000237,response,ISIC_0064014.JPG,,ISIC_0011668.JPG,ISIC_0064014.JPG,false,1,keypress(m),500,281865.30000000075,281865,279764.73,279780,279781.437,281880.627,8,400,35,,ISIC_0011668.JPG
break,html.Screen,4_84_1,2023-05-01T22:56:15.846Z,,0,,,NaN,,,,,,false,,,,281866.19999999925,281866,,281865.5,,281880.627,8,400,,,
break_continue,html.Screen,4_84_2,2023-05-01T22:56:15.846Z,,0,,,NaN,,,,,,false,,,,281866.6000000015,281866.5,,281866.40000000224,,281880.627,8,400,,,
sequence,flow.Sequence,4_84,2023-05-01T22:56:15.846Z,,0,,,2085.0630000000237,completion,,,,,false,,,,281866.69999999925,281866.5,279764.73,279780,279781.437,281880.627,8,400,,,
trial,html.Screen,4_85_0,2023-05-01T22:56:17.878Z,,0,2,,2017.7730000022566,response,ISIC_0197873.JPG,,ISIC_5437785.JPG,ISIC_0197873.JPG,false,1,keypress(m),500,283899,283898.40000000224,281864.175,281866.90000000224,281880.627,283913.55,8,400,36,,ISIC_5437785.JPG
break,html.Screen,4_85_1,2023-05-01T22:56:17.879Z,,0,,,NaN,,,,,,false,,,,283899.90000000224,283899.69999999925,,283899.19999999925,,283913.55,8,400,,,
break_continue,html.Screen,4_85_2,2023-05-01T22:56:17.880Z,,0,,,NaN,,,,,,false,,,,283900.40000000224,283900.19999999925,,283900.1000000015,,283913.55,8,400,,,
sequence,flow.Sequence,4_85,2023-05-01T22:56:17.880Z,,0,,,2019.5729999992764,completion,,,,,false,,,,283900.5,283900.19999999925,281864.175,281866.90000000224,281880.627,283913.55,8,400,,,
trial,html.Screen,4_86_0,2023-05-01T22:56:19.919Z,,0,2,,2025.5500000015018,response,ISIC_0030003.JPG,,ISIC_0027091.JPG,ISIC_0030003.JPG,false,1,keypress(m),500,285939.30000000075,285939.1000000015,283896.861,283900.69999999925,283913.55,285950.334,8,400,37,,ISIC_0027091.JPG
break,html.Screen,4_86_1,2023-05-01T22:56:19.921Z,,0,,,NaN,,,,,,false,,,,285941.1000000015,285941,,285939.5,,285950.334,8,400,,,
break_continue,html.Screen,4_86_2,2023-05-01T22:56:19.921Z,,0,,,NaN,,,,,,false,,,,285941.5,285941.40000000224,,285941.19999999925,,285950.334,8,400,,,
sequence,flow.Sequence,4_86,2023-05-01T22:56:19.921Z,,0,,,2027.8500000022468,completion,,,,,false,,,,285941.69999999925,285941.40000000224,283896.861,283900.6000000015,283913.55,285950.334,8,400,,,
trial,html.Screen,4_87_0,2023-05-01T22:56:21.982Z,,0,2,,2052.4660000007716,response,ISIC_1525284.JPG,,ISIC_5297660.JPG,ISIC_1525284.JPG,false,1,keypress(m),500,288003,288002.80000000075,285929.214,285941.80000000075,285950.334,288014.996,8,400,38,,ISIC_5297660.JPG
break,html.Screen,4_87_1,2023-05-01T22:56:21.984Z,,0,,,NaN,,,,,,false,,,,288005.1000000015,288004.80000000075,,288003.30000000075,,288014.996,8,400,,,
break_continue,html.Screen,4_87_2,2023-05-01T22:56:21.985Z,,0,,,NaN,,,,,,false,,,,288005.40000000224,288005.30000000075,,288005.19999999925,,288014.996,8,400,,,
sequence,flow.Sequence,4_87,2023-05-01T22:56:21.985Z,,0,,,2054.9660000007716,completion,,,,,false,,,,288005.6000000015,288005.30000000075,285929.214,285941.69999999925,285950.334,288014.996,8,400,,,
trial,html.Screen,4_88_0,2023-05-01T22:56:24.035Z,,0,2,,2040.9040000022505,response,ISIC_6208508.JPG,,ISIC_3613392.JPG,ISIC_6208508.JPG,false,1,keypress(m),500,290056.1000000015,290055.90000000224,287995.076,288005.69999999925,288014.996,290060.719,8,400,39,,ISIC_3613392.JPG
break,html.Screen,4_88_1,2023-05-01T22:56:24.036Z,,0,,,NaN,,,,,,false,,,,290056.90000000224,290056.80000000075,,290056.30000000075,,290060.719,8,400,,,
break_continue,html.Screen,4_88_2,2023-05-01T22:56:24.037Z,,0,,,NaN,,,,,,false,,,,290057.1000000015,290057,,290057,,290060.719,8,400,,,
sequence,flow.Sequence,4_88,2023-05-01T22:56:24.037Z,,0,,,2042.0040000000154,completion,,,,,false,,,,290057.19999999925,290057,287995.076,288005.6000000015,288014.996,290060.719,8,400,,,
trial,html.Screen,4_89_0,2023-05-01T22:56:26.114Z,,0,2,,2072.8810000015073,response,ISIC_5028203.JPG,,ISIC_0069395.JPG,ISIC_5028203.JPG,false,1,keypress(m),500,292134.30000000075,292133.6000000015,290043.729,290057.19999999925,290060.719,292142.793,8,400,40,,ISIC_0069395.JPG
break,html.Screen,4_89_1,2023-05-01T22:56:26.115Z,,0,,,NaN,,,,,,false,,,,292135.19999999925,292134.90000000224,,292134.6000000015,,292142.793,8,400,,,
break_continue,html.Screen,4_89_2,2023-05-01T22:56:26.115Z,,0,,,NaN,,,,,,false,,,,292135.5,292135.40000000224,,292135.30000000075,,292142.793,8,400,,,
sequence,flow.Sequence,4_89,2023-05-01T22:56:26.115Z,,0,,,2074.6810000022524,completion,,,,,false,,,,292135.69999999925,292135.40000000224,290043.729,290057.19999999925,290060.719,292142.793,8,400,,,
trial,html.Screen,4_90_0,2023-05-01T22:56:28.077Z,,0,2,,1954.9069999992498,response,ISIC_0010611.JPG,,ISIC_5706908.JPG,ISIC_0010611.JPG,false,1,keypress(m),500,294098,294097.69999999925,292126.642,292135.80000000075,292142.793,294125.281,8,400,41,,ISIC_5706908.JPG
break,html.Screen,4_90_1,2023-05-01T22:56:28.078Z,,0,,,NaN,,,,,,false,,,,294098.80000000075,294098.6000000015,,294098.19999999925,,294125.281,8,400,,,
break_continue,html.Screen,4_90_2,2023-05-01T22:56:28.079Z,,0,,,NaN,,,,,,false,,,,294099.5,294099.19999999925,,294099,,294125.281,8,400,,,
sequence,flow.Sequence,4_90,2023-05-01T22:56:28.079Z,,0,,,1956.4069999992498,completion,,,,,false,,,,294099.6000000015,294099.19999999925,292126.642,292135.80000000075,292142.793,294125.281,8,400,,,
trial,html.Screen,4_91_0,2023-05-01T22:56:30.193Z,,0,2,,2087.9189999992377,response,ISIC_5675703.JPG,,ISIC_0011276.JPG,ISIC_5675703.JPG,false,1,keypress(m),500,296213.40000000224,296213.19999999925,294108.622,294099.80000000075,294125.281,296224.378,8,400,42,,ISIC_0011276.JPG
break,html.Screen,4_91_1,2023-05-01T22:56:30.194Z,,0,,,NaN,,,,,,false,,,,296214.90000000224,296214.6000000015,,296213.69999999925,,296224.378,8,400,,,
break_continue,html.Screen,4_91_2,2023-05-01T22:56:30.195Z,,0,,,NaN,,,,,,false,,,,296215.5,296215.30000000075,,296215.19999999925,,296224.378,8,400,,,
sequence,flow.Sequence,4_91,2023-05-01T22:56:30.195Z,,0,,,2090.019000000728,completion,,,,,false,,,,296215.6000000015,296215.30000000075,294108.622,294099.80000000075,294125.281,296224.378,8,400,,,
trial,html.Screen,4_92_0,2023-05-01T22:56:32.267Z,,0,2,,2063.121999999974,response,ISIC_9639931.JPG,,ISIC_4752144.JPG,ISIC_9639931.JPG,false,1,keypress(m),500,298287.69999999925,298287.5,296207.947,296215.80000000075,296224.378,298290.098,8,400,43,,ISIC_4752144.JPG
break,html.Screen,4_92_1,2023-05-01T22:56:32.268Z,,0,,,NaN,,,,,,false,,,,298288.6000000015,298288.30000000075,,298287.90000000224,,298290.098,8,400,,,
break_continue,html.Screen,4_92_2,2023-05-01T22:56:32.268Z,,0,,,NaN,,,,,,false,,,,298289,298288.90000000224,,298288.69999999925,,298290.098,8,400,,,
sequence,flow.Sequence,4_92,2023-05-01T22:56:32.269Z,,0,,,2064.522000002209,completion,,,,,false,,,,298289.19999999925,298288.90000000224,296207.947,296215.69999999925,296224.378,298290.098,8,400,,,
trial,html.Screen,4_93_0,2023-05-01T22:56:34.380Z,,0,2,,2110.202000000747,response,ISIC_8133350.JPG,,ISIC_8760203.JPG,ISIC_8133350.JPG,false,1,keypress(m),500,300400.5,300400.30000000075,298273.987,298289.30000000075,298290.098,300405.817,8,400,44,,ISIC_8760203.JPG
break,html.Screen,4_93_1,2023-05-01T22:56:34.381Z,,0,,,NaN,,,,,,false,,,,300401.30000000075,300401,,300400.69999999925,,300405.817,8,400,,,
break_continue,html.Screen,4_93_2,2023-05-01T22:56:34.381Z,,0,,,NaN,,,,,,false,,,,300401.69999999925,300401.6000000015,,300401.5,,300405.817,8,400,,,
sequence,flow.Sequence,4_93,2023-05-01T22:56:34.381Z,,0,,,2111.502000001492,completion,,,,,false,,,,300401.90000000224,300401.6000000015,298273.987,298289.30000000075,298290.098,300405.817,8,400,,,
trial,html.Screen,4_94_0,2023-05-01T22:56:36.406Z,,0,2,,2020.4830000007642,response,ISIC_0062869.JPG,,ISIC_0302804.JPG,ISIC_0062869.JPG,false,1,keypress(m),500,302426.5,302426.30000000075,300389.944,300402.1000000015,300405.817,302438.465,8,400,45,,ISIC_0302804.JPG
break,html.Screen,4_94_1,2023-05-01T22:56:36.406Z,,0,,,NaN,,,,,,false,,,,302426.80000000075,302426.80000000075,,302426.69999999925,,302438.465,8,400,,,
break_continue,html.Screen,4_94_2,2023-05-01T22:56:36.406Z,,0,,,NaN,,,,,,false,,,,302427,302427,,302427,,302438.465,8,400,,,
sequence,flow.Sequence,4_94,2023-05-01T22:56:36.406Z,,0,,,2021.183000000019,completion,,,,,false,,,,302427,302427,300389.944,300402,300405.817,302438.465,8,400,,,
trial,html.Screen,4_95_0,2023-05-01T22:56:38.464Z,,0,2,,2045.8350000007194,response,ISIC_5366657.JPG,,ISIC_0054770.JPG,ISIC_5366657.JPG,false,1,keypress(m),500,304484.40000000224,304484.30000000075,302422.177,302427.1000000015,302438.465,304487.351,8,400,46,,ISIC_0054770.JPG
break,html.Screen,4_95_1,2023-05-01T22:56:38.464Z,,0,,,NaN,,,,,,false,,,,304485,304484.80000000075,,304484.5,,304487.351,8,400,,,
break_continue,html.Screen,4_95_2,2023-05-01T22:56:38.464Z,,0,,,NaN,,,,,,false,,,,304485.1000000015,304485.1000000015,,304485,,304487.351,8,400,,,
sequence,flow.Sequence,4_95,2023-05-01T22:56:38.465Z,,0,,,2046.6350000014645,completion,,,,,false,,,,304485.1000000015,304485.1000000015,302422.177,302427.1000000015,302438.465,304487.351,8,400,,,
trial,html.Screen,4_96_0,2023-05-01T22:56:40.535Z,,0,2,,2067.549000002211,response,ISIC_7341401.JPG,,ISIC_0001480.JPG,ISIC_7341401.JPG,false,1,keypress(m),500,306555.19999999925,306554.90000000224,304471.192,304485.19999999925,304487.351,306586.503,8,400,47,,ISIC_0001480.JPG
break,html.Screen,4_96_1,2023-05-01T22:56:40.536Z,,0,,,NaN,,,,,,false,,,,306556.40000000224,306556.19999999925,,306555.30000000075,,306586.503,8,400,,,
break_continue,html.Screen,4_96_2,2023-05-01T22:56:40.536Z,,0,,,NaN,,,,,,false,,,,306556.80000000075,306556.69999999925,,306556.6000000015,,306586.503,8,400,,,
sequence,flow.Sequence,4_96,2023-05-01T22:56:40.536Z,,0,,,2069.3489999992307,completion,,,,,false,,,,306556.90000000224,306556.69999999925,304471.192,304485.19999999925,304487.351,306586.503,8,400,,,
trial,html.Screen,4_97_0,2023-05-01T22:56:42.558Z,,0,2,,1992.297000000719,response,ISIC_9648812.JPG,,ISIC_2222879.JPG,ISIC_9648812.JPG,false,1,keypress(m),500,308579.1000000015,308578.80000000075,306570.279,306557.1000000015,306586.503,308585.676,8,400,48,,ISIC_2222879.JPG
break,html.Screen,4_97_1,2023-05-01T22:56:42.559Z,,0,,,NaN,,,,,,false,,,,308580,308579.69999999925,,308579.30000000075,,308585.676,8,400,,,
break_continue,html.Screen,4_97_2,2023-05-01T22:56:42.560Z,,0,,,NaN,,,,,,false,,,,308580.40000000224,308580.30000000075,,308580.19999999925,,308585.676,8,400,,,
sequence,flow.Sequence,4_97,2023-05-01T22:56:42.560Z,,0,,,1993.797000000719,completion,,,,,false,,,,308580.6000000015,308580.30000000075,306570.279,306557,306586.503,308585.676,8,400,,,
trial,html.Screen,4_98_0,2023-05-01T22:56:44.814Z,,0,2,,2248.6240000007674,response,ISIC_6926118.JPG,,ISIC_0033154.JPG,ISIC_6926118.JPG,false,1,keypress(m),500,310834.69999999925,310834.30000000075,308569.212,308580.80000000075,308585.676,310851.7,8,400,49,,ISIC_0033154.JPG
break,html.Screen,4_98_1,2023-05-01T22:56:44.817Z,,0,,,NaN,,,,,,false,,,,310837.30000000075,310836.90000000224,,310835,,310851.7,8,400,,,
break_continue,html.Screen,4_98_2,2023-05-01T22:56:44.817Z,,0,,,NaN,,,,,,false,,,,310837.69999999925,310837.6000000015,,310837.40000000224,,310851.7,8,400,,,
sequence,flow.Sequence,4_98,2023-05-01T22:56:44.817Z,,0,,,2251.9240000015125,completion,,,,,false,,,,310837.80000000075,310837.6000000015,308569.212,308580.69999999925,308585.676,310851.7,8,400,,,
trial,html.Screen,4_99_0,2023-05-01T22:56:47.021Z,,0,2,,2189.7000000022235,response,ISIC_0012059.JPG,,ISIC_0066564.JPG,ISIC_0012059.JPG,false,1,keypress(m),500,313041.69999999925,313041.40000000224,310835.129,310838,310851.7,313050.324,8,400,50,,ISIC_0066564.JPG
break,html.Screen,4_99_1,2023-05-01T22:56:52.013Z,,0,,,4998.449999999953,timeout,,,,,false,,,,318033.40000000224,318032.038,313033.818,313041.90000000224,313050.324,318048.774,8,400,,,
break_continue,html.Screen,4_99_2,2023-05-01T22:56:53.957Z,,0,,,1917.1260000022594,response,,,,,false,continue,keypress(Space),,319977.80000000075,319965.90000000224,318032.038,318033.5,318048.774,319997.43,8,400,,,
sequence,flow.Sequence,4_99,2023-05-01T22:56:53.957Z,,0,,,9114.200000002224,completion,,,,,false,,,,319977.80000000075,319965.90000000224,310835.129,310838,310851.7,319997.43,8,400,,,
trial,html.Screen,4_100_0,2023-05-01T22:56:56.057Z,,0,3,,2079.269999999262,response,ISIC_0645477.JPG,,ISIC_6916213.JPG,ISIC_0645477.JPG,false,1,keypress(m),500,322077.1000000015,322076.69999999925,319964.395,319977.80000000075,319997.43,322079.818,8,400,1,,ISIC_6916213.JPG
break,html.Screen,4_100_1,2023-05-01T22:56:56.058Z,,0,,,NaN,,,,,,false,,,,322079.1000000015,322078.69999999925,,322077.5,,322079.818,8,400,,,
break_continue,html.Screen,4_100_2,2023-05-01T22:56:56.059Z,,0,,,NaN,,,,,,false,,,,322079.5,322079.40000000224,,322079.19999999925,,322079.818,8,400,,,
sequence,flow.Sequence,4_100,2023-05-01T22:56:56.059Z,,0,,,2081.970000002242,completion,,,,,false,,,,322079.90000000224,322079.40000000224,319964.395,319977.80000000075,319997.43,322079.818,8,400,,,
trial,html.Screen,4_101_0,2023-05-01T22:56:58.295Z,,0,3,,2235.9820000007167,response,ISIC_0058723.JPG,,ISIC_9788174.JPG,ISIC_0058723.JPG,false,1,keypress(m),500,324316.1000000015,324315.80000000075,322063.518,322080.5,322079.818,324346.074,8,400,2,,ISIC_9788174.JPG
break,html.Screen,4_101_1,2023-05-01T22:56:58.296Z,,0,,,NaN,,,,,,false,,,,324316.69999999925,324316.6000000015,,324316.30000000075,,324346.074,8,400,,,
break_continue,html.Screen,4_101_2,2023-05-01T22:56:58.296Z,,0,,,NaN,,,,,,false,,,,324317.1000000015,324316.90000000224,,324316.80000000075,,324346.074,8,400,,,
sequence,flow.Sequence,4_101,2023-05-01T22:56:58.297Z,,0,,,2237.0820000022068,completion,,,,,false,,,,324317.19999999925,324316.90000000224,322063.518,322080.40000000224,322079.818,324346.074,8,400,,,
trial,html.Screen,4_102_0,2023-05-01T22:57:00.482Z,,0,3,,2156.326000002213,response,ISIC_4189981.JPG,,ISIC_0031915.JPG,ISIC_4189981.JPG,false,1,keypress(m),500,326502.90000000224,326502.40000000224,324328.854,324317.19999999925,324346.074,326511.207,8,400,3,,ISIC_0031915.JPG
break,html.Screen,4_102_1,2023-05-01T22:57:00.484Z,,0,,,NaN,,,,,,false,,,,326504.40000000224,326503.90000000224,,326503.19999999925,,326511.207,8,400,,,
break_continue,html.Screen,4_102_2,2023-05-01T22:57:00.484Z,,0,,,NaN,,,,,,false,,,,326504.90000000224,326504.80000000075,,326504.6000000015,,326511.207,8,400,,,
sequence,flow.Sequence,4_102,2023-05-01T22:57:00.484Z,,0,,,2158.7260000007227,completion,,,,,false,,,,326505,326504.80000000075,324328.854,324317.19999999925,324346.074,326511.207,8,400,,,
trial,html.Screen,4_103_0,2023-05-01T22:57:02.600Z,,0,3,,2109.1930000022403,response,ISIC_1611503.JPG,,ISIC_0027560.JPG,ISIC_1611503.JPG,false,1,keypress(m),500,328620.80000000075,328620.40000000224,326494.577,326505.19999999925,326511.207,328632.168,8,400,4,,ISIC_0027560.JPG
break,html.Screen,4_103_1,2023-05-01T22:57:02.602Z,,0,,,NaN,,,,,,false,,,,328623.1000000015,328622.80000000075,,328621,,328632.168,8,400,,,
break_continue,html.Screen,4_103_2,2023-05-01T22:57:02.603Z,,0,,,NaN,,,,,,false,,,,328623.40000000224,328623.30000000075,,328623.19999999925,,328632.168,8,400,,,
sequence,flow.Sequence,4_103,2023-05-01T22:57:02.603Z,,0,,,2112.09300000075,completion,,,,,false,,,,328623.6000000015,328623.30000000075,326494.577,326505.1000000015,326511.207,328632.168,8,400,,,
trial,html.Screen,4_104_0,2023-05-01T22:57:04.714Z,,0,3,,2101.63200000074,response,ISIC_0054364.JPG,,ISIC_0073136.JPG,ISIC_0054364.JPG,false,1,keypress(m),500,330734.1000000015,330733.80000000075,328610.254,328623.69999999925,328632.168,330742.586,8,400,5,,ISIC_0073136.JPG
break,html.Screen,4_104_1,2023-05-01T22:57:04.715Z,,0,,,NaN,,,,,,false,,,,330735.69999999925,330735,,330734.30000000075,,330742.586,8,400,,,
break_continue,html.Screen,4_104_2,2023-05-01T22:57:04.716Z,,0,,,NaN,,,,,,false,,,,330736.19999999925,330736,,330735.90000000224,,330742.586,8,400,,,
sequence,flow.Sequence,4_104,2023-05-01T22:57:04.716Z,,0,,,2103.831999999995,completion,,,,,false,,,,330736.40000000224,330736,328610.254,328623.69999999925,328632.168,330742.586,8,400,,,
trial,html.Screen,4_105_0,2023-05-01T22:57:06.764Z,,0,3,,2042.2140000007348,response,ISIC_0015005.JPG,,ISIC_0026081.JPG,ISIC_0015005.JPG,false,1,keypress(m),500,332785,332784.80000000075,330726.045,330736.5,330742.586,332791.826,8,400,6,,ISIC_0026081.JPG
break,html.Screen,4_105_1,2023-05-01T22:57:06.765Z,,0,,,NaN,,,,,,false,,,,332785.40000000224,332785.40000000224,,332785.19999999925,,332791.826,8,400,,,
break_continue,html.Screen,4_105_2,2023-05-01T22:57:06.765Z,,0,,,NaN,,,,,,false,,,,332785.6000000015,332785.6000000015,,332785.5,,332791.826,8,400,,,
sequence,flow.Sequence,4_105,2023-05-01T22:57:06.765Z,,0,,,2043.0140000014799,completion,,,,,false,,,,332785.6000000015,332785.6000000015,330726.045,330736.5,330742.586,332791.826,8,400,,,
trial,html.Screen,4_106_0,2023-05-01T22:57:09.172Z,,0,3,,2400.0740000022342,response,ISIC_9334956.JPG,,ISIC_0346815.JPG,ISIC_9334956.JPG,false,1,keypress(m),500,335192.19999999925,335191.90000000224,332775.059,332785.69999999925,332791.826,335207.391,8,400,7,,ISIC_0346815.JPG
break,html.Screen,4_106_1,2023-05-01T22:57:09.174Z,,0,,,NaN,,,,,,false,,,,335194.1000000015,335193.90000000224,,335192.40000000224,,335207.391,8,400,,,
break_continue,html.Screen,4_106_2,2023-05-01T22:57:09.174Z,,0,,,NaN,,,,,,false,,,,335194.5,335194.5,,335194.30000000075,,335207.391,8,400,,,
sequence,flow.Sequence,4_106,2023-05-01T22:57:09.174Z,,0,,,2402.673999999999,completion,,,,,false,,,,335194.69999999925,335194.5,332775.059,332785.6000000015,332791.826,335207.391,8,400,,,
trial,html.Screen,4_107_0,2023-05-01T22:57:11.296Z,,0,3,,2108.409000000742,response,ISIC_6959281.JPG,,ISIC_0026963.JPG,ISIC_6959281.JPG,false,1,keypress(m),500,337316.30000000075,337315.80000000075,335190.901,335194.90000000224,335207.391,337339.749,8,400,8,,ISIC_0026963.JPG
break,html.Screen,4_107_1,2023-05-01T22:57:11.297Z,,0,,,NaN,,,,,,false,,,,337317.30000000075,337316.90000000224,,337316.69999999925,,337339.749,8,400,,,
break_continue,html.Screen,4_107_2,2023-05-01T22:57:11.297Z,,0,,,NaN,,,,,,false,,,,337317.5,337317.40000000224,,337317.30000000075,,337339.749,8,400,,,
sequence,flow.Sequence,4_107,2023-05-01T22:57:11.297Z,,0,,,2110.009000002232,completion,,,,,false,,,,337317.6000000015,337317.40000000224,335190.901,335194.80000000075,335207.391,337339.749,8,400,,,
trial,html.Screen,4_108_0,2023-05-01T22:57:13.422Z,,0,3,,2102.5510000007343,response,ISIC_1372928.JPG,,ISIC_0061972.JPG,ISIC_1372928.JPG,false,1,keypress(m),500,339442.5,339442.30000000075,337323.372,337317.69999999925,337339.749,339455.997,8,400,9,,ISIC_0061972.JPG
break,html.Screen,4_108_1,2023-05-01T22:57:13.424Z,,0,,,NaN,,,,,,false,,,,339444.30000000075,339444.1000000015,,339442.69999999925,,339455.997,8,400,,,
break_continue,html.Screen,4_108_2,2023-05-01T22:57:13.424Z,,0,,,NaN,,,,,,false,,,,339444.69999999925,339444.5,,339444.40000000224,,339455.997,8,400,,,
sequence,flow.Sequence,4_108,2023-05-01T22:57:13.424Z,,0,,,2104.7509999999893,completion,,,,,false,,,,339444.80000000075,339444.5,337323.372,337317.69999999925,337339.749,339455.997,8,400,,,
trial,html.Screen,4_109_0,2023-05-01T22:57:15.546Z,,0,3,,2110.603000001516,response,ISIC_0027387.JPG,,ISIC_0014559.JPG,ISIC_0027387.JPG,false,1,keypress(m),500,341566.80000000075,341566.6000000015,339439.376,339444.90000000224,339455.997,341589.843,8,400,10,,ISIC_0014559.JPG
break,html.Screen,4_109_1,2023-05-01T22:57:15.547Z,,0,,,NaN,,,,,,false,,,,341567.6000000015,341567.5,,341567.1000000015,,341589.843,8,400,,,
break_continue,html.Screen,4_109_2,2023-05-01T22:57:15.547Z,,0,,,NaN,,,,,,false,,,,341568,341567.90000000224,,341567.80000000075,,341589.843,8,400,,,
sequence,flow.Sequence,4_109,2023-05-01T22:57:15.548Z,,0,,,2111.9030000022613,completion,,,,,false,,,,341568.1000000015,341567.90000000224,339439.376,339444.90000000224,339455.997,341589.843,8,400,,,
trial,html.Screen,4_110_0,2023-05-01T22:57:17.933Z,,0,3,,2363.1570000000065,response,ISIC_0025904.JPG,,ISIC_0014903.JPG,ISIC_0014903.JPG,false,0,keypress(z),500,343953.5,343953,341571.28,341568.30000000075,341589.843,343970.425,8,400,11,,ISIC_0025904.JPG
break,html.Screen,4_110_1,2023-05-01T22:57:17.934Z,,0,,,NaN,,,,,,false,,,,343954.30000000075,343954,,343953.6000000015,,343970.425,8,400,,,
break_continue,html.Screen,4_110_2,2023-05-01T22:57:17.934Z,,0,,,NaN,,,,,,false,,,,343954.6000000015,343954.5,,343954.5,,343970.425,8,400,,,
sequence,flow.Sequence,4_110,2023-05-01T22:57:17.934Z,,0,,,2364.6570000000065,completion,,,,,false,,,,343954.69999999925,343954.5,341571.28,341568.19999999925,341589.843,343970.425,8,400,,,
trial,html.Screen,4_111_0,2023-05-01T22:57:20.033Z,,0,3,,2082.7749999992666,response,ISIC_0034239.JPG,,ISIC_0064875.JPG,ISIC_0064875.JPG,false,1,keypress(m),500,346053.30000000075,346053.19999999925,343953.433,343954.80000000075,343970.425,,8,400,12,,ISIC_0034239.JPG
break,html.Screen,4_111_1,2023-05-01T22:57:20.033Z,,0,,,NaN,,,,,,false,,,,346053.80000000075,346053.69999999925,,346053.5,,346069.718,8,400,,,
break_continue,html.Screen,4_111_2,2023-05-01T22:57:20.033Z,,0,,,NaN,,,,,,false,,,,346053.90000000224,346053.90000000224,,346053.80000000075,,346069.718,8,400,,,
sequence,flow.Sequence,4_111,2023-05-01T22:57:20.033Z,,0,,,2083.475000002247,completion,,,,,false,,,,346054,346053.90000000224,343953.433,343954.80000000075,343970.425,346069.718,8,400,,,
trial,html.Screen,4_111_0,2023-05-01T22:57:20.035Z,,0,3,,2085.1750000015018,response,ISIC_0034239.JPG,,ISIC_0064875.JPG,ISIC_0064875.JPG,false,0,keypress(z),500,346055.69999999925,346055.6000000015,343953.433,343954.80000000075,343970.425,346069.718,8,400,12,,ISIC_0034239.JPG
trial,html.Screen,4_112_0,2023-05-01T22:57:22.085Z,,0,3,,2035.4819999992615,response,ISIC_9568138.JPG,,ISIC_0011380.JPG,ISIC_9568138.JPG,false,1,keypress(m),500,348105.30000000075,348105.19999999925,346053.182,346054,346069.718,,8,400,13,,ISIC_0011380.JPG
break,html.Screen,4_112_1,2023-05-01T22:57:22.086Z,,0,,,NaN,,,,,,false,,,,348106.30000000075,348106.1000000015,,348105.5,,348118.693,8,400,,,
break_continue,html.Screen,4_112_2,2023-05-01T22:57:22.086Z,,0,,,NaN,,,,,,false,,,,348106.80000000075,348106.69999999925,,348106.5,,348118.693,8,400,,,
sequence,flow.Sequence,4_112,2023-05-01T22:57:22.086Z,,0,,,2036.9819999992615,completion,,,,,false,,,,348107,348106.69999999925,346053.182,346054,346069.718,348118.693,8,400,,,
trial,html.Screen,4_112_0,2023-05-01T22:57:22.090Z,,0,3,,2040.9819999992615,response,ISIC_9568138.JPG,,ISIC_0011380.JPG,ISIC_9568138.JPG,false,0,keypress(z),500,348111,348110.69999999925,346053.182,346054,346069.718,348118.693,8,400,13,,ISIC_0011380.JPG
trial,html.Screen,4_113_0,2023-05-01T22:57:24.186Z,,0,3,,2087.9070000014617,response,ISIC_0054777.JPG,,ISIC_0011404.JPG,ISIC_0054777.JPG,false,1,keypress(m),500,350206.90000000224,350206.6000000015,348101.796,348107.1000000015,348118.693,350217.647,8,400,14,,ISIC_0011404.JPG
break,html.Screen,4_113_1,2023-05-01T22:57:24.187Z,,0,,,NaN,,,,,,false,,,,350207.69999999925,350207.5,,350207.1000000015,,350217.647,8,400,,,
break_continue,html.Screen,4_113_2,2023-05-01T22:57:24.187Z,,0,,,NaN,,,,,,false,,,,350208.1000000015,350208,,350207.80000000075,,350217.647,8,400,,,
sequence,flow.Sequence,4_113,2023-05-01T22:57:24.188Z,,0,,,2089.3069999999716,completion,,,,,false,,,,350208.30000000075,350208,348101.796,348107.1000000015,348118.693,350217.647,8,400,,,
trial,html.Screen,4_114_0,2023-05-01T22:57:26.334Z,,0,3,,2136.753000002238,response,ISIC_1372928.JPG,,ISIC_0030150.JPG,ISIC_1372928.JPG,false,1,keypress(m),500,352354.69999999925,352354.40000000224,350201.444,350208.40000000224,350217.647,352383.812,8,400,15,,ISIC_0030150.JPG
break,html.Screen,4_114_1,2023-05-01T22:57:26.335Z,,0,,,NaN,,,,,,false,,,,352355.80000000075,352355.40000000224,,352354.90000000224,,352383.812,8,400,,,
break_continue,html.Screen,4_114_2,2023-05-01T22:57:26.336Z,,0,,,NaN,,,,,,false,,,,352356.19999999925,352356,,352355.90000000224,,352383.812,8,400,,,
sequence,flow.Sequence,4_114,2023-05-01T22:57:26.336Z,,0,,,2138.353000000003,completion,,,,,false,,,,352356.40000000224,352356,350201.444,350208.40000000224,350217.647,352383.812,8,400,,,
trial,html.Screen,4_115_0,2023-05-01T22:57:28.336Z,,0,3,,1972.4880000007688,response,ISIC_1224329.JPG,,ISIC_0059066.JPG,ISIC_1224329.JPG,false,1,keypress(m),500,354356.40000000224,354356.30000000075,352367.088,352356.5,352383.812,354365.71,8,400,16,,ISIC_0059066.JPG
break,html.Screen,4_115_1,2023-05-01T22:57:28.336Z,,0,,,NaN,,,,,,false,,,,354357,354356.69999999925,,354356.6000000015,,354365.71,8,400,,,
break_continue,html.Screen,4_115_2,2023-05-01T22:57:28.336Z,,0,,,NaN,,,,,,false,,,,354357.1000000015,354357,,354357,,354365.71,8,400,,,
sequence,flow.Sequence,4_115,2023-05-01T22:57:28.337Z,,0,,,1973.1880000000237,completion,,,,,false,,,,354357.1000000015,354357,352367.088,352356.5,352383.812,354365.71,8,400,,,
trial,html.Screen,4_116_0,2023-05-01T22:57:30.332Z,,0,3,,1987.1900000022142,response,ISIC_0031408.JPG,,ISIC_0028024.JPG,ISIC_0031408.JPG,false,1,keypress(m),500,356353,356352.90000000224,354349.06,354357.19999999925,354365.71,356365.315,8,400,17,,ISIC_0028024.JPG
break,html.Screen,4_116_1,2023-05-01T22:57:30.333Z,,0,,,NaN,,,,,,false,,,,356353.40000000224,356353.30000000075,,356353.1000000015,,356365.315,8,400,,,
break_continue,html.Screen,4_116_2,2023-05-01T22:57:30.333Z,,0,,,NaN,,,,,,false,,,,356353.5,356353.5,,356353.5,,356365.315,8,400,,,
sequence,flow.Sequence,4_116,2023-05-01T22:57:30.333Z,,0,,,1987.789999999979,completion,,,,,false,,,,356353.6000000015,356353.5,354349.06,354357.1000000015,354365.71,356365.315,8,400,,,
trial,html.Screen,4_117_0,2023-05-01T22:57:32.439Z,,0,3,,2094.1849999999977,response,ISIC_8513112.JPG,,ISIC_0030774.JPG,ISIC_8513112.JPG,false,1,keypress(m),500,358459.80000000075,358459.5,356348.666,356353.6000000015,356365.315,358463.964,8,400,18,,ISIC_0030774.JPG
break,html.Screen,4_117_1,2023-05-01T22:57:32.440Z,,0,,,NaN,,,,,,false,,,,358460.30000000075,358460.19999999925,,358459.90000000224,,358463.964,8,400,,,
break_continue,html.Screen,4_117_2,2023-05-01T22:57:32.440Z,,0,,,NaN,,,,,,false,,,,358460.6000000015,358460.40000000224,,358460.40000000224,,358463.964,8,400,,,
sequence,flow.Sequence,4_117,2023-05-01T22:57:32.440Z,,0,,,2095.085000002233,completion,,,,,false,,,,358460.6000000015,358460.40000000224,356348.666,356353.6000000015,356365.315,358463.964,8,400,,,
trial,html.Screen,4_118_0,2023-05-01T22:57:34.665Z,,0,3,,2221.136000001512,response,ISIC_1590829.JPG,,ISIC_1399572.JPG,ISIC_1590829.JPG,false,1,keypress(m),500,360685.30000000075,360685.1000000015,358447.783,358460.69999999925,358463.964,360713.481,8,400,19,,ISIC_1399572.JPG
break,html.Screen,4_118_1,2023-05-01T22:57:34.666Z,,0,,,NaN,,,,,,false,,,,360686.5,360686.19999999925,,360685.6000000015,,360713.481,8,400,,,
break_continue,html.Screen,4_118_2,2023-05-01T22:57:34.666Z,,0,,,NaN,,,,,,false,,,,360686.90000000224,360686.69999999925,,360686.6000000015,,360713.481,8,400,,,
sequence,flow.Sequence,4_118,2023-05-01T22:57:34.666Z,,0,,,2222.735999999277,completion,,,,,false,,,,360687.1000000015,360686.69999999925,358447.783,358460.69999999925,358463.964,360713.481,8,400,,,
trial,html.Screen,4_119_0,2023-05-01T22:57:36.778Z,,0,3,,2084.819000000716,response,ISIC_7277310.JPG,,ISIC_6529073.JPG,ISIC_7277310.JPG,false,1,keypress(m),500,362798.69999999925,362798.30000000075,360696.771,360687.19999999925,360713.481,362812.632,8,400,20,,ISIC_6529073.JPG
break,html.Screen,4_119_1,2023-05-01T22:57:36.779Z,,0,,,NaN,,,,,,false,,,,362800,362799.40000000224,,362798.90000000224,,362812.632,8,400,,,
break_continue,html.Screen,4_119_2,2023-05-01T22:57:36.780Z,,0,,,NaN,,,,,,false,,,,362800.5,362800.30000000075,,362800.30000000075,,362812.632,8,400,,,
sequence,flow.Sequence,4_119,2023-05-01T22:57:36.780Z,,0,,,2086.819000000716,completion,,,,,false,,,,362800.5,362800.30000000075,360696.771,360687.1000000015,360713.481,362812.632,8,400,,,
trial,html.Screen,4_120_0,2023-05-01T22:57:38.925Z,,0,3,,2132.468000001507,response,ISIC_1809444.JPG,,ISIC_0015250.JPG,ISIC_1809444.JPG,false,1,keypress(m),500,364945.40000000224,364945.1000000015,362795.393,362800.6000000015,362812.632,364961.102,8,400,21,,ISIC_0015250.JPG
break,html.Screen,4_120_1,2023-05-01T22:57:38.926Z,,0,,,NaN,,,,,,false,,,,364946.90000000224,364946.19999999925,,364945.6000000015,,364961.102,8,400,,,
break_continue,html.Screen,4_120_2,2023-05-01T22:57:38.927Z,,0,,,NaN,,,,,,false,,,,364947.40000000224,364947.30000000075,,364947.1000000015,,364961.102,8,400,,,
sequence,flow.Sequence,4_120,2023-05-01T22:57:38.927Z,,0,,,2134.668000000762,completion,,,,,false,,,,364947.69999999925,364947.30000000075,362795.393,362800.6000000015,362812.632,364961.102,8,400,,,
trial,html.Screen,4_121_0,2023-05-01T22:57:40.993Z,,0,3,,2052.0979999992414,response,ISIC_0813423.JPG,,ISIC_6430210.JPG,ISIC_0813423.JPG,false,1,keypress(m),500,367013.5,367013.19999999925,364944.932,364948,364961.102,367027.18,8,400,22,,ISIC_6430210.JPG
break,html.Screen,4_121_1,2023-05-01T22:57:40.995Z,,0,,,NaN,,,,,,false,,,,367015.6000000015,367015.19999999925,,367013.80000000075,,367027.18,8,400,,,
break_continue,html.Screen,4_121_2,2023-05-01T22:57:40.995Z,,0,,,NaN,,,,,,false,,,,367016,367015.80000000075,,367015.69999999925,,367027.18,8,400,,,
sequence,flow.Sequence,4_121,2023-05-01T22:57:40.996Z,,0,,,2054.6980000007316,completion,,,,,false,,,,367016.1000000015,367015.80000000075,364944.932,364948,364961.102,367027.18,8,400,,,
trial,html.Screen,4_122_0,2023-05-01T22:57:43.217Z,,0,3,,2210.120000000752,response,ISIC_9720044.JPG,,ISIC_0033530.JPG,ISIC_9720044.JPG,false,1,keypress(m),500,369237.6000000015,369237.30000000075,367010.704,367016.30000000075,367027.18,369242.567,8,400,23,,ISIC_0033530.JPG
break,html.Screen,4_122_1,2023-05-01T22:57:43.218Z,,0,,,NaN,,,,,,false,,,,369238.80000000075,369238.30000000075,,369237.90000000224,,369242.567,8,400,,,
break_continue,html.Screen,4_122_2,2023-05-01T22:57:43.219Z,,0,,,NaN,,,,,,false,,,,369239.30000000075,369239.1000000015,,369238.90000000224,,369242.567,8,400,,,
sequence,flow.Sequence,4_122,2023-05-01T22:57:43.219Z,,0,,,2211.920000001497,completion,,,,,false,,,,369239.5,369239.1000000015,367010.704,367016.30000000075,367027.18,369242.567,8,400,,,
trial,html.Screen,4_123_0,2023-05-01T22:57:45.262Z,,0,3,,2039.433000000019,response,ISIC_0008774.JPG,,ISIC_5888212.JPG,ISIC_0008774.JPG,false,1,keypress(m),500,371282.19999999925,371282,369226.236,369239.6000000015,369242.567,371294.59,8,400,24,,ISIC_5888212.JPG
break,html.Screen,4_123_1,2023-05-01T22:57:45.263Z,,0,,,NaN,,,,,,false,,,,371284.1000000015,371283.90000000224,,371282.40000000224,,371294.59,8,400,,,
break_continue,html.Screen,4_123_2,2023-05-01T22:57:45.264Z,,0,,,NaN,,,,,,false,,,,371284.40000000224,371284.30000000075,,371284.30000000075,,371294.59,8,400,,,
sequence,flow.Sequence,4_123,2023-05-01T22:57:45.264Z,,0,,,2041.7330000007642,completion,,,,,false,,,,371284.6000000015,371284.30000000075,369226.236,369239.5,369242.567,371294.59,8,400,,,
trial,html.Screen,4_124_0,2023-05-01T22:57:47.320Z,,0,3,,2046.0100000014645,response,ISIC_0046315.JPG,,ISIC_0032759.JPG,ISIC_0046315.JPG,false,1,keypress(m),500,373340.90000000224,373340.6000000015,371275.562,371284.80000000075,371294.59,373357.585,8,400,25,,ISIC_0032759.JPG
break,html.Screen,4_124_1,2023-05-01T22:57:47.321Z,,0,,,NaN,,,,,,false,,,,373341.90000000224,373341.69999999925,,373341.19999999925,,373357.585,8,400,,,
break_continue,html.Screen,4_124_2,2023-05-01T22:57:47.322Z,,0,,,NaN,,,,,,false,,,,373342.40000000224,373342.19999999925,,373342.1000000015,,373357.585,8,400,,,
sequence,flow.Sequence,4_124,2023-05-01T22:57:47.322Z,,0,,,2047.6099999992293,completion,,,,,false,,,,373342.69999999925,373342.19999999925,371275.562,371284.69999999925,371294.59,373357.585,8,400,,,
trial,html.Screen,4_125_0,2023-05-01T22:57:49.340Z,,0,3,,2002.5150000014692,response,ISIC_6227920.JPG,,ISIC_9280171.JPG,ISIC_6227920.JPG,false,1,keypress(m),500,375360.30000000075,375360.1000000015,373341.286,373342.80000000075,373357.585,375373.346,8,400,26,,ISIC_9280171.JPG
