sender,sender_type,sender_id,timestamp,meta,,blockNo,condition,duration,ended_on,img_left,img_reveal,img_right,loser,practice,response,response_action,selection_duration,time_commit,time_end,time_render,time_run,time_show,time_switch,total_blocks,total_trials,trialNo,url,winner
informed_consent,html.Screen,0,2023-09-15T19:58:28.448Z,"{""labjs_version"":""20.2.4"",""labjs_build"":{""flavor"":""production"",""commit"":""f5b4a49f956347addd546a832a3327688c2c0fef""},""location"":""https://run.pavlovia.org/MurrayBennett/melanoma-2afc/?participant=66306&platform=sona"",""userAgent"":""Mozilla/5.0 (X11; CrOS x86_64 14541.0.0) AppleWebKit/537.36 (KHTML, like Gecko) Chrome/116.0.0.0 Safari/537.36"",""platform"":""Linux x86_64"",""language"":""en-US"",""locale"":""en-US"",""timeZone"":""America/Chicago"",""timezoneOffset"":300,""screen_width"":1366,""screen_height"":768,""scroll_width"":1366,""scroll_height"":596,""window_innerWidth"":1366,""window_innerHeight"":644,""devicePixelRatio"":1}",,,,2988.887000008941,response,,,,,,consent,click button,,4687,4678.600000008941,1656.383,1667.5,1689.713,4706.225,,,,"{""participant"":""66306"",""platform"":""sona""}",
Welcome,html.Screen,1,2023-09-15T19:58:29.398Z,,,,colourful,928.9750000029799,response,,,,,,continue,click button,,5636.9000000059605,5635.20000000298,4672.895,4687.79999999702,4706.225,5639.534,,,,,
trial,html.Screen,2_0_0,2023-09-15T19:58:34.761Z,,0,0,,5360.066000008941,response,ISIC_0063388.JPG,,ISIC_0025593.JPG,ISIC_0025593.JPG,true,0,keypress(z),500,10999.90000000596,10999.60000000894,5622.869,5637.20000000298,5639.534,11005.928,1,6,1,,ISIC_0063388.JPG
sequence,flow.Sequence,2_0,2023-09-15T19:58:34.761Z,,0,,,5360.066000008941,completion,,,,,true,,,,11000.20000000298,10999.60000000894,5622.869,5637.100000008941,5639.534,11005.928,1,6,,,
trial,html.Screen,2_1_0,2023-09-15T19:58:40.476Z,,0,0,,5708.77200000298,response,ISIC_1309015.JPG,,ISIC_0028178.JPG,ISIC_0028178.JPG,true,0,keypress(z),500,16715,16714.70000000298,10989.263,11000.40000000596,11005.928,16722.323,1,6,2,,ISIC_1309015.JPG
sequence,flow.Sequence,2_1,2023-09-15T19:58:40.476Z,,0,,,5708.77200000298,completion,,,,,true,,,,16715.20000000298,16714.70000000298,10989.263,11000.40000000596,11005.928,16722.323,1,6,,,
trial,html.Screen,2_2_0,2023-09-15T19:58:44.574Z,,0,0,,4090.7770000089404,response,ISIC_0031128.JPG,,ISIC_3314853.JPG,ISIC_0031128.JPG,true,1,keypress(m),500,20813.5,20813.10000000894,16705.658,16715.60000000894,16722.323,20822.144,1,6,3,,ISIC_3314853.JPG
sequence,flow.Sequence,2_2,2023-09-15T19:58:44.574Z,,0,,,4090.7770000089404,completion,,,,,true,,,,20813.70000000298,20813.10000000894,16705.658,16715.5,16722.323,20822.144,1,6,,,
trial,html.Screen,2_3_0,2023-09-15T19:58:50.081Z,,0,0,,5497.1559999970195,response,ISIC_8980141.JPG,,ISIC_0031612.JPG,ISIC_0031612.JPG,true,0,keypress(z),500,26319.79999999702,26319.29999999702,20805.479,20813.90000000596,20822.144,26321.897,1,6,4,,ISIC_8980141.JPG
sequence,flow.Sequence,2_3,2023-09-15T19:58:50.081Z,,0,,,5497.1559999970195,completion,,,,,true,,,,26320.10000000894,26319.29999999702,20805.479,20813.79999999702,20822.144,26321.897,1,6,,,
trial,html.Screen,2_4_0,2023-09-15T19:58:54.371Z,,0,0,,4287.70300000894,response,ISIC_9721604.JPG,,ISIC_1197737.JPG,ISIC_9721604.JPG,true,1,keypress(m),500,30609.90000000596,30609.60000000894,26305.232,26320.40000000596,26321.897,30621.724,1,6,5,,ISIC_1197737.JPG
sequence,flow.Sequence,2_4,2023-09-15T19:58:54.371Z,,0,,,4287.70300000894,completion,,,,,true,,,,30610.29999999702,30609.60000000894,26305.232,26320.29999999702,26321.897,30621.724,1,6,,,
trial,html.Screen,2_5_0,2023-09-15T19:58:57.998Z,,0,0,,3615.176000005962,response,ISIC_0025346.JPG,,ISIC_0010681.JPG,ISIC_0025346.JPG,true,1,keypress(m),500,34237.29999999702,34236.90000000596,30605.034,30610.5,30621.724,34254.887,1,6,6,,ISIC_0010681.JPG
sequence,flow.Sequence,2_5,2023-09-15T19:58:57.998Z,,0,,,3615.176000005962,completion,,,,,true,,,,34237.70000000298,34236.90000000596,30605.034,30610.40000000596,30621.724,34254.887,1,6,,,
loop,flow.Loop,2,2023-09-15T19:58:57.999Z,,,,,28597.36600000596,completion,,,,,true,,,,34237.90000000596,34236.90000000596,5622.869,5637.100000008941,5639.534,34254.887,1,6,,,
exp_instructions,html.Screen,3,2023-09-15T19:58:59.253Z,,,,,1235.513000005958,response,,,,,,continue,keypress(Space),,35492.10000000894,35490.40000000596,34238.196,34238,34254.887,35504.764,,,,,
trial,html.Screen,4_0_0,2023-09-15T19:59:03.758Z,,0,1,,4492.035999997017,response,ISIC_0011097.JPG,4,ISIC_0054770.JPG,ISIC_0011097.JPG,false,1,keypress(m),500,39997.10000000894,39996.79999999702,35488.099,35492.29999999702,35504.764,40004.587,8,400,1,,ISIC_0054770.JPG
break,html.Screen,4_0_1,2023-09-15T19:59:03.759Z,,0,,,NaN,,,,,,false,,,,39998.10000000894,39997.79999999702,,39997.29999999702,,40004.587,8,400,,,
break_continue,html.Screen,4_0_2,2023-09-15T19:59:03.759Z,,0,,,NaN,,,,,,false,,,,39998.5,39998.40000000596,,39998.20000000298,,40004.587,8,400,,,
sequence,flow.Sequence,4_0,2023-09-15T19:59:03.759Z,,0,,,4493.636000005958,completion,,,,,false,,,,39998.70000000298,39998.40000000596,35488.099,35492.29999999702,35504.764,40004.587,8,400,,,
trial,html.Screen,4_1_0,2023-09-15T19:59:07.150Z,,0,1,,3384.013000008941,response,ISIC_0057420.JPG,4,ISIC_3899323.JPG,ISIC_0057420.JPG,false,1,keypress(m),500,43388.90000000596,43388.60000000894,39987.922,39998.79999999702,40004.587,43404.463,8,400,2,,ISIC_3899323.JPG
break,html.Screen,4_1_1,2023-09-15T19:59:07.151Z,,0,,,NaN,,,,,,false,,,,43390.20000000298,43390,,43389.10000000894,,43404.463,8,400,,,
break_continue,html.Screen,4_1_2,2023-09-15T19:59:07.151Z,,0,,,NaN,,,,,,false,,,,43390.60000000894,43390.40000000596,,43390.29999999702,,43404.463,8,400,,,
sequence,flow.Sequence,4_1,2023-09-15T19:59:07.151Z,,0,,,3385.813000005961,completion,,,,,false,,,,43390.70000000298,43390.40000000596,39987.922,39998.70000000298,40004.587,43404.463,8,400,,,
trial,html.Screen,4_2_0,2023-09-15T19:59:10.982Z,,0,1,,3816.437000005957,response,ISIC_0071132.JPG,4,ISIC_5514594.JPG,ISIC_5514594.JPG,false,0,keypress(z),500,47221.10000000894,47220.90000000596,43387.779,43390.90000000596,43404.463,47237.627,8,400,3,,ISIC_0071132.JPG
break,html.Screen,4_2_1,2023-09-15T19:59:10.983Z,,0,,,NaN,,,,,,false,,,,47222.29999999702,47222,,47221.40000000596,,47237.627,8,400,,,
break_continue,html.Screen,4_2_2,2023-09-15T19:59:10.983Z,,0,,,NaN,,,,,,false,,,,47222.5,47222.5,,47222.29999999702,,47237.627,8,400,,,
sequence,flow.Sequence,4_2,2023-09-15T19:59:10.983Z,,0,,,3818.0369999999966,completion,,,,,false,,,,47222.70000000298,47222.5,43387.779,43390.79999999702,43404.463,47237.627,8,400,,,
trial,html.Screen,4_3_0,2023-09-15T19:59:14.873Z,,0,1,,3874.4730000089403,response,ISIC_5934239.JPG,6,ISIC_7145788.JPG,ISIC_7145788.JPG,false,0,keypress(z),500,51112.5,51112.10000000894,47220.92,47222.79999999702,47237.627,51120.737,8,400,4,,ISIC_5934239.JPG
break,html.Screen,4_3_1,2023-09-15T19:59:14.874Z,,0,,,NaN,,,,,,false,,,,51113.29999999702,51113.10000000894,,51112.60000000894,,51120.737,8,400,,,
break_continue,html.Screen,4_3_2,2023-09-15T19:59:14.874Z,,0,,,NaN,,,,,,false,,,,51113.60000000894,51113.5,,51113.40000000596,,51120.737,8,400,,,
sequence,flow.Sequence,4_3,2023-09-15T19:59:14.874Z,,0,,,3875.8729999999996,completion,,,,,false,,,,51113.79999999702,51113.5,47220.92,47222.70000000298,47237.627,51120.737,8,400,,,
trial,html.Screen,4_4_0,2023-09-15T19:59:18.358Z,,0,1,,3476.1630000059595,response,ISIC_4462773.JPG,5,ISIC_6065301.JPG,ISIC_6065301.JPG,false,0,keypress(z),500,54597.10000000894,54596.90000000596,51104.072,51113.79999999702,51120.737,54603.914,8,400,5,,ISIC_4462773.JPG
break,html.Screen,4_4_1,2023-09-15T19:59:18.359Z,,0,,,NaN,,,,,,false,,,,54598.20000000298,54597.90000000596,,54597.29999999702,,54603.914,8,400,,,
break_continue,html.Screen,4_4_2,2023-09-15T19:59:18.359Z,,0,,,NaN,,,,,,false,,,,54598.5,54598.40000000596,,54598.29999999702,,54603.914,8,400,,,
sequence,flow.Sequence,4_4,2023-09-15T19:59:18.359Z,,0,,,3477.6630000059595,completion,,,,,false,,,,54598.60000000894,54598.40000000596,51104.072,51113.79999999702,51120.737,54603.914,8,400,,,
trial,html.Screen,4_5_0,2023-09-15T19:59:22.457Z,,0,1,,4091.9860000059634,response,ISIC_3777798.JPG,4,ISIC_0025450.JPG,ISIC_3777798.JPG,false,1,keypress(m),500,58696.20000000298,58695.90000000596,54587.249,54598.79999999702,54603.914,58703.738,8,400,6,,ISIC_0025450.JPG
break,html.Screen,4_5_1,2023-09-15T19:59:22.458Z,,0,,,NaN,,,,,,false,,,,58697.29999999702,58697.20000000298,,58696.29999999702,,58703.738,8,400,,,
break_continue,html.Screen,4_5_2,2023-09-15T19:59:22.458Z,,0,,,NaN,,,,,,false,,,,58697.70000000298,58697.60000000894,,58697.40000000596,,58703.738,8,400,,,
sequence,flow.Sequence,4_5,2023-09-15T19:59:22.459Z,,0,,,4093.6860000089437,completion,,,,,false,,,,58697.90000000596,58697.60000000894,54587.249,54598.70000000298,54603.914,58703.738,8,400,,,
trial,html.Screen,4_6_0,2023-09-15T19:59:26.364Z,,0,1,,3899.662000005963,response,ISIC_0027971.JPG,5,ISIC_0067012.JPG,ISIC_0067012.JPG,false,0,keypress(z),500,62603.70000000298,62603.40000000596,58687.073,58698.10000000894,58703.738,62620.236,8,400,7,,ISIC_0027971.JPG
break,html.Screen,4_6_1,2023-09-15T19:59:26.365Z,,0,,,NaN,,,,,,false,,,,62604.40000000596,62604.20000000298,,62603.90000000596,,62620.236,8,400,,,
break_continue,html.Screen,4_6_2,2023-09-15T19:59:26.365Z,,0,,,NaN,,,,,,false,,,,62604.79999999702,62604.60000000894,,62604.5,,62620.236,8,400,,,
sequence,flow.Sequence,4_6,2023-09-15T19:59:26.366Z,,0,,,3900.862000008943,completion,,,,,false,,,,62604.90000000596,62604.60000000894,58687.073,58698.10000000894,58703.738,62620.236,8,400,,,
trial,html.Screen,4_7_0,2023-09-15T19:59:30.758Z,,0,1,,4376.664000005963,response,ISIC_0054134.JPG,5,ISIC_0533930.JPG,ISIC_0533930.JPG,false,0,keypress(z),500,66997.20000000298,66996.90000000596,62603.547,62605,62620.236,67003.339,8,400,8,,ISIC_0054134.JPG
break,html.Screen,4_7_1,2023-09-15T19:59:30.759Z,,0,,,NaN,,,,,,false,,,,66998.29999999702,66998.20000000298,,66997.40000000596,,67003.339,8,400,,,
break_continue,html.Screen,4_7_2,2023-09-15T19:59:30.759Z,,0,,,NaN,,,,,,false,,,,66998.60000000894,66998.5,,66998.5,,67003.339,8,400,,,
sequence,flow.Sequence,4_7,2023-09-15T19:59:30.760Z,,0,,,4378.264000000003,completion,,,,,false,,,,66998.79999999702,66998.5,62603.547,62605,62620.236,67003.339,8,400,,,
trial,html.Screen,4_8_0,2023-09-15T19:59:34.697Z,,0,1,,3932.660999999993,response,ISIC_0028800.JPG,5,ISIC_0058863.JPG,ISIC_0058863.JPG,false,0,keypress(z),500,70936.29999999702,70936,66986.674,66998.90000000596,67003.339,70953.188,8,400,9,,ISIC_0028800.JPG
break,html.Screen,4_8_1,2023-09-15T19:59:34.698Z,,0,,,NaN,,,,,,false,,,,70937.29999999702,70937,,70936.5,,70953.188,8,400,,,
break_continue,html.Screen,4_8_2,2023-09-15T19:59:34.698Z,,0,,,NaN,,,,,,false,,,,70937.60000000894,70937.60000000894,,70937.40000000596,,70953.188,8,400,,,
sequence,flow.Sequence,4_8,2023-09-15T19:59:34.699Z,,0,,,3934.2610000089335,completion,,,,,false,,,,70937.79999999702,70937.60000000894,66986.674,66998.79999999702,67003.339,70953.188,8,400,,,
trial,html.Screen,4_9_0,2023-09-15T19:59:38.700Z,,0,1,,3985.712000005966,response,ISIC_5569091.JPG,5,ISIC_0072976.JPG,ISIC_5569091.JPG,false,1,keypress(m),500,74939.20000000298,74938.90000000596,70936.495,70938,70953.188,74953.006,8,400,10,,ISIC_0072976.JPG
break,html.Screen,4_9_1,2023-09-15T19:59:38.701Z,,0,,,NaN,,,,,,false,,,,74940.40000000596,74940.10000000894,,74939.40000000596,,74953.006,8,400,,,
break_continue,html.Screen,4_9_2,2023-09-15T19:59:38.701Z,,0,,,NaN,,,,,,false,,,,74940.70000000298,74940.5,,74940.40000000596,,74953.006,8,400,,,
sequence,flow.Sequence,4_9,2023-09-15T19:59:38.701Z,,0,,,3987.3120000000054,completion,,,,,false,,,,74940.79999999702,74940.5,70936.495,70937.90000000596,70953.188,74953.006,8,400,,,
trial,html.Screen,4_10_0,2023-09-15T19:59:43.430Z,,0,1,,4715.793999997026,response,ISIC_0032610.JPG,5,ISIC_0058906.JPG,ISIC_0058906.JPG,false,0,keypress(z),500,79669.10000000894,79668.79999999702,74936.31,74940.90000000596,74953.006,79686.13,8,400,11,,ISIC_0032610.JPG
break,html.Screen,4_10_1,2023-09-15T19:59:43.431Z,,0,,,NaN,,,,,,false,,,,79669.90000000596,79669.60000000894,,79669.29999999702,,79686.13,8,400,,,
break_continue,html.Screen,4_10_2,2023-09-15T19:59:43.431Z,,0,,,NaN,,,,,,false,,,,79670.20000000298,79670.10000000894,,79670,,79686.13,8,400,,,
sequence,flow.Sequence,4_10,2023-09-15T19:59:43.431Z,,0,,,4717.094000008947,completion,,,,,false,,,,79670.29999999702,79670.10000000894,74936.31,74940.79999999702,74953.006,79686.13,8,400,,,
trial,html.Screen,4_11_0,2023-09-15T19:59:48.473Z,,0,1,,5025.470000008936,response,ISIC_0031010.JPG,4,ISIC_0033879.JPG,ISIC_0033879.JPG,false,0,keypress(z),500,84711.90000000596,84711.60000000894,79669.426,79670.5,79686.13,84719.19,8,400,12,,ISIC_0031010.JPG
break,html.Screen,4_11_1,2023-09-15T19:59:48.473Z,,0,,,NaN,,,,,,false,,,,84712.60000000894,84712.40000000596,,84712,,84719.19,8,400,,,
break_continue,html.Screen,4_11_2,2023-09-15T19:59:48.474Z,,0,,,NaN,,,,,,false,,,,84712.90000000596,84712.79999999702,,84712.70000000298,,84719.19,8,400,,,
sequence,flow.Sequence,4_11,2023-09-15T19:59:48.474Z,,0,,,5026.669999997015,completion,,,,,false,,,,84713,84712.79999999702,79669.426,79670.40000000596,79686.13,84719.19,8,400,,,
trial,html.Screen,4_12_0,2023-09-15T19:59:52.155Z,,0,1,,3675.3099999999977,response,ISIC_0025744.JPG,5,ISIC_0026611.JPG,ISIC_0026611.JPG,false,0,keypress(z),500,88394.70000000298,88394.5,84702.525,84713.10000000894,84719.19,88402.355,8,400,13,,ISIC_0025744.JPG
break,html.Screen,4_12_1,2023-09-15T19:59:52.157Z,,0,,,NaN,,,,,,false,,,,88395.90000000596,88395.70000000298,,88394.90000000596,,88402.355,8,400,,,
break_continue,html.Screen,4_12_2,2023-09-15T19:59:52.157Z,,0,,,NaN,,,,,,false,,,,88396.20000000298,88396.10000000894,,88395.90000000596,,88402.355,8,400,,,
sequence,flow.Sequence,4_12,2023-09-15T19:59:52.157Z,,0,,,3676.9100000089384,completion,,,,,false,,,,88396.29999999702,88396.10000000894,84702.525,84713.10000000894,84719.19,88402.355,8,400,,,
trial,html.Screen,4_13_0,2023-09-15T19:59:55.926Z,,0,1,,3762.3450000029843,response,ISIC_2054180.JPG,4,ISIC_0010597.JPG,ISIC_2054180.JPG,false,1,keypress(m),500,92164.90000000596,92164.70000000298,88385.69,88396.5,88402.355,92168.851,8,400,14,,ISIC_0010597.JPG
break,html.Screen,4_13_1,2023-09-15T19:59:55.927Z,,0,,,NaN,,,,,,false,,,,92165.79999999702,92165.70000000298,,92165.10000000894,,92168.851,8,400,,,
break_continue,html.Screen,4_13_2,2023-09-15T19:59:55.927Z,,0,,,NaN,,,,,,false,,,,92166.10000000894,92166,,92165.90000000596,,92168.851,8,400,,,
sequence,flow.Sequence,4_13,2023-09-15T19:59:55.927Z,,0,,,3763.645000000004,completion,,,,,false,,,,92166.29999999702,92166,88385.69,88396.40000000596,88402.355,92168.851,8,400,,,
trial,html.Screen,4_14_0,2023-09-15T19:59:58.825Z,,0,1,,2894.849000002985,response,ISIC_0011531.JPG,4,ISIC_0817140.JPG,ISIC_0817140.JPG,false,0,keypress(z),500,95063.90000000596,95063.70000000298,92152.186,92166.40000000596,92168.851,95068.715,8,400,15,,ISIC_0011531.JPG
break,html.Screen,4_14_1,2023-09-15T19:59:58.826Z,,0,,,NaN,,,,,,false,,,,95064.90000000596,95064.5,,95064.10000000894,,95068.715,8,400,,,
break_continue,html.Screen,4_14_2,2023-09-15T19:59:58.826Z,,0,,,NaN,,,,,,false,,,,95065.29999999702,95065.10000000894,,95065,,95068.715,8,400,,,
sequence,flow.Sequence,4_14,2023-09-15T19:59:58.826Z,,0,,,2896.2490000089456,completion,,,,,false,,,,95065.40000000596,95065.10000000894,92152.186,92166.40000000596,92168.851,95068.715,8,400,,,
trial,html.Screen,4_15_0,2023-09-15T20:00:02.172Z,,0,1,,3341.9850000029837,response,ISIC_8278912.JPG,4,ISIC_0026558.JPG,ISIC_8278912.JPG,false,1,keypress(m),500,98411,98410.70000000298,95052.05,95065.5,95068.715,98418.57,8,400,16,,ISIC_0026558.JPG
break,html.Screen,4_15_1,2023-09-15T20:00:02.172Z,,0,,,NaN,,,,,,false,,,,98411.70000000298,98411.60000000894,,98411.10000000894,,98418.57,8,400,,,
break_continue,html.Screen,4_15_2,2023-09-15T20:00:02.173Z,,0,,,NaN,,,,,,false,,,,98412.10000000894,98411.90000000596,,98411.79999999702,,98418.57,8,400,,,
sequence,flow.Sequence,4_15,2023-09-15T20:00:02.173Z,,0,,,3343.185000005964,completion,,,,,false,,,,98412.29999999702,98411.90000000596,95052.05,95065.5,95068.715,98418.57,8,400,,,
trial,html.Screen,4_16_0,2023-09-15T20:00:06.118Z,,0,1,,3938.3300000059535,response,ISIC_0059093.JPG,4,ISIC_0060832.JPG,ISIC_0060832.JPG,false,0,keypress(z),500,102357.20000000298,102356.90000000596,98401.905,98412.40000000596,98418.57,102368.412,8,400,17,,ISIC_0059093.JPG
break,html.Screen,4_16_1,2023-09-15T20:00:06.119Z,,0,,,NaN,,,,,,false,,,,102358.20000000298,102358,,102357.40000000596,,102368.412,8,400,,,
break_continue,html.Screen,4_16_2,2023-09-15T20:00:06.119Z,,0,,,NaN,,,,,,false,,,,102358.60000000894,102358.40000000596,,102358.29999999702,,102368.412,8,400,,,
sequence,flow.Sequence,4_16,2023-09-15T20:00:06.119Z,,0,,,3939.8300000059535,completion,,,,,false,,,,102358.60000000894,102358.40000000596,98401.905,98412.40000000596,98418.57,102368.412,8,400,,,
trial,html.Screen,4_17_0,2023-09-15T20:00:10.158Z,,0,1,,4028.387999997023,response,ISIC_6162308.JPG,5,ISIC_1795529.JPG,ISIC_6162308.JPG,false,1,keypress(m),500,106397.10000000894,106396.79999999702,102351.723,102358.79999999702,102368.412,106401.527,8,400,18,,ISIC_1795529.JPG
break,html.Screen,4_17_1,2023-09-15T20:00:10.159Z,,0,,,NaN,,,,,,false,,,,106398,106397.70000000298,,106397.40000000596,,106401.527,8,400,,,
break_continue,html.Screen,4_17_2,2023-09-15T20:00:10.159Z,,0,,,NaN,,,,,,false,,,,106398.40000000596,106398.10000000894,,106398.10000000894,,106401.527,8,400,,,
sequence,flow.Sequence,4_17,2023-09-15T20:00:10.159Z,,0,,,4029.688000008944,completion,,,,,false,,,,106398.5,106398.10000000894,102351.723,102358.70000000298,102368.412,106401.527,8,400,,,
trial,html.Screen,4_18_0,2023-09-15T20:00:13.553Z,,0,1,,3390.073000008939,response,ISIC_0024512.JPG,4,ISIC_0072604.JPG,ISIC_0072604.JPG,false,0,keypress(z),500,109791.90000000596,109791.60000000894,106384.862,106398.60000000894,106401.527,109801.37,8,400,19,,ISIC_0024512.JPG
break,html.Screen,4_18_1,2023-09-15T20:00:13.553Z,,0,,,NaN,,,,,,false,,,,109792.70000000298,109792.5,,109792.10000000894,,109801.37,8,400,,,
break_continue,html.Screen,4_18_2,2023-09-15T20:00:13.554Z,,0,,,NaN,,,,,,false,,,,109793.10000000894,109792.90000000596,,109792.79999999702,,109801.37,8,400,,,
sequence,flow.Sequence,4_18,2023-09-15T20:00:13.554Z,,0,,,3391.3730000059586,completion,,,,,false,,,,109793.20000000298,109792.90000000596,106384.862,106398.5,106401.527,109801.37,8,400,,,
trial,html.Screen,4_19_0,2023-09-15T20:00:17.428Z,,0,1,,3865.2300000089454,response,ISIC_0222117.JPG,4,ISIC_9024724.JPG,ISIC_9024724.JPG,false,0,keypress(z),500,113666.90000000596,113666.60000000894,109784.705,109793.29999999702,109801.37,113667.856,8,400,20,,ISIC_0222117.JPG
break,html.Screen,4_19_1,2023-09-15T20:00:17.429Z,,0,,,NaN,,,,,,false,,,,113667.79999999702,113667.5,,113667,,113667.856,8,400,,,
break_continue,html.Screen,4_19_2,2023-09-15T20:00:17.429Z,,0,,,NaN,,,,,,false,,,,113668.20000000298,113668,,113667.90000000596,,113667.856,8,400,,,
sequence,flow.Sequence,4_19,2023-09-15T20:00:17.435Z,,0,,,3866.6300000000047,completion,,,,,false,,,,113674.60000000894,113668,109784.705,109793.29999999702,109801.37,113667.856,8,400,,,
trial,html.Screen,4_20_0,2023-09-15T20:00:20.678Z,,0,1,,3248.94399999702,response,ISIC_9422630.JPG,5,ISIC_1453146.JPG,ISIC_1453146.JPG,false,0,keypress(z),500,116917.10000000894,116916.79999999702,113651.191,113674.90000000596,113667.856,116934.409,8,400,21,,ISIC_9422630.JPG
break,html.Screen,4_20_1,2023-09-15T20:00:20.679Z,,0,,,NaN,,,,,,false,,,,116918,116917.70000000298,,116917.40000000596,,116934.409,8,400,,,
break_continue,html.Screen,4_20_2,2023-09-15T20:00:20.679Z,,0,,,NaN,,,,,,false,,,,116918.40000000596,116918.29999999702,,116918.10000000894,,116934.409,8,400,,,
sequence,flow.Sequence,4_20,2023-09-15T20:00:20.679Z,,0,,,3250.44399999702,completion,,,,,false,,,,116918.60000000894,116918.29999999702,113651.191,113674.90000000596,113667.856,116934.409,8,400,,,
trial,html.Screen,4_21_0,2023-09-15T20:00:25.353Z,,0,1,,4657.491000005961,response,ISIC_0027561.JPG,4,ISIC_2268341.JPG,ISIC_2268341.JPG,false,0,keypress(z),500,121592.10000000894,121591.90000000596,116917.716,116918.70000000298,116934.409,121600.818,8,400,22,,ISIC_0027561.JPG
break,html.Screen,4_21_1,2023-09-15T20:00:25.354Z,,0,,,NaN,,,,,,false,,,,121593.20000000298,121593,,121592.29999999702,,121600.818,8,400,,,
break_continue,html.Screen,4_21_2,2023-09-15T20:00:25.354Z,,0,,,NaN,,,,,,false,,,,121593.5,121593.40000000596,,121593.40000000596,,121600.818,8,400,,,
sequence,flow.Sequence,4_21,2023-09-15T20:00:25.354Z,,0,,,4658.991000005961,completion,,,,,false,,,,121593.70000000298,121593.40000000596,116917.716,116918.70000000298,116934.409,121600.818,8,400,,,
trial,html.Screen,4_22_0,2023-09-15T20:00:28.694Z,,0,1,,3331.7820000089414,response,ISIC_0024951.JPG,5,ISIC_0000394.JPG,ISIC_0000394.JPG,false,0,keypress(z),500,124932.90000000596,124932.60000000894,121584.153,121593.79999999702,121600.818,124934.009,8,400,23,,ISIC_0024951.JPG
break,html.Screen,4_22_1,2023-09-15T20:00:28.695Z,,0,,,NaN,,,,,,false,,,,124934.5,124934.10000000894,,124933.10000000894,,124934.009,8,400,,,
break_continue,html.Screen,4_22_2,2023-09-15T20:00:28.695Z,,0,,,NaN,,,,,,false,,,,124934.79999999702,124934.60000000894,,124934.60000000894,,124934.009,8,400,,,
sequence,flow.Sequence,4_22,2023-09-15T20:00:28.696Z,,0,,,3333.7820000089414,completion,,,,,false,,,,124935,124934.60000000894,121584.153,121593.70000000298,121600.818,124934.009,8,400,,,
trial,html.Screen,4_23_0,2023-09-15T20:00:31.897Z,,0,1,,3202.1910000029748,response,ISIC_1794249.JPG,5,ISIC_0056466.JPG,ISIC_1794249.JPG,false,1,keypress(m),500,128136.5,128136.20000000298,124917.344,124935.10000000894,124934.009,128150.552,8,400,24,,ISIC_0056466.JPG
break,html.Screen,4_23_1,2023-09-15T20:00:31.898Z,,0,,,NaN,,,,,,false,,,,128137.60000000894,128137.40000000596,,128136.70000000298,,128150.552,8,400,,,
break_continue,html.Screen,4_23_2,2023-09-15T20:00:31.899Z,,0,,,NaN,,,,,,false,,,,128137.90000000596,128137.70000000298,,128137.70000000298,,128150.552,8,400,,,
sequence,flow.Sequence,4_23,2023-09-15T20:00:31.899Z,,0,,,3203.6910000029748,completion,,,,,false,,,,128138,128137.70000000298,124917.344,124935.10000000894,124934.009,128150.552,8,400,,,
trial,html.Screen,4_24_0,2023-09-15T20:00:36.566Z,,0,1,,4654.247999997024,response,ISIC_0031013.JPG,5,ISIC_0006672.JPG,ISIC_0006672.JPG,false,0,keypress(z),500,132805.10000000894,132804.79999999702,128133.851,128138.20000000298,128150.552,132816.963,8,400,25,,ISIC_0031013.JPG
break,html.Screen,4_24_1,2023-09-15T20:00:36.567Z,,0,,,NaN,,,,,,false,,,,132806.29999999702,132805.90000000596,,132805.5,,132816.963,8,400,,,
break_continue,html.Screen,4_24_2,2023-09-15T20:00:36.567Z,,0,,,NaN,,,,,,false,,,,132806.5,132806.5,,132806.40000000596,,132816.963,8,400,,,
sequence,flow.Sequence,4_24,2023-09-15T20:00:36.567Z,,0,,,4655.948000000004,completion,,,,,false,,,,132806.79999999702,132806.5,128133.851,128138.10000000894,128150.552,132816.963,8,400,,,
trial,html.Screen,4_25_0,2023-09-15T20:00:41.881Z,,0,1,,5302.937000005972,response,ISIC_0073102.JPG,5,ISIC_6157226.JPG,ISIC_0073102.JPG,false,1,keypress(m),500,138120.29999999702,138119.90000000596,132800.298,132806.79999999702,132816.963,138150.086,8,400,26,,ISIC_6157226.JPG
break,html.Screen,4_25_1,2023-09-15T20:00:41.882Z,,0,,,NaN,,,,,,false,,,,138120.90000000596,138120.79999999702,,138120.5,,138150.086,8,400,,,
break_continue,html.Screen,4_25_2,2023-09-15T20:00:41.882Z,,0,,,NaN,,,,,,false,,,,138121.29999999702,138121.10000000894,,138121.10000000894,,138150.086,8,400,,,
sequence,flow.Sequence,4_25,2023-09-15T20:00:41.882Z,,0,,,5304.137000008952,completion,,,,,false,,,,138121.40000000596,138121.10000000894,132800.298,132806.79999999702,132816.963,138150.086,8,400,,,
trial,html.Screen,4_26_0,2023-09-15T20:00:46.646Z,,0,1,,4734.7139999970095,response,ISIC_0062463.JPG,4,ISIC_9808863.JPG,ISIC_9808863.JPG,false,0,keypress(z),500,142885.10000000894,142884.79999999702,138133.402,138121.5,138150.086,142899.871,8,400,27,,ISIC_0062463.JPG
break,html.Screen,4_26_1,2023-09-15T20:00:46.647Z,,0,,,NaN,,,,,,false,,,,142886.40000000596,142886.20000000298,,142885.40000000596,,142899.871,8,400,,,
break_continue,html.Screen,4_26_2,2023-09-15T20:00:46.647Z,,0,,,NaN,,,,,,false,,,,142886.70000000298,142886.60000000894,,142886.40000000596,,142899.871,8,400,,,
sequence,flow.Sequence,4_26,2023-09-15T20:00:46.648Z,,0,,,4736.51400000893,completion,,,,,false,,,,142886.79999999702,142886.60000000894,138133.402,138121.5,138150.086,142899.871,8,400,,,
trial,html.Screen,4_27_0,2023-09-15T20:00:52.441Z,,0,1,,5780.128999999986,response,ISIC_0028618.JPG,5,ISIC_3236964.JPG,ISIC_3236964.JPG,false,0,keypress(z),500,148680.40000000596,148680,142883.17,142886.90000000596,142899.871,148682.914,8,400,28,,ISIC_0028618.JPG
break,html.Screen,4_27_1,2023-09-15T20:00:52.442Z,,0,,,NaN,,,,,,false,,,,148681,148680.90000000596,,148680.60000000894,,148682.914,8,400,,,
break_continue,html.Screen,4_27_2,2023-09-15T20:00:52.442Z,,0,,,NaN,,,,,,false,,,,148681.40000000596,148681.29999999702,,148681.20000000298,,148682.914,8,400,,,
sequence,flow.Sequence,4_27,2023-09-15T20:00:52.442Z,,0,,,5781.428999997006,completion,,,,,false,,,,148681.60000000894,148681.29999999702,142883.17,142886.90000000596,142899.871,148682.914,8,400,,,
trial,html.Screen,4_28_0,2023-09-15T20:00:58.060Z,,0,1,,5615.88599999703,response,ISIC_9688119.JPG,4,ISIC_3397377.JPG,ISIC_3397377.JPG,false,0,keypress(z),500,154299,154298.79999999702,148666.249,148681.70000000298,148682.914,154315.975,8,400,29,,ISIC_9688119.JPG
break,html.Screen,4_28_1,2023-09-15T20:00:58.061Z,,0,,,NaN,,,,,,false,,,,154300.29999999702,154300.10000000894,,154299.29999999702,,154315.975,8,400,,,
break_continue,html.Screen,4_28_2,2023-09-15T20:00:58.061Z,,0,,,NaN,,,,,,false,,,,154300.60000000894,154300.5,,154300.40000000596,,154315.975,8,400,,,
sequence,flow.Sequence,4_28,2023-09-15T20:00:58.061Z,,0,,,5617.58600000001,completion,,,,,false,,,,154300.79999999702,154300.5,148666.249,148681.70000000298,148682.914,154315.975,8,400,,,
trial,html.Screen,4_29_0,2023-09-15T20:01:02.383Z,,0,1,,4306.024999999994,response,ISIC_0024244.JPG,4,ISIC_3922580.JPG,ISIC_0024244.JPG,false,1,keypress(m),500,158622.29999999702,158622,154299.31,154300.79999999702,154315.975,158649.135,8,400,30,,ISIC_3922580.JPG
break,html.Screen,4_29_1,2023-09-15T20:01:02.384Z,,0,,,NaN,,,,,,false,,,,158623,158622.79999999702,,158622.5,,158649.135,8,400,,,
break_continue,html.Screen,4_29_2,2023-09-15T20:01:02.384Z,,0,,,NaN,,,,,,false,,,,158623.29999999702,158623.20000000298,,158623,,158649.135,8,400,,,
sequence,flow.Sequence,4_29,2023-09-15T20:01:02.384Z,,0,,,4307.225000002974,completion,,,,,false,,,,158623.40000000596,158623.20000000298,154299.31,154300.79999999702,154315.975,158649.135,8,400,,,
trial,html.Screen,4_30_0,2023-09-15T20:01:07.266Z,,0,1,,4855.364999999991,response,ISIC_8521610.JPG,4,ISIC_0072991.JPG,ISIC_0072991.JPG,false,0,keypress(z),500,163504.90000000596,163504.5,158632.456,158623.60000000894,158649.135,163515.566,8,400,31,,ISIC_8521610.JPG
break,html.Screen,4_30_1,2023-09-15T20:01:07.267Z,,0,,,NaN,,,,,,false,,,,163505.90000000596,163505.5,,163505,,163515.566,8,400,,,
break_continue,html.Screen,4_30_2,2023-09-15T20:01:07.267Z,,0,,,NaN,,,,,,false,,,,163506.10000000894,163506.10000000894,,163506,,163515.566,8,400,,,
sequence,flow.Sequence,4_30,2023-09-15T20:01:07.267Z,,0,,,4856.965000008931,completion,,,,,false,,,,163506.29999999702,163506.10000000894,158632.456,158623.5,158649.135,163515.566,8,400,,,
trial,html.Screen,4_31_0,2023-09-15T20:01:11.909Z,,0,1,,4632.034000008949,response,ISIC_4252887.JPG,4,ISIC_0057661.JPG,ISIC_0057661.JPG,false,0,keypress(z),500,168148,168147.60000000894,163498.901,163506.5,163515.566,168148.676,8,400,32,,ISIC_4252887.JPG
break,html.Screen,4_31_1,2023-09-15T20:01:11.910Z,,0,,,NaN,,,,,,false,,,,168149.20000000298,168149,,168148.10000000894,,168148.676,8,400,,,
break_continue,html.Screen,4_31_2,2023-09-15T20:01:11.910Z,,0,,,NaN,,,,,,false,,,,168149.5,168149.40000000596,,168149.29999999702,,168148.676,8,400,,,
sequence,flow.Sequence,4_31,2023-09-15T20:01:11.910Z,,0,,,4633.834000005969,completion,,,,,false,,,,168149.70000000298,168149.40000000596,163498.901,163506.5,163515.566,168148.676,8,400,,,
trial,html.Screen,4_32_0,2023-09-15T20:01:16.472Z,,0,1,,4562.123999997013,response,ISIC_0033738.JPG,4,ISIC_6882733.JPG,ISIC_6882733.JPG,false,0,keypress(z),500,172711,172710.79999999702,168132.011,168149.79999999702,168148.676,172715.136,8,400,33,,ISIC_0033738.JPG
break,html.Screen,4_32_1,2023-09-15T20:01:16.474Z,,0,,,NaN,,,,,,false,,,,172713.10000000894,172713,,172712.20000000298,,172715.136,8,400,,,
break_continue,html.Screen,4_32_2,2023-09-15T20:01:16.474Z,,0,,,NaN,,,,,,false,,,,172713.60000000894,172713.40000000596,,172713.29999999702,,172715.136,8,400,,,
sequence,flow.Sequence,4_32,2023-09-15T20:01:16.474Z,,0,,,4564.724000005954,completion,,,,,false,,,,172713.60000000894,172713.40000000596,168132.011,168149.70000000298,168148.676,172715.136,8,400,,,
trial,html.Screen,4_33_0,2023-09-15T20:01:20.156Z,,0,1,,3679.8640000000014,response,ISIC_9223156.JPG,5,ISIC_1843053.JPG,ISIC_1843053.JPG,false,0,keypress(z),500,176395.40000000596,176395,172698.471,172713.79999999702,172715.136,176398.301,8,400,34,,ISIC_9223156.JPG
break,html.Screen,4_33_1,2023-09-15T20:01:20.157Z,,0,,,NaN,,,,,,false,,,,176396.10000000894,176396,,176395.5,,176398.301,8,400,,,
break_continue,html.Screen,4_33_2,2023-09-15T20:01:20.157Z,,0,,,NaN,,,,,,false,,,,176396.5,176396.40000000596,,176396.20000000298,,176398.301,8,400,,,
sequence,flow.Sequence,4_33,2023-09-15T20:01:20.157Z,,0,,,3681.264000005962,completion,,,,,false,,,,176396.70000000298,176396.40000000596,172698.471,172713.70000000298,172715.136,176398.301,8,400,,,
trial,html.Screen,4_34_0,2023-09-15T20:01:23.254Z,,0,1,,3094.498999997013,response,ISIC_6366417.JPG,4,ISIC_0000295.JPG,ISIC_6366417.JPG,false,1,keypress(m),500,179493.20000000298,179492.79999999702,176381.636,176396.79999999702,176398.301,179498.143,8,400,35,,ISIC_0000295.JPG
break,html.Screen,4_34_1,2023-09-15T20:01:23.255Z,,0,,,NaN,,,,,,false,,,,179494.10000000894,179494,,179493.40000000596,,179498.143,8,400,,,
break_continue,html.Screen,4_34_2,2023-09-15T20:01:23.255Z,,0,,,NaN,,,,,,false,,,,179494.5,179494.40000000596,,179494.40000000596,,179498.143,8,400,,,
sequence,flow.Sequence,4_34,2023-09-15T20:01:23.255Z,,0,,,3096.0990000059537,completion,,,,,false,,,,179494.70000000298,179494.40000000596,176381.636,176396.79999999702,176398.301,179498.143,8,400,,,
trial,html.Screen,4_35_0,2023-09-15T20:01:26.710Z,,0,1,,3450.4570000089298,response,ISIC_3464344.JPG,4,ISIC_0821520.JPG,ISIC_0821520.JPG,false,0,keypress(z),500,182948.90000000596,182948.60000000894,179481.478,179494.79999999702,179498.143,182964.68,8,400,36,,ISIC_3464344.JPG
break,html.Screen,4_35_1,2023-09-15T20:01:26.710Z,,0,,,NaN,,,,,,false,,,,182949.79999999702,182949.60000000894,,182949.10000000894,,182964.68,8,400,,,
break_continue,html.Screen,4_35_2,2023-09-15T20:01:26.711Z,,0,,,NaN,,,,,,false,,,,182950.40000000596,182950.29999999702,,182950.10000000894,,182964.68,8,400,,,
sequence,flow.Sequence,4_35,2023-09-15T20:01:26.711Z,,0,,,3452.156999997009,completion,,,,,false,,,,182950.5,182950.29999999702,179481.478,179494.70000000298,179498.143,182964.68,8,400,,,
trial,html.Screen,4_36_0,2023-09-15T20:01:30.366Z,,0,1,,3640.2200000059674,response,ISIC_6697332.JPG,4,ISIC_6767038.JPG,ISIC_6767038.JPG,false,0,keypress(z),500,186605.10000000894,186604.90000000596,182947.991,182950.70000000298,182964.68,186631.188,8,400,37,,ISIC_6697332.JPG
break,html.Screen,4_36_1,2023-09-15T20:01:30.376Z,,0,,,NaN,,,,,,false,,,,186615.29999999702,186615,,186614.5,,186631.188,8,400,,,
break_continue,html.Screen,4_36_2,2023-09-15T20:01:30.376Z,,0,,,NaN,,,,,,false,,,,186615.70000000298,186615.60000000894,,186615.5,,186631.188,8,400,,,
sequence,flow.Sequence,4_36,2023-09-15T20:01:30.377Z,,0,,,3650.9200000089477,completion,,,,,false,,,,186615.79999999702,186615.60000000894,182947.991,182950.60000000894,182964.68,186631.188,8,400,,,
trial,html.Screen,4_37_0,2023-09-15T20:01:33.126Z,,0,1,,2733.5120000029856,response,ISIC_0063234.JPG,4,ISIC_3300710.JPG,ISIC_3300710.JPG,false,0,keypress(z),500,189365.10000000894,189364.70000000298,186614.497,186616.10000000894,186631.188,189381.052,8,400,38,,ISIC_0063234.JPG
break,html.Screen,4_37_1,2023-09-15T20:01:33.127Z,,0,,,NaN,,,,,,false,,,,189365.79999999702,189365.60000000894,,189365.29999999702,,189381.052,8,400,,,
break_continue,html.Screen,4_37_2,2023-09-15T20:01:33.127Z,,0,,,NaN,,,,,,false,,,,189366.10000000894,189366,,189365.90000000596,,189381.052,8,400,,,
sequence,flow.Sequence,4_37,2023-09-15T20:01:33.127Z,,0,,,2734.8120000000054,completion,,,,,false,,,,189366.29999999702,189366,186614.497,186615.90000000596,186631.188,189381.052,8,400,,,
trial,html.Screen,4_38_0,2023-09-15T20:01:36.553Z,,0,1,,3410.8480000059644,response,ISIC_0027069.JPG,4,ISIC_0000420.JPG,ISIC_0000420.JPG,false,0,keypress(z),500,192792.20000000298,192791.90000000596,189364.37,189366.40000000596,189381.052,192797.544,8,400,39,,ISIC_0027069.JPG
break,html.Screen,4_38_1,2023-09-15T20:01:36.554Z,,0,,,NaN,,,,,,false,,,,192793,192792.79999999702,,192792.40000000596,,192797.544,8,400,,,
break_continue,html.Screen,4_38_2,2023-09-15T20:01:36.554Z,,0,,,NaN,,,,,,false,,,,192793.29999999702,192793.20000000298,,192793,,192797.544,8,400,,,
sequence,flow.Sequence,4_38,2023-09-15T20:01:36.554Z,,0,,,3412.148000002984,completion,,,,,false,,,,192793.40000000596,192793.20000000298,189364.37,189366.40000000596,189381.052,192797.544,8,400,,,
trial,html.Screen,4_39_0,2023-09-15T20:01:40.060Z,,0,1,,3501.356000005966,response,ISIC_4350093.JPG,4,ISIC_0034253.JPG,ISIC_4350093.JPG,false,1,keypress(m),500,196299.20000000298,196298.90000000596,192780.879,192793.60000000894,192797.544,196314.065,8,400,40,,ISIC_0034253.JPG
break,html.Screen,4_39_1,2023-09-15T20:01:40.061Z,,0,,,NaN,,,,,,false,,,,196300.20000000298,196299.90000000596,,196299.40000000596,,196314.065,8,400,,,
break_continue,html.Screen,4_39_2,2023-09-15T20:01:40.061Z,,0,,,NaN,,,,,,false,,,,196300.60000000894,196300.40000000596,,196300.29999999702,,196314.065,8,400,,,
sequence,flow.Sequence,4_39,2023-09-15T20:01:40.061Z,,0,,,3502.856000005966,completion,,,,,false,,,,196300.70000000298,196300.40000000596,192780.879,192793.5,192797.544,196314.065,8,400,,,
trial,html.Screen,4_40_0,2023-09-15T20:01:43.894Z,,0,1,,3818.835000005958,response,ISIC_9473492.JPG,4,ISIC_0029982.JPG,ISIC_9473492.JPG,false,1,keypress(m),500,200133.10000000894,200132.90000000596,196297.372,196300.79999999702,196314.065,200147.221,8,400,41,,ISIC_0029982.JPG
break,html.Screen,4_40_1,2023-09-15T20:01:43.895Z,,0,,,NaN,,,,,,false,,,,200134,200133.90000000596,,200133.29999999702,,200147.221,8,400,,,
break_continue,html.Screen,4_40_2,2023-09-15T20:01:43.895Z,,0,,,NaN,,,,,,false,,,,200134.29999999702,200134.20000000298,,200134.10000000894,,200147.221,8,400,,,
sequence,flow.Sequence,4_40,2023-09-15T20:01:43.895Z,,0,,,3820.135000002978,completion,,,,,false,,,,200134.5,200134.20000000298,196297.372,196300.79999999702,196314.065,200147.221,8,400,,,
trial,html.Screen,4_41_0,2023-09-15T20:01:47.230Z,,0,1,,3321.2790000000095,response,ISIC_7503950.JPG,4,ISIC_2241755.JPG,ISIC_2241755.JPG,false,0,keypress(z),500,203469.10000000894,203468.5,200130.529,200134.60000000894,200147.221,203480.388,8,400,42,,ISIC_7503950.JPG
break,html.Screen,4_41_1,2023-09-15T20:01:47.231Z,,0,,,NaN,,,,,,false,,,,203470,203469.70000000298,,203469.29999999702,,203480.388,8,400,,,
break_continue,html.Screen,4_41_2,2023-09-15T20:01:47.231Z,,0,,,NaN,,,,,,false,,,,203470.40000000596,203470.29999999702,,203470.10000000894,,203480.388,8,400,,,
sequence,flow.Sequence,4_41,2023-09-15T20:01:47.231Z,,0,,,3323.0789999970293,completion,,,,,false,,,,203470.60000000894,203470.29999999702,200130.529,200134.5,200147.221,203480.388,8,400,,,
trial,html.Screen,4_42_0,2023-09-15T20:01:50.370Z,,0,1,,3128.4119999970135,response,ISIC_0000171.JPG,4,ISIC_0067723.JPG,ISIC_0067723.JPG,false,0,keypress(z),500,206609.20000000298,206608.79999999702,203463.723,203470.70000000298,203480.388,206613.56,8,400,43,,ISIC_0000171.JPG
break,html.Screen,4_42_1,2023-09-15T20:01:50.371Z,,0,,,NaN,,,,,,false,,,,206610.29999999702,206610.10000000894,,206609.29999999702,,206613.56,8,400,,,
break_continue,html.Screen,4_42_2,2023-09-15T20:01:50.371Z,,0,,,NaN,,,,,,false,,,,206610.60000000894,206610.60000000894,,206610.5,,206613.56,8,400,,,
sequence,flow.Sequence,4_42,2023-09-15T20:01:50.371Z,,0,,,3130.2120000089344,completion,,,,,false,,,,206610.70000000298,206610.60000000894,203463.723,203470.70000000298,203480.388,206613.56,8,400,,,
trial,html.Screen,4_43_0,2023-09-15T20:01:53.534Z,,0,1,,3159.4400000000023,response,ISIC_8659639.JPG,5,ISIC_9257356.JPG,ISIC_9257356.JPG,false,0,keypress(z),500,209773.29999999702,209773,206596.895,206610.90000000596,206613.56,209780.09,8,400,44,,ISIC_8659639.JPG
break,html.Screen,4_43_1,2023-09-15T20:01:53.535Z,,0,,,NaN,,,,,,false,,,,209774.20000000298,209774,,209773.5,,209780.09,8,400,,,
break_continue,html.Screen,4_43_2,2023-09-15T20:01:53.535Z,,0,,,NaN,,,,,,false,,,,209774.5,209774.40000000596,,209774.29999999702,,209780.09,8,400,,,
sequence,flow.Sequence,4_43,2023-09-15T20:01:53.535Z,,0,,,3160.840000005963,completion,,,,,false,,,,209774.70000000298,209774.40000000596,206596.895,206610.90000000596,206613.56,209780.09,8,400,,,
trial,html.Screen,4_44_0,2023-09-15T20:01:57.217Z,,0,1,,3676.1100000029837,response,ISIC_5247508.JPG,5,ISIC_0071651.JPG,ISIC_5247508.JPG,false,1,keypress(m),500,213456.5,213456.20000000298,209763.425,209774.79999999702,209780.09,213479.949,8,400,45,,ISIC_0071651.JPG
break,html.Screen,4_44_1,2023-09-15T20:01:57.218Z,,0,,,NaN,,,,,,false,,,,213457.20000000298,213457,,213456.60000000894,,213479.949,8,400,,,
break_continue,html.Screen,4_44_2,2023-09-15T20:01:57.218Z,,0,,,NaN,,,,,,false,,,,213457.5,213457.5,,213457.29999999702,,213479.949,8,400,,,
sequence,flow.Sequence,4_44,2023-09-15T20:01:57.218Z,,0,,,3677.4100000000035,completion,,,,,false,,,,213457.70000000298,213457.5,209763.425,209774.79999999702,209780.09,213479.949,8,400,,,
trial,html.Screen,4_45_0,2023-09-15T20:02:00.686Z,,0,1,,3444.8509999970265,response,ISIC_1039970.JPG,4,ISIC_5017874.JPG,ISIC_1039970.JPG,false,1,keypress(m),500,216925.10000000894,216924.79999999702,213463.246,213457.79999999702,213479.949,216929.747,8,400,46,,ISIC_5017874.JPG
break,html.Screen,4_45_1,2023-09-15T20:02:00.687Z,,0,,,NaN,,,,,,false,,,,216926.29999999702,216926.10000000894,,216925.29999999702,,216929.747,8,400,,,
break_continue,html.Screen,4_45_2,2023-09-15T20:02:00.687Z,,0,,,NaN,,,,,,false,,,,216926.60000000894,216926.5,,216926.40000000596,,216929.747,8,400,,,
sequence,flow.Sequence,4_45,2023-09-15T20:02:00.687Z,,0,,,3446.5510000000068,completion,,,,,false,,,,216926.79999999702,216926.5,213463.246,213457.70000000298,213479.949,216929.747,8,400,,,
trial,html.Screen,4_46_0,2023-09-15T20:02:05.473Z,,0,1,,4782.353000008938,response,ISIC_7499769.JPG,5,ISIC_0011987.JPG,ISIC_7499769.JPG,false,1,keypress(m),500,221712.5,221712.10000000894,216913.082,216926.90000000596,216929.747,221729.572,8,400,47,,ISIC_0011987.JPG
break,html.Screen,4_46_1,2023-09-15T20:02:05.474Z,,0,,,NaN,,,,,,false,,,,221713.29999999702,221713.20000000298,,221712.70000000298,,221729.572,8,400,,,
break_continue,html.Screen,4_46_2,2023-09-15T20:02:05.474Z,,0,,,NaN,,,,,,false,,,,221713.70000000298,221713.60000000894,,221713.5,,221729.572,8,400,,,
sequence,flow.Sequence,4_46,2023-09-15T20:02:05.475Z,,0,,,4783.853000008938,completion,,,,,false,,,,221713.79999999702,221713.60000000894,216913.082,216926.79999999702,216929.747,221729.572,8,400,,,
trial,html.Screen,4_47_0,2023-09-15T20:02:09.620Z,,0,1,,4129.428000000014,response,ISIC_0071586.JPG,5,ISIC_0055781.JPG,ISIC_0055781.JPG,false,0,keypress(z),500,225859.20000000298,225859,221712.866,221713.90000000596,221729.572,225862.679,8,400,48,,ISIC_0071586.JPG
break,html.Screen,4_47_1,2023-09-15T20:02:09.621Z,,0,,,NaN,,,,,,false,,,,225860.20000000298,225860,,225859.40000000596,,225862.679,8,400,,,
break_continue,html.Screen,4_47_2,2023-09-15T20:02:09.621Z,,0,,,NaN,,,,,,false,,,,225860.60000000894,225860.40000000596,,225860.40000000596,,225862.679,8,400,,,
sequence,flow.Sequence,4_47,2023-09-15T20:02:09.622Z,,0,,,4130.828000005975,completion,,,,,false,,,,225861,225860.40000000596,221712.866,221713.90000000596,221729.572,225862.679,8,400,,,
trial,html.Screen,4_48_0,2023-09-15T20:02:13.111Z,,0,1,,3487.3209999999963,response,ISIC_0027956.JPG,5,ISIC_0068259.JPG,ISIC_0068259.JPG,false,0,keypress(z),500,229350.40000000596,229350,225846.014,225861,225862.679,229362.55,8,400,49,,ISIC_0027956.JPG
break,html.Screen,4_48_1,2023-09-15T20:02:13.112Z,,0,,,NaN,,,,,,false,,,,229351.40000000596,229351.10000000894,,229350.5,,229362.55,8,400,,,
break_continue,html.Screen,4_48_2,2023-09-15T20:02:13.112Z,,0,,,NaN,,,,,,false,,,,229351.60000000894,229351.60000000894,,229351.40000000596,,229362.55,8,400,,,
sequence,flow.Sequence,4_48,2023-09-15T20:02:13.113Z,,0,,,3488.921000008937,completion,,,,,false,,,,229351.79999999702,229351.60000000894,225846.014,225861,225862.679,229362.55,8,400,,,
trial,html.Screen,4_49_0,2023-09-15T20:02:16.234Z,,0,1,,3110.4500000000116,response,ISIC_0032960.JPG,5,ISIC_5223096.JPG,ISIC_5223096.JPG,false,0,keypress(z),500,232473.29999999702,232473,229345.848,229351.90000000596,229362.55,232479.043,8,400,50,,ISIC_0032960.JPG
break,html.Screen,4_49_1,2023-09-15T20:02:26.224Z,,0,,,9999.562000000005,timeout,,,,,false,,,,242462.90000000596,242461.94,232462.378,232473.5,232479.043,242478.605,8,400,,,
break_continue,html.Screen,4_49_2,2023-09-15T20:02:27.609Z,,0,,,1356.5950000029698,response,,,,,false,continue,keypress(Space),,243847.79999999702,243835.20000000298,242461.94,242463,242478.605,243861.8,8,400,,,
sequence,flow.Sequence,4_49,2023-09-15T20:02:27.609Z,,0,,,14472.650000002992,completion,,,,,false,,,,243848.10000000894,243835.20000000298,229345.848,229351.79999999702,229362.55,243861.8,8,400,,,
trial,html.Screen,4_50_0,2023-09-15T20:02:30.678Z,,0,2,,3054.900000002992,response,ISIC_0033241.JPG,4,ISIC_0010915.JPG,ISIC_0010915.JPG,false,0,keypress(z),500,246917,246916.70000000298,243845.135,243848.20000000298,243861.8,246928.377,8,400,1,,ISIC_0033241.JPG
break,html.Screen,4_50_1,2023-09-15T20:02:30.679Z,,0,,,NaN,,,,,,false,,,,246918.20000000298,246918,,246917.20000000298,,246928.377,8,400,,,
break_continue,html.Screen,4_50_2,2023-09-15T20:02:30.679Z,,0,,,NaN,,,,,,false,,,,246918.60000000894,246918.5,,246918.40000000596,,246928.377,8,400,,,
sequence,flow.Sequence,4_50,2023-09-15T20:02:30.679Z,,0,,,3056.7000000000116,completion,,,,,false,,,,246918.70000000298,246918.5,243845.135,243848.20000000298,243861.8,246928.377,8,400,,,
trial,html.Screen,4_51_0,2023-09-15T20:02:33.737Z,,0,2,,3047.422999997012,response,ISIC_6556622.JPG,4,ISIC_6511689.JPG,ISIC_6511689.JPG,false,0,keypress(z),500,249976.10000000894,249975.79999999702,246911.712,246918.79999999702,246928.377,249978.226,8,400,2,,ISIC_6556622.JPG
break,html.Screen,4_51_1,2023-09-15T20:02:33.738Z,,0,,,NaN,,,,,,false,,,,249977.10000000894,249976.70000000298,,249976.20000000298,,249978.226,8,400,,,
break_continue,html.Screen,4_51_2,2023-09-15T20:02:33.738Z,,0,,,NaN,,,,,,false,,,,249977.5,249977.40000000596,,249977.29999999702,,249978.226,8,400,,,
sequence,flow.Sequence,4_51,2023-09-15T20:02:33.738Z,,0,,,3049.023000005953,completion,,,,,false,,,,249977.70000000298,249977.40000000596,246911.712,246918.79999999702,246928.377,249978.226,8,400,,,
trial,html.Screen,4_52_0,2023-09-15T20:02:36.518Z,,0,2,,2778.5739999970247,response,ISIC_0072977.JPG,4,ISIC_0056796.JPG,ISIC_0056796.JPG,false,0,keypress(z),500,252757.10000000894,252756.79999999702,249961.561,249977.90000000596,249978.226,252761.44,8,400,3,,ISIC_0072977.JPG
break,html.Screen,4_52_1,2023-09-15T20:02:36.519Z,,0,,,NaN,,,,,,false,,,,252758,252757.90000000596,,252757.40000000596,,252761.44,8,400,,,
break_continue,html.Screen,4_52_2,2023-09-15T20:02:36.519Z,,0,,,NaN,,,,,,false,,,,252758.29999999702,252758.29999999702,,252758.10000000894,,252761.44,8,400,,,
sequence,flow.Sequence,4_52,2023-09-15T20:02:36.523Z,,0,,,2780.0739999970247,completion,,,,,false,,,,252762.10000000894,252758.29999999702,249961.561,249977.79999999702,249978.226,252761.44,8,400,,,
trial,html.Screen,4_53_0,2023-09-15T20:02:40.173Z,,0,2,,3650.1600000089384,response,ISIC_4071825.JPG,6,ISIC_2027392.JPG,ISIC_4071825.JPG,false,1,keypress(m),500,256412,256411.60000000894,252744.775,252762.29999999702,252761.44,256427.957,8,400,4,,ISIC_2027392.JPG
break,html.Screen,4_53_1,2023-09-15T20:02:40.174Z,,0,,,NaN,,,,,,false,,,,256413.10000000894,256412.90000000596,,256412.10000000894,,256427.957,8,400,,,
break_continue,html.Screen,4_53_2,2023-09-15T20:02:40.174Z,,0,,,NaN,,,,,,false,,,,256413.5,256413.29999999702,,256413.10000000894,,256427.957,8,400,,,
sequence,flow.Sequence,4_53,2023-09-15T20:02:40.174Z,,0,,,3651.8599999970174,completion,,,,,false,,,,256413.60000000894,256413.29999999702,252744.775,252762.20000000298,252761.44,256427.957,8,400,,,
trial,html.Screen,4_54_0,2023-09-15T20:02:43.830Z,,0,2,,3640.7430000029854,response,ISIC_0010382.JPG,4,ISIC_0060679.JPG,ISIC_0010382.JPG,false,1,keypress(m),500,260069.20000000298,260068.70000000298,256411.269,256413.70000000298,256427.957,260077.776,8,400,5,,ISIC_0060679.JPG
break,html.Screen,4_54_1,2023-09-15T20:02:43.831Z,,0,,,NaN,,,,,,false,,,,260070.40000000596,260070.20000000298,,260069.40000000596,,260077.776,8,400,,,
break_continue,html.Screen,4_54_2,2023-09-15T20:02:43.832Z,,0,,,NaN,,,,,,false,,,,260071.70000000298,260070.60000000894,,260070.60000000894,,260077.776,8,400,,,
sequence,flow.Sequence,4_54,2023-09-15T20:02:43.833Z,,0,,,3642.643000008946,completion,,,,,false,,,,260071.90000000596,260070.60000000894,256411.269,256413.70000000298,256427.957,260077.776,8,400,,,
trial,html.Screen,4_55_0,2023-09-15T20:02:49.142Z,,0,2,,5302.924000002968,response,ISIC_0046921.JPG,5,ISIC_0014092.JPG,ISIC_0014092.JPG,false,0,keypress(z),500,265380.90000000596,265380.700000003,260061.111,260072,260077.776,265394.19,8,400,6,,ISIC_0046921.JPG
break,html.Screen,4_55_1,2023-09-15T20:02:49.142Z,,0,,,NaN,,,,,,false,,,,265381.60000000894,265381.5,,265381.10000000894,,265394.19,8,400,,,
break_continue,html.Screen,4_55_2,2023-09-15T20:02:49.143Z,,0,,,NaN,,,,,,false,,,,265382,265381.90000000596,,265381.799999997,,265394.19,8,400,,,
sequence,flow.Sequence,4_55,2023-09-15T20:02:49.143Z,,0,,,5304.124000005948,completion,,,,,false,,,,265382.10000000894,265381.90000000596,260061.111,260072,260077.776,265394.19,8,400,,,
trial,html.Screen,4_56_0,2023-09-15T20:02:52.494Z,,0,2,,3338.6099999970174,response,ISIC_0012055.JPG,5,ISIC_0071050.JPG,ISIC_0012055.JPG,false,1,keypress(m),500,268733.200000003,268732.799999997,265377.525,265382.299999997,265394.19,268744.065,8,400,7,,ISIC_0071050.JPG
break,html.Screen,4_56_1,2023-09-15T20:02:52.495Z,,0,,,NaN,,,,,,false,,,,268734.299999997,268733.90000000596,,268733.40000000596,,268744.065,8,400,,,
break_continue,html.Screen,4_56_2,2023-09-15T20:02:52.495Z,,0,,,NaN,,,,,,false,,,,268734.5,268734.40000000596,,268734.40000000596,,268744.065,8,400,,,
sequence,flow.Sequence,4_56,2023-09-15T20:02:52.495Z,,0,,,3340.210000005958,completion,,,,,false,,,,268734.700000003,268734.40000000596,265377.525,265382.299999997,265394.19,268744.065,8,400,,,
trial,html.Screen,4_57_0,2023-09-15T20:02:56.606Z,,0,2,,4100.734999997017,response,ISIC_0064107.JPG,4,ISIC_0071957.JPG,ISIC_0071957.JPG,false,0,keypress(z),500,272845.10000000894,272844.799999997,268727.361,268734.799999997,268744.065,272860.525,8,400,8,,ISIC_0064107.JPG
break,html.Screen,4_57_1,2023-09-15T20:02:56.607Z,,0,,,NaN,,,,,,false,,,,272845.90000000596,272845.700000003,,272845.40000000596,,272860.525,8,400,,,
break_continue,html.Screen,4_57_2,2023-09-15T20:02:56.607Z,,0,,,NaN,,,,,,false,,,,272846.299999997,272846.10000000894,,272846.10000000894,,272860.525,8,400,,,
sequence,flow.Sequence,4_57,2023-09-15T20:02:56.607Z,,0,,,4102.035000008938,completion,,,,,false,,,,272846.40000000596,272846.10000000894,268727.361,268734.799999997,268744.065,272860.525,8,400,,,
trial,html.Screen,4_58_0,2023-09-15T20:03:01.006Z,,0,2,,4384.2749999969965,response,ISIC_0011964.JPG,5,ISIC_0029982.JPG,ISIC_0011964.JPG,false,1,keypress(m),500,277245.200000003,277244.799999997,272843.847,272846.5,272860.525,277260.328,8,400,9,,ISIC_0029982.JPG
break,html.Screen,4_58_1,2023-09-15T20:03:01.007Z,,0,,,NaN,,,,,,false,,,,277246,277245.700000003,,277245.40000000596,,277260.328,8,400,,,
break_continue,html.Screen,4_58_2,2023-09-15T20:03:01.007Z,,0,,,NaN,,,,,,false,,,,277246.299999997,277246.200000003,,277246,,277260.328,8,400,,,
sequence,flow.Sequence,4_58,2023-09-15T20:03:01.007Z,,0,,,4385.675000002957,completion,,,,,false,,,,277246.5,277246.200000003,272843.847,272846.5,272860.525,277260.328,8,400,,,
trial,html.Screen,4_59_0,2023-09-15T20:03:06.062Z,,0,2,,5040.47199999704,response,ISIC_0032162.JPG,4,ISIC_3882374.JPG,ISIC_3882374.JPG,false,0,keypress(z),500,282301.10000000894,282300.799999997,277243.632,277246.5,277260.328,282310.068,8,400,10,,ISIC_0032162.JPG
break,html.Screen,4_59_1,2023-09-15T20:03:06.063Z,,0,,,NaN,,,,,,false,,,,282302.10000000894,282301.90000000596,,282301.299999997,,282310.068,8,400,,,
break_continue,html.Screen,4_59_2,2023-09-15T20:03:06.063Z,,0,,,NaN,,,,,,false,,,,282302.5,282302.299999997,,282302.299999997,,282310.068,8,400,,,
sequence,flow.Sequence,4_59,2023-09-15T20:03:06.063Z,,0,,,5041.97199999704,completion,,,,,false,,,,282302.799999997,282302.299999997,277243.632,277246.5,277260.328,282310.068,8,400,,,
trial,html.Screen,4_60_0,2023-09-15T20:03:10.113Z,,0,2,,4041.7319999969914,response,ISIC_0014133.JPG,4,ISIC_0067274.JPG,ISIC_0067274.JPG,false,0,keypress(z),500,286352.10000000894,286351.799999997,282293.403,282302.90000000596,282310.068,286359.883,8,400,11,,ISIC_0014133.JPG
break,html.Screen,4_60_1,2023-09-15T20:03:10.114Z,,0,,,NaN,,,,,,false,,,,286353,286352.700000003,,286352.299999997,,286359.883,8,400,,,
break_continue,html.Screen,4_60_2,2023-09-15T20:03:10.114Z,,0,,,NaN,,,,,,false,,,,286353.299999997,286353.10000000894,,286353,,286359.883,8,400,,,
sequence,flow.Sequence,4_60,2023-09-15T20:03:10.114Z,,0,,,4043.0320000089123,completion,,,,,false,,,,286353.5,286353.10000000894,282293.403,282302.799999997,282310.068,286359.883,8,400,,,
trial,html.Screen,4_61_0,2023-09-15T20:03:16.158Z,,0,2,,6036.916999997047,response,ISIC_0054963.JPG,4,ISIC_6113524.JPG,ISIC_6113524.JPG,false,0,keypress(z),500,292397.200000003,292396.799999997,286343.218,286353.5,286359.883,292409.598,8,400,12,,ISIC_0054963.JPG
break,html.Screen,4_61_1,2023-09-15T20:03:16.159Z,,0,,,NaN,,,,,,false,,,,292398.40000000596,292398.10000000894,,292397.40000000596,,292409.598,8,400,,,
break_continue,html.Screen,4_61_2,2023-09-15T20:03:16.159Z,,0,,,NaN,,,,,,false,,,,292398.700000003,292398.60000000894,,292398.5,,292409.598,8,400,,,
sequence,flow.Sequence,4_61,2023-09-15T20:03:16.160Z,,0,,,6038.717000008968,completion,,,,,false,,,,292398.90000000596,292398.60000000894,286343.218,286353.5,286359.883,292409.598,8,400,,,
trial,html.Screen,4_62_0,2023-09-15T20:03:23.777Z,,0,2,,7606.602000002982,response,ISIC_0054568.JPG,5,ISIC_0011855.JPG,ISIC_0054568.JPG,false,1,keypress(m),500,300016.60000000894,300016.200000003,292392.933,292398.90000000596,292409.598,300025.923,8,400,13,,ISIC_0011855.JPG
break,html.Screen,4_62_1,2023-09-15T20:03:23.778Z,,0,,,NaN,,,,,,false,,,,300017.60000000894,300017.5,,300016.799999997,,300025.923,8,400,,,
break_continue,html.Screen,4_62_2,2023-09-15T20:03:23.779Z,,0,,,NaN,,,,,,false,,,,300017.90000000596,300017.799999997,,300017.700000003,,300025.923,8,400,,,
sequence,flow.Sequence,4_62,2023-09-15T20:03:23.779Z,,0,,,7608.201999997022,completion,,,,,false,,,,300018,300017.799999997,292392.933,292398.90000000596,292409.598,300025.923,8,400,,,
trial,html.Screen,4_63_0,2023-09-15T20:03:27.572Z,,0,2,,3785.37699999701,response,ISIC_0033832.JPG,5,ISIC_0003217.JPG,ISIC_0003217.JPG,false,0,keypress(z),500,303811.60000000894,303811.299999997,300009.258,300018.10000000894,300025.923,303825.764,8,400,14,,ISIC_0033832.JPG
break,html.Screen,4_63_1,2023-09-15T20:03:27.573Z,,0,,,NaN,,,,,,false,,,,303812.5,303812.200000003,,303811.799999997,,303825.764,8,400,,,
break_continue,html.Screen,4_63_2,2023-09-15T20:03:27.573Z,,0,,,NaN,,,,,,false,,,,303812.799999997,303812.700000003,,303812.5,,303825.764,8,400,,,
sequence,flow.Sequence,4_63,2023-09-15T20:03:27.575Z,,0,,,3786.7770000029705,completion,,,,,false,,,,303814.10000000894,303812.700000003,300009.258,300018.10000000894,300025.923,303825.764,8,400,,,
trial,html.Screen,4_64_0,2023-09-15T20:03:30.870Z,,0,2,,3282.9360000029556,response,ISIC_0010719.JPG,4,ISIC_7421214.JPG,ISIC_7421214.JPG,false,0,keypress(z),500,307109.10000000894,307108.700000003,303809.08,303814.299999997,303825.764,307125.618,8,400,15,,ISIC_0010719.JPG
break,html.Screen,4_64_1,2023-09-15T20:03:30.871Z,,0,,,NaN,,,,,,false,,,,307110.10000000894,307110,,307109.299999997,,307125.618,8,400,,,
break_continue,html.Screen,4_64_2,2023-09-15T20:03:30.871Z,,0,,,NaN,,,,,,false,,,,307110.5,307110.40000000596,,307110.200000003,,307125.618,8,400,,,
sequence,flow.Sequence,4_64,2023-09-15T20:03:30.871Z,,0,,,3284.636000005936,completion,,,,,false,,,,307110.60000000894,307110.40000000596,303809.08,303814.200000003,303825.764,307125.618,8,400,,,
trial,html.Screen,4_65_0,2023-09-15T20:03:33.593Z,,0,2,,2706.2820000059437,response,ISIC_0033612.JPG,5,ISIC_9944671.JPG,ISIC_9944671.JPG,false,0,keypress(z),500,309832.299999997,309831.90000000596,307108.932,307110.799999997,307125.618,309842.145,8,400,16,,ISIC_0033612.JPG
break,html.Screen,4_65_1,2023-09-15T20:03:33.594Z,,0,,,NaN,,,,,,false,,,,309833.299999997,309833.200000003,,309832.60000000894,,309842.145,8,400,,,
break_continue,html.Screen,4_65_2,2023-09-15T20:03:33.594Z,,0,,,NaN,,,,,,false,,,,309833.700000003,309833.5,,309833.40000000596,,309842.145,8,400,,,
sequence,flow.Sequence,4_65,2023-09-15T20:03:33.594Z,,0,,,2707.8819999999832,completion,,,,,false,,,,309833.799999997,309833.5,307108.932,307110.700000003,307125.618,309842.145,8,400,,,
trial,html.Screen,4_66_0,2023-09-15T20:03:36.630Z,,0,2,,3026.5550000029616,response,ISIC_8618835.JPG,5,ISIC_7010552.JPG,ISIC_8618835.JPG,false,1,keypress(m),500,312869,312868.700000003,309825.48,309833.90000000596,309842.145,312875.324,8,400,17,,ISIC_7010552.JPG
break,html.Screen,4_66_1,2023-09-15T20:03:36.630Z,,0,,,NaN,,,,,,false,,,,312869.700000003,312869.60000000894,,312869.200000003,,312875.324,8,400,,,
break_continue,html.Screen,4_66_2,2023-09-15T20:03:36.631Z,,0,,,NaN,,,,,,false,,,,312870,312869.90000000596,,312869.90000000596,,312875.324,8,400,,,
sequence,flow.Sequence,4_66,2023-09-15T20:03:36.631Z,,0,,,3027.755000005942,completion,,,,,false,,,,312870.200000003,312869.90000000596,309825.48,309833.90000000596,309842.145,312875.324,8,400,,,
trial,html.Screen,4_67_0,2023-09-15T20:03:42.072Z,,0,2,,5436.076000005938,response,ISIC_0033302.JPG,4,ISIC_0054671.JPG,ISIC_0054671.JPG,false,0,keypress(z),500,318311.799999997,318311.40000000596,312858.659,312870.299999997,312875.324,318325.101,8,400,18,,ISIC_0033302.JPG
break,html.Screen,4_67_1,2023-09-15T20:03:42.074Z,,0,,,NaN,,,,,,false,,,,318312.90000000596,318312.700000003,,318312,,318325.101,8,400,,,
break_continue,html.Screen,4_67_2,2023-09-15T20:03:42.074Z,,0,,,NaN,,,,,,false,,,,318313.200000003,318313.10000000894,,318313,,318325.101,8,400,,,
sequence,flow.Sequence,4_67,2023-09-15T20:03:42.074Z,,0,,,5437.776000008918,completion,,,,,false,,,,318313.40000000596,318313.10000000894,312858.659,312870.299999997,312875.324,318325.101,8,400,,,
trial,html.Screen,4_68_0,2023-09-15T20:03:45.254Z,,0,2,,3167.599000002956,response,ISIC_0032420.JPG,4,ISIC_0845105.JPG,ISIC_0845105.JPG,false,0,keypress(z),500,321493,321492.700000003,318308.42,318313.5,318325.101,321508.286,8,400,19,,ISIC_0032420.JPG
break,html.Screen,4_68_1,2023-09-15T20:03:45.255Z,,0,,,NaN,,,,,,false,,,,321494,321493.700000003,,321493.200000003,,321508.286,8,400,,,
break_continue,html.Screen,4_68_2,2023-09-15T20:03:45.255Z,,0,,,NaN,,,,,,false,,,,321494.299999997,321494.200000003,,321494,,321508.286,8,400,,,
sequence,flow.Sequence,4_68,2023-09-15T20:03:45.255Z,,0,,,3169.099000002956,completion,,,,,false,,,,321494.40000000596,321494.200000003,318308.42,318313.40000000596,318325.101,321508.286,8,400,,,
trial,html.Screen,4_69_0,2023-09-15T20:03:48.870Z,,0,2,,3600.6140000059386,response,ISIC_3123711.JPG,4,ISIC_0014108.JPG,ISIC_3123711.JPG,false,1,keypress(m),500,325109.200000003,325108.90000000596,321491.595,321494.5,321508.286,325124.797,8,400,20,,ISIC_0014108.JPG
break,html.Screen,4_69_1,2023-09-15T20:03:48.871Z,,0,,,NaN,,,,,,false,,,,325110.40000000596,325110.200000003,,325109.40000000596,,325124.797,8,400,,,
break_continue,html.Screen,4_69_2,2023-09-15T20:03:48.871Z,,0,,,NaN,,,,,,false,,,,325110.700000003,325110.5,,325110.40000000596,,325124.797,8,400,,,
sequence,flow.Sequence,4_69,2023-09-15T20:03:48.872Z,,0,,,3602.213999999978,completion,,,,,false,,,,325110.799999997,325110.5,321491.595,321494.5,321508.286,325124.797,8,400,,,
trial,html.Screen,4_70_0,2023-09-15T20:03:54.105Z,,0,2,,5219.10300000594,response,ISIC_0056316.JPG,5,ISIC_4442490.JPG,ISIC_4442490.JPG,false,0,keypress(z),500,330344.200000003,330343.90000000596,325108.091,325110.90000000596,325124.797,330357.846,8,400,21,,ISIC_0056316.JPG
break,html.Screen,4_70_1,2023-09-15T20:03:54.106Z,,0,,,NaN,,,,,,false,,,,330345.299999997,330345,,330344.40000000596,,330357.846,8,400,,,
break_continue,html.Screen,4_70_2,2023-09-15T20:03:54.106Z,,0,,,NaN,,,,,,false,,,,330345.60000000894,330345.40000000596,,330345.40000000596,,330357.846,8,400,,,
sequence,flow.Sequence,4_70,2023-09-15T20:03:54.106Z,,0,,,5220.60300000594,completion,,,,,false,,,,330345.700000003,330345.40000000596,325108.091,325110.90000000596,325124.797,330357.846,8,400,,,
trial,html.Screen,4_71_0,2023-09-15T20:04:01.900Z,,0,2,,7781.054000005941,response,ISIC_7349440.JPG,5,ISIC_8127323.JPG,ISIC_8127323.JPG,false,0,keypress(z),500,338139.10000000894,338138.90000000596,330341.181,330345.90000000596,330357.846,338140.857,8,400,22,,ISIC_7349440.JPG
break,html.Screen,4_71_1,2023-09-15T20:04:01.901Z,,0,,,NaN,,,,,,false,,,,338139.90000000596,338139.700000003,,338139.299999997,,338140.857,8,400,,,
break_continue,html.Screen,4_71_2,2023-09-15T20:04:01.901Z,,0,,,NaN,,,,,,false,,,,338140.200000003,338140.10000000894,,338140,,338140.857,8,400,,,
sequence,flow.Sequence,4_71,2023-09-15T20:04:01.901Z,,0,,,7782.254000008921,completion,,,,,false,,,,338140.40000000596,338140.10000000894,330341.181,330345.799999997,330357.846,338140.857,8,400,,,
trial,html.Screen,4_72_0,2023-09-15T20:04:05.070Z,,0,2,,3168.642999999982,response,ISIC_7535412.JPG,4,ISIC_0000700.JPG,ISIC_7535412.JPG,false,1,keypress(m),500,341309.700000003,341309.5,338124.192,338140.5,338140.857,341324.045,8,400,23,,ISIC_0000700.JPG
break,html.Screen,4_72_1,2023-09-15T20:04:05.071Z,,0,,,NaN,,,,,,false,,,,341310.60000000894,341310.40000000596,,341309.90000000596,,341324.045,8,400,,,
break_continue,html.Screen,4_72_2,2023-09-15T20:04:05.072Z,,0,,,NaN,,,,,,false,,,,341311,341310.799999997,,341310.700000003,,341324.045,8,400,,,
sequence,flow.Sequence,4_72,2023-09-15T20:04:05.072Z,,0,,,3169.9429999970016,completion,,,,,false,,,,341311,341310.799999997,338124.192,338140.40000000596,338140.857,341324.045,8,400,,,
trial,html.Screen,4_73_0,2023-09-15T20:04:09.630Z,,0,2,,4544.555000008957,response,ISIC_0000002.JPG,5,ISIC_8479913.JPG,ISIC_8479913.JPG,false,0,keypress(z),500,345868.90000000596,345868.60000000894,341307.344,341311.10000000894,341324.045,345873.795,8,400,24,,ISIC_0000002.JPG
break,html.Screen,4_73_1,2023-09-15T20:04:09.631Z,,0,,,NaN,,,,,,false,,,,345869.799999997,345869.5,,345869.10000000894,,345873.795,8,400,,,
break_continue,html.Screen,4_73_2,2023-09-15T20:04:09.631Z,,0,,,NaN,,,,,,false,,,,345870.10000000894,345870,,345870,,345873.795,8,400,,,
sequence,flow.Sequence,4_73,2023-09-15T20:04:09.631Z,,0,,,4545.955000000016,completion,,,,,false,,,,345870.299999997,345870,341307.344,341311.10000000894,341324.045,345873.795,8,400,,,
trial,html.Screen,4_74_0,2023-09-15T20:04:14.721Z,,0,2,,5085.9050000029965,response,ISIC_6553579.JPG,4,ISIC_0057949.JPG,ISIC_0057949.JPG,false,0,keypress(z),500,350959.90000000596,350959.700000003,345857.13,345870.5,345873.795,350973.566,8,400,25,,ISIC_6553579.JPG
break,html.Screen,4_74_1,2023-09-15T20:04:14.723Z,,0,,,NaN,,,,,,false,,,,350961.799999997,350961.5,,350960.90000000596,,350973.566,8,400,,,
break_continue,html.Screen,4_74_2,2023-09-15T20:04:14.723Z,,0,,,NaN,,,,,,false,,,,350962.10000000894,350962,,350961.90000000596,,350973.566,8,400,,,
sequence,flow.Sequence,4_74,2023-09-15T20:04:14.723Z,,0,,,5088.205000000016,completion,,,,,false,,,,350962.299999997,350962,345857.13,345870.40000000596,345873.795,350973.566,8,400,,,
trial,html.Screen,4_75_0,2023-09-15T20:04:20.510Z,,0,2,,5775.334000005969,response,ISIC_1632313.JPG,4,ISIC_2219050.JPG,ISIC_2219050.JPG,false,0,keypress(z),500,356749.10000000894,356748.90000000596,350956.901,350962.40000000596,350973.566,356756.625,8,400,26,,ISIC_1632313.JPG
break,html.Screen,4_75_1,2023-09-15T20:04:20.511Z,,0,,,NaN,,,,,,false,,,,356749.799999997,356749.700000003,,356749.299999997,,356756.625,8,400,,,
break_continue,html.Screen,4_75_2,2023-09-15T20:04:20.511Z,,0,,,NaN,,,,,,false,,,,356750.200000003,356750.10000000894,,356750,,356756.625,8,400,,,
sequence,flow.Sequence,4_75,2023-09-15T20:04:20.511Z,,0,,,5776.534000008949,completion,,,,,false,,,,356750.40000000596,356750.10000000894,350956.901,350962.299999997,350973.566,356756.625,8,400,,,
trial,html.Screen,4_76_0,2023-09-15T20:04:24.438Z,,0,2,,3919.9750000089407,response,ISIC_4052597.JPG,4,ISIC_0065535.JPG,ISIC_4052597.JPG,false,1,keypress(m),500,360676.799999997,360676.60000000894,356739.96,356750.5,356756.625,360689.816,8,400,27,,ISIC_0065535.JPG
break,html.Screen,4_76_1,2023-09-15T20:04:24.439Z,,0,,,NaN,,,,,,false,,,,360677.90000000596,360677.5,,360677,,360689.816,8,400,,,
break_continue,html.Screen,4_76_2,2023-09-15T20:04:24.439Z,,0,,,NaN,,,,,,false,,,,360678.200000003,360678.10000000894,,360678,,360689.816,8,400,,,
sequence,flow.Sequence,4_76,2023-09-15T20:04:24.439Z,,0,,,3921.4750000089407,completion,,,,,false,,,,360678.40000000596,360678.10000000894,356739.96,356750.5,356756.625,360689.816,8,400,,,
trial,html.Screen,4_77_0,2023-09-15T20:04:28.249Z,,0,2,,3797.983999997028,response,ISIC_8002729.JPG,4,ISIC_2647453.JPG,ISIC_8002729.JPG,false,1,keypress(m),500,364488,364487.799999997,360673.132,360678.60000000894,360689.816,364489.603,8,400,28,,ISIC_2647453.JPG
break,html.Screen,4_77_1,2023-09-15T20:04:28.250Z,,0,,,NaN,,,,,,false,,,,364488.90000000596,364488.60000000894,,364488.200000003,,364489.603,8,400,,,
break_continue,html.Screen,4_77_2,2023-09-15T20:04:28.250Z,,0,,,NaN,,,,,,false,,,,364489.200000003,364489.10000000894,,364488.90000000596,,364489.603,8,400,,,
sequence,flow.Sequence,4_77,2023-09-15T20:04:28.250Z,,0,,,3799.284000008949,completion,,,,,false,,,,364489.299999997,364489.10000000894,360673.132,360678.5,360689.816,364489.603,8,400,,,
trial,html.Screen,4_78_0,2023-09-15T20:04:32.870Z,,0,2,,4619.196999997017,response,ISIC_3453832.JPG,4,ISIC_0027832.JPG,ISIC_3453832.JPG,false,1,keypress(m),500,369109.10000000894,369108.799999997,364472.938,364489.5,364489.603,369122.765,8,400,29,,ISIC_0027832.JPG
break,html.Screen,4_78_1,2023-09-15T20:04:32.871Z,,0,,,NaN,,,,,,false,,,,369110,369109.700000003,,369109.299999997,,369122.765,8,400,,,
break_continue,html.Screen,4_78_2,2023-09-15T20:04:32.871Z,,0,,,NaN,,,,,,false,,,,369110.200000003,369110.10000000894,,369110,,369122.765,8,400,,,
sequence,flow.Sequence,4_78,2023-09-15T20:04:32.872Z,,0,,,4620.497000008938,completion,,,,,false,,,,369110.90000000596,369110.10000000894,364472.938,364489.5,364489.603,369122.765,8,400,,,
trial,html.Screen,4_79_0,2023-09-15T20:04:36.377Z,,0,2,,3493.6350000059465,response,ISIC_4462476.JPG,5,ISIC_0053816.JPG,ISIC_4462476.JPG,false,1,keypress(m),500,372616.700000003,372616.40000000596,369106.065,369111,369122.765,372622.569,8,400,30,,ISIC_0053816.JPG
break,html.Screen,4_79_1,2023-09-15T20:04:36.378Z,,0,,,NaN,,,,,,false,,,,372617.5,372617.200000003,,372616.90000000596,,372622.569,8,400,,,
break_continue,html.Screen,4_79_2,2023-09-15T20:04:36.379Z,,0,,,NaN,,,,,,false,,,,372617.90000000596,372617.700000003,,372617.60000000894,,372622.569,8,400,,,
sequence,flow.Sequence,4_79,2023-09-15T20:04:36.379Z,,0,,,3494.9350000029663,completion,,,,,false,,,,372618,372617.700000003,369106.065,369111,369122.765,372622.569,8,400,,,
trial,html.Screen,4_80_0,2023-09-15T20:04:40.044Z,,0,2,,3660.531000008923,response,ISIC_0026759.JPG,5,ISIC_0065943.JPG,ISIC_0065943.JPG,false,0,keypress(z),500,376283.5,376283.10000000894,372605.904,372618.10000000894,372622.569,376289.06,8,400,31,,ISIC_0026759.JPG
break,html.Screen,4_80_1,2023-09-15T20:04:40.045Z,,0,,,NaN,,,,,,false,,,,376284.10000000894,376284,,376283.60000000894,,376289.06,8,400,,,
break_continue,html.Screen,4_80_2,2023-09-15T20:04:40.045Z,,0,,,NaN,,,,,,false,,,,376284.5,376284.40000000596,,376284.299999997,,376289.06,8,400,,,
sequence,flow.Sequence,4_80,2023-09-15T20:04:40.045Z,,0,,,3661.8310000059428,completion,,,,,false,,,,376284.60000000894,376284.40000000596,372605.904,372618,372622.569,376289.06,8,400,,,
trial,html.Screen,4_81_0,2023-09-15T20:04:43.542Z,,0,2,,3491.4400000000023,response,ISIC_8353090.JPG,4,ISIC_0034202.JPG,ISIC_8353090.JPG,false,1,keypress(m),500,379780.799999997,379780.5,376272.395,376284.700000003,376289.06,379788.914,8,400,32,,ISIC_0034202.JPG
break,html.Screen,4_81_1,2023-09-15T20:04:43.543Z,,0,,,NaN,,,,,,false,,,,379782,379781.90000000596,,379781,,379788.914,8,400,,,
break_continue,html.Screen,4_81_2,2023-09-15T20:04:43.543Z,,0,,,NaN,,,,,,false,,,,379782.40000000596,379782.299999997,,379782.10000000894,,379788.914,8,400,,,
sequence,flow.Sequence,4_81,2023-09-15T20:04:43.543Z,,0,,,3493.239999997022,completion,,,,,false,,,,379782.5,379782.299999997,376272.395,376284.60000000894,376289.06,379788.914,8,400,,,
trial,html.Screen,4_82_0,2023-09-15T20:04:47.182Z,,0,2,,3631.7860000029905,response,ISIC_0011193.JPG,4,ISIC_0072030.JPG,ISIC_0011193.JPG,false,1,keypress(m),500,383421,383420.700000003,379772.249,379782.60000000894,379788.914,383422.08,8,400,33,,ISIC_0072030.JPG
break,html.Screen,4_82_1,2023-09-15T20:04:47.183Z,,0,,,NaN,,,,,,false,,,,383422,383421.90000000596,,383421.200000003,,383422.08,8,400,,,
break_continue,html.Screen,4_82_2,2023-09-15T20:04:47.183Z,,0,,,NaN,,,,,,false,,,,383422.40000000596,383422.299999997,,383422.10000000894,,383422.08,8,400,,,
sequence,flow.Sequence,4_82,2023-09-15T20:04:47.183Z,,0,,,3633.38599999703,completion,,,,,false,,,,383422.60000000894,383422.299999997,379772.249,379782.60000000894,379788.914,383422.08,8,400,,,
trial,html.Screen,4_83_0,2023-09-15T20:04:52.006Z,,0,2,,4822.7199999970035,response,ISIC_0057881.JPG,4,ISIC_0011247.JPG,ISIC_0057881.JPG,false,1,keypress(m),500,388245.10000000894,388244.799999997,383405.415,383422.700000003,383422.08,388255.178,8,400,34,,ISIC_0011247.JPG
break,html.Screen,4_83_1,2023-09-15T20:04:52.007Z,,0,,,NaN,,,,,,false,,,,388246.299999997,388246.10000000894,,388245.40000000596,,388255.178,8,400,,,
break_continue,html.Screen,4_83_2,2023-09-15T20:04:52.007Z,,0,,,NaN,,,,,,false,,,,388246.60000000894,388246.5,,388246.40000000596,,388255.178,8,400,,,
sequence,flow.Sequence,4_83,2023-09-15T20:04:52.007Z,,0,,,4824.419999999984,completion,,,,,false,,,,388246.700000003,388246.5,383405.415,383422.700000003,383422.08,388255.178,8,400,,,
trial,html.Screen,4_84_0,2023-09-15T20:05:00.278Z,,0,2,,8261.722000005946,response,ISIC_5157775.JPG,5,ISIC_0028131.JPG,ISIC_5157775.JPG,false,1,keypress(m),500,396517.200000003,396516.90000000596,388238.513,388246.799999997,388255.178,396521.475,8,400,35,,ISIC_0028131.JPG
break,html.Screen,4_84_1,2023-09-15T20:05:00.279Z,,0,,,NaN,,,,,,false,,,,396518.10000000894,396517.90000000596,,396517.40000000596,,396521.475,8,400,,,
break_continue,html.Screen,4_84_2,2023-09-15T20:05:00.279Z,,0,,,NaN,,,,,,false,,,,396518.40000000596,396518.299999997,,396518.10000000894,,396521.475,8,400,,,
sequence,flow.Sequence,4_84,2023-09-15T20:05:00.279Z,,0,,,8263.121999997005,completion,,,,,false,,,,396518.60000000894,396518.299999997,388238.513,388246.799999997,388255.178,396521.475,8,400,,,
trial,html.Screen,4_85_0,2023-09-15T20:05:03.846Z,,0,2,,3563.4250000059837,response,ISIC_0012406.JPG,4,ISIC_2987613.JPG,ISIC_0012406.JPG,false,1,keypress(m),500,400085.200000003,400084.90000000596,396504.81,396518.700000003,396521.475,400087.968,8,400,36,,ISIC_2987613.JPG
break,html.Screen,4_85_1,2023-09-15T20:05:03.847Z,,0,,,NaN,,,,,,false,,,,400085.90000000596,400085.700000003,,400085.40000000596,,400087.968,8,400,,,
break_continue,html.Screen,4_85_2,2023-09-15T20:05:03.847Z,,0,,,NaN,,,,,,false,,,,400086.299999997,400086.200000003,,400086,,400087.968,8,400,,,
sequence,flow.Sequence,4_85,2023-09-15T20:05:03.847Z,,0,,,3564.7250000030035,completion,,,,,false,,,,400086.40000000596,400086.200000003,396504.81,396518.60000000894,396521.475,400087.968,8,400,,,
trial,html.Screen,4_86_0,2023-09-15T20:05:08.374Z,,0,2,,4524.932000005967,response,ISIC_0029013.JPG,4,ISIC_3222447.JPG,ISIC_3222447.JPG,false,0,keypress(z),500,404613.200000003,404612.90000000596,400071.303,400086.5,400087.968,404621.092,8,400,37,,ISIC_0029013.JPG
break,html.Screen,4_86_1,2023-09-15T20:05:08.375Z,,0,,,NaN,,,,,,false,,,,404614,404613.799999997,,404613.40000000596,,404621.092,8,400,,,
break_continue,html.Screen,4_86_2,2023-09-15T20:05:08.375Z,,0,,,NaN,,,,,,false,,,,404614.299999997,404614.10000000894,,404614,,404621.092,8,400,,,
sequence,flow.Sequence,4_86,2023-09-15T20:05:08.375Z,,0,,,4526.132000008947,completion,,,,,false,,,,404614.40000000596,404614.10000000894,400071.303,400086.5,400087.968,404621.092,8,400,,,
trial,html.Screen,4_87_0,2023-09-15T20:05:11.641Z,,0,2,,3258.8080000059563,response,ISIC_0031985.JPG,4,ISIC_3664380.JPG,ISIC_3664380.JPG,false,0,keypress(z),500,407880.10000000894,407879.90000000596,404604.427,404614.60000000894,404621.092,407887.612,8,400,38,,ISIC_0031985.JPG
break,html.Screen,4_87_1,2023-09-15T20:05:11.642Z,,0,,,NaN,,,,,,false,,,,407881.200000003,407880.799999997,,407880.40000000596,,407887.612,8,400,,,
break_continue,html.Screen,4_87_2,2023-09-15T20:05:11.642Z,,0,,,NaN,,,,,,false,,,,407881.5,407881.40000000596,,407881.200000003,,407887.612,8,400,,,
sequence,flow.Sequence,4_87,2023-09-15T20:05:11.642Z,,0,,,3260.3080000059563,completion,,,,,false,,,,407881.60000000894,407881.40000000596,404604.427,404614.60000000894,404621.092,407887.612,8,400,,,
trial,html.Screen,4_88_0,2023-09-15T20:05:18.076Z,,0,2,,6427.288000005938,response,ISIC_6824842.JPG,5,ISIC_1078854.JPG,ISIC_1078854.JPG,false,0,keypress(z),500,414315.200000003,414314.90000000596,407870.947,407881.799999997,407887.612,414320.647,8,400,39,,ISIC_6824842.JPG
break,html.Screen,4_88_1,2023-09-15T20:05:18.077Z,,0,,,NaN,,,,,,false,,,,414316.10000000894,414315.799999997,,414315.40000000596,,414320.647,8,400,,,
break_continue,html.Screen,4_88_2,2023-09-15T20:05:18.077Z,,0,,,NaN,,,,,,false,,,,414316.5,414316.40000000596,,414316.299999997,,414320.647,8,400,,,
sequence,flow.Sequence,4_88,2023-09-15T20:05:18.077Z,,0,,,6428.788000005938,completion,,,,,false,,,,414316.60000000894,414316.40000000596,407870.947,407881.700000003,407887.612,414320.647,8,400,,,
trial,html.Screen,4_89_0,2023-09-15T20:05:22.158Z,,0,2,,4076.1529999970226,response,ISIC_7482149.JPG,4,ISIC_0061371.JPG,ISIC_7482149.JPG,false,1,keypress(m),500,418397,418396.799999997,414303.982,414316.799999997,414320.647,418403.8,8,400,40,,ISIC_0061371.JPG
break,html.Screen,4_89_1,2023-09-15T20:05:22.159Z,,0,,,NaN,,,,,,false,,,,418398.10000000894,418397.90000000596,,418397.200000003,,418403.8,8,400,,,
break_continue,html.Screen,4_89_2,2023-09-15T20:05:22.159Z,,0,,,NaN,,,,,,false,,,,418398.40000000596,418398.299999997,,418398.200000003,,418403.8,8,400,,,
sequence,flow.Sequence,4_89,2023-09-15T20:05:22.159Z,,0,,,4077.6529999970226,completion,,,,,false,,,,418398.5,418398.299999997,414303.982,414316.700000003,414320.647,418403.8,8,400,,,
trial,html.Screen,4_90_0,2023-09-15T20:05:26.593Z,,0,2,,4428.100000005972,response,ISIC_0056790.JPG,4,ISIC_3597812.JPG,ISIC_3597812.JPG,false,0,keypress(z),500,422832.10000000894,422831.90000000596,418387.135,418398.700000003,418403.8,422836.918,8,400,41,,ISIC_0056790.JPG
break,html.Screen,4_90_1,2023-09-15T20:05:26.594Z,,0,,,NaN,,,,,,false,,,,422833.10000000894,422832.90000000596,,422832.299999997,,422836.918,8,400,,,
break_continue,html.Screen,4_90_2,2023-09-15T20:05:26.594Z,,0,,,NaN,,,,,,false,,,,422833.5,422833.299999997,,422833.299999997,,422836.918,8,400,,,
sequence,flow.Sequence,4_90,2023-09-15T20:05:26.594Z,,0,,,4429.499999997031,completion,,,,,false,,,,422833.700000003,422833.299999997,418387.135,418398.60000000894,418403.8,422836.918,8,400,,,
trial,html.Screen,4_91_0,2023-09-15T20:05:30.902Z,,0,2,,4304.081999999995,response,ISIC_7923008.JPG,4,ISIC_3084213.JPG,ISIC_7923008.JPG,false,1,keypress(m),500,427141.299999997,427141,422820.253,422833.700000003,422836.918,427153.42,8,400,42,,ISIC_3084213.JPG
break,html.Screen,4_91_1,2023-09-15T20:05:30.903Z,,0,,,NaN,,,,,,false,,,,427142.299999997,427142.10000000894,,427141.5,,427153.42,8,400,,,
break_continue,html.Screen,4_91_2,2023-09-15T20:05:30.903Z,,0,,,NaN,,,,,,false,,,,427142.60000000894,427142.5,,427142.40000000596,,427153.42,8,400,,,
sequence,flow.Sequence,4_91,2023-09-15T20:05:30.903Z,,0,,,4305.581999999995,completion,,,,,false,,,,427142.700000003,427142.5,422820.253,422833.700000003,422836.918,427153.42,8,400,,,
trial,html.Screen,4_92_0,2023-09-15T20:05:37.654Z,,0,2,,6739.379999997036,response,ISIC_0032982.JPG,4,ISIC_4445729.JPG,ISIC_4445729.JPG,false,0,keypress(z),500,433893.10000000894,433892.799999997,427136.716,427142.799999997,427153.42,433903.069,8,400,43,,ISIC_0032982.JPG
break,html.Screen,4_92_1,2023-09-15T20:05:37.655Z,,0,,,NaN,,,,,,false,,,,433894.299999997,433894.10000000894,,433893.40000000596,,433903.069,8,400,,,
break_continue,html.Screen,4_92_2,2023-09-15T20:05:37.655Z,,0,,,NaN,,,,,,false,,,,433894.60000000894,433894.5,,433894.40000000596,,433903.069,8,400,,,
sequence,flow.Sequence,4_92,2023-09-15T20:05:37.655Z,,0,,,6741.080000000016,completion,,,,,false,,,,433894.700000003,433894.5,427136.716,427142.799999997,427153.42,433903.069,8,400,,,
trial,html.Screen,4_93_0,2023-09-15T20:05:40.445Z,,0,2,,2781.3310000059428,response,ISIC_0072157.JPG,4,ISIC_0061972.JPG,ISIC_0061972.JPG,false,0,keypress(z),500,436684.60000000894,436684.40000000596,433886.404,433894.799999997,433903.069,436686.281,8,400,44,,ISIC_0072157.JPG
break,html.Screen,4_93_1,2023-09-15T20:05:40.446Z,,0,,,NaN,,,,,,false,,,,436685.299999997,436685.10000000894,,436684.799999997,,436686.281,8,400,,,
break_continue,html.Screen,4_93_2,2023-09-15T20:05:40.446Z,,0,,,NaN,,,,,,false,,,,436685.700000003,436685.5,,436685.40000000596,,436686.281,8,400,,,
sequence,flow.Sequence,4_93,2023-09-15T20:05:40.447Z,,0,,,2782.4309999999823,completion,,,,,false,,,,436685.90000000596,436685.5,433886.404,433894.799999997,433903.069,436686.281,8,400,,,
trial,html.Screen,4_94_0,2023-09-15T20:05:51.872Z,,0,2,,11424.718999999983,response,ISIC_8147542.JPG,5,ISIC_7544537.JPG,ISIC_8147542.JPG,false,1,keypress(m),500,448111.299999997,448111,436669.616,436686,436686.281,448135.787,8,400,45,,ISIC_7544537.JPG
break,html.Screen,4_94_1,2023-09-15T20:05:51.873Z,,0,,,NaN,,,,,,false,,,,448112.10000000894,448111.90000000596,,448111.5,,448135.787,8,400,,,
break_continue,html.Screen,4_94_2,2023-09-15T20:05:51.873Z,,0,,,NaN,,,,,,false,,,,448112.40000000596,448112.40000000596,,448112.200000003,,448135.787,8,400,,,
sequence,flow.Sequence,4_94,2023-09-15T20:05:51.873Z,,0,,,11426.119000005943,completion,,,,,false,,,,448112.60000000894,448112.40000000596,436669.616,436686,436686.281,448135.787,8,400,,,
trial,html.Screen,4_95_0,2023-09-15T20:05:55.283Z,,0,2,,3385.913000002969,response,ISIC_5610222.JPG,4,ISIC_1552232.JPG,ISIC_5610222.JPG,false,1,keypress(m),500,451521.90000000596,451521.700000003,448119.076,448112.700000003,448135.787,451535.628,8,400,46,,ISIC_1552232.JPG
break,html.Screen,4_95_1,2023-09-15T20:05:55.283Z,,0,,,NaN,,,,,,false,,,,451522.700000003,451522.60000000894,,451522.10000000894,,451535.628,8,400,,,
break_continue,html.Screen,4_95_2,2023-09-15T20:05:55.284Z,,0,,,NaN,,,,,,false,,,,451523.10000000894,451523,,451522.90000000596,,451535.628,8,400,,,
sequence,flow.Sequence,4_95,2023-09-15T20:05:55.284Z,,0,,,3387.212999999989,completion,,,,,false,,,,451523.200000003,451523,448119.076,448112.700000003,448135.787,451535.628,8,400,,,
trial,html.Screen,4_96_0,2023-09-15T20:05:59.381Z,,0,2,,4084.7720000059344,response,ISIC_9870885.JPG,4,ISIC_0072516.JPG,ISIC_0072516.JPG,false,0,keypress(z),500,455620.700000003,455620.40000000596,451518.927,451523.40000000596,451535.628,455635.424,8,400,47,,ISIC_9870885.JPG
break,html.Screen,4_96_1,2023-09-15T20:05:59.382Z,,0,,,NaN,,,,,,false,,,,455621.60000000894,455621.5,,455620.90000000596,,455635.424,8,400,,,
break_continue,html.Screen,4_96_2,2023-09-15T20:05:59.383Z,,0,,,NaN,,,,,,false,,,,455622,455621.90000000596,,455621.799999997,,455635.424,8,400,,,
sequence,flow.Sequence,4_96,2023-09-15T20:05:59.383Z,,0,,,4086.2720000059344,completion,,,,,false,,,,455622.10000000894,455621.90000000596,451518.927,451523.299999997,451535.628,455635.424,8,400,,,
trial,html.Screen,4_97_0,2023-09-15T20:06:02.088Z,,0,2,,2692.076000000001,response,ISIC_4331481.JPG,5,ISIC_1233104.JPG,ISIC_1233104.JPG,false,0,keypress(z),500,458327.799999997,458327.5,455618.744,455622.299999997,455635.424,458335.292,8,400,48,,ISIC_4331481.JPG
break,html.Screen,4_97_1,2023-09-15T20:06:02.090Z,,0,,,NaN,,,,,,false,,,,458328.799999997,458328.5,,458327.90000000596,,458335.292,8,400,,,
break_continue,html.Screen,4_97_2,2023-09-15T20:06:02.090Z,,0,,,NaN,,,,,,false,,,,458329.10000000894,458329,,458328.90000000596,,458335.292,8,400,,,
sequence,flow.Sequence,4_97,2023-09-15T20:06:02.090Z,,0,,,2693.576000000001,completion,,,,,false,,,,458329.299999997,458329,455618.744,455622.299999997,455635.424,458335.292,8,400,,,
trial,html.Screen,4_98_0,2023-09-15T20:06:05.350Z,,0,2,,3253.507999997004,response,ISIC_1644520.JPG,4,ISIC_3207651.JPG,ISIC_1644520.JPG,false,1,keypress(m),500,461589.10000000894,461588.799999997,458318.627,458329.5,458335.292,461601.818,8,400,49,,ISIC_3207651.JPG
break,html.Screen,4_98_1,2023-09-15T20:06:05.351Z,,0,,,NaN,,,,,,false,,,,461590.40000000596,461590.10000000894,,461589.299999997,,461601.818,8,400,,,
break_continue,html.Screen,4_98_2,2023-09-15T20:06:05.351Z,,0,,,NaN,,,,,,false,,,,461590.60000000894,461590.5,,461590.40000000596,,461601.818,8,400,,,
sequence,flow.Sequence,4_98,2023-09-15T20:06:05.351Z,,0,,,3255.207999999984,completion,,,,,false,,,,461590.799999997,461590.5,458318.627,458329.40000000596,458335.292,461601.818,8,400,,,
trial,html.Screen,4_99_0,2023-09-15T20:06:12.270Z,,0,2,,6906.782000008912,response,ISIC_2768787.JPG,5,ISIC_1296490.JPG,ISIC_1296490.JPG,false,0,keypress(z),500,468508.799999997,468508.60000000894,461585.135,461590.90000000596,461601.818,468518.14,8,400,50,,ISIC_2768787.JPG
break,html.Screen,4_99_1,2023-09-15T20:06:22.263Z,,0,,,9999.57799999998,timeout,,,,,false,,,,478502,478501.045,468501.475,468509,468518.14,478517.718,8,400,,,
break_continue,html.Screen,4_99_2,2023-09-15T20:06:26.201Z,,0,,,3897.9820000029868,response,,,,,false,continue,keypress(Space),,482440,482415.700000003,478501.045,478502.10000000894,478517.718,482450.841,8,400,,,
sequence,flow.Sequence,4_99,2023-09-15T20:06:26.201Z,,0,,,20813.882000002952,completion,,,,,false,,,,482440.200000003,482415.700000003,461585.135,461590.90000000596,461601.818,482450.841,8,400,,,
trial,html.Screen,4_100_0,2023-09-15T20:06:31.499Z,,0,3,,5287.458999997005,response,ISIC_1008321.JPG,5,ISIC_2714907.JPG,ISIC_2714907.JPG,false,0,keypress(z),500,487738.5,487738.299999997,482434.176,482440.40000000596,482450.841,487750.584,8,400,1,,ISIC_1008321.JPG
break,html.Screen,4_100_1,2023-09-15T20:06:31.500Z,,0,,,NaN,,,,,,false,,,,487739.60000000894,487739.299999997,,487738.700000003,,487750.584,8,400,,,
break_continue,html.Screen,4_100_2,2023-09-15T20:06:31.501Z,,0,,,NaN,,,,,,false,,,,487739.799999997,487739.799999997,,487739.700000003,,487750.584,8,400,,,
sequence,flow.Sequence,4_100,2023-09-15T20:06:31.501Z,,0,,,5288.958999997005,completion,,,,,false,,,,487740,487739.799999997,482434.176,482440.299999997,482450.841,487750.584,8,400,,,
trial,html.Screen,4_101_0,2023-09-15T20:06:34.566Z,,0,3,,3054.2159999970463,response,ISIC_0066674.JPG,5,ISIC_0046429.JPG,ISIC_0066674.JPG,false,1,keypress(m),500,490805.200000003,490804.799999997,487733.919,487740.10000000894,487750.584,490817.148,8,400,2,,ISIC_0046429.JPG
break,html.Screen,4_101_1,2023-09-15T20:06:34.567Z,,0,,,NaN,,,,,,false,,,,490805.90000000596,490805.799999997,,490805.299999997,,490817.148,8,400,,,
break_continue,html.Screen,4_101_2,2023-09-15T20:06:34.567Z,,0,,,NaN,,,,,,false,,,,490806.200000003,490806.10000000894,,490806,,490817.148,8,400,,,
sequence,flow.Sequence,4_101,2023-09-15T20:06:34.567Z,,0,,,3055.5160000089672,completion,,,,,false,,,,490806.5,490806.10000000894,487733.919,487740.10000000894,487750.584,490817.148,8,400,,,
trial,html.Screen,4_102_0,2023-09-15T20:06:38.137Z,,0,3,,3558.5520000029937,response,ISIC_7505369.JPG,4,ISIC_8685259.JPG,ISIC_7505369.JPG,false,1,keypress(m),500,494375.90000000596,494375.700000003,490800.449,490806.5,490817.148,494383.617,8,400,3,,ISIC_8685259.JPG
break,html.Screen,4_102_1,2023-09-15T20:06:38.138Z,,0,,,NaN,,,,,,false,,,,494376.799999997,494376.60000000894,,494376.10000000894,,494383.617,8,400,,,
break_continue,html.Screen,4_102_2,2023-09-15T20:06:38.138Z,,0,,,NaN,,,,,,false,,,,494377.10000000894,494377,,494377,,494383.617,8,400,,,
sequence,flow.Sequence,4_102,2023-09-15T20:06:38.138Z,,0,,,3559.8520000000135,completion,,,,,false,,,,494377.299999997,494377,490800.449,490806.5,490817.148,494383.617,8,400,,,
trial,html.Screen,4_103_0,2023-09-15T20:06:41.934Z,,0,3,,3789.0830000029528,response,ISIC_0057244.JPG,4,ISIC_0012887.JPG,ISIC_0012887.JPG,false,0,keypress(z),500,498173,498172.700000003,494366.952,494377.5,494383.617,498183.438,8,400,4,,ISIC_0057244.JPG
break,html.Screen,4_103_1,2023-09-15T20:06:41.935Z,,0,,,NaN,,,,,,false,,,,498173.90000000596,498173.60000000894,,498173.200000003,,498183.438,8,400,,,
break_continue,html.Screen,4_103_2,2023-09-15T20:06:41.935Z,,0,,,NaN,,,,,,false,,,,498174.200000003,498174.10000000894,,498174,,498183.438,8,400,,,
sequence,flow.Sequence,4_103,2023-09-15T20:06:41.935Z,,0,,,3790.483000008913,completion,,,,,false,,,,498174.40000000596,498174.10000000894,494366.952,494377.40000000596,494383.617,498183.438,8,400,,,
trial,html.Screen,4_104_0,2023-09-15T20:06:45.070Z,,0,3,,3125.4620000059367,response,ISIC_0063492.JPG,4,ISIC_0025450.JPG,ISIC_0025450.JPG,false,0,keypress(z),500,501309.10000000894,501308.90000000596,498166.773,498174.40000000596,498183.438,501316.62,8,400,5,,ISIC_0063492.JPG
break,html.Screen,4_104_1,2023-09-15T20:06:45.071Z,,0,,,NaN,,,,,,false,,,,501309.90000000596,501309.799999997,,501309.40000000596,,501316.62,8,400,,,
break_continue,html.Screen,4_104_2,2023-09-15T20:06:45.071Z,,0,,,NaN,,,,,,false,,,,501310.299999997,501310.10000000894,,501310,,501316.62,8,400,,,
sequence,flow.Sequence,4_104,2023-09-15T20:06:45.071Z,,0,,,3126.662000008917,completion,,,,,false,,,,501310.40000000596,501310.10000000894,498166.773,498174.40000000596,498183.438,501316.62,8,400,,,
trial,html.Screen,4_105_0,2023-09-15T20:06:53.281Z,,0,3,,8203.080000002985,response,ISIC_1952599.JPG,4,ISIC_0027306.JPG,ISIC_1952599.JPG,false,1,keypress(m),500,509520.200000003,509519.700000003,501299.955,501310.5,501316.62,509532.94,8,400,6,,ISIC_0027306.JPG
break,html.Screen,4_105_1,2023-09-15T20:06:53.282Z,,0,,,NaN,,,,,,false,,,,509521,509520.700000003,,509520.299999997,,509532.94,8,400,,,
break_continue,html.Screen,4_105_2,2023-09-15T20:06:53.282Z,,0,,,NaN,,,,,,false,,,,509521.299999997,509521.10000000894,,509521,,509532.94,8,400,,,
sequence,flow.Sequence,4_105,2023-09-15T20:06:53.282Z,,0,,,8204.480000008945,completion,,,,,false,,,,509521.40000000596,509521.10000000894,501299.955,501310.5,501316.62,509532.94,8,400,,,
trial,html.Screen,4_106_0,2023-09-15T20:06:56.452Z,,0,3,,3157.960000005958,response,ISIC_6566042.JPG,4,ISIC_8615491.JPG,ISIC_8615491.JPG,false,0,keypress(z),500,512691.299999997,512690.90000000596,509516.252,509521.60000000894,509532.94,512699.432,8,400,7,,ISIC_6566042.JPG
break,html.Screen,4_106_1,2023-09-15T20:06:56.453Z,,0,,,NaN,,,,,,false,,,,512692.40000000596,512692.10000000894,,512691.5,,512699.432,8,400,,,
break_continue,html.Screen,4_106_2,2023-09-15T20:06:56.453Z,,0,,,NaN,,,,,,false,,,,512692.700000003,512692.60000000894,,512692.5,,512699.432,8,400,,,
sequence,flow.Sequence,4_106,2023-09-15T20:06:56.454Z,,0,,,3159.6600000089384,completion,,,,,false,,,,512692.90000000596,512692.60000000894,509516.252,509521.60000000894,509532.94,512699.432,8,400,,,
trial,html.Screen,4_107_0,2023-09-15T20:06:59.598Z,,0,3,,3137.468000005989,response,ISIC_0009006.JPG,5,ISIC_0014127.JPG,ISIC_0009006.JPG,false,1,keypress(m),500,515837.299999997,515836.90000000596,512682.767,512692.90000000596,512699.432,515849.325,8,400,8,,ISIC_0014127.JPG
break,html.Screen,4_107_1,2023-09-15T20:06:59.599Z,,0,,,NaN,,,,,,false,,,,515838.200000003,515838,,515837.40000000596,,515849.325,8,400,,,
break_continue,html.Screen,4_107_2,2023-09-15T20:06:59.599Z,,0,,,NaN,,,,,,false,,,,515838.5,515838.40000000596,,515838.299999997,,515849.325,8,400,,,
sequence,flow.Sequence,4_107,2023-09-15T20:06:59.599Z,,0,,,3138.968000005989,completion,,,,,false,,,,515838.700000003,515838.40000000596,512682.767,512692.90000000596,512699.432,515849.325,8,400,,,
trial,html.Screen,4_108_0,2023-09-15T20:07:07.846Z,,0,3,,8235.474999997008,response,ISIC_0026009.JPG,4,ISIC_0057481.JPG,ISIC_0026009.JPG,false,1,keypress(m),500,524085.10000000894,524084.799999997,515832.628,515838.799999997,515849.325,524098.932,8,400,9,,ISIC_0057481.JPG
break,html.Screen,4_108_1,2023-09-15T20:07:07.847Z,,0,,,NaN,,,,,,false,,,,524086.10000000894,524085.90000000596,,524085.40000000596,,524098.932,8,400,,,
break_continue,html.Screen,4_108_2,2023-09-15T20:07:07.847Z,,0,,,NaN,,,,,,false,,,,524086.5,524086.40000000596,,524086.299999997,,524098.932,8,400,,,
sequence,flow.Sequence,4_108,2023-09-15T20:07:07.847Z,,0,,,8237.075000005949,completion,,,,,false,,,,524086.700000003,524086.40000000596,515832.628,515838.700000003,515849.325,524098.932,8,400,,,
trial,html.Screen,4_109_0,2023-09-15T20:07:13.257Z,,0,3,,5396.968000005989,response,ISIC_1869829.JPG,4,ISIC_0067614.JPG,ISIC_1869829.JPG,false,1,keypress(m),500,529496.1000000089,529495.900000006,524082.245,524086.799999997,524098.932,529498.664,8,400,10,,ISIC_0067614.JPG
break,html.Screen,4_109_1,2023-09-15T20:07:13.258Z,,0,,,NaN,,,,,,false,,,,529497,529496.700000003,,529496.299999997,,529498.664,8,400,,,
break_continue,html.Screen,4_109_2,2023-09-15T20:07:13.258Z,,0,,,NaN,,,,,,false,,,,529497.400000006,529497.299999997,,529497.1000000089,,529498.664,8,400,,,
sequence,flow.Sequence,4_109,2023-09-15T20:07:13.258Z,,0,,,5398.367999997048,completion,,,,,false,,,,529497.5,529497.299999997,524082.245,524086.700000003,524098.932,529498.664,8,400,,,
trial,html.Screen,4_110_0,2023-09-15T20:07:17.724Z,,0,3,,4464.13599999703,response,ISIC_0060660.JPG,4,ISIC_9764973.JPG,ISIC_9764973.JPG,false,0,keypress(z),500,533963,533962.799999997,529481.999,529497.6000000089,529498.664,533981.819,8,400,11,,ISIC_0060660.JPG
break,html.Screen,4_110_1,2023-09-15T20:07:17.725Z,,0,,,NaN,,,,,,false,,,,533963.700000003,533963.700000003,,533963.299999997,,533981.819,8,400,,,
break_continue,html.Screen,4_110_2,2023-09-15T20:07:17.725Z,,0,,,NaN,,,,,,false,,,,533964.1000000089,533964,,533963.799999997,,533981.819,8,400,,,
sequence,flow.Sequence,4_110,2023-09-15T20:07:17.725Z,,0,,,4465.33600000001,completion,,,,,false,,,,533964.299999997,533964,529481.999,529497.6000000089,529498.664,533981.819,8,400,,,
trial,html.Screen,4_111_0,2023-09-15T20:07:21.487Z,,0,3,,3743.8810000029625,response,ISIC_6562871.JPG,4,ISIC_0482585.JPG,ISIC_0482585.JPG,false,0,keypress(z),500,537726,537725.700000003,533965.129,533964.6000000089,533981.819,537731.616,8,400,12,,ISIC_6562871.JPG
break,html.Screen,4_111_1,2023-09-15T20:07:21.487Z,,0,,,NaN,,,,,,false,,,,537726.700000003,537726.6000000089,,537726.200000003,,537731.616,8,400,,,
break_continue,html.Screen,4_111_2,2023-09-15T20:07:21.488Z,,0,,,NaN,,,,,,false,,,,537727,537727,,537726.799999997,,537731.616,8,400,,,
sequence,flow.Sequence,4_111,2023-09-15T20:07:21.488Z,,0,,,3745.1809999999823,completion,,,,,false,,,,537727.200000003,537727,533965.129,533964.5,533981.819,537731.616,8,400,,,
trial,html.Screen,4_112_0,2023-09-15T20:07:27.890Z,,0,3,,6397.084000002942,response,ISIC_2772616.JPG,4,ISIC_5306427.JPG,ISIC_5306427.JPG,false,0,keypress(z),500,544128.900000006,544128.700000003,537714.951,537727.400000006,537731.616,544131.327,8,400,13,,ISIC_2772616.JPG
break,html.Screen,4_112_1,2023-09-15T20:07:27.890Z,,0,,,NaN,,,,,,false,,,,544129.799999997,544129.5,,544129.1000000089,,544131.327,8,400,,,
break_continue,html.Screen,4_112_2,2023-09-15T20:07:27.891Z,,0,,,NaN,,,,,,false,,,,544130.1000000089,544130,,544129.900000006,,544131.327,8,400,,,
sequence,flow.Sequence,4_112,2023-09-15T20:07:27.891Z,,0,,,6398.383999999962,completion,,,,,false,,,,544130.200000003,544130,537714.951,537727.400000006,537731.616,544131.327,8,400,,,
trial,html.Screen,4_113_0,2023-09-15T20:07:32.676Z,,0,3,,4784.172999999952,response,ISIC_0011422.JPG,4,ISIC_0069486.JPG,ISIC_0069486.JPG,false,0,keypress(z),500,548915.799999997,548915.5,544114.662,544130.400000006,544131.327,548931.131,8,400,14,,ISIC_0011422.JPG
break,html.Screen,4_113_1,2023-09-15T20:07:32.677Z,,0,,,NaN,,,,,,false,,,,548916.400000006,548916.299999997,,548915.900000006,,548931.131,8,400,,,
break_continue,html.Screen,4_113_2,2023-09-15T20:07:32.678Z,,0,,,NaN,,,,,,false,,,,548916.799999997,548916.700000003,,548916.6000000089,,548931.131,8,400,,,
sequence,flow.Sequence,4_113,2023-09-15T20:07:32.678Z,,0,,,4785.373000002932,completion,,,,,false,,,,548916.900000006,548916.700000003,544114.662,544130.400000006,544131.327,548931.131,8,400,,,
trial,html.Screen,4_114_0,2023-09-15T20:07:36.190Z,,0,3,,3497.6689999969676,response,ISIC_3950753.JPG,5,ISIC_0013491.JPG,ISIC_3950753.JPG,false,1,keypress(m),500,552429.200000003,552428.799999997,548914.439,548917,548931.131,552430.934,8,400,15,,ISIC_0013491.JPG
break,html.Screen,4_114_1,2023-09-15T20:07:36.191Z,,0,,,NaN,,,,,,false,,,,552430.299999997,552430.1000000089,,552429.299999997,,552430.934,8,400,,,
break_continue,html.Screen,4_114_2,2023-09-15T20:07:36.191Z,,0,,,NaN,,,,,,false,,,,552430.6000000089,552430.6000000089,,552430.5,,552430.934,8,400,,,
sequence,flow.Sequence,4_114,2023-09-15T20:07:36.192Z,,0,,,3499.4690000088885,completion,,,,,false,,,,552430.799999997,552430.6000000089,548914.439,548917,548931.131,552430.934,8,400,,,
trial,html.Screen,4_115_0,2023-09-15T20:07:40.126Z,,0,3,,3933.966000005952,response,ISIC_0068100.JPG,5,ISIC_0011894.JPG,ISIC_0068100.JPG,false,1,keypress(m),500,556365.200000003,556364.900000006,552414.269,552430.900000006,552430.934,556380.779,8,400,16,,ISIC_0011894.JPG
break,html.Screen,4_115_1,2023-09-15T20:07:40.127Z,,0,,,NaN,,,,,,false,,,,556366.1000000089,556365.799999997,,556365.400000006,,556380.779,8,400,,,
break_continue,html.Screen,4_115_2,2023-09-15T20:07:40.127Z,,0,,,NaN,,,,,,false,,,,556366.299999997,556366.200000003,,556366.1000000089,,556380.779,8,400,,,
sequence,flow.Sequence,4_115,2023-09-15T20:07:40.127Z,,0,,,3935.266000002972,completion,,,,,false,,,,556366.5,556366.200000003,552414.269,552430.799999997,552430.934,556380.779,8,400,,,
trial,html.Screen,4_116_0,2023-09-15T20:07:43.638Z,,0,3,,3496.12100000598,response,ISIC_0010426.JPG,4,ISIC_4890201.JPG,ISIC_4890201.JPG,false,0,keypress(z),500,559877.200000003,559876.900000006,556364.09,556366.700000003,556380.779,559880.592,8,400,17,,ISIC_0010426.JPG
break,html.Screen,4_116_1,2023-09-15T20:07:43.639Z,,0,,,NaN,,,,,,false,,,,559878.5,559878.299999997,,559877.400000006,,559880.592,8,400,,,
break_continue,html.Screen,4_116_2,2023-09-15T20:07:43.639Z,,0,,,NaN,,,,,,false,,,,559878.799999997,559878.700000003,,559878.6000000089,,559880.592,8,400,,,
sequence,flow.Sequence,4_116,2023-09-15T20:07:43.640Z,,0,,,3497.921000003,completion,,,,,false,,,,559879,559878.700000003,556364.09,556366.6000000089,556380.779,559880.592,8,400,,,
trial,html.Screen,4_117_0,2023-09-15T20:07:47.433Z,,0,3,,3791.6080000030342,response,ISIC_0062058.JPG,5,ISIC_7728263.JPG,ISIC_7728263.JPG,false,0,keypress(z),500,563672.400000006,563672.200000003,559863.927,559879,559880.592,563680.422,8,400,18,,ISIC_0062058.JPG
break,html.Screen,4_117_1,2023-09-15T20:07:47.434Z,,0,,,NaN,,,,,,false,,,,563673.400000006,563673,,563672.6000000089,,563680.422,8,400,,,
break_continue,html.Screen,4_117_2,2023-09-15T20:07:47.434Z,,0,,,NaN,,,,,,false,,,,563673.700000003,563673.6000000089,,563673.5,,563680.422,8,400,,,
sequence,flow.Sequence,4_117,2023-09-15T20:07:47.435Z,,0,,,3793.0080000089947,completion,,,,,false,,,,563673.799999997,563673.6000000089,559863.927,559879,559880.592,563680.422,8,400,,,
trial,html.Screen,4_118_0,2023-09-15T20:07:52.252Z,,0,3,,4810.5779999999795,response,ISIC_9559922.JPG,4,ISIC_7798358.JPG,ISIC_9559922.JPG,false,1,keypress(m),500,568491.299999997,568491,563663.757,563673.900000006,563680.422,568496.861,8,400,19,,ISIC_7798358.JPG
break,html.Screen,4_118_1,2023-09-15T20:07:52.253Z,,0,,,NaN,,,,,,false,,,,568492.299999997,568492.200000003,,568491.5,,568496.861,8,400,,,
break_continue,html.Screen,4_118_2,2023-09-15T20:07:52.253Z,,0,,,NaN,,,,,,false,,,,568492.6000000089,568492.5,,568492.400000006,,568496.861,8,400,,,
sequence,flow.Sequence,4_118,2023-09-15T20:07:52.254Z,,0,,,4812.0779999999795,completion,,,,,false,,,,568492.799999997,568492.5,563663.757,563673.900000006,563680.422,568496.861,8,400,,,
trial,html.Screen,4_119_0,2023-09-15T20:07:56.934Z,,0,3,,4676.039000005927,response,ISIC_5706908.JPG,5,ISIC_0759561.JPG,ISIC_5706908.JPG,false,1,keypress(m),500,573173.200000003,573172.900000006,568480.196,568493,568496.861,573179.978,8,400,20,,ISIC_0759561.JPG
break,html.Screen,4_119_1,2023-09-15T20:07:56.935Z,,0,,,NaN,,,,,,false,,,,573174.200000003,573174,,573173.400000006,,573179.978,8,400,,,
break_continue,html.Screen,4_119_2,2023-09-15T20:07:56.935Z,,0,,,NaN,,,,,,false,,,,573174.6000000089,573174.5,,573174.400000006,,573179.978,8,400,,,
sequence,flow.Sequence,4_119,2023-09-15T20:07:56.935Z,,0,,,4677.6389999999665,completion,,,,,false,,,,573174.700000003,573174.5,568480.196,568492.799999997,568496.861,573179.978,8,400,,,
trial,html.Screen,4_120_0,2023-09-15T20:08:01.065Z,,0,3,,4123.821999997017,response,ISIC_4026019.JPG,4,ISIC_6208508.JPG,ISIC_4026019.JPG,false,1,keypress(m),500,577304.1000000089,577303.799999997,573163.313,573174.799999997,573179.978,577313.111,8,400,21,,ISIC_6208508.JPG
break,html.Screen,4_120_1,2023-09-15T20:08:01.066Z,,0,,,NaN,,,,,,false,,,,577304.900000006,577304.700000003,,577304.299999997,,577313.111,8,400,,,
break_continue,html.Screen,4_120_2,2023-09-15T20:08:01.066Z,,0,,,NaN,,,,,,false,,,,577305.200000003,577305.1000000089,,577305,,577313.111,8,400,,,
sequence,flow.Sequence,4_120,2023-09-15T20:08:01.066Z,,0,,,4125.122000008938,completion,,,,,false,,,,577305.299999997,577305.1000000089,573163.313,573174.799999997,573179.978,577313.111,8,400,,,
trial,html.Screen,4_121_0,2023-09-15T20:08:04.038Z,,0,3,,2963.5890000029467,response,ISIC_9505595.JPG,5,ISIC_9099430.JPG,ISIC_9505595.JPG,false,1,keypress(m),500,580277,580276.700000003,577296.446,577305.400000006,577313.111,580279.649,8,400,22,,ISIC_9099430.JPG
break,html.Screen,4_121_1,2023-09-15T20:08:04.039Z,,0,,,NaN,,,,,,false,,,,580278.200000003,580278,,580277.200000003,,580279.649,8,400,,,
break_continue,html.Screen,4_121_2,2023-09-15T20:08:04.039Z,,0,,,NaN,,,,,,false,,,,580278.5,580278.400000006,,580278.299999997,,580279.649,8,400,,,
sequence,flow.Sequence,4_121,2023-09-15T20:08:04.039Z,,0,,,2965.289000005927,completion,,,,,false,,,,580278.6000000089,580278.400000006,577296.446,577305.400000006,577313.111,580279.649,8,400,,,
trial,html.Screen,4_122_0,2023-09-15T20:08:06.825Z,,0,3,,2784.351000000024,response,ISIC_0058079.JPG,4,ISIC_0884550.JPG,ISIC_0884550.JPG,false,0,keypress(z),500,583064.299999997,583064,580262.984,580278.799999997,580279.649,583096.177,8,400,23,,ISIC_0058079.JPG
break,html.Screen,4_122_1,2023-09-15T20:08:06.826Z,,0,,,NaN,,,,,,false,,,,583064.900000006,583064.799999997,,583064.5,,583096.177,8,400,,,
break_continue,html.Screen,4_122_2,2023-09-15T20:08:06.826Z,,0,,,NaN,,,,,,false,,,,583065.299999997,583065.1000000089,,583065.1000000089,,583096.177,8,400,,,
sequence,flow.Sequence,4_122,2023-09-15T20:08:06.826Z,,0,,,2785.451000008965,completion,,,,,false,,,,583065.400000006,583065.1000000089,580262.984,580278.700000003,580279.649,583096.177,8,400,,,
trial,html.Screen,4_123_0,2023-09-15T20:08:09.606Z,,0,3,,2748.7230000059353,response,ISIC_0010313.JPG,4,ISIC_0011717.JPG,ISIC_0011717.JPG,false,0,keypress(z),500,585845.200000003,585844.900000006,583079.512,583065.5,583096.177,585862.746,8,400,24,,ISIC_0010313.JPG
break,html.Screen,4_123_1,2023-09-15T20:08:09.607Z,,0,,,NaN,,,,,,false,,,,585846.200000003,585846,,585845.400000006,,585862.746,8,400,,,
break_continue,html.Screen,4_123_2,2023-09-15T20:08:09.607Z,,0,,,NaN,,,,,,false,,,,585846.6000000089,585846.5,,585846.299999997,,585862.746,8,400,,,
sequence,flow.Sequence,4_123,2023-09-15T20:08:09.607Z,,0,,,2750.322999999975,completion,,,,,false,,,,585846.799999997,585846.5,583079.512,583065.5,583096.177,585862.746,8,400,,,
trial,html.Screen,4_124_0,2023-09-15T20:08:12.830Z,,0,3,,3206.053999996977,response,ISIC_0025814.JPG,5,ISIC_0032722.JPG,ISIC_0025814.JPG,false,1,keypress(m),500,589069.200000003,589068.799999997,585846.053,585846.799999997,585862.746,589079.244,8,400,25,,ISIC_0032722.JPG
break,html.Screen,4_124_1,2023-09-15T20:08:12.831Z,,0,,,NaN,,,,,,false,,,,589070.400000006,589070.1000000089,,589069.400000006,,589079.244,8,400,,,
break_continue,html.Screen,4_124_2,2023-09-15T20:08:12.831Z,,0,,,NaN,,,,,,false,,,,589070.700000003,589070.6000000089,,589070.5,,589079.244,8,400,,,
sequence,flow.Sequence,4_124,2023-09-15T20:08:12.832Z,,0,,,3207.854000008898,completion,,,,,false,,,,589070.799999997,589070.6000000089,585846.053,585846.799999997,585862.746,589079.244,8,400,,,
trial,html.Screen,4_125_0,2023-09-15T20:08:19.649Z,,0,3,,6808.856000008993,response,ISIC_8560106.JPG,5,ISIC_0072393.JPG,ISIC_8560106.JPG,false,1,keypress(m),500,595888.400000006,595888.1000000089,589062.579,589070.900000006,589079.244,595912.28,8,400,26,,ISIC_0072393.JPG
break,html.Screen,4_125_1,2023-09-15T20:08:19.650Z,,0,,,NaN,,,,,,false,,,,595889.400000006,595889.200000003,,595888.6000000089,,595912.28,8,400,,,
break_continue,html.Screen,4_125_2,2023-09-15T20:08:19.650Z,,0,,,NaN,,,,,,false,,,,595889.700000003,595889.6000000089,,595889.5,,595912.28,8,400,,,
sequence,flow.Sequence,4_125,2023-09-15T20:08:19.651Z,,0,,,6810.356000008993,completion,,,,,false,,,,595889.799999997,595889.6000000089,589062.579,589070.900000006,589079.244,595912.28,8,400,,,
trial,html.Screen,4_126_0,2023-09-15T20:08:25.669Z,,0,3,,5995.820000008913,response,ISIC_1402840.JPG,5,ISIC_9476244.JPG,ISIC_1402840.JPG,false,1,keypress(m),500,601908.400000006,601908.1000000089,595895.596,595890,595912.28,601911.979,8,400,27,,ISIC_9476244.JPG
break,html.Screen,4_126_1,2023-09-15T20:08:25.670Z,,0,,,NaN,,,,,,false,,,,601909.5,601909.299999997,,601908.6000000089,,601911.979,8,400,,,
