sender,sender_type,sender_id,timestamp,meta,,blockNo,condition,duration,ended_on,img_left,img_reveal,img_right,loser,practice,response,response_action,selection_duration,time_commit,time_end,time_render,time_run,time_show,time_switch,total_blocks,total_trials,trialNo,url,winner
informed_consent,html.Screen,0,2023-11-02T01:49:31.888Z,"{""labjs_version"":""20.2.4"",""labjs_build"":{""flavor"":""production"",""commit"":""f5b4a49f956347addd546a832a3327688c2c0fef""},""location"":""https://run.pavlovia.org/MurrayBennett/melanoma-2afc/?participant=66295&platform=sona"",""userAgent"":""Mozilla/5.0 (Macintosh; Intel Mac OS X 10_15_7) AppleWebKit/537.36 (KHTML, like Gecko) Chrome/118.0.0.0 Safari/537.36"",""platform"":""MacIntel"",""language"":""en-US"",""locale"":""en-US"",""timeZone"":""America/Chicago"",""timezoneOffset"":300,""screen_width"":1680,""screen_height"":1050,""scroll_width"":1680,""scroll_height"":809,""window_innerWidth"":1680,""window_innerHeight"":857,""devicePixelRatio"":2}",,,,2521.0929999761584,response,,,,,,consent,click button,,4919.800000011921,4918.399999976158,2380.641,2370.5,2397.307,4930.539,,,,"{""participant"":""66295"",""platform"":""sona""}",
Welcome,html.Screen,1,2023-11-02T01:49:34.856Z,,,,symmetry,2954.561000023842,response,,,,,,continue,click button,,7887.5,7885.100000023842,4913.873,4920,4930.539,7897.087,,,,,
trial,html.Screen,2_0_0,2023-11-02T01:49:46.352Z,,0,0,,11516.654000000002,timeout,ISIC_0069348.JPG,,ISIC_6997061.JPG,,true,,,500,19383.899999976158,19383.399999976158,7880.421,7887.699999988079,7897.087,19413.741,1,6,1,,
sequence,flow.Sequence,2_0,2023-11-02T01:49:46.353Z,,0,,,11486.312999976159,completion,,,,,true,,,,19384.30000001192,19383.399999976158,7880.421,7887.699999988079,7897.087,19413.741,1,6,,,
trial,html.Screen,2_1_0,2023-11-02T01:49:57.384Z,,0,0,,11001.55900001192,response,ISIC_0009529.JPG,,ISIC_0057368.JPG,ISIC_0057368.JPG,true,0,keypress(z),500,30415.5,30415.30000001192,19397.075,19384.5,19413.741,30430.371,1,6,2,,ISIC_0009529.JPG
sequence,flow.Sequence,2_1,2023-11-02T01:49:57.384Z,,0,,,11001.55900001192,completion,,,,,true,,,,30415.600000023842,30415.30000001192,19397.075,19384.5,19413.741,30430.371,1,6,,,
trial,html.Screen,2_2_0,2023-11-02T01:50:01.580Z,,0,0,,4180.629000000001,response,ISIC_9758671.JPG,,ISIC_0064954.JPG,ISIC_9758671.JPG,true,1,keypress(m),500,34611.89999997616,34611,30413.705,30415.69999998808,30430.371,34614.023,1,6,3,,ISIC_0064954.JPG
sequence,flow.Sequence,2_2,2023-11-02T01:50:01.581Z,,0,,,4180.629000000001,completion,,,,,true,,,,34612.39999997616,34611,30413.705,30415.69999998808,30430.371,34614.023,1,6,,,
trial,html.Screen,2_3_0,2023-11-02T01:50:04.897Z,,0,0,,3314.176999988078,response,ISIC_0005785.JPG,,ISIC_0000080.JPG,ISIC_0005785.JPG,true,1,keypress(m),500,37928.69999998808,37928.19999998808,34597.357,34612.69999998808,34614.023,37930.557,1,6,4,,ISIC_0000080.JPG
sequence,flow.Sequence,2_3,2023-11-02T01:50:04.898Z,,0,,,3314.176999988078,completion,,,,,true,,,,37929.30000001192,37928.19999998808,34597.357,34612.60000002384,34614.023,37930.557,1,6,,,
trial,html.Screen,2_4_0,2023-11-02T01:50:07.799Z,,0,0,,2899.6429999880784,response,ISIC_5390060.JPG,,ISIC_7944028.JPG,ISIC_5390060.JPG,true,1,keypress(m),500,40830.89999997616,40830.19999998808,37913.891,37929.60000002384,37930.557,40847.107,1,6,5,,ISIC_7944028.JPG
sequence,flow.Sequence,2_4,2023-11-02T01:50:07.800Z,,0,,,2899.6429999880784,completion,,,,,true,,,,40831.39999997616,40830.19999998808,37913.891,37929.5,37930.557,40847.107,1,6,,,
trial,html.Screen,2_5_0,2023-11-02T01:50:11.243Z,,0,0,,3427.3929999999964,response,ISIC_0794216.JPG,,ISIC_0010188.JPG,ISIC_0010188.JPG,true,0,keypress(z),500,44275.10000002384,44274.5,40830.441,40831.69999998808,40847.107,44280.303,1,6,6,,ISIC_0794216.JPG
sequence,flow.Sequence,2_5,2023-11-02T01:50:11.244Z,,0,,,3427.3929999999964,completion,,,,,true,,,,44275.60000002384,44274.5,40830.441,40831.5,40847.107,44280.303,1,6,,,
loop,flow.Loop,2,2023-11-02T01:50:11.244Z,,,,,36377.413,completion,,,,,true,,,,44276,44274.5,7880.421,7887.699999988079,7897.087,44280.303,1,6,,,
exp_instructions,html.Screen,3,2023-11-02T01:50:13.625Z,,,,,2371.697,response,,,,,,continue,keypress(Space),,46657.19999998808,46652,44263.637,44276.10000002384,44280.303,46663.945,,,,,
trial,html.Screen,4_0_0,2023-11-02T01:50:18.576Z,,0,1,,4943.355000011921,response,ISIC_9445196.JPG,6,ISIC_5666345.JPG,ISIC_5666345.JPG,false,0,keypress(z),500,51607.80000001192,51607.30000001192,46647.279,46657.5,46663.945,51613.747,8,400,1,,ISIC_9445196.JPG
break,html.Screen,4_0_1,2023-11-02T01:50:18.577Z,,0,,,NaN,,,,,,false,,,,51609.19999998808,51608.89999997616,,51608.10000002384,,51613.747,8,400,,,
break_continue,html.Screen,4_0_2,2023-11-02T01:50:18.578Z,,0,,,NaN,,,,,,false,,,,51609.89999997616,51609.60000002384,,51609.19999998808,,51613.747,8,400,,,
sequence,flow.Sequence,4_0,2023-11-02T01:50:18.578Z,,0,,,4945.655000023842,completion,,,,,false,,,,51610,51609.60000002384,46647.279,46657.5,46663.945,51613.747,8,400,,,
trial,html.Screen,4_1_0,2023-11-02T01:50:21.591Z,,0,1,,3008.452999988076,response,ISIC_3666094.JPG,6,ISIC_4088647.JPG,ISIC_3666094.JPG,false,1,keypress(m),500,54622.69999998808,54622.19999998808,51597.081,51610.10000002384,51613.747,54630.293,8,400,2,,ISIC_4088647.JPG
break,html.Screen,4_1_1,2023-11-02T01:50:21.592Z,,0,,,NaN,,,,,,false,,,,54623.69999998808,54623.60000002384,,54623.10000002384,,54630.293,8,400,,,
break_continue,html.Screen,4_1_2,2023-11-02T01:50:21.592Z,,0,,,NaN,,,,,,false,,,,54624,54623.89999997616,,54623.89999997616,,54630.293,8,400,,,
sequence,flow.Sequence,4_1,2023-11-02T01:50:21.593Z,,0,,,3010.152999976155,completion,,,,,false,,,,54624.30000001192,54623.89999997616,51597.081,51610.10000002384,51613.747,54630.293,8,400,,,
trial,html.Screen,4_2_0,2023-11-02T01:50:25.166Z,,0,1,,3566.807000023844,response,ISIC_6125358.JPG,5,ISIC_4964478.JPG,ISIC_4964478.JPG,false,0,keypress(z),500,58197.60000002384,58197.10000002384,54613.627,54624.39999997616,54630.293,58213.892,8,400,3,,ISIC_6125358.JPG
break,html.Screen,4_2_1,2023-11-02T01:50:25.167Z,,0,,,NaN,,,,,,false,,,,58198.60000002384,58198.39999997616,,58197.89999997616,,58213.892,8,400,,,
break_continue,html.Screen,4_2_2,2023-11-02T01:50:25.167Z,,0,,,NaN,,,,,,false,,,,58198.89999997616,58198.80000001192,,58198.80000001192,,58213.892,8,400,,,
sequence,flow.Sequence,4_2,2023-11-02T01:50:25.167Z,,0,,,3568.507000011923,completion,,,,,false,,,,58199.19999998808,58198.80000001192,54613.627,54624.39999997616,54630.293,58213.892,8,400,,,
trial,html.Screen,4_3_0,2023-11-02T01:50:28.631Z,,0,1,,3448.0079999761583,response,ISIC_9672482.JPG,9,ISIC_5150200.JPG,ISIC_5150200.JPG,false,0,keypress(z),500,61662.39999997616,61661.89999997616,58197.226,58199.19999998808,58213.892,61663.754,8,400,4,,ISIC_9672482.JPG
break,html.Screen,4_3_1,2023-11-02T01:50:28.632Z,,0,,,NaN,,,,,,false,,,,61663.39999997616,61663.19999998808,,61662.60000002384,,61663.754,8,400,,,
break_continue,html.Screen,4_3_2,2023-11-02T01:50:28.632Z,,0,,,NaN,,,,,,false,,,,61663.69999998808,61663.60000002384,,61663.5,,61663.754,8,400,,,
sequence,flow.Sequence,4_3,2023-11-02T01:50:28.632Z,,0,,,3449.708000023842,completion,,,,,false,,,,61663.89999997616,61663.60000002384,58197.226,58199.19999998808,58213.892,61663.754,8,400,,,
trial,html.Screen,4_4_0,2023-11-02T01:50:31.533Z,,0,1,,2900.6459999761573,response,ISIC_0003113.JPG,5,ISIC_1515947.JPG,ISIC_0003113.JPG,false,1,keypress(m),500,64565,64564.39999997616,61647.088,61664,61663.754,64580.304,8,400,5,,ISIC_1515947.JPG
break,html.Screen,4_4_1,2023-11-02T01:50:31.534Z,,0,,,NaN,,,,,,false,,,,64566.10000002384,64565.80000001192,,64565.39999997616,,64580.304,8,400,,,
break_continue,html.Screen,4_4_2,2023-11-02T01:50:31.535Z,,0,,,NaN,,,,,,false,,,,64566.39999997616,64566.30000001192,,64566.19999998808,,64580.304,8,400,,,
sequence,flow.Sequence,4_4,2023-11-02T01:50:31.535Z,,0,,,2902.54600001192,completion,,,,,false,,,,64566.60000002384,64566.30000001192,61647.088,61664,61663.754,64580.304,8,400,,,
trial,html.Screen,4_5_0,2023-11-02T01:50:35.649Z,,0,1,,4100.395999988083,response,ISIC_0056047.JPG,7,ISIC_0056141.JPG,ISIC_0056141.JPG,false,0,keypress(z),500,68681.19999998808,68680.69999998808,64563.638,64566.69999998808,64580.304,68697.248,8,400,6,,ISIC_0056047.JPG
break,html.Screen,4_5_1,2023-11-02T01:50:35.650Z,,0,,,NaN,,,,,,false,,,,68682.19999998808,68682,,68681.5,,68697.248,8,400,,,
break_continue,html.Screen,4_5_2,2023-11-02T01:50:35.651Z,,0,,,NaN,,,,,,false,,,,68682.60000002384,68682.39999997616,,68682.30000001192,,68697.248,8,400,,,
sequence,flow.Sequence,4_5,2023-11-02T01:50:35.651Z,,0,,,4102.095999976162,completion,,,,,false,,,,68682.69999998808,68682.39999997616,64563.638,64566.69999998808,64580.304,68697.248,8,400,,,
trial,html.Screen,4_6_0,2023-11-02T01:50:39.334Z,,0,1,,3667.951999988072,response,ISIC_0001129.JPG,8,ISIC_3556980.JPG,ISIC_3556980.JPG,false,0,keypress(z),500,72365.69999998808,72365.19999998808,68680.582,68682.89999997616,68697.248,72380.434,8,400,7,,ISIC_0001129.JPG
break,html.Screen,4_6_1,2023-11-02T01:50:39.335Z,,0,,,NaN,,,,,,false,,,,72366.69999998808,72366.5,,72365.89999997616,,72380.434,8,400,,,
break_continue,html.Screen,4_6_2,2023-11-02T01:50:39.335Z,,0,,,NaN,,,,,,false,,,,72367,72366.89999997616,,72366.80000001192,,72380.434,8,400,,,
sequence,flow.Sequence,4_6,2023-11-02T01:50:39.336Z,,0,,,3669.6519999761513,completion,,,,,false,,,,72367.30000001192,72366.89999997616,68680.582,68682.89999997616,68697.248,72380.434,8,400,,,
trial,html.Screen,4_7_0,2023-11-02T01:50:43.282Z,,0,1,,3932.666000023848,response,ISIC_8692218.JPG,5,ISIC_9406755.JPG,ISIC_9406755.JPG,false,0,keypress(z),500,76313.5,76313.10000002384,72363.768,72367.5,72380.434,76330.681,8,400,8,,ISIC_8692218.JPG
break,html.Screen,4_7_1,2023-11-02T01:50:43.283Z,,0,,,NaN,,,,,,false,,,,76314.69999998808,76314.19999998808,,76313.80000001192,,76330.681,8,400,,,
break_continue,html.Screen,4_7_2,2023-11-02T01:50:43.284Z,,0,,,NaN,,,,,,false,,,,76315.5,76315.39999997616,,76315.30000001192,,76330.681,8,400,,,
sequence,flow.Sequence,4_7,2023-11-02T01:50:43.284Z,,0,,,3934.9659999761643,completion,,,,,false,,,,76315.69999998808,76315.39999997616,72363.768,72367.39999997616,72380.434,76330.681,8,400,,,
trial,html.Screen,4_8_0,2023-11-02T01:50:46.489Z,,0,1,,3189.819000000003,response,ISIC_0231167.JPG,8,ISIC_0033204.JPG,ISIC_0033204.JPG,false,0,keypress(z),500,79520.89999997616,79520.5,76314.015,76315.89999997616,76330.681,79530.553,8,400,9,,ISIC_0231167.JPG
break,html.Screen,4_8_1,2023-11-02T01:50:46.490Z,,0,,,NaN,,,,,,false,,,,79522,79521.69999998808,,79521.19999998808,,79530.553,8,400,,,
break_continue,html.Screen,4_8_2,2023-11-02T01:50:46.491Z,,0,,,NaN,,,,,,false,,,,79522.30000001192,79522.19999998808,,79522.10000002384,,79530.553,8,400,,,
sequence,flow.Sequence,4_8,2023-11-02T01:50:46.491Z,,0,,,3191.518999988082,completion,,,,,false,,,,79522.39999997616,79522.19999998808,76314.015,76315.69999998808,76330.681,79530.553,8,400,,,
trial,html.Screen,4_9_0,2023-11-02T01:50:49.409Z,,0,1,,2909.547000023842,response,ISIC_7633960.JPG,6,ISIC_5510604.JPG,ISIC_7633960.JPG,false,1,keypress(m),500,82440.5,82440.10000002384,79513.887,79522.69999998808,79530.553,82447.103,8,400,10,,ISIC_5510604.JPG
break,html.Screen,4_9_1,2023-11-02T01:50:49.410Z,,0,,,NaN,,,,,,false,,,,82441.5,82441.39999997616,,82440.80000001192,,82447.103,8,400,,,
break_continue,html.Screen,4_9_2,2023-11-02T01:50:49.410Z,,0,,,NaN,,,,,,false,,,,82441.89999997616,82441.80000001192,,82441.69999998808,,82447.103,8,400,,,
sequence,flow.Sequence,4_9,2023-11-02T01:50:49.410Z,,0,,,2911.247000011921,completion,,,,,false,,,,82442.10000002384,82441.80000001192,79513.887,79522.5,79530.553,82447.103,8,400,,,
trial,html.Screen,4_10_0,2023-11-02T01:50:53.078Z,,0,1,,3661.997000023839,response,ISIC_0028718.JPG,9,ISIC_0663824.JPG,ISIC_0663824.JPG,false,0,keypress(z),500,86109.69999998808,86109.10000002384,82430.437,82442.30000001192,82447.103,86113.623,8,400,11,,ISIC_0028718.JPG
break,html.Screen,4_10_1,2023-11-02T01:50:53.079Z,,0,,,NaN,,,,,,false,,,,86110.80000001192,86110.5,,86110,,86113.623,8,400,,,
break_continue,html.Screen,4_10_2,2023-11-02T01:50:53.079Z,,0,,,NaN,,,,,,false,,,,86111.19999998808,86111,,86110.89999997616,,86113.623,8,400,,,
sequence,flow.Sequence,4_10,2023-11-02T01:50:53.080Z,,0,,,3663.896999999997,completion,,,,,false,,,,86111.30000001192,86111,82430.437,82442.30000001192,82447.103,86113.623,8,400,,,
trial,html.Screen,4_11_0,2023-11-02T01:50:57.133Z,,0,1,,4050.177000011914,response,ISIC_3418245.JPG,8,ISIC_5238649.JPG,ISIC_5238649.JPG,false,0,keypress(z),500,90164.19999998808,90163.80000001192,86096.957,86111.39999997616,86113.623,90180.573,8,400,12,,ISIC_3418245.JPG
break,html.Screen,4_11_1,2023-11-02T01:50:57.134Z,,0,,,NaN,,,,,,false,,,,90165.30000001192,90165.19999998808,,90164.5,,90180.573,8,400,,,
break_continue,html.Screen,4_11_2,2023-11-02T01:50:57.134Z,,0,,,NaN,,,,,,false,,,,90165.69999998808,90165.69999998808,,90165.5,,90180.573,8,400,,,
sequence,flow.Sequence,4_11,2023-11-02T01:50:57.134Z,,0,,,4052.076999988072,completion,,,,,false,,,,90165.89999997616,90165.69999998808,86096.957,86111.30000001192,86113.623,90180.573,8,400,,,
trial,html.Screen,4_12_0,2023-11-02T01:50:59.958Z,,0,1,,2808.227000011917,response,ISIC_0024826.JPG,8,ISIC_0296580.JPG,ISIC_0296580.JPG,false,0,keypress(z),500,92989.19999998808,92988.80000001192,90163.907,90166.10000002384,90180.573,92997.127,8,400,13,,ISIC_0024826.JPG
break,html.Screen,4_12_1,2023-11-02T01:50:59.959Z,,0,,,NaN,,,,,,false,,,,92990.30000001192,92990.10000002384,,92989.60000002384,,92997.127,8,400,,,
break_continue,html.Screen,4_12_2,2023-11-02T01:50:59.959Z,,0,,,NaN,,,,,,false,,,,92990.69999998808,92990.5,,92990.39999997616,,92997.127,8,400,,,
sequence,flow.Sequence,4_12,2023-11-02T01:50:59.959Z,,0,,,2809.926999999996,completion,,,,,false,,,,92990.80000001192,92990.5,90163.907,90166.10000002384,90180.573,92997.127,8,400,,,
trial,html.Screen,4_13_0,2023-11-02T01:51:03.185Z,,0,1,,3219.572999988086,response,ISIC_5744196.JPG,6,ISIC_4734111.JPG,ISIC_4734111.JPG,false,0,keypress(z),500,96217.10000002384,96216.69999998808,92980.461,92991,92997.127,96230.331,8,400,14,,ISIC_5744196.JPG
break,html.Screen,4_13_1,2023-11-02T01:51:03.186Z,,0,,,NaN,,,,,,false,,,,96218.10000002384,96217.89999997616,,96217.39999997616,,96230.331,8,400,,,
break_continue,html.Screen,4_13_2,2023-11-02T01:51:03.187Z,,0,,,NaN,,,,,,false,,,,96218.5,96218.30000001192,,96218.19999998808,,96230.331,8,400,,,
sequence,flow.Sequence,4_13,2023-11-02T01:51:03.187Z,,0,,,3221.173000011928,completion,,,,,false,,,,96218.69999998808,96218.30000001192,92980.461,92990.89999997616,92997.127,96230.331,8,400,,,
trial,html.Screen,4_14_0,2023-11-02T01:51:05.997Z,,0,1,,2797.7690000238363,response,ISIC_6517082.JPG,7,ISIC_4164882.JPG,ISIC_6517082.JPG,false,1,keypress(m),500,99028.5,99028.10000002384,96213.665,96218.80000001192,96230.331,99030.632,8,400,15,,ISIC_4164882.JPG
break,html.Screen,4_14_1,2023-11-02T01:51:05.998Z,,0,,,NaN,,,,,,false,,,,99029.5,99029.30000001192,,99028.80000001192,,99030.632,8,400,,,
break_continue,html.Screen,4_14_2,2023-11-02T01:51:05.998Z,,0,,,NaN,,,,,,false,,,,99029.89999997616,99029.69999998808,,99029.69999998808,,99030.632,8,400,,,
sequence,flow.Sequence,4_14,2023-11-02T01:51:05.998Z,,0,,,2799.3689999880735,completion,,,,,false,,,,99030.10000002384,99029.69999998808,96213.665,96218.80000001192,96230.331,99030.632,8,400,,,
trial,html.Screen,4_15_0,2023-11-02T01:51:08.850Z,,0,1,,2850.0679999880813,response,ISIC_0001148.JPG,9,ISIC_1616031.JPG,ISIC_0001148.JPG,false,1,keypress(m),500,101881.19999998808,101880.69999998808,99013.966,99030.19999998808,99030.632,101897.184,8,400,16,,ISIC_1616031.JPG
break,html.Screen,4_15_1,2023-11-02T01:51:08.851Z,,0,,,NaN,,,,,,false,,,,101882.19999998808,101882,,101881.5,,101897.184,8,400,,,
break_continue,html.Screen,4_15_2,2023-11-02T01:51:08.851Z,,0,,,NaN,,,,,,false,,,,101882.60000002384,101882.5,,101882.30000001192,,101897.184,8,400,,,
sequence,flow.Sequence,4_15,2023-11-02T01:51:08.851Z,,0,,,2851.868000000002,completion,,,,,false,,,,101882.80000001192,101882.5,99013.966,99030.19999998808,99030.632,101897.184,8,400,,,
trial,html.Screen,4_16_0,2023-11-02T01:51:12.074Z,,0,1,,3207.916000023848,response,ISIC_0012708.JPG,7,ISIC_9335652.JPG,ISIC_9335652.JPG,false,0,keypress(z),500,105105.5,105105.10000002384,101880.518,101882.89999997616,101897.184,105113.722,8,400,17,,ISIC_0012708.JPG
break,html.Screen,4_16_1,2023-11-02T01:51:12.075Z,,0,,,NaN,,,,,,false,,,,105106.5,105106.39999997616,,105105.80000001192,,105113.722,8,400,,,
break_continue,html.Screen,4_16_2,2023-11-02T01:51:12.075Z,,0,,,NaN,,,,,,false,,,,105106.89999997616,105106.89999997616,,105106.69999998808,,105113.722,8,400,,,
sequence,flow.Sequence,4_16,2023-11-02T01:51:12.075Z,,0,,,3209.7159999761643,completion,,,,,false,,,,105107.10000002384,105106.89999997616,101880.518,101882.89999997616,101897.184,105113.722,8,400,,,
trial,html.Screen,4_17_0,2023-11-02T01:51:16.305Z,,0,1,,4222.878000023848,response,ISIC_0822238.JPG,8,ISIC_0066379.JPG,ISIC_0066379.JPG,false,0,keypress(z),500,109337,109336.60000002384,105097.056,105107.30000001192,105113.722,109347.307,8,400,18,,ISIC_0822238.JPG
break,html.Screen,4_17_1,2023-11-02T01:51:16.306Z,,0,,,NaN,,,,,,false,,,,109338,109337.80000001192,,109337.30000001192,,109347.307,8,400,,,
break_continue,html.Screen,4_17_2,2023-11-02T01:51:16.307Z,,0,,,NaN,,,,,,false,,,,109338.30000001192,109338.19999998808,,109338.10000002384,,109347.307,8,400,,,
sequence,flow.Sequence,4_17,2023-11-02T01:51:16.307Z,,0,,,4224.477999988085,completion,,,,,false,,,,109338.5,109338.19999998808,105097.056,105107.19999998808,105113.722,109347.307,8,400,,,
trial,html.Screen,4_18_0,2023-11-02T01:51:19.224Z,,0,1,,2907.5929999761574,response,ISIC_9965754.JPG,7,ISIC_0010784.JPG,ISIC_0010784.JPG,false,0,keypress(z),500,112255.30000001192,112254.89999997616,109330.641,109338.69999998808,109347.307,112263.857,8,400,19,,ISIC_9965754.JPG
break,html.Screen,4_18_1,2023-11-02T01:51:19.225Z,,0,,,NaN,,,,,,false,,,,112256.30000001192,112256.19999998808,,112255.60000002384,,112263.857,8,400,,,
break_continue,html.Screen,4_18_2,2023-11-02T01:51:19.225Z,,0,,,NaN,,,,,,false,,,,112256.69999998808,112256.5,,112256.39999997616,,112263.857,8,400,,,
sequence,flow.Sequence,4_18,2023-11-02T01:51:19.225Z,,0,,,2909.1929999999993,completion,,,,,false,,,,112256.89999997616,112256.5,109330.641,109338.60000002384,109347.307,112263.857,8,400,,,
trial,html.Screen,4_19_0,2023-11-02T01:51:22.766Z,,0,1,,3533.5429999761545,response,ISIC_0057218.JPG,6,ISIC_1720840.JPG,ISIC_0057218.JPG,false,1,keypress(m),500,115797.80000001192,115797.39999997616,112247.191,112257,112263.857,115813.715,8,400,20,,ISIC_1720840.JPG
break,html.Screen,4_19_1,2023-11-02T01:51:22.767Z,,0,,,NaN,,,,,,false,,,,115798.80000001192,115798.60000002384,,115798.10000002384,,115813.715,8,400,,,
break_continue,html.Screen,4_19_2,2023-11-02T01:51:22.768Z,,0,,,NaN,,,,,,false,,,,115799.19999998808,115799.10000002384,,115799,,115813.715,8,400,,,
sequence,flow.Sequence,4_19,2023-11-02T01:51:22.768Z,,0,,,3535.2430000238382,completion,,,,,false,,,,115799.39999997616,115799.10000002384,112247.191,112257,112263.857,115813.715,8,400,,,
trial,html.Screen,4_20_0,2023-11-02T01:51:26.311Z,,0,1,,3528.8850000238454,response,ISIC_0065735.JPG,9,ISIC_0027560.JPG,ISIC_0027560.JPG,false,0,keypress(z),500,119342.89999997616,119342.60000002384,115797.049,115799.5,115813.715,119363.955,8,400,21,,ISIC_0065735.JPG
break,html.Screen,4_20_1,2023-11-02T01:51:26.312Z,,0,,,NaN,,,,,,false,,,,119343.89999997616,119343.69999998808,,119343.19999998808,,119363.955,8,400,,,
break_continue,html.Screen,4_20_2,2023-11-02T01:51:26.313Z,,0,,,NaN,,,,,,false,,,,119344.30000001192,119344.10000002384,,119344,,119363.955,8,400,,,
sequence,flow.Sequence,4_20,2023-11-02T01:51:26.313Z,,0,,,3530.3850000238454,completion,,,,,false,,,,119344.39999997616,119344.10000002384,115797.049,115799.39999997616,115813.715,119363.955,8,400,,,
trial,html.Screen,4_21_0,2023-11-02T01:51:30.635Z,,0,1,,4302.544999999998,response,ISIC_3148886.JPG,5,ISIC_3043475.JPG,ISIC_3043475.JPG,false,0,keypress(z),500,123667,123666.5,119347.289,119344.60000002384,119363.955,123680.449,8,400,22,,ISIC_3148886.JPG
break,html.Screen,4_21_1,2023-11-02T01:51:30.636Z,,0,,,NaN,,,,,,false,,,,123667.89999997616,123667.80000001192,,123667.19999998808,,123680.449,8,400,,,
break_continue,html.Screen,4_21_2,2023-11-02T01:51:30.637Z,,0,,,NaN,,,,,,false,,,,123668.30000001192,123668.19999998808,,123668.10000002384,,123680.449,8,400,,,
sequence,flow.Sequence,4_21,2023-11-02T01:51:30.637Z,,0,,,4304.244999988077,completion,,,,,false,,,,123668.60000002384,123668.19999998808,119347.289,119344.60000002384,119363.955,123680.449,8,400,,,
trial,html.Screen,4_22_0,2023-11-02T01:51:33.715Z,,0,1,,3065.5510000000068,response,ISIC_0063151.JPG,6,ISIC_6052702.JPG,ISIC_6052702.JPG,false,0,keypress(z),500,126746.5,126746,123663.783,123668.80000001192,123680.449,126763.659,8,400,23,,ISIC_0063151.JPG
break,html.Screen,4_22_1,2023-11-02T01:51:33.716Z,,0,,,NaN,,,,,,false,,,,126747.39999997616,126747.30000001192,,126746.80000001192,,126763.659,8,400,,,
break_continue,html.Screen,4_22_2,2023-11-02T01:51:33.716Z,,0,,,NaN,,,,,,false,,,,126747.89999997616,126747.69999998808,,126747.60000002384,,126763.659,8,400,,,
sequence,flow.Sequence,4_22,2023-11-02T01:51:33.716Z,,0,,,3067.250999988086,completion,,,,,false,,,,126748,126747.69999998808,123663.783,123668.69999998808,123680.449,126763.659,8,400,,,
trial,html.Screen,4_23_0,2023-11-02T01:51:37.130Z,,0,1,,3397.3410000000003,response,ISIC_9207137.JPG,8,ISIC_9879723.JPG,ISIC_9207137.JPG,false,1,keypress(m),500,130161.5,130161,126746.993,126748.10000002384,126763.659,130163.969,8,400,24,,ISIC_9879723.JPG
break,html.Screen,4_23_1,2023-11-02T01:51:37.131Z,,0,,,NaN,,,,,,false,,,,130162.39999997616,130162.30000001192,,130161.69999998808,,130163.969,8,400,,,
break_continue,html.Screen,4_23_2,2023-11-02T01:51:37.131Z,,0,,,NaN,,,,,,false,,,,130162.89999997616,130162.69999998808,,130162.60000002384,,130163.969,8,400,,,
sequence,flow.Sequence,4_23,2023-11-02T01:51:37.131Z,,0,,,3399.0409999880794,completion,,,,,false,,,,130163,130162.69999998808,126746.993,126748.10000002384,126763.659,130163.969,8,400,,,
trial,html.Screen,4_24_0,2023-11-02T01:51:41.233Z,,0,1,,4100.531000000003,response,ISIC_8752021.JPG,7,ISIC_0029909.JPG,ISIC_0029909.JPG,false,0,keypress(z),500,134265,134264.5,130147.303,130163.10000002384,130163.969,134280.471,8,400,25,,ISIC_8752021.JPG
break,html.Screen,4_24_1,2023-11-02T01:51:41.234Z,,0,,,NaN,,,,,,false,,,,134265.80000001192,134265.69999998808,,134265.19999998808,,134280.471,8,400,,,
break_continue,html.Screen,4_24_2,2023-11-02T01:51:41.234Z,,0,,,NaN,,,,,,false,,,,134266.10000002384,134266,,134265.89999997616,,134280.471,8,400,,,
sequence,flow.Sequence,4_24,2023-11-02T01:51:41.235Z,,0,,,4102.031000000003,completion,,,,,false,,,,134266.19999998808,134266,130147.303,130163.10000002384,130163.969,134280.471,8,400,,,
trial,html.Screen,4_25_0,2023-11-02T01:51:45.990Z,,0,1,,4740.728999988089,response,ISIC_0067805.JPG,8,ISIC_9944714.JPG,ISIC_0067805.JPG,false,1,keypress(m),500,139021.60000002384,139021.19999998808,134263.805,134266.39999997616,134280.471,139030.747,8,400,26,,ISIC_9944714.JPG
break,html.Screen,4_25_1,2023-11-02T01:51:45.991Z,,0,,,NaN,,,,,,false,,,,139022.5,139022.39999997616,,139022,,139030.747,8,400,,,
break_continue,html.Screen,4_25_2,2023-11-02T01:51:45.991Z,,0,,,NaN,,,,,,false,,,,139022.89999997616,139022.89999997616,,139022.69999998808,,139030.747,8,400,,,
sequence,flow.Sequence,4_25,2023-11-02T01:51:45.992Z,,0,,,4742.428999976168,completion,,,,,false,,,,139023.10000002384,139022.89999997616,134263.805,134266.30000001192,134280.471,139030.747,8,400,,,
trial,html.Screen,4_26_0,2023-11-02T01:51:49.472Z,,0,1,,3472.452999988076,response,ISIC_0066935.JPG,8,ISIC_0030974.JPG,ISIC_0066935.JPG,false,1,keypress(m),500,142503.69999998808,142503.19999998808,139014.081,139023.30000001192,139030.747,142513.941,8,400,27,,ISIC_0030974.JPG
break,html.Screen,4_26_1,2023-11-02T01:51:49.473Z,,0,,,NaN,,,,,,false,,,,142504.60000002384,142504.5,,142504,,142513.941,8,400,,,
break_continue,html.Screen,4_26_2,2023-11-02T01:51:49.473Z,,0,,,NaN,,,,,,false,,,,142505,142504.89999997616,,142504.80000001192,,142513.941,8,400,,,
sequence,flow.Sequence,4_26,2023-11-02T01:51:49.474Z,,0,,,3474.152999976155,completion,,,,,false,,,,142505.19999998808,142504.89999997616,139014.081,139023.19999998808,139030.747,142513.941,8,400,,,
trial,html.Screen,4_27_0,2023-11-02T01:51:53.303Z,,0,1,,3820.5590000000084,response,ISIC_2772581.JPG,6,ISIC_0046615.JPG,ISIC_0046615.JPG,false,0,keypress(z),500,146335,146334.5,142497.275,142505.30000001192,142513.941,146347.121,8,400,28,,ISIC_2772581.JPG
break,html.Screen,4_27_1,2023-11-02T01:51:53.304Z,,0,,,NaN,,,,,,false,,,,146336,146335.80000001192,,146335.30000001192,,146347.121,8,400,,,
break_continue,html.Screen,4_27_2,2023-11-02T01:51:53.305Z,,0,,,NaN,,,,,,false,,,,146336.30000001192,146336.10000002384,,146336.10000002384,,146347.121,8,400,,,
sequence,flow.Sequence,4_27,2023-11-02T01:51:53.305Z,,0,,,3822.1590000238502,completion,,,,,false,,,,146336.5,146336.10000002384,142497.275,142505.30000001192,142513.941,146347.121,8,400,,,
trial,html.Screen,4_28_0,2023-11-02T01:51:56.285Z,,0,1,,2968.7789999761444,response,ISIC_0058926.JPG,7,ISIC_0068184.JPG,ISIC_0058926.JPG,false,1,keypress(m),500,149316.39999997616,149315.89999997616,146330.455,146336.69999998808,146347.121,149330.721,8,400,29,,ISIC_0068184.JPG
break,html.Screen,4_28_1,2023-11-02T01:51:56.286Z,,0,,,NaN,,,,,,false,,,,149317.39999997616,149317.30000001192,,149316.80000001192,,149330.721,8,400,,,
break_continue,html.Screen,4_28_2,2023-11-02T01:51:56.286Z,,0,,,NaN,,,,,,false,,,,149317.89999997616,149317.69999998808,,149317.60000002384,,149330.721,8,400,,,
sequence,flow.Sequence,4_28,2023-11-02T01:51:56.286Z,,0,,,2970.5789999880653,completion,,,,,false,,,,149318.10000002384,149317.69999998808,146330.455,146336.5,146347.121,149330.721,8,400,,,
trial,html.Screen,4_29_0,2023-11-02T01:51:59.764Z,,0,1,,3464.0790000119305,response,ISIC_0027537.JPG,8,ISIC_0000226.JPG,ISIC_0000226.JPG,false,0,keypress(z),500,152795.30000001192,152794.80000001192,149314.055,149318.19999998808,149330.721,152797.249,8,400,30,,ISIC_0027537.JPG
break,html.Screen,4_29_1,2023-11-02T01:51:59.765Z,,0,,,NaN,,,,,,false,,,,152796.19999998808,152796.10000002384,,152795.60000002384,,152797.249,8,400,,,
break_continue,html.Screen,4_29_2,2023-11-02T01:51:59.765Z,,0,,,NaN,,,,,,false,,,,152796.60000002384,152796.60000002384,,152796.39999997616,,152797.249,8,400,,,
sequence,flow.Sequence,4_29,2023-11-02T01:51:59.765Z,,0,,,3465.8790000238514,completion,,,,,false,,,,152796.80000001192,152796.60000002384,149314.055,149318.10000002384,149330.721,152797.249,8,400,,,
trial,html.Screen,4_30_0,2023-11-02T01:52:03.224Z,,0,1,,3457.351000023831,response,ISIC_7572137.JPG,7,ISIC_0059904.JPG,ISIC_7572137.JPG,false,1,keypress(m),500,156255.10000002384,156254.60000002384,152780.583,152797,152797.249,156280.443,8,400,31,,ISIC_0059904.JPG
break,html.Screen,4_30_1,2023-11-02T01:52:03.225Z,,0,,,NaN,,,,,,false,,,,156256.19999998808,156255.89999997616,,156255.39999997616,,156280.443,8,400,,,
break_continue,html.Screen,4_30_2,2023-11-02T01:52:03.225Z,,0,,,NaN,,,,,,false,,,,156256.5,156256.39999997616,,156256.30000001192,,156280.443,8,400,,,
sequence,flow.Sequence,4_30,2023-11-02T01:52:03.225Z,,0,,,3459.1509999761474,completion,,,,,false,,,,156256.69999998808,156256.39999997616,152780.583,152796.89999997616,152797.249,156280.443,8,400,,,
trial,html.Screen,4_31_0,2023-11-02T01:52:06.174Z,,0,1,,2925.1570000238426,response,ISIC_0029106.JPG,8,ISIC_0399142.JPG,ISIC_0029106.JPG,false,1,keypress(m),500,159206,159205.60000002384,156263.777,156257.89999997616,156280.443,159230.771,8,400,32,,ISIC_0399142.JPG
break,html.Screen,4_31_1,2023-11-02T01:52:06.175Z,,0,,,NaN,,,,,,false,,,,159207,159206.69999998808,,159206.30000001192,,159230.771,8,400,,,
break_continue,html.Screen,4_31_2,2023-11-02T01:52:06.176Z,,0,,,NaN,,,,,,false,,,,159207.30000001192,159207.19999998808,,159207.10000002384,,159230.771,8,400,,,
sequence,flow.Sequence,4_31,2023-11-02T01:52:06.176Z,,0,,,2926.7569999880798,completion,,,,,false,,,,159207.5,159207.19999998808,156263.777,156257.89999997616,156280.443,159230.771,8,400,,,
trial,html.Screen,4_32_0,2023-11-02T01:52:10.182Z,,0,1,,3981.928999988071,response,ISIC_0015109.JPG,6,ISIC_0000475.JPG,ISIC_0000475.JPG,false,0,keypress(z),500,163213.30000001192,163212.69999998808,159214.105,159207.69999998808,159230.771,163230.611,8,400,33,,ISIC_0015109.JPG
break,html.Screen,4_32_1,2023-11-02T01:52:10.183Z,,0,,,NaN,,,,,,false,,,,163214.19999998808,163214,,163213.60000002384,,163230.611,8,400,,,
break_continue,html.Screen,4_32_2,2023-11-02T01:52:10.183Z,,0,,,NaN,,,,,,false,,,,163214.69999998808,163214.60000002384,,163214.30000001192,,163230.611,8,400,,,
sequence,flow.Sequence,4_32,2023-11-02T01:52:10.183Z,,0,,,3983.829000023834,completion,,,,,false,,,,163214.89999997616,163214.60000002384,159214.105,159207.60000002384,159230.771,163230.611,8,400,,,
trial,html.Screen,4_33_0,2023-11-02T01:52:13.789Z,,0,1,,3589.3889999999956,response,ISIC_3397174.JPG,8,ISIC_6715897.JPG,ISIC_3397174.JPG,false,1,keypress(m),500,166820.60000002384,166820,163213.945,163215,163230.611,166830.467,8,400,34,,ISIC_6715897.JPG
break,html.Screen,4_33_1,2023-11-02T01:52:13.790Z,,0,,,NaN,,,,,,false,,,,166821.5,166821.30000001192,,166820.89999997616,,166830.467,8,400,,,
break_continue,html.Screen,4_33_2,2023-11-02T01:52:13.790Z,,0,,,NaN,,,,,,false,,,,166821.89999997616,166821.80000001192,,166821.60000002384,,166830.467,8,400,,,
sequence,flow.Sequence,4_33,2023-11-02T01:52:13.791Z,,0,,,3591.1890000119165,completion,,,,,false,,,,166822.10000002384,166821.80000001192,163213.945,163215,163230.611,166830.467,8,400,,,
trial,html.Screen,4_34_0,2023-11-02T01:52:16.785Z,,0,1,,2985.6330000238377,response,ISIC_5584185.JPG,8,ISIC_0024701.JPG,ISIC_0024701.JPG,false,0,keypress(z),500,169816.60000002384,169816.10000002384,166813.801,166822.30000001192,166830.467,169830.752,8,400,35,,ISIC_5584185.JPG
break,html.Screen,4_34_1,2023-11-02T01:52:16.786Z,,0,,,NaN,,,,,,false,,,,169817.5,169817.39999997616,,169816.89999997616,,169830.752,8,400,,,
break_continue,html.Screen,4_34_2,2023-11-02T01:52:16.786Z,,0,,,NaN,,,,,,false,,,,169817.80000001192,169817.80000001192,,169817.69999998808,,169830.752,8,400,,,
sequence,flow.Sequence,4_34,2023-11-02T01:52:16.786Z,,0,,,2987.3330000119167,completion,,,,,false,,,,169818.10000002384,169817.80000001192,166813.801,166822.19999998808,166830.467,169830.752,8,400,,,
trial,html.Screen,4_35_0,2023-11-02T01:52:20.364Z,,0,1,,3564.0480000119132,response,ISIC_0014222.JPG,6,ISIC_4151356.JPG,ISIC_4151356.JPG,false,0,keypress(z),500,173395.30000001192,173394.80000001192,169814.086,169818.19999998808,169830.752,173397.276,8,400,36,,ISIC_0014222.JPG
break,html.Screen,4_35_1,2023-11-02T01:52:20.365Z,,0,,,NaN,,,,,,false,,,,173396.19999998808,173396,,173395.60000002384,,173397.276,8,400,,,
break_continue,html.Screen,4_35_2,2023-11-02T01:52:20.365Z,,0,,,NaN,,,,,,false,,,,173396.60000002384,173396.5,,173396.39999997616,,173397.276,8,400,,,
sequence,flow.Sequence,4_35,2023-11-02T01:52:20.365Z,,0,,,3565.7479999999923,completion,,,,,false,,,,173396.80000001192,173396.5,169814.086,169818.10000002384,169830.752,173397.276,8,400,,,
trial,html.Screen,4_36_0,2023-11-02T01:52:23.552Z,,0,1,,3185.4239999880665,response,ISIC_0032751.JPG,6,ISIC_0616491.JPG,ISIC_0032751.JPG,false,1,keypress(m),500,176583.19999998808,176582.69999998808,173380.61,173396.89999997616,173397.276,176597.148,8,400,37,,ISIC_0616491.JPG
break,html.Screen,4_36_1,2023-11-02T01:52:23.553Z,,0,,,NaN,,,,,,false,,,,176584.19999998808,176584.10000002384,,176583.60000002384,,176597.148,8,400,,,
break_continue,html.Screen,4_36_2,2023-11-02T01:52:23.553Z,,0,,,NaN,,,,,,false,,,,176584.60000002384,176584.5,,176584.39999997616,,176597.148,8,400,,,
sequence,flow.Sequence,4_36,2023-11-02T01:52:23.553Z,,0,,,3187.2239999999874,completion,,,,,false,,,,176584.80000001192,176584.5,173380.61,173396.89999997616,173397.276,176597.148,8,400,,,
trial,html.Screen,4_37_0,2023-11-02T01:52:26.965Z,,0,1,,3399.0519999880926,response,ISIC_5816399.JPG,7,ISIC_0011972.JPG,ISIC_5816399.JPG,false,1,keypress(m),500,179996.60000002384,179996.19999998808,176580.482,176585,176597.148,180014.084,8,400,38,,ISIC_0011972.JPG
break,html.Screen,4_37_1,2023-11-02T01:52:26.966Z,,0,,,NaN,,,,,,false,,,,179997.60000002384,179997.5,,179997,,180014.084,8,400,,,
break_continue,html.Screen,4_37_2,2023-11-02T01:52:26.967Z,,0,,,NaN,,,,,,false,,,,179998,179997.89999997616,,179997.80000001192,,180014.084,8,400,,,
sequence,flow.Sequence,4_37,2023-11-02T01:52:26.967Z,,0,,,3400.7519999761716,completion,,,,,false,,,,179998.19999998808,179997.89999997616,176580.482,176585,176597.148,180014.084,8,400,,,
trial,html.Screen,4_38_0,2023-11-02T01:52:30.109Z,,0,1,,3125.8159999761556,response,ISIC_0003159.JPG,7,ISIC_5679942.JPG,ISIC_5679942.JPG,false,0,keypress(z),500,183140.30000001192,183139.89999997616,179997.418,179998.39999997616,180014.084,183147.292,8,400,39,,ISIC_0003159.JPG
break,html.Screen,4_38_1,2023-11-02T01:52:30.110Z,,0,,,NaN,,,,,,false,,,,183141.30000001192,183141.19999998808,,183140.69999998808,,183147.292,8,400,,,
break_continue,html.Screen,4_38_2,2023-11-02T01:52:30.110Z,,0,,,NaN,,,,,,false,,,,183141.69999998808,183141.60000002384,,183141.5,,183147.292,8,400,,,
sequence,flow.Sequence,4_38,2023-11-02T01:52:30.110Z,,0,,,3127.5160000238393,completion,,,,,false,,,,183141.89999997616,183141.60000002384,179997.418,179998.30000001192,180014.084,183147.292,8,400,,,
trial,html.Screen,4_39_0,2023-11-02T01:52:33.876Z,,0,1,,3759.508000011934,response,ISIC_0027560.JPG,6,ISIC_0030506.JPG,ISIC_0030506.JPG,false,0,keypress(z),500,186907.39999997616,186906.80000001192,183130.626,183142.10000002384,183147.292,186913.808,8,400,40,,ISIC_0027560.JPG
break,html.Screen,4_39_1,2023-11-02T01:52:33.877Z,,0,,,NaN,,,,,,false,,,,186908.39999997616,186908.10000002384,,186907.60000002384,,186913.808,8,400,,,
break_continue,html.Screen,4_39_2,2023-11-02T01:52:33.877Z,,0,,,NaN,,,,,,false,,,,186908.69999998808,186908.5,,186908.39999997616,,186913.808,8,400,,,
sequence,flow.Sequence,4_39,2023-11-02T01:52:33.877Z,,0,,,3761.2080000000133,completion,,,,,false,,,,186909,186908.5,183130.626,183142,183147.292,186913.808,8,400,,,
trial,html.Screen,4_40_0,2023-11-02T01:52:36.811Z,,0,1,,2928.19200000001,response,ISIC_8969855.JPG,9,ISIC_5793600.JPG,ISIC_5793600.JPG,false,0,keypress(z),500,189842.30000001192,189842,186897.142,186909.10000002384,186913.808,189847.024,8,400,41,,ISIC_8969855.JPG
break,html.Screen,4_40_1,2023-11-02T01:52:36.812Z,,0,,,NaN,,,,,,false,,,,189843.30000001192,189843.10000002384,,189842.69999998808,,189847.024,8,400,,,
break_continue,html.Screen,4_40_2,2023-11-02T01:52:36.812Z,,0,,,NaN,,,,,,false,,,,189843.69999998808,189843.5,,189843.39999997616,,189847.024,8,400,,,
sequence,flow.Sequence,4_40,2023-11-02T01:52:36.812Z,,0,,,2929.69200000001,completion,,,,,false,,,,189843.80000001192,189843.5,186897.142,186909,186913.808,189847.024,8,400,,,
trial,html.Screen,4_41_0,2023-11-02T01:52:40.097Z,,0,1,,3280.576000023837,response,ISIC_0033387.JPG,7,ISIC_7785723.JPG,ISIC_7785723.JPG,false,0,keypress(z),500,193128.10000002384,193127.60000002384,189830.358,189844,189847.024,193147.309,8,400,42,,ISIC_0033387.JPG
break,html.Screen,4_41_1,2023-11-02T01:52:40.098Z,,0,,,NaN,,,,,,false,,,,193129.10000002384,193128.89999997616,,193128.30000001192,,193147.309,8,400,,,
break_continue,html.Screen,4_41_2,2023-11-02T01:52:40.098Z,,0,,,NaN,,,,,,false,,,,193129.39999997616,193129.30000001192,,193129.10000002384,,193147.309,8,400,,,
sequence,flow.Sequence,4_41,2023-11-02T01:52:40.098Z,,0,,,3282.276000011916,completion,,,,,false,,,,193129.60000002384,193129.30000001192,189830.358,189844,189847.024,193147.309,8,400,,,
trial,html.Screen,4_42_0,2023-11-02T01:52:42.902Z,,0,1,,2785.7910000238335,response,ISIC_9050826.JPG,8,ISIC_0025602.JPG,ISIC_0025602.JPG,false,0,keypress(z),500,195933.69999998808,195933.10000002384,193130.643,193129.80000001192,193147.309,195947.197,8,400,43,,ISIC_9050826.JPG
break,html.Screen,4_42_1,2023-11-02T01:52:42.903Z,,0,,,NaN,,,,,,false,,,,195934.69999998808,195934.5,,195934,,195947.197,8,400,,,
break_continue,html.Screen,4_42_2,2023-11-02T01:52:42.904Z,,0,,,NaN,,,,,,false,,,,195935,195934.89999997616,,195934.80000001192,,195947.197,8,400,,,
sequence,flow.Sequence,4_42,2023-11-02T01:52:42.904Z,,0,,,2787.5909999761498,completion,,,,,false,,,,195935.19999998808,195934.89999997616,193130.643,193129.69999998808,193147.309,195947.197,8,400,,,
trial,html.Screen,4_43_0,2023-11-02T01:52:46.002Z,,0,1,,3086.0029999880935,response,ISIC_5798015.JPG,6,ISIC_0013672.JPG,ISIC_0013672.JPG,false,0,keypress(z),500,199033.60000002384,199033.19999998808,195930.531,195935.39999997616,195947.197,199047.073,8,400,44,,ISIC_5798015.JPG
break,html.Screen,4_43_1,2023-11-02T01:52:46.003Z,,0,,,NaN,,,,,,false,,,,199034.5,199034.30000001192,,199033.89999997616,,199047.073,8,400,,,
break_continue,html.Screen,4_43_2,2023-11-02T01:52:46.003Z,,0,,,NaN,,,,,,false,,,,199034.89999997616,199034.80000001192,,199034.69999998808,,199047.073,8,400,,,
sequence,flow.Sequence,4_43,2023-11-02T01:52:46.004Z,,0,,,3087.6030000119354,completion,,,,,false,,,,199035.10000002384,199034.80000001192,195930.531,195935.39999997616,195947.197,199047.073,8,400,,,
trial,html.Screen,4_44_0,2023-11-02T01:52:48.744Z,,0,1,,2727.527000023838,response,ISIC_0033498.JPG,6,ISIC_0028135.JPG,ISIC_0033498.JPG,false,1,keypress(m),500,201775.10000002384,201774.60000002384,199030.407,199035.10000002384,199047.073,201780.731,8,400,45,,ISIC_0028135.JPG
break,html.Screen,4_44_1,2023-11-02T01:52:48.745Z,,0,,,NaN,,,,,,false,,,,201776.10000002384,201775.89999997616,,201775.39999997616,,201780.731,8,400,,,
break_continue,html.Screen,4_44_2,2023-11-02T01:52:48.745Z,,0,,,NaN,,,,,,false,,,,201776.39999997616,201776.30000001192,,201776.10000002384,,201780.731,8,400,,,
sequence,flow.Sequence,4_44,2023-11-02T01:52:48.745Z,,0,,,2729.227000011917,completion,,,,,false,,,,201776.60000002384,201776.30000001192,199030.407,199035.10000002384,199047.073,201780.731,8,400,,,
trial,html.Screen,4_45_0,2023-11-02T01:52:53.423Z,,0,1,,4673.569000011921,response,ISIC_0667763.JPG,5,ISIC_0024227.JPG,ISIC_0024227.JPG,false,0,keypress(z),500,206454.80000001192,206454.30000001192,201764.065,201776.80000001192,201780.731,206463.877,8,400,46,,ISIC_0667763.JPG
break,html.Screen,4_45_1,2023-11-02T01:52:53.424Z,,0,,,NaN,,,,,,false,,,,206455.80000001192,206455.60000002384,,206455.10000002384,,206463.877,8,400,,,
break_continue,html.Screen,4_45_2,2023-11-02T01:52:53.425Z,,0,,,NaN,,,,,,false,,,,206456.19999998808,206456,,206455.89999997616,,206463.877,8,400,,,
sequence,flow.Sequence,4_45,2023-11-02T01:52:53.425Z,,0,,,4675.269,completion,,,,,false,,,,206456.30000001192,206456,201764.065,201776.80000001192,201780.731,206463.877,8,400,,,
trial,html.Screen,4_46_0,2023-11-02T01:52:56.487Z,,0,1,,3054.4230000119132,response,ISIC_1037945.JPG,7,ISIC_0069058.JPG,ISIC_1037945.JPG,false,1,keypress(m),500,209518.69999998808,209518.30000001192,206447.211,206456.39999997616,206463.877,209530.421,8,400,47,,ISIC_0069058.JPG
break,html.Screen,4_46_1,2023-11-02T01:52:56.488Z,,0,,,NaN,,,,,,false,,,,209519.80000001192,209519.60000002384,,209519,,209530.421,8,400,,,
break_continue,html.Screen,4_46_2,2023-11-02T01:52:56.489Z,,0,,,NaN,,,,,,false,,,,209520.19999998808,209520,,209520,,209530.421,8,400,,,
sequence,flow.Sequence,4_46,2023-11-02T01:52:56.489Z,,0,,,3056.1229999999923,completion,,,,,false,,,,209520.30000001192,209520,206447.211,206456.39999997616,206463.877,209530.421,8,400,,,
trial,html.Screen,4_47_0,2023-11-02T01:52:59.918Z,,0,1,,3418.6790000238398,response,ISIC_0667763.JPG,9,ISIC_0055404.JPG,ISIC_0667763.JPG,false,1,keypress(m),500,212949.69999998808,212949.10000002384,209513.755,209520.5,209530.421,212964.043,8,400,48,,ISIC_0055404.JPG
break,html.Screen,4_47_1,2023-11-02T01:52:59.919Z,,0,,,NaN,,,,,,false,,,,212950.69999998808,212950.5,,212950,,212964.043,8,400,,,
break_continue,html.Screen,4_47_2,2023-11-02T01:52:59.920Z,,0,,,NaN,,,,,,false,,,,212951.10000002384,212951,,212950.80000001192,,212964.043,8,400,,,
sequence,flow.Sequence,4_47,2023-11-02T01:52:59.920Z,,0,,,3420.578999999998,completion,,,,,false,,,,212951.30000001192,212951,209513.755,209520.5,209530.421,212964.043,8,400,,,
trial,html.Screen,4_48_0,2023-11-02T01:53:02.851Z,,0,1,,2918.356999976153,response,ISIC_0070351.JPG,8,ISIC_5519357.JPG,ISIC_5519357.JPG,false,0,keypress(z),500,215882.89999997616,215882.39999997616,212947.377,212951.5,212964.043,215897.259,8,400,49,,ISIC_0070351.JPG
break,html.Screen,4_48_1,2023-11-02T01:53:02.852Z,,0,,,NaN,,,,,,false,,,,215883.89999997616,215883.69999998808,,215883.19999998808,,215897.259,8,400,,,
break_continue,html.Screen,4_48_2,2023-11-02T01:53:02.853Z,,0,,,NaN,,,,,,false,,,,215884.30000001192,215884.19999998808,,215884.10000002384,,215897.259,8,400,,,
sequence,flow.Sequence,4_48,2023-11-02T01:53:02.853Z,,0,,,2920.156999988074,completion,,,,,false,,,,215884.5,215884.19999998808,212947.377,212951.39999997616,212964.043,215897.259,8,400,,,
trial,html.Screen,4_49_0,2023-11-02T01:53:06.537Z,,0,1,,3670.54100001193,response,ISIC_0058177.JPG,5,ISIC_4266157.JPG,ISIC_4266157.JPG,false,0,keypress(z),500,219568.39999997616,219567.80000001192,215880.593,215884.69999998808,215897.259,219580.445,8,400,50,,ISIC_0058177.JPG
break,html.Screen,4_49_1,2023-11-02T01:53:16.537Z,,0,,,10000.006999999983,timeout,,,,,false,,,,229568.5,229563.786,219563.779,219568.80000001192,219580.445,229580.452,8,400,,,
break_continue,html.Screen,4_49_2,2023-11-02T01:53:17.798Z,,0,,,1234.8480000119307,response,,,,,false,continue,keypress(Space),,230829.5,230815.30000001192,229563.786,229568.80000001192,229580.452,230830.402,8,400,,,
sequence,flow.Sequence,4_49,2023-11-02T01:53:17.798Z,,0,,,14918.04100001193,completion,,,,,false,,,,230829.69999998808,230815.30000001192,215880.593,215884.60000002384,215897.259,230830.402,8,400,,,
trial,html.Screen,4_50_0,2023-11-02T01:53:20.877Z,,0,2,,3077.297999988077,response,ISIC_9820910.JPG,5,ISIC_0061371.JPG,ISIC_0061371.JPG,false,0,keypress(z),500,233908.30000001192,233907.69999998808,230813.736,230829.80000001192,230830.402,233913.995,8,400,1,,ISIC_9820910.JPG
break,html.Screen,4_50_1,2023-11-02T01:53:20.878Z,,0,,,NaN,,,,,,false,,,,233909.30000001192,233909,,233908.5,,233913.995,8,400,,,
break_continue,html.Screen,4_50_2,2023-11-02T01:53:20.878Z,,0,,,NaN,,,,,,false,,,,233909.69999998808,233909.5,,233909.39999997616,,233913.995,8,400,,,
sequence,flow.Sequence,4_50,2023-11-02T01:53:20.878Z,,0,,,3079.097999999998,completion,,,,,false,,,,233909.80000001192,233909.5,230813.736,230829.80000001192,230830.402,233913.995,8,400,,,
trial,html.Screen,4_51_0,2023-11-02T01:53:23.510Z,,0,2,,2627.404999976163,response,ISIC_0061566.JPG,8,ISIC_2323082.JPG,ISIC_0061566.JPG,false,1,keypress(m),500,236541.80000001192,236541.39999997616,233897.329,233910,233913.995,236547.223,8,400,2,,ISIC_2323082.JPG
break,html.Screen,4_51_1,2023-11-02T01:53:23.511Z,,0,,,NaN,,,,,,false,,,,236543,236542.80000001192,,236542.19999998808,,236547.223,8,400,,,
break_continue,html.Screen,4_51_2,2023-11-02T01:53:23.512Z,,0,,,NaN,,,,,,false,,,,236543.30000001192,236543.19999998808,,236543,,236547.223,8,400,,,
sequence,flow.Sequence,4_51,2023-11-02T01:53:23.512Z,,0,,,2629.2049999880837,completion,,,,,false,,,,236543.5,236543.19999998808,233897.329,233910,233913.995,236547.223,8,400,,,
trial,html.Screen,4_52_0,2023-11-02T01:53:26.236Z,,0,2,,2719.3770000238437,response,ISIC_9130157.JPG,8,ISIC_0504165.JPG,ISIC_0504165.JPG,false,0,keypress(z),500,239267,239266.60000002384,236530.557,236543.60000002384,236547.223,239280.447,8,400,3,,ISIC_9130157.JPG
break,html.Screen,4_52_1,2023-11-02T01:53:26.237Z,,0,,,NaN,,,,,,false,,,,239268,239267.80000001192,,239267.30000001192,,239280.447,8,400,,,
break_continue,html.Screen,4_52_2,2023-11-02T01:53:26.237Z,,0,,,NaN,,,,,,false,,,,239268.39999997616,239268.30000001192,,239268.19999998808,,239280.447,8,400,,,
sequence,flow.Sequence,4_52,2023-11-02T01:53:26.237Z,,0,,,2721.077000011923,completion,,,,,false,,,,239268.60000002384,239268.30000001192,236530.557,236543.60000002384,236547.223,239280.447,8,400,,,
trial,html.Screen,4_53_0,2023-11-02T01:53:29.072Z,,0,2,,2822.4529999761726,response,ISIC_3019509.JPG,8,ISIC_8301536.JPG,ISIC_3019509.JPG,false,1,keypress(m),500,242103.30000001192,242102.89999997616,239263.781,239268.80000001192,239280.447,242114.132,8,400,4,,ISIC_8301536.JPG
break,html.Screen,4_53_1,2023-11-02T01:53:29.073Z,,0,,,NaN,,,,,,false,,,,242104.19999998808,242104.10000002384,,242103.69999998808,,242114.132,8,400,,,
break_continue,html.Screen,4_53_2,2023-11-02T01:53:29.073Z,,0,,,NaN,,,,,,false,,,,242104.60000002384,242104.5,,242104.5,,242114.132,8,400,,,
sequence,flow.Sequence,4_53,2023-11-02T01:53:29.074Z,,0,,,2824.0530000000144,completion,,,,,false,,,,242105.80000001192,242104.5,239263.781,239268.69999998808,239280.447,242114.132,8,400,,,
trial,html.Screen,4_54_0,2023-11-02T01:53:31.707Z,,0,2,,2624.0679999880667,response,ISIC_9864402.JPG,8,ISIC_0054792.JPG,ISIC_0054792.JPG,false,0,keypress(z),500,244738.69999998808,244738.19999998808,242097.466,242105.89999997616,242114.132,244747.36,8,400,5,,ISIC_9864402.JPG
break,html.Screen,4_54_1,2023-11-02T01:53:31.708Z,,0,,,NaN,,,,,,false,,,,244739.60000002384,244739.5,,244739.10000002384,,244747.36,8,400,,,
break_continue,html.Screen,4_54_2,2023-11-02T01:53:31.709Z,,0,,,NaN,,,,,,false,,,,244740.10000002384,244739.89999997616,,244739.80000001192,,244747.36,8,400,,,
sequence,flow.Sequence,4_54,2023-11-02T01:53:31.709Z,,0,,,2625.767999976146,completion,,,,,false,,,,244740.19999998808,244739.89999997616,242097.466,242105.80000001192,242114.132,244747.36,8,400,,,
trial,html.Screen,4_55_0,2023-11-02T01:53:34.419Z,,0,2,,2702.539999976172,response,ISIC_0033759.JPG,5,ISIC_7057495.JPG,ISIC_7057495.JPG,false,0,keypress(z),500,247450.39999997616,247449.89999997616,244730.694,244740.39999997616,244747.36,247463.918,8,400,6,,ISIC_0033759.JPG
break,html.Screen,4_55_1,2023-11-02T01:53:34.420Z,,0,,,NaN,,,,,,false,,,,247451.39999997616,247451.19999998808,,247450.80000001192,,247463.918,8,400,,,
break_continue,html.Screen,4_55_2,2023-11-02T01:53:34.420Z,,0,,,NaN,,,,,,false,,,,247451.89999997616,247451.69999998808,,247451.60000002384,,247463.918,8,400,,,
sequence,flow.Sequence,4_55,2023-11-02T01:53:34.421Z,,0,,,2704.339999988093,completion,,,,,false,,,,247452.10000002384,247451.69999998808,244730.694,244740.39999997616,244747.36,247463.918,8,400,,,
trial,html.Screen,4_56_0,2023-11-02T01:53:37.289Z,,0,2,,2855.882000011916,response,ISIC_6517082.JPG,6,ISIC_9286292.JPG,ISIC_6517082.JPG,false,1,keypress(m),500,250320.30000001192,250319.80000001192,247447.252,247452.19999998808,247463.918,250330.47,8,400,7,,ISIC_9286292.JPG
break,html.Screen,4_56_1,2023-11-02T01:53:37.290Z,,0,,,NaN,,,,,,false,,,,250321.19999998808,250321.10000002384,,250320.69999998808,,250330.47,8,400,,,
break_continue,html.Screen,4_56_2,2023-11-02T01:53:37.290Z,,0,,,NaN,,,,,,false,,,,250321.69999998808,250321.5,,250321.39999997616,,250330.47,8,400,,,
sequence,flow.Sequence,4_56,2023-11-02T01:53:37.290Z,,0,,,2857.581999999995,completion,,,,,false,,,,250321.89999997616,250321.5,247447.252,247452.19999998808,247463.918,250330.47,8,400,,,
trial,html.Screen,4_57_0,2023-11-02T01:53:42.386Z,,0,2,,5086.33000001192,response,ISIC_0028366.JPG,8,ISIC_5651106.JPG,ISIC_0028366.JPG,false,1,keypress(m),500,255417.19999998808,255416.80000001192,250313.804,250322.10000002384,250330.47,255430.68,8,400,8,,ISIC_5651106.JPG
break,html.Screen,4_57_1,2023-11-02T01:53:42.387Z,,0,,,NaN,,,,,,false,,,,255418.30000001192,255418.10000002384,,255417.5,,255430.68,8,400,,,
break_continue,html.Screen,4_57_2,2023-11-02T01:53:42.387Z,,0,,,NaN,,,,,,false,,,,255418.60000002384,255418.5,,255418.39999997616,,255430.68,8,400,,,
sequence,flow.Sequence,4_57,2023-11-02T01:53:42.387Z,,0,,,5088.029999999999,completion,,,,,false,,,,255418.80000001192,255418.5,250313.804,250322,250330.47,255430.68,8,400,,,
trial,html.Screen,4_58_0,2023-11-02T01:53:45.355Z,,0,2,,2955.719999976165,response,ISIC_2215276.JPG,6,ISIC_8906583.JPG,ISIC_2215276.JPG,false,1,keypress(m),500,258386.80000001192,258386.39999997616,255414.014,255419,255430.68,258397.228,8,400,9,,ISIC_8906583.JPG
break,html.Screen,4_58_1,2023-11-02T01:53:45.356Z,,0,,,NaN,,,,,,false,,,,258387.80000001192,258387.69999998808,,258387.10000002384,,258397.228,8,400,,,
break_continue,html.Screen,4_58_2,2023-11-02T01:53:45.357Z,,0,,,NaN,,,,,,false,,,,258388.30000001192,258388.10000002384,,258388,,258397.228,8,400,,,
sequence,flow.Sequence,4_58,2023-11-02T01:53:45.357Z,,0,,,2957.420000023849,completion,,,,,false,,,,258388.5,258388.10000002384,255414.014,255418.89999997616,255430.68,258397.228,8,400,,,
trial,html.Screen,4_59_0,2023-11-02T01:53:49.458Z,,0,2,,4091.771999999997,response,ISIC_0030296.JPG,8,ISIC_1470245.JPG,ISIC_1470245.JPG,false,0,keypress(z),500,262489.5,262489,258380.562,258388.69999998808,258397.228,262497.473,8,400,10,,ISIC_0030296.JPG
break,html.Screen,4_59_1,2023-11-02T01:53:49.459Z,,0,,,NaN,,,,,,false,,,,262490.5,262490.3000000119,,262489.8000000119,,262497.473,8,400,,,
break_continue,html.Screen,4_59_2,2023-11-02T01:53:49.460Z,,0,,,NaN,,,,,,false,,,,262490.89999997616,262490.8000000119,,262490.60000002384,,262497.473,8,400,,,
sequence,flow.Sequence,4_59,2023-11-02T01:53:49.460Z,,0,,,4093.572000011918,completion,,,,,false,,,,262491.1999999881,262490.8000000119,258380.562,258388.5,258397.228,262497.473,8,400,,,
trial,html.Screen,4_60_0,2023-11-02T01:53:52.408Z,,0,2,,2941.6270000238437,response,ISIC_1457687.JPG,7,ISIC_3912838.JPG,ISIC_3912838.JPG,false,0,keypress(z),500,265439.5,265439.10000002384,262480.807,262491.39999997616,262497.473,265447.355,8,400,11,,ISIC_1457687.JPG
break,html.Screen,4_60_1,2023-11-02T01:53:52.409Z,,0,,,NaN,,,,,,false,,,,265440.60000002384,265440.39999997616,,265439.89999997616,,265447.355,8,400,,,
break_continue,html.Screen,4_60_2,2023-11-02T01:53:52.410Z,,0,,,NaN,,,,,,false,,,,265440.89999997616,265440.8000000119,,265440.6999999881,,265447.355,8,400,,,
sequence,flow.Sequence,4_60,2023-11-02T01:53:52.410Z,,0,,,2943.327000011923,completion,,,,,false,,,,265441.10000002384,265440.8000000119,262480.807,262491.3000000119,262497.473,265447.355,8,400,,,
trial,html.Screen,4_61_0,2023-11-02T01:53:55.150Z,,0,2,,2733.5449999761768,response,ISIC_0059485.JPG,7,ISIC_0071492.JPG,ISIC_0071492.JPG,false,0,keypress(z),500,268181.3000000119,268180.89999997616,265430.689,265441.3000000119,265447.355,268197.245,8,400,12,,ISIC_0059485.JPG
break,html.Screen,4_61_1,2023-11-02T01:53:55.151Z,,0,,,NaN,,,,,,false,,,,268182.3000000119,268182.1999999881,,268181.60000002384,,268197.245,8,400,,,
break_continue,html.Screen,4_61_2,2023-11-02T01:53:55.151Z,,0,,,NaN,,,,,,false,,,,268182.6999999881,268182.60000002384,,268182.39999997616,,268197.245,8,400,,,
sequence,flow.Sequence,4_61,2023-11-02T01:53:55.152Z,,0,,,2735.2450000238605,completion,,,,,false,,,,268182.89999997616,268182.60000002384,265430.689,265441.3000000119,265447.355,268197.245,8,400,,,
trial,html.Screen,4_62_0,2023-11-02T01:53:57.877Z,,0,2,,2710.7550000000047,response,ISIC_9291926.JPG,7,ISIC_0071132.JPG,ISIC_9291926.JPG,false,1,keypress(m),500,270908.39999997616,270908,268180.579,268183.10000002384,268197.245,270913.803,8,400,13,,ISIC_0071132.JPG
break,html.Screen,4_62_1,2023-11-02T01:53:57.878Z,,0,,,NaN,,,,,,false,,,,270909.39999997616,270909.3000000119,,270908.8000000119,,270913.803,8,400,,,
break_continue,html.Screen,4_62_2,2023-11-02T01:53:57.878Z,,0,,,NaN,,,,,,false,,,,270909.8000000119,270909.6999999881,,270909.60000002384,,270913.803,8,400,,,
sequence,flow.Sequence,4_62,2023-11-02T01:53:57.879Z,,0,,,2712.4549999880837,completion,,,,,false,,,,270909.89999997616,270909.6999999881,268180.579,268183,268197.245,270913.803,8,400,,,
trial,html.Screen,4_63_0,2023-11-02T01:54:00.971Z,,0,2,,3088.3969999880646,response,ISIC_1132496.JPG,5,ISIC_2935987.JPG,ISIC_1132496.JPG,false,1,keypress(m),500,274002.8000000119,274002.1999999881,270897.137,270910.1999999881,270913.803,274014.085,8,400,14,,ISIC_2935987.JPG
break,html.Screen,4_63_1,2023-11-02T01:54:00.972Z,,0,,,NaN,,,,,,false,,,,274003.6999999881,274003.5,,274003.10000002384,,274014.085,8,400,,,
break_continue,html.Screen,4_63_2,2023-11-02T01:54:00.973Z,,0,,,NaN,,,,,,false,,,,274004.10000002384,274003.89999997616,,274003.8000000119,,274014.085,8,400,,,
sequence,flow.Sequence,4_63,2023-11-02T01:54:00.973Z,,0,,,3090.0969999761437,completion,,,,,false,,,,274004.3000000119,274003.89999997616,270897.137,270910.10000002384,270913.803,274014.085,8,400,,,
trial,html.Screen,4_64_0,2023-11-02T01:54:04.710Z,,0,2,,3727.114999988058,response,ISIC_3305153.JPG,7,ISIC_0728350.JPG,ISIC_3305153.JPG,false,1,keypress(m),500,277741.6999999881,277741.1999999881,273997.419,274004.5,274014.085,277747.269,8,400,15,,ISIC_0728350.JPG
break,html.Screen,4_64_1,2023-11-02T01:54:04.711Z,,0,,,NaN,,,,,,false,,,,277742.6999999881,277742.5,,277742,,277747.269,8,400,,,
break_continue,html.Screen,4_64_2,2023-11-02T01:54:04.712Z,,0,,,NaN,,,,,,false,,,,277743,277742.8000000119,,277742.8000000119,,277747.269,8,400,,,
sequence,flow.Sequence,4_64,2023-11-02T01:54:04.712Z,,0,,,3728.7150000119,completion,,,,,false,,,,277743.1999999881,277742.8000000119,273997.419,274004.39999997616,274014.085,277747.269,8,400,,,
trial,html.Screen,4_65_0,2023-11-02T01:54:10.046Z,,0,2,,5329.430999988108,response,ISIC_6562871.JPG,6,ISIC_0594695.JPG,ISIC_6562871.JPG,false,1,keypress(m),500,283077.10000002384,283076.6999999881,277730.603,277743.39999997616,277747.269,283080.793,8,400,16,,ISIC_0594695.JPG
break,html.Screen,4_65_1,2023-11-02T01:54:10.047Z,,0,,,NaN,,,,,,false,,,,283078,283077.8000000119,,283077.39999997616,,283080.793,8,400,,,
break_continue,html.Screen,4_65_2,2023-11-02T01:54:10.047Z,,0,,,NaN,,,,,,false,,,,283078.39999997616,283078.3000000119,,283078.10000002384,,283080.793,8,400,,,
sequence,flow.Sequence,4_65,2023-11-02T01:54:10.047Z,,0,,,5331.03100001195,completion,,,,,false,,,,283078.60000002384,283078.3000000119,277730.603,277743.3000000119,277747.269,283080.793,8,400,,,
trial,html.Screen,4_66_0,2023-11-02T01:54:13.429Z,,0,2,,3379.007000011916,response,ISIC_3664380.JPG,7,ISIC_0058658.JPG,ISIC_3664380.JPG,false,1,keypress(m),500,286460.3000000119,286459.8000000119,283064.127,283078.6999999881,283080.793,286463.991,8,400,17,,ISIC_0058658.JPG
break,html.Screen,4_66_1,2023-11-02T01:54:13.430Z,,0,,,NaN,,,,,,false,,,,286461.39999997616,286461.10000002384,,286460.6999999881,,286463.991,8,400,,,
break_continue,html.Screen,4_66_2,2023-11-02T01:54:13.430Z,,0,,,NaN,,,,,,false,,,,286461.6999999881,286461.6999999881,,286461.5,,286463.991,8,400,,,
sequence,flow.Sequence,4_66,2023-11-02T01:54:13.431Z,,0,,,3380.906999988074,completion,,,,,false,,,,286461.89999997616,286461.6999999881,283064.127,283078.6999999881,283080.793,286463.991,8,400,,,
trial,html.Screen,4_67_0,2023-11-02T01:54:16.329Z,,0,2,,2895.809000011941,response,ISIC_0063642.JPG,5,ISIC_0072030.JPG,ISIC_0072030.JPG,false,0,keypress(z),500,289360.3000000119,289359.8000000119,286447.325,286462.10000002384,286463.991,289363.875,8,400,18,,ISIC_0063642.JPG
break,html.Screen,4_67_1,2023-11-02T01:54:16.330Z,,0,,,NaN,,,,,,false,,,,289361.5,289361.10000002384,,289360.60000002384,,289363.875,8,400,,,
break_continue,html.Screen,4_67_2,2023-11-02T01:54:16.330Z,,0,,,NaN,,,,,,false,,,,289361.89999997616,289361.6999999881,,289361.60000002384,,289363.875,8,400,,,
sequence,flow.Sequence,4_67,2023-11-02T01:54:16.331Z,,0,,,2897.708999988099,completion,,,,,false,,,,289362,289361.6999999881,286447.325,286462,286463.991,289363.875,8,400,,,
trial,html.Screen,4_68_0,2023-11-02T01:54:19.118Z,,0,2,,2785.125,response,ISIC_0024694.JPG,9,ISIC_6293107.JPG,ISIC_0024694.JPG,false,1,keypress(m),500,292149.5,292149,289347.209,289362.1999999881,289363.875,292163.763,8,400,19,,ISIC_6293107.JPG
break,html.Screen,4_68_1,2023-11-02T01:54:19.119Z,,0,,,NaN,,,,,,false,,,,292150.5,292150.39999997616,,292149.8000000119,,292163.763,8,400,,,
break_continue,html.Screen,4_68_2,2023-11-02T01:54:19.120Z,,0,,,NaN,,,,,,false,,,,292150.89999997616,292150.8000000119,,292150.60000002384,,292163.763,8,400,,,
sequence,flow.Sequence,4_68,2023-11-02T01:54:19.120Z,,0,,,2786.925000011921,completion,,,,,false,,,,292151,292150.8000000119,289347.209,289362.1999999881,289363.875,292163.763,8,400,,,
trial,html.Screen,4_69_0,2023-11-02T01:54:21.876Z,,0,2,,2743.3370000238647,response,ISIC_1460249.JPG,9,ISIC_5602724.JPG,ISIC_5602724.JPG,false,0,keypress(z),500,294907.60000002384,294907.10000002384,292147.097,292151.1999999881,292163.763,294914.061,8,400,20,,ISIC_1460249.JPG
break,html.Screen,4_69_1,2023-11-02T01:54:21.877Z,,0,,,NaN,,,,,,false,,,,294908.5,294908.39999997616,,294907.89999997616,,294914.061,8,400,,,
break_continue,html.Screen,4_69_2,2023-11-02T01:54:21.877Z,,0,,,NaN,,,,,,false,,,,294908.8000000119,294908.8000000119,,294908.60000002384,,294914.061,8,400,,,
sequence,flow.Sequence,4_69,2023-11-02T01:54:21.878Z,,0,,,2745.0370000119437,completion,,,,,false,,,,294909,294908.8000000119,292147.097,292151.10000002384,292163.763,294914.061,8,400,,,
trial,html.Screen,4_70_0,2023-11-02T01:54:24.747Z,,0,2,,2863.939000000013,response,ISIC_4890201.JPG,6,ISIC_2647643.JPG,ISIC_2647643.JPG,false,0,keypress(z),500,297778.39999997616,297778,294897.395,294909.10000002384,294914.061,297780.613,8,400,21,,ISIC_4890201.JPG
break,html.Screen,4_70_1,2023-11-02T01:54:24.748Z,,0,,,NaN,,,,,,false,,,,297779.39999997616,297779.3000000119,,297778.6999999881,,297780.613,8,400,,,
break_continue,html.Screen,4_70_2,2023-11-02T01:54:24.748Z,,0,,,NaN,,,,,,false,,,,297779.8000000119,297779.6999999881,,297779.5,,297780.613,8,400,,,
sequence,flow.Sequence,4_70,2023-11-02T01:54:24.749Z,,0,,,2865.638999988092,completion,,,,,false,,,,297779.89999997616,297779.6999999881,294897.395,294909.10000002384,294914.061,297780.613,8,400,,,
trial,html.Screen,4_71_0,2023-11-02T01:54:27.876Z,,0,2,,3126.4870000238298,response,ISIC_0030072.JPG,5,ISIC_0030694.JPG,ISIC_0030072.JPG,false,1,keypress(m),500,300907.60000002384,300907.10000002384,297763.947,297780.10000002384,297780.613,300913.821,8,400,22,,ISIC_0030694.JPG
break,html.Screen,4_71_1,2023-11-02T01:54:27.877Z,,0,,,NaN,,,,,,false,,,,300908.60000002384,300908.39999997616,,300908,,300913.821,8,400,,,
break_continue,html.Screen,4_71_2,2023-11-02T01:54:27.878Z,,0,,,NaN,,,,,,false,,,,300909,300908.8000000119,,300908.6999999881,,300913.821,8,400,,,
sequence,flow.Sequence,4_71,2023-11-02T01:54:27.878Z,,0,,,3128.187000011909,completion,,,,,false,,,,300909.10000002384,300908.8000000119,297763.947,297780.10000002384,297780.613,300913.821,8,400,,,
trial,html.Screen,4_72_0,2023-11-02T01:54:30.985Z,,0,2,,3102.078999976162,response,ISIC_6515546.JPG,6,ISIC_0012263.JPG,ISIC_6515546.JPG,false,1,keypress(m),500,304016.39999997616,304015.89999997616,300897.155,300909.1999999881,300913.821,304030.802,8,400,23,,ISIC_0012263.JPG
break,html.Screen,4_72_1,2023-11-02T01:54:30.986Z,,0,,,NaN,,,,,,false,,,,304017.3000000119,304017.10000002384,,304016.6999999881,,304030.802,8,400,,,
break_continue,html.Screen,4_72_2,2023-11-02T01:54:30.986Z,,0,,,NaN,,,,,,false,,,,304017.6999999881,304017.60000002384,,304017.5,,304030.802,8,400,,,
sequence,flow.Sequence,4_72,2023-11-02T01:54:30.987Z,,0,,,3103.7790000238456,completion,,,,,false,,,,304017.89999997616,304017.60000002384,300897.155,300909.1999999881,300913.821,304030.802,8,400,,,
trial,html.Screen,4_73_0,2023-11-02T01:54:33.661Z,,0,2,,2661.397999988054,response,ISIC_0033393.JPG,8,ISIC_6959281.JPG,ISIC_6959281.JPG,false,0,keypress(z),500,306692.6999999881,306692.1999999881,304014.136,304018,304030.802,306697.362,8,400,24,,ISIC_0033393.JPG
break,html.Screen,4_73_1,2023-11-02T01:54:33.662Z,,0,,,NaN,,,,,,false,,,,306693.6999999881,306693.5,,306693,,306697.362,8,400,,,
break_continue,html.Screen,4_73_2,2023-11-02T01:54:33.663Z,,0,,,NaN,,,,,,false,,,,306694.10000002384,306693.89999997616,,306693.8000000119,,306697.362,8,400,,,
sequence,flow.Sequence,4_73,2023-11-02T01:54:33.663Z,,0,,,2663.097999976133,completion,,,,,false,,,,306694.3000000119,306693.89999997616,304014.136,304018,304030.802,306697.362,8,400,,,
trial,html.Screen,4_74_0,2023-11-02T01:54:36.932Z,,0,2,,3265.238000023819,response,ISIC_0046900.JPG,9,ISIC_4781169.JPG,ISIC_0046900.JPG,false,1,keypress(m),500,309963.10000002384,309962.60000002384,306680.696,306694.39999997616,306697.362,309980.564,8,400,25,,ISIC_4781169.JPG
break,html.Screen,4_74_1,2023-11-02T01:54:36.933Z,,0,,,NaN,,,,,,false,,,,309964.10000002384,309963.89999997616,,309963.39999997616,,309980.564,8,400,,,
break_continue,html.Screen,4_74_2,2023-11-02T01:54:36.933Z,,0,,,NaN,,,,,,false,,,,309964.39999997616,309964.3000000119,,309964.1999999881,,309980.564,8,400,,,
sequence,flow.Sequence,4_74,2023-11-02T01:54:36.933Z,,0,,,3266.938000011898,completion,,,,,false,,,,309964.60000002384,309964.3000000119,306680.696,306694.39999997616,306697.362,309980.564,8,400,,,
trial,html.Screen,4_75_0,2023-11-02T01:54:39.642Z,,0,2,,2692.536000023829,response,ISIC_0031611.JPG,7,ISIC_0014629.JPG,ISIC_0014629.JPG,false,0,keypress(z),500,312673.60000002384,312673.10000002384,309963.898,309964.6999999881,309980.564,312680.456,8,400,26,,ISIC_0031611.JPG
break,html.Screen,4_75_1,2023-11-02T01:54:39.643Z,,0,,,NaN,,,,,,false,,,,312674.5,312674.39999997616,,312673.8000000119,,312680.456,8,400,,,
break_continue,html.Screen,4_75_2,2023-11-02T01:54:39.644Z,,0,,,NaN,,,,,,false,,,,312674.89999997616,312674.6999999881,,312674.6999999881,,312680.456,8,400,,,
sequence,flow.Sequence,4_75,2023-11-02T01:54:39.644Z,,0,,,2694.135999988066,completion,,,,,false,,,,312675.1999999881,312674.6999999881,309963.898,309964.60000002384,309980.564,312680.456,8,400,,,
trial,html.Screen,4_76_0,2023-11-02T01:54:42.852Z,,0,2,,3202.2439999880735,response,ISIC_3013569.JPG,7,ISIC_7536704.JPG,ISIC_7536704.JPG,false,0,keypress(z),500,315883.1999999881,315882.6999999881,312663.79,312675.3000000119,312680.456,315897.424,8,400,27,,ISIC_3013569.JPG
break,html.Screen,4_76_1,2023-11-02T01:54:42.853Z,,0,,,NaN,,,,,,false,,,,315884.1999999881,315884,,315883.60000002384,,315897.424,8,400,,,
break_continue,html.Screen,4_76_2,2023-11-02T01:54:42.853Z,,0,,,NaN,,,,,,false,,,,315884.5,315884.5,,315884.39999997616,,315897.424,8,400,,,
sequence,flow.Sequence,4_76,2023-11-02T01:54:42.853Z,,0,,,3204.0439999999944,completion,,,,,false,,,,315884.6999999881,315884.5,312663.79,312675.1999999881,312680.456,315897.424,8,400,,,
trial,html.Screen,4_77_0,2023-11-02T01:54:46.796Z,,0,2,,3929.876000011922,response,ISIC_4961708.JPG,8,ISIC_9913573.JPG,ISIC_4961708.JPG,false,1,keypress(m),500,319827.6999999881,319827.3000000119,315880.758,315885,315897.424,319847.266,8,400,28,,ISIC_9913573.JPG
break,html.Screen,4_77_1,2023-11-02T01:54:46.797Z,,0,,,NaN,,,,,,false,,,,319828.8000000119,319828.60000002384,,319828,,319847.266,8,400,,,
break_continue,html.Screen,4_77_2,2023-11-02T01:54:46.798Z,,0,,,NaN,,,,,,false,,,,319829.10000002384,319829,,319828.89999997616,,319847.266,8,400,,,
sequence,flow.Sequence,4_77,2023-11-02T01:54:46.798Z,,0,,,3931.576000000001,completion,,,,,false,,,,319829.3000000119,319829,315880.758,315884.8000000119,315897.424,319847.266,8,400,,,
trial,html.Screen,4_78_0,2023-11-02T01:54:49.842Z,,0,2,,3025.433999988076,response,ISIC_3180213.JPG,6,ISIC_0030873.JPG,ISIC_0030873.JPG,false,0,keypress(z),500,322873.3000000119,322872.6999999881,319830.6,319829.5,319847.266,322880.478,8,400,29,,ISIC_3180213.JPG
break,html.Screen,4_78_1,2023-11-02T01:54:49.843Z,,0,,,NaN,,,,,,false,,,,322874.3000000119,322874.10000002384,,322873.60000002384,,322880.478,8,400,,,
break_continue,html.Screen,4_78_2,2023-11-02T01:54:49.843Z,,0,,,NaN,,,,,,false,,,,322874.60000002384,322874.5,,322874.39999997616,,322880.478,8,400,,,
sequence,flow.Sequence,4_78,2023-11-02T01:54:49.844Z,,0,,,3027.2339999999967,completion,,,,,false,,,,322874.89999997616,322874.5,319830.6,319829.39999997616,319847.266,322880.478,8,400,,,
trial,html.Screen,4_79_0,2023-11-02T01:54:52.632Z,,0,2,,2782.322000011918,response,ISIC_0065351.JPG,6,ISIC_0054206.JPG,ISIC_0065351.JPG,false,1,keypress(m),500,325663.1999999881,325662.8000000119,322863.812,322875,322880.478,325680.777,8,400,30,,ISIC_0054206.JPG
break,html.Screen,4_79_1,2023-11-02T01:54:52.633Z,,0,,,NaN,,,,,,false,,,,325664.1999999881,325664.10000002384,,325663.5,,325680.777,8,400,,,
break_continue,html.Screen,4_79_2,2023-11-02T01:54:52.633Z,,0,,,NaN,,,,,,false,,,,325664.60000002384,325664.5,,325664.39999997616,,325680.777,8,400,,,
sequence,flow.Sequence,4_79,2023-11-02T01:54:52.634Z,,0,,,2784.021999999997,completion,,,,,false,,,,325664.8000000119,325664.5,322863.812,322874.89999997616,322880.478,325680.777,8,400,,,
trial,html.Screen,4_80_0,2023-11-02T01:54:55.506Z,,0,2,,2856.32300002384,response,ISIC_8849004.JPG,8,ISIC_4692567.JPG,ISIC_8849004.JPG,false,1,keypress(m),500,328537.60000002384,328537.10000002384,325664.111,325664.89999997616,325680.777,328547.329,8,400,31,,ISIC_4692567.JPG
break,html.Screen,4_80_1,2023-11-02T01:54:55.507Z,,0,,,NaN,,,,,,false,,,,328538.60000002384,328538.39999997616,,328537.89999997616,,328547.329,8,400,,,
break_continue,html.Screen,4_80_2,2023-11-02T01:54:55.508Z,,0,,,NaN,,,,,,false,,,,328539.1999999881,328538.89999997616,,328538.8000000119,,328547.329,8,400,,,
sequence,flow.Sequence,4_80,2023-11-02T01:54:55.508Z,,0,,,2858.1229999761563,completion,,,,,false,,,,328539.39999997616,328538.89999997616,325664.111,325664.89999997616,325680.777,328547.329,8,400,,,
trial,html.Screen,4_81_0,2023-11-02T01:54:58.299Z,,0,2,,2782.771000023815,response,ISIC_8796456.JPG,7,ISIC_0030852.JPG,ISIC_8796456.JPG,false,1,keypress(m),500,331330.5,331330.10000002384,328530.663,328539.5,328547.329,331347.217,8,400,32,,ISIC_0030852.JPG
break,html.Screen,4_81_1,2023-11-02T01:54:58.300Z,,0,,,NaN,,,,,,false,,,,331331.5,331331.3000000119,,331330.8000000119,,331347.217,8,400,,,
break_continue,html.Screen,4_81_2,2023-11-02T01:54:58.301Z,,0,,,NaN,,,,,,false,,,,331331.89999997616,331331.89999997616,,331331.6999999881,,331347.217,8,400,,,
sequence,flow.Sequence,4_81,2023-11-02T01:54:58.301Z,,0,,,2784.570999976131,completion,,,,,false,,,,331332.10000002384,331331.89999997616,328530.663,328539.39999997616,328547.329,331347.217,8,400,,,
trial,html.Screen,4_82_0,2023-11-02T01:55:02.035Z,,0,2,,3718.482999988075,response,ISIC_2051278.JPG,5,ISIC_7400458.JPG,ISIC_7400458.JPG,false,0,keypress(z),500,335066.1999999881,335065.6999999881,331330.551,331332.3000000119,331347.217,335080.811,8,400,33,,ISIC_2051278.JPG
break,html.Screen,4_82_1,2023-11-02T01:55:02.036Z,,0,,,NaN,,,,,,false,,,,335067.3000000119,335067,,335066.39999997616,,335080.811,8,400,,,
break_continue,html.Screen,4_82_2,2023-11-02T01:55:02.036Z,,0,,,NaN,,,,,,false,,,,335067.6999999881,335067.60000002384,,335067.39999997616,,335080.811,8,400,,,
sequence,flow.Sequence,4_82,2023-11-02T01:55:02.037Z,,0,,,3720.3830000238377,completion,,,,,false,,,,335067.89999997616,335067.60000002384,331330.551,331332.3000000119,331347.217,335080.811,8,400,,,
trial,html.Screen,4_83_0,2023-11-02T01:55:04.856Z,,0,2,,2806.388999988092,response,ISIC_0014932.JPG,7,ISIC_5703909.JPG,ISIC_0014932.JPG,false,1,keypress(m),500,337887.6999999881,337887.1999999881,335064.145,335068.10000002384,335080.811,337897.365,8,400,34,,ISIC_5703909.JPG
break,html.Screen,4_83_1,2023-11-02T01:55:04.857Z,,0,,,NaN,,,,,,false,,,,337888.6999999881,337888.39999997616,,337888,,337897.365,8,400,,,
break_continue,html.Screen,4_83_2,2023-11-02T01:55:04.858Z,,0,,,NaN,,,,,,false,,,,337889.10000002384,337888.89999997616,,337888.8000000119,,337897.365,8,400,,,
sequence,flow.Sequence,4_83,2023-11-02T01:55:04.858Z,,0,,,2808.088999976171,completion,,,,,false,,,,337889.3000000119,337888.89999997616,335064.145,335068.10000002384,335080.811,337897.365,8,400,,,
trial,html.Screen,4_84_0,2023-11-02T01:55:07.646Z,,0,2,,2779.6350000000093,response,ISIC_6111078.JPG,5,ISIC_0027238.JPG,ISIC_0027238.JPG,false,0,keypress(z),500,340677.5,340677,337880.699,337889.39999997616,337897.365,340680.587,8,400,35,,ISIC_6111078.JPG
break,html.Screen,4_84_1,2023-11-02T01:55:07.647Z,,0,,,NaN,,,,,,false,,,,340678.39999997616,340678.3000000119,,340677.8000000119,,340680.587,8,400,,,
break_continue,html.Screen,4_84_2,2023-11-02T01:55:07.648Z,,0,,,NaN,,,,,,false,,,,340678.8000000119,340678.6999999881,,340678.5,,340680.587,8,400,,,
sequence,flow.Sequence,4_84,2023-11-02T01:55:07.648Z,,0,,,2781.3349999880884,completion,,,,,false,,,,340679,340678.6999999881,337880.699,337889.39999997616,337897.365,340680.587,8,400,,,
trial,html.Screen,4_85_0,2023-11-02T01:55:11.304Z,,0,2,,3653.9130000000005,response,ISIC_0071471.JPG,6,ISIC_8791744.JPG,ISIC_0071471.JPG,false,1,keypress(m),500,344335.10000002384,344334.5,340663.921,340679.10000002384,340680.587,344347.107,8,400,36,,ISIC_8791744.JPG
break,html.Screen,4_85_1,2023-11-02T01:55:11.305Z,,0,,,NaN,,,,,,false,,,,344336.10000002384,344335.89999997616,,344335.3000000119,,344347.107,8,400,,,
break_continue,html.Screen,4_85_2,2023-11-02T01:55:11.305Z,,0,,,NaN,,,,,,false,,,,344336.39999997616,344336.3000000119,,344336.1999999881,,344347.107,8,400,,,
sequence,flow.Sequence,4_85,2023-11-02T01:55:11.305Z,,0,,,3655.7130000119214,completion,,,,,false,,,,344336.60000002384,344336.3000000119,340663.921,340679.10000002384,340680.587,344347.107,8,400,,,
trial,html.Screen,4_86_0,2023-11-02T01:55:14.414Z,,0,2,,3097.892999999982,response,ISIC_0834745.JPG,5,ISIC_0008864.JPG,ISIC_0008864.JPG,false,0,keypress(z),500,347445.5,347445,344330.441,344336.8000000119,344347.107,347447.398,8,400,37,,ISIC_0834745.JPG
break,html.Screen,4_86_1,2023-11-02T01:55:14.415Z,,0,,,NaN,,,,,,false,,,,347446.5,347446.3000000119,,347445.8000000119,,347447.398,8,400,,,
break_continue,html.Screen,4_86_2,2023-11-02T01:55:14.416Z,,0,,,NaN,,,,,,false,,,,347446.89999997616,347446.8000000119,,347446.6999999881,,347447.398,8,400,,,
sequence,flow.Sequence,4_86,2023-11-02T01:55:14.416Z,,0,,,3099.6930000119028,completion,,,,,false,,,,347447.1999999881,347446.8000000119,344330.441,344336.8000000119,344347.107,347447.398,8,400,,,
trial,html.Screen,4_87_0,2023-11-02T01:55:17.381Z,,0,2,,2963.9020000119344,response,ISIC_0011959.JPG,8,ISIC_1919324.JPG,ISIC_1919324.JPG,false,0,keypress(z),500,350411.8000000119,350411.3000000119,347430.732,347447.39999997616,347447.398,350413.946,8,400,38,,ISIC_0011959.JPG
break,html.Screen,4_87_1,2023-11-02T01:55:17.382Z,,0,,,NaN,,,,,,false,,,,350412.89999997616,350412.60000002384,,350412.10000002384,,350413.946,8,400,,,
break_continue,html.Screen,4_87_2,2023-11-02T01:55:17.382Z,,0,,,NaN,,,,,,false,,,,350413.1999999881,350413.10000002384,,350412.89999997616,,350413.946,8,400,,,
sequence,flow.Sequence,4_87,2023-11-02T01:55:17.382Z,,0,,,2965.7020000238554,completion,,,,,false,,,,350413.39999997616,350413.10000002384,347430.732,347447.3000000119,347447.398,350413.946,8,400,,,
trial,html.Screen,4_88_0,2023-11-02T01:55:20.507Z,,0,2,,3123.753999988083,response,ISIC_0011948.JPG,8,ISIC_6464772.JPG,ISIC_0011948.JPG,false,1,keypress(m),500,353538.1999999881,353537.6999999881,350397.28,350413.5,350413.946,353547.154,8,400,39,,ISIC_6464772.JPG
break,html.Screen,4_88_1,2023-11-02T01:55:20.508Z,,0,,,NaN,,,,,,false,,,,353539.3000000119,353539,,353538.60000002384,,353547.154,8,400,,,
break_continue,html.Screen,4_88_2,2023-11-02T01:55:20.508Z,,0,,,NaN,,,,,,false,,,,353539.6999999881,353539.60000002384,,353539.39999997616,,353547.154,8,400,,,
sequence,flow.Sequence,4_88,2023-11-02T01:55:20.509Z,,0,,,3125.6540000238456,completion,,,,,false,,,,353539.89999997616,353539.60000002384,350397.28,350413.5,350413.946,353547.154,8,400,,,
trial,html.Screen,4_89_0,2023-11-02T01:55:23.655Z,,0,2,,3138.7459999761777,response,ISIC_0011095.JPG,9,ISIC_0222299.JPG,ISIC_0011095.JPG,false,1,keypress(m),500,356686.39999997616,356685.89999997616,353530.488,353540,353547.154,356697.461,8,400,40,,ISIC_0222299.JPG
break,html.Screen,4_89_1,2023-11-02T01:55:23.656Z,,0,,,NaN,,,,,,false,,,,356687.3000000119,356687.10000002384,,356686.6999999881,,356697.461,8,400,,,
break_continue,html.Screen,4_89_2,2023-11-02T01:55:23.657Z,,0,,,NaN,,,,,,false,,,,356687.6999999881,356687.60000002384,,356687.5,,356697.461,8,400,,,
sequence,flow.Sequence,4_89,2023-11-02T01:55:23.657Z,,0,,,3140.4460000238614,completion,,,,,false,,,,356687.89999997616,356687.60000002384,353530.488,353539.89999997616,353547.154,356697.461,8,400,,,
trial,html.Screen,4_90_0,2023-11-02T01:55:26.530Z,,0,2,,2863.5389999999898,response,ISIC_2463014.JPG,5,ISIC_1552232.JPG,ISIC_1552232.JPG,false,0,keypress(z),500,359561.5,359561,356680.795,356688,356697.461,359564.013,8,400,41,,ISIC_2463014.JPG
break,html.Screen,4_90_1,2023-11-02T01:55:26.531Z,,0,,,NaN,,,,,,false,,,,359562.5,359562.39999997616,,359561.8000000119,,359564.013,8,400,,,
break_continue,html.Screen,4_90_2,2023-11-02T01:55:26.532Z,,0,,,NaN,,,,,,false,,,,359562.89999997616,359562.8000000119,,359562.6999999881,,359564.013,8,400,,,
sequence,flow.Sequence,4_90,2023-11-02T01:55:26.532Z,,0,,,2865.3390000119107,completion,,,,,false,,,,359563.10000002384,359562.8000000119,356680.795,356688,356697.461,359564.013,8,400,,,
trial,html.Screen,4_91_0,2023-11-02T01:55:29.335Z,,0,2,,2801.886999976181,response,ISIC_7313348.JPG,7,ISIC_0000558.JPG,ISIC_0000558.JPG,false,0,keypress(z),500,362366.39999997616,362365.89999997616,359547.347,359563.1999999881,359564.013,362380.567,8,400,42,,ISIC_7313348.JPG
break,html.Screen,4_91_1,2023-11-02T01:55:29.336Z,,0,,,NaN,,,,,,false,,,,362367.39999997616,362367.1999999881,,362366.6999999881,,362380.567,8,400,,,
break_continue,html.Screen,4_91_2,2023-11-02T01:55:29.337Z,,0,,,NaN,,,,,,false,,,,362367.6999999881,362367.60000002384,,362367.5,,362380.567,8,400,,,
sequence,flow.Sequence,4_91,2023-11-02T01:55:29.337Z,,0,,,2803.5870000238647,completion,,,,,false,,,,362367.89999997616,362367.60000002384,359547.347,359563.1999999881,359564.013,362380.567,8,400,,,
trial,html.Screen,4_92_0,2023-11-02T01:55:33.419Z,,0,2,,4069.132999988098,response,ISIC_0069645.JPG,6,ISIC_0063556.JPG,ISIC_0063556.JPG,false,0,keypress(z),500,366450.10000002384,366449.6999999881,362363.901,362368.10000002384,362380.567,366464.176,8,400,43,,ISIC_0069645.JPG
break,html.Screen,4_92_1,2023-11-02T01:55:33.420Z,,0,,,NaN,,,,,,false,,,,366451.10000002384,366450.89999997616,,366450.5,,366464.176,8,400,,,
break_continue,html.Screen,4_92_2,2023-11-02T01:55:33.420Z,,0,,,NaN,,,,,,false,,,,366451.5,366451.39999997616,,366451.1999999881,,366464.176,8,400,,,
sequence,flow.Sequence,4_92,2023-11-02T01:55:33.420Z,,0,,,4070.8329999761772,completion,,,,,false,,,,366451.6999999881,366451.39999997616,362363.901,362368,362380.567,366464.176,8,400,,,
trial,html.Screen,4_93_0,2023-11-02T01:55:36.018Z,,0,2,,2584.1240000119433,response,ISIC_2545299.JPG,8,ISIC_0177304.JPG,ISIC_0177304.JPG,false,0,keypress(z),500,369048.8000000119,369048.3000000119,366447.51,366451.8000000119,366464.176,369064.072,8,400,44,,ISIC_2545299.JPG
break,html.Screen,4_93_1,2023-11-02T01:55:36.019Z,,0,,,NaN,,,,,,false,,,,369049.6999999881,369049.5,,369049,,369064.072,8,400,,,
break_continue,html.Screen,4_93_2,2023-11-02T01:55:36.019Z,,0,,,NaN,,,,,,false,,,,369050.10000002384,369049.89999997616,,369049.8000000119,,369064.072,8,400,,,
sequence,flow.Sequence,4_93,2023-11-02T01:55:36.019Z,,0,,,2585.7239999761805,completion,,,,,false,,,,369050.3000000119,369049.89999997616,366447.51,366451.8000000119,366464.176,369064.072,8,400,,,
trial,html.Screen,4_94_0,2023-11-02T01:55:39.113Z,,0,2,,3079.6279999880935,response,ISIC_0064026.JPG,9,ISIC_6640686.JPG,ISIC_0064026.JPG,false,1,keypress(m),500,372144.10000002384,372143.6999999881,369047.406,369050.39999997616,369064.072,372147.282,8,400,45,,ISIC_6640686.JPG
break,html.Screen,4_94_1,2023-11-02T01:55:39.114Z,,0,,,NaN,,,,,,false,,,,372145.1999999881,372144.89999997616,,372144.5,,372147.282,8,400,,,
break_continue,html.Screen,4_94_2,2023-11-02T01:55:39.114Z,,0,,,NaN,,,,,,false,,,,372145.5,372145.39999997616,,372145.3000000119,,372147.282,8,400,,,
sequence,flow.Sequence,4_94,2023-11-02T01:55:39.114Z,,0,,,3081.3279999761726,completion,,,,,false,,,,372145.6999999881,372145.39999997616,369047.406,369050.39999997616,369064.072,372147.282,8,400,,,
trial,html.Screen,4_95_0,2023-11-02T01:55:42.099Z,,0,2,,2982.1179999761516,response,ISIC_0067695.JPG,8,ISIC_0034086.JPG,ISIC_0067695.JPG,false,1,keypress(m),500,375129.89999997616,375129.39999997616,372130.616,372145.8000000119,372147.282,375147.162,8,400,46,,ISIC_0034086.JPG
break,html.Screen,4_95_1,2023-11-02T01:55:42.100Z,,0,,,NaN,,,,,,false,,,,375130.89999997616,375130.6999999881,,375130.1999999881,,375147.162,8,400,,,
break_continue,html.Screen,4_95_2,2023-11-02T01:55:42.100Z,,0,,,NaN,,,,,,false,,,,375131.5,375131.3000000119,,375131.10000002384,,375147.162,8,400,,,
sequence,flow.Sequence,4_95,2023-11-02T01:55:42.100Z,,0,,,2984.0180000119144,completion,,,,,false,,,,375131.60000002384,375131.3000000119,372130.616,372145.8000000119,372147.282,375147.162,8,400,,,
trial,html.Screen,4_96_0,2023-11-02T01:55:44.967Z,,0,2,,2850.4380000238307,response,ISIC_0430837.JPG,8,ISIC_0011448.JPG,ISIC_0011448.JPG,false,0,keypress(z),500,377998,377997.60000002384,375130.496,375131.8000000119,375147.162,378014.12,8,400,47,,ISIC_0430837.JPG
break,html.Screen,4_96_1,2023-11-02T01:55:44.968Z,,0,,,NaN,,,,,,false,,,,377999,377998.8000000119,,377998.3000000119,,378014.12,8,400,,,
break_continue,html.Screen,4_96_2,2023-11-02T01:55:44.968Z,,0,,,NaN,,,,,,false,,,,377999.5,377999.3000000119,,377999.1999999881,,378014.12,8,400,,,
sequence,flow.Sequence,4_96,2023-11-02T01:55:44.968Z,,0,,,2852.1380000119098,completion,,,,,false,,,,377999.60000002384,377999.3000000119,375130.496,375131.8000000119,375147.162,378014.12,8,400,,,
trial,html.Screen,4_97_0,2023-11-02T01:55:47.917Z,,0,2,,2933.4800000238465,response,ISIC_0663588.JPG,6,ISIC_0027145.JPG,ISIC_0663588.JPG,false,1,keypress(m),500,380948.10000002384,380947.60000002384,377997.454,377999.6999999881,378014.12,380964.002,8,400,48,,ISIC_0027145.JPG
break,html.Screen,4_97_1,2023-11-02T01:55:47.918Z,,0,,,NaN,,,,,,false,,,,380949.1999999881,380948.89999997616,,380948.39999997616,,380964.002,8,400,,,
break_continue,html.Screen,4_97_2,2023-11-02T01:55:47.918Z,,0,,,NaN,,,,,,false,,,,380949.60000002384,380949.5,,380949.3000000119,,380964.002,8,400,,,
sequence,flow.Sequence,4_97,2023-11-02T01:55:47.919Z,,0,,,2935.3800000000047,completion,,,,,false,,,,380949.8000000119,380949.5,377997.454,377999.6999999881,378014.12,380964.002,8,400,,,
trial,html.Screen,4_98_0,2023-11-02T01:55:51.121Z,,0,2,,3187.7980000119423,response,ISIC_3586669.JPG,9,ISIC_0062099.JPG,ISIC_0062099.JPG,false,0,keypress(z),500,384152.1999999881,384151.8000000119,380947.336,380950,380964.002,384163.874,8,400,49,,ISIC_3586669.JPG
break,html.Screen,4_98_1,2023-11-02T01:55:51.122Z,,0,,,NaN,,,,,,false,,,,384153.5,384153.1999999881,,384152.60000002384,,384163.874,8,400,,,
break_continue,html.Screen,4_98_2,2023-11-02T01:55:51.123Z,,0,,,NaN,,,,,,false,,,,384153.89999997616,384153.6999999881,,384153.5,,384163.874,8,400,,,
sequence,flow.Sequence,4_98,2023-11-02T01:55:51.123Z,,0,,,3189.6979999881005,completion,,,,,false,,,,384154.10000002384,384153.6999999881,380947.336,380949.8000000119,380964.002,384163.874,8,400,,,
trial,html.Screen,4_99_0,2023-11-02T01:55:54.262Z,,0,2,,3129.3259999880684,response,ISIC_0011132.JPG,6,ISIC_0010162.JPG,ISIC_0010162.JPG,false,0,keypress(z),500,387293.6999999881,387293.1999999881,384147.208,384154.3000000119,384163.874,387297.516,8,400,50,,ISIC_0011132.JPG
break,html.Screen,4_99_1,2023-11-02T01:56:04.252Z,,0,,,10000.004000000015,timeout,,,,,false,,,,397283.10000002384,397280.854,387280.85,387293.89999997616,387297.516,397297.52,8,400,,,
break_continue,html.Screen,4_99_2,2023-11-02T01:56:04.893Z,,0,,,608.6799999880604,response,,,,,false,continue,keypress(Space),,397924.3000000119,397906.1999999881,397280.854,397283.39999997616,397297.52,397930.828,8,400,,,
sequence,flow.Sequence,4_99,2023-11-02T01:56:04.893Z,,0,,,13742.325999988068,completion,,,,,false,,,,397924.39999997616,397906.1999999881,384147.208,384154.10000002384,384163.874,397930.828,8,400,,,
trial,html.Screen,4_100_0,2023-11-02T01:56:07.922Z,,0,3,,3021.3719999880996,response,ISIC_9716860.JPG,7,ISIC_2271767.JPG,ISIC_2271767.JPG,false,0,keypress(z),500,400952.6999999881,400952.1999999881,397914.162,397924.60000002384,397930.828,400964.04,8,400,1,,ISIC_9716860.JPG
break,html.Screen,4_100_1,2023-11-02T01:56:07.923Z,,0,,,NaN,,,,,,false,,,,400953.8000000119,400953.6999999881,,400953.10000002384,,400964.04,8,400,,,
break_continue,html.Screen,4_100_2,2023-11-02T01:56:07.923Z,,0,,,NaN,,,,,,false,,,,400954.1999999881,400954.1999999881,,400954,,400964.04,8,400,,,
sequence,flow.Sequence,4_100,2023-11-02T01:56:07.923Z,,0,,,3023.3719999880996,completion,,,,,false,,,,400954.39999997616,400954.1999999881,397914.162,397924.5,397930.828,400964.04,8,400,,,
trial,html.Screen,4_101_0,2023-11-02T01:56:11.127Z,,0,3,,3193.1599999881,response,ISIC_0016131.JPG,8,ISIC_0941085.JPG,ISIC_0941085.JPG,false,0,keypress(z),500,404157.6999999881,404157.1999999881,400947.374,400954.5,400964.04,404163.912,8,400,2,,ISIC_0016131.JPG
break,html.Screen,4_101_1,2023-11-02T01:56:11.128Z,,0,,,NaN,,,,,,false,,,,404158.6999999881,404158.5,,404158,,404163.912,8,400,,,
break_continue,html.Screen,4_101_2,2023-11-02T01:56:11.128Z,,0,,,NaN,,,,,,false,,,,404159.1999999881,404159,,404158.89999997616,,404163.912,8,400,,,
sequence,flow.Sequence,4_101,2023-11-02T01:56:11.128Z,,0,,,3194.960000000021,completion,,,,,false,,,,404159.3000000119,404159,400947.374,400954.5,400964.04,404163.912,8,400,,,
trial,html.Screen,4_102_0,2023-11-02T01:56:13.966Z,,0,3,,2833.1880000238307,response,ISIC_0011949.JPG,6,ISIC_0058418.JPG,ISIC_0011949.JPG,false,1,keypress(m),500,406997.60000002384,406997.10000002384,404147.246,404159.39999997616,404163.912,407013.798,8,400,3,,ISIC_0058418.JPG
break,html.Screen,4_102_1,2023-11-02T01:56:13.967Z,,0,,,NaN,,,,,,false,,,,406998.60000002384,406998.39999997616,,406997.89999997616,,407013.798,8,400,,,
break_continue,html.Screen,4_102_2,2023-11-02T01:56:13.968Z,,0,,,NaN,,,,,,false,,,,406999,406998.89999997616,,406998.6999999881,,407013.798,8,400,,,
sequence,flow.Sequence,4_102,2023-11-02T01:56:13.968Z,,0,,,2834.987999976147,completion,,,,,false,,,,406999.10000002384,406998.89999997616,404147.246,404159.39999997616,404163.912,407013.798,8,400,,,
trial,html.Screen,4_103_0,2023-11-02T01:56:16.757Z,,0,3,,2773.70199999999,response,ISIC_6072777.JPG,7,ISIC_0046331.JPG,ISIC_6072777.JPG,false,1,keypress(m),500,409788,409787.5,406997.132,406999.3000000119,407013.798,409797.43,8,400,4,,ISIC_0046331.JPG
break,html.Screen,4_103_1,2023-11-02T01:56:16.758Z,,0,,,NaN,,,,,,false,,,,409789.10000002384,409788.89999997616,,409788.39999997616,,409797.43,8,400,,,
break_continue,html.Screen,4_103_2,2023-11-02T01:56:16.758Z,,0,,,NaN,,,,,,false,,,,409789.5,409789.39999997616,,409789.1999999881,,409797.43,8,400,,,
sequence,flow.Sequence,4_103,2023-11-02T01:56:16.759Z,,0,,,2775.6019999761484,completion,,,,,false,,,,409789.60000002384,409789.39999997616,406997.132,406999.1999999881,407013.798,409797.43,8,400,,,
trial,html.Screen,4_104_0,2023-11-02T01:56:19.467Z,,0,3,,2700.070000000007,response,ISIC_1117369.JPG,8,ISIC_0013898.JPG,ISIC_0013898.JPG,false,0,keypress(z),500,412498.1999999881,412497.5,409780.764,409789.8000000119,409797.43,412513.988,8,400,5,,ISIC_1117369.JPG
break,html.Screen,4_104_1,2023-11-02T01:56:19.468Z,,0,,,NaN,,,,,,false,,,,412499.3000000119,412499,,412498.60000002384,,412513.988,8,400,,,
break_continue,html.Screen,4_104_2,2023-11-02T01:56:19.469Z,,0,,,NaN,,,,,,false,,,,412499.6999999881,412499.60000002384,,412499.39999997616,,412513.988,8,400,,,
sequence,flow.Sequence,4_104,2023-11-02T01:56:19.469Z,,0,,,2702.170000023849,completion,,,,,false,,,,412499.89999997616,412499.60000002384,409780.764,409789.8000000119,409797.43,412513.988,8,400,,,
trial,html.Screen,4_105_0,2023-11-02T01:56:22.535Z,,0,3,,3051.511999999988,response,ISIC_0069183.JPG,6,ISIC_0011329.JPG,ISIC_0011329.JPG,false,0,keypress(z),500,415566,415565.5,412497.322,412500.10000002384,412513.988,415580.532,8,400,6,,ISIC_0069183.JPG
break,html.Screen,4_105_1,2023-11-02T01:56:22.536Z,,0,,,NaN,,,,,,false,,,,415567,415566.8000000119,,415566.1999999881,,415580.532,8,400,,,
break_continue,html.Screen,4_105_2,2023-11-02T01:56:22.536Z,,0,,,NaN,,,,,,false,,,,415567.3000000119,415567.1999999881,,415567.10000002384,,415580.532,8,400,,,
sequence,flow.Sequence,4_105,2023-11-02T01:56:22.536Z,,0,,,3053.211999988067,completion,,,,,false,,,,415567.5,415567.1999999881,412497.322,412500,412513.988,415580.532,8,400,,,
trial,html.Screen,4_106_0,2023-11-02T01:56:25.212Z,,0,3,,2661.9679999999935,response,ISIC_9052500.JPG,7,ISIC_3566243.JPG,ISIC_9052500.JPG,false,1,keypress(m),500,418242.89999997616,418242.5,415563.866,415567.6999999881,415580.532,418247.496,8,400,7,,ISIC_3566243.JPG
break,html.Screen,4_106_1,2023-11-02T01:56:25.213Z,,0,,,NaN,,,,,,false,,,,418243.8000000119,418243.6999999881,,418243.1999999881,,418247.496,8,400,,,
break_continue,html.Screen,4_106_2,2023-11-02T01:56:25.213Z,,0,,,NaN,,,,,,false,,,,418244.3000000119,418244.10000002384,,418243.89999997616,,418247.496,8,400,,,
sequence,flow.Sequence,4_106,2023-11-02T01:56:25.213Z,,0,,,2663.5680000238353,completion,,,,,false,,,,418244.39999997616,418244.10000002384,415563.866,415567.60000002384,415580.532,418247.496,8,400,,,
trial,html.Screen,4_107_0,2023-11-02T01:56:28.112Z,,0,3,,2895.2039999880944,response,ISIC_9521776.JPG,6,ISIC_0013141.JPG,ISIC_9521776.JPG,false,1,keypress(m),500,421143.1999999881,421142.6999999881,418230.83,418244.5,418247.496,421147.38,8,400,8,,ISIC_0013141.JPG
break,html.Screen,4_107_1,2023-11-02T01:56:28.113Z,,0,,,NaN,,,,,,false,,,,421144.1999999881,421144,,421143.5,,421147.38,8,400,,,
break_continue,html.Screen,4_107_2,2023-11-02T01:56:28.113Z,,0,,,NaN,,,,,,false,,,,421144.60000002384,421144.39999997616,,421144.3000000119,,421147.38,8,400,,,
sequence,flow.Sequence,4_107,2023-11-02T01:56:28.114Z,,0,,,2896.9039999761735,completion,,,,,false,,,,421144.6999999881,421144.39999997616,418230.83,418244.5,418247.496,421147.38,8,400,,,
trial,html.Screen,4_108_0,2023-11-02T01:56:30.759Z,,0,3,,2642.1199999999953,response,ISIC_0359307.JPG,8,ISIC_0011607.JPG,ISIC_0359307.JPG,false,1,keypress(m),500,423790,423789.5,421130.714,421144.89999997616,421147.38,423797.274,8,400,9,,ISIC_0011607.JPG
break,html.Screen,4_108_1,2023-11-02T01:56:30.760Z,,0,,,NaN,,,,,,false,,,,423791.10000002384,423790.8000000119,,423790.3000000119,,423797.274,8,400,,,
break_continue,html.Screen,4_108_2,2023-11-02T01:56:30.760Z,,0,,,NaN,,,,,,false,,,,423791.39999997616,423791.3000000119,,423791.1999999881,,423797.274,8,400,,,
sequence,flow.Sequence,4_108,2023-11-02T01:56:30.760Z,,0,,,2643.9200000119163,completion,,,,,false,,,,423791.60000002384,423791.3000000119,421130.714,421144.8000000119,421147.38,423797.274,8,400,,,
trial,html.Screen,4_109_0,2023-11-02T01:56:34.657Z,,0,3,,3890.226000000024,response,ISIC_9486313.JPG,7,ISIC_0001875.JPG,ISIC_9486313.JPG,false,1,keypress(m),500,427688,427687.5,423780.608,423791.8000000119,423797.274,427697.527,8,400,10,,ISIC_0001875.JPG
break,html.Screen,4_109_1,2023-11-02T01:56:34.658Z,,0,,,NaN,,,,,,false,,,,427688.89999997616,427688.6999999881,,427688.1999999881,,427697.527,8,400,,,
break_continue,html.Screen,4_109_2,2023-11-02T01:56:34.658Z,,0,,,NaN,,,,,,false,,,,427689.3000000119,427689.1999999881,,427689.10000002384,,427697.527,8,400,,,
sequence,flow.Sequence,4_109,2023-11-02T01:56:34.658Z,,0,,,3891.9259999881033,completion,,,,,false,,,,427689.39999997616,427689.1999999881,423780.608,423791.6999999881,423797.274,427697.527,8,400,,,
trial,html.Screen,4_110_0,2023-11-02T01:56:37.705Z,,0,3,,3038.472999999998,response,ISIC_0010081.JPG,7,ISIC_4770073.JPG,ISIC_4770073.JPG,false,0,keypress(z),500,430736.39999997616,430736,427680.861,427689.60000002384,427697.527,430747.405,8,400,11,,ISIC_0010081.JPG
break,html.Screen,4_110_1,2023-11-02T01:56:37.706Z,,0,,,NaN,,,,,,false,,,,430737.39999997616,430737.3000000119,,430736.8000000119,,430747.405,8,400,,,
break_continue,html.Screen,4_110_2,2023-11-02T01:56:37.707Z,,0,,,NaN,,,,,,false,,,,430737.8000000119,430737.6999999881,,430737.60000002384,,430747.405,8,400,,,
sequence,flow.Sequence,4_110,2023-11-02T01:56:37.707Z,,0,,,3040.172999988077,completion,,,,,false,,,,430737.89999997616,430737.6999999881,427680.861,427689.5,427697.527,430747.405,8,400,,,
trial,html.Screen,4_111_0,2023-11-02T01:56:40.514Z,,0,3,,2797.594999999972,response,ISIC_0034076.JPG,8,ISIC_0028181.JPG,ISIC_0034076.JPG,false,1,keypress(m),500,433545.5,433545,430730.739,430738.1999999881,430747.405,433547.293,8,400,12,,ISIC_0028181.JPG
break,html.Screen,4_111_1,2023-11-02T01:56:40.515Z,,0,,,NaN,,,,,,false,,,,433546.39999997616,433546.3000000119,,433545.6999999881,,433547.293,8,400,,,
break_continue,html.Screen,4_111_2,2023-11-02T01:56:40.516Z,,0,,,NaN,,,,,,false,,,,433546.8000000119,433546.6999999881,,433546.60000002384,,433547.293,8,400,,,
sequence,flow.Sequence,4_111,2023-11-02T01:56:40.516Z,,0,,,2799.294999988051,completion,,,,,false,,,,433546.89999997616,433546.6999999881,430730.739,430738,430747.405,433547.293,8,400,,,
trial,html.Screen,4_112_0,2023-11-02T01:56:43.198Z,,0,3,,2681.106999976153,response,ISIC_0011959.JPG,6,ISIC_0026595.JPG,ISIC_0026595.JPG,false,0,keypress(z),500,436228.89999997616,436228.39999997616,433530.627,433547.10000002384,433547.293,436230.519,8,400,13,,ISIC_0011959.JPG
break,html.Screen,4_112_1,2023-11-02T01:56:43.199Z,,0,,,NaN,,,,,,false,,,,436230,436229.8000000119,,436229.3000000119,,436230.519,8,400,,,
break_continue,html.Screen,4_112_2,2023-11-02T01:56:43.199Z,,0,,,NaN,,,,,,false,,,,436230.3000000119,436230.1999999881,,436230.10000002384,,436230.519,8,400,,,
sequence,flow.Sequence,4_112,2023-11-02T01:56:43.199Z,,0,,,2682.906999988074,completion,,,,,false,,,,436230.5,436230.1999999881,433530.627,433547.10000002384,433547.293,436230.519,8,400,,,
trial,html.Screen,4_113_0,2023-11-02T01:56:48.629Z,,0,3,,5428.581000023871,response,ISIC_9829805.JPG,6,ISIC_0062869.JPG,ISIC_9829805.JPG,false,1,keypress(m),500,441659.60000002384,441659.10000002384,436213.853,436230.60000002384,436230.519,441664.032,8,400,14,,ISIC_0062869.JPG
break,html.Screen,4_113_1,2023-11-02T01:56:48.630Z,,0,,,NaN,,,,,,false,,,,441660.60000002384,441660.39999997616,,441660,,441664.032,8,400,,,
break_continue,html.Screen,4_113_2,2023-11-02T01:56:48.630Z,,0,,,NaN,,,,,,false,,,,441661,441660.89999997616,,441660.8000000119,,441664.032,8,400,,,
sequence,flow.Sequence,4_113,2023-11-02T01:56:48.630Z,,0,,,5430.380999976187,completion,,,,,false,,,,441661.1999999881,441660.89999997616,436213.853,436230.60000002384,436230.519,441664.032,8,400,,,
trial,html.Screen,4_114_0,2023-11-02T01:56:52.704Z,,0,3,,4070.4679999999935,response,ISIC_3963183.JPG,8,ISIC_0254447.JPG,ISIC_3963183.JPG,false,1,keypress(m),500,445735,445734.5,441647.366,441661.39999997616,441664.032,445747.202,8,400,15,,ISIC_0254447.JPG
break,html.Screen,4_114_1,2023-11-02T01:56:52.705Z,,0,,,NaN,,,,,,false,,,,445736,445735.6999999881,,445735.3000000119,,445747.202,8,400,,,
break_continue,html.Screen,4_114_2,2023-11-02T01:56:52.705Z,,0,,,NaN,,,,,,false,,,,445736.39999997616,445736.1999999881,,445736.1999999881,,445747.202,8,400,,,
sequence,flow.Sequence,4_114,2023-11-02T01:56:52.705Z,,0,,,4072.1679999880726,completion,,,,,false,,,,445736.60000002384,445736.1999999881,441647.366,441661.3000000119,441664.032,445747.202,8,400,,,
trial,html.Screen,4_115_0,2023-11-02T01:56:55.876Z,,0,3,,3159.29800000001,response,ISIC_0010714.JPG,8,ISIC_2670619.JPG,ISIC_0010714.JPG,false,1,keypress(m),500,448907,448906.5,445730.536,445736.60000002384,445747.202,448914.153,8,400,16,,ISIC_2670619.JPG
break,html.Screen,4_115_1,2023-11-02T01:56:55.877Z,,0,,,NaN,,,,,,false,,,,448908,448907.8000000119,,448907.39999997616,,448914.153,8,400,,,
break_continue,html.Screen,4_115_2,2023-11-02T01:56:55.877Z,,0,,,NaN,,,,,,false,,,,448908.39999997616,448908.3000000119,,448908.1999999881,,448914.153,8,400,,,
sequence,flow.Sequence,4_115,2023-11-02T01:56:55.878Z,,0,,,3161.0980000119307,completion,,,,,false,,,,448908.60000002384,448908.3000000119,445730.536,445736.60000002384,445747.202,448914.153,8,400,,,
trial,html.Screen,4_116_0,2023-11-02T01:56:58.908Z,,0,3,,3024.746999976167,response,ISIC_7335659.JPG,6,ISIC_1782911.JPG,ISIC_7335659.JPG,false,1,keypress(m),500,451939.60000002384,451938.89999997616,448897.487,448908.6999999881,448914.153,451947.365,8,400,17,,ISIC_1782911.JPG
break,html.Screen,4_116_1,2023-11-02T01:56:58.909Z,,0,,,NaN,,,,,,false,,,,451940.5,451940.3000000119,,451939.8000000119,,451947.365,8,400,,,
break_continue,html.Screen,4_116_2,2023-11-02T01:56:58.910Z,,0,,,NaN,,,,,,false,,,,451940.89999997616,451940.8000000119,,451940.60000002384,,451947.365,8,400,,,
sequence,flow.Sequence,4_116,2023-11-02T01:56:58.910Z,,0,,,3026.64700001193,completion,,,,,false,,,,451941,451940.8000000119,448897.487,448908.6999999881,448914.153,451947.365,8,400,,,
trial,html.Screen,4_117_0,2023-11-02T01:57:01.638Z,,0,3,,2720.6350000000093,response,ISIC_6069236.JPG,5,ISIC_0000171.JPG,ISIC_6069236.JPG,false,1,keypress(m),500,454668.6999999881,454668,451930.699,451941.1999999881,451947.365,454680.589,8,400,18,,ISIC_0000171.JPG
break,html.Screen,4_117_1,2023-11-02T01:57:01.639Z,,0,,,NaN,,,,,,false,,,,454669.60000002384,454669.39999997616,,454668.89999997616,,454680.589,8,400,,,
break_continue,html.Screen,4_117_2,2023-11-02T01:57:01.639Z,,0,,,NaN,,,,,,false,,,,454670,454669.89999997616,,454669.6999999881,,454680.589,8,400,,,
sequence,flow.Sequence,4_117,2023-11-02T01:57:01.639Z,,0,,,2722.5349999761675,completion,,,,,false,,,,454670.1999999881,454669.89999997616,451930.699,451941.1999999881,451947.365,454680.589,8,400,,,
trial,html.Screen,4_118_0,2023-11-02T01:57:04.475Z,,0,3,,2825.31099997618,response,ISIC_0069250.JPG,7,ISIC_0069918.JPG,ISIC_0069918.JPG,false,0,keypress(z),500,457506.39999997616,457505.89999997616,454663.923,454670.39999997616,454680.589,457513.809,8,400,19,,ISIC_0069250.JPG
break,html.Screen,4_118_1,2023-11-02T01:57:04.476Z,,0,,,NaN,,,,,,false,,,,457507.39999997616,457507.1999999881,,457506.6999999881,,457513.809,8,400,,,
break_continue,html.Screen,4_118_2,2023-11-02T01:57:04.477Z,,0,,,NaN,,,,,,false,,,,457507.8000000119,457507.60000002384,,457507.5,,457513.809,8,400,,,
sequence,flow.Sequence,4_118,2023-11-02T01:57:04.477Z,,0,,,2827.0110000238637,completion,,,,,false,,,,457508,457507.60000002384,454663.923,454670.3000000119,454680.589,457513.809,8,400,,,
trial,html.Screen,4_119_0,2023-11-02T01:57:07.283Z,,0,3,,2799.6909999999916,response,ISIC_8406262.JPG,7,ISIC_3856233.JPG,ISIC_8406262.JPG,false,1,keypress(m),500,460314.10000002384,460313.5,457497.143,457508.1999999881,457513.809,460330.757,8,400,20,,ISIC_3856233.JPG
break,html.Screen,4_119_1,2023-11-02T01:57:07.284Z,,0,,,NaN,,,,,,false,,,,460315,460314.8000000119,,460314.39999997616,,460330.757,8,400,,,
break_continue,html.Screen,4_119_2,2023-11-02T01:57:07.284Z,,0,,,NaN,,,,,,false,,,,460315.5,460315.3000000119,,460315.1999999881,,460330.757,8,400,,,
sequence,flow.Sequence,4_119,2023-11-02T01:57:07.285Z,,0,,,2801.4910000119125,completion,,,,,false,,,,460315.6999999881,460315.3000000119,457497.143,457508.10000002384,457513.809,460330.757,8,400,,,
trial,html.Screen,4_120_0,2023-11-02T01:57:10.137Z,,0,3,,2837.3430000238586,response,ISIC_0031096.JPG,6,ISIC_0030833.JPG,ISIC_0030833.JPG,false,0,keypress(z),500,463168.3000000119,463168.10000002384,460314.091,460315.8000000119,460330.757,463180.643,8,400,21,,ISIC_0031096.JPG
break,html.Screen,4_120_1,2023-11-02T01:57:10.138Z,,0,,,NaN,,,,,,false,,,,463168.8000000119,463168.6999999881,,463168.5,,463180.643,8,400,,,
break_continue,html.Screen,4_120_2,2023-11-02T01:57:10.138Z,,0,,,NaN,,,,,,false,,,,463169,463168.89999997616,,463168.8000000119,,463180.643,8,400,,,
sequence,flow.Sequence,4_120,2023-11-02T01:57:10.138Z,,0,,,2838.142999976175,completion,,,,,false,,,,463169.10000002384,463168.89999997616,460314.091,460315.8000000119,460330.757,463180.643,8,400,,,
trial,html.Screen,4_121_0,2023-11-02T01:57:12.814Z,,0,3,,2663.45700002386,response,ISIC_7935462.JPG,6,ISIC_0032716.JPG,ISIC_7935462.JPG,false,1,keypress(m),500,465844.60000002384,465844.10000002384,463163.977,463169.10000002384,463180.643,465847.203,8,400,22,,ISIC_0032716.JPG
break,html.Screen,4_121_1,2023-11-02T01:57:12.815Z,,0,,,NaN,,,,,,false,,,,465845.60000002384,465845.39999997616,,465844.89999997616,,465847.203,8,400,,,
break_continue,html.Screen,4_121_2,2023-11-02T01:57:12.815Z,,0,,,NaN,,,,,,false,,,,465846,465845.89999997616,,465845.6999999881,,465847.203,8,400,,,
sequence,flow.Sequence,4_121,2023-11-02T01:57:12.815Z,,0,,,2665.2569999761763,completion,,,,,false,,,,465846.10000002384,465845.89999997616,463163.977,463169.10000002384,463180.643,465847.203,8,400,,,
trial,html.Screen,4_122_0,2023-11-02T01:57:15.495Z,,0,3,,2678.6969999761786,response,ISIC_7599444.JPG,5,ISIC_0033968.JPG,ISIC_0033968.JPG,false,0,keypress(z),500,468526.39999997616,468525.89999997616,465830.537,465846.39999997616,465847.203,468530.871,8,400,23,,ISIC_7599444.JPG
break,html.Screen,4_122_1,2023-11-02T01:57:15.496Z,,0,,,NaN,,,,,,false,,,,468527.5,468527.3000000119,,468526.89999997616,,468530.871,8,400,,,
break_continue,html.Screen,4_122_2,2023-11-02T01:57:15.497Z,,0,,,NaN,,,,,,false,,,,468528,468527.8000000119,,468527.6999999881,,468530.871,8,400,,,
sequence,flow.Sequence,4_122,2023-11-02T01:57:15.497Z,,0,,,2680.5970000119414,completion,,,,,false,,,,468528.10000002384,468527.8000000119,465830.537,465846.3000000119,465847.203,468530.871,8,400,,,
trial,html.Screen,4_123_0,2023-11-02T01:57:18.110Z,,0,3,,2609.8289999880944,response,ISIC_0032331.JPG,8,ISIC_0027804.JPG,ISIC_0032331.JPG,false,1,keypress(m),500,471141.3000000119,471140.6999999881,468514.205,468528.3000000119,468530.871,471147.433,8,400,24,,ISIC_0027804.JPG
break,html.Screen,4_123_1,2023-11-02T01:57:18.111Z,,0,,,NaN,,,,,,false,,,,471142.3000000119,471142,,471141.60000002384,,471147.433,8,400,,,
break_continue,html.Screen,4_123_2,2023-11-02T01:57:18.112Z,,0,,,NaN,,,,,,false,,,,471142.6999999881,471142.5,,471142.5,,471147.433,8,400,,,
sequence,flow.Sequence,4_123,2023-11-02T01:57:18.112Z,,0,,,2611.6290000000154,completion,,,,,false,,,,471142.89999997616,471142.5,468514.205,468528.3000000119,468530.871,471147.433,8,400,,,
trial,html.Screen,4_124_0,2023-11-02T01:57:21.082Z,,0,3,,2965.367000011902,response,ISIC_7781213.JPG,7,ISIC_0010960.JPG,ISIC_7781213.JPG,false,1,keypress(m),500,474113.1999999881,474112.8000000119,471130.767,471143,471147.433,474130.647,8,400,25,,ISIC_0010960.JPG
break,html.Screen,4_124_1,2023-11-02T01:57:21.083Z,,0,,,NaN,,,,,,false,,,,474114.1999999881,474114,,474113.5,,474130.647,8,400,,,
break_continue,html.Screen,4_124_2,2023-11-02T01:57:21.084Z,,0,,,NaN,,,,,,false,,,,474114.89999997616,474114.5,,474114.3000000119,,474130.647,8,400,,,
sequence,flow.Sequence,4_124,2023-11-02T01:57:21.084Z,,0,,,2967.066999999981,completion,,,,,false,,,,474115.10000002384,474114.5,471130.767,471143,471147.433,474130.647,8,400,,,
trial,html.Screen,4_125_0,2023-11-02T01:57:24.065Z,,0,3,,2965.1530000119237,response,ISIC_0013867.JPG,8,ISIC_8504492.JPG,ISIC_8504492.JPG,false,0,keypress(z),500,477096.1999999881,477095.8000000119,474113.981,474115.3000000119,474130.647,477113.861,8,400,26,,ISIC_0013867.JPG
break,html.Screen,4_125_1,2023-11-02T01:57:24.066Z,,0,,,NaN,,,,,,false,,,,477097.1999999881,477097.10000002384,,477096.60000002384,,477113.861,8,400,,,
break_continue,html.Screen,4_125_2,2023-11-02T01:57:24.067Z,,0,,,NaN,,,,,,false,,,,477097.60000002384,477097.5,,477097.39999997616,,477113.861,8,400,,,
sequence,flow.Sequence,4_125,2023-11-02T01:57:24.067Z,,0,,,2966.853000000003,completion,,,,,false,,,,477098,477097.5,474113.981,474115.1999999881,474130.647,477113.861,8,400,,,
