sender,sender_type,sender_id,timestamp,meta,,blockNo,condition,duration,ended_on,img_left,img_reveal,img_right,loser,practice,response,response_action,selection_duration,time_commit,time_end,time_render,time_run,time_show,time_switch,total_blocks,total_trials,trialNo,url,winner
informed_consent,html.Screen,0,2023-05-03T19:46:01.316Z,"{""labjs_version"":""20.2.4"",""labjs_build"":{""flavor"":""production"",""commit"":""f5b4a49f956347addd546a832a3327688c2c0fef""},""location"":""https://run.pavlovia.org/MurrayBennett/melanoma-2afc/?participant=64851"",""userAgent"":""Mozilla/5.0 (Macintosh; Intel Mac OS X 10_15_6) AppleWebKit/605.1.15 (KHTML, like Gecko) Version/14.0.3 Safari/605.1.15"",""platform"":""MacIntel"",""language"":""en-us"",""locale"":""en-US"",""timeZone"":""America/Chicago"",""timezoneOffset"":300,""screen_width"":1440,""screen_height"":900,""scroll_width"":1440,""scroll_height"":744,""window_innerWidth"":1440,""window_innerHeight"":792,""devicePixelRatio"":2}",,,,2645,response,,,,,,consent,click button,,43924,43915,41270,41262,41288,43946,,,,"{""participant"":""64851""}",
Welcome,html.Screen,1,2023-05-03T19:46:03.544Z,,,,regular,2235,response,,,,,,continue,click button,,46153,46170,43935,43924,43946,46179,,,,,
trial,html.Screen,2_0_0,2023-05-03T19:46:15.056Z,,0,0,,11517,timeout,ISIC_0061792.JPG,,ISIC_4679428.JPG,,true,,,500,57664,57664,46163,46153,46179,57696,1,6,1,,
sequence,flow.Sequence,2_0,2023-05-03T19:46:15.056Z,,0,,,11485,completion,,,,,true,,,,57665,57664,46163,46153,46179,57696,1,6,,,
trial,html.Screen,2_1_0,2023-05-03T19:46:26.571Z,,0,0,,11517,timeout,ISIC_0776486.JPG,,ISIC_5199497.JPG,,true,,,500,69180,69180,57680,57665,57696,69213,1,6,2,,
sequence,flow.Sequence,2_1,2023-05-03T19:46:26.572Z,,0,,,11484,completion,,,,,true,,,,69181,69180,57680,57665,57696,69213,1,6,,,
trial,html.Screen,2_2_0,2023-05-03T19:46:29.464Z,,0,0,,2876,response,ISIC_2556187.JPG,,ISIC_8575776.JPG,ISIC_8575776.JPG,true,0,keypress(Z),500,72073.00000000001,72072,69196,69181,69213,72097,1,6,3,,ISIC_2556187.JPG
sequence,flow.Sequence,2_2,2023-05-03T19:46:29.465Z,,0,,,2859,completion,,,,,true,,,,72074,72072,69196,69181,69213,72097,1,6,,,
trial,html.Screen,2_3_0,2023-05-03T19:46:40.972Z,,0,0,,11517,timeout,ISIC_8141769.JPG,,ISIC_9238366.JPG,,true,,,500,83581,83580,72079,72075,72097,83614,1,6,4,,
sequence,flow.Sequence,2_3,2023-05-03T19:46:40.973Z,,0,,,11483,completion,,,,,true,,,,83582.00000000001,83580,72079,72074,72097,83614,1,6,,,
trial,html.Screen,2_4_0,2023-05-03T19:46:52.488Z,,0,0,,11516,timeout,ISIC_8949026.JPG,,ISIC_9959593.JPG,ISIC_9959593.JPG,true,,,500,95098,95097.00000000001,83597,83583,83614,95130,1,6,5,,ISIC_8949026.JPG
sequence,flow.Sequence,2_4,2023-05-03T19:46:52.489Z,,0,,,11483.000000000015,completion,,,,,true,,,,95099,95097.00000000001,83597,83583,83614,95130,1,6,,,
trial,html.Screen,2_5_0,2023-05-03T19:46:55.504Z,,0,0,,2999,response,ISIC_0010479.JPG,,ISIC_0460240.JPG,ISIC_0460240.JPG,true,0,keypress(Z),500,98113,98113,95114,95099,95130,98130,1,6,6,,ISIC_0010479.JPG
sequence,flow.Sequence,2_5,2023-05-03T19:46:55.504Z,,0,,,2983,completion,,,,,true,,,,98114,98113,95114,95099,95130,98130,1,6,,,
loop,flow.Loop,2,2023-05-03T19:46:55.505Z,,,,,51934,completion,,,,,true,,,,98115.00000000001,98113,46163,46153,46179,98130,1,6,,,
exp_instructions,html.Screen,3,2023-05-03T19:46:57.064Z,,,,,1574,response,,,,,,continue,keypress(Space),,99674,99692,98118,98115.00000000001,98130,99696,,,,,
trial,html.Screen,4_0_0,2023-05-03T19:47:00.487Z,,0,1,,3416,response,ISIC_0069395.JPG,,ISIC_0025766.JPG,ISIC_0025766.JPG,false,0,keypress(Z),500,103097.00000000001,103096,99680,99675,99696,103114,8,400,1,,ISIC_0069395.JPG
break,html.Screen,4_0_1,2023-05-03T19:47:00.489Z,,0,,,NaN,,,,,,false,,,,103098,103098,,103097.00000000001,,103114,8,400,,,
break_continue,html.Screen,4_0_2,2023-05-03T19:47:00.489Z,,0,,,NaN,,,,,,false,,,,103099,103099,,103099,,103114,8,400,,,
sequence,flow.Sequence,4_0,2023-05-03T19:47:00.490Z,,0,,,3403,completion,,,,,false,,,,103099,103099,99680,99675,99696,103114,8,400,,,
trial,html.Screen,4_1_0,2023-05-03T19:47:04.675Z,,0,1,,4181,response,ISIC_0011364.JPG,,ISIC_7413149.JPG,ISIC_7413149.JPG,false,0,keypress(Z),500,107285,107284,103103,103100.00000000001,103114,107314,8,400,2,,ISIC_0011364.JPG
break,html.Screen,4_1_1,2023-05-03T19:47:04.678Z,,0,,,NaN,,,,,,false,,,,107288,107287,,107286,,107314,8,400,,,
break_continue,html.Screen,4_1_2,2023-05-03T19:47:04.679Z,,0,,,NaN,,,,,,false,,,,107288,107288,,107288,,107314,8,400,,,
sequence,flow.Sequence,4_1,2023-05-03T19:47:04.679Z,,0,,,4174,completion,,,,,false,,,,107289,107288,103103,103099,103114,107314,8,400,,,
trial,html.Screen,4_2_0,2023-05-03T19:47:07.215Z,,0,1,,2528,response,ISIC_8366864.JPG,,ISIC_0011693.JPG,ISIC_0011693.JPG,false,0,keypress(Z),500,109825,109825,107297,107289,107314,109847,8,400,3,,ISIC_8366864.JPG
break,html.Screen,4_2_1,2023-05-03T19:47:07.217Z,,0,,,NaN,,,,,,false,,,,109827,109827,,109826.00000000001,,109847,8,400,,,
break_continue,html.Screen,4_2_2,2023-05-03T19:47:07.218Z,,0,,,NaN,,,,,,false,,,,109828,109828,,109827,,109847,8,400,,,
sequence,flow.Sequence,4_2,2023-05-03T19:47:07.218Z,,0,,,2514,completion,,,,,false,,,,109828,109828,107297,107289,107314,109847,8,400,,,
trial,html.Screen,4_3_0,2023-05-03T19:47:09.796Z,,0,1,,2573,response,ISIC_2311665.JPG,,ISIC_1985436.JPG,ISIC_1985436.JPG,false,0,keypress(Z),500,112406,112405,109832,109828,109847,112431,8,400,4,,ISIC_2311665.JPG
break,html.Screen,4_3_1,2023-05-03T19:47:09.797Z,,0,,,NaN,,,,,,false,,,,112407,112407,,112407,,112431,8,400,,,
break_continue,html.Screen,4_3_2,2023-05-03T19:47:09.798Z,,0,,,NaN,,,,,,false,,,,112408,112408,,112408,,112431,8,400,,,
sequence,flow.Sequence,4_3,2023-05-03T19:47:09.798Z,,0,,,2561,completion,,,,,false,,,,112408,112408,109832,109828,109847,112431,8,400,,,
trial,html.Screen,4_4_0,2023-05-03T19:47:12.172Z,,0,1,,2368,response,ISIC_7226381.JPG,,ISIC_0305928.JPG,ISIC_0305928.JPG,false,0,keypress(Z),500,114783,114782,112414,112409,112431,114813,8,400,5,,ISIC_7226381.JPG
break,html.Screen,4_4_1,2023-05-03T19:47:12.174Z,,0,,,NaN,,,,,,false,,,,114784,114784,,114783,,114813,8,400,,,
break_continue,html.Screen,4_4_2,2023-05-03T19:47:12.175Z,,0,,,NaN,,,,,,false,,,,114785,114785,,114784,,114813,8,400,,,
sequence,flow.Sequence,4_4,2023-05-03T19:47:12.175Z,,0,,,2354,completion,,,,,false,,,,114785,114785,112414,112409,112431,114813,8,400,,,
trial,html.Screen,4_5_0,2023-05-03T19:47:14.564Z,,0,1,,2376,response,ISIC_0351547.JPG,,ISIC_0030080.JPG,ISIC_0030080.JPG,false,0,keypress(Z),500,117174,117173,114797,114785,114813,117198,8,400,6,,ISIC_0351547.JPG
break,html.Screen,4_5_1,2023-05-03T19:47:14.566Z,,0,,,NaN,,,,,,false,,,,117176,117175,,117175,,117198,8,400,,,
break_continue,html.Screen,4_5_2,2023-05-03T19:47:14.566Z,,0,,,NaN,,,,,,false,,,,117176,117176,,117176,,117198,8,400,,,
sequence,flow.Sequence,4_5,2023-05-03T19:47:14.567Z,,0,,,2363,completion,,,,,false,,,,117177,117176,114797,114785,114813,117198,8,400,,,
trial,html.Screen,4_6_0,2023-05-03T19:47:20.091Z,,0,1,,5519,response,ISIC_0015046.JPG,,ISIC_4900077.JPG,ISIC_4900077.JPG,false,0,keypress(Z),500,122701.00000000001,122700,117181,117177,117198,122731,8,400,7,,ISIC_0015046.JPG
break,html.Screen,4_6_1,2023-05-03T19:47:20.092Z,,0,,,NaN,,,,,,false,,,,122702,122702,,122701.00000000001,,122731,8,400,,,
break_continue,html.Screen,4_6_2,2023-05-03T19:47:20.092Z,,0,,,NaN,,,,,,false,,,,122703,122703,,122703,,122731,8,400,,,
sequence,flow.Sequence,4_6,2023-05-03T19:47:20.093Z,,0,,,5505,completion,,,,,false,,,,122703,122703,117181,117177,117198,122731,8,400,,,
trial,html.Screen,4_7_0,2023-05-03T19:47:22.464Z,,0,1,,2359.0000000000146,response,ISIC_0046729.JPG,,ISIC_0068015.JPG,ISIC_0068015.JPG,false,0,keypress(Z),500,125074,125073.00000000001,122714,122703,122731,125097,8,400,8,,ISIC_0046729.JPG
break,html.Screen,4_7_1,2023-05-03T19:47:22.465Z,,0,,,NaN,,,,,,false,,,,125076.00000000001,125075,,125074,,125097,8,400,,,
break_continue,html.Screen,4_7_2,2023-05-03T19:47:22.466Z,,0,,,NaN,,,,,,false,,,,125077,125076.00000000001,,125076.00000000001,,125097,8,400,,,
sequence,flow.Sequence,4_7,2023-05-03T19:47:22.467Z,,0,,,2345.0000000000146,completion,,,,,false,,,,125077,125076.00000000001,122714,122703,122731,125097,8,400,,,
trial,html.Screen,4_8_0,2023-05-03T19:47:24.621Z,,0,1,,2150.0000000000146,response,ISIC_0061418.JPG,,ISIC_0028069.JPG,ISIC_0028069.JPG,false,0,keypress(Z),500,127232,127231.00000000001,125081,125077,125097,127248,8,400,9,,ISIC_0061418.JPG
break,html.Screen,4_8_1,2023-05-03T19:47:24.623Z,,0,,,NaN,,,,,,false,,,,127233,127233,,127232,,127248,8,400,,,
break_continue,html.Screen,4_8_2,2023-05-03T19:47:24.623Z,,0,,,NaN,,,,,,false,,,,127234.00000000001,127234.00000000001,,127233,,127248,8,400,,,
sequence,flow.Sequence,4_8,2023-05-03T19:47:24.624Z,,0,,,2137.0000000000146,completion,,,,,false,,,,127234.00000000001,127234.00000000001,125081,125077,125097,127248,8,400,,,
trial,html.Screen,4_9_0,2023-05-03T19:47:26.686Z,,0,1,,2058.9999999999854,response,ISIC_0032921.JPG,,ISIC_0002853.JPG,ISIC_0002853.JPG,false,0,keypress(Z),500,129297,129295.99999999999,127237,127234.00000000001,127248,129314,8,400,10,,ISIC_0032921.JPG
break,html.Screen,4_9_1,2023-05-03T19:47:26.688Z,,0,,,NaN,,,,,,false,,,,129298,129298,,129297,,129314,8,400,,,
break_continue,html.Screen,4_9_2,2023-05-03T19:47:26.689Z,,0,,,NaN,,,,,,false,,,,129299,129299,,129299,,129314,8,400,,,
sequence,flow.Sequence,4_9,2023-05-03T19:47:26.689Z,,0,,,2051,completion,,,,,false,,,,129299,129299,127237,127234.00000000001,127248,129314,8,400,,,
trial,html.Screen,4_10_0,2023-05-03T19:47:28.884Z,,0,1,,2192,response,ISIC_0063053.JPG,,ISIC_1327515.JPG,ISIC_1327515.JPG,false,0,keypress(Z),500,131495,131494,129302,129299,129314,131514,8,400,11,,ISIC_0063053.JPG
break,html.Screen,4_10_1,2023-05-03T19:47:28.886Z,,0,,,NaN,,,,,,false,,,,131497,131496,,131495,,131514,8,400,,,
break_continue,html.Screen,4_10_2,2023-05-03T19:47:28.887Z,,0,,,NaN,,,,,,false,,,,131497,131497,,131497,,131514,8,400,,,
sequence,flow.Sequence,4_10,2023-05-03T19:47:28.887Z,,0,,,2183,completion,,,,,false,,,,131498,131497,129302,129299,129314,131514,8,400,,,
trial,html.Screen,4_11_0,2023-05-03T19:47:31.242Z,,0,1,,2351,response,ISIC_0027174.JPG,,ISIC_9000901.JPG,ISIC_9000901.JPG,false,0,keypress(Z),500,133852,133851,131500,131498,131514,133881,8,400,12,,ISIC_0027174.JPG
break,html.Screen,4_11_1,2023-05-03T19:47:31.243Z,,0,,,NaN,,,,,,false,,,,133854,133853,,133853,,133881,8,400,,,
break_continue,html.Screen,4_11_2,2023-05-03T19:47:31.244Z,,0,,,NaN,,,,,,false,,,,133854,133854,,133854,,133881,8,400,,,
sequence,flow.Sequence,4_11,2023-05-03T19:47:31.244Z,,0,,,2340,completion,,,,,false,,,,133855,133854,131500,131498,131514,133881,8,400,,,
trial,html.Screen,4_12_0,2023-05-03T19:47:33.539Z,,0,1,,2285,response,ISIC_0510617.JPG,,ISIC_8892236.JPG,ISIC_8892236.JPG,false,0,keypress(Z),500,136150,136149,133864,133855,133881,136180,8,400,13,,ISIC_0510617.JPG
break,html.Screen,4_12_1,2023-05-03T19:47:33.541Z,,0,,,NaN,,,,,,false,,,,136151,136151,,136150,,136180,8,400,,,
break_continue,html.Screen,4_12_2,2023-05-03T19:47:33.541Z,,0,,,NaN,,,,,,false,,,,136152.00000000003,136152.00000000003,,136152.00000000003,,136180,8,400,,,
sequence,flow.Sequence,4_12,2023-05-03T19:47:33.542Z,,0,,,2271.000000000029,completion,,,,,false,,,,136152.00000000003,136152.00000000003,133864,133855,133881,136180,8,400,,,
trial,html.Screen,4_13_0,2023-05-03T19:47:36.055Z,,0,1,,2500,response,ISIC_2612661.JPG,,ISIC_0054087.JPG,ISIC_0054087.JPG,false,0,keypress(Z),500,138666,138665,136165,136153,136180,138698,8,400,14,,ISIC_2612661.JPG
break,html.Screen,4_13_1,2023-05-03T19:47:36.057Z,,0,,,NaN,,,,,,false,,,,138668,138668,,138667,,138698,8,400,,,
break_continue,html.Screen,4_13_2,2023-05-03T19:47:36.058Z,,0,,,NaN,,,,,,false,,,,138669,138669,,138668,,138698,8,400,,,
sequence,flow.Sequence,4_13,2023-05-03T19:47:36.058Z,,0,,,2489,completion,,,,,false,,,,138669,138669,136165,136152.00000000003,136180,138698,8,400,,,
trial,html.Screen,4_14_0,2023-05-03T19:47:47.572Z,,0,1,,11516,timeout,ISIC_0024694.JPG,,ISIC_0060817.JPG,,false,,,500,150183,150182.00000000003,138681,138669,138698,150214,8,400,15,,
break,html.Screen,4_14_1,2023-05-03T19:47:47.574Z,,0,,,NaN,,,,,,false,,,,150185,150184,,150184,,150214,8,400,,,
break_continue,html.Screen,4_14_2,2023-05-03T19:47:47.575Z,,0,,,NaN,,,,,,false,,,,150186,150186,,150186,,150214,8,400,,,
sequence,flow.Sequence,4_14,2023-05-03T19:47:47.575Z,,0,,,11488,completion,,,,,false,,,,150186,150186,138681,138669,138698,150214,8,400,,,
trial,html.Screen,4_15_0,2023-05-03T19:47:49.789Z,,0,1,,2201,response,ISIC_5807608.JPG,,ISIC_6806545.JPG,ISIC_6806545.JPG,false,0,keypress(Z),500,152400,152399,150198,150187,150214,152431,8,400,16,,ISIC_5807608.JPG
break,html.Screen,4_15_1,2023-05-03T19:47:49.790Z,,0,,,NaN,,,,,,false,,,,152401,152401,,152400,,152431,8,400,,,
break_continue,html.Screen,4_15_2,2023-05-03T19:47:49.791Z,,0,,,NaN,,,,,,false,,,,152402.00000000003,152402.00000000003,,152401,,152431,8,400,,,
sequence,flow.Sequence,4_15,2023-05-03T19:47:49.791Z,,0,,,2188.000000000029,completion,,,,,false,,,,152402.00000000003,152402.00000000003,150198,150186,150214,152431,8,400,,,
trial,html.Screen,4_16_0,2023-05-03T19:47:52.093Z,,0,1,,2289,response,ISIC_0056141.JPG,,ISIC_9134566.JPG,ISIC_9134566.JPG,false,0,keypress(Z),500,154704,154704,152415,152402.00000000003,152431,154731,8,400,17,,ISIC_0056141.JPG
break,html.Screen,4_16_1,2023-05-03T19:47:52.094Z,,0,,,NaN,,,,,,false,,,,154705,154705,,154705,,154731,8,400,,,
break_continue,html.Screen,4_16_2,2023-05-03T19:47:52.095Z,,0,,,NaN,,,,,,false,,,,154706.00000000003,154706.00000000003,,154706.00000000003,,154731,8,400,,,
sequence,flow.Sequence,4_16,2023-05-03T19:47:52.095Z,,0,,,2275.000000000029,completion,,,,,false,,,,154706.00000000003,154706.00000000003,152415,152402.00000000003,152431,154731,8,400,,,
trial,html.Screen,4_17_0,2023-05-03T19:47:54.489Z,,0,1,,2385,response,ISIC_5721677.JPG,,ISIC_0070585.JPG,ISIC_0070585.JPG,false,0,keypress(Z),500,157100,157100,154715,154706.00000000003,154731,157132,8,400,18,,ISIC_5721677.JPG
break,html.Screen,4_17_1,2023-05-03T19:47:54.491Z,,0,,,NaN,,,,,,false,,,,157102,157101,,157101,,157132,8,400,,,
break_continue,html.Screen,4_17_2,2023-05-03T19:47:54.491Z,,0,,,NaN,,,,,,false,,,,157102,157102,,157102,,157132,8,400,,,
sequence,flow.Sequence,4_17,2023-05-03T19:47:54.492Z,,0,,,2371,completion,,,,,false,,,,157103,157102,154715,154706.00000000003,154731,157132,8,400,,,
trial,html.Screen,4_18_0,2023-05-03T19:48:05.792Z,,0,1,,11287.00000000003,response,ISIC_0028291.JPG,,ISIC_0004000.JPG,ISIC_0004000.JPG,false,0,keypress(Z),500,168404,168402.00000000003,157115,157103,157132,168432,8,400,19,,ISIC_0028291.JPG
break,html.Screen,4_18_1,2023-05-03T19:48:05.795Z,,0,,,NaN,,,,,,false,,,,168406,168406,,168405,,168432,8,400,,,
break_continue,html.Screen,4_18_2,2023-05-03T19:48:05.796Z,,0,,,NaN,,,,,,false,,,,168407,168407,,168407,,168432,8,400,,,
sequence,flow.Sequence,4_18,2023-05-03T19:48:05.796Z,,0,,,11275,completion,,,,,false,,,,168407,168407,157115,157103,157132,168432,8,400,,,
trial,html.Screen,4_19_0,2023-05-03T19:48:12.299Z,,0,1,,6496,response,ISIC_0013459.JPG,,ISIC_0055513.JPG,ISIC_0055513.JPG,false,0,keypress(Z),500,174911,174911,168415,168408.00000000003,168432,174932,8,400,20,,ISIC_0013459.JPG
break,html.Screen,4_19_1,2023-05-03T19:48:12.300Z,,0,,,NaN,,,,,,false,,,,174912,174911,,174911,,174932,8,400,,,
break_continue,html.Screen,4_19_2,2023-05-03T19:48:12.300Z,,0,,,NaN,,,,,,false,,,,174912,174912,,174912,,174932,8,400,,,
sequence,flow.Sequence,4_19,2023-05-03T19:48:12.300Z,,0,,,6480,completion,,,,,false,,,,174912,174912,168415,168407,168432,174932,8,400,,,
trial,html.Screen,4_20_0,2023-05-03T19:48:23.805Z,,0,1,,11517,timeout,ISIC_0071778.JPG,,ISIC_0726170.JPG,,false,,,500,186417,186417,174915,174912,174932,186449,8,400,21,,
break,html.Screen,4_20_1,2023-05-03T19:48:23.807Z,,0,,,NaN,,,,,,false,,,,186419,186418,,186418,,186449,8,400,,,
break_continue,html.Screen,4_20_2,2023-05-03T19:48:23.807Z,,0,,,NaN,,,,,,false,,,,186419,186419,,186419,,186449,8,400,,,
sequence,flow.Sequence,4_20,2023-05-03T19:48:23.807Z,,0,,,11487,completion,,,,,false,,,,186419,186419,174915,174912,174932,186449,8,400,,,
trial,html.Screen,4_21_0,2023-05-03T19:48:35.321Z,,0,1,,11516,timeout,ISIC_2364150.JPG,,ISIC_0027359.JPG,,false,,,500,197933,197933,186432,186420.00000000003,186449,197965,8,400,22,,
break,html.Screen,4_21_1,2023-05-03T19:48:35.322Z,,0,,,NaN,,,,,,false,,,,197934,197934,,197934,,197965,8,400,,,
break_continue,html.Screen,4_21_2,2023-05-03T19:48:35.322Z,,0,,,NaN,,,,,,false,,,,197934,197934,,197934,,197965,8,400,,,
sequence,flow.Sequence,4_21,2023-05-03T19:48:35.322Z,,0,,,11485,completion,,,,,false,,,,197934,197934,186432,186420.00000000003,186449,197965,8,400,,,
trial,html.Screen,4_22_0,2023-05-03T19:48:43.920Z,,0,1,,8583,response,ISIC_0029652.JPG,,ISIC_6813359.JPG,ISIC_6813359.JPG,false,0,keypress(Z),500,206533.00000000003,206532,197949,197935,197965,206548,8,400,23,,ISIC_0029652.JPG
break,html.Screen,4_22_1,2023-05-03T19:48:43.922Z,,0,,,NaN,,,,,,false,,,,206534,206534,,206533.00000000003,,206548,8,400,,,
break_continue,html.Screen,4_22_2,2023-05-03T19:48:43.922Z,,0,,,NaN,,,,,,false,,,,206535,206534,,206534,,206548,8,400,,,
sequence,flow.Sequence,4_22,2023-05-03T19:48:43.922Z,,0,,,8569,completion,,,,,false,,,,206535,206534,197949,197934,197965,206548,8,400,,,
trial,html.Screen,4_23_0,2023-05-03T19:48:51.117Z,,0,1,,7192,response,ISIC_0013778.JPG,,ISIC_9048840.JPG,ISIC_9048840.JPG,false,0,keypress(Z),500,213729,213728,206536,206535,206548,213750,8,400,24,,ISIC_0013778.JPG
break,html.Screen,4_23_1,2023-05-03T19:48:51.118Z,,0,,,NaN,,,,,,false,,,,213730.00000000003,213730.00000000003,,213730.00000000003,,213750,8,400,,,
break_continue,html.Screen,4_23_2,2023-05-03T19:48:51.118Z,,0,,,NaN,,,,,,false,,,,213731,213731,,213731,,213750,8,400,,,
sequence,flow.Sequence,4_23,2023-05-03T19:48:51.119Z,,0,,,7183,completion,,,,,false,,,,213731,213731,206536,206535,206548,213750,8,400,,,
trial,html.Screen,4_24_0,2023-05-03T19:48:53.945Z,,0,1,,2822.000000000029,response,ISIC_6913272.JPG,,ISIC_0009924.JPG,ISIC_0009924.JPG,false,0,keypress(Z),500,216558,216557.00000000003,213735,213731,213750,216583,8,400,25,,ISIC_6913272.JPG
break,html.Screen,4_24_1,2023-05-03T19:48:53.946Z,,0,,,NaN,,,,,,false,,,,216559,216559,,216558,,216583,8,400,,,
break_continue,html.Screen,4_24_2,2023-05-03T19:48:53.947Z,,0,,,NaN,,,,,,false,,,,216559,216559,,216559,,216583,8,400,,,
sequence,flow.Sequence,4_24,2023-05-03T19:48:53.947Z,,0,,,2809,completion,,,,,false,,,,216560,216559,213735,213731,213750,216583,8,400,,,
trial,html.Screen,4_25_0,2023-05-03T19:49:00.853Z,,0,1,,6898,response,ISIC_0025303.JPG,,ISIC_1037945.JPG,ISIC_1037945.JPG,false,0,keypress(Z),500,223465,223464,216566,216560,216583,223483,8,400,26,,ISIC_0025303.JPG
break,html.Screen,4_25_1,2023-05-03T19:49:00.854Z,,0,,,NaN,,,,,,false,,,,223467,223467,,223466,,223483,8,400,,,
break_continue,html.Screen,4_25_2,2023-05-03T19:49:00.855Z,,0,,,NaN,,,,,,false,,,,223468.00000000003,223468.00000000003,,223468.00000000003,,223483,8,400,,,
sequence,flow.Sequence,4_25,2023-05-03T19:49:00.855Z,,0,,,6885.000000000029,completion,,,,,false,,,,223468.00000000003,223468.00000000003,216566,216560,216583,223483,8,400,,,
trial,html.Screen,4_26_0,2023-05-03T19:49:03.203Z,,0,1,,2343,response,ISIC_0034079.JPG,,ISIC_3496800.JPG,ISIC_3496800.JPG,false,0,keypress(Z),500,225815,225815,223472,223469,223483,225833,8,400,27,,ISIC_0034079.JPG
break,html.Screen,4_26_1,2023-05-03T19:49:03.204Z,,0,,,NaN,,,,,,false,,,,225817,225817,,225816,,225833,8,400,,,
break_continue,html.Screen,4_26_2,2023-05-03T19:49:03.205Z,,0,,,NaN,,,,,,false,,,,225818,225817,,225817,,225833,8,400,,,
sequence,flow.Sequence,4_26,2023-05-03T19:49:03.205Z,,0,,,2334,completion,,,,,false,,,,225818,225817,223472,223469,223483,225833,8,400,,,
trial,html.Screen,4_27_0,2023-05-03T19:49:05.503Z,,0,1,,2294,response,ISIC_0031425.JPG,,ISIC_3288342.JPG,ISIC_3288342.JPG,false,0,keypress(Z),500,228116,228115,225821,225818,225833,228133,8,400,28,,ISIC_0031425.JPG
break,html.Screen,4_27_1,2023-05-03T19:49:05.504Z,,0,,,NaN,,,,,,false,,,,228117.00000000003,228117.00000000003,,228117.00000000003,,228133,8,400,,,
break_continue,html.Screen,4_27_2,2023-05-03T19:49:05.505Z,,0,,,NaN,,,,,,false,,,,228118,228118,,228118,,228133,8,400,,,
sequence,flow.Sequence,4_27,2023-05-03T19:49:05.506Z,,0,,,2285,completion,,,,,false,,,,228118,228118,225821,225818,225833,228133,8,400,,,
trial,html.Screen,4_28_0,2023-05-03T19:49:07.792Z,,0,1,,2283,response,ISIC_0010671.JPG,,ISIC_0001602.JPG,ISIC_0001602.JPG,false,0,keypress(Z),500,230405,230404,228121,228119,228133,230433,8,400,29,,ISIC_0010671.JPG
break,html.Screen,4_28_1,2023-05-03T19:49:07.794Z,,0,,,NaN,,,,,,false,,,,230406,230406,,230405,,230433,8,400,,,
break_continue,html.Screen,4_28_2,2023-05-03T19:49:07.794Z,,0,,,NaN,,,,,,false,,,,230407,230407,,230407,,230433,8,400,,,
sequence,flow.Sequence,4_28,2023-05-03T19:49:07.794Z,,0,,,2274,completion,,,,,false,,,,230407,230407,228121,228119,228133,230433,8,400,,,
trial,html.Screen,4_29_0,2023-05-03T19:49:10.102Z,,0,1,,2297,response,ISIC_0029205.JPG,,ISIC_0011528.JPG,ISIC_0011528.JPG,false,0,keypress(Z),500,232715,232714,230417,230408.00000000003,230433,232733,8,400,30,,ISIC_0029205.JPG
break,html.Screen,4_29_1,2023-05-03T19:49:10.103Z,,0,,,NaN,,,,,,false,,,,232716,232716,,232715,,232733,8,400,,,
break_continue,html.Screen,4_29_2,2023-05-03T19:49:10.104Z,,0,,,NaN,,,,,,false,,,,232717,232717,,232717,,232733,8,400,,,
sequence,flow.Sequence,4_29,2023-05-03T19:49:10.104Z,,0,,,2284,completion,,,,,false,,,,232717,232717,230417,230407,230433,232733,8,400,,,
trial,html.Screen,4_30_0,2023-05-03T19:49:12.526Z,,0,1,,2418,response,ISIC_0072703.JPG,,ISIC_0025927.JPG,ISIC_0025927.JPG,false,0,keypress(Z),500,235139,235138,232720,232717,232733,235167,8,400,31,,ISIC_0072703.JPG
break,html.Screen,4_30_1,2023-05-03T19:49:12.527Z,,0,,,NaN,,,,,,false,,,,235140.00000000003,235140.00000000003,,235139,,235167,8,400,,,
break_continue,html.Screen,4_30_2,2023-05-03T19:49:12.527Z,,0,,,NaN,,,,,,false,,,,235140.00000000003,235140.00000000003,,235140.00000000003,,235167,8,400,,,
sequence,flow.Sequence,4_30,2023-05-03T19:49:12.528Z,,0,,,2407.000000000029,completion,,,,,false,,,,235141,235140.00000000003,232720,232717,232733,235167,8,400,,,
trial,html.Screen,4_31_0,2023-05-03T19:49:14.937Z,,0,1,,2400,response,ISIC_8348712.JPG,,ISIC_9854454.JPG,ISIC_9854454.JPG,false,0,keypress(Z),500,237551.00000000003,237550,235150,235141,235167,237567,8,400,32,,ISIC_8348712.JPG
break,html.Screen,4_31_1,2023-05-03T19:49:14.939Z,,0,,,NaN,,,,,,false,,,,237552,237552,,237551.00000000003,,237567,8,400,,,
break_continue,html.Screen,4_31_2,2023-05-03T19:49:14.940Z,,0,,,NaN,,,,,,false,,,,237553,237553,,237553,,237567,8,400,,,
sequence,flow.Sequence,4_31,2023-05-03T19:49:14.940Z,,0,,,2386,completion,,,,,false,,,,237553,237553,235150,235141,235167,237567,8,400,,,
trial,html.Screen,4_32_0,2023-05-03T19:49:17.021Z,,0,1,,2078,response,ISIC_0014422.JPG,,ISIC_0946923.JPG,ISIC_0946923.JPG,false,0,keypress(Z),500,239634,239634,237556,237553,237567,239650,8,400,33,,ISIC_0014422.JPG
break,html.Screen,4_32_1,2023-05-03T19:49:17.022Z,,0,,,NaN,,,,,,false,,,,239635,239635,,239634,,239650,8,400,,,
break_continue,html.Screen,4_32_2,2023-05-03T19:49:17.022Z,,0,,,NaN,,,,,,false,,,,239635,239635,,239635,,239650,8,400,,,
sequence,flow.Sequence,4_32,2023-05-03T19:49:17.023Z,,0,,,2068,completion,,,,,false,,,,239636,239635,237556,237553,237567,239650,8,400,,,
trial,html.Screen,4_33_0,2023-05-03T19:49:19.384Z,,0,1,,2359,response,ISIC_0010143.JPG,,ISIC_0027881.JPG,ISIC_0027881.JPG,false,0,keypress(Z),500,241998.00000000003,241997,239638,239636,239650,242017,8,400,34,,ISIC_0010143.JPG
break,html.Screen,4_33_1,2023-05-03T19:49:19.386Z,,0,,,NaN,,,,,,false,,,,241999,241999,,241998.00000000003,,242017,8,400,,,
break_continue,html.Screen,4_33_2,2023-05-03T19:49:19.386Z,,0,,,NaN,,,,,,false,,,,242000,241999,,241999,,242017,8,400,,,
sequence,flow.Sequence,4_33,2023-05-03T19:49:19.386Z,,0,,,2349,completion,,,,,false,,,,242000,241999,239638,239636,239650,242017,8,400,,,
trial,html.Screen,4_34_0,2023-05-03T19:49:21.927Z,,0,1,,2539,response,ISIC_0027507.JPG,,ISIC_0026426.JPG,ISIC_0026426.JPG,false,0,keypress(Z),500,244542,244541,242002,242000,242017,244566,8,400,35,,ISIC_0027507.JPG
break,html.Screen,4_34_1,2023-05-03T19:49:21.929Z,,0,,,NaN,,,,,,false,,,,244543,244543,,244542,,244566,8,400,,,
break_continue,html.Screen,4_34_2,2023-05-03T19:49:21.930Z,,0,,,NaN,,,,,,false,,,,244544,244544,,244543,,244566,8,400,,,
sequence,flow.Sequence,4_34,2023-05-03T19:49:21.930Z,,0,,,2527,completion,,,,,false,,,,244544,244544,242002,242000,242017,244566,8,400,,,
trial,html.Screen,4_35_0,2023-05-03T19:49:24.395Z,,0,1,,2459,response,ISIC_1802502.JPG,,ISIC_5485674.JPG,ISIC_5485674.JPG,false,0,keypress(Z),500,247009,247009,244550,244544,244566,247034,8,400,36,,ISIC_1802502.JPG
break,html.Screen,4_35_1,2023-05-03T19:49:24.396Z,,0,,,NaN,,,,,,false,,,,247011,247011,,247010.00000000003,,247034,8,400,,,
break_continue,html.Screen,4_35_2,2023-05-03T19:49:24.397Z,,0,,,NaN,,,,,,false,,,,247012,247011,,247011,,247034,8,400,,,
sequence,flow.Sequence,4_35,2023-05-03T19:49:24.397Z,,0,,,2445,completion,,,,,false,,,,247012,247011,244550,244544,244566,247034,8,400,,,
trial,html.Screen,4_36_0,2023-05-03T19:49:26.783Z,,0,1,,2380,response,ISIC_0064559.JPG,,ISIC_3335505.JPG,ISIC_3335505.JPG,false,0,keypress(Z),500,249398,249397,247017,247012,247034,249417,8,400,37,,ISIC_0064559.JPG
break,html.Screen,4_36_1,2023-05-03T19:49:26.784Z,,0,,,NaN,,,,,,false,,,,249400,249399,,249398,,249417,8,400,,,
break_continue,html.Screen,4_36_2,2023-05-03T19:49:26.785Z,,0,,,NaN,,,,,,false,,,,249400,249400,,249400,,249417,8,400,,,
sequence,flow.Sequence,4_36,2023-05-03T19:49:26.785Z,,0,,,2366,completion,,,,,false,,,,249400,249400,247017,247012,247034,249417,8,400,,,
trial,html.Screen,4_37_0,2023-05-03T19:49:29.870Z,,0,1,,3082,response,ISIC_5611104.JPG,,ISIC_6271913.JPG,ISIC_6271913.JPG,false,0,keypress(Z),500,252486.00000000003,252485,249403,249401,249417,252517,8,400,38,,ISIC_5611104.JPG
break,html.Screen,4_37_1,2023-05-03T19:49:29.872Z,,0,,,NaN,,,,,,false,,,,252488,252487,,252486.00000000003,,252517,8,400,,,
break_continue,html.Screen,4_37_2,2023-05-03T19:49:29.872Z,,0,,,NaN,,,,,,false,,,,252488,252488,,252488,,252517,8,400,,,
sequence,flow.Sequence,4_37,2023-05-03T19:49:29.873Z,,0,,,3071,completion,,,,,false,,,,252489,252488,249403,249400,249417,252517,8,400,,,
trial,html.Screen,4_38_0,2023-05-03T19:49:33.201Z,,0,1,,3317,response,ISIC_9788174.JPG,,ISIC_3586824.JPG,ISIC_3586824.JPG,false,0,keypress(Z),500,255818,255817,252500,252489,252517,255834,8,400,39,,ISIC_9788174.JPG
break,html.Screen,4_38_1,2023-05-03T19:49:33.203Z,,0,,,NaN,,,,,,false,,,,255820,255819.00000000003,,255818,,255834,8,400,,,
break_continue,html.Screen,4_38_2,2023-05-03T19:49:33.204Z,,0,,,NaN,,,,,,false,,,,255820,255820,,255820,,255834,8,400,,,
sequence,flow.Sequence,4_38,2023-05-03T19:49:33.205Z,,0,,,3303,completion,,,,,false,,,,255821,255820,252500,252489,252517,255834,8,400,,,
trial,html.Screen,4_39_0,2023-05-03T19:49:35.706Z,,0,1,,2498,response,ISIC_0070170.JPG,,ISIC_0443835.JPG,ISIC_0443835.JPG,false,0,keypress(Z),500,258322.99999999997,258322,255824,255821,255834,258351,8,400,40,,ISIC_0070170.JPG
break,html.Screen,4_39_1,2023-05-03T19:49:35.708Z,,0,,,NaN,,,,,,false,,,,258324,258324,,258322.99999999997,,258351,8,400,,,
break_continue,html.Screen,4_39_2,2023-05-03T19:49:35.708Z,,0,,,NaN,,,,,,false,,,,258325,258325,,258325,,258351,8,400,,,
sequence,flow.Sequence,4_39,2023-05-03T19:49:35.709Z,,0,,,2491,completion,,,,,false,,,,258325,258325,255824,255821,255834,258351,8,400,,,
trial,html.Screen,4_40_0,2023-05-03T19:49:38.311Z,,0,1,,2592,response,ISIC_0786233.JPG,,ISIC_3093026.JPG,ISIC_3093026.JPG,false,0,keypress(Z),500,260927.00000000003,260926,258334,258325,258351,260951,8,400,41,,ISIC_0786233.JPG
break,html.Screen,4_40_1,2023-05-03T19:49:38.312Z,,0,,,NaN,,,,,,false,,,,260929.00000000003,260928,,260928,,260951,8,400,,,
break_continue,html.Screen,4_40_2,2023-05-03T19:49:38.313Z,,0,,,NaN,,,,,,false,,,,260929.00000000003,260929.00000000003,,260929.00000000003,,260951,8,400,,,
sequence,flow.Sequence,4_40,2023-05-03T19:49:38.313Z,,0,,,2578.000000000029,completion,,,,,false,,,,260930,260929.00000000003,258334,258325,258351,260951,8,400,,,
trial,html.Screen,4_41_0,2023-05-03T19:49:41.900Z,,0,1,,3582,response,ISIC_1661837.JPG,,ISIC_6676776.JPG,ISIC_6676776.JPG,false,0,keypress(Z),500,264517,264516,260934,260930,260951,264534,8,400,42,,ISIC_1661837.JPG
break,html.Screen,4_41_1,2023-05-03T19:49:41.901Z,,0,,,NaN,,,,,,false,,,,264518,264518,,264517,,264534,8,400,,,
break_continue,html.Screen,4_41_2,2023-05-03T19:49:41.902Z,,0,,,NaN,,,,,,false,,,,264519,264519,,264519,,264534,8,400,,,
sequence,flow.Sequence,4_41,2023-05-03T19:49:41.902Z,,0,,,3568,completion,,,,,false,,,,264519,264519,260934,260930,260951,264534,8,400,,,
trial,html.Screen,4_42_0,2023-05-03T19:49:44.127Z,,0,1,,2221,response,ISIC_9260499.JPG,,ISIC_5167209.JPG,ISIC_5167209.JPG,false,0,keypress(Z),500,266744,266743,264522,264520,264534,266768,8,400,43,,ISIC_9260499.JPG
break,html.Screen,4_42_1,2023-05-03T19:49:44.128Z,,0,,,NaN,,,,,,false,,,,266746,266745,,266745,,266768,8,400,,,
break_continue,html.Screen,4_42_2,2023-05-03T19:49:44.129Z,,0,,,NaN,,,,,,false,,,,266746,266746,,266746,,266768,8,400,,,
sequence,flow.Sequence,4_42,2023-05-03T19:49:44.129Z,,0,,,2212,completion,,,,,false,,,,266746,266746,264522,264520,264534,266768,8,400,,,
trial,html.Screen,4_43_0,2023-05-03T19:49:47.961Z,,0,1,,3827.000000000058,response,ISIC_0057858.JPG,,ISIC_2100640.JPG,ISIC_2100640.JPG,false,0,keypress(Z),500,270579,270578.00000000006,266751,266747,266768,270600,8,400,44,,ISIC_0057858.JPG
break,html.Screen,4_43_1,2023-05-03T19:49:47.963Z,,0,,,NaN,,,,,,false,,,,270580,270580,,270579,,270600,8,400,,,
break_continue,html.Screen,4_43_2,2023-05-03T19:49:47.963Z,,0,,,NaN,,,,,,false,,,,270581,270581,,270581,,270600,8,400,,,
sequence,flow.Sequence,4_43,2023-05-03T19:49:47.964Z,,0,,,3813,completion,,,,,false,,,,270581,270581,266751,266746,266768,270600,8,400,,,
trial,html.Screen,4_44_0,2023-05-03T19:49:50.383Z,,0,1,,2416,response,ISIC_0059350.JPG,,ISIC_0062517.JPG,ISIC_0062517.JPG,false,0,keypress(Z),500,273001.00000000006,273000,270584,270581,270600,273018,8,400,45,,ISIC_0059350.JPG
break,html.Screen,4_44_1,2023-05-03T19:49:50.384Z,,0,,,NaN,,,,,,false,,,,273002,273002,,273001.00000000006,,273018,8,400,,,
break_continue,html.Screen,4_44_2,2023-05-03T19:49:50.385Z,,0,,,NaN,,,,,,false,,,,273003,273003,,273002,,273018,8,400,,,
sequence,flow.Sequence,4_44,2023-05-03T19:49:50.385Z,,0,,,2403,completion,,,,,false,,,,273003,273003,270584,270581,270600,273018,8,400,,,
trial,html.Screen,4_45_0,2023-05-03T19:49:52.859Z,,0,1,,2470,response,ISIC_0032287.JPG,,ISIC_0032812.JPG,ISIC_0032812.JPG,false,0,keypress(Z),500,275477.00000000006,275476,273006,273003,273018,275501,8,400,46,,ISIC_0032287.JPG
break,html.Screen,4_45_1,2023-05-03T19:49:52.860Z,,0,,,NaN,,,,,,false,,,,275478,275477.00000000006,,275477.00000000006,,275501,8,400,,,
break_continue,html.Screen,4_45_2,2023-05-03T19:49:52.860Z,,0,,,NaN,,,,,,false,,,,275478,275478,,275478,,275501,8,400,,,
sequence,flow.Sequence,4_45,2023-05-03T19:49:52.861Z,,0,,,2460,completion,,,,,false,,,,275479,275478,273006,273003,273018,275501,8,400,,,
trial,html.Screen,4_46_0,2023-05-03T19:49:54.992Z,,0,1,,2125,response,ISIC_0394157.JPG,,ISIC_2795397.JPG,ISIC_2795397.JPG,false,0,keypress(Z),500,277610,277609,275484,275479,275501,277634,8,400,47,,ISIC_0394157.JPG
break,html.Screen,4_46_1,2023-05-03T19:49:54.994Z,,0,,,NaN,,,,,,false,,,,277612,277611,,277611,,277634,8,400,,,
break_continue,html.Screen,4_46_2,2023-05-03T19:49:54.995Z,,0,,,NaN,,,,,,false,,,,277612,277612,,277612,,277634,8,400,,,
sequence,flow.Sequence,4_46,2023-05-03T19:49:54.995Z,,0,,,2111,completion,,,,,false,,,,277613,277612,275484,275479,275501,277634,8,400,,,
trial,html.Screen,4_47_0,2023-05-03T19:49:57.355Z,,0,1,,2355,response,ISIC_0064874.JPG,,ISIC_0070581.JPG,ISIC_0070581.JPG,false,0,keypress(Z),500,279973,279972,277617,277613,277634,280001,8,400,48,,ISIC_0064874.JPG
break,html.Screen,4_47_1,2023-05-03T19:49:57.356Z,,0,,,NaN,,,,,,false,,,,279974,279974,,279973,,280001,8,400,,,
break_continue,html.Screen,4_47_2,2023-05-03T19:49:57.357Z,,0,,,NaN,,,,,,false,,,,279975,279975,,279975,,280001,8,400,,,
sequence,flow.Sequence,4_47,2023-05-03T19:49:57.357Z,,0,,,2341,completion,,,,,false,,,,279975,279975,277617,277613,277634,280001,8,400,,,
trial,html.Screen,4_48_0,2023-05-03T19:50:03.751Z,,0,1,,6384,response,ISIC_0006757.JPG,,ISIC_0032624.JPG,ISIC_0032624.JPG,false,0,keypress(Z),500,286369,286368,279984,279975,280001,286384,8,400,49,,ISIC_0006757.JPG
break,html.Screen,4_48_1,2023-05-03T19:50:03.752Z,,0,,,NaN,,,,,,false,,,,286370,286370,,286369,,286384,8,400,,,
break_continue,html.Screen,4_48_2,2023-05-03T19:50:03.752Z,,0,,,NaN,,,,,,false,,,,286370,286370,,286370,,286384,8,400,,,
sequence,flow.Sequence,4_48,2023-05-03T19:50:03.752Z,,0,,,6369,completion,,,,,false,,,,286371,286370,279984,279975,280001,286384,8,400,,,
trial,html.Screen,4_49_0,2023-05-03T19:50:05.882Z,,0,1,,2126,response,ISIC_0029672.JPG,,ISIC_5641619.JPG,ISIC_5641619.JPG,false,0,keypress(Z),500,288501.00000000006,288500,286374,286371,286384,288518,8,400,50,,ISIC_0029672.JPG
break,html.Screen,4_49_1,2023-05-03T19:50:10.884Z,,0,,,5000,timeout,,,,,false,,,,293503,293501,288504,288501.00000000006,288518,293518,8,400,,,
break_continue,html.Screen,4_49_2,2023-05-03T19:50:12.389Z,,0,,,1527,response,,,,,false,continue,keypress(Space),,295007,295028,293501,293503,293518,295018,8,400,,,
sequence,flow.Sequence,4_49,2023-05-03T19:50:12.389Z,,0,,,8644,completion,,,,,false,,,,295008,295028,286374,286371,286384,295018,8,400,,,
trial,html.Screen,4_50_0,2023-05-03T19:50:16.050Z,,0,2,,3657.000000000058,response,ISIC_0011209.JPG,,ISIC_1668831.JPG,ISIC_1668831.JPG,false,0,keypress(Z),500,298668,298667.00000000006,295010,295008,295018,298685,8,400,1,,ISIC_0011209.JPG
break,html.Screen,4_50_1,2023-05-03T19:50:16.051Z,,0,,,NaN,,,,,,false,,,,298670,298670,,298669,,298685,8,400,,,
break_continue,html.Screen,4_50_2,2023-05-03T19:50:16.052Z,,0,,,NaN,,,,,,false,,,,298670,298670,,298670,,298685,8,400,,,
sequence,flow.Sequence,4_50,2023-05-03T19:50:16.052Z,,0,,,3652,completion,,,,,false,,,,298670,298670,295010,295008,295018,298685,8,400,,,
trial,html.Screen,4_51_0,2023-05-03T19:50:21.281Z,,0,2,,5226,response,ISIC_0005762.JPG,,ISIC_0032723.JPG,ISIC_0032723.JPG,false,0,keypress(Z),500,303899,303899,298673,298671,298685,303918,8,400,2,,ISIC_0005762.JPG
break,html.Screen,4_51_1,2023-05-03T19:50:21.282Z,,0,,,NaN,,,,,,false,,,,303901,303900.00000000006,,303900.00000000006,,303918,8,400,,,
break_continue,html.Screen,4_51_2,2023-05-03T19:50:21.283Z,,0,,,NaN,,,,,,false,,,,303902,303901,,303901,,303918,8,400,,,
sequence,flow.Sequence,4_51,2023-05-03T19:50:21.283Z,,0,,,5216,completion,,,,,false,,,,303902,303901,298673,298671,298685,303918,8,400,,,
trial,html.Screen,4_52_0,2023-05-03T19:50:24.195Z,,0,2,,2909,response,ISIC_6381197.JPG,,ISIC_7806612.JPG,ISIC_7806612.JPG,false,0,keypress(Z),500,306814,306813,303904,303902,303918,306834,8,400,3,,ISIC_6381197.JPG
break,html.Screen,4_52_1,2023-05-03T19:50:24.196Z,,0,,,NaN,,,,,,false,,,,306815,306815,,306814,,306834,8,400,,,
break_continue,html.Screen,4_52_2,2023-05-03T19:50:24.197Z,,0,,,NaN,,,,,,false,,,,306816.00000000006,306816.00000000006,,306816.00000000006,,306834,8,400,,,
sequence,flow.Sequence,4_52,2023-05-03T19:50:24.197Z,,0,,,2898.000000000058,completion,,,,,false,,,,306816.00000000006,306816.00000000006,303904,303902,303918,306834,8,400,,,
trial,html.Screen,4_53_0,2023-05-03T19:50:33.563Z,,0,2,,9362,response,ISIC_8253317.JPG,,ISIC_8922355.JPG,ISIC_8922355.JPG,false,0,keypress(Z),500,316182,316182,306820,306816.00000000006,306834,316202,8,400,4,,ISIC_8253317.JPG
break,html.Screen,4_53_1,2023-05-03T19:50:33.563Z,,0,,,NaN,,,,,,false,,,,316183,316183,,316182,,316202,8,400,,,
break_continue,html.Screen,4_53_2,2023-05-03T19:50:33.564Z,,0,,,NaN,,,,,,false,,,,316183,316183,,316183,,316202,8,400,,,
sequence,flow.Sequence,4_53,2023-05-03T19:50:33.564Z,,0,,,9349,completion,,,,,false,,,,316183,316183,306820,306816.00000000006,306834,316202,8,400,,,
trial,html.Screen,4_54_0,2023-05-03T19:50:36.347Z,,0,2,,2781,response,ISIC_0437978.JPG,,ISIC_0026506.JPG,ISIC_0026506.JPG,false,0,keypress(Z),500,318967,318966,316185,316183,316202,318985,8,400,5,,ISIC_0437978.JPG
break,html.Screen,4_54_1,2023-05-03T19:50:36.349Z,,0,,,NaN,,,,,,false,,,,318968,318968,,318967,,318985,8,400,,,
break_continue,html.Screen,4_54_2,2023-05-03T19:50:36.349Z,,0,,,NaN,,,,,,false,,,,318968,318968,,318968,,318985,8,400,,,
sequence,flow.Sequence,4_54,2023-05-03T19:50:36.349Z,,0,,,2766,completion,,,,,false,,,,318969,318968,316185,316183,316202,318985,8,400,,,
trial,html.Screen,4_55_0,2023-05-03T19:50:38.774Z,,0,2,,2421,response,ISIC_0064107.JPG,,ISIC_5703909.JPG,ISIC_5703909.JPG,false,0,keypress(Z),500,321394,321393,318972,318969,318985,321419,8,400,6,,ISIC_0064107.JPG
break,html.Screen,4_55_1,2023-05-03T19:50:38.776Z,,0,,,NaN,,,,,,false,,,,321395,321395,,321394,,321419,8,400,,,
break_continue,html.Screen,4_55_2,2023-05-03T19:50:38.776Z,,0,,,NaN,,,,,,false,,,,321396,321395,,321395,,321419,8,400,,,
sequence,flow.Sequence,4_55,2023-05-03T19:50:38.777Z,,0,,,2410,completion,,,,,false,,,,321396,321395,318972,318969,318985,321419,8,400,,,
trial,html.Screen,4_56_0,2023-05-03T19:50:41.408Z,,0,2,,2624,response,ISIC_0640770.JPG,,ISIC_0054573.JPG,ISIC_0054573.JPG,false,0,keypress(Z),500,324027,324026,321402,321396,321419,324052,8,400,7,,ISIC_0640770.JPG
break,html.Screen,4_56_1,2023-05-03T19:50:41.409Z,,0,,,NaN,,,,,,false,,,,324029,324028,,324027,,324052,8,400,,,
break_continue,html.Screen,4_56_2,2023-05-03T19:50:41.410Z,,0,,,NaN,,,,,,false,,,,324029,324029,,324029,,324052,8,400,,,
sequence,flow.Sequence,4_56,2023-05-03T19:50:41.410Z,,0,,,2610,completion,,,,,false,,,,324030.00000000006,324029,321402,321396,321419,324052,8,400,,,
trial,html.Screen,4_57_0,2023-05-03T19:50:50.206Z,,0,2,,8790,response,ISIC_2619533.JPG,,ISIC_0065390.JPG,ISIC_0065390.JPG,false,0,keypress(Z),500,332825,332825,324035,324030.00000000006,324052,332852,8,400,8,,ISIC_2619533.JPG
break,html.Screen,4_57_1,2023-05-03T19:50:50.208Z,,0,,,NaN,,,,,,false,,,,332827,332827,,332826,,332852,8,400,,,
break_continue,html.Screen,4_57_2,2023-05-03T19:50:50.208Z,,0,,,NaN,,,,,,false,,,,332828.00000000006,332827,,332827,,332852,8,400,,,
sequence,flow.Sequence,4_57,2023-05-03T19:50:50.209Z,,0,,,8775,completion,,,,,false,,,,332828.00000000006,332827,324035,324030.00000000006,324052,332852,8,400,,,
trial,html.Screen,4_58_0,2023-05-03T19:50:54.311Z,,0,2,,4095,response,ISIC_7658729.JPG,,ISIC_0071681.JPG,ISIC_0071681.JPG,false,0,keypress(Z),500,336931,336930,332835,332828.00000000006,332852,336952,8,400,9,,ISIC_7658729.JPG
break,html.Screen,4_58_1,2023-05-03T19:50:54.313Z,,0,,,NaN,,,,,,false,,,,336933,336932,,336931,,336952,8,400,,,
break_continue,html.Screen,4_58_2,2023-05-03T19:50:54.315Z,,0,,,NaN,,,,,,false,,,,336935,336934,,336934,,336952,8,400,,,
sequence,flow.Sequence,4_58,2023-05-03T19:50:54.315Z,,0,,,4082,completion,,,,,false,,,,336935,336934,332835,332828.00000000006,332852,336952,8,400,,,
trial,html.Screen,4_59_0,2023-05-03T19:50:56.445Z,,0,2,,2126,response,ISIC_0066289.JPG,,ISIC_1155782.JPG,ISIC_1155782.JPG,false,0,keypress(Z),500,339065,339064,336938,336935,336952,339085,8,400,10,,ISIC_0066289.JPG
break,html.Screen,4_59_1,2023-05-03T19:50:56.447Z,,0,,,NaN,,,,,,false,,,,339067,339066.00000000006,,339065,,339085,8,400,,,
break_continue,html.Screen,4_59_2,2023-05-03T19:50:56.447Z,,0,,,NaN,,,,,,false,,,,339067,339067,,339067,,339085,8,400,,,
sequence,flow.Sequence,4_59,2023-05-03T19:50:56.448Z,,0,,,2115,completion,,,,,false,,,,339067,339067,336938,336935,336952,339085,8,400,,,
trial,html.Screen,4_60_0,2023-05-03T19:50:58.563Z,,0,2,,2112,response,ISIC_0073156.JPG,,ISIC_0013842.JPG,ISIC_0013842.JPG,false,0,keypress(Z),500,341183,341182,339070,339068,339085,341202,8,400,11,,ISIC_0073156.JPG
break,html.Screen,4_60_1,2023-05-03T19:50:58.565Z,,0,,,NaN,,,,,,false,,,,341184,341184,,341183,,341202,8,400,,,
break_continue,html.Screen,4_60_2,2023-05-03T19:50:58.565Z,,0,,,NaN,,,,,,false,,,,341185,341185,,341185,,341202,8,400,,,
sequence,flow.Sequence,4_60,2023-05-03T19:50:58.566Z,,0,,,2100,completion,,,,,false,,,,341185,341185,339070,339067,339085,341202,8,400,,,
trial,html.Screen,4_61_0,2023-05-03T19:51:00.946Z,,0,2,,2377,response,ISIC_0010742.JPG,,ISIC_0010942.JPG,ISIC_0010942.JPG,false,0,keypress(Z),500,343566.00000000006,343565,341188,341186.00000000006,341202,343586,8,400,12,,ISIC_0010742.JPG
break,html.Screen,4_61_1,2023-05-03T19:51:00.948Z,,0,,,NaN,,,,,,false,,,,343568,343567,,343566.00000000006,,343586,8,400,,,
break_continue,html.Screen,4_61_2,2023-05-03T19:51:00.948Z,,0,,,NaN,,,,,,false,,,,343568,343568,,343568,,343586,8,400,,,
sequence,flow.Sequence,4_61,2023-05-03T19:51:00.949Z,,0,,,2366,completion,,,,,false,,,,343569,343568,341188,341186.00000000006,341202,343586,8,400,,,
trial,html.Screen,4_62_0,2023-05-03T19:51:04.860Z,,0,2,,3908,response,ISIC_2514994.JPG,,ISIC_1566931.JPG,ISIC_1566931.JPG,false,0,keypress(Z),500,347480,347479,343571,343569,343586,347503,8,400,13,,ISIC_2514994.JPG
break,html.Screen,4_62_1,2023-05-03T19:51:04.861Z,,0,,,NaN,,,,,,false,,,,347481,347481,,347480,,347503,8,400,,,
break_continue,html.Screen,4_62_2,2023-05-03T19:51:04.862Z,,0,,,NaN,,,,,,false,,,,347482,347482,,347482,,347503,8,400,,,
sequence,flow.Sequence,4_62,2023-05-03T19:51:04.862Z,,0,,,3896,completion,,,,,false,,,,347482,347482,343571,343569,343586,347503,8,400,,,
trial,html.Screen,4_63_0,2023-05-03T19:51:10.254Z,,0,2,,5388,response,ISIC_9969907.JPG,,ISIC_1798471.JPG,ISIC_1798471.JPG,false,0,keypress(Z),500,352875,352874,347486,347482,347503,352902,8,400,14,,ISIC_9969907.JPG
break,html.Screen,4_63_1,2023-05-03T19:51:10.256Z,,0,,,NaN,,,,,,false,,,,352876.00000000006,352876.00000000006,,352875,,352902,8,400,,,
break_continue,html.Screen,4_63_2,2023-05-03T19:51:10.256Z,,0,,,NaN,,,,,,false,,,,352876.00000000006,352876.00000000006,,352876.00000000006,,352902,8,400,,,
sequence,flow.Sequence,4_63,2023-05-03T19:51:10.256Z,,0,,,5373.000000000058,completion,,,,,false,,,,352877,352876.00000000006,347486,347482,347503,352902,8,400,,,
trial,html.Screen,4_64_0,2023-05-03T19:51:14.381Z,,0,2,,4114,response,ISIC_8978290.JPG,,ISIC_0025369.JPG,ISIC_0025369.JPG,false,0,keypress(Z),500,357001.00000000006,357000,352886,352877,352902,357019,8,400,15,,ISIC_8978290.JPG
break,html.Screen,4_64_1,2023-05-03T19:51:14.382Z,,0,,,NaN,,,,,,false,,,,357002,357002,,357001.00000000006,,357019,8,400,,,
break_continue,html.Screen,4_64_2,2023-05-03T19:51:14.382Z,,0,,,NaN,,,,,,false,,,,357003,357002,,357002,,357019,8,400,,,
sequence,flow.Sequence,4_64,2023-05-03T19:51:14.383Z,,0,,,4100,completion,,,,,false,,,,357003,357002,352886,352877,352902,357019,8,400,,,
trial,html.Screen,4_65_0,2023-05-03T19:51:17.051Z,,0,2,,2665,response,ISIC_8853902.JPG,,ISIC_0067621.JPG,ISIC_0067621.JPG,false,0,keypress(Z),500,359671,359670,357005,357003,357019,359703,8,400,16,,ISIC_8853902.JPG
break,html.Screen,4_65_1,2023-05-03T19:51:17.052Z,,0,,,NaN,,,,,,false,,,,359672,359672,,359671,,359703,8,400,,,
break_continue,html.Screen,4_65_2,2023-05-03T19:51:17.052Z,,0,,,NaN,,,,,,false,,,,359673,359673,,359672,,359703,8,400,,,
sequence,flow.Sequence,4_65,2023-05-03T19:51:17.053Z,,0,,,2654,completion,,,,,false,,,,359673,359673,357005,357003,357019,359703,8,400,,,
trial,html.Screen,4_66_0,2023-05-03T19:51:20.014Z,,0,2,,2948,response,ISIC_0025324.JPG,,ISIC_0030238.JPG,ISIC_0030238.JPG,false,0,keypress(Z),500,362635,362634,359686,359673,359703,362653,8,400,17,,ISIC_0025324.JPG
break,html.Screen,4_66_1,2023-05-03T19:51:20.016Z,,0,,,NaN,,,,,,false,,,,362636,362636,,362635,,362653,8,400,,,
break_continue,html.Screen,4_66_2,2023-05-03T19:51:20.016Z,,0,,,NaN,,,,,,false,,,,362636,362636,,362636,,362653,8,400,,,
sequence,flow.Sequence,4_66,2023-05-03T19:51:20.016Z,,0,,,2933,completion,,,,,false,,,,362636,362636,359686,359673,359703,362653,8,400,,,
trial,html.Screen,4_67_0,2023-05-03T19:51:23.849Z,,0,2,,3829,response,ISIC_3249704.JPG,,ISIC_3335505.JPG,ISIC_3335505.JPG,false,0,keypress(Z),500,366469,366469,362640,362637,362653,366486,8,400,18,,ISIC_3249704.JPG
break,html.Screen,4_67_1,2023-05-03T19:51:23.850Z,,0,,,NaN,,,,,,false,,,,366471,366470,,366470,,366486,8,400,,,
break_continue,html.Screen,4_67_2,2023-05-03T19:51:23.851Z,,0,,,NaN,,,,,,false,,,,366471,366471,,366471,,366486,8,400,,,
sequence,flow.Sequence,4_67,2023-05-03T19:51:23.851Z,,0,,,3818,completion,,,,,false,,,,366471,366471,362640,362636,362653,366486,8,400,,,
trial,html.Screen,4_68_0,2023-05-03T19:51:29.023Z,,0,2,,5169,response,ISIC_0034239.JPG,,ISIC_1137915.JPG,ISIC_1137915.JPG,false,0,keypress(Z),500,371644,371643,366474,366471,366486,371669,8,400,19,,ISIC_0034239.JPG
break,html.Screen,4_68_1,2023-05-03T19:51:29.024Z,,0,,,NaN,,,,,,false,,,,371645,371645,,371644,,371669,8,400,,,
break_continue,html.Screen,4_68_2,2023-05-03T19:51:29.025Z,,0,,,NaN,,,,,,false,,,,371645,371645,,371645,,371669,8,400,,,
sequence,flow.Sequence,4_68,2023-05-03T19:51:29.025Z,,0,,,5159,completion,,,,,false,,,,371646,371645,366474,366471,366486,371669,8,400,,,
trial,html.Screen,4_69_0,2023-05-03T19:51:31.731Z,,0,2,,2698,response,ISIC_0001128.JPG,,ISIC_0058428.JPG,ISIC_0058428.JPG,false,0,keypress(Z),500,374352.00000000006,374351,371653,371646,371669,374370,8,400,20,,ISIC_0001128.JPG
break,html.Screen,4_69_1,2023-05-03T19:51:31.732Z,,0,,,NaN,,,,,,false,,,,374353,374353,,374352.00000000006,,374370,8,400,,,
break_continue,html.Screen,4_69_2,2023-05-03T19:51:31.733Z,,0,,,NaN,,,,,,false,,,,374354,374353,,374353,,374370,8,400,,,
sequence,flow.Sequence,4_69,2023-05-03T19:51:31.733Z,,0,,,2684,completion,,,,,false,,,,374354,374353,371653,371646,371669,374370,8,400,,,
trial,html.Screen,4_70_0,2023-05-03T19:51:39.125Z,,0,2,,7389,response,ISIC_0027879.JPG,,ISIC_0028181.JPG,ISIC_0028181.JPG,false,0,keypress(Z),500,381746,381745,374356,374354,374370,381770,8,400,21,,ISIC_0027879.JPG
break,html.Screen,4_70_1,2023-05-03T19:51:39.126Z,,0,,,NaN,,,,,,false,,,,381747,381747,,381746,,381770,8,400,,,
break_continue,html.Screen,4_70_2,2023-05-03T19:51:39.127Z,,0,,,NaN,,,,,,false,,,,381748,381747,,381747,,381770,8,400,,,
sequence,flow.Sequence,4_70,2023-05-03T19:51:39.127Z,,0,,,7377,completion,,,,,false,,,,381748,381747,374356,374354,374370,381770,8,400,,,
trial,html.Screen,4_71_0,2023-05-03T19:51:43.559Z,,0,2,,4427,response,ISIC_2702929.JPG,,ISIC_5223280.JPG,ISIC_5223280.JPG,false,0,keypress(Z),500,386180,386180,381753,381748,381770,386203,8,400,22,,ISIC_2702929.JPG
break,html.Screen,4_71_1,2023-05-03T19:51:43.561Z,,0,,,NaN,,,,,,false,,,,386181,386181,,386180,,386203,8,400,,,
break_continue,html.Screen,4_71_2,2023-05-03T19:51:43.561Z,,0,,,NaN,,,,,,false,,,,386182,386182,,386182,,386203,8,400,,,
sequence,flow.Sequence,4_71,2023-05-03T19:51:43.561Z,,0,,,4412,completion,,,,,false,,,,386182,386182,381753,381748,381770,386203,8,400,,,
trial,html.Screen,4_72_0,2023-05-03T19:51:48.404Z,,0,2,,4837,response,ISIC_0015204.JPG,,ISIC_0055759.JPG,ISIC_0055759.JPG,false,0,keypress(Z),500,391025.00000000006,391024,386187,386182,386203,391053,8,400,23,,ISIC_0015204.JPG
break,html.Screen,4_72_1,2023-05-03T19:51:48.405Z,,0,,,NaN,,,,,,false,,,,391026,391026,,391025.00000000006,,391053,8,400,,,
break_continue,html.Screen,4_72_2,2023-05-03T19:51:48.406Z,,0,,,NaN,,,,,,false,,,,391027,391027,,391027,,391053,8,400,,,
sequence,flow.Sequence,4_72,2023-05-03T19:51:48.406Z,,0,,,4824,completion,,,,,false,,,,391027,391027,386187,386182,386203,391053,8,400,,,
trial,html.Screen,4_73_0,2023-05-03T19:51:50.780Z,,0,2,,2363.000000000058,response,ISIC_0062087.JPG,,ISIC_0010414.JPG,ISIC_0010414.JPG,false,0,keypress(Z),500,393401,393400.00000000006,391037,391027,391053,393420,8,400,24,,ISIC_0062087.JPG
break,html.Screen,4_73_1,2023-05-03T19:51:50.781Z,,0,,,NaN,,,,,,false,,,,393402,393402,,393401,,393420,8,400,,,
break_continue,html.Screen,4_73_2,2023-05-03T19:51:50.781Z,,0,,,NaN,,,,,,false,,,,393402,393402,,393402,,393420,8,400,,,
sequence,flow.Sequence,4_73,2023-05-03T19:51:50.781Z,,0,,,2349,completion,,,,,false,,,,393402,393402,391037,391027,391053,393420,8,400,,,
trial,html.Screen,4_74_0,2023-05-03T19:51:52.810Z,,0,2,,2025,response,ISIC_0015969.JPG,,ISIC_0015023.JPG,ISIC_0015023.JPG,false,0,keypress(Z),500,395431,395430,393405,393403,393420,395454,8,400,25,,ISIC_0015969.JPG
break,html.Screen,4_74_1,2023-05-03T19:51:52.812Z,,0,,,NaN,,,,,,false,,,,395433,395432,,395432,,395454,8,400,,,
break_continue,html.Screen,4_74_2,2023-05-03T19:51:52.812Z,,0,,,NaN,,,,,,false,,,,395433,395433,,395433,,395454,8,400,,,
sequence,flow.Sequence,4_74,2023-05-03T19:51:52.812Z,,0,,,2013,completion,,,,,false,,,,395434,395433,393405,393403,393420,395454,8,400,,,
trial,html.Screen,4_75_0,2023-05-03T19:51:56.739Z,,0,2,,3922,response,ISIC_0053686.JPG,,ISIC_0011446.JPG,ISIC_0011446.JPG,false,0,keypress(Z),500,399361,399359,395437,395434,395454,399387,8,400,26,,ISIC_0053686.JPG
break,html.Screen,4_75_1,2023-05-03T19:51:56.741Z,,0,,,NaN,,,,,,false,,,,399362,399361,,399361,,399387,8,400,,,
break_continue,html.Screen,4_75_2,2023-05-03T19:51:56.741Z,,0,,,NaN,,,,,,false,,,,399362,399362,,399362,,399387,8,400,,,
sequence,flow.Sequence,4_75,2023-05-03T19:51:56.741Z,,0,,,3908,completion,,,,,false,,,,399363,399362,395437,395434,395454,399387,8,400,,,
trial,html.Screen,4_76_0,2023-05-03T19:51:59.233Z,,0,2,,2484,response,ISIC_0033439.JPG,,ISIC_1260545.JPG,ISIC_1260545.JPG,false,0,keypress(Z),500,401854,401854,399370,399363,399387,401886,8,400,27,,ISIC_0033439.JPG
break,html.Screen,4_76_1,2023-05-03T19:51:59.235Z,,0,,,NaN,,,,,,false,,,,401856,401856,,401855,,401886,8,400,,,
break_continue,html.Screen,4_76_2,2023-05-03T19:51:59.236Z,,0,,,NaN,,,,,,false,,,,401857,401856,,401856,,401886,8,400,,,
sequence,flow.Sequence,4_76,2023-05-03T19:51:59.236Z,,0,,,2469,completion,,,,,false,,,,401857,401856,399370,399363,399387,401886,8,400,,,
trial,html.Screen,4_77_0,2023-05-03T19:52:01.877Z,,0,2,,2628,response,ISIC_1608727.JPG,,ISIC_0031935.JPG,ISIC_0031935.JPG,false,0,keypress(Z),500,404498,404498,401870,401857,401886,404520,8,400,28,,ISIC_1608727.JPG
break,html.Screen,4_77_1,2023-05-03T19:52:01.878Z,,0,,,NaN,,,,,,false,,,,404500,404499,,404499,,404520,8,400,,,
break_continue,html.Screen,4_77_2,2023-05-03T19:52:01.879Z,,0,,,NaN,,,,,,false,,,,404500,404500,,404500,,404520,8,400,,,
sequence,flow.Sequence,4_77,2023-05-03T19:52:01.879Z,,0,,,2614,completion,,,,,false,,,,404500,404500,401870,401857,401886,404520,8,400,,,
trial,html.Screen,4_78_0,2023-05-03T19:52:03.951Z,,0,2,,2069,response,ISIC_0000142.JPG,,ISIC_6758042.JPG,ISIC_6758042.JPG,false,0,keypress(Z),500,406572,406572,404503,404500,404520,406604,8,400,29,,ISIC_0000142.JPG
break,html.Screen,4_78_1,2023-05-03T19:52:03.952Z,,0,,,NaN,,,,,,false,,,,406574,406573.00000000006,,406573.00000000006,,406604,8,400,,,
break_continue,html.Screen,4_78_2,2023-05-03T19:52:03.953Z,,0,,,NaN,,,,,,false,,,,406574,406574,,406574,,406604,8,400,,,
sequence,flow.Sequence,4_78,2023-05-03T19:52:03.953Z,,0,,,2054,completion,,,,,false,,,,406574,406574,404503,404500,404520,406604,8,400,,,
trial,html.Screen,4_79_0,2023-05-03T19:52:06.109Z,,0,2,,2143,response,ISIC_0068234.JPG,,ISIC_0024441.JPG,ISIC_0024441.JPG,false,0,keypress(Z),500,408730,408730,406587,406575,406604,408754,8,400,30,,ISIC_0068234.JPG
break,html.Screen,4_79_1,2023-05-03T19:52:06.111Z,,0,,,NaN,,,,,,false,,,,408732,408732,,408731,,408754,8,400,,,
break_continue,html.Screen,4_79_2,2023-05-03T19:52:06.111Z,,0,,,NaN,,,,,,false,,,,408733,408732,,408732,,408754,8,400,,,
sequence,flow.Sequence,4_79,2023-05-03T19:52:06.111Z,,0,,,2128,completion,,,,,false,,,,408733,408732,406587,406575,406604,408754,8,400,,,
trial,html.Screen,4_80_0,2023-05-03T19:52:08.453Z,,0,2,,2337,response,ISIC_0072157.JPG,,ISIC_0072221.JPG,ISIC_0072221.JPG,false,0,keypress(Z),500,411075,411074,408737,408733,408754,411104,8,400,31,,ISIC_0072157.JPG
break,html.Screen,4_80_1,2023-05-03T19:52:08.455Z,,0,,,NaN,,,,,,false,,,,411076,411076,,411075,,411104,8,400,,,
break_continue,html.Screen,4_80_2,2023-05-03T19:52:08.455Z,,0,,,NaN,,,,,,false,,,,411076,411076,,411076,,411104,8,400,,,
sequence,flow.Sequence,4_80,2023-05-03T19:52:08.455Z,,0,,,2322,completion,,,,,false,,,,411077,411076,408737,408733,408754,411104,8,400,,,
trial,html.Screen,4_81_0,2023-05-03T19:52:10.584Z,,0,2,,2118,response,ISIC_8468512.JPG,,ISIC_7127760.JPG,ISIC_7127760.JPG,false,0,keypress(Z),500,413206,413205,411087,411077,411104,413237,8,400,32,,ISIC_8468512.JPG
break,html.Screen,4_81_1,2023-05-03T19:52:10.585Z,,0,,,NaN,,,,,,false,,,,413207,413207,,413206,,413237,8,400,,,
break_continue,html.Screen,4_81_2,2023-05-03T19:52:10.586Z,,0,,,NaN,,,,,,false,,,,413208,413207,,413207,,413237,8,400,,,
sequence,flow.Sequence,4_81,2023-05-03T19:52:10.586Z,,0,,,2103,completion,,,,,false,,,,413208,413207,411087,411077,411104,413237,8,400,,,
trial,html.Screen,4_82_0,2023-05-03T19:52:12.729Z,,0,2,,2129,response,ISIC_0027266.JPG,,ISIC_0002675.JPG,ISIC_0002675.JPG,false,0,keypress(Z),500,415351,415350,413221,413208,413237,415370,8,400,33,,ISIC_0027266.JPG
break,html.Screen,4_82_1,2023-05-03T19:52:12.730Z,,0,,,NaN,,,,,,false,,,,415352.00000000006,415352.00000000006,,415351,,415370,8,400,,,
break_continue,html.Screen,4_82_2,2023-05-03T19:52:12.731Z,,0,,,NaN,,,,,,false,,,,415352.00000000006,415352.00000000006,,415352.00000000006,,415370,8,400,,,
sequence,flow.Sequence,4_82,2023-05-03T19:52:12.731Z,,0,,,2115.000000000058,completion,,,,,false,,,,415353,415352.00000000006,413221,413208,413237,415370,8,400,,,
trial,html.Screen,4_83_0,2023-05-03T19:52:14.774Z,,0,2,,2040,response,ISIC_0055393.JPG,,ISIC_0013731.JPG,ISIC_0013731.JPG,false,0,keypress(Z),500,417396,417395,415355,415353,415370,417421,8,400,34,,ISIC_0055393.JPG
break,html.Screen,4_83_1,2023-05-03T19:52:14.775Z,,0,,,NaN,,,,,,false,,,,417397,417397,,417396,,417421,8,400,,,
break_continue,html.Screen,4_83_2,2023-05-03T19:52:14.776Z,,0,,,NaN,,,,,,false,,,,417398,417398,,417397,,417421,8,400,,,
sequence,flow.Sequence,4_83,2023-05-03T19:52:14.776Z,,0,,,2028,completion,,,,,false,,,,417398,417398,415355,415353,415370,417421,8,400,,,
trial,html.Screen,4_84_0,2023-05-03T19:52:16.854Z,,0,2,,2071,response,ISIC_0070074.JPG,,ISIC_5150200.JPG,ISIC_5150200.JPG,false,0,keypress(Z),500,419476,419475,417404,417398,417421,419504,8,400,35,,ISIC_0070074.JPG
break,html.Screen,4_84_1,2023-05-03T19:52:16.856Z,,0,,,NaN,,,,,,false,,,,419477.00000000006,419477.00000000006,,419476,,419504,8,400,,,
break_continue,html.Screen,4_84_2,2023-05-03T19:52:16.856Z,,0,,,NaN,,,,,,false,,,,419478,419478,,419477.00000000006,,419504,8,400,,,
sequence,flow.Sequence,4_84,2023-05-03T19:52:16.856Z,,0,,,2057,completion,,,,,false,,,,419478,419478,417404,417398,417421,419504,8,400,,,
trial,html.Screen,4_85_0,2023-05-03T19:52:22.449Z,,0,2,,5583,response,ISIC_0009991.JPG,,ISIC_5557025.JPG,ISIC_5557025.JPG,false,0,keypress(Z),500,425071,425070,419487,419478,419504,425087,8,400,36,,ISIC_0009991.JPG
break,html.Screen,4_85_1,2023-05-03T19:52:22.450Z,,0,,,NaN,,,,,,false,,,,425072,425071,,425071,,425087,8,400,,,
break_continue,html.Screen,4_85_2,2023-05-03T19:52:22.451Z,,0,,,NaN,,,,,,false,,,,425072,425072,,425072,,425087,8,400,,,
sequence,flow.Sequence,4_85,2023-05-03T19:52:22.451Z,,0,,,5568,completion,,,,,false,,,,425073.00000000006,425072,419487,419478,419504,425087,8,400,,,
trial,html.Screen,4_86_0,2023-05-03T19:52:24.729Z,,0,2,,2274,response,ISIC_0056707.JPG,,ISIC_9961652.JPG,ISIC_9961652.JPG,false,0,keypress(Z),500,427351,427350,425076,425073.00000000006,425087,427371,8,400,37,,ISIC_0056707.JPG
break,html.Screen,4_86_1,2023-05-03T19:52:24.730Z,,0,,,NaN,,,,,,false,,,,427352.00000000006,427352.00000000006,,427351,,427371,8,400,,,
break_continue,html.Screen,4_86_2,2023-05-03T19:52:24.731Z,,0,,,NaN,,,,,,false,,,,427353,427352.00000000006,,427352.00000000006,,427371,8,400,,,
sequence,flow.Sequence,4_86,2023-05-03T19:52:24.731Z,,0,,,2265.000000000058,completion,,,,,false,,,,427353,427352.00000000006,425076,425073.00000000006,425087,427371,8,400,,,
trial,html.Screen,4_87_0,2023-05-03T19:52:27.449Z,,0,2,,2715,response,ISIC_0010198.JPG,,ISIC_0010915.JPG,ISIC_0010915.JPG,false,0,keypress(Z),500,430071,430070,427355,427353,427371,430088,8,400,38,,ISIC_0010198.JPG
break,html.Screen,4_87_1,2023-05-03T19:52:27.450Z,,0,,,NaN,,,,,,false,,,,430072,430072,,430071,,430088,8,400,,,
break_continue,html.Screen,4_87_2,2023-05-03T19:52:27.451Z,,0,,,NaN,,,,,,false,,,,430073.00000000006,430072,,430072,,430088,8,400,,,
sequence,flow.Sequence,4_87,2023-05-03T19:52:27.451Z,,0,,,2701,completion,,,,,false,,,,430073.00000000006,430072,427355,427353,427371,430088,8,400,,,
trial,html.Screen,4_88_0,2023-05-03T19:52:29.653Z,,0,2,,2199.000000000058,response,ISIC_8955135.JPG,,ISIC_0966527.JPG,ISIC_0966527.JPG,false,0,keypress(Z),500,432275.00000000006,432275.00000000006,430076,430073.00000000006,430088,432305,8,400,39,,ISIC_8955135.JPG
break,html.Screen,4_88_1,2023-05-03T19:52:29.654Z,,0,,,NaN,,,,,,false,,,,432276,432276,,432275.00000000006,,432305,8,400,,,
break_continue,html.Screen,4_88_2,2023-05-03T19:52:29.655Z,,0,,,NaN,,,,,,false,,,,432277,432277,,432277,,432305,8,400,,,
sequence,flow.Sequence,4_88,2023-05-03T19:52:29.655Z,,0,,,2189,completion,,,,,false,,,,432277,432277,430076,430073.00000000006,430088,432305,8,400,,,
trial,html.Screen,4_89_0,2023-05-03T19:52:31.756Z,,0,2,,2089,response,ISIC_3947876.JPG,,ISIC_3447311.JPG,ISIC_3447311.JPG,false,0,keypress(Z),500,434378,434377,432288,432277,432305,434403,8,400,40,,ISIC_3947876.JPG
break,html.Screen,4_89_1,2023-05-03T19:52:31.757Z,,0,,,NaN,,,,,,false,,,,434379,434379,,434378,,434403,8,400,,,
break_continue,html.Screen,4_89_2,2023-05-03T19:52:31.757Z,,0,,,NaN,,,,,,false,,,,434379,434379,,434379,,434403,8,400,,,
sequence,flow.Sequence,4_89,2023-05-03T19:52:31.757Z,,0,,,2074,completion,,,,,false,,,,434379,434379,432288,432277,432305,434403,8,400,,,
trial,html.Screen,4_90_0,2023-05-03T19:52:35.606Z,,0,2,,3840,response,ISIC_2266715.JPG,,ISIC_2720971.JPG,ISIC_2720971.JPG,false,0,keypress(Z),500,438228,438228,434388,434380,434403,438255,8,400,41,,ISIC_2266715.JPG
break,html.Screen,4_90_1,2023-05-03T19:52:35.608Z,,0,,,NaN,,,,,,false,,,,438230,438230,,438229,,438255,8,400,,,
break_continue,html.Screen,4_90_2,2023-05-03T19:52:35.608Z,,0,,,NaN,,,,,,false,,,,438230,438230,,438230,,438255,8,400,,,
sequence,flow.Sequence,4_90,2023-05-03T19:52:35.608Z,,0,,,3827,completion,,,,,false,,,,438231,438230,434388,434379,434403,438255,8,400,,,
trial,html.Screen,4_91_0,2023-05-03T19:52:39.058Z,,0,2,,3441.000000000058,response,ISIC_0070731.JPG,,ISIC_6717452.JPG,ISIC_6717452.JPG,false,0,keypress(Z),500,441680,441679.00000000006,438238,438231,438255,441705,8,400,42,,ISIC_0070731.JPG
break,html.Screen,4_91_1,2023-05-03T19:52:39.060Z,,0,,,NaN,,,,,,false,,,,441682,441682,,441681,,441705,8,400,,,
break_continue,html.Screen,4_91_2,2023-05-03T19:52:39.061Z,,0,,,NaN,,,,,,false,,,,441683,441683,,441683,,441705,8,400,,,
sequence,flow.Sequence,4_91,2023-05-03T19:52:39.061Z,,0,,,3428,completion,,,,,false,,,,441683,441683,438238,438231,438255,441705,8,400,,,
trial,html.Screen,4_92_0,2023-05-03T19:52:44.426Z,,0,2,,5359,response,ISIC_0011721.JPG,,ISIC_0031958.JPG,ISIC_0031958.JPG,false,0,keypress(Z),500,447048,447047,441688,441683,441705,447071,8,400,43,,ISIC_0011721.JPG
break,html.Screen,4_92_1,2023-05-03T19:52:44.427Z,,0,,,NaN,,,,,,false,,,,447049.00000000006,447049.00000000006,,447049.00000000006,,447071,8,400,,,
break_continue,html.Screen,4_92_2,2023-05-03T19:52:44.427Z,,0,,,NaN,,,,,,false,,,,447050,447050,,447050,,447071,8,400,,,
sequence,flow.Sequence,4_92,2023-05-03T19:52:44.428Z,,0,,,5345,completion,,,,,false,,,,447050,447050,441688,441683,441705,447071,8,400,,,
trial,html.Screen,4_93_0,2023-05-03T19:52:50.336Z,,0,2,,5904,response,ISIC_0033603.JPG,,ISIC_9390107.JPG,ISIC_9390107.JPG,false,0,keypress(Z),500,452959,452958,447054,447050,447071,452987,8,400,44,,ISIC_0033603.JPG
break,html.Screen,4_93_1,2023-05-03T19:52:50.338Z,,0,,,NaN,,,,,,false,,,,452961,452960.00000000006,,452959,,452987,8,400,,,
break_continue,html.Screen,4_93_2,2023-05-03T19:52:50.339Z,,0,,,NaN,,,,,,false,,,,452961,452961,,452961,,452987,8,400,,,
sequence,flow.Sequence,4_93,2023-05-03T19:52:50.339Z,,0,,,5890,completion,,,,,false,,,,452961,452961,447054,447050,447071,452987,8,400,,,
trial,html.Screen,4_94_0,2023-05-03T19:52:55.626Z,,0,2,,5277,response,ISIC_5707761.JPG,,ISIC_6780901.JPG,ISIC_6780901.JPG,false,0,keypress(Z),500,458249,458248,452971,452962,452987,458272,8,400,45,,ISIC_5707761.JPG
break,html.Screen,4_94_1,2023-05-03T19:52:55.628Z,,0,,,NaN,,,,,,false,,,,458250,458250,,458249,,458272,8,400,,,
break_continue,html.Screen,4_94_2,2023-05-03T19:52:55.628Z,,0,,,NaN,,,,,,false,,,,458251.00000000006,458251.00000000006,,458251.00000000006,,458272,8,400,,,
sequence,flow.Sequence,4_94,2023-05-03T19:52:55.629Z,,0,,,5264.000000000058,completion,,,,,false,,,,458251.00000000006,458251.00000000006,452971,452962,452987,458272,8,400,,,
trial,html.Screen,4_95_0,2023-05-03T19:52:57.693Z,,0,2,,2060,response,ISIC_1638357.JPG,,ISIC_0032939.JPG,ISIC_0032939.JPG,false,0,keypress(Z),500,460316.00000000006,460315,458255,458251.00000000006,458272,460338,8,400,46,,ISIC_1638357.JPG
break,html.Screen,4_95_1,2023-05-03T19:52:57.694Z,,0,,,NaN,,,,,,false,,,,460317,460317,,460316.00000000006,,460338,8,400,,,
break_continue,html.Screen,4_95_2,2023-05-03T19:52:57.695Z,,0,,,NaN,,,,,,false,,,,460318,460317,,460317,,460338,8,400,,,
sequence,flow.Sequence,4_95,2023-05-03T19:52:57.695Z,,0,,,2045,completion,,,,,false,,,,460318,460317,458255,458251.00000000006,458272,460338,8,400,,,
trial,html.Screen,4_96_0,2023-05-03T19:52:59.845Z,,0,2,,2144,response,ISIC_2096695.JPG,,ISIC_0027170.JPG,ISIC_0027170.JPG,false,0,keypress(Z),500,462468,462466,460322,460318,460338,462488,8,400,47,,ISIC_2096695.JPG
break,html.Screen,4_96_1,2023-05-03T19:52:59.846Z,,0,,,NaN,,,,,,false,,,,462469,462468,,462468,,462488,8,400,,,
break_continue,html.Screen,4_96_2,2023-05-03T19:52:59.847Z,,0,,,NaN,,,,,,false,,,,462470,462469,,462469,,462488,8,400,,,
sequence,flow.Sequence,4_96,2023-05-03T19:52:59.847Z,,0,,,2131,completion,,,,,false,,,,462470,462469,460322,460318,460338,462488,8,400,,,
trial,html.Screen,4_97_0,2023-05-03T19:53:02.217Z,,0,2,,2366,response,ISIC_0202119.JPG,,ISIC_6517082.JPG,ISIC_6517082.JPG,false,0,keypress(Z),500,464839,464839,462473,462470,462488,464872,8,400,48,,ISIC_0202119.JPG
break,html.Screen,4_97_1,2023-05-03T19:53:02.218Z,,0,,,NaN,,,,,,false,,,,464841,464841,,464840.00000000006,,464872,8,400,,,
break_continue,html.Screen,4_97_2,2023-05-03T19:53:02.219Z,,0,,,NaN,,,,,,false,,,,464842,464842,,464842,,464872,8,400,,,
sequence,flow.Sequence,4_97,2023-05-03T19:53:02.219Z,,0,,,2354,completion,,,,,false,,,,464842,464842,462473,462470,462488,464872,8,400,,,
trial,html.Screen,4_98_0,2023-05-03T19:53:04.430Z,,0,2,,2197,response,ISIC_4252268.JPG,,ISIC_2228511.JPG,ISIC_2228511.JPG,false,0,keypress(Z),500,467052,467052,464855,464842,464872,467072,8,400,49,,ISIC_4252268.JPG
break,html.Screen,4_98_1,2023-05-03T19:53:04.431Z,,0,,,NaN,,,,,,false,,,,467054.00000000006,467053,,467053,,467072,8,400,,,
break_continue,html.Screen,4_98_2,2023-05-03T19:53:04.431Z,,0,,,NaN,,,,,,false,,,,467054.00000000006,467054.00000000006,,467054.00000000006,,467072,8,400,,,
sequence,flow.Sequence,4_98,2023-05-03T19:53:04.431Z,,0,,,2182.000000000058,completion,,,,,false,,,,467054.00000000006,467054.00000000006,464855,464842,464872,467072,8,400,,,
trial,html.Screen,4_99_0,2023-05-03T19:53:06.757Z,,0,2,,2324,response,ISIC_0067621.JPG,,ISIC_5213829.JPG,ISIC_5213829.JPG,false,0,keypress(Z),500,469380,469380,467056,467055,467072,469405,8,400,50,,ISIC_0067621.JPG
break,html.Screen,4_99_1,2023-05-03T19:53:11.767Z,,0,,,5000,timeout,,,,,false,,,,474390,474389,469388,469381,469405,474405,8,400,,,
break_continue,html.Screen,4_99_2,2023-05-03T19:53:28.367Z,,0,,,16626,response,,,,,false,continue,keypress(Space),,490990,491015,474389,474390,474405,491006,8,400,,,
sequence,flow.Sequence,4_99,2023-05-03T19:53:28.367Z,,0,,,23943,completion,,,,,false,,,,490991,491015,467056,467054.00000000006,467072,491006,8,400,,,
trial,html.Screen,4_100_0,2023-05-03T19:53:30.780Z,,0,3,,2411,response,ISIC_0946923.JPG,,ISIC_7763042.JPG,ISIC_7763042.JPG,false,0,keypress(Z),500,493403,493403,490992,490991,491006,493422,8,400,1,,ISIC_0946923.JPG
break,html.Screen,4_100_1,2023-05-03T19:53:30.781Z,,0,,,NaN,,,,,,false,,,,493404,493404,,493403,,493422,8,400,,,
break_continue,html.Screen,4_100_2,2023-05-03T19:53:30.781Z,,0,,,NaN,,,,,,false,,,,493405.00000000006,493404,,493404,,493422,8,400,,,
sequence,flow.Sequence,4_100,2023-05-03T19:53:30.781Z,,0,,,2398,completion,,,,,false,,,,493405.00000000006,493404,490992,490991,491006,493422,8,400,,,
trial,html.Screen,4_101_0,2023-05-03T19:53:32.999Z,,0,3,,2214.000000000058,response,ISIC_0000413.JPG,,ISIC_3585381.JPG,ISIC_3585381.JPG,false,0,keypress(Z),500,495622,495621.00000000006,493407,493405.00000000006,493422,495639,8,400,2,,ISIC_0000413.JPG
break,html.Screen,4_101_1,2023-05-03T19:53:33.000Z,,0,,,NaN,,,,,,false,,,,495623,495623,,495622,,495639,8,400,,,
break_continue,html.Screen,4_101_2,2023-05-03T19:53:33.000Z,,0,,,NaN,,,,,,false,,,,495624,495624,,495623,,495639,8,400,,,
sequence,flow.Sequence,4_101,2023-05-03T19:53:33.001Z,,0,,,2202,completion,,,,,false,,,,495624,495624,493407,493405.00000000006,493422,495639,8,400,,,
trial,html.Screen,4_102_0,2023-05-03T19:53:35.095Z,,0,3,,2090,response,ISIC_1818238.JPG,,ISIC_6362735.JPG,ISIC_6362735.JPG,false,0,keypress(Z),500,497718,497718,495628,495625,495639,497739,8,400,3,,ISIC_1818238.JPG
break,html.Screen,4_102_1,2023-05-03T19:53:35.097Z,,0,,,NaN,,,,,,false,,,,497720,497720,,497719,,497739,8,400,,,
break_continue,html.Screen,4_102_2,2023-05-03T19:53:35.097Z,,0,,,NaN,,,,,,false,,,,497721,497721,,497720,,497739,8,400,,,
sequence,flow.Sequence,4_102,2023-05-03T19:53:35.097Z,,0,,,2082,completion,,,,,false,,,,497721,497721,495628,495624,495639,497739,8,400,,,
trial,html.Screen,4_103_0,2023-05-03T19:53:37.387Z,,0,3,,2286,response,ISIC_0031295.JPG,,ISIC_0064124.JPG,ISIC_0064124.JPG,false,0,keypress(Z),500,500010,500010,497724,497721,497739,500039,8,400,4,,ISIC_0031295.JPG
break,html.Screen,4_103_1,2023-05-03T19:53:37.388Z,,0,,,NaN,,,,,,false,,,,500012,500011,,500011,,500039,8,400,,,
break_continue,html.Screen,4_103_2,2023-05-03T19:53:37.389Z,,0,,,NaN,,,,,,false,,,,500012,500012,,500012,,500039,8,400,,,
sequence,flow.Sequence,4_103,2023-05-03T19:53:37.389Z,,0,,,2273,completion,,,,,false,,,,500013.00000000006,500012,497724,497721,497739,500039,8,400,,,
trial,html.Screen,4_104_0,2023-05-03T19:53:39.538Z,,0,3,,2138,response,ISIC_8287726.JPG,,ISIC_7877488.JPG,ISIC_7877488.JPG,false,0,keypress(Z),500,502162.00000000006,502161,500023,500013.00000000006,500039,502189,8,400,5,,ISIC_8287726.JPG
break,html.Screen,4_104_1,2023-05-03T19:53:39.539Z,,0,,,NaN,,,,,,false,,,,502163,502163,,502162.00000000006,,502189,8,400,,,
break_continue,html.Screen,4_104_2,2023-05-03T19:53:39.540Z,,0,,,NaN,,,,,,false,,,,502163,502163,,502163,,502189,8,400,,,
sequence,flow.Sequence,4_104,2023-05-03T19:53:39.540Z,,0,,,2124,completion,,,,,false,,,,502164,502163,500023,500013.00000000006,500039,502189,8,400,,,
trial,html.Screen,4_105_0,2023-05-03T19:53:42.936Z,,0,3,,3386,response,ISIC_0351547.JPG,,ISIC_0011210.JPG,ISIC_0011210.JPG,false,0,keypress(Z),500,505559,505559,502173,502164,502189,505589,8,400,6,,ISIC_0351547.JPG
break,html.Screen,4_105_1,2023-05-03T19:53:42.937Z,,0,,,NaN,,,,,,false,,,,505561.00000000006,505560,,505560,,505589,8,400,,,
break_continue,html.Screen,4_105_2,2023-05-03T19:53:42.938Z,,0,,,NaN,,,,,,false,,,,505561.00000000006,505561.00000000006,,505561.00000000006,,505589,8,400,,,
sequence,flow.Sequence,4_105,2023-05-03T19:53:42.938Z,,0,,,3372.000000000058,completion,,,,,false,,,,505562,505561.00000000006,502173,502164,502189,505589,8,400,,,
trial,html.Screen,4_106_0,2023-05-03T19:53:47.070Z,,0,3,,4120,response,ISIC_4331481.JPG,,ISIC_3352962.JPG,ISIC_3352962.JPG,false,0,keypress(Z),500,509694,509693,505573,505562,505589,509723,8,400,7,,ISIC_4331481.JPG
break,html.Screen,4_106_1,2023-05-03T19:53:47.071Z,,0,,,NaN,,,,,,false,,,,509695,509695,,509694,,509723,8,400,,,
break_continue,html.Screen,4_106_2,2023-05-03T19:53:47.072Z,,0,,,NaN,,,,,,false,,,,509696,509695,,509695,,509723,8,400,,,
sequence,flow.Sequence,4_106,2023-05-03T19:53:47.072Z,,0,,,4106,completion,,,,,false,,,,509696,509695,505573,505562,505589,509723,8,400,,,
trial,html.Screen,4_107_0,2023-05-03T19:53:51.211Z,,0,3,,4128.000000000058,response,ISIC_0010523.JPG,,ISIC_0032558.JPG,ISIC_0032558.JPG,false,0,keypress(Z),500,513835.00000000006,513834.00000000006,509706,509696,509723,513856,8,400,8,,ISIC_0010523.JPG
break,html.Screen,4_107_1,2023-05-03T19:53:51.211Z,,0,,,NaN,,,,,,false,,,,513835.00000000006,513835.00000000006,,513835.00000000006,,513856,8,400,,,
break_continue,html.Screen,4_107_2,2023-05-03T19:53:51.212Z,,0,,,NaN,,,,,,false,,,,513836,513836,,513835.00000000006,,513856,8,400,,,
sequence,flow.Sequence,4_107,2023-05-03T19:53:51.212Z,,0,,,4113,completion,,,,,false,,,,513836,513836,509706,509696,509723,513856,8,400,,,
trial,html.Screen,4_108_0,2023-05-03T19:53:53.467Z,,0,3,,2250.000000000058,response,ISIC_0058823.JPG,,ISIC_3446357.JPG,ISIC_3446357.JPG,false,0,keypress(Z),500,516091,516090.00000000006,513840,513836,513856,516123,8,400,9,,ISIC_0058823.JPG
break,html.Screen,4_108_1,2023-05-03T19:53:53.468Z,,0,,,NaN,,,,,,false,,,,516092,516092,,516091,,516123,8,400,,,
break_continue,html.Screen,4_108_2,2023-05-03T19:53:53.469Z,,0,,,NaN,,,,,,false,,,,516092.99999999994,516092,,516092,,516123,8,400,,,
sequence,flow.Sequence,4_108,2023-05-03T19:53:53.469Z,,0,,,2236,completion,,,,,false,,,,516092.99999999994,516092,513840,513836,513856,516123,8,400,,,
trial,html.Screen,4_109_0,2023-05-03T19:53:55.569Z,,0,3,,2086,response,ISIC_3310625.JPG,,ISIC_7477006.JPG,ISIC_7477006.JPG,false,0,keypress(Z),500,518193,518192,516106,516092.99999999994,516123,518223,8,400,10,,ISIC_3310625.JPG
break,html.Screen,4_109_1,2023-05-03T19:53:55.570Z,,0,,,NaN,,,,,,false,,,,518193.99999999994,518193.99999999994,,518193,,518223,8,400,,,
break_continue,html.Screen,4_109_2,2023-05-03T19:53:55.570Z,,0,,,NaN,,,,,,false,,,,518193.99999999994,518193.99999999994,,518193.99999999994,,518223,8,400,,,
sequence,flow.Sequence,4_109,2023-05-03T19:53:55.571Z,,0,,,2070.999999999942,completion,,,,,false,,,,518195.00000000006,518193.99999999994,516106,516092.99999999994,516123,518223,8,400,,,
trial,html.Screen,4_110_0,2023-05-03T19:53:57.726Z,,0,3,,2143.000000000058,response,ISIC_0028751.JPG,,ISIC_1579745.JPG,ISIC_1579745.JPG,false,0,keypress(Z),500,520350,520349.00000000006,518206,518195.00000000006,518223,520373,8,400,11,,ISIC_0028751.JPG
break,html.Screen,4_110_1,2023-05-03T19:53:57.727Z,,0,,,NaN,,,,,,false,,,,520351,520351,,520350,,520373,8,400,,,
break_continue,html.Screen,4_110_2,2023-05-03T19:53:57.728Z,,0,,,NaN,,,,,,false,,,,520352,520352,,520352,,520373,8,400,,,
sequence,flow.Sequence,4_110,2023-05-03T19:53:57.728Z,,0,,,2129,completion,,,,,false,,,,520352,520352,518206,518195.00000000006,518223,520373,8,400,,,
trial,html.Screen,4_111_0,2023-05-03T19:53:59.826Z,,0,3,,2091.999999999942,response,ISIC_0005879.JPG,,ISIC_4898865.JPG,ISIC_4898865.JPG,false,0,keypress(Z),500,522450.00000000006,522448.99999999994,520357,520352,520373,522473,8,400,12,,ISIC_0005879.JPG
break,html.Screen,4_111_1,2023-05-03T19:53:59.827Z,,0,,,NaN,,,,,,false,,,,522451,522451,,522450.00000000006,,522473,8,400,,,
break_continue,html.Screen,4_111_2,2023-05-03T19:53:59.827Z,,0,,,NaN,,,,,,false,,,,522452,522451,,522451,,522473,8,400,,,
sequence,flow.Sequence,4_111,2023-05-03T19:53:59.828Z,,0,,,2078,completion,,,,,false,,,,522452,522451,520357,520352,520373,522473,8,400,,,
trial,html.Screen,4_112_0,2023-05-03T19:54:01.964Z,,0,3,,2131,response,ISIC_0031821.JPG,,ISIC_0068239.JPG,ISIC_0068239.JPG,false,0,keypress(Z),500,524588,524587,522456,522452,522473,524607,8,400,13,,ISIC_0031821.JPG
break,html.Screen,4_112_1,2023-05-03T19:54:01.965Z,,0,,,NaN,,,,,,false,,,,524589,524589,,524588,,524607,8,400,,,
break_continue,html.Screen,4_112_2,2023-05-03T19:54:01.965Z,,0,,,NaN,,,,,,false,,,,524589,524589,,524589,,524607,8,400,,,
sequence,flow.Sequence,4_112,2023-05-03T19:54:01.965Z,,0,,,2116,completion,,,,,false,,,,524590,524589,522456,522452,522473,524607,8,400,,,
trial,html.Screen,4_113_0,2023-05-03T19:54:04.263Z,,0,3,,2294,response,ISIC_0032484.JPG,,ISIC_2808622.JPG,ISIC_2808622.JPG,false,0,keypress(Z),500,526888,526887,524593,524590,524607,526906,8,400,14,,ISIC_0032484.JPG
break,html.Screen,4_113_1,2023-05-03T19:54:04.265Z,,0,,,NaN,,,,,,false,,,,526889,526889,,526888,,526906,8,400,,,
break_continue,html.Screen,4_113_2,2023-05-03T19:54:04.265Z,,0,,,NaN,,,,,,false,,,,526890,526890,,526889,,526906,8,400,,,
sequence,flow.Sequence,4_113,2023-05-03T19:54:04.266Z,,0,,,2283,completion,,,,,false,,,,526890,526890,524593,524590,524607,526906,8,400,,,
trial,html.Screen,4_114_0,2023-05-03T19:54:06.609Z,,0,3,,2340.0000000001164,response,ISIC_2395624.JPG,,ISIC_0033309.JPG,ISIC_0033309.JPG,false,0,keypress(Z),500,529234,529233.0000000001,526893,526890,526906,529257,8,400,15,,ISIC_2395624.JPG
break,html.Screen,4_114_1,2023-05-03T19:54:06.611Z,,0,,,NaN,,,,,,false,,,,529235,529235,,529234,,529257,8,400,,,
break_continue,html.Screen,4_114_2,2023-05-03T19:54:06.612Z,,0,,,NaN,,,,,,false,,,,529236,529236,,529236,,529257,8,400,,,
sequence,flow.Sequence,4_114,2023-05-03T19:54:06.612Z,,0,,,2330,completion,,,,,false,,,,529236,529236,526893,526890,526906,529257,8,400,,,
trial,html.Screen,4_115_0,2023-05-03T19:54:08.813Z,,0,3,,2197,response,ISIC_0010631.JPG,,ISIC_0057026.JPG,ISIC_0057026.JPG,false,0,keypress(Z),500,531438,531437,529240,529236,529257,531457,8,400,16,,ISIC_0010631.JPG
break,html.Screen,4_115_1,2023-05-03T19:54:08.815Z,,0,,,NaN,,,,,,false,,,,531440,531439,,531438,,531457,8,400,,,
break_continue,html.Screen,4_115_2,2023-05-03T19:54:08.816Z,,0,,,NaN,,,,,,false,,,,531440,531440,,531440,,531457,8,400,,,
sequence,flow.Sequence,4_115,2023-05-03T19:54:08.816Z,,0,,,2183,completion,,,,,false,,,,531440,531440,529240,529236,529257,531457,8,400,,,
trial,html.Screen,4_116_0,2023-05-03T19:54:11.596Z,,0,3,,2777,response,ISIC_0003168.JPG,,ISIC_9008095.JPG,ISIC_9008095.JPG,false,0,keypress(Z),500,534220,534220,531443,531440,531457,534240,8,400,17,,ISIC_0003168.JPG
break,html.Screen,4_116_1,2023-05-03T19:54:11.597Z,,0,,,NaN,,,,,,false,,,,534221,534221,,534221,,534240,8,400,,,
break_continue,html.Screen,4_116_2,2023-05-03T19:54:11.597Z,,0,,,NaN,,,,,,false,,,,534222,534222,,534222,,534240,8,400,,,
sequence,flow.Sequence,4_116,2023-05-03T19:54:11.598Z,,0,,,2765,completion,,,,,false,,,,534222,534222,531443,531440,531457,534240,8,400,,,
trial,html.Screen,4_117_0,2023-05-03T19:54:13.687Z,,0,3,,2085.0000000001164,response,ISIC_7070020.JPG,,ISIC_0028469.JPG,ISIC_0028469.JPG,false,0,keypress(Z),500,536311,536310.0000000001,534225,534222,534240,536340,8,400,18,,ISIC_7070020.JPG
break,html.Screen,4_117_1,2023-05-03T19:54:13.688Z,,0,,,NaN,,,,,,false,,,,536313,536312,,536311,,536340,8,400,,,
break_continue,html.Screen,4_117_2,2023-05-03T19:54:13.689Z,,0,,,NaN,,,,,,false,,,,536313,536313,,536313,,536340,8,400,,,
sequence,flow.Sequence,4_117,2023-05-03T19:54:13.689Z,,0,,,2073,completion,,,,,false,,,,536313,536313,534225,534222,534240,536340,8,400,,,
trial,html.Screen,4_118_0,2023-05-03T19:54:15.796Z,,0,3,,2096,response,ISIC_0033387.JPG,,ISIC_4898865.JPG,ISIC_4898865.JPG,false,0,keypress(Z),500,538420,538419,536323,536314,536340,538440,8,400,19,,ISIC_0033387.JPG
break,html.Screen,4_118_1,2023-05-03T19:54:15.797Z,,0,,,NaN,,,,,,false,,,,538421,538421,,538421,,538440,8,400,,,
break_continue,html.Screen,4_118_2,2023-05-03T19:54:15.797Z,,0,,,NaN,,,,,,false,,,,538422,538422,,538422,,538440,8,400,,,
sequence,flow.Sequence,4_118,2023-05-03T19:54:15.797Z,,0,,,2082,completion,,,,,false,,,,538422,538422,536323,536313,536340,538440,8,400,,,
trial,html.Screen,4_119_0,2023-05-03T19:54:17.948Z,,0,3,,2147,response,ISIC_0033017.JPG,,ISIC_0029374.JPG,ISIC_0029374.JPG,false,0,keypress(Z),500,540573,540572,538425,538422,538440,540590,8,400,20,,ISIC_0033017.JPG
break,html.Screen,4_119_1,2023-05-03T19:54:17.950Z,,0,,,NaN,,,,,,false,,,,540574,540574,,540573,,540590,8,400,,,
break_continue,html.Screen,4_119_2,2023-05-03T19:54:17.950Z,,0,,,NaN,,,,,,false,,,,540575,540575,,540575,,540590,8,400,,,
sequence,flow.Sequence,4_119,2023-05-03T19:54:17.950Z,,0,,,2135,completion,,,,,false,,,,540575,540575,538425,538422,538440,540590,8,400,,,
trial,html.Screen,4_120_0,2023-05-03T19:54:20.154Z,,0,3,,2200,response,ISIC_1293743.JPG,,ISIC_1684829.JPG,ISIC_1684829.JPG,false,0,keypress(Z),500,542779,542778,540578,540575,540590,542807,8,400,21,,ISIC_1293743.JPG
break,html.Screen,4_120_1,2023-05-03T19:54:20.156Z,,0,,,NaN,,,,,,false,,,,542780,542780,,542779,,542807,8,400,,,
break_continue,html.Screen,4_120_2,2023-05-03T19:54:20.156Z,,0,,,NaN,,,,,,false,,,,542781.0000000001,542781.0000000001,,542781.0000000001,,542807,8,400,,,
sequence,flow.Sequence,4_120,2023-05-03T19:54:20.156Z,,0,,,2191.0000000001164,completion,,,,,false,,,,542781.0000000001,542781.0000000001,540578,540575,540590,542807,8,400,,,
trial,html.Screen,4_121_0,2023-05-03T19:54:22.246Z,,0,3,,2080,response,ISIC_4684860.JPG,,ISIC_4998826.JPG,ISIC_4998826.JPG,false,0,keypress(Z),500,544871,544870,542790,542781.0000000001,542807,544890,8,400,22,,ISIC_4684860.JPG
break,html.Screen,4_121_1,2023-05-03T19:54:22.247Z,,0,,,NaN,,,,,,false,,,,544872,544872,,544871,,544890,8,400,,,
break_continue,html.Screen,4_121_2,2023-05-03T19:54:22.248Z,,0,,,NaN,,,,,,false,,,,544873,544872,,544872,,544890,8,400,,,
sequence,flow.Sequence,4_121,2023-05-03T19:54:22.248Z,,0,,,2065,completion,,,,,false,,,,544873,544872,542790,542781.0000000001,542807,544890,8,400,,,
trial,html.Screen,4_122_0,2023-05-03T19:54:24.374Z,,0,3,,2123,response,ISIC_1131588.JPG,,ISIC_0316668.JPG,ISIC_0316668.JPG,false,0,keypress(Z),500,546999,546998,544875,544873,544890,547024,8,400,23,,ISIC_1131588.JPG
break,html.Screen,4_122_1,2023-05-03T19:54:24.376Z,,0,,,NaN,,,,,,false,,,,547001,547000,,546999,,547024,8,400,,,
break_continue,html.Screen,4_122_2,2023-05-03T19:54:24.376Z,,0,,,NaN,,,,,,false,,,,547001,547001,,547001,,547024,8,400,,,
sequence,flow.Sequence,4_122,2023-05-03T19:54:24.377Z,,0,,,2111,completion,,,,,false,,,,547001,547001,544875,544873,544890,547024,8,400,,,
trial,html.Screen,4_123_0,2023-05-03T19:54:26.507Z,,0,3,,2125.0000000001164,response,ISIC_0029803.JPG,,ISIC_0001108.JPG,ISIC_0001108.JPG,false,0,keypress(Z),500,549132.0000000001,549132.0000000001,547007,547002.0000000001,547024,549157,8,400,24,,ISIC_0029803.JPG
break,html.Screen,4_123_1,2023-05-03T19:54:26.509Z,,0,,,NaN,,,,,,false,,,,549134,549133,,549133,,549157,8,400,,,
break_continue,html.Screen,4_123_2,2023-05-03T19:54:26.509Z,,0,,,NaN,,,,,,false,,,,549134,549134,,549134,,549157,8,400,,,
sequence,flow.Sequence,4_123,2023-05-03T19:54:26.509Z,,0,,,2110,completion,,,,,false,,,,549134,549134,547007,547002.0000000001,547024,549157,8,400,,,
trial,html.Screen,4_124_0,2023-05-03T19:54:28.823Z,,0,3,,2307,response,ISIC_0066739.JPG,,ISIC_9685931.JPG,ISIC_9685931.JPG,false,0,keypress(Z),500,551448,551447,549140,549134,549157,551474,8,400,25,,ISIC_0066739.JPG
break,html.Screen,4_124_1,2023-05-03T19:54:28.824Z,,0,,,NaN,,,,,,false,,,,551449,551449,,551448,,551474,8,400,,,
break_continue,html.Screen,4_124_2,2023-05-03T19:54:28.825Z,,0,,,NaN,,,,,,false,,,,551450,551450,,551450,,551474,8,400,,,
sequence,flow.Sequence,4_124,2023-05-03T19:54:28.825Z,,0,,,2293,completion,,,,,false,,,,551450,551450,549140,549134,549157,551474,8,400,,,
trial,html.Screen,4_125_0,2023-05-03T19:54:31.212Z,,0,3,,2380,response,ISIC_0008881.JPG,,ISIC_1020369.JPG,ISIC_1020369.JPG,false,0,keypress(Z),500,553837,553837,551457,551450,551474,553857,8,400,26,,ISIC_0008881.JPG
break,html.Screen,4_125_1,2023-05-03T19:54:31.214Z,,0,,,NaN,,,,,,false,,,,553839,553838,,553838,,553857,8,400,,,
break_continue,html.Screen,4_125_2,2023-05-03T19:54:31.214Z,,0,,,NaN,,,,,,false,,,,553839,553839,,553839,,553857,8,400,,,
sequence,flow.Sequence,4_125,2023-05-03T19:54:31.214Z,,0,,,2365,completion,,,,,false,,,,553839,553839,551457,551450,551474,553857,8,400,,,
trial,html.Screen,4_126_0,2023-05-03T19:54:33.402Z,,0,3,,2185,response,ISIC_2203239.JPG,,ISIC_3418978.JPG,ISIC_3418978.JPG,false,0,keypress(Z),500,556027,556027,553842,553840,553857,556057,8,400,27,,ISIC_2203239.JPG
break,html.Screen,4_126_1,2023-05-03T19:54:33.403Z,,0,,,NaN,,,,,,false,,,,556028,556028,,556027,,556057,8,400,,,
break_continue,html.Screen,4_126_2,2023-05-03T19:54:33.404Z,,0,,,NaN,,,,,,false,,,,556029,556028,,556028,,556057,8,400,,,
sequence,flow.Sequence,4_126,2023-05-03T19:54:33.404Z,,0,,,2171,completion,,,,,false,,,,556029,556028,553842,553840,553857,556057,8,400,,,
trial,html.Screen,4_127_0,2023-05-03T19:54:35.450Z,,0,3,,2035,response,ISIC_7096885.JPG,,ISIC_0033724.JPG,ISIC_0033724.JPG,false,0,keypress(Z),500,558075,558075,556040,556029,556057,558107,8,400,28,,ISIC_7096885.JPG
break,html.Screen,4_127_1,2023-05-03T19:54:35.452Z,,0,,,NaN,,,,,,false,,,,558077,558076,,558076,,558107,8,400,,,
break_continue,html.Screen,4_127_2,2023-05-03T19:54:35.452Z,,0,,,NaN,,,,,,false,,,,558077,558077,,558077,,558107,8,400,,,
sequence,flow.Sequence,4_127,2023-05-03T19:54:35.452Z,,0,,,2020,completion,,,,,false,,,,558077,558077,556040,556029,556057,558107,8,400,,,
trial,html.Screen,4_128_0,2023-05-03T19:54:37.626Z,,0,3,,2161,response,ISIC_0033687.JPG,,ISIC_0031013.JPG,ISIC_0031013.JPG,false,0,keypress(Z),500,560252.0000000001,560251,558090,558077,558107,560274,8,400,29,,ISIC_0033687.JPG
break,html.Screen,4_128_1,2023-05-03T19:54:37.628Z,,0,,,NaN,,,,,,false,,,,560253,560253,,560252.0000000001,,560274,8,400,,,
break_continue,html.Screen,4_128_2,2023-05-03T19:54:37.628Z,,0,,,NaN,,,,,,false,,,,560253,560253,,560253,,560274,8,400,,,
sequence,flow.Sequence,4_128,2023-05-03T19:54:37.628Z,,0,,,2146,completion,,,,,false,,,,560253,560253,558090,558077,558107,560274,8,400,,,
trial,html.Screen,4_129_0,2023-05-03T19:54:39.873Z,,0,3,,2241,response,ISIC_1120654.JPG,,ISIC_0013059.JPG,ISIC_0013059.JPG,false,0,keypress(Z),500,562498,562498,560257,560254,560274,562524,8,400,30,,ISIC_1120654.JPG
break,html.Screen,4_129_1,2023-05-03T19:54:39.875Z,,0,,,NaN,,,,,,false,,,,562500,562499,,562499,,562524,8,400,,,
break_continue,html.Screen,4_129_2,2023-05-03T19:54:39.875Z,,0,,,NaN,,,,,,false,,,,562500,562500,,562500,,562524,8,400,,,
sequence,flow.Sequence,4_129,2023-05-03T19:54:39.875Z,,0,,,2226,completion,,,,,false,,,,562500,562500,560257,560254,560274,562524,8,400,,,
trial,html.Screen,4_130_0,2023-05-03T19:54:41.938Z,,0,3,,2054,response,ISIC_0963536.JPG,,ISIC_4874581.JPG,ISIC_4874581.JPG,false,0,keypress(Z),500,564563,564562,562508,562501,562524,564591,8,400,31,,ISIC_0963536.JPG
break,html.Screen,4_130_1,2023-05-03T19:54:41.939Z,,0,,,NaN,,,,,,false,,,,564564,564564,,564563,,564591,8,400,,,
break_continue,html.Screen,4_130_2,2023-05-03T19:54:41.940Z,,0,,,NaN,,,,,,false,,,,564565,564565,,564565,,564591,8,400,,,
sequence,flow.Sequence,4_130,2023-05-03T19:54:41.940Z,,0,,,2041,completion,,,,,false,,,,564565,564565,562508,562501,562524,564591,8,400,,,
trial,html.Screen,4_131_0,2023-05-03T19:54:44.078Z,,0,3,,2129,response,ISIC_0025169.JPG,,ISIC_0062536.JPG,ISIC_0062536.JPG,false,0,keypress(Z),500,566703,566703,564574,564565,564591,566724,8,400,32,,ISIC_0025169.JPG
break,html.Screen,4_131_1,2023-05-03T19:54:44.079Z,,0,,,NaN,,,,,,false,,,,566705,566704.0000000001,,566704.0000000001,,566724,8,400,,,
break_continue,html.Screen,4_131_2,2023-05-03T19:54:44.080Z,,0,,,NaN,,,,,,false,,,,566705,566705,,566705,,566724,8,400,,,
sequence,flow.Sequence,4_131,2023-05-03T19:54:44.080Z,,0,,,2114,completion,,,,,false,,,,566705,566705,564574,564565,564591,566724,8,400,,,
trial,html.Screen,4_132_0,2023-05-03T19:54:46.166Z,,0,3,,2083,response,ISIC_7507286.JPG,,ISIC_2517072.JPG,ISIC_2517072.JPG,false,0,keypress(Z),500,568792,568791,566708,566705,566724,568807,8,400,33,,ISIC_7507286.JPG
break,html.Screen,4_132_1,2023-05-03T19:54:46.168Z,,0,,,NaN,,,,,,false,,,,568793,568793,,568792,,568807,8,400,,,
break_continue,html.Screen,4_132_2,2023-05-03T19:54:46.168Z,,0,,,NaN,,,,,,false,,,,568794,568793,,568793,,568807,8,400,,,
sequence,flow.Sequence,4_132,2023-05-03T19:54:46.169Z,,0,,,2069,completion,,,,,false,,,,568794,568793,566708,566705,566724,568807,8,400,,,
trial,html.Screen,4_133_0,2023-05-03T19:54:48.232Z,,0,3,,2060,response,ISIC_0011196.JPG,,ISIC_0001137.JPG,ISIC_0001137.JPG,false,0,keypress(Z),500,570858.0000000001,570857,568797,568794,568807,570874,8,400,34,,ISIC_0011196.JPG
break,html.Screen,4_133_1,2023-05-03T19:54:48.233Z,,0,,,NaN,,,,,,false,,,,570859,570858.0000000001,,570858.0000000001,,570874,8,400,,,
break_continue,html.Screen,4_133_2,2023-05-03T19:54:48.234Z,,0,,,NaN,,,,,,false,,,,570859,570859,,570859,,570874,8,400,,,
sequence,flow.Sequence,4_133,2023-05-03T19:54:48.234Z,,0,,,2052,completion,,,,,false,,,,570859,570859,568797,568794,568807,570874,8,400,,,
trial,html.Screen,4_134_0,2023-05-03T19:54:50.469Z,,0,3,,2232,response,ISIC_0010411.JPG,,ISIC_0007678.JPG,ISIC_0007678.JPG,false,0,keypress(Z),500,573094,573094,570862,570860,570874,573125,8,400,35,,ISIC_0010411.JPG
break,html.Screen,4_134_1,2023-05-03T19:54:50.470Z,,0,,,NaN,,,,,,false,,,,573096,573095,,573095,,573125,8,400,,,
break_continue,html.Screen,4_134_2,2023-05-03T19:54:50.471Z,,0,,,NaN,,,,,,false,,,,573096,573096,,573096,,573125,8,400,,,
sequence,flow.Sequence,4_134,2023-05-03T19:54:50.471Z,,0,,,2222,completion,,,,,false,,,,573096,573096,570862,570860,570874,573125,8,400,,,
trial,html.Screen,4_135_0,2023-05-03T19:54:52.705Z,,0,3,,2222,response,ISIC_4765919.JPG,,ISIC_0030106.JPG,ISIC_0030106.JPG,false,0,keypress(Z),500,575331,575330,573108,573096,573125,575358,8,400,36,,ISIC_4765919.JPG
break,html.Screen,4_135_1,2023-05-03T19:54:52.706Z,,0,,,NaN,,,,,,false,,,,575332,575332,,575331,,575358,8,400,,,
break_continue,html.Screen,4_135_2,2023-05-03T19:54:52.707Z,,0,,,NaN,,,,,,false,,,,575332,575332,,575332,,575358,8,400,,,
sequence,flow.Sequence,4_135,2023-05-03T19:54:52.707Z,,0,,,2207,completion,,,,,false,,,,575333,575332,573108,573096,573125,575358,8,400,,,
trial,html.Screen,4_136_0,2023-05-03T19:54:56.174Z,,0,3,,3459,response,ISIC_0030889.JPG,,ISIC_0031680.JPG,ISIC_0031680.JPG,false,0,keypress(Z),500,578800.0000000001,578799,575340,575333,575358,578824,8,400,37,,ISIC_0030889.JPG
break,html.Screen,4_136_1,2023-05-03T19:54:56.175Z,,0,,,NaN,,,,,,false,,,,578801,578801,,578800.0000000001,,578824,8,400,,,
break_continue,html.Screen,4_136_2,2023-05-03T19:54:56.176Z,,0,,,NaN,,,,,,false,,,,578801,578801,,578801,,578824,8,400,,,
sequence,flow.Sequence,4_136,2023-05-03T19:54:56.176Z,,0,,,3443,completion,,,,,false,,,,578802,578801,575340,575333,575358,578824,8,400,,,
trial,html.Screen,4_137_0,2023-05-03T19:55:01.399Z,,0,3,,5216,response,ISIC_0064557.JPG,,ISIC_0058186.JPG,ISIC_0058186.JPG,false,0,keypress(Z),500,584025,584024,578808,578802,578824,584041,8,400,38,,ISIC_0064557.JPG
break,html.Screen,4_137_1,2023-05-03T19:55:01.401Z,,0,,,NaN,,,,,,false,,,,584027,584026.0000000001,,584025,,584041,8,400,,,
break_continue,html.Screen,4_137_2,2023-05-03T19:55:01.401Z,,0,,,NaN,,,,,,false,,,,584027,584027,,584027,,584041,8,400,,,
sequence,flow.Sequence,4_137,2023-05-03T19:55:01.402Z,,0,,,5203,completion,,,,,false,,,,584027,584027,578808,578802,578824,584041,8,400,,,
trial,html.Screen,4_138_0,2023-05-03T19:55:03.496Z,,0,3,,2090,response,ISIC_3253098.JPG,,ISIC_0032476.JPG,ISIC_0032476.JPG,false,0,keypress(Z),500,586122,586121,584031,584028,584041,586141,8,400,39,,ISIC_3253098.JPG
break,html.Screen,4_138_1,2023-05-03T19:55:03.497Z,,0,,,NaN,,,,,,false,,,,586123,586123,,586122,,586141,8,400,,,
break_continue,html.Screen,4_138_2,2023-05-03T19:55:03.498Z,,0,,,NaN,,,,,,false,,,,586124,586123,,586123,,586141,8,400,,,
sequence,flow.Sequence,4_138,2023-05-03T19:55:03.498Z,,0,,,2082,completion,,,,,false,,,,586124,586123,584031,584028,584041,586141,8,400,,,
trial,html.Screen,4_139_0,2023-05-03T19:55:05.683Z,,0,3,,2182,response,ISIC_0059884.JPG,,ISIC_4394524.JPG,ISIC_4394524.JPG,false,0,keypress(Z),500,588309,588309,586127,586124,586141,588341,8,400,40,,ISIC_0059884.JPG
break,html.Screen,4_139_1,2023-05-03T19:55:05.685Z,,0,,,NaN,,,,,,false,,,,588311,588310.0000000001,,588310.0000000001,,588341,8,400,,,
break_continue,html.Screen,4_139_2,2023-05-03T19:55:05.685Z,,0,,,NaN,,,,,,false,,,,588311,588311,,588311,,588341,8,400,,,
sequence,flow.Sequence,4_139,2023-05-03T19:55:05.685Z,,0,,,2170,completion,,,,,false,,,,588311,588311,586127,586124,586141,588341,8,400,,,
trial,html.Screen,4_140_0,2023-05-03T19:55:08.515Z,,0,3,,2815,response,ISIC_9572761.JPG,,ISIC_0032604.JPG,ISIC_0032604.JPG,false,0,keypress(Z),500,591141,591140,588325,588311,588341,591157,8,400,41,,ISIC_9572761.JPG
break,html.Screen,4_140_1,2023-05-03T19:55:08.516Z,,0,,,NaN,,,,,,false,,,,591142,591141,,591141,,591157,8,400,,,
break_continue,html.Screen,4_140_2,2023-05-03T19:55:08.516Z,,0,,,NaN,,,,,,false,,,,591142,591142,,591142,,591157,8,400,,,
sequence,flow.Sequence,4_140,2023-05-03T19:55:08.517Z,,0,,,2801,completion,,,,,false,,,,591143,591142,588325,588311,588341,591157,8,400,,,
trial,html.Screen,4_141_0,2023-05-03T19:55:10.852Z,,0,3,,2332,response,ISIC_1308081.JPG,,ISIC_0055737.JPG,ISIC_0055737.JPG,false,0,keypress(Z),500,593478.0000000001,593477,591145,591143,591157,593508,8,400,42,,ISIC_1308081.JPG
break,html.Screen,4_141_1,2023-05-03T19:55:10.853Z,,0,,,NaN,,,,,,false,,,,593479,593479,,593478.0000000001,,593508,8,400,,,
break_continue,html.Screen,4_141_2,2023-05-03T19:55:10.853Z,,0,,,NaN,,,,,,false,,,,593479,593479,,593479,,593508,8,400,,,
sequence,flow.Sequence,4_141,2023-05-03T19:55:10.854Z,,0,,,2322,completion,,,,,false,,,,593480,593479,591145,591143,591157,593508,8,400,,,
trial,html.Screen,4_142_0,2023-05-03T19:55:13.007Z,,0,3,,2142,response,ISIC_0032622.JPG,,ISIC_0057184.JPG,ISIC_0057184.JPG,false,0,keypress(Z),500,595633,595633,593491,593480,593508,595658,8,400,43,,ISIC_0032622.JPG
break,html.Screen,4_142_1,2023-05-03T19:55:13.008Z,,0,,,NaN,,,,,,false,,,,595634,595634,,595633,,595658,8,400,,,
break_continue,html.Screen,4_142_2,2023-05-03T19:55:13.009Z,,0,,,NaN,,,,,,false,,,,595635,595635,,595635,,595658,8,400,,,
sequence,flow.Sequence,4_142,2023-05-03T19:55:13.009Z,,0,,,2127,completion,,,,,false,,,,595635,595635,593491,593480,593508,595658,8,400,,,
trial,html.Screen,4_143_0,2023-05-03T19:55:15.130Z,,0,3,,2114,response,ISIC_0024308.JPG,,ISIC_0057164.JPG,ISIC_0057164.JPG,false,0,keypress(Z),500,597756,597755,595641,595635,595658,597775,8,400,44,,ISIC_0024308.JPG
break,html.Screen,4_143_1,2023-05-03T19:55:15.131Z,,0,,,NaN,,,,,,false,,,,597757.0000000001,597757.0000000001,,597756,,597775,8,400,,,
break_continue,html.Screen,4_143_2,2023-05-03T19:55:15.132Z,,0,,,NaN,,,,,,false,,,,597758,597758,,597757.0000000001,,597775,8,400,,,
sequence,flow.Sequence,4_143,2023-05-03T19:55:15.132Z,,0,,,2100,completion,,,,,false,,,,597758,597758,595641,595635,595658,597775,8,400,,,
trial,html.Screen,4_144_0,2023-05-03T19:55:17.330Z,,0,3,,2195,response,ISIC_0027247.JPG,,ISIC_9209245.JPG,ISIC_9209245.JPG,false,0,keypress(Z),500,599956,599956,597761,597758,597775,599975,8,400,45,,ISIC_0027247.JPG
break,html.Screen,4_144_1,2023-05-03T19:55:17.332Z,,0,,,NaN,,,,,,false,,,,599958,599957,,599957,,599975,8,400,,,
break_continue,html.Screen,4_144_2,2023-05-03T19:55:17.332Z,,0,,,NaN,,,,,,false,,,,599958,599958,,599958,,599975,8,400,,,
sequence,flow.Sequence,4_144,2023-05-03T19:55:17.333Z,,0,,,2183,completion,,,,,false,,,,599959.0000000001,599958,597761,597758,597775,599975,8,400,,,
trial,html.Screen,4_145_0,2023-05-03T19:55:19.675Z,,0,3,,2338.0000000001164,response,ISIC_0027130.JPG,,ISIC_8690631.JPG,ISIC_8690631.JPG,false,0,keypress(Z),500,602301,602300.0000000001,599962,599959.0000000001,599975,602325,8,400,46,,ISIC_0027130.JPG
break,html.Screen,4_145_1,2023-05-03T19:55:19.676Z,,0,,,NaN,,,,,,false,,,,602302,602302,,602301,,602325,8,400,,,
break_continue,html.Screen,4_145_2,2023-05-03T19:55:19.676Z,,0,,,NaN,,,,,,false,,,,602302,602302,,602302,,602325,8,400,,,
sequence,flow.Sequence,4_145,2023-05-03T19:55:19.676Z,,0,,,2327,completion,,,,,false,,,,602303,602302,599962,599959.0000000001,599975,602325,8,400,,,
trial,html.Screen,4_146_0,2023-05-03T19:55:21.722Z,,0,3,,2039,response,ISIC_0027149.JPG,,ISIC_0054341.JPG,ISIC_0054341.JPG,false,0,keypress(Z),500,604348,604347,602308,602303,602325,604375,8,400,47,,ISIC_0027149.JPG
break,html.Screen,4_146_1,2023-05-03T19:55:21.723Z,,0,,,NaN,,,,,,false,,,,604349,604349,,604348,,604375,8,400,,,
break_continue,html.Screen,4_146_2,2023-05-03T19:55:21.723Z,,0,,,NaN,,,,,,false,,,,604350,604349,,604349,,604375,8,400,,,
sequence,flow.Sequence,4_146,2023-05-03T19:55:21.724Z,,0,,,2024,completion,,,,,false,,,,604350,604349,602308,602303,602325,604375,8,400,,,
trial,html.Screen,4_147_0,2023-05-03T19:55:23.915Z,,0,3,,2182,response,ISIC_0034208.JPG,,ISIC_0032751.JPG,ISIC_0032751.JPG,false,0,keypress(Z),500,606541,606540,604358,604350,604375,606558,8,400,48,,ISIC_0034208.JPG
break,html.Screen,4_147_1,2023-05-03T19:55:23.916Z,,0,,,NaN,,,,,,false,,,,606543,606542,,606542,,606558,8,400,,,
break_continue,html.Screen,4_147_2,2023-05-03T19:55:23.917Z,,0,,,NaN,,,,,,false,,,,606543,606543,,606543,,606558,8,400,,,
sequence,flow.Sequence,4_147,2023-05-03T19:55:23.917Z,,0,,,2168,completion,,,,,false,,,,606543,606543,604358,604350,604375,606558,8,400,,,
trial,html.Screen,4_148_0,2023-05-03T19:55:26.471Z,,0,3,,2550,response,ISIC_8708106.JPG,,ISIC_0056784.JPG,ISIC_0056784.JPG,false,0,keypress(Z),500,609097,609096,606546,606543,606558,609125,8,400,49,,ISIC_8708106.JPG
break,html.Screen,4_148_1,2023-05-03T19:55:26.472Z,,0,,,NaN,,,,,,false,,,,609099,609098,,609098,,609125,8,400,,,
break_continue,html.Screen,4_148_2,2023-05-03T19:55:26.473Z,,0,,,NaN,,,,,,false,,,,609099,609099,,609099,,609125,8,400,,,
sequence,flow.Sequence,4_148,2023-05-03T19:55:26.473Z,,0,,,2541,completion,,,,,false,,,,609100,609099,606546,606543,606558,609125,8,400,,,
trial,html.Screen,4_149_0,2023-05-03T19:55:28.567Z,,0,3,,2085,response,ISIC_0056309.JPG,,ISIC_9612228.JPG,ISIC_9612228.JPG,false,0,keypress(Z),500,611193,611193,609108,609100,609125,611225,8,400,50,,ISIC_0056309.JPG
break,html.Screen,4_149_1,2023-05-03T19:55:33.583Z,,0,,,5000,timeout,,,,,false,,,,616209.0000000001,616208,611209,611194,611225,616225,8,400,,,
break_continue,html.Screen,4_149_2,2023-05-03T19:55:34.394Z,,0,,,839,response,,,,,false,continue,keypress(Space),,617020,617047,616208,616210,616225,617041,8,400,,,
sequence,flow.Sequence,4_149,2023-05-03T19:55:34.394Z,,0,,,7922,completion,,,,,false,,,,617021,617047,609108,609100,609125,617041,8,400,,,
trial,html.Screen,4_150_0,2023-05-03T19:55:37.910Z,,0,4,,3511,response,ISIC_0448195.JPG,,ISIC_1165548.JPG,ISIC_1165548.JPG,false,0,keypress(Z),500,620537,620536,617025,617021,617041,620558,8,400,1,,ISIC_0448195.JPG
break,html.Screen,4_150_1,2023-05-03T19:55:37.911Z,,0,,,NaN,,,,,,false,,,,620538,620537,,620537,,620558,8,400,,,
break_continue,html.Screen,4_150_2,2023-05-03T19:55:37.911Z,,0,,,NaN,,,,,,false,,,,620538,620538,,620538,,620558,8,400,,,
sequence,flow.Sequence,4_150,2023-05-03T19:55:37.912Z,,0,,,3497,completion,,,,,false,,,,620538,620538,617025,617021,617041,620558,8,400,,,
trial,html.Screen,4_151_0,2023-05-03T19:55:40.159Z,,0,4,,2243,response,ISIC_5238111.JPG,,ISIC_0207268.JPG,ISIC_0207268.JPG,false,0,keypress(Z),500,622786,622785,620542,620539,620558,622809,8,400,2,,ISIC_5238111.JPG
break,html.Screen,4_151_1,2023-05-03T19:55:40.161Z,,0,,,NaN,,,,,,false,,,,622788,622787,,622786,,622809,8,400,,,
break_continue,html.Screen,4_151_2,2023-05-03T19:55:40.161Z,,0,,,NaN,,,,,,false,,,,622788,622788,,622788,,622809,8,400,,,
sequence,flow.Sequence,4_151,2023-05-03T19:55:40.162Z,,0,,,2230,completion,,,,,false,,,,622788,622788,620542,620538,620558,622809,8,400,,,
trial,html.Screen,4_152_0,2023-05-03T19:55:42.666Z,,0,4,,2500,response,ISIC_7766007.JPG,,ISIC_5219334.JPG,ISIC_5219334.JPG,false,0,keypress(Z),500,625292,625292,622792,622788,622809,625308,8,400,3,,ISIC_7766007.JPG
break,html.Screen,4_152_1,2023-05-03T19:55:42.667Z,,0,,,NaN,,,,,,false,,,,625294,625294,,625293,,625308,8,400,,,
break_continue,html.Screen,4_152_2,2023-05-03T19:55:42.668Z,,0,,,NaN,,,,,,false,,,,625295,625294,,625294,,625308,8,400,,,
sequence,flow.Sequence,4_152,2023-05-03T19:55:42.668Z,,0,,,2485,completion,,,,,false,,,,625295,625294,622792,622788,622809,625308,8,400,,,
trial,html.Screen,4_153_0,2023-05-03T19:55:44.831Z,,0,4,,2160,response,ISIC_0028176.JPG,,ISIC_0012706.JPG,ISIC_0012706.JPG,false,0,keypress(Z),500,627458,627457,625297,625295,625308,627475,8,400,4,,ISIC_0028176.JPG
break,html.Screen,4_153_1,2023-05-03T19:55:44.832Z,,0,,,NaN,,,,,,false,,,,627459.0000000001,627459.0000000001,,627458,,627475,8,400,,,
break_continue,html.Screen,4_153_2,2023-05-03T19:55:44.832Z,,0,,,NaN,,,,,,false,,,,627459.0000000001,627459.0000000001,,627459.0000000001,,627475,8,400,,,
sequence,flow.Sequence,4_153,2023-05-03T19:55:44.833Z,,0,,,2151.0000000001164,completion,,,,,false,,,,627459.0000000001,627459.0000000001,625297,625295,625308,627475,8,400,,,
trial,html.Screen,4_154_0,2023-05-03T19:55:47.378Z,,0,4,,2541,response,ISIC_0033568.JPG,,ISIC_0010476.JPG,ISIC_0010476.JPG,false,0,keypress(Z),500,630005,630004,627463,627460,627475,630025,8,400,5,,ISIC_0033568.JPG
break,html.Screen,4_154_1,2023-05-03T19:55:47.379Z,,0,,,NaN,,,,,,false,,,,630006,630006,,630005,,630025,8,400,,,
break_continue,html.Screen,4_154_2,2023-05-03T19:55:47.380Z,,0,,,NaN,,,,,,false,,,,630006,630006,,630006,,630025,8,400,,,
sequence,flow.Sequence,4_154,2023-05-03T19:55:47.380Z,,0,,,2531,completion,,,,,false,,,,630007.0000000001,630006,627463,627460,627475,630025,8,400,,,
trial,html.Screen,4_155_0,2023-05-03T19:55:50.529Z,,0,4,,3146.0000000001164,response,ISIC_6487069.JPG,,ISIC_0046331.JPG,ISIC_0046331.JPG,false,0,keypress(Z),500,633156.0000000001,633156.0000000001,630010,630007.0000000001,630025,633175,8,400,6,,ISIC_6487069.JPG
break,html.Screen,4_155_1,2023-05-03T19:55:50.531Z,,0,,,NaN,,,,,,false,,,,633158,633157,,633157,,633175,8,400,,,
break_continue,html.Screen,4_155_2,2023-05-03T19:55:50.531Z,,0,,,NaN,,,,,,false,,,,633158,633158,,633158,,633175,8,400,,,
sequence,flow.Sequence,4_155,2023-05-03T19:55:50.532Z,,0,,,3133,completion,,,,,false,,,,633159,633158,630010,630007.0000000001,630025,633175,8,400,,,
trial,html.Screen,4_156_0,2023-05-03T19:55:52.646Z,,0,4,,2112,response,ISIC_8265105.JPG,,ISIC_0025900.JPG,ISIC_0025900.JPG,false,0,keypress(Z),500,635273,635273,633161,633159,633175,635292,8,400,7,,ISIC_8265105.JPG
break,html.Screen,4_156_1,2023-05-03T19:55:52.647Z,,0,,,NaN,,,,,,false,,,,635274,635274,,635274,,635292,8,400,,,
break_continue,html.Screen,4_156_2,2023-05-03T19:55:52.648Z,,0,,,NaN,,,,,,false,,,,635275,635275,,635275,,635292,8,400,,,
sequence,flow.Sequence,4_156,2023-05-03T19:55:52.648Z,,0,,,2100,completion,,,,,false,,,,635275,635275,633161,633159,633175,635292,8,400,,,
trial,html.Screen,4_157_0,2023-05-03T19:55:54.743Z,,0,4,,2093,response,ISIC_0028418.JPG,,ISIC_0247197.JPG,ISIC_0247197.JPG,false,0,keypress(Z),500,637370,637370,635277,635275,635292,637392,8,400,8,,ISIC_0028418.JPG
break,html.Screen,4_157_1,2023-05-03T19:55:54.744Z,,0,,,NaN,,,,,,false,,,,637371,637371,,637370,,637392,8,400,,,
break_continue,html.Screen,4_157_2,2023-05-03T19:55:54.745Z,,0,,,NaN,,,,,,false,,,,637372,637372,,637371,,637392,8,400,,,
sequence,flow.Sequence,4_157,2023-05-03T19:55:54.745Z,,0,,,2080,completion,,,,,false,,,,637372,637372,635277,635275,635292,637392,8,400,,,
