sender,sender_type,sender_id,timestamp,meta,,blockNo,condition,duration,ended_on,img_left,img_reveal,img_right,loser,practice,response,response_action,selection_duration,time_commit,time_end,time_render,time_run,time_show,time_switch,total_blocks,total_trials,trialNo,url,winner
informed_consent,html.Screen,0,2023-11-02T16:34:18.449Z,"{""labjs_version"":""20.2.4"",""labjs_build"":{""flavor"":""production"",""commit"":""f5b4a49f956347addd546a832a3327688c2c0fef""},""location"":""https://run.pavlovia.org/MurrayBennett/melanoma-2afc/?participant=66482&platform=sona"",""userAgent"":""Mozilla/5.0 (Windows NT 10.0; Win64; x64) AppleWebKit/537.36 (KHTML, like Gecko) Chrome/118.0.0.0 Safari/537.36"",""platform"":""Win32"",""language"":""en-US"",""locale"":""en-US"",""timeZone"":""America/Chicago"",""timezoneOffset"":300,""screen_width"":1280,""screen_height"":720,""scroll_width"":1280,""scroll_height"":595,""window_innerWidth"":1280,""window_innerHeight"":595,""devicePixelRatio"":1.5}",,,,25357.045,response,,,,,,consent,click button,,29215.400000095367,29209,3816.899,3833.100000023842,3851.955,29249.82,,,,"{""participant"":""66482"",""platform"":""sona""}",
Welcome,html.Screen,1,2023-11-02T16:34:31.165Z,,,,symmetry,12680.480000071526,response,,,,,,continue,click button,,41932.300000071526,41930.300000071526,29199.774,29216,29249.82,41951.824,,,,,
trial,html.Screen,2_0_0,2023-11-02T16:34:42.667Z,,0,0,,11516.379999999997,timeout,ISIC_0069348.JPG,,ISIC_6997061.JPG,,true,,,500,53434.5,53434.200000047684,41916.823,41933.40000009537,41951.824,53468.204,1,6,1,,
sequence,flow.Sequence,2_0,2023-11-02T16:34:42.668Z,,0,,,11482.376000047683,completion,,,,,true,,,,53434.700000047684,53434.200000047684,41916.823,41933.40000009537,41951.824,53468.204,1,6,,,
trial,html.Screen,2_1_0,2023-11-02T16:34:54.188Z,,0,0,,11514.344000000005,timeout,ISIC_0057368.JPG,,ISIC_0009529.JPG,,true,,,500,64953.90000009537,64953.60000002384,53450.969,53434.90000009537,53468.204,64982.548,1,6,2,,
sequence,flow.Sequence,2_1,2023-11-02T16:34:54.188Z,,0,,,11485.396000023844,completion,,,,,true,,,,64954.40000009537,64953.60000002384,53450.969,53434.800000071526,53468.204,64982.548,1,6,,,
trial,html.Screen,2_2_0,2023-11-02T16:34:58.995Z,,0,0,,4778.152000047681,response,ISIC_9758671.JPG,,ISIC_0064954.JPG,ISIC_9758671.JPG,true,1,keypress(m),500,69761.10000002384,69760.70000004768,64965.853,64954.700000047684,64982.548,69765.791,1,6,3,,ISIC_0064954.JPG
sequence,flow.Sequence,2_2,2023-11-02T16:34:58.995Z,,0,,,4778.152000047681,completion,,,,,true,,,,69761.5,69760.70000004768,64965.853,64954.60000002384,64982.548,69765.791,1,6,,,
trial,html.Screen,2_3_0,2023-11-02T16:35:02.731Z,,0,0,,3730.8090000238444,response,ISIC_0005785.JPG,,ISIC_0000080.JPG,ISIC_0005785.JPG,true,1,keypress(m),500,73497,73496.60000002384,69751.79,69761.70000004768,69765.791,73520.236,1,6,4,,ISIC_0000080.JPG
sequence,flow.Sequence,2_3,2023-11-02T16:35:02.731Z,,0,,,3730.8090000238444,completion,,,,,true,,,,73497.30000007153,73496.60000002384,69751.79,69761.70000004768,69765.791,73520.236,1,6,,,
trial,html.Screen,2_4_0,2023-11-02T16:35:06.259Z,,0,0,,3505.2639999999956,response,ISIC_5390060.JPG,,ISIC_7944028.JPG,ISIC_5390060.JPG,true,1,keypress(m),500,77025.70000004768,77025.5,73482.402,73497.5,73520.236,77032.649,1,6,5,,ISIC_7944028.JPG
sequence,flow.Sequence,2_4,2023-11-02T16:35:06.260Z,,0,,,3505.2639999999956,completion,,,,,true,,,,77026,77025.5,73482.402,73497.5,73520.236,77032.649,1,6,,,
trial,html.Screen,2_5_0,2023-11-02T16:35:10.653Z,,0,0,,4386.2510000953625,response,ISIC_0794216.JPG,,ISIC_0010188.JPG,ISIC_0010188.JPG,true,0,keypress(z),500,81419.20000004768,81418.90000009537,77015.744,77026.20000004768,77032.649,81432.528,1,6,6,,ISIC_0794216.JPG
sequence,flow.Sequence,2_5,2023-11-02T16:35:10.653Z,,0,,,4386.2510000953625,completion,,,,,true,,,,81419.40000009537,81418.90000009537,77015.744,77026.20000004768,77032.649,81432.528,1,6,,,
loop,flow.Loop,2,2023-11-02T16:35:10.653Z,,,,,39467.07600009537,completion,,,,,true,,,,81419.60000002384,81418.90000009537,41916.823,41933.300000071526,41951.824,81432.528,1,6,,,
exp_instructions,html.Screen,3,2023-11-02T16:35:20.697Z,,,,,10028.872000095362,response,,,,,,continue,keypress(Space),,91463.10000002384,91461.40000009537,81415.616,81419.70000004768,81432.528,91499.203,,,,,
trial,html.Screen,4_0_0,2023-11-02T16:35:24.735Z,,0,1,,4002.297000000006,response,ISIC_0009985.JPG,8,ISIC_1382677.JPG,ISIC_0009985.JPG,false,1,keypress(m),500,95501.70000004768,95501.5,91482.186,91463.20000004768,91499.203,95515.663,8,400,1,,ISIC_1382677.JPG
break,html.Screen,4_0_1,2023-11-02T16:35:24.736Z,,0,,,NaN,,,,,,false,,,,95502.70000004768,95502.5,,95501.90000009537,,95515.663,8,400,,,
break_continue,html.Screen,4_0_2,2023-11-02T16:35:24.737Z,,0,,,NaN,,,,,,false,,,,95503.20000004768,95503.10000002384,,95502.80000007153,,95515.663,8,400,,,
sequence,flow.Sequence,4_0,2023-11-02T16:35:24.737Z,,0,,,4003.897000023848,completion,,,,,false,,,,95503.30000007153,95503.10000002384,91482.186,91463.20000004768,91499.203,95515.663,8,400,,,
trial,html.Screen,4_1_0,2023-11-02T16:35:28.712Z,,0,1,,3961.4370000238414,response,ISIC_0726170.JPG,11,ISIC_0011699.JPG,ISIC_0011699.JPG,false,0,keypress(z),500,99478.5,99477.10000002384,95499.74,95503.40000009537,95515.663,99515.268,8,400,2,,ISIC_0726170.JPG
break,html.Screen,4_1_1,2023-11-02T16:35:28.721Z,,0,,,NaN,,,,,,false,,,,99487.10000002384,99485.60000002384,,99479.80000007153,,99515.268,8,400,,,
break_continue,html.Screen,4_1_2,2023-11-02T16:35:28.721Z,,0,,,NaN,,,,,,false,,,,99487.60000002384,99487.40000009537,,99487.30000007153,,99515.268,8,400,,,
sequence,flow.Sequence,4_1,2023-11-02T16:35:28.721Z,,0,,,3971.737000095367,completion,,,,,false,,,,99487.70000004768,99487.40000009537,95499.74,95503.30000007153,95515.663,99515.268,8,400,,,
trial,html.Screen,4_2_0,2023-11-02T16:35:32.874Z,,0,1,,4123.232000000004,response,ISIC_4804158.JPG,13,ISIC_0897876.JPG,ISIC_0897876.JPG,false,0,keypress(z),500,103640.40000009537,103638.5,99498.628,99487.80000007153,99515.268,103650.291,8,400,3,,ISIC_4804158.JPG
break,html.Screen,4_2_1,2023-11-02T16:35:32.876Z,,0,,,NaN,,,,,,false,,,,103642,103641.80000007153,,103640.90000009537,,103650.291,8,400,,,
break_continue,html.Screen,4_2_2,2023-11-02T16:35:32.876Z,,0,,,NaN,,,,,,false,,,,103642.40000009537,103642.30000007153,,103642.10000002384,,103650.291,8,400,,,
sequence,flow.Sequence,4_2,2023-11-02T16:35:32.876Z,,0,,,4127.032000071529,completion,,,,,false,,,,103642.5,103642.30000007153,99498.628,99487.80000007153,99515.268,103650.291,8,400,,,
trial,html.Screen,4_3_0,2023-11-02T16:35:36.142Z,,0,1,,3258.3090000238444,response,ISIC_9294799.JPG,9,ISIC_0511526.JPG,ISIC_9294799.JPG,false,1,keypress(m),500,106908.80000007153,106908.60000002384,103632.254,103642.5,103650.291,106917.447,8,400,4,,ISIC_0511526.JPG
break,html.Screen,4_3_1,2023-11-02T16:35:36.144Z,,0,,,NaN,,,,,,false,,,,106910.20000004768,106909.90000009537,,106908.90000009537,,106917.447,8,400,,,
break_continue,html.Screen,4_3_2,2023-11-02T16:35:36.144Z,,0,,,NaN,,,,,,false,,,,106910.5,106910.40000009537,,106910.30000007153,,106917.447,8,400,,,
sequence,flow.Sequence,4_3,2023-11-02T16:35:36.144Z,,0,,,3260.10900009537,completion,,,,,false,,,,106910.60000002384,106910.40000009537,103632.254,103642.5,103650.291,106917.447,8,400,,,
trial,html.Screen,4_4_0,2023-11-02T16:35:39.604Z,,0,1,,3452.2530000476836,response,ISIC_8727731.JPG,41,ISIC_3663705.JPG,ISIC_3663705.JPG,false,0,keypress(z),500,110370.10000002384,110369.70000004768,106898.348,106910.80000007153,106917.447,110381.741,8,400,5,,ISIC_8727731.JPG
break,html.Screen,4_4_1,2023-11-02T16:35:39.606Z,,0,,,NaN,,,,,,false,,,,110372.40000009537,110372.10000002384,,110370.5,,110381.741,8,400,,,
break_continue,html.Screen,4_4_2,2023-11-02T16:35:39.607Z,,0,,,NaN,,,,,,false,,,,110372.90000009537,110372.80000007153,,110372.60000002384,,110381.741,8,400,,,
sequence,flow.Sequence,4_4,2023-11-02T16:35:39.607Z,,0,,,3455.3530000715255,completion,,,,,false,,,,110373.10000002384,110372.80000007153,106898.348,106910.70000004768,106917.447,110381.741,8,400,,,
trial,html.Screen,4_5_0,2023-11-02T16:35:42.510Z,,0,1,,2894.559000071531,response,ISIC_0034086.JPG,9,ISIC_0031293.JPG,ISIC_0034086.JPG,false,1,keypress(m),500,113276.60000002384,113276.30000007153,110366.084,110373.20000004768,110381.741,113281.704,8,400,6,,ISIC_0031293.JPG
break,html.Screen,4_5_1,2023-11-02T16:35:42.512Z,,0,,,NaN,,,,,,false,,,,113277.90000009537,113277.70000004768,,113276.80000007153,,113281.704,8,400,,,
break_continue,html.Screen,4_5_2,2023-11-02T16:35:42.512Z,,0,,,NaN,,,,,,false,,,,113278.30000007153,113278.20000004768,,113278,,113281.704,8,400,,,
sequence,flow.Sequence,4_5,2023-11-02T16:35:42.512Z,,0,,,2896.459000047689,completion,,,,,false,,,,113278.30000007153,113278.20000004768,110366.084,110373.10000002384,110381.741,113281.704,8,400,,,
trial,html.Screen,4_6_0,2023-11-02T16:35:46.454Z,,0,1,,3938.0960000715277,response,ISIC_4659355.JPG,4,ISIC_0072195.JPG,ISIC_4659355.JPG,false,1,keypress(m),500,117220.10000002384,117219.80000007153,113264.857,113278.40000009537,113281.704,117232.569,8,400,7,,ISIC_0072195.JPG
break,html.Screen,4_6_1,2023-11-02T16:35:46.455Z,,0,,,NaN,,,,,,false,,,,117221,117220.80000007153,,117220.20000004768,,117232.569,8,400,,,
break_continue,html.Screen,4_6_2,2023-11-02T16:35:46.455Z,,0,,,NaN,,,,,,false,,,,117221.30000007153,117221.20000004768,,117221,,117232.569,8,400,,,
sequence,flow.Sequence,4_6,2023-11-02T16:35:46.455Z,,0,,,3939.496000047686,completion,,,,,false,,,,117221.40000009537,117221.20000004768,113264.857,113278.40000009537,113281.704,117232.569,8,400,,,
trial,html.Screen,4_7_0,2023-11-02T16:35:49.545Z,,0,1,,3078.930999999997,response,ISIC_0011215.JPG,12,ISIC_0070747.JPG,ISIC_0070747.JPG,false,0,keypress(z),500,120311.70000004768,120311.5,117215.147,117221.5,117232.569,120331.614,8,400,8,,ISIC_0011215.JPG
break,html.Screen,4_7_1,2023-11-02T16:35:49.546Z,,0,,,NaN,,,,,,false,,,,120312.5,120312.30000007153,,120311.90000009537,,120331.614,8,400,,,
break_continue,html.Screen,4_7_2,2023-11-02T16:35:49.546Z,,0,,,NaN,,,,,,false,,,,120312.70000004768,120312.60000002384,,120312.60000002384,,120331.614,8,400,,,
sequence,flow.Sequence,4_7,2023-11-02T16:35:49.546Z,,0,,,3080.0310000238387,completion,,,,,false,,,,120312.80000007153,120312.60000002384,117215.147,117221.40000009537,117232.569,120331.614,8,400,,,
trial,html.Screen,4_8_0,2023-11-02T16:35:52.592Z,,0,1,,3026.8859999999986,response,ISIC_6310591.JPG,7,ISIC_4770073.JPG,ISIC_6310591.JPG,false,1,keypress(m),500,123358.70000004768,123358.5,120314.919,120312.90000009537,120331.614,123364.85,8,400,9,,ISIC_4770073.JPG
break,html.Screen,4_8_1,2023-11-02T16:35:52.593Z,,0,,,NaN,,,,,,false,,,,123359.5,123359.40000009537,,123358.80000007153,,123364.85,8,400,,,
break_continue,html.Screen,4_8_2,2023-11-02T16:35:52.594Z,,0,,,NaN,,,,,,false,,,,123359.90000009537,123359.80000007153,,123359.70000004768,,123364.85,8,400,,,
sequence,flow.Sequence,4_8,2023-11-02T16:35:52.594Z,,0,,,3028.186000071524,completion,,,,,false,,,,123359.90000009537,123359.80000007153,120314.919,120312.80000007153,120331.614,123364.85,8,400,,,
trial,html.Screen,4_9_0,2023-11-02T16:35:55.860Z,,0,1,,3261.5500000953616,response,ISIC_0024624.JPG,10,ISIC_0063225.JPG,ISIC_0063225.JPG,false,0,keypress(z),500,126626.60000002384,126626.40000009537,123348.93,123360.10000002384,123364.85,126631.48,8,400,10,,ISIC_0024624.JPG
break,html.Screen,4_9_1,2023-11-02T16:35:55.861Z,,0,,,NaN,,,,,,false,,,,126627.60000002384,126627.40000009537,,126626.80000007153,,126631.48,8,400,,,
break_continue,html.Screen,4_9_2,2023-11-02T16:35:55.862Z,,0,,,NaN,,,,,,false,,,,126628,126627.90000009537,,126627.70000004768,,126631.48,8,400,,,
sequence,flow.Sequence,4_9,2023-11-02T16:35:55.862Z,,0,,,3263.0500000953616,completion,,,,,false,,,,126628,126627.90000009537,123348.93,123360.10000002384,123364.85,126631.48,8,400,,,
trial,html.Screen,4_10_0,2023-11-02T16:35:58.603Z,,0,1,,2737.220000047688,response,ISIC_7489564.JPG,5,ISIC_1177153.JPG,ISIC_7489564.JPG,false,1,keypress(m),500,129368.90000009537,129368.70000004768,126614.805,126628.10000002384,126631.48,129384.126,8,400,11,,ISIC_1177153.JPG
break,html.Screen,4_10_1,2023-11-02T16:35:58.604Z,,0,,,NaN,,,,,,false,,,,129370.5,129370.30000007153,,129369.20000004768,,129384.126,8,400,,,
break_continue,html.Screen,4_10_2,2023-11-02T16:35:58.604Z,,0,,,NaN,,,,,,false,,,,129370.80000007153,129370.70000004768,,129370.60000002384,,129384.126,8,400,,,
sequence,flow.Sequence,4_10,2023-11-02T16:35:58.605Z,,0,,,2739.220000047688,completion,,,,,false,,,,129371,129370.70000004768,126614.805,126628.10000002384,126631.48,129384.126,8,400,,,
trial,html.Screen,4_11_0,2023-11-02T16:36:01.908Z,,0,1,,3290.07400004768,response,ISIC_0055905.JPG,7,ISIC_3006279.JPG,ISIC_3006279.JPG,false,0,keypress(z),500,132674.40000009537,132674.20000004768,129365.428,129371.10000002384,129384.126,132682.769,8,400,12,,ISIC_0055905.JPG
break,html.Screen,4_11_1,2023-11-02T16:36:01.910Z,,0,,,NaN,,,,,,false,,,,132675.90000009537,132675.70000004768,,132674.60000002384,,132682.769,8,400,,,
break_continue,html.Screen,4_11_2,2023-11-02T16:36:01.910Z,,0,,,NaN,,,,,,false,,,,132676.30000007153,132676.20000004768,,132676,,132682.769,8,400,,,
sequence,flow.Sequence,4_11,2023-11-02T16:36:01.910Z,,0,,,3292.07400004768,completion,,,,,false,,,,132676.40000009537,132676.20000004768,129365.428,129371.10000002384,129384.126,132682.769,8,400,,,
trial,html.Screen,4_12_0,2023-11-02T16:36:05.593Z,,0,1,,3676.9310000476835,response,ISIC_0069175.JPG,8,ISIC_2054180.JPG,ISIC_0069175.JPG,false,1,keypress(m),500,136359.80000007153,136359.70000004768,132663.661,132676.60000002384,132682.769,136364.632,8,400,13,,ISIC_2054180.JPG
break,html.Screen,4_12_1,2023-11-02T16:36:05.594Z,,0,,,NaN,,,,,,false,,,,136360.60000002384,136360.40000009537,,136360,,136364.632,8,400,,,
break_continue,html.Screen,4_12_2,2023-11-02T16:36:05.594Z,,0,,,NaN,,,,,,false,,,,136360.90000009537,136360.80000007153,,136360.70000004768,,136364.632,8,400,,,
sequence,flow.Sequence,4_12,2023-11-02T16:36:05.595Z,,0,,,3678.0310000715253,completion,,,,,false,,,,136360.90000009537,136360.80000007153,132663.661,132676.5,132682.769,136364.632,8,400,,,
trial,html.Screen,4_13_0,2023-11-02T16:36:08.675Z,,0,1,,3075.9680000238295,response,ISIC_0028945.JPG,6,ISIC_8168598.JPG,ISIC_8168598.JPG,false,0,keypress(z),500,139440.90000009537,139440.60000002384,136358.615,136361,136364.632,139448.966,8,400,14,,ISIC_0028945.JPG
break,html.Screen,4_13_1,2023-11-02T16:36:08.676Z,,0,,,NaN,,,,,,false,,,,139442.20000004768,139442.10000002384,,139441.10000002384,,139448.966,8,400,,,
break_continue,html.Screen,4_13_2,2023-11-02T16:36:08.676Z,,0,,,NaN,,,,,,false,,,,139442.60000002384,139442.5,,139442.40000009537,,139448.966,8,400,,,
sequence,flow.Sequence,4_13,2023-11-02T16:36:08.676Z,,0,,,3077.8679999999877,completion,,,,,false,,,,139442.70000004768,139442.5,136358.615,136361,136364.632,139448.966,8,400,,,
trial,html.Screen,4_14_0,2023-11-02T16:36:11.431Z,,0,1,,2748.534000000014,response,ISIC_0031417.JPG,6,ISIC_0011508.JPG,ISIC_0011508.JPG,false,0,keypress(z),500,142197.70000004768,142197.5,139431.832,139442.80000007153,139448.966,142214.878,8,400,15,,ISIC_0031417.JPG
break,html.Screen,4_14_1,2023-11-02T16:36:11.433Z,,0,,,NaN,,,,,,false,,,,142199.40000009537,142199.10000002384,,142198,,142214.878,8,400,,,
break_continue,html.Screen,4_14_2,2023-11-02T16:36:11.433Z,,0,,,NaN,,,,,,false,,,,142199.70000004768,142199.60000002384,,142199.40000009537,,142214.878,8,400,,,
sequence,flow.Sequence,4_14,2023-11-02T16:36:11.433Z,,0,,,2750.634000023856,completion,,,,,false,,,,142199.80000007153,142199.60000002384,139431.832,139442.80000007153,139448.966,142214.878,8,400,,,
trial,html.Screen,4_15_0,2023-11-02T16:36:14.225Z,,0,1,,2776.4220000715286,response,ISIC_7024807.JPG,16,ISIC_0063930.JPG,ISIC_0063930.JPG,false,0,keypress(z),500,144991.70000004768,144991.30000007153,142197.614,142199.90000009537,142214.878,144997.832,8,400,16,,ISIC_7024807.JPG
break,html.Screen,4_15_1,2023-11-02T16:36:14.227Z,,0,,,NaN,,,,,,false,,,,144993.70000004768,144993.40000009537,,144992,,144997.832,8,400,,,
break_continue,html.Screen,4_15_2,2023-11-02T16:36:14.228Z,,0,,,NaN,,,,,,false,,,,144994.20000004768,144994.10000002384,,144993.90000009537,,144997.832,8,400,,,
sequence,flow.Sequence,4_15,2023-11-02T16:36:14.228Z,,0,,,2779.222000023845,completion,,,,,false,,,,144994.5,144994.10000002384,142197.614,142199.80000007153,142214.878,144997.832,8,400,,,
trial,html.Screen,4_16_0,2023-11-02T16:36:17.387Z,,0,1,,3155.768000023847,response,ISIC_2565154.JPG,10,ISIC_1323743.JPG,ISIC_1323743.JPG,false,0,keypress(z),500,148153.90000009537,148153.60000002384,144980.219,144994.60000002384,144997.832,148164.426,8,400,17,,ISIC_2565154.JPG
break,html.Screen,4_16_1,2023-11-02T16:36:17.388Z,,0,,,NaN,,,,,,false,,,,148154.70000004768,148154.5,,148154.10000002384,,148164.426,8,400,,,
break_continue,html.Screen,4_16_2,2023-11-02T16:36:17.389Z,,0,,,NaN,,,,,,false,,,,148155.10000002384,148155,,148154.80000007153,,148164.426,8,400,,,
sequence,flow.Sequence,4_16,2023-11-02T16:36:17.389Z,,0,,,3157.168000000005,completion,,,,,false,,,,148155.10000002384,148155,144980.219,144994.5,144997.832,148164.426,8,400,,,
trial,html.Screen,4_17_0,2023-11-02T16:36:19.940Z,,0,1,,2542.0739999999932,response,ISIC_0011516.JPG,9,ISIC_6118824.JPG,ISIC_0011516.JPG,false,1,keypress(m),500,150706.80000007153,150706.5,148141.631,148155.20000004768,148164.426,150715.218,8,400,18,,ISIC_6118824.JPG
break,html.Screen,4_17_1,2023-11-02T16:36:19.942Z,,0,,,NaN,,,,,,false,,,,150708.20000004768,150708,,150707,,150715.218,8,400,,,
break_continue,html.Screen,4_17_2,2023-11-02T16:36:19.942Z,,0,,,NaN,,,,,,false,,,,150708.60000002384,150708.5,,150708.30000007153,,150715.218,8,400,,,
sequence,flow.Sequence,4_17,2023-11-02T16:36:19.942Z,,0,,,2544.0739999999932,completion,,,,,false,,,,150708.60000002384,150708.5,148141.631,148155.20000004768,148164.426,150715.218,8,400,,,
trial,html.Screen,4_18_0,2023-11-02T16:36:22.924Z,,0,1,,2974.582000071532,response,ISIC_0010255.JPG,11,ISIC_0053686.JPG,ISIC_0053686.JPG,false,0,keypress(z),500,153690,153689.80000007153,150697.123,150708.80000007153,150715.218,153699.591,8,400,19,,ISIC_0010255.JPG
break,html.Screen,4_18_1,2023-11-02T16:36:22.925Z,,0,,,NaN,,,,,,false,,,,153691.5,153691.40000009537,,153690.30000007153,,153699.591,8,400,,,
break_continue,html.Screen,4_18_2,2023-11-02T16:36:22.925Z,,0,,,NaN,,,,,,false,,,,153691.80000007153,153691.80000007153,,153691.60000002384,,153699.591,8,400,,,
sequence,flow.Sequence,4_18,2023-11-02T16:36:22.926Z,,0,,,2976.582000071532,completion,,,,,false,,,,153691.90000009537,153691.80000007153,150697.123,150708.80000007153,150715.218,153699.591,8,400,,,
trial,html.Screen,4_19_0,2023-11-02T16:36:25.730Z,,0,1,,2796.8090000953816,response,ISIC_0523125.JPG,5,ISIC_0002057.JPG,ISIC_0523125.JPG,false,1,keypress(m),500,156496.80000007153,156496.40000009537,153681.181,153692,153699.591,156514.278,8,400,20,,ISIC_0002057.JPG
break,html.Screen,4_19_1,2023-11-02T16:36:25.732Z,,0,,,NaN,,,,,,false,,,,156498,156497.70000004768,,156497,,156514.278,8,400,,,
break_continue,html.Screen,4_19_2,2023-11-02T16:36:25.732Z,,0,,,NaN,,,,,,false,,,,156498.40000009537,156498.30000007153,,156498.10000002384,,156514.278,8,400,,,
sequence,flow.Sequence,4_19,2023-11-02T16:36:25.732Z,,0,,,2798.70900007154,completion,,,,,false,,,,156498.60000002384,156498.30000007153,153681.181,153692,153699.591,156514.278,8,400,,,
trial,html.Screen,4_20_0,2023-11-02T16:36:28.574Z,,0,1,,2825.722000000009,response,ISIC_4293419.JPG,9,ISIC_9012513.JPG,ISIC_4293419.JPG,false,1,keypress(m),500,159340.20000004768,159340,156496.678,156498.70000004768,156514.278,159348.241,8,400,21,,ISIC_9012513.JPG
break,html.Screen,4_20_1,2023-11-02T16:36:28.575Z,,0,,,NaN,,,,,,false,,,,159341.60000002384,159341.30000007153,,159340.40000009537,,159348.241,8,400,,,
break_continue,html.Screen,4_20_2,2023-11-02T16:36:28.576Z,,0,,,NaN,,,,,,false,,,,159341.90000009537,159341.80000007153,,159341.70000004768,,159348.241,8,400,,,
sequence,flow.Sequence,4_20,2023-11-02T16:36:28.576Z,,0,,,2827.5220000715344,completion,,,,,false,,,,159342,159341.80000007153,156496.678,156498.70000004768,156514.278,159348.241,8,400,,,
trial,html.Screen,4_21_0,2023-11-02T16:36:31.688Z,,0,1,,3105.9590000476746,response,ISIC_0033730.JPG,13,ISIC_2051278.JPG,ISIC_2051278.JPG,false,0,keypress(z),500,162454.40000009537,162454.20000004768,159324.307,159342.10000002384,159348.241,162514.233,8,400,22,,ISIC_0033730.JPG
break,html.Screen,4_21_1,2023-11-02T16:36:31.689Z,,0,,,NaN,,,,,,false,,,,162455.30000007153,162455,,162454.60000002384,,162514.233,8,400,,,
break_continue,html.Screen,4_21_2,2023-11-02T16:36:31.689Z,,0,,,NaN,,,,,,false,,,,162455.5,162455.5,,162455.30000007153,,162514.233,8,400,,,
sequence,flow.Sequence,4_21,2023-11-02T16:36:31.689Z,,0,,,3107.258999999991,completion,,,,,false,,,,162455.70000004768,162455.5,159324.307,159342.10000002384,159348.241,162514.233,8,400,,,
trial,html.Screen,4_22_0,2023-11-02T16:36:34.799Z,,0,1,,3050.7669999999925,response,ISIC_5397818.JPG,13,ISIC_0013365.JPG,ISIC_5397818.JPG,false,1,keypress(m),500,165565.20000004768,165565,162496.449,162455.90000009537,162514.233,165580.784,8,400,23,,ISIC_0013365.JPG
break,html.Screen,4_22_1,2023-11-02T16:36:34.800Z,,0,,,NaN,,,,,,false,,,,165566.60000002384,165566.40000009537,,165565.40000009537,,165580.784,8,400,,,
break_continue,html.Screen,4_22_2,2023-11-02T16:36:34.801Z,,0,,,NaN,,,,,,false,,,,165566.80000007153,165566.80000007153,,165566.70000004768,,165580.784,8,400,,,
sequence,flow.Sequence,4_22,2023-11-02T16:36:34.801Z,,0,,,3052.567000071518,completion,,,,,false,,,,165567,165566.80000007153,162496.449,162455.90000009537,162514.233,165580.784,8,400,,,
trial,html.Screen,4_23_0,2023-11-02T16:36:37.910Z,,0,1,,3095.6160000953532,response,ISIC_0000305.JPG,10,ISIC_0033369.JPG,ISIC_0033369.JPG,false,0,keypress(z),500,168676.70000004768,168676.40000009537,165564.335,165567,165580.784,168680.74,8,400,24,,ISIC_0000305.JPG
break,html.Screen,4_23_1,2023-11-02T16:36:37.912Z,,0,,,NaN,,,,,,false,,,,168678.10000002384,168677.90000009537,,168676.80000007153,,168680.74,8,400,,,
break_continue,html.Screen,4_23_2,2023-11-02T16:36:37.912Z,,0,,,NaN,,,,,,false,,,,168678.30000007153,168678.30000007153,,168678.10000002384,,168680.74,8,400,,,
sequence,flow.Sequence,4_23,2023-11-02T16:36:37.912Z,,0,,,3097.5160000715114,completion,,,,,false,,,,168678.40000009537,168678.30000007153,165564.335,165567,165580.784,168680.74,8,400,,,
trial,html.Screen,4_24_0,2023-11-02T16:36:40.587Z,,0,1,,2672.2600000000093,response,ISIC_0055136.JPG,7,ISIC_9029813.JPG,ISIC_0055136.JPG,false,1,keypress(m),500,171353.40000009537,171353,168662.812,168678.5,168680.74,171364.032,8,400,25,,ISIC_9029813.JPG
break,html.Screen,4_24_1,2023-11-02T16:36:40.588Z,,0,,,NaN,,,,,,false,,,,171354.20000004768,171354.10000002384,,171353.5,,171364.032,8,400,,,
break_continue,html.Screen,4_24_2,2023-11-02T16:36:40.588Z,,0,,,NaN,,,,,,false,,,,171354.5,171354.40000009537,,171354.30000007153,,171364.032,8,400,,,
sequence,flow.Sequence,4_24,2023-11-02T16:36:40.588Z,,0,,,2673.6600000953767,completion,,,,,false,,,,171354.60000002384,171354.40000009537,168662.812,168678.5,168680.74,171364.032,8,400,,,
trial,html.Screen,4_25_0,2023-11-02T16:36:43.796Z,,0,1,,3198.4679999999935,response,ISIC_0029209.JPG,10,ISIC_0002026.JPG,ISIC_0002026.JPG,false,0,keypress(z),500,174562.70000004768,174562.5,171340.887,171354.80000007153,171364.032,174581.316,8,400,26,,ISIC_0029209.JPG
break,html.Screen,4_25_1,2023-11-02T16:36:43.797Z,,0,,,NaN,,,,,,false,,,,174563.70000004768,174563.5,,174562.90000009537,,174581.316,8,400,,,
break_continue,html.Screen,4_25_2,2023-11-02T16:36:43.798Z,,0,,,NaN,,,,,,false,,,,174564.10000002384,174564,,174563.80000007153,,174581.316,8,400,,,
sequence,flow.Sequence,4_25,2023-11-02T16:36:43.798Z,,0,,,3199.9679999999935,completion,,,,,false,,,,174564.20000004768,174564,171340.887,171354.70000004768,171364.032,174581.316,8,400,,,
trial,html.Screen,4_26_0,2023-11-02T16:36:46.457Z,,0,1,,2641.7840000238502,response,ISIC_9462979.JPG,5,ISIC_0027798.JPG,ISIC_9462979.JPG,false,1,keypress(m),500,177223.30000007153,177223.10000002384,174563.303,174564.30000007153,174581.316,177231.622,8,400,27,,ISIC_0027798.JPG
break,html.Screen,4_26_1,2023-11-02T16:36:46.458Z,,0,,,NaN,,,,,,false,,,,177224.80000007153,177224.5,,177223.5,,177231.622,8,400,,,
break_continue,html.Screen,4_26_2,2023-11-02T16:36:46.459Z,,0,,,NaN,,,,,,false,,,,177225.10000002384,177225,,177224.90000009537,,177231.622,8,400,,,
sequence,flow.Sequence,4_26,2023-11-02T16:36:46.459Z,,0,,,2643.6840000000084,completion,,,,,false,,,,177225.20000004768,177225,174563.303,174564.30000007153,174581.316,177231.622,8,400,,,
trial,html.Screen,4_27_0,2023-11-02T16:36:49.456Z,,0,1,,2989.877999999997,response,ISIC_7292983.JPG,6,ISIC_0034032.JPG,ISIC_7292983.JPG,false,1,keypress(m),500,180221.90000009537,180221.5,177213.863,177225.30000007153,177231.622,180231.609,8,400,28,,ISIC_0034032.JPG
break,html.Screen,4_27_1,2023-11-02T16:36:49.458Z,,0,,,NaN,,,,,,false,,,,180224,180223.70000004768,,180222.20000004768,,180231.609,8,400,,,
break_continue,html.Screen,4_27_2,2023-11-02T16:36:49.458Z,,0,,,NaN,,,,,,false,,,,180224.40000009537,180224.30000007153,,180224.10000002384,,180231.609,8,400,,,
sequence,flow.Sequence,4_27,2023-11-02T16:36:49.458Z,,0,,,2992.6780000715225,completion,,,,,false,,,,180224.60000002384,180224.30000007153,177213.863,177225.20000004768,177231.622,180231.609,8,400,,,
trial,html.Screen,4_28_0,2023-11-02T16:36:52.219Z,,0,1,,2753.3910000000033,response,ISIC_6114646.JPG,9,ISIC_0010962.JPG,ISIC_0010962.JPG,false,0,keypress(z),500,182985.20000004768,182985,180212.879,180224.60000002384,180231.609,182997.178,8,400,29,,ISIC_6114646.JPG
break,html.Screen,4_28_1,2023-11-02T16:36:52.220Z,,0,,,NaN,,,,,,false,,,,182985.90000009537,182985.80000007153,,182985.40000009537,,182997.178,8,400,,,
break_continue,html.Screen,4_28_2,2023-11-02T16:36:52.220Z,,0,,,NaN,,,,,,false,,,,182986.20000004768,182986.20000004768,,182986.10000002384,,182997.178,8,400,,,
sequence,flow.Sequence,4_28,2023-11-02T16:36:52.220Z,,0,,,2754.591000047687,completion,,,,,false,,,,182986.30000007153,182986.20000004768,180212.879,180224.60000002384,180231.609,182997.178,8,400,,,
trial,html.Screen,4_29_0,2023-11-02T16:36:55.267Z,,0,1,,3036.222000095353,response,ISIC_0012904.JPG,12,ISIC_8101493.JPG,ISIC_8101493.JPG,false,0,keypress(z),500,186033.60000002384,186033.40000009537,182973.678,182986.40000009537,182997.178,186047.207,8,400,30,,ISIC_0012904.JPG
break,html.Screen,4_29_1,2023-11-02T16:36:55.269Z,,0,,,NaN,,,,,,false,,,,186034.90000009537,186034.70000004768,,186033.70000004768,,186047.207,8,400,,,
break_continue,html.Screen,4_29_2,2023-11-02T16:36:55.269Z,,0,,,NaN,,,,,,false,,,,186035.20000004768,186035.20000004768,,186035,,186047.207,8,400,,,
sequence,flow.Sequence,4_29,2023-11-02T16:36:55.269Z,,0,,,3038.0220000476693,completion,,,,,false,,,,186035.30000007153,186035.20000004768,182973.678,182986.40000009537,182997.178,186047.207,8,400,,,
trial,html.Screen,4_30_0,2023-11-02T16:36:58.231Z,,0,1,,2949.393000023847,response,ISIC_2757370.JPG,8,ISIC_0024752.JPG,ISIC_0024752.JPG,false,0,keypress(z),500,188996.90000009537,188996.60000002384,186029.782,186035.40000009537,186047.207,189014.128,8,400,31,,ISIC_2757370.JPG
break,html.Screen,4_30_1,2023-11-02T16:36:58.232Z,,0,,,NaN,,,,,,false,,,,188998.20000004768,188998,,188997,,189014.128,8,400,,,
break_continue,html.Screen,4_30_2,2023-11-02T16:36:58.232Z,,0,,,NaN,,,,,,false,,,,188998.40000009537,188998.40000009537,,188998.30000007153,,189014.128,8,400,,,
sequence,flow.Sequence,4_30,2023-11-02T16:36:58.232Z,,0,,,2951.1930000953726,completion,,,,,false,,,,188998.60000002384,188998.40000009537,186029.782,186035.30000007153,186047.207,189014.128,8,400,,,
trial,html.Screen,4_31_0,2023-11-02T16:37:01.227Z,,0,1,,2979.372000000003,response,ISIC_0073075.JPG,11,ISIC_0060827.JPG,ISIC_0060827.JPG,false,0,keypress(z),500,191993.80000007153,191993.5,188997.203,188998.60000002384,189014.128,191997.016,8,400,32,,ISIC_0073075.JPG
break,html.Screen,4_31_1,2023-11-02T16:37:01.229Z,,0,,,NaN,,,,,,false,,,,191995.40000009537,191995.20000004768,,191993.90000009537,,191997.016,8,400,,,
break_continue,html.Screen,4_31_2,2023-11-02T16:37:01.229Z,,0,,,NaN,,,,,,false,,,,191995.70000004768,191995.70000004768,,191995.5,,191997.016,8,400,,,
sequence,flow.Sequence,4_31,2023-11-02T16:37:01.230Z,,0,,,2981.5720000476867,completion,,,,,false,,,,191995.80000007153,191995.70000004768,188997.203,188998.60000002384,189014.128,191997.016,8,400,,,
trial,html.Screen,4_32_0,2023-11-02T16:37:03.924Z,,0,1,,2693.384000095364,response,ISIC_4216750.JPG,9,ISIC_1608727.JPG,ISIC_4216750.JPG,false,1,keypress(m),500,194690.80000007153,194690.40000009537,191980.872,191996,191997.016,194696.962,8,400,33,,ISIC_1608727.JPG
break,html.Screen,4_32_1,2023-11-02T16:37:03.927Z,,0,,,NaN,,,,,,false,,,,194693.10000002384,194692.70000004768,,194691.10000002384,,194696.962,8,400,,,
break_continue,html.Screen,4_32_2,2023-11-02T16:37:03.927Z,,0,,,NaN,,,,,,false,,,,194693.40000009537,194693.30000007153,,194693.20000004768,,194696.962,8,400,,,
sequence,flow.Sequence,4_32,2023-11-02T16:37:03.927Z,,0,,,2696.2840000715223,completion,,,,,false,,,,194693.60000002384,194693.30000007153,191980.872,191996,191997.016,194696.962,8,400,,,
trial,html.Screen,4_33_0,2023-11-02T16:37:06.459Z,,0,1,,2528.438000095368,response,ISIC_9140779.JPG,13,ISIC_0014133.JPG,ISIC_0014133.JPG,false,0,keypress(z),500,197225.70000004768,197225.40000009537,194680.381,194693.70000004768,194696.962,197230.245,8,400,34,,ISIC_9140779.JPG
break,html.Screen,4_33_1,2023-11-02T16:37:06.461Z,,0,,,NaN,,,,,,false,,,,197226.90000009537,197226.70000004768,,197225.80000007153,,197230.245,8,400,,,
break_continue,html.Screen,4_33_2,2023-11-02T16:37:06.461Z,,0,,,NaN,,,,,,false,,,,197227.20000004768,197227.10000002384,,197227,,197230.245,8,400,,,
sequence,flow.Sequence,4_33,2023-11-02T16:37:06.461Z,,0,,,2530.1380000238423,completion,,,,,false,,,,197227.30000007153,197227.10000002384,194680.381,194693.70000004768,194696.962,197230.245,8,400,,,
trial,html.Screen,4_34_0,2023-11-02T16:37:09.442Z,,0,1,,2978.0550000715302,response,ISIC_1035480.JPG,10,ISIC_8127394.JPG,ISIC_8127394.JPG,false,0,keypress(z),500,200208.5,200208.30000007153,197214.334,197227.40000009537,197230.245,200213.562,8,400,35,,ISIC_1035480.JPG
break,html.Screen,4_34_1,2023-11-02T16:37:09.444Z,,0,,,NaN,,,,,,false,,,,200210.20000004768,200210,,200208.70000004768,,200213.562,8,400,,,
break_continue,html.Screen,4_34_2,2023-11-02T16:37:09.444Z,,0,,,NaN,,,,,,false,,,,200210.5,200210.5,,200210.30000007153,,200213.562,8,400,,,
sequence,flow.Sequence,4_34,2023-11-02T16:37:09.444Z,,0,,,2980.2550000000047,completion,,,,,false,,,,200210.60000002384,200210.5,197214.334,197227.40000009537,197230.245,200213.562,8,400,,,
trial,html.Screen,4_35_0,2023-11-02T16:37:12.567Z,,0,1,,3119.4379999999946,response,ISIC_4851652.JPG,6,ISIC_8855790.JPG,ISIC_8855790.JPG,false,0,keypress(z),500,203333.20000004768,203333,200196.686,200210.70000004768,200213.562,203347.008,8,400,36,,ISIC_4851652.JPG
break,html.Screen,4_35_1,2023-11-02T16:37:12.569Z,,0,,,NaN,,,,,,false,,,,203334.90000009537,203334.70000004768,,203333.40000009537,,203347.008,8,400,,,
break_continue,html.Screen,4_35_2,2023-11-02T16:37:12.569Z,,0,,,NaN,,,,,,false,,,,203335.20000004768,203335.10000002384,,203335,,203347.008,8,400,,,
sequence,flow.Sequence,4_35,2023-11-02T16:37:12.569Z,,0,,,3121.5380000238365,completion,,,,,false,,,,203335.30000007153,203335.10000002384,200196.686,200210.70000004768,200213.562,203347.008,8,400,,,
trial,html.Screen,4_36_0,2023-11-02T16:37:17.266Z,,0,1,,4684.892000095366,response,ISIC_3701563.JPG,5,ISIC_0000375.JPG,ISIC_3701563.JPG,false,1,keypress(m),500,208032.20000004768,208031.90000009537,203331.163,203335.40000009537,203347.008,208046.783,8,400,37,,ISIC_0000375.JPG
break,html.Screen,4_36_1,2023-11-02T16:37:17.267Z,,0,,,NaN,,,,,,false,,,,208033,208032.80000007153,,208032.30000007153,,208046.783,8,400,,,
break_continue,html.Screen,4_36_2,2023-11-02T16:37:17.267Z,,0,,,NaN,,,,,,false,,,,208033.30000007153,208033.20000004768,,208033,,208046.783,8,400,,,
sequence,flow.Sequence,4_36,2023-11-02T16:37:17.267Z,,0,,,4686.192000047682,completion,,,,,false,,,,208033.40000009537,208033.20000004768,203331.163,203335.30000007153,203347.008,208046.783,8,400,,,
trial,html.Screen,4_37_0,2023-11-02T16:37:19.885Z,,0,1,,2603.217000000004,response,ISIC_0028041.JPG,6,ISIC_1334038.JPG,ISIC_1334038.JPG,false,0,keypress(z),500,210651.20000004768,210650,208030.353,208033.60000002384,208046.783,210665.494,8,400,38,,ISIC_0028041.JPG
break,html.Screen,4_37_1,2023-11-02T16:37:19.887Z,,0,,,NaN,,,,,,false,,,,210653.20000004768,210652.90000009537,,210651.60000002384,,210665.494,8,400,,,
break_continue,html.Screen,4_37_2,2023-11-02T16:37:19.887Z,,0,,,NaN,,,,,,false,,,,210653.5,210653.40000009537,,210653.30000007153,,210665.494,8,400,,,
sequence,flow.Sequence,4_37,2023-11-02T16:37:19.887Z,,0,,,2606.6170000953716,completion,,,,,false,,,,210653.60000002384,210653.40000009537,208030.353,208033.60000002384,208046.783,210665.494,8,400,,,
trial,html.Screen,4_38_0,2023-11-02T16:37:22.696Z,,0,1,,2796.2060000476777,response,ISIC_8023705.JPG,12,ISIC_6918995.JPG,ISIC_6918995.JPG,false,0,keypress(z),500,213462.10000002384,213461.70000004768,210647.617,210653.60000002384,210665.494,213479.977,8,400,39,,ISIC_8023705.JPG
break,html.Screen,4_38_1,2023-11-02T16:37:22.698Z,,0,,,NaN,,,,,,false,,,,213464.20000004768,213463.30000007153,,213462.30000007153,,213479.977,8,400,,,
break_continue,html.Screen,4_38_2,2023-11-02T16:37:22.698Z,,0,,,NaN,,,,,,false,,,,213464.80000007153,213464.70000004768,,213464.30000007153,,213479.977,8,400,,,
sequence,flow.Sequence,4_38,2023-11-02T16:37:22.699Z,,0,,,2799.2060000476777,completion,,,,,false,,,,213465,213464.70000004768,210647.617,210653.60000002384,210665.494,213479.977,8,400,,,
trial,html.Screen,4_39_0,2023-11-02T16:37:25.437Z,,0,1,,2723.5229999999865,response,ISIC_0058617.JPG,7,ISIC_0000429.JPG,ISIC_0058617.JPG,false,1,keypress(m),500,216203.70000004768,216203.5,213463.852,213465.10000002384,213479.977,216213.248,8,400,40,,ISIC_0000429.JPG
break,html.Screen,4_39_1,2023-11-02T16:37:25.440Z,,0,,,NaN,,,,,,false,,,,216205.90000009537,216205.70000004768,,216203.80000007153,,216213.248,8,400,,,
break_continue,html.Screen,4_39_2,2023-11-02T16:37:25.440Z,,0,,,NaN,,,,,,false,,,,216206.20000004768,216206.10000002384,,216206,,216213.248,8,400,,,
sequence,flow.Sequence,4_39,2023-11-02T16:37:25.440Z,,0,,,2726.1230000238284,completion,,,,,false,,,,216206.30000007153,216206.10000002384,213463.852,213465,213479.977,216213.248,8,400,,,
trial,html.Screen,4_40_0,2023-11-02T16:37:29.046Z,,0,1,,3599.0520000715333,response,ISIC_1247683.JPG,8,ISIC_0060341.JPG,ISIC_1247683.JPG,false,1,keypress(m),500,219812.5,219812.30000007153,216197.232,216206.30000007153,216213.248,219830.147,8,400,41,,ISIC_0060341.JPG
break,html.Screen,4_40_1,2023-11-02T16:37:29.047Z,,0,,,NaN,,,,,,false,,,,219813.30000007153,219813.20000004768,,219812.70000004768,,219830.147,8,400,,,
break_continue,html.Screen,4_40_2,2023-11-02T16:37:29.047Z,,0,,,NaN,,,,,,false,,,,219813.60000002384,219813.60000002384,,219813.40000009537,,219830.147,8,400,,,
sequence,flow.Sequence,4_40,2023-11-02T16:37:29.047Z,,0,,,3600.3520000238495,completion,,,,,false,,,,219813.70000004768,219813.60000002384,216197.232,216206.30000007153,216213.248,219830.147,8,400,,,
trial,html.Screen,4_41_0,2023-11-02T16:37:31.918Z,,0,1,,2854.1530000715284,response,ISIC_0061509.JPG,11,ISIC_7313348.JPG,ISIC_0061509.JPG,false,1,keypress(m),500,222684.5,222684.30000007153,219813.041,219813.80000007153,219830.147,222697.5,8,400,42,,ISIC_7313348.JPG
break,html.Screen,4_41_1,2023-11-02T16:37:31.919Z,,0,,,NaN,,,,,,false,,,,222685.40000009537,222685.30000007153,,222684.70000004768,,222697.5,8,400,,,
break_continue,html.Screen,4_41_2,2023-11-02T16:37:31.919Z,,0,,,NaN,,,,,,false,,,,222685.80000007153,222685.70000004768,,222685.5,,222697.5,8,400,,,
sequence,flow.Sequence,4_41,2023-11-02T16:37:31.920Z,,0,,,2855.5530000476865,completion,,,,,false,,,,222685.90000009537,222685.70000004768,219813.041,219813.80000007153,219830.147,222697.5,8,400,,,
trial,html.Screen,4_42_0,2023-11-02T16:37:34.636Z,,0,1,,2704.9000000953674,response,ISIC_0071740.JPG,5,ISIC_6488658.JPG,ISIC_0071740.JPG,false,1,keypress(m),500,225402.70000004768,225402.40000009537,222680.517,222686,222697.5,225415.991,8,400,43,,ISIC_6488658.JPG
break,html.Screen,4_42_1,2023-11-02T16:37:34.638Z,,0,,,NaN,,,,,,false,,,,225404,225403.80000007153,,225402.90000009537,,225415.991,8,400,,,
break_continue,html.Screen,4_42_2,2023-11-02T16:37:34.638Z,,0,,,NaN,,,,,,false,,,,225404.30000007153,225404.20000004768,,225404.10000002384,,225415.991,8,400,,,
sequence,flow.Sequence,4_42,2023-11-02T16:37:34.638Z,,0,,,2706.7000000476837,completion,,,,,false,,,,225404.40000009537,225404.20000004768,222680.517,222686,222697.5,225415.991,8,400,,,
trial,html.Screen,4_43_0,2023-11-02T16:37:37.304Z,,0,1,,2653.7090000476746,response,ISIC_0029343.JPG,8,ISIC_5307086.JPG,ISIC_5307086.JPG,false,0,keypress(z),500,228069.90000009537,228069.70000004768,225396.318,225404.5,225415.991,228080.439,8,400,44,,ISIC_0029343.JPG
break,html.Screen,4_43_1,2023-11-02T16:37:37.305Z,,0,,,NaN,,,,,,false,,,,228071.30000007153,228071.10000002384,,228070.10000002384,,228080.439,8,400,,,
break_continue,html.Screen,4_43_2,2023-11-02T16:37:37.305Z,,0,,,NaN,,,,,,false,,,,228071.60000002384,228071.5,,228071.40000009537,,228080.439,8,400,,,
sequence,flow.Sequence,4_43,2023-11-02T16:37:37.305Z,,0,,,2655.508999999991,completion,,,,,false,,,,228071.70000004768,228071.5,225396.318,225404.40000009537,225415.991,228080.439,8,400,,,
trial,html.Screen,4_44_0,2023-11-02T16:37:40.018Z,,0,1,,2703.2610000476707,response,ISIC_9301005.JPG,8,ISIC_0025039.JPG,ISIC_0025039.JPG,false,0,keypress(z),500,230783.80000007153,230783.70000004768,228063.917,228071.80000007153,228080.439,230798.1,8,400,45,,ISIC_9301005.JPG
break,html.Screen,4_44_1,2023-11-02T16:37:40.019Z,,0,,,NaN,,,,,,false,,,,230785.30000007153,230785.10000002384,,230784,,230798.1,8,400,,,
break_continue,html.Screen,4_44_2,2023-11-02T16:37:40.019Z,,0,,,NaN,,,,,,false,,,,230785.70000004768,230785.60000002384,,230785.40000009537,,230798.1,8,400,,,
sequence,flow.Sequence,4_44,2023-11-02T16:37:40.019Z,,0,,,2705.161000023829,completion,,,,,false,,,,230785.80000007153,230785.60000002384,228063.917,228071.80000007153,228080.439,230798.1,8,400,,,
trial,html.Screen,4_45_0,2023-11-02T16:37:43.389Z,,0,1,,3356.600000047678,response,ISIC_0000558.JPG,10,ISIC_8855102.JPG,ISIC_0000558.JPG,false,1,keypress(m),500,234154.90000009537,234154.70000004768,230779.692,230785.90000009537,230798.1,234163.084,8,400,46,,ISIC_8855102.JPG
break,html.Screen,4_45_1,2023-11-02T16:37:43.390Z,,0,,,NaN,,,,,,false,,,,234156.80000007153,234156.5,,234155.10000002384,,234163.084,8,400,,,
break_continue,html.Screen,4_45_2,2023-11-02T16:37:43.391Z,,0,,,NaN,,,,,,false,,,,234157,234157,,234156.90000009537,,234163.084,8,400,,,
sequence,flow.Sequence,4_45,2023-11-02T16:37:43.391Z,,0,,,3358.899999999994,completion,,,,,false,,,,234157.20000004768,234157,230779.692,230785.80000007153,230798.1,234163.084,8,400,,,
trial,html.Screen,4_46_0,2023-11-02T16:37:46.470Z,,0,1,,3073.4159999999974,response,ISIC_0057495.JPG,8,ISIC_0061475.JPG,ISIC_0057495.JPG,false,1,keypress(m),500,237236.70000004768,237236.5,234147.03,234157.30000007153,234163.084,237246.805,8,400,47,,ISIC_0061475.JPG
break,html.Screen,4_46_1,2023-11-02T16:37:46.471Z,,0,,,NaN,,,,,,false,,,,237237.5,237237.30000007153,,237236.90000009537,,237246.805,8,400,,,
break_continue,html.Screen,4_46_2,2023-11-02T16:37:46.472Z,,0,,,NaN,,,,,,false,,,,237238.20000004768,237238,,237237.60000002384,,237246.805,8,400,,,
sequence,flow.Sequence,4_46,2023-11-02T16:37:46.472Z,,0,,,3074.9159999999974,completion,,,,,false,,,,237238.30000007153,237238,234147.03,234157.20000004768,234163.084,237246.805,8,400,,,
trial,html.Screen,4_47_0,2023-11-02T16:37:49.886Z,,0,1,,3405.695000000007,response,ISIC_0064534.JPG,5,ISIC_0056572.JPG,ISIC_0056572.JPG,false,0,keypress(z),500,240652.70000004768,240652.5,237229.673,237238.30000007153,237246.805,240679.531,8,400,48,,ISIC_0064534.JPG
break,html.Screen,4_47_1,2023-11-02T16:37:49.887Z,,0,,,NaN,,,,,,false,,,,240653.5,240653.30000007153,,240652.90000009537,,240679.531,8,400,,,
break_continue,html.Screen,4_47_2,2023-11-02T16:37:49.887Z,,0,,,NaN,,,,,,false,,,,240653.70000004768,240653.60000002384,,240653.5,,240679.531,8,400,,,
sequence,flow.Sequence,4_47,2023-11-02T16:37:49.887Z,,0,,,3406.795000023849,completion,,,,,false,,,,240653.80000007153,240653.60000002384,237229.673,237238.30000007153,237246.805,240679.531,8,400,,,
trial,html.Screen,4_48_0,2023-11-02T16:37:52.885Z,,0,1,,2971.969000000012,response,ISIC_7240424.JPG,5,ISIC_0070747.JPG,ISIC_0070747.JPG,false,0,keypress(z),500,243651.70000004768,243651.5,240663.491,240654,240679.531,243663.124,8,400,49,,ISIC_7240424.JPG
break,html.Screen,4_48_1,2023-11-02T16:37:52.887Z,,0,,,NaN,,,,,,false,,,,243653.20000004768,243653,,243651.90000009537,,243663.124,8,400,,,
break_continue,html.Screen,4_48_2,2023-11-02T16:37:52.887Z,,0,,,NaN,,,,,,false,,,,243653.5,243653.40000009537,,243653.40000009537,,243663.124,8,400,,,
sequence,flow.Sequence,4_48,2023-11-02T16:37:52.887Z,,0,,,2973.8690000953793,completion,,,,,false,,,,243653.70000004768,243653.40000009537,240663.491,240653.90000009537,240679.531,243663.124,8,400,,,
trial,html.Screen,4_49_0,2023-11-02T16:37:55.755Z,,0,1,,2858.476000023831,response,ISIC_6323420.JPG,12,ISIC_0033630.JPG,ISIC_6323420.JPG,false,1,keypress(m),500,246522,246521.60000002384,243646.161,243653.70000004768,243663.124,246529.791,8,400,50,,ISIC_0033630.JPG
break,html.Screen,4_49_1,2023-11-02T16:38:05.748Z,,0,,,9999.87400000001,timeout,,,,,false,,,,256514.70000004768,256513.12,246513.111,246522.20000004768,246529.791,256529.665,8,400,,,
break_continue,html.Screen,4_49_2,2023-11-02T16:38:06.914Z,,0,,,1123.9350000238337,response,,,,,false,continue,keypress(Space),,257679.90000009537,257653.60000002384,256513.12,256514.90000009537,256529.665,257695.889,8,400,,,
sequence,flow.Sequence,4_49,2023-11-02T16:38:06.914Z,,0,,,13990.476000023831,completion,,,,,false,,,,257680.10000002384,257653.60000002384,243646.161,243653.70000004768,243663.124,257695.889,8,400,,,
trial,html.Screen,4_50_0,2023-11-02T16:38:09.796Z,,0,2,,2866.011000095372,response,ISIC_0016114.JPG,7,ISIC_0014150.JPG,ISIC_0016114.JPG,false,1,keypress(m),500,260562.10000002384,260561.90000009537,257679.573,257680.30000007153,257695.889,260579.148,8,400,1,,ISIC_0014150.JPG
break,html.Screen,4_50_1,2023-11-02T16:38:09.797Z,,0,,,NaN,,,,,,false,,,,260563.80000007153,260563.5,,260562.40000009537,,260579.148,8,400,,,
break_continue,html.Screen,4_50_2,2023-11-02T16:38:09.798Z,,0,,,NaN,,,,,,false,,,,260564.10000002384,260564,,260563.90000009537,,260579.148,8,400,,,
sequence,flow.Sequence,4_50,2023-11-02T16:38:09.798Z,,0,,,2868.1110000000044,completion,,,,,false,,,,260564.20000004768,260564,257679.573,257680.30000007153,257695.889,260579.148,8,400,,,
trial,html.Screen,4_51_0,2023-11-02T16:38:12.635Z,,0,2,,2821.752000095381,response,ISIC_7580408.JPG,6,ISIC_2202486.JPG,ISIC_7580408.JPG,false,1,keypress(m),500,263401.10000002384,263400.90000009537,260562.682,260564.30000007153,260579.148,263412.771,8,400,2,,ISIC_2202486.JPG
break,html.Screen,4_51_1,2023-11-02T16:38:12.636Z,,0,,,NaN,,,,,,false,,,,263402.5,263402.40000009537,,263401.3000000715,,263412.771,8,400,,,
break_continue,html.Screen,4_51_2,2023-11-02T16:38:12.636Z,,0,,,NaN,,,,,,false,,,,263402.90000009537,263402.8000000715,,263402.7000000477,,263412.771,8,400,,,
sequence,flow.Sequence,4_51,2023-11-02T16:38:12.637Z,,0,,,2823.652000071539,completion,,,,,false,,,,263403,263402.8000000715,260562.682,260564.30000007153,260579.148,263412.771,8,400,,,
trial,html.Screen,4_52_0,2023-11-02T16:38:16.373Z,,0,2,,3726.228999999992,response,ISIC_0027022.JPG,11,ISIC_8205879.JPG,ISIC_8205879.JPG,false,0,keypress(z),500,267139.2000000477,267139,263395.825,263403.10000002384,263412.771,267147.456,8,400,3,,ISIC_0027022.JPG
break,html.Screen,4_52_1,2023-11-02T16:38:16.374Z,,0,,,NaN,,,,,,false,,,,267140,267139.90000009537,,267139.40000009537,,267147.456,8,400,,,
break_continue,html.Screen,4_52_2,2023-11-02T16:38:16.374Z,,0,,,NaN,,,,,,false,,,,267140.2000000477,267140.2000000477,,267140.10000002384,,267147.456,8,400,,,
sequence,flow.Sequence,4_52,2023-11-02T16:38:16.374Z,,0,,,3727.429000047676,completion,,,,,false,,,,267140.40000009537,267140.2000000477,263395.825,263403.10000002384,263412.771,267147.456,8,400,,,
trial,html.Screen,4_53_0,2023-11-02T16:38:19.660Z,,0,2,,3278.6440000238363,response,ISIC_9596388.JPG,6,ISIC_0009666.JPG,ISIC_0009666.JPG,false,0,keypress(z),500,270426.3000000715,270426.10000002384,267129.604,267140.5,267147.456,270445.89,8,400,4,,ISIC_9596388.JPG
break,html.Screen,4_53_1,2023-11-02T16:38:19.661Z,,0,,,NaN,,,,,,false,,,,270427.10000002384,270427,,270426.5,,270445.89,8,400,,,
break_continue,html.Screen,4_53_2,2023-11-02T16:38:19.661Z,,0,,,NaN,,,,,,false,,,,270427.40000009537,270427.3000000715,,270427.3000000715,,270445.89,8,400,,,
sequence,flow.Sequence,4_53,2023-11-02T16:38:19.661Z,,0,,,3279.84400007152,completion,,,,,false,,,,270427.5,270427.3000000715,267129.604,267140.5,267147.456,270445.89,8,400,,,
trial,html.Screen,4_54_0,2023-11-02T16:38:22.932Z,,0,2,,3252.210000023828,response,ISIC_0025039.JPG,47,ISIC_0032970.JPG,ISIC_0032970.JPG,false,0,keypress(z),500,273698.40000009537,273698.10000002384,270429.012,270427.60000002384,270445.89,273713.124,8,400,5,,ISIC_0025039.JPG
break,html.Screen,4_54_1,2023-11-02T16:38:22.933Z,,0,,,NaN,,,,,,false,,,,273699.3000000715,273699.10000002384,,273698.60000002384,,273713.124,8,400,,,
break_continue,html.Screen,4_54_2,2023-11-02T16:38:22.933Z,,0,,,NaN,,,,,,false,,,,273699.60000002384,273699.5,,273699.40000009537,,273713.124,8,400,,,
sequence,flow.Sequence,4_54,2023-11-02T16:38:22.933Z,,0,,,3253.609999999986,completion,,,,,false,,,,273699.8000000715,273699.5,270429.012,270427.60000002384,270445.89,273713.124,8,400,,,
trial,html.Screen,4_55_0,2023-11-02T16:38:26.014Z,,0,2,,3067.576000047673,response,ISIC_7967397.JPG,8,ISIC_5961333.JPG,ISIC_7967397.JPG,false,1,keypress(m),500,276780.90000009537,276780.7000000477,273696.214,273699.8000000715,273713.124,276795.635,8,400,6,,ISIC_5961333.JPG
break,html.Screen,4_55_1,2023-11-02T16:38:26.015Z,,0,,,NaN,,,,,,false,,,,276781.8000000715,276781.5,,276781.10000002384,,276795.635,8,400,,,
break_continue,html.Screen,4_55_2,2023-11-02T16:38:26.016Z,,0,,,NaN,,,,,,false,,,,276782.10000002384,276782,,276781.90000009537,,276795.635,8,400,,,
sequence,flow.Sequence,4_55,2023-11-02T16:38:26.016Z,,0,,,3068.8759999999893,completion,,,,,false,,,,276782.2000000477,276782,273696.214,273699.8000000715,273713.124,276795.635,8,400,,,
trial,html.Screen,4_56_0,2023-11-02T16:38:28.805Z,,0,2,,2775.3649999999907,response,ISIC_0010648.JPG,5,ISIC_6809191.JPG,ISIC_0010648.JPG,false,1,keypress(m),500,279571.3000000715,279571,276778.9,276782.3000000715,276795.635,279579.78,8,400,7,,ISIC_6809191.JPG
break,html.Screen,4_56_1,2023-11-02T16:38:28.806Z,,0,,,NaN,,,,,,false,,,,279572.7000000477,279572.5,,279571.5,,279579.78,8,400,,,
break_continue,html.Screen,4_56_2,2023-11-02T16:38:28.807Z,,0,,,NaN,,,,,,false,,,,279573,279572.90000009537,,279572.8000000715,,279579.78,8,400,,,
sequence,flow.Sequence,4_56,2023-11-02T16:38:28.807Z,,0,,,2777.265000095358,completion,,,,,false,,,,279573.2000000477,279572.90000009537,276778.9,276782.2000000477,276795.635,279579.78,8,400,,,
trial,html.Screen,4_57_0,2023-11-02T16:38:32.354Z,,0,2,,3540.1200000953395,response,ISIC_0000518.JPG,11,ISIC_5852396.JPG,ISIC_0000518.JPG,false,1,keypress(m),500,283120.10000002384,283119.90000009537,279562.434,279573.2000000477,279579.78,283129.142,8,400,8,,ISIC_5852396.JPG
break,html.Screen,4_57_1,2023-11-02T16:38:32.356Z,,0,,,NaN,,,,,,false,,,,283121.90000009537,283121.7000000477,,283120.40000009537,,283129.142,8,400,,,
break_continue,html.Screen,4_57_2,2023-11-02T16:38:32.356Z,,0,,,NaN,,,,,,false,,,,283122.40000009537,283122.3000000715,,283122.10000002384,,283129.142,8,400,,,
sequence,flow.Sequence,4_57,2023-11-02T16:38:32.356Z,,0,,,3542.5200000714976,completion,,,,,false,,,,283122.5,283122.3000000715,279562.434,279573.2000000477,279579.78,283129.142,8,400,,,
trial,html.Screen,4_58_0,2023-11-02T16:38:35.404Z,,0,2,,3040.8580000000075,response,ISIC_2151727.JPG,9,ISIC_0013817.JPG,ISIC_0013817.JPG,false,0,keypress(z),500,286170.3000000715,286170,283115.462,283122.5,283129.142,286179.301,8,400,9,,ISIC_2151727.JPG
break,html.Screen,4_58_1,2023-11-02T16:38:35.405Z,,0,,,NaN,,,,,,false,,,,286171.2000000477,286171,,286170.40000009537,,286179.301,8,400,,,
break_continue,html.Screen,4_58_2,2023-11-02T16:38:35.405Z,,0,,,NaN,,,,,,false,,,,286171.60000002384,286171.5,,286171.3000000715,,286179.301,8,400,,,
sequence,flow.Sequence,4_58,2023-11-02T16:38:35.405Z,,0,,,3042.3580000000075,completion,,,,,false,,,,286171.7000000477,286171.5,283115.462,283122.5,283129.142,286179.301,8,400,,,
trial,html.Screen,4_59_0,2023-11-02T16:38:38.369Z,,0,2,,2955.59900009539,response,ISIC_0056546.JPG,7,ISIC_0028488.JPG,ISIC_0056546.JPG,false,1,keypress(m),500,289135.2000000477,289134.90000009537,286162.321,286171.8000000715,286179.301,289145.549,8,400,10,,ISIC_0028488.JPG
break,html.Screen,4_59_1,2023-11-02T16:38:38.370Z,,0,,,NaN,,,,,,false,,,,289136.7000000477,289136.5,,289135.40000009537,,289145.549,8,400,,,
break_continue,html.Screen,4_59_2,2023-11-02T16:38:38.371Z,,0,,,NaN,,,,,,false,,,,289137,289137,,289136.8000000715,,289145.549,8,400,,,
sequence,flow.Sequence,4_59,2023-11-02T16:38:38.371Z,,0,,,2957.6990000000224,completion,,,,,false,,,,289137.2000000477,289137,286162.321,286171.8000000715,286179.301,289145.549,8,400,,,
trial,html.Screen,4_60_0,2023-11-02T16:38:41.308Z,,0,2,,2928.451000000001,response,ISIC_0009918.JPG,5,ISIC_8796968.JPG,ISIC_8796968.JPG,false,0,keypress(z),500,292074.3000000715,292074,289129.003,289137.3000000715,289145.549,292113.672,8,400,11,,ISIC_0009918.JPG
break,html.Screen,4_60_1,2023-11-02T16:38:41.309Z,,0,,,NaN,,,,,,false,,,,292075.5,292075.2000000477,,292074.60000002384,,292113.672,8,400,,,
break_continue,html.Screen,4_60_2,2023-11-02T16:38:41.309Z,,0,,,NaN,,,,,,false,,,,292075.90000009537,292075.90000009537,,292075.7000000477,,292113.672,8,400,,,
sequence,flow.Sequence,4_60,2023-11-02T16:38:41.310Z,,0,,,2930.3510000953684,completion,,,,,false,,,,292076.10000002384,292075.90000009537,289129.003,289137.3000000715,289145.549,292113.672,8,400,,,
trial,html.Screen,4_61_0,2023-11-02T16:38:44.599Z,,0,2,,3251.9280000238214,response,ISIC_0061825.JPG,11,ISIC_0055513.JPG,ISIC_0061825.JPG,false,1,keypress(m),500,295365.8000000715,295365.60000002384,292095.721,292076.2000000477,292113.672,295380.887,8,400,12,,ISIC_0055513.JPG
break,html.Screen,4_61_1,2023-11-02T16:38:44.601Z,,0,,,NaN,,,,,,false,,,,295367.2000000477,295367.10000002384,,295366,,295380.887,8,400,,,
break_continue,html.Screen,4_61_2,2023-11-02T16:38:44.601Z,,0,,,NaN,,,,,,false,,,,295367.60000002384,295367.5,,295367.40000009537,,295380.887,8,400,,,
sequence,flow.Sequence,4_61,2023-11-02T16:38:44.601Z,,0,,,3253.8279999999795,completion,,,,,false,,,,295367.7000000477,295367.5,292095.721,292076.2000000477,292113.672,295380.887,8,400,,,
trial,html.Screen,4_62_0,2023-11-02T16:38:47.869Z,,0,2,,3254.5130000953795,response,ISIC_5599298.JPG,11,ISIC_0013517.JPG,ISIC_5599298.JPG,false,1,keypress(m),500,298635.90000009537,298635.40000009537,295362.962,295367.8000000715,295380.887,298648.367,8,400,13,,ISIC_0013517.JPG
break,html.Screen,4_62_1,2023-11-02T16:38:47.871Z,,0,,,NaN,,,,,,false,,,,298637.5,298637,,298636.10000002384,,298648.367,8,400,,,
break_continue,html.Screen,4_62_2,2023-11-02T16:38:47.871Z,,0,,,NaN,,,,,,false,,,,298637.90000009537,298637.8000000715,,298637.60000002384,,298648.367,8,400,,,
sequence,flow.Sequence,4_62,2023-11-02T16:38:47.872Z,,0,,,3256.9130000715377,completion,,,,,false,,,,298638,298637.8000000715,295362.962,295367.8000000715,295380.887,298648.367,8,400,,,
trial,html.Screen,4_63_0,2023-11-02T16:38:50.866Z,,0,2,,2983.6329999999725,response,ISIC_8892236.JPG,13,ISIC_1144024.JPG,ISIC_1144024.JPG,false,0,keypress(z),500,301632.2000000477,301632,298628.629,298638.3000000715,298648.367,301647.244,8,400,14,,ISIC_8892236.JPG
break,html.Screen,4_63_1,2023-11-02T16:38:50.867Z,,0,,,NaN,,,,,,false,,,,301633,301632.8000000715,,301632.3000000715,,301647.244,8,400,,,
break_continue,html.Screen,4_63_2,2023-11-02T16:38:50.867Z,,0,,,NaN,,,,,,false,,,,301633.3000000715,301633.3000000715,,301633.10000002384,,301647.244,8,400,,,
sequence,flow.Sequence,4_63,2023-11-02T16:38:50.867Z,,0,,,2984.933000071498,completion,,,,,false,,,,301633.40000009537,301633.3000000715,298628.629,298638.10000002384,298648.367,301647.244,8,400,,,
trial,html.Screen,4_64_0,2023-11-02T16:38:53.673Z,,0,2,,2791.6560000953614,response,ISIC_0055474.JPG,4,ISIC_7110531.JPG,ISIC_0055474.JPG,false,1,keypress(m),500,304439.10000002384,304438.90000009537,301628.415,301633.5,301647.244,304445.075,8,400,15,,ISIC_7110531.JPG
break,html.Screen,4_64_1,2023-11-02T16:38:53.674Z,,0,,,NaN,,,,,,false,,,,304440.10000002384,304439.90000009537,,304439.3000000715,,304445.075,8,400,,,
break_continue,html.Screen,4_64_2,2023-11-02T16:38:53.674Z,,0,,,NaN,,,,,,false,,,,304440.40000009537,304440.3000000715,,304440.2000000477,,304445.075,8,400,,,
sequence,flow.Sequence,4_64,2023-11-02T16:38:53.674Z,,0,,,2793.0560000715195,completion,,,,,false,,,,304440.5,304440.3000000715,301628.415,301633.5,301647.244,304445.075,8,400,,,
trial,html.Screen,4_65_0,2023-11-02T16:38:56.386Z,,0,2,,2706.9249999999884,response,ISIC_9828053.JPG,12,ISIC_1806179.JPG,ISIC_1806179.JPG,false,0,keypress(z),500,307152.40000009537,307152,304428.326,304440.60000002384,304445.075,307162.727,8,400,16,,ISIC_9828053.JPG
break,html.Screen,4_65_1,2023-11-02T16:38:56.388Z,,0,,,NaN,,,,,,false,,,,307154,307153.8000000715,,307152.7000000477,,307162.727,8,400,,,
break_continue,html.Screen,4_65_2,2023-11-02T16:38:56.388Z,,0,,,NaN,,,,,,false,,,,307154.5,307154.3000000715,,307154.2000000477,,307162.727,8,400,,,
sequence,flow.Sequence,4_65,2023-11-02T16:38:56.388Z,,0,,,2709.225000071514,completion,,,,,false,,,,307154.60000002384,307154.3000000715,304428.326,304440.5,304445.075,307162.727,8,400,,,
trial,html.Screen,4_66_0,2023-11-02T16:38:59.275Z,,0,2,,2878.7729999999865,response,ISIC_0030969.JPG,10,ISIC_6274085.JPG,ISIC_0030969.JPG,false,1,keypress(m),500,310041.8000000715,310041.5,307146.328,307154.7000000477,307162.727,310044.992,8,400,17,,ISIC_6274085.JPG
break,html.Screen,4_66_1,2023-11-02T16:38:59.277Z,,0,,,NaN,,,,,,false,,,,310043.10000002384,310042.90000009537,,310041.90000009537,,310044.992,8,400,,,
break_continue,html.Screen,4_66_2,2023-11-02T16:38:59.277Z,,0,,,NaN,,,,,,false,,,,310043.40000009537,310043.40000009537,,310043.3000000715,,310044.992,8,400,,,
sequence,flow.Sequence,4_66,2023-11-02T16:38:59.277Z,,0,,,2880.673000095354,completion,,,,,false,,,,310043.60000002384,310043.40000009537,307146.328,307154.7000000477,307162.727,310044.992,8,400,,,
trial,html.Screen,4_67_0,2023-11-02T16:39:01.909Z,,0,2,,2630.5079999999725,response,ISIC_3558747.JPG,10,ISIC_0059808.JPG,ISIC_0059808.JPG,false,0,keypress(z),500,312675.8000000715,312675.5,310028.521,310043.7000000477,310044.992,312678.26,8,400,18,,ISIC_3558747.JPG
break,html.Screen,4_67_1,2023-11-02T16:39:01.911Z,,0,,,NaN,,,,,,false,,,,312677.2000000477,312677,,312676.10000002384,,312678.26,8,400,,,
break_continue,html.Screen,4_67_2,2023-11-02T16:39:01.911Z,,0,,,NaN,,,,,,false,,,,312677.60000002384,312677.5,,312677.40000009537,,312678.26,8,400,,,
sequence,flow.Sequence,4_67,2023-11-02T16:39:01.911Z,,0,,,2632.5079999999725,completion,,,,,false,,,,312677.7000000477,312677.5,310028.521,310043.7000000477,310044.992,312678.26,8,400,,,
trial,html.Screen,4_68_0,2023-11-02T16:39:04.649Z,,0,2,,2737.0400000715163,response,ISIC_0032637.JPG,8,ISIC_0057028.JPG,ISIC_0032637.JPG,false,1,keypress(m),500,315415.60000002384,315415.3000000715,312661.952,312677.7000000477,312678.26,315428.82,8,400,19,,ISIC_0057028.JPG
break,html.Screen,4_68_1,2023-11-02T16:39:04.651Z,,0,,,NaN,,,,,,false,,,,315417.3000000715,315416.90000009537,,315415.7000000477,,315428.82,8,400,,,
break_continue,html.Screen,4_68_2,2023-11-02T16:39:04.652Z,,0,,,NaN,,,,,,false,,,,315417.8000000715,315417.7000000477,,315417.40000009537,,315428.82,8,400,,,
sequence,flow.Sequence,4_68,2023-11-02T16:39:04.652Z,,0,,,2739.4400000476744,completion,,,,,false,,,,315418.10000002384,315417.7000000477,312661.952,312677.7000000477,312678.26,315428.82,8,400,,,
trial,html.Screen,4_69_0,2023-11-02T16:39:07.584Z,,0,2,,2920.8800000476767,response,ISIC_0027234.JPG,11,ISIC_0006624.JPG,ISIC_0006624.JPG,false,0,keypress(z),500,318349.8000000715,318349.7000000477,315411.72,315418.10000002384,315428.82,318362.846,8,400,20,,ISIC_0027234.JPG
break,html.Screen,4_69_1,2023-11-02T16:39:07.585Z,,0,,,NaN,,,,,,false,,,,318351,318350.7000000477,,318350,,318362.846,8,400,,,
break_continue,html.Screen,4_69_2,2023-11-02T16:39:07.586Z,,0,,,NaN,,,,,,false,,,,318351.90000009537,318351.90000009537,,318351.60000002384,,318362.846,8,400,,,
sequence,flow.Sequence,4_69,2023-11-02T16:39:07.586Z,,0,,,2923.0800000953604,completion,,,,,false,,,,318352.2000000477,318351.90000009537,315411.72,315418.10000002384,315428.82,318362.846,8,400,,,
trial,html.Screen,4_70_0,2023-11-02T16:39:11.096Z,,0,2,,3499.554000095348,response,ISIC_0027072.JPG,11,ISIC_0032522.JPG,ISIC_0027072.JPG,false,1,keypress(m),500,321862.60000002384,321862.40000009537,318344.903,318352.3000000715,318362.846,321878.094,8,400,21,,ISIC_0032522.JPG
break,html.Screen,4_70_1,2023-11-02T16:39:11.098Z,,0,,,NaN,,,,,,false,,,,321864.8000000715,321864.60000002384,,321862.8000000715,,321878.094,8,400,,,
break_continue,html.Screen,4_70_2,2023-11-02T16:39:11.099Z,,0,,,NaN,,,,,,false,,,,321865.2000000477,321865,,321864.90000009537,,321878.094,8,400,,,
sequence,flow.Sequence,4_70,2023-11-02T16:39:11.099Z,,0,,,3502.1539999999804,completion,,,,,false,,,,321865.2000000477,321865,318344.903,318352.3000000715,318362.846,321878.094,8,400,,,
trial,html.Screen,4_71_0,2023-11-02T16:39:14.018Z,,0,2,,2906.206000071543,response,ISIC_4038618.JPG,7,ISIC_5179620.JPG,ISIC_4038618.JPG,false,1,keypress(m),500,324784.60000002384,324784.3000000715,321861.704,321865.40000009537,321878.094,324796.662,8,400,22,,ISIC_5179620.JPG
break,html.Screen,4_71_1,2023-11-02T16:39:14.019Z,,0,,,NaN,,,,,,false,,,,324785.60000002384,324785.40000009537,,324784.7000000477,,324796.662,8,400,,,
break_continue,html.Screen,4_71_2,2023-11-02T16:39:14.020Z,,0,,,NaN,,,,,,false,,,,324786.60000002384,324785.90000009537,,324785.8000000715,,324796.662,8,400,,,
sequence,flow.Sequence,4_71,2023-11-02T16:39:14.020Z,,0,,,2907.8060000953847,completion,,,,,false,,,,324786.7000000477,324785.90000009537,321861.704,321865.3000000715,321878.094,324796.662,8,400,,,
trial,html.Screen,4_72_0,2023-11-02T16:39:16.855Z,,0,2,,2824.0380000476725,response,ISIC_4183816.JPG,9,ISIC_0029868.JPG,ISIC_4183816.JPG,false,1,keypress(m),500,327620.90000009537,327620.7000000477,324778.04,324786.8000000715,324796.662,327628.021,8,400,23,,ISIC_0029868.JPG
break,html.Screen,4_72_1,2023-11-02T16:39:16.857Z,,0,,,NaN,,,,,,false,,,,327623.10000002384,327622.90000009537,,327621.10000002384,,327628.021,8,400,,,
break_continue,html.Screen,4_72_2,2023-11-02T16:39:16.857Z,,0,,,NaN,,,,,,false,,,,327623.5,327623.40000009537,,327623.3000000715,,327628.021,8,400,,,
sequence,flow.Sequence,4_72,2023-11-02T16:39:16.857Z,,0,,,2826.7380000953563,completion,,,,,false,,,,327623.60000002384,327623.40000009537,324778.04,324786.8000000715,324796.662,327628.021,8,400,,,
trial,html.Screen,4_73_0,2023-11-02T16:39:19.679Z,,0,2,,2816.679000047676,response,ISIC_0072582.JPG,7,ISIC_0032396.JPG,ISIC_0032396.JPG,false,0,keypress(z),500,330445,330444.7000000477,327611.653,327623.7000000477,327628.021,330461.609,8,400,24,,ISIC_0072582.JPG
break,html.Screen,4_73_1,2023-11-02T16:39:19.680Z,,0,,,NaN,,,,,,false,,,,330446.8000000715,330446.60000002384,,330445.10000002384,,330461.609,8,400,,,
break_continue,html.Screen,4_73_2,2023-11-02T16:39:19.681Z,,0,,,NaN,,,,,,false,,,,330447.10000002384,330447,,330446.90000009537,,330461.609,8,400,,,
sequence,flow.Sequence,4_73,2023-11-02T16:39:19.681Z,,0,,,2818.978999999992,completion,,,,,false,,,,330447.2000000477,330447,327611.653,327623.7000000477,327628.021,330461.609,8,400,,,
trial,html.Screen,4_74_0,2023-11-02T16:39:22.534Z,,0,2,,2838.7910000953707,response,ISIC_6174156.JPG,11,ISIC_1870415.JPG,ISIC_6174156.JPG,false,1,keypress(m),500,333300.7000000477,333300.40000009537,330444.966,330447.3000000715,330461.609,333311.267,8,400,25,,ISIC_1870415.JPG
break,html.Screen,4_74_1,2023-11-02T16:39:22.537Z,,0,,,NaN,,,,,,false,,,,333303,333301.90000009537,,333300.8000000715,,333311.267,8,400,,,
break_continue,html.Screen,4_74_2,2023-11-02T16:39:22.537Z,,0,,,NaN,,,,,,false,,,,333303.5,333303.40000009537,,333303.2000000477,,333311.267,8,400,,,
sequence,flow.Sequence,4_74,2023-11-02T16:39:22.537Z,,0,,,2841.7910000953707,completion,,,,,false,,,,333303.8000000715,333303.40000009537,330444.966,330447.3000000715,330461.609,333311.267,8,400,,,
trial,html.Screen,4_75_0,2023-11-02T16:39:25.149Z,,0,2,,2604.033000071533,response,ISIC_0032687.JPG,9,ISIC_7455460.JPG,ISIC_0032687.JPG,false,1,keypress(m),500,335915.5,335915.3000000715,333294.632,333303.90000009537,333311.267,335928.489,8,400,26,,ISIC_7455460.JPG
break,html.Screen,4_75_1,2023-11-02T16:39:25.152Z,,0,,,NaN,,,,,,false,,,,335918,335917.90000009537,,335915.7000000477,,335928.489,8,400,,,
break_continue,html.Screen,4_75_2,2023-11-02T16:39:25.152Z,,0,,,NaN,,,,,,false,,,,335918.40000009537,335918.3000000715,,335918.10000002384,,335928.489,8,400,,,
sequence,flow.Sequence,4_75,2023-11-02T16:39:25.152Z,,0,,,2607.033000071533,completion,,,,,false,,,,335918.5,335918.3000000715,333294.632,333303.90000009537,333311.267,335928.489,8,400,,,
trial,html.Screen,4_76_0,2023-11-02T16:39:28.038Z,,0,2,,2875.2110000476823,response,ISIC_0014395.JPG,12,ISIC_8931948.JPG,ISIC_8931948.JPG,false,0,keypress(z),500,338804.40000009537,338803.7000000477,335912.829,335919.5,335928.489,338812.214,8,400,27,,ISIC_0014395.JPG
break,html.Screen,4_76_1,2023-11-02T16:39:28.040Z,,0,,,NaN,,,,,,false,,,,338805.8000000715,338805.60000002384,,338804.90000009537,,338812.214,8,400,,,
break_continue,html.Screen,4_76_2,2023-11-02T16:39:28.040Z,,0,,,NaN,,,,,,false,,,,338806.2000000477,338806.10000002384,,338806,,338812.214,8,400,,,
sequence,flow.Sequence,4_76,2023-11-02T16:39:28.040Z,,0,,,2877.6110000238405,completion,,,,,false,,,,338806.40000009537,338806.10000002384,335912.829,335918.5,335928.489,338812.214,8,400,,,
trial,html.Screen,4_77_0,2023-11-02T16:39:30.704Z,,0,2,,2657.4860000477056,response,ISIC_0010581.JPG,11,ISIC_9944671.JPG,ISIC_0010581.JPG,false,1,keypress(m),500,341470,341469.7000000477,338794.58,338806.60000002384,338812.214,341477.784,8,400,28,,ISIC_9944671.JPG
break,html.Screen,4_77_1,2023-11-02T16:39:30.705Z,,0,,,NaN,,,,,,false,,,,341471.10000002384,341470.8000000715,,341470.2000000477,,341477.784,8,400,,,
break_continue,html.Screen,4_77_2,2023-11-02T16:39:30.705Z,,0,,,NaN,,,,,,false,,,,341471.5,341471.40000009537,,341471.3000000715,,341477.784,8,400,,,
sequence,flow.Sequence,4_77,2023-11-02T16:39:30.706Z,,0,,,2659.1860000953893,completion,,,,,false,,,,341472,341471.40000009537,338794.58,338806.5,338812.214,341477.784,8,400,,,
trial,html.Screen,4_78_0,2023-11-02T16:39:34.167Z,,0,2,,3455.6160000953823,response,ISIC_0000077.JPG,9,ISIC_3701563.JPG,ISIC_0000077.JPG,false,1,keypress(m),500,344933.8000000715,344933.40000009537,341461.523,341472.60000002384,341477.784,344947.138,8,400,29,,ISIC_3701563.JPG
break,html.Screen,4_78_1,2023-11-02T16:39:34.170Z,,0,,,NaN,,,,,,false,,,,344936.2000000477,344936.10000002384,,344934,,344947.138,8,400,,,
break_continue,html.Screen,4_78_2,2023-11-02T16:39:34.170Z,,0,,,NaN,,,,,,false,,,,344936.60000002384,344936.5,,344936.3000000715,,344947.138,8,400,,,
sequence,flow.Sequence,4_78,2023-11-02T16:39:34.170Z,,0,,,3458.716000000015,completion,,,,,false,,,,344936.7000000477,344936.5,341461.523,341472.5,341477.784,344947.138,8,400,,,
trial,html.Screen,4_79_0,2023-11-02T16:39:37.394Z,,0,2,,3212.4620000238647,response,ISIC_0009941.JPG,13,ISIC_1382677.JPG,ISIC_1382677.JPG,false,0,keypress(z),500,348159.90000009537,348159.60000002384,344928.715,344936.7000000477,344947.138,348184.421,8,400,30,,ISIC_0009941.JPG
break,html.Screen,4_79_1,2023-11-02T16:39:37.395Z,,0,,,NaN,,,,,,false,,,,348161.40000009537,348160.90000009537,,348160,,348184.421,8,400,,,
break_continue,html.Screen,4_79_2,2023-11-02T16:39:37.395Z,,0,,,NaN,,,,,,false,,,,348161.8000000715,348161.7000000477,,348161.5,,348184.421,8,400,,,
sequence,flow.Sequence,4_79,2023-11-02T16:39:37.396Z,,0,,,3214.5620000477065,completion,,,,,false,,,,348162.10000002384,348161.7000000477,344928.715,344936.7000000477,344947.138,348184.421,8,400,,,
trial,html.Screen,4_80_0,2023-11-02T16:39:39.915Z,,0,2,,2497.079000000027,response,ISIC_2863397.JPG,8,ISIC_0061705.JPG,ISIC_2863397.JPG,false,1,keypress(m),500,350681.7000000477,350681.5,348144.438,348162.2000000477,348184.421,350696.751,8,400,31,,ISIC_0061705.JPG
break,html.Screen,4_80_1,2023-11-02T16:39:39.917Z,,0,,,NaN,,,,,,false,,,,350683,350682.8000000715,,350681.8000000715,,350696.751,8,400,,,
break_continue,html.Screen,4_80_2,2023-11-02T16:39:39.917Z,,0,,,NaN,,,,,,false,,,,350683.3000000715,350683.3000000715,,350683.2000000477,,350696.751,8,400,,,
sequence,flow.Sequence,4_80,2023-11-02T16:39:39.917Z,,0,,,2498.8790000715526,completion,,,,,false,,,,350683.40000009537,350683.3000000715,348144.438,348162.2000000477,348184.421,350696.751,8,400,,,
trial,html.Screen,4_81_0,2023-11-02T16:39:42.885Z,,0,2,,2954.2490000000107,response,ISIC_0070679.JPG,8,ISIC_1440063.JPG,ISIC_1440063.JPG,false,0,keypress(z),500,353651.3000000715,353651,350678.319,350683.60000002384,350696.751,353660.887,8,400,32,,ISIC_0070679.JPG
break,html.Screen,4_81_1,2023-11-02T16:39:42.887Z,,0,,,NaN,,,,,,false,,,,353653.40000009537,353653,,353651.60000002384,,353660.887,8,400,,,
break_continue,html.Screen,4_81_2,2023-11-02T16:39:42.887Z,,0,,,NaN,,,,,,false,,,,353653.8000000715,353653.60000002384,,353653.5,,353660.887,8,400,,,
sequence,flow.Sequence,4_81,2023-11-02T16:39:42.888Z,,0,,,2956.8490000238526,completion,,,,,false,,,,353653.90000009537,353653.60000002384,350678.319,350683.5,350696.751,353660.887,8,400,,,
trial,html.Screen,4_82_0,2023-11-02T16:39:45.601Z,,0,2,,2705.313000047696,response,ISIC_1369273.JPG,10,ISIC_0015110.JPG,ISIC_0015110.JPG,false,0,keypress(z),500,356367,356366.2000000477,353644.22,353654.10000002384,353660.887,356378.79,8,400,33,,ISIC_1369273.JPG
break,html.Screen,4_82_1,2023-11-02T16:39:45.602Z,,0,,,NaN,,,,,,false,,,,356368.60000002384,356368.3000000715,,356367.2000000477,,356378.79,8,400,,,
break_continue,html.Screen,4_82_2,2023-11-02T16:39:45.603Z,,0,,,NaN,,,,,,false,,,,356368.8000000715,356368.8000000715,,356368.7000000477,,356378.79,8,400,,,
sequence,flow.Sequence,4_82,2023-11-02T16:39:45.603Z,,0,,,2707.9130000715377,completion,,,,,false,,,,356369,356368.8000000715,353644.22,353654,353660.887,356378.79,8,400,,,
trial,html.Screen,4_83_0,2023-11-02T16:39:48.235Z,,0,2,,2622.310000023863,response,ISIC_2064934.JPG,10,ISIC_0031553.JPG,ISIC_0031553.JPG,false,0,keypress(z),500,359001.40000009537,359001.10000002384,356360.933,356369,356378.79,359011.437,8,400,34,,ISIC_2064934.JPG
break,html.Screen,4_83_1,2023-11-02T16:39:48.236Z,,0,,,NaN,,,,,,false,,,,359002.3000000715,359002.10000002384,,359001.60000002384,,359011.437,8,400,,,
break_continue,html.Screen,4_83_2,2023-11-02T16:39:48.236Z,,0,,,NaN,,,,,,false,,,,359002.60000002384,359002.5,,359002.40000009537,,359011.437,8,400,,,
sequence,flow.Sequence,4_83,2023-11-02T16:39:48.236Z,,0,,,2623.710000000021,completion,,,,,false,,,,359002.7000000477,359002.5,356360.933,356369,356378.79,359011.437,8,400,,,
trial,html.Screen,4_84_0,2023-11-02T16:39:51.125Z,,0,2,,2880.0630000000237,response,ISIC_0030072.JPG,5,ISIC_7520843.JPG,ISIC_0030072.JPG,false,1,keypress(m),500,361891.7000000477,361891.5,358994.268,359002.8000000715,359011.437,361911.261,8,400,35,,ISIC_7520843.JPG
break,html.Screen,4_84_1,2023-11-02T16:39:51.127Z,,0,,,NaN,,,,,,false,,,,361893.2000000477,361892.3000000715,,361891.90000009537,,361911.261,8,400,,,
break_continue,html.Screen,4_84_2,2023-11-02T16:39:51.127Z,,0,,,NaN,,,,,,false,,,,361893.60000002384,361893.5,,361893.40000009537,,361911.261,8,400,,,
sequence,flow.Sequence,4_84,2023-11-02T16:39:51.127Z,,0,,,2882.0630000000237,completion,,,,,false,,,,361893.8000000715,361893.5,358994.268,359002.8000000715,359011.437,361911.261,8,400,,,
trial,html.Screen,4_85_0,2023-11-02T16:39:54.254Z,,0,2,,3108.8390000238433,response,ISIC_1912589.JPG,8,ISIC_0010255.JPG,ISIC_0010255.JPG,false,0,keypress(z),500,365020.3000000715,365020.10000002384,361894.149,361893.90000009537,361911.261,365028.702,8,400,36,,ISIC_1912589.JPG
break,html.Screen,4_85_1,2023-11-02T16:39:54.255Z,,0,,,NaN,,,,,,false,,,,365021.8000000715,365021.60000002384,,365020.5,,365028.702,8,400,,,
break_continue,html.Screen,4_85_2,2023-11-02T16:39:54.256Z,,0,,,NaN,,,,,,false,,,,365022.2000000477,365022.10000002384,,365022,,365028.702,8,400,,,
sequence,flow.Sequence,4_85,2023-11-02T16:39:54.256Z,,0,,,3110.8390000238433,completion,,,,,false,,,,365022.3000000715,365022.10000002384,361894.149,361893.8000000715,361911.261,365028.702,8,400,,,
trial,html.Screen,4_86_0,2023-11-02T16:39:57.509Z,,0,2,,3247.198000095377,response,ISIC_0030922.JPG,15,ISIC_0007416.JPG,ISIC_0007416.JPG,false,0,keypress(z),500,368276.10000002384,368275.90000009537,365011.103,365022.40000009537,365028.702,368299.549,8,400,37,,ISIC_0030922.JPG
break,html.Screen,4_86_1,2023-11-02T16:39:57.511Z,,0,,,NaN,,,,,,false,,,,368277.60000002384,368277.3000000715,,368276.2000000477,,368299.549,8,400,,,
break_continue,html.Screen,4_86_2,2023-11-02T16:39:57.511Z,,0,,,NaN,,,,,,false,,,,368277.90000009537,368277.8000000715,,368277.7000000477,,368299.549,8,400,,,
sequence,flow.Sequence,4_86,2023-11-02T16:39:57.511Z,,0,,,3249.0980000715354,completion,,,,,false,,,,368278.10000002384,368277.8000000715,365011.103,365022.3000000715,365028.702,368299.549,8,400,,,
trial,html.Screen,4_87_0,2023-11-02T16:40:01.391Z,,0,2,,3858.2510000715265,response,ISIC_0060486.JPG,12,ISIC_0032917.JPG,ISIC_0032917.JPG,false,0,keypress(z),500,372158,372157.8000000715,368260.808,368278.2000000477,368299.549,372177.9,8,400,38,,ISIC_0060486.JPG
break,html.Screen,4_87_1,2023-11-02T16:40:01.392Z,,0,,,NaN,,,,,,false,,,,372158.8000000715,372158.7000000477,,372158.2000000477,,372177.9,8,400,,,
break_continue,html.Screen,4_87_2,2023-11-02T16:40:01.392Z,,0,,,NaN,,,,,,false,,,,372159.10000002384,372159,,372158.90000009537,,372177.9,8,400,,,
sequence,flow.Sequence,4_87,2023-11-02T16:40:01.393Z,,0,,,3859.451000000001,completion,,,,,false,,,,372159.2000000477,372159,368260.808,368278.10000002384,368299.549,372177.9,8,400,,,
trial,html.Screen,4_88_0,2023-11-02T16:40:04.087Z,,0,2,,2675.0999999999767,response,ISIC_1002979.JPG,8,ISIC_0034156.JPG,ISIC_1002979.JPG,false,1,keypress(m),500,374853.3000000715,374853,372160.488,372159.3000000715,372177.9,374862.351,8,400,39,,ISIC_0034156.JPG
break,html.Screen,4_88_1,2023-11-02T16:40:04.088Z,,0,,,NaN,,,,,,false,,,,374854.3000000715,374854.10000002384,,374853.5,,374862.351,8,400,,,
break_continue,html.Screen,4_88_2,2023-11-02T16:40:04.088Z,,0,,,NaN,,,,,,false,,,,374854.60000002384,374854.5,,374854.40000009537,,374862.351,8,400,,,
sequence,flow.Sequence,4_88,2023-11-02T16:40:04.088Z,,0,,,2676.5999999999767,completion,,,,,false,,,,374854.8000000715,374854.5,372160.488,372159.2000000477,372177.9,374862.351,8,400,,,
trial,html.Screen,4_89_0,2023-11-02T16:40:07.869Z,,0,2,,3772.8490000476595,response,ISIC_0031005.JPG,10,ISIC_0011193.JPG,ISIC_0031005.JPG,false,1,keypress(m),500,378635.5,378635.2000000477,374844.816,374854.8000000715,374862.351,378643.911,8,400,40,,ISIC_0011193.JPG
break,html.Screen,4_89_1,2023-11-02T16:40:07.870Z,,0,,,NaN,,,,,,false,,,,378636.60000002384,378636.3000000715,,378635.7000000477,,378643.911,8,400,,,
break_continue,html.Screen,4_89_2,2023-11-02T16:40:07.870Z,,0,,,NaN,,,,,,false,,,,378637.10000002384,378636.90000009537,,378636.7000000477,,378643.911,8,400,,,
sequence,flow.Sequence,4_89,2023-11-02T16:40:07.871Z,,0,,,3774.549000095343,completion,,,,,false,,,,378637.2000000477,378636.90000009537,374844.816,374854.8000000715,374862.351,378643.911,8,400,,,
trial,html.Screen,4_90_0,2023-11-02T16:40:10.786Z,,0,2,,2908.3890000715037,response,ISIC_4462773.JPG,12,ISIC_2151846.JPG,ISIC_4462773.JPG,false,1,keypress(m),500,381552.5,381552.3000000715,378627.328,378637.3000000715,378643.911,381560.555,8,400,41,,ISIC_2151846.JPG
break,html.Screen,4_90_1,2023-11-02T16:40:10.787Z,,0,,,NaN,,,,,,false,,,,381554,381553.8000000715,,381552.7000000477,,381560.555,8,400,,,
break_continue,html.Screen,4_90_2,2023-11-02T16:40:10.788Z,,0,,,NaN,,,,,,false,,,,381554.40000009537,381554.3000000715,,381554.10000002384,,381560.555,8,400,,,
sequence,flow.Sequence,4_90,2023-11-02T16:40:10.788Z,,0,,,2910.3890000715037,completion,,,,,false,,,,381554.40000009537,381554.3000000715,378627.328,378637.3000000715,378643.911,381560.555,8,400,,,
trial,html.Screen,4_91_0,2023-11-02T16:40:13.579Z,,0,2,,2785.045000023849,response,ISIC_0073147.JPG,8,ISIC_0031045.JPG,ISIC_0073147.JPG,false,1,keypress(m),500,384345.8000000715,384345.60000002384,381543.874,381554.5,381560.555,384360.419,8,400,42,,ISIC_0031045.JPG
break,html.Screen,4_91_1,2023-11-02T16:40:13.581Z,,0,,,NaN,,,,,,false,,,,384347.8000000715,384347.7000000477,,384346,,384360.419,8,400,,,
break_continue,html.Screen,4_91_2,2023-11-02T16:40:13.582Z,,0,,,NaN,,,,,,false,,,,384348.10000002384,384348.10000002384,,384348,,384360.419,8,400,,,
sequence,flow.Sequence,4_91,2023-11-02T16:40:13.582Z,,0,,,2787.545000023849,completion,,,,,false,,,,384348.3000000715,384348.10000002384,381543.874,381554.5,381560.555,384360.419,8,400,,,
trial,html.Screen,4_92_0,2023-11-02T16:40:16.560Z,,0,2,,2965.981000095373,response,ISIC_0056110.JPG,5,ISIC_3031102.JPG,ISIC_3031102.JPG,false,0,keypress(z),500,387326.7000000477,387326.40000009537,384343.731,384348.40000009537,384360.419,387344.299,8,400,43,,ISIC_0056110.JPG
break,html.Screen,4_92_1,2023-11-02T16:40:16.561Z,,0,,,NaN,,,,,,false,,,,387328,387327.8000000715,,387326.8000000715,,387344.299,8,400,,,
break_continue,html.Screen,4_92_2,2023-11-02T16:40:16.562Z,,0,,,NaN,,,,,,false,,,,387328.40000009537,387328.3000000715,,387328.2000000477,,387344.299,8,400,,,
sequence,flow.Sequence,4_92,2023-11-02T16:40:16.562Z,,0,,,2967.881000071531,completion,,,,,false,,,,387328.5,387328.3000000715,384343.731,384348.3000000715,384360.419,387344.299,8,400,,,
trial,html.Screen,4_93_0,2023-11-02T16:40:19.492Z,,0,2,,2914.201000000001,response,ISIC_0031807.JPG,5,ISIC_9989485.JPG,ISIC_0031807.JPG,false,1,keypress(m),500,390258.7000000477,390258.5,387311.666,387328.60000002384,387344.299,390282.343,8,400,44,,ISIC_9989485.JPG
break,html.Screen,4_93_1,2023-11-02T16:40:19.494Z,,0,,,NaN,,,,,,false,,,,390260.40000009537,390260.10000002384,,390259,,390282.343,8,400,,,
break_continue,html.Screen,4_93_2,2023-11-02T16:40:19.494Z,,0,,,NaN,,,,,,false,,,,390260.8000000715,390260.7000000477,,390260.5,,390282.343,8,400,,,
sequence,flow.Sequence,4_93,2023-11-02T16:40:19.494Z,,0,,,2916.4010000476846,completion,,,,,false,,,,390260.90000009537,390260.7000000477,387311.666,387328.60000002384,387344.299,390282.343,8,400,,,
trial,html.Screen,4_94_0,2023-11-02T16:40:22.332Z,,0,2,,2816.1570000000065,response,ISIC_9197665.JPG,11,ISIC_5877410.JPG,ISIC_9197665.JPG,false,1,keypress(m),500,393098.7000000477,393098.5,390244.056,390261,390282.343,393111.485,8,400,45,,ISIC_5877410.JPG
break,html.Screen,4_94_1,2023-11-02T16:40:22.333Z,,0,,,NaN,,,,,,false,,,,393100,393099.8000000715,,393098.8000000715,,393111.485,8,400,,,
break_continue,html.Screen,4_94_2,2023-11-02T16:40:22.335Z,,0,,,NaN,,,,,,false,,,,393101.5,393101.40000009537,,393101.2000000477,,393111.485,8,400,,,
sequence,flow.Sequence,4_94,2023-11-02T16:40:22.335Z,,0,,,2819.057000095374,completion,,,,,false,,,,393101.60000002384,393101.40000009537,390244.056,390260.90000009537,390282.343,393111.485,8,400,,,
trial,html.Screen,4_95_0,2023-11-02T16:40:25.186Z,,0,2,,2840.9150000953814,response,ISIC_9874512.JPG,11,ISIC_0061566.JPG,ISIC_0061566.JPG,false,0,keypress(z),500,395952.8000000715,395952.40000009537,393093.582,393101.7000000477,393111.485,395960.147,8,400,46,,ISIC_9874512.JPG
break,html.Screen,4_95_1,2023-11-02T16:40:25.187Z,,0,,,NaN,,,,,,false,,,,395954,395953.7000000477,,395953,,395960.147,8,400,,,
break_continue,html.Screen,4_95_2,2023-11-02T16:40:25.188Z,,0,,,NaN,,,,,,false,,,,395954.7000000477,395954.5,,395954.3000000715,,395960.147,8,400,,,
sequence,flow.Sequence,4_95,2023-11-02T16:40:25.188Z,,0,,,2843.015000000014,completion,,,,,false,,,,395954.8000000715,395954.5,393093.582,393101.7000000477,393111.485,395960.147,8,400,,,
trial,html.Screen,4_96_0,2023-11-02T16:40:27.883Z,,0,2,,2689.5530000476865,response,ISIC_8799674.JPG,5,ISIC_0011198.JPG,ISIC_0011198.JPG,false,0,keypress(z),500,398650,398649.7000000477,395943.721,395955,395960.147,398661.323,8,400,47,,ISIC_8799674.JPG
break,html.Screen,4_96_1,2023-11-02T16:40:27.885Z,,0,,,NaN,,,,,,false,,,,398651.40000009537,398651.2000000477,,398650.2000000477,,398661.323,8,400,,,
break_continue,html.Screen,4_96_2,2023-11-02T16:40:27.885Z,,0,,,NaN,,,,,,false,,,,398651.7000000477,398651.7000000477,,398651.5,,398661.323,8,400,,,
sequence,flow.Sequence,4_96,2023-11-02T16:40:27.885Z,,0,,,2691.5530000476865,completion,,,,,false,,,,398651.8000000715,398651.7000000477,395943.721,395954.90000009537,395960.147,398661.323,8,400,,,
trial,html.Screen,4_97_0,2023-11-02T16:40:30.697Z,,0,2,,2802.5770000953926,response,ISIC_3824206.JPG,8,ISIC_0001102.JPG,ISIC_3824206.JPG,false,1,keypress(m),500,401464.10000002384,401463.90000009537,398644.363,398651.90000009537,398661.323,401477.911,8,400,48,,ISIC_0001102.JPG
break,html.Screen,4_97_1,2023-11-02T16:40:30.699Z,,0,,,NaN,,,,,,false,,,,401465.3000000715,401465.2000000477,,401464.2000000477,,401477.911,8,400,,,
break_continue,html.Screen,4_97_2,2023-11-02T16:40:30.699Z,,0,,,NaN,,,,,,false,,,,401465.7000000477,401465.60000002384,,401465.5,,401477.911,8,400,,,
sequence,flow.Sequence,4_97,2023-11-02T16:40:30.699Z,,0,,,2804.277000023867,completion,,,,,false,,,,401465.7000000477,401465.60000002384,398644.363,398651.8000000715,398661.323,401477.911,8,400,,,
trial,html.Screen,4_98_0,2023-11-02T16:40:33.407Z,,0,2,,2695.9890000953455,response,ISIC_4646815.JPG,8,ISIC_8796632.JPG,ISIC_8796632.JPG,false,0,keypress(z),500,404174,404173.90000009537,401460.15,401465.90000009537,401477.911,404193.656,8,400,49,,ISIC_4646815.JPG
break,html.Screen,4_98_1,2023-11-02T16:40:33.408Z,,0,,,NaN,,,,,,false,,,,404175,404174.8000000715,,404174.3000000715,,404193.656,8,400,,,
break_continue,html.Screen,4_98_2,2023-11-02T16:40:33.409Z,,0,,,NaN,,,,,,false,,,,404175.3000000715,404175.2000000477,,404175.10000002384,,404193.656,8,400,,,
sequence,flow.Sequence,4_98,2023-11-02T16:40:33.409Z,,0,,,2697.289000047662,completion,,,,,false,,,,404175.40000009537,404175.2000000477,401460.15,401465.8000000715,401477.911,404193.656,8,400,,,
trial,html.Screen,4_99_0,2023-11-02T16:40:37.717Z,,0,2,,4289.74400009535,response,ISIC_8737794.JPG,8,ISIC_9788545.JPG,ISIC_8737794.JPG,false,1,keypress(m),500,408483.60000002384,408483.40000009537,404177.025,404175.60000002384,404193.656,408493.384,8,400,50,,ISIC_9788545.JPG
break,html.Screen,4_99_1,2023-11-02T16:40:47.712Z,,0,,,10000.108000000007,timeout,,,,,false,,,,418478.60000002384,418476.931,408477.138,408483.8000000715,408493.384,418493.492,8,400,,,
break_continue,html.Screen,4_99_2,2023-11-02T16:41:10.435Z,,0,,,22661.108000023814,response,,,,,false,continue,keypress(Space),,441201.40000009537,441154.60000002384,418476.931,418478.90000009537,418493.492,441226.046,8,400,,,
sequence,flow.Sequence,4_99,2023-11-02T16:41:10.435Z,,0,,,36960.944000023825,completion,,,,,false,,,,441201.60000002384,441154.60000002384,404177.025,404175.5,404193.656,441226.046,8,400,,,
trial,html.Screen,4_100_0,2023-11-02T16:41:14.122Z,,0,3,,3662.454000000027,response,ISIC_0062639.JPG,10,ISIC_4022621.JPG,ISIC_4022621.JPG,false,0,keypress(z),500,444888.7000000477,444888.5,441209.354,441201.7000000477,441226.046,444892.643,8,400,1,,ISIC_0062639.JPG
break,html.Screen,4_100_1,2023-11-02T16:41:14.124Z,,0,,,NaN,,,,,,false,,,,444890.10000002384,444889.90000009537,,444888.90000009537,,444892.643,8,400,,,
break_continue,html.Screen,4_100_2,2023-11-02T16:41:14.124Z,,0,,,NaN,,,,,,false,,,,444890.40000009537,444890.3000000715,,444890.2000000477,,444892.643,8,400,,,
sequence,flow.Sequence,4_100,2023-11-02T16:41:14.124Z,,0,,,3664.2540000715526,completion,,,,,false,,,,444890.5,444890.3000000715,441209.354,441201.60000002384,441226.046,444892.643,8,400,,,
trial,html.Screen,4_101_0,2023-11-02T16:41:16.883Z,,0,3,,2756.6570000715437,response,ISIC_0024585.JPG,9,ISIC_0055003.JPG,ISIC_0055003.JPG,false,0,keypress(z),500,447649.60000002384,447649.3000000715,444872.568,444890.60000002384,444892.643,447659.551,8,400,2,,ISIC_0024585.JPG
break,html.Screen,4_101_1,2023-11-02T16:41:16.885Z,,0,,,NaN,,,,,,false,,,,447651,447650.8000000715,,447649.8000000715,,447659.551,8,400,,,
break_continue,html.Screen,4_101_2,2023-11-02T16:41:16.885Z,,0,,,NaN,,,,,,false,,,,447651.3000000715,447651.2000000477,,447651,,447659.551,8,400,,,
sequence,flow.Sequence,4_101,2023-11-02T16:41:16.885Z,,0,,,2758.557000047702,completion,,,,,false,,,,447651.40000009537,447651.2000000477,444872.568,444890.60000002384,444892.643,447659.551,8,400,,,
trial,html.Screen,4_102_0,2023-11-02T16:41:19.577Z,,0,3,,2683.4490000000224,response,ISIC_1690909.JPG,11,ISIC_0024911.JPG,ISIC_1690909.JPG,false,1,keypress(m),500,450343.2000000477,450343,447646.666,447651.40000009537,447659.551,450359.597,8,400,3,,ISIC_0024911.JPG
break,html.Screen,4_102_1,2023-11-02T16:41:19.578Z,,0,,,NaN,,,,,,false,,,,450344.5,450344.40000009537,,450343.40000009537,,450359.597,8,400,,,
break_continue,html.Screen,4_102_2,2023-11-02T16:41:19.578Z,,0,,,NaN,,,,,,false,,,,450344.90000009537,450344.8000000715,,450344.7000000477,,450359.597,8,400,,,
sequence,flow.Sequence,4_102,2023-11-02T16:41:19.579Z,,0,,,2685.249000071548,completion,,,,,false,,,,450345,450344.8000000715,447646.666,447651.40000009537,447659.551,450359.597,8,400,,,
trial,html.Screen,4_103_0,2023-11-02T16:41:22.096Z,,0,3,,2502.902999999991,response,ISIC_2732573.JPG,6,ISIC_0064625.JPG,ISIC_0064625.JPG,false,0,keypress(z),500,452862.7000000477,452862.5,450341.335,450345.10000002384,450359.597,452876.503,8,400,4,,ISIC_2732573.JPG
break,html.Screen,4_103_1,2023-11-02T16:41:22.098Z,,0,,,NaN,,,,,,false,,,,452864.2000000477,452864,,452862.90000009537,,452876.503,8,400,,,
break_continue,html.Screen,4_103_2,2023-11-02T16:41:22.098Z,,0,,,NaN,,,,,,false,,,,452864.5,452864.40000009537,,452864.3000000715,,452876.503,8,400,,,
sequence,flow.Sequence,4_103,2023-11-02T16:41:22.098Z,,0,,,2504.8030000953586,completion,,,,,false,,,,452864.60000002384,452864.40000009537,450341.335,450345,450359.597,452876.503,8,400,,,
trial,html.Screen,4_104_0,2023-11-02T16:41:24.885Z,,0,3,,2775.097000023816,response,ISIC_9317929.JPG,12,ISIC_0069970.JPG,ISIC_9317929.JPG,false,1,keypress(m),500,455651.90000009537,455651.60000002384,452848.386,452864.7000000477,452876.503,455660.148,8,400,5,,ISIC_0069970.JPG
break,html.Screen,4_104_1,2023-11-02T16:41:24.886Z,,0,,,NaN,,,,,,false,,,,455652.7000000477,455652.5,,455652.10000002384,,455660.148,8,400,,,
break_continue,html.Screen,4_104_2,2023-11-02T16:41:24.887Z,,0,,,NaN,,,,,,false,,,,455653,455652.90000009537,,455652.8000000715,,455660.148,8,400,,,
sequence,flow.Sequence,4_104,2023-11-02T16:41:24.887Z,,0,,,2776.3970000953414,completion,,,,,false,,,,455653.2000000477,455652.90000009537,452848.386,452864.7000000477,452876.503,455660.148,8,400,,,
trial,html.Screen,4_105_0,2023-11-02T16:41:27.553Z,,0,3,,2658.752000095381,response,ISIC_3432650.JPG,8,ISIC_0033954.JPG,ISIC_3432650.JPG,false,1,keypress(m),500,458319.10000002384,458318.90000009537,455642.11,455653.2000000477,455660.148,458326.834,8,400,6,,ISIC_0033954.JPG
break,html.Screen,4_105_1,2023-11-02T16:41:27.554Z,,0,,,NaN,,,,,,false,,,,458320.40000009537,458320.2000000477,,458319.2000000477,,458326.834,8,400,,,
break_continue,html.Screen,4_105_2,2023-11-02T16:41:27.554Z,,0,,,NaN,,,,,,false,,,,458320.7000000477,458320.60000002384,,458320.5,,458326.834,8,400,,,
sequence,flow.Sequence,4_105,2023-11-02T16:41:27.554Z,,0,,,2660.4520000238554,completion,,,,,false,,,,458320.8000000715,458320.60000002384,455642.11,455653.2000000477,455660.148,458326.834,8,400,,,
trial,html.Screen,4_106_0,2023-11-02T16:41:30.827Z,,0,3,,3266.466000071552,response,ISIC_0059390.JPG,6,ISIC_0072001.JPG,ISIC_0072001.JPG,false,0,keypress(z),500,461593.5,461593.3000000715,458315.565,458320.90000009537,458326.834,461609.103,8,400,7,,ISIC_0059390.JPG
break,html.Screen,4_106_1,2023-11-02T16:41:30.828Z,,0,,,NaN,,,,,,false,,,,461594.3000000715,461594.10000002384,,461593.60000002384,,461609.103,8,400,,,
break_continue,html.Screen,4_106_2,2023-11-02T16:41:30.828Z,,0,,,NaN,,,,,,false,,,,461594.5,461594.5,,461594.40000009537,,461609.103,8,400,,,
sequence,flow.Sequence,4_106,2023-11-02T16:41:30.828Z,,0,,,3267.6660000000265,completion,,,,,false,,,,461594.7000000477,461594.5,458315.565,458320.90000009537,458326.834,461609.103,8,400,,,
trial,html.Screen,4_107_0,2023-11-02T16:41:33.429Z,,0,3,,2585.896999999997,response,ISIC_0028326.JPG,6,ISIC_0067390.JPG,ISIC_0067390.JPG,false,0,keypress(z),500,464195.2000000477,464195,461590.457,461594.8000000715,461609.103,464208.981,8,400,8,,ISIC_0028326.JPG
break,html.Screen,4_107_1,2023-11-02T16:41:33.430Z,,0,,,NaN,,,,,,false,,,,464196.60000002384,464196.40000009537,,464195.40000009537,,464208.981,8,400,,,
break_continue,html.Screen,4_107_2,2023-11-02T16:41:33.430Z,,0,,,NaN,,,,,,false,,,,464197,464196.90000009537,,464196.8000000715,,464208.981,8,400,,,
sequence,flow.Sequence,4_107,2023-11-02T16:41:33.431Z,,0,,,2587.7970000953646,completion,,,,,false,,,,464197.10000002384,464196.90000009537,461590.457,461594.7000000477,461609.103,464208.981,8,400,,,
trial,html.Screen,4_108_0,2023-11-02T16:41:36.058Z,,0,3,,2614.9190000953386,response,ISIC_0014108.JPG,11,ISIC_0027378.JPG,ISIC_0014108.JPG,false,1,keypress(m),500,466824.2000000477,466823.90000009537,464184.221,464197.2000000477,464208.981,466842.947,8,400,9,,ISIC_0027378.JPG
break,html.Screen,4_108_1,2023-11-02T16:41:36.059Z,,0,,,NaN,,,,,,false,,,,466825.10000002384,466824.90000009537,,466824.40000009537,,466842.947,8,400,,,
break_continue,html.Screen,4_108_2,2023-11-02T16:41:36.059Z,,0,,,NaN,,,,,,false,,,,466825.5,466825.40000009537,,466825.2000000477,,466842.947,8,400,,,
sequence,flow.Sequence,4_108,2023-11-02T16:41:36.059Z,,0,,,2616.4190000953386,completion,,,,,false,,,,466825.7000000477,466825.40000009537,464184.221,464197.10000002384,464208.981,466842.947,8,400,,,
trial,html.Screen,4_109_0,2023-11-02T16:41:38.672Z,,0,3,,2594.85300007154,response,ISIC_7515794.JPG,9,ISIC_0002041.JPG,ISIC_0002041.JPG,false,0,keypress(z),500,469438.10000002384,469437.8000000715,466823.787,466825.8000000715,466842.947,469461.667,8,400,10,,ISIC_7515794.JPG
break,html.Screen,4_109_1,2023-11-02T16:41:38.672Z,,0,,,NaN,,,,,,false,,,,469438.8000000715,469438.7000000477,,469438.2000000477,,469461.667,8,400,,,
break_continue,html.Screen,4_109_2,2023-11-02T16:41:38.673Z,,0,,,NaN,,,,,,false,,,,469439.2000000477,469439.10000002384,,469439,,469461.667,8,400,,,
sequence,flow.Sequence,4_109,2023-11-02T16:41:38.673Z,,0,,,2596.1530000238563,completion,,,,,false,,,,469439.2000000477,469439.10000002384,466823.787,466825.7000000477,466842.947,469461.667,8,400,,,
trial,html.Screen,4_110_0,2023-11-02T16:41:42.089Z,,0,3,,3393.033000047668,response,ISIC_9322551.JPG,6,ISIC_8255784.JPG,ISIC_9322551.JPG,false,1,keypress(m),500,472855.2000000477,472854.7000000477,469429.928,469439.40000009537,469461.667,472876.182,8,400,11,,ISIC_8255784.JPG
break,html.Screen,4_110_1,2023-11-02T16:41:42.090Z,,0,,,NaN,,,,,,false,,,,472856.60000002384,472856.3000000715,,472855.5,,472876.182,8,400,,,
break_continue,html.Screen,4_110_2,2023-11-02T16:41:42.091Z,,0,,,NaN,,,,,,false,,,,472857.3000000715,472857.10000002384,,472856.8000000715,,472876.182,8,400,,,
sequence,flow.Sequence,4_110,2023-11-02T16:41:42.091Z,,0,,,3395.433000023826,completion,,,,,false,,,,472857.40000009537,472857.10000002384,469429.928,469439.3000000715,469461.667,472876.182,8,400,,,
trial,html.Screen,4_111_0,2023-11-02T16:41:45.332Z,,0,3,,3222.3180000000284,response,ISIC_4070687.JPG,6,ISIC_0055241.JPG,ISIC_0055241.JPG,false,0,keypress(z),500,476098.90000009537,476098.5,472857.044,472857.5,472876.182,476109.096,8,400,12,,ISIC_4070687.JPG
break,html.Screen,4_111_1,2023-11-02T16:41:45.334Z,,0,,,NaN,,,,,,false,,,,476100.2000000477,476100,,476099,,476109.096,8,400,,,
break_continue,html.Screen,4_111_2,2023-11-02T16:41:45.334Z,,0,,,NaN,,,,,,false,,,,476100.60000002384,476100.40000009537,,476100.3000000715,,476109.096,8,400,,,
sequence,flow.Sequence,4_111,2023-11-02T16:41:45.334Z,,0,,,3224.218000095396,completion,,,,,false,,,,476100.7000000477,476100.40000009537,472857.044,472857.5,472876.182,476109.096,8,400,,,
trial,html.Screen,4_112_0,2023-11-02T16:41:48.184Z,,0,3,,2841.604000047664,response,ISIC_9134453.JPG,7,ISIC_0025428.JPG,ISIC_0025428.JPG,false,0,keypress(z),500,478950.90000009537,478950.7000000477,476081.297,476100.8000000715,476109.096,478959.053,8,400,13,,ISIC_9134453.JPG
break,html.Screen,4_112_1,2023-11-02T16:41:48.186Z,,0,,,NaN,,,,,,false,,,,478952.3000000715,478952.10000002384,,478951.2000000477,,478959.053,8,400,,,
break_continue,html.Screen,4_112_2,2023-11-02T16:41:48.186Z,,0,,,NaN,,,,,,false,,,,478952.60000002384,478952.5,,478952.3000000715,,478959.053,8,400,,,
sequence,flow.Sequence,4_112,2023-11-02T16:41:48.186Z,,0,,,2843.4039999999804,completion,,,,,false,,,,478952.7000000477,478952.5,476081.297,476100.7000000477,476109.096,478959.053,8,400,,,
trial,html.Screen,4_113_0,2023-11-02T16:41:51.230Z,,0,3,,3037.1470000476693,response,ISIC_0013636.JPG,15,ISIC_3751172.JPG,ISIC_0013636.JPG,false,1,keypress(m),500,481996.5,481996.2000000477,478932.189,478952.8000000715,478959.053,482009.343,8,400,14,,ISIC_3751172.JPG
break,html.Screen,4_113_1,2023-11-02T16:41:51.231Z,,0,,,NaN,,,,,,false,,,,481997.8000000715,481997.60000002384,,481996.7000000477,,482009.343,8,400,,,
break_continue,html.Screen,4_113_2,2023-11-02T16:41:51.232Z,,0,,,NaN,,,,,,false,,,,481998.10000002384,481998.10000002384,,481998,,482009.343,8,400,,,
sequence,flow.Sequence,4_113,2023-11-02T16:41:51.232Z,,0,,,3039.0470000238274,completion,,,,,false,,,,481998.2000000477,481998.10000002384,478932.189,478952.7000000477,478959.053,482009.343,8,400,,,
trial,html.Screen,4_114_0,2023-11-02T16:41:53.827Z,,0,3,,2583.457000071532,response,ISIC_3541663.JPG,5,ISIC_0032751.JPG,ISIC_0032751.JPG,false,0,keypress(z),500,484593.10000002384,484592.8000000715,481979.319,481998.3000000715,482009.343,484608.593,8,400,15,,ISIC_3541663.JPG
break,html.Screen,4_114_1,2023-11-02T16:41:53.827Z,,0,,,NaN,,,,,,false,,,,484593.8000000715,484593.60000002384,,484593.2000000477,,484608.593,8,400,,,
break_continue,html.Screen,4_114_2,2023-11-02T16:41:53.828Z,,0,,,NaN,,,,,,false,,,,484594,484594,,484593.90000009537,,484608.593,8,400,,,
sequence,flow.Sequence,4_114,2023-11-02T16:41:53.828Z,,0,,,2584.6570000000065,completion,,,,,false,,,,484594.2000000477,484594,481979.319,481998.3000000715,482009.343,484608.593,8,400,,,
trial,html.Screen,4_115_0,2023-11-02T16:41:56.331Z,,0,3,,2488.6070000476902,response,ISIC_4308751.JPG,7,ISIC_8436492.JPG,ISIC_4308751.JPG,false,1,keypress(m),500,487097.5,487097.2000000477,484585.053,484594.2000000477,484608.593,487109.242,8,400,16,,ISIC_8436492.JPG
break,html.Screen,4_115_1,2023-11-02T16:41:56.333Z,,0,,,NaN,,,,,,false,,,,487099.10000002384,487098.90000009537,,487097.7000000477,,487109.242,8,400,,,
break_continue,html.Screen,4_115_2,2023-11-02T16:41:56.333Z,,0,,,NaN,,,,,,false,,,,487099.40000009537,487099.3000000715,,487099.2000000477,,487109.242,8,400,,,
sequence,flow.Sequence,4_115,2023-11-02T16:41:56.333Z,,0,,,2490.707000071532,completion,,,,,false,,,,487099.5,487099.3000000715,484585.053,484594.2000000477,484608.593,487109.242,8,400,,,
trial,html.Screen,4_116_0,2023-11-02T16:41:58.864Z,,0,3,,2521.15800009534,response,ISIC_3663705.JPG,11,ISIC_0058496.JPG,ISIC_3663705.JPG,false,1,keypress(m),500,489630.5,489630.40000009537,487081.562,487099.60000002384,487109.242,489642.198,8,400,17,,ISIC_0058496.JPG
break,html.Screen,4_116_1,2023-11-02T16:41:58.866Z,,0,,,NaN,,,,,,false,,,,489632.10000002384,489631.8000000715,,489630.8000000715,,489642.198,8,400,,,
break_continue,html.Screen,4_116_2,2023-11-02T16:41:58.866Z,,0,,,NaN,,,,,,false,,,,489632.3000000715,489632.3000000715,,489632.2000000477,,489642.198,8,400,,,
sequence,flow.Sequence,4_116,2023-11-02T16:41:58.866Z,,0,,,2523.058000071498,completion,,,,,false,,,,489632.5,489632.3000000715,487081.562,487099.60000002384,487109.242,489642.198,8,400,,,
trial,html.Screen,4_117_0,2023-11-02T16:42:01.434Z,,0,3,,2558.302000000025,response,ISIC_0032600.JPG,9,ISIC_0014117.JPG,ISIC_0014117.JPG,false,0,keypress(z),500,492200.7000000477,492200.5,489615.03,489632.60000002384,489642.198,492210.261,8,400,18,,ISIC_0032600.JPG
break,html.Screen,4_117_1,2023-11-02T16:42:01.435Z,,0,,,NaN,,,,,,false,,,,492201.60000002384,492201.40000009537,,492200.8000000715,,492210.261,8,400,,,
break_continue,html.Screen,4_117_2,2023-11-02T16:42:01.435Z,,0,,,NaN,,,,,,false,,,,492201.90000009537,492201.8000000715,,492201.7000000477,,492210.261,8,400,,,
sequence,flow.Sequence,4_117,2023-11-02T16:42:01.436Z,,0,,,2559.6020000715507,completion,,,,,false,,,,492202,492201.8000000715,489615.03,489632.5,489642.198,492210.261,8,400,,,
trial,html.Screen,4_118_0,2023-11-02T16:42:04.111Z,,0,3,,2666.639000095369,response,ISIC_0011256.JPG,10,ISIC_0027260.JPG,ISIC_0027260.JPG,false,0,keypress(z),500,494877.2000000477,494876.90000009537,492200.672,492202.10000002384,492210.261,494893.29,8,400,19,,ISIC_0011256.JPG
break,html.Screen,4_118_1,2023-11-02T16:42:04.112Z,,0,,,NaN,,,,,,false,,,,494878.7000000477,494878.3000000715,,494877.60000002384,,494893.29,8,400,,,
break_continue,html.Screen,4_118_2,2023-11-02T16:42:04.113Z,,0,,,NaN,,,,,,false,,,,494879.10000002384,494879,,494878.90000009537,,494893.29,8,400,,,
sequence,flow.Sequence,4_118,2023-11-02T16:42:04.113Z,,0,,,2668.7390000000014,completion,,,,,false,,,,494879.3000000715,494879,492200.672,492202.10000002384,492210.261,494893.29,8,400,,,
trial,html.Screen,4_119_0,2023-11-02T16:42:06.729Z,,0,3,,2602.0100000715465,response,ISIC_3737487.JPG,6,ISIC_5673994.JPG,ISIC_5673994.JPG,false,0,keypress(z),500,497495.60000002384,497495.3000000715,494877.772,494879.5,494893.29,497509.071,8,400,20,,ISIC_3737487.JPG
break,html.Screen,4_119_1,2023-11-02T16:42:06.731Z,,0,,,NaN,,,,,,false,,,,497497.2000000477,497496.90000009537,,497495.8000000715,,497509.071,8,400,,,
break_continue,html.Screen,4_119_2,2023-11-02T16:42:06.731Z,,0,,,NaN,,,,,,false,,,,497497.5,497497.3000000715,,497497.2000000477,,497509.071,8,400,,,
sequence,flow.Sequence,4_119,2023-11-02T16:42:06.731Z,,0,,,2604.0100000715465,completion,,,,,false,,,,497497.60000002384,497497.3000000715,494877.772,494879.5,494893.29,497509.071,8,400,,,
trial,html.Screen,4_120_0,2023-11-02T16:42:09.728Z,,0,3,,2985.1290000476874,response,ISIC_0064907.JPG,13,ISIC_0069668.JPG,ISIC_0064907.JPG,false,1,keypress(m),500,500494.60000002384,500494.2000000477,497483.662,497497.60000002384,497509.071,500508.681,8,400,21,,ISIC_0069668.JPG
break,html.Screen,4_120_1,2023-11-02T16:42:09.730Z,,0,,,NaN,,,,,,false,,,,500496.10000002384,500495.90000009537,,500494.7000000477,,500508.681,8,400,,,
break_continue,html.Screen,4_120_2,2023-11-02T16:42:09.730Z,,0,,,NaN,,,,,,false,,,,500496.5,500496.40000009537,,500496.2000000477,,500508.681,8,400,,,
sequence,flow.Sequence,4_120,2023-11-02T16:42:09.730Z,,0,,,2987.329000095371,completion,,,,,false,,,,500496.5,500496.40000009537,497483.662,497497.60000002384,497509.071,500508.681,8,400,,,
trial,html.Screen,4_121_0,2023-11-02T16:42:12.390Z,,0,3,,2647.219000095385,response,ISIC_0027155.JPG,6,ISIC_8497457.JPG,ISIC_8497457.JPG,false,0,keypress(z),500,503156.2000000477,503155.90000009537,500486.872,500496.8000000715,500508.681,503175.414,8,400,22,,ISIC_0027155.JPG
break,html.Screen,4_121_1,2023-11-02T16:42:12.391Z,,0,,,NaN,,,,,,false,,,,503157,503156.8000000715,,503156.3000000715,,503175.414,8,400,,,
break_continue,html.Screen,4_121_2,2023-11-02T16:42:12.391Z,,0,,,NaN,,,,,,false,,,,503157.3000000715,503157.2000000477,,503157.2000000477,,503175.414,8,400,,,
sequence,flow.Sequence,4_121,2023-11-02T16:42:12.391Z,,0,,,2648.5190000477014,completion,,,,,false,,,,503157.40000009537,503157.2000000477,500486.872,500496.7000000477,500508.681,503175.414,8,400,,,
trial,html.Screen,4_122_0,2023-11-02T16:42:15.423Z,,0,3,,3013.5860000000102,response,ISIC_0063300.JPG,2,ISIC_0033119.JPG,ISIC_0063300.JPG,false,1,keypress(m),500,506189.2000000477,506189,503159.222,503157.60000002384,503175.414,506191.613,8,400,23,,ISIC_0033119.JPG
break,html.Screen,4_122_1,2023-11-02T16:42:15.424Z,,0,,,NaN,,,,,,false,,,,506190.3000000715,506190.10000002384,,506189.40000009537,,506191.613,8,400,,,
break_continue,html.Screen,4_122_2,2023-11-02T16:42:15.424Z,,0,,,NaN,,,,,,false,,,,506190.7000000477,506190.5,,506190.40000009537,,506191.613,8,400,,,
sequence,flow.Sequence,4_122,2023-11-02T16:42:15.424Z,,0,,,3015.0860000000102,completion,,,,,false,,,,506190.8000000715,506190.5,503159.222,503157.5,503175.414,506191.613,8,400,,,
trial,html.Screen,4_123_0,2023-11-02T16:42:17.899Z,,0,3,,2473.0870000476716,response,ISIC_0024961.JPG,12,ISIC_5641619.JPG,ISIC_0024961.JPG,false,1,keypress(m),500,508664.90000009537,508664.7000000477,506177.349,506190.90000009537,506191.613,508675.338,8,400,24,,ISIC_5641619.JPG
break,html.Screen,4_123_1,2023-11-02T16:42:17.900Z,,0,,,NaN,,,,,,false,,,,508666.40000009537,508666.2000000477,,508665.10000002384,,508675.338,8,400,,,
break_continue,html.Screen,4_123_2,2023-11-02T16:42:17.900Z,,0,,,NaN,,,,,,false,,,,508666.7000000477,508666.60000002384,,508666.5,,508675.338,8,400,,,
sequence,flow.Sequence,4_123,2023-11-02T16:42:17.900Z,,0,,,2474.9870000238298,completion,,,,,false,,,,508666.8000000715,508666.60000002384,506177.349,506190.90000009537,506191.613,508675.338,8,400,,,
trial,html.Screen,4_124_0,2023-11-02T16:42:20.369Z,,0,3,,2459.762000023853,response,ISIC_5920470.JPG,6,ISIC_0068239.JPG,ISIC_0068239.JPG,false,0,keypress(z),500,511135.40000009537,511135.10000002384,508660.597,508666.90000009537,508675.338,511143.459,8,400,25,,ISIC_5920470.JPG
break,html.Screen,4_124_1,2023-11-02T16:42:20.370Z,,0,,,NaN,,,,,,false,,,,511136.7000000477,511136.5,,511135.5,,511143.459,8,400,,,
break_continue,html.Screen,4_124_2,2023-11-02T16:42:20.371Z,,0,,,NaN,,,,,,false,,,,511137.10000002384,511136.90000009537,,511136.8000000715,,511143.459,8,400,,,
sequence,flow.Sequence,4_124,2023-11-02T16:42:20.371Z,,0,,,2461.5620000953786,completion,,,,,false,,,,511137.3000000715,511136.90000009537,508660.597,508666.90000009537,508675.338,511143.459,8,400,,,
trial,html.Screen,4_125_0,2023-11-02T16:42:23.436Z,,0,3,,3058.841000071552,response,ISIC_0011949.JPG,11,ISIC_0014049.JPG,ISIC_0011949.JPG,false,1,keypress(m),500,514202.7000000477,514202.3000000715,511116.514,511137.3000000715,511143.459,514225.596,8,400,26,,ISIC_0014049.JPG
break,html.Screen,4_125_1,2023-11-02T16:42:23.438Z,,0,,,NaN,,,,,,false,,,,514204,514203.7000000477,,514203,,514225.596,8,400,,,
break_continue,html.Screen,4_125_2,2023-11-02T16:42:23.438Z,,0,,,NaN,,,,,,false,,,,514204.5,514204.3000000715,,514204.10000002384,,514225.596,8,400,,,
