sender,sender_type,sender_id,timestamp,meta,,blockNo,condition,duration,ended_on,img_left,img_reveal,img_right,loser,practice,response,response_action,selection_duration,time_commit,time_end,time_render,time_run,time_show,time_switch,total_blocks,total_trials,trialNo,url,winner
informed_consent,html.Screen,0,2023-11-02T20:15:25.655Z,"{""labjs_version"":""20.2.4"",""labjs_build"":{""flavor"":""production"",""commit"":""f5b4a49f956347addd546a832a3327688c2c0fef""},""location"":""https://run.pavlovia.org/MurrayBennett/melanoma-2afc/?participant=65714&platform=sona"",""userAgent"":""Mozilla/5.0 (Windows NT 10.0; Win64; x64) AppleWebKit/537.36 (KHTML, like Gecko) Chrome/118.0.0.0 Safari/537.36"",""platform"":""Win32"",""language"":""en-US"",""locale"":""en-US"",""timeZone"":""America/Chicago"",""timezoneOffset"":300,""screen_width"":1536,""screen_height"":864,""scroll_width"":1536,""scroll_height"":689,""window_innerWidth"":1536,""window_innerHeight"":737,""devicePixelRatio"":2.5}",,,,6415.256003051758,response,,,,,,consent,click button,,11783.600002288818,11782.300003051758,4899.98,5362.900001525879,5367.044,11788.653,,,,"{""participant"":""65714"",""platform"":""sona""}",
Welcome,html.Screen,1,2023-11-02T20:15:26.988Z,,,,colourful,1327.6470030517576,response,,,,,,continue,click button,,13116.900001525879,13116.300003051758,11771.965,11783.800003051758,11788.653,13131.699,,,,,
trial,html.Screen,2_0_0,2023-11-02T20:15:30.370Z,,0,0,,3366.8009999999995,response,ISIC_0025593.JPG,,ISIC_0063388.JPG,ISIC_0063388.JPG,true,0,keypress(z),500,16498.70000076294,16498.5,13114.878,13117.100002288818,13131.699,16505.432,1,6,1,,ISIC_0025593.JPG
sequence,flow.Sequence,2_0,2023-11-02T20:15:30.370Z,,0,,,3366.8009999999995,completion,,,,,true,,,,16499.20000076294,16498.5,13114.878,13117.100002288818,13131.699,16505.432,1,6,,,
trial,html.Screen,2_1_0,2023-11-02T20:15:33.591Z,,0,0,,3214.868003051757,response,ISIC_0028178.JPG,,ISIC_1309015.JPG,ISIC_1309015.JPG,true,0,keypress(z),500,19720.40000152588,19720.300003051758,16492.211,16499.300003051758,16505.432,19726.776,1,6,2,,ISIC_0028178.JPG
sequence,flow.Sequence,2_1,2023-11-02T20:15:33.592Z,,0,,,3214.868003051757,completion,,,,,true,,,,19720.70000076294,19720.300003051758,16492.211,16499.300003051758,16505.432,19726.776,1,6,,,
trial,html.Screen,2_2_0,2023-11-02T20:15:36.815Z,,0,0,,3217.1240015258772,response,ISIC_3314853.JPG,,ISIC_0031128.JPG,ISIC_3314853.JPG,true,1,keypress(m),500,22944.20000076294,22943.90000152588,19719.015,19720.90000152588,19726.776,22950.38,1,6,3,,ISIC_0031128.JPG
sequence,flow.Sequence,2_2,2023-11-02T20:15:36.815Z,,0,,,3217.1240015258772,completion,,,,,true,,,,22944.5,22943.90000152588,19719.015,19720.800003051758,19726.776,22950.38,1,6,,,
trial,html.Screen,2_3_0,2023-11-02T20:15:41.735Z,,0,0,,4913.920003051757,response,ISIC_0031612.JPG,,ISIC_8980141.JPG,ISIC_8980141.JPG,true,0,keypress(z),500,27864.40000152588,27864.300003051758,22931.983,22944.800003051758,22950.38,27870.76,1,6,4,,ISIC_0031612.JPG
sequence,flow.Sequence,2_3,2023-11-02T20:15:41.736Z,,0,,,4913.920003051757,completion,,,,,true,,,,27864.70000076294,27864.300003051758,22931.983,22944.60000228882,22950.38,27870.76,1,6,,,
trial,html.Screen,2_4_0,2023-11-02T20:15:45.022Z,,0,0,,3280.1400015258805,response,ISIC_9721604.JPG,,ISIC_1197737.JPG,ISIC_9721604.JPG,true,1,keypress(m),500,31151.10000228882,31150.90000152588,27850.432,27864.800003051758,27870.76,31157.749,1,6,5,,ISIC_1197737.JPG
sequence,flow.Sequence,2_4,2023-11-02T20:15:45.022Z,,0,,,3280.1400015258805,completion,,,,,true,,,,31151.40000152588,31150.90000152588,27850.432,27864.800003051758,27870.76,31157.749,1,6,,,
trial,html.Screen,2_5_0,2023-11-02T20:15:48.903Z,,0,0,,3874.051003051758,response,ISIC_0010681.JPG,,ISIC_0025346.JPG,ISIC_0010681.JPG,true,1,keypress(m),500,35032.10000228882,35031.80000305176,31138.939,31151.60000228882,31157.749,35038.905,1,6,6,,ISIC_0025346.JPG
sequence,flow.Sequence,2_5,2023-11-02T20:15:48.903Z,,0,,,3874.051003051758,completion,,,,,true,,,,35032.5,35031.80000305176,31138.939,31151.5,31157.749,35038.905,1,6,,,
loop,flow.Loop,2,2023-11-02T20:15:48.904Z,,,,,21900.101003051757,completion,,,,,true,,,,35032.70000076294,35031.80000305176,13114.878,13117,13131.699,35038.905,1,6,,,
exp_instructions,html.Screen,3,2023-11-02T20:15:50.833Z,,,,,1922.49500152588,response,,,,,,continue,keypress(Space),,36961.90000152588,36961.40000152588,35032.04,35032.80000305176,35038.905,36974.404,,,,,
trial,html.Screen,4_0_0,2023-11-02T20:15:55.527Z,,0,1,,4681.595999999998,response,ISIC_0056677.JPG,8,ISIC_0056444.JPG,ISIC_0056444.JPG,false,0,keypress(z),500,41656.30000305176,41656,36957.477,36962,36974.404,41662.575,8,400,1,,ISIC_0056677.JPG
break,html.Screen,4_0_1,2023-11-02T20:15:55.528Z,,0,,,NaN,,,,,,false,,,,41657.20000076294,41656.90000152588,,41656.40000152588,,41662.575,8,400,,,
break_continue,html.Screen,4_0_2,2023-11-02T20:15:55.529Z,,0,,,NaN,,,,,,false,,,,41657.80000305176,41657.5,,41657.40000152588,,41662.575,8,400,,,
sequence,flow.Sequence,4_0,2023-11-02T20:15:55.529Z,,0,,,4683.095999999998,completion,,,,,false,,,,41658,41657.5,36957.477,36962,36974.404,41662.575,8,400,,,
trial,html.Screen,4_1_0,2023-11-02T20:15:58.430Z,,0,1,,2896.7250030517607,response,ISIC_0026911.JPG,5,ISIC_0029112.JPG,ISIC_0026911.JPG,false,1,keypress(m),500,44559.5,44559.30000305176,41654.49,41658.10000228882,41662.575,44565.69,8,400,2,,ISIC_0029112.JPG
break,html.Screen,4_1_1,2023-11-02T20:15:58.431Z,,0,,,NaN,,,,,,false,,,,44560.20000076294,44560,,44559.70000076294,,44565.69,8,400,,,
break_continue,html.Screen,4_1_2,2023-11-02T20:15:58.432Z,,0,,,NaN,,,,,,false,,,,44560.60000228882,44560.5,,44560.30000305176,,44565.69,8,400,,,
sequence,flow.Sequence,4_1,2023-11-02T20:15:58.432Z,,0,,,2897.925000000003,completion,,,,,false,,,,44560.70000076294,44560.5,41654.49,41658.10000228882,41662.575,44565.69,8,400,,,
trial,html.Screen,4_2_0,2023-11-02T20:16:01.939Z,,0,1,,3502.410002288816,response,ISIC_0001602.JPG,9,ISIC_6119830.JPG,ISIC_0001602.JPG,false,1,keypress(m),500,48068.30000305176,48068.10000228882,44544.546,44561,44565.69,48074.513,8,400,3,,ISIC_6119830.JPG
break,html.Screen,4_2_1,2023-11-02T20:16:01.940Z,,0,,,NaN,,,,,,false,,,,48069,48068.70000076294,,48068.5,,48074.513,8,400,,,
break_continue,html.Screen,4_2_2,2023-11-02T20:16:01.940Z,,0,,,NaN,,,,,,false,,,,48069.5,48069.5,,48069.40000152588,,48074.513,8,400,,,
sequence,flow.Sequence,4_2,2023-11-02T20:16:01.941Z,,0,,,3503.8099999999977,completion,,,,,false,,,,48069.70000076294,48069.5,44544.546,44560.90000152588,44565.69,48074.513,8,400,,,
trial,html.Screen,4_3_0,2023-11-02T20:16:06.750Z,,0,1,,4804.787003051759,response,ISIC_9696846.JPG,8,ISIC_0029639.JPG,ISIC_0029639.JPG,false,0,keypress(z),500,52879.5,52879.30000305176,48068.56,48069.80000305176,48074.513,52885.882,8,400,4,,ISIC_9696846.JPG
break,html.Screen,4_3_1,2023-11-02T20:16:06.751Z,,0,,,NaN,,,,,,false,,,,52880.20000076294,52880,,52879.70000076294,,52885.882,8,400,,,
break_continue,html.Screen,4_3_2,2023-11-02T20:16:06.751Z,,0,,,NaN,,,,,,false,,,,52880.40000152588,52880.40000152588,,52880.30000305176,,52885.882,8,400,,,
sequence,flow.Sequence,4_3,2023-11-02T20:16:06.752Z,,0,,,4805.88700152588,completion,,,,,false,,,,52880.60000228882,52880.40000152588,48068.56,48069.80000305176,48074.513,52885.882,8,400,,,
trial,html.Screen,4_4_0,2023-11-02T20:16:10.307Z,,0,1,,3549.518001525881,response,ISIC_0028061.JPG,10,ISIC_0068580.JPG,ISIC_0028061.JPG,false,1,keypress(m),500,56436.10000228882,56435.40000152588,52868.057,52880.70000076294,52885.882,56444.057,8,400,5,,ISIC_0068580.JPG
break,html.Screen,4_4_1,2023-11-02T20:16:10.308Z,,0,,,NaN,,,,,,false,,,,56436.70000076294,56436.60000228882,,56436.40000152588,,56444.057,8,400,,,
break_continue,html.Screen,4_4_2,2023-11-02T20:16:10.308Z,,0,,,NaN,,,,,,false,,,,56437,56436.90000152588,,56436.90000152588,,56444.057,8,400,,,
sequence,flow.Sequence,4_4,2023-11-02T20:16:10.308Z,,0,,,3551.018001525881,completion,,,,,false,,,,56437.20000076294,56436.90000152588,52868.057,52880.70000076294,52885.882,56444.057,8,400,,,
trial,html.Screen,4_5_0,2023-11-02T20:16:13.469Z,,0,1,,3153.343001525878,response,ISIC_0026360.JPG,10,ISIC_5358548.JPG,ISIC_5358548.JPG,false,0,keypress(z),500,59597.5,59597.40000152588,56434.065,56437.30000305176,56444.057,59604.011,8,400,6,,ISIC_0026360.JPG
break,html.Screen,4_5_1,2023-11-02T20:16:13.469Z,,0,,,NaN,,,,,,false,,,,59598.20000076294,59598,,59597.70000076294,,59604.011,8,400,,,
break_continue,html.Screen,4_5_2,2023-11-02T20:16:13.469Z,,0,,,NaN,,,,,,false,,,,59598.5,59598.40000152588,,59598.40000152588,,59604.011,8,400,,,
sequence,flow.Sequence,4_5,2023-11-02T20:16:13.470Z,,0,,,3154.343001525878,completion,,,,,false,,,,59598.70000076294,59598.40000152588,56434.065,56437.30000305176,56444.057,59604.011,8,400,,,
trial,html.Screen,4_6_0,2023-11-02T20:16:16.657Z,,0,1,,3181.189000762941,response,ISIC_0031350.JPG,8,ISIC_0799535.JPG,ISIC_0799535.JPG,false,0,keypress(z),500,62785.40000152588,62785.20000076294,59596.957,59598.90000152588,59604.011,62808.644,8,400,7,,ISIC_0031350.JPG
break,html.Screen,4_6_1,2023-11-02T20:16:16.657Z,,0,,,NaN,,,,,,false,,,,62785.90000152588,62785.80000305176,,62785.60000228882,,62808.644,8,400,,,
break_continue,html.Screen,4_6_2,2023-11-02T20:16:16.658Z,,0,,,NaN,,,,,,false,,,,62786.30000305176,62786.20000076294,,62786,,62808.644,8,400,,,
sequence,flow.Sequence,4_6,2023-11-02T20:16:16.658Z,,0,,,3182.189000762941,completion,,,,,false,,,,62786.5,62786.20000076294,59596.957,59598.80000305176,59604.011,62808.644,8,400,,,
trial,html.Screen,4_7_0,2023-11-02T20:16:19.710Z,,0,1,,3029.456002288818,response,ISIC_1356715.JPG,6,ISIC_3928910.JPG,ISIC_1356715.JPG,false,1,keypress(m),500,65838.30000305176,65838.10000228882,62791.955,62786.60000228882,62808.644,65844.316,8,400,8,,ISIC_3928910.JPG
break,html.Screen,4_7_1,2023-11-02T20:16:19.710Z,,0,,,NaN,,,,,,false,,,,65838.70000076294,65838.60000228882,,65838.30000305176,,65844.316,8,400,,,
break_continue,html.Screen,4_7_2,2023-11-02T20:16:19.710Z,,0,,,NaN,,,,,,false,,,,65838.90000152588,65838.80000305176,,65838.70000076294,,65844.316,8,400,,,
sequence,flow.Sequence,4_7,2023-11-02T20:16:19.710Z,,0,,,3030.1560030517576,completion,,,,,false,,,,65839,65838.80000305176,62791.955,62786.60000228882,62808.644,65844.316,8,400,,,
trial,html.Screen,4_8_0,2023-11-02T20:16:23.127Z,,0,1,,3411.0840015258727,response,ISIC_1165548.JPG,8,ISIC_0046504.JPG,ISIC_1165548.JPG,false,1,keypress(m),500,69255.60000228882,69255.40000152588,65823.483,65839.10000228882,65844.316,69261.888,8,400,9,,ISIC_0046504.JPG
break,html.Screen,4_8_1,2023-11-02T20:16:23.128Z,,0,,,NaN,,,,,,false,,,,69256.40000152588,69256.10000228882,,69255.80000305176,,69261.888,8,400,,,
break_continue,html.Screen,4_8_2,2023-11-02T20:16:23.128Z,,0,,,NaN,,,,,,false,,,,69256.80000305176,69256.70000076294,,69256.5,,69261.888,8,400,,,
sequence,flow.Sequence,4_8,2023-11-02T20:16:23.128Z,,0,,,3412.3840007629333,completion,,,,,false,,,,69256.90000152588,69256.70000076294,65823.483,65839,65844.316,69261.888,8,400,,,
trial,html.Screen,4_9_0,2023-11-02T20:16:27.650Z,,0,1,,4516.312000762933,response,ISIC_5714285.JPG,10,ISIC_0031074.JPG,ISIC_5714285.JPG,false,1,keypress(m),500,73778.40000152588,73778.20000076294,69248.305,69257,69261.888,73784.572,8,400,10,,ISIC_0031074.JPG
break,html.Screen,4_9_1,2023-11-02T20:16:27.651Z,,0,,,NaN,,,,,,false,,,,73779.30000305176,73778.80000305176,,73778.60000228882,,73784.572,8,400,,,
break_continue,html.Screen,4_9_2,2023-11-02T20:16:27.651Z,,0,,,NaN,,,,,,false,,,,73779.5,73779.40000152588,,73779.40000152588,,73784.572,8,400,,,
sequence,flow.Sequence,4_9,2023-11-02T20:16:27.651Z,,0,,,4517.512001525873,completion,,,,,false,,,,73779.70000076294,73779.40000152588,69248.305,69256.90000152588,69261.888,73784.572,8,400,,,
trial,html.Screen,4_10_0,2023-11-02T20:16:31.753Z,,0,1,,4096.328001525879,response,ISIC_2320481.JPG,11,ISIC_0024980.JPG,ISIC_2320481.JPG,false,1,keypress(m),500,77881.10000228882,77880.90000152588,73773.613,73779.70000076294,73784.572,77884.597,8,400,11,,ISIC_0024980.JPG
break,html.Screen,4_10_1,2023-11-02T20:16:31.753Z,,0,,,NaN,,,,,,false,,,,77881.60000228882,77881.40000152588,,77881.30000305176,,77884.597,8,400,,,
break_continue,html.Screen,4_10_2,2023-11-02T20:16:31.753Z,,0,,,NaN,,,,,,false,,,,77881.90000152588,77881.80000305176,,77881.70000076294,,77884.597,8,400,,,
sequence,flow.Sequence,4_10,2023-11-02T20:16:31.754Z,,0,,,4097.228003051758,completion,,,,,false,,,,77882,77881.80000305176,73773.613,73779.70000076294,73784.572,77884.597,8,400,,,
trial,html.Screen,4_11_0,2023-11-02T20:16:34.813Z,,0,1,,3056.4030000000057,response,ISIC_3382231.JPG,11,ISIC_0060158.JPG,ISIC_0060158.JPG,false,0,keypress(z),500,80941.20000076294,80941,77874.93,77882.20000076294,77884.597,80956.997,8,400,12,,ISIC_3382231.JPG
break,html.Screen,4_11_1,2023-11-02T20:16:34.813Z,,0,,,NaN,,,,,,false,,,,80941.80000305176,80941.60000228882,,80941.40000152588,,80956.997,8,400,,,
break_continue,html.Screen,4_11_2,2023-11-02T20:16:34.814Z,,0,,,NaN,,,,,,false,,,,80942.10000228882,80941.90000152588,,80941.90000152588,,80956.997,8,400,,,
sequence,flow.Sequence,4_11,2023-11-02T20:16:34.814Z,,0,,,3057.3030015258846,completion,,,,,false,,,,80942.30000305176,80941.90000152588,77874.93,77882.20000076294,77884.597,80956.997,8,400,,,
trial,html.Screen,4_12_0,2023-11-02T20:16:38.296Z,,0,1,,3467.303003051755,response,ISIC_0031499.JPG,25,ISIC_8803600.JPG,ISIC_8803600.JPG,false,0,keypress(z),500,84424.5,84424.30000305176,80940.392,80942.40000152588,80956.997,84426.72,8,400,13,,ISIC_0031499.JPG
break,html.Screen,4_12_1,2023-11-02T20:16:38.297Z,,0,,,NaN,,,,,,false,,,,84425.10000228882,84424.90000152588,,84424.70000076294,,84426.72,8,400,,,
break_continue,html.Screen,4_12_2,2023-11-02T20:16:38.297Z,,0,,,NaN,,,,,,false,,,,84425.5,84425.30000305176,,84425.30000305176,,84426.72,8,400,,,
sequence,flow.Sequence,4_12,2023-11-02T20:16:38.297Z,,0,,,3468.303003051755,completion,,,,,false,,,,84425.70000076294,84425.30000305176,80940.392,80942.30000305176,80956.997,84426.72,8,400,,,
trial,html.Screen,4_13_0,2023-11-02T20:16:41.569Z,,0,1,,3270.380002288817,response,ISIC_0059864.JPG,11,ISIC_6460137.JPG,ISIC_6460137.JPG,false,0,keypress(z),500,87697.30000305176,87697.10000228882,84410.165,84425.80000305176,84426.72,87702.397,8,400,14,,ISIC_0059864.JPG
break,html.Screen,4_13_1,2023-11-02T20:16:41.569Z,,0,,,NaN,,,,,,false,,,,87697.80000305176,87697.70000076294,,87697.40000152588,,87702.397,8,400,,,
break_continue,html.Screen,4_13_2,2023-11-02T20:16:41.570Z,,0,,,NaN,,,,,,false,,,,87698,87698,,87697.90000152588,,87702.397,8,400,,,
sequence,flow.Sequence,4_13,2023-11-02T20:16:41.570Z,,0,,,3271.279999999999,completion,,,,,false,,,,87698.20000076294,87698,84410.165,84425.80000305176,84426.72,87702.397,8,400,,,
trial,html.Screen,4_14_0,2023-11-02T20:16:46.356Z,,0,1,,4781.803000762942,response,ISIC_0067338.JPG,6,ISIC_9596721.JPG,ISIC_9596721.JPG,false,0,keypress(z),500,92484.40000152588,92484.20000076294,87693.147,87698.20000076294,87702.397,92494.669,8,400,15,,ISIC_0067338.JPG
break,html.Screen,4_14_1,2023-11-02T20:16:46.357Z,,0,,,NaN,,,,,,false,,,,92485.40000152588,92485.20000076294,,92484.70000076294,,92494.669,8,400,,,
break_continue,html.Screen,4_14_2,2023-11-02T20:16:46.358Z,,0,,,NaN,,,,,,false,,,,92486.20000076294,92486,,92485.70000076294,,92494.669,8,400,,,
sequence,flow.Sequence,4_14,2023-11-02T20:16:46.358Z,,0,,,4783.603000000003,completion,,,,,false,,,,92486.5,92486,87693.147,87698.20000076294,87702.397,92494.669,8,400,,,
trial,html.Screen,4_15_0,2023-11-02T20:16:49.419Z,,0,1,,3052.8310000000056,response,ISIC_0065192.JPG,8,ISIC_0031350.JPG,ISIC_0031350.JPG,false,0,keypress(z),500,95547.70000076294,95547.5,92472.802,92486.70000076294,92494.669,95561.947,8,400,16,,ISIC_0065192.JPG
break,html.Screen,4_15_1,2023-11-02T20:16:49.420Z,,0,,,NaN,,,,,,false,,,,95548.30000305176,95548.10000228882,,95547.80000305176,,95561.947,8,400,,,
break_continue,html.Screen,4_15_2,2023-11-02T20:16:49.420Z,,0,,,NaN,,,,,,false,,,,95548.70000076294,95548.60000228882,,95548.5,,95561.947,8,400,,,
sequence,flow.Sequence,4_15,2023-11-02T20:16:49.420Z,,0,,,3053.931002288824,completion,,,,,false,,,,95548.90000152588,95548.60000228882,92472.802,92486.70000076294,92494.669,95561.947,8,400,,,
trial,html.Screen,4_16_0,2023-11-02T20:16:52.274Z,,0,1,,2840.6530022888182,response,ISIC_9152137.JPG,12,ISIC_0034094.JPG,ISIC_9152137.JPG,false,1,keypress(m),500,98402.70000076294,98402.60000228882,95547.565,95549,95561.947,98408.897,8,400,17,,ISIC_0034094.JPG
break,html.Screen,4_16_1,2023-11-02T20:16:52.275Z,,0,,,NaN,,,,,,false,,,,98403.20000076294,98403.10000228882,,98402.90000152588,,98408.897,8,400,,,
break_continue,html.Screen,4_16_2,2023-11-02T20:16:52.275Z,,0,,,NaN,,,,,,false,,,,98403.5,98403.40000152588,,98403.30000305176,,98408.897,8,400,,,
sequence,flow.Sequence,4_16,2023-11-02T20:16:52.275Z,,0,,,2841.453001525879,completion,,,,,false,,,,98403.60000228882,98403.40000152588,95547.565,95549,95561.947,98408.897,8,400,,,
trial,html.Screen,4_17_0,2023-11-02T20:16:55.758Z,,0,1,,3477.5030015258817,response,ISIC_9498448.JPG,9,ISIC_0028415.JPG,ISIC_9498448.JPG,false,1,keypress(m),500,101886.60000228882,101886.40000152588,98400.826,98403.70000076294,98408.897,101893.148,8,400,18,,ISIC_0028415.JPG
break,html.Screen,4_17_1,2023-11-02T20:16:55.759Z,,0,,,NaN,,,,,,false,,,,101887.5,101887.30000305176,,101886.80000305176,,101893.148,8,400,,,
break_continue,html.Screen,4_17_2,2023-11-02T20:16:55.760Z,,0,,,NaN,,,,,,false,,,,101888,101887.90000152588,,101887.70000076294,,101893.148,8,400,,,
sequence,flow.Sequence,4_17,2023-11-02T20:16:55.760Z,,0,,,3479.0030015258817,completion,,,,,false,,,,101888.30000305176,101887.90000152588,98400.826,98403.70000076294,98408.897,101893.148,8,400,,,
trial,html.Screen,4_18_0,2023-11-02T20:16:59.814Z,,0,1,,4048.6520030517568,response,ISIC_5203791.JPG,9,ISIC_0292775.JPG,ISIC_0292775.JPG,false,0,keypress(z),500,105942.10000228882,105941.80000305176,101876.453,101888.5,101893.148,105948.733,8,400,19,,ISIC_5203791.JPG
break,html.Screen,4_18_1,2023-11-02T20:16:59.815Z,,0,,,NaN,,,,,,false,,,,105943.10000228882,105942.80000305176,,105942.40000152588,,105948.733,8,400,,,
break_continue,html.Screen,4_18_2,2023-11-02T20:16:59.815Z,,0,,,NaN,,,,,,false,,,,105943.40000152588,105943.40000152588,,105943.20000076294,,105948.733,8,400,,,
sequence,flow.Sequence,4_18,2023-11-02T20:16:59.815Z,,0,,,4050.252001525878,completion,,,,,false,,,,105943.80000305176,105943.40000152588,101876.453,101888.40000152588,101893.148,105948.733,8,400,,,
trial,html.Screen,4_19_0,2023-11-02T20:17:02.711Z,,0,1,,2890.4670007629466,response,ISIC_1323743.JPG,13,ISIC_0000300.JPG,ISIC_1323743.JPG,false,1,keypress(m),500,108839.40000152588,108839.20000076294,105941.569,105944,105948.733,108844.562,8,400,20,,ISIC_0000300.JPG
break,html.Screen,4_19_1,2023-11-02T20:17:02.711Z,,0,,,NaN,,,,,,false,,,,108840,108839.80000305176,,108839.60000228882,,108844.562,8,400,,,
break_continue,html.Screen,4_19_2,2023-11-02T20:17:02.712Z,,0,,,NaN,,,,,,false,,,,108840.30000305176,108840.30000305176,,108840.10000228882,,108844.562,8,400,,,
sequence,flow.Sequence,4_19,2023-11-02T20:17:02.712Z,,0,,,2891.567003051765,completion,,,,,false,,,,108840.5,108840.30000305176,105941.569,105943.90000152588,105948.733,108844.562,8,400,,,
trial,html.Screen,4_20_0,2023-11-02T20:17:06.799Z,,0,1,,4083.138000762934,response,ISIC_4882389.JPG,8,ISIC_0254517.JPG,ISIC_4882389.JPG,false,1,keypress(m),500,112927.90000152588,112927.70000076294,108831.984,108840.60000228882,108844.562,112934.105,8,400,21,,ISIC_0254517.JPG
break,html.Screen,4_20_1,2023-11-02T20:17:06.800Z,,0,,,NaN,,,,,,false,,,,112928.40000152588,112928.20000076294,,112928,,112934.105,8,400,,,
break_continue,html.Screen,4_20_2,2023-11-02T20:17:06.800Z,,0,,,NaN,,,,,,false,,,,112928.90000152588,112928.90000152588,,112928.5,,112934.105,8,400,,,
sequence,flow.Sequence,4_20,2023-11-02T20:17:06.801Z,,0,,,4084.3380015258736,completion,,,,,false,,,,112929,112928.90000152588,108831.984,108840.60000228882,108844.562,112934.105,8,400,,,
trial,html.Screen,4_21_0,2023-11-02T20:17:09.721Z,,0,1,,2915.0950007629435,response,ISIC_1752943.JPG,10,ISIC_2746860.JPG,ISIC_2746860.JPG,false,0,keypress(z),500,115849.30000305176,115849.20000076294,112922.298,112929.10000228882,112934.105,115873.949,8,400,22,,ISIC_1752943.JPG
break,html.Screen,4_21_1,2023-11-02T20:17:09.721Z,,0,,,NaN,,,,,,false,,,,115849.90000152588,115849.80000305176,,115849.5,,115873.949,8,400,,,
break_continue,html.Screen,4_21_2,2023-11-02T20:17:09.722Z,,0,,,NaN,,,,,,false,,,,115850.30000305176,115850.20000076294,,115850,,115873.949,8,400,,,
sequence,flow.Sequence,4_21,2023-11-02T20:17:09.722Z,,0,,,2916.0950007629435,completion,,,,,false,,,,115850.40000152588,115850.20000076294,112922.298,112929.10000228882,112934.105,115873.949,8,400,,,
trial,html.Screen,4_22_0,2023-11-02T20:17:12.526Z,,0,1,,2780.4510015258857,response,ISIC_0626501.JPG,11,ISIC_0011488.JPG,ISIC_0626501.JPG,false,1,keypress(m),500,118654.60000228882,118654.40000152588,115857.272,115850.70000076294,115873.949,118660.741,8,400,23,,ISIC_0011488.JPG
break,html.Screen,4_22_1,2023-11-02T20:17:12.527Z,,0,,,NaN,,,,,,false,,,,118655,118654.90000152588,,118654.70000076294,,118660.741,8,400,,,
break_continue,html.Screen,4_22_2,2023-11-02T20:17:12.527Z,,0,,,NaN,,,,,,false,,,,118655.20000076294,118655.20000076294,,118655.10000228882,,118660.741,8,400,,,
sequence,flow.Sequence,4_22,2023-11-02T20:17:12.527Z,,0,,,2781.251000762946,completion,,,,,false,,,,118655.40000152588,118655.20000076294,115857.272,115850.70000076294,115873.949,118660.741,8,400,,,
trial,html.Screen,4_23_0,2023-11-02T20:17:17.584Z,,0,1,,5051.659001525884,response,ISIC_0046670.JPG,6,ISIC_0024308.JPG,ISIC_0024308.JPG,false,0,keypress(z),500,123712.60000228882,123712.40000152588,118646.723,118655.40000152588,118660.741,123724.571,8,400,24,,ISIC_0046670.JPG
break,html.Screen,4_23_1,2023-11-02T20:17:17.585Z,,0,,,NaN,,,,,,false,,,,123713.10000228882,123713,,123712.80000305176,,123724.571,8,400,,,
break_continue,html.Screen,4_23_2,2023-11-02T20:17:17.585Z,,0,,,NaN,,,,,,false,,,,123713.40000152588,123713.30000305176,,123713.30000305176,,123724.571,8,400,,,
sequence,flow.Sequence,4_23,2023-11-02T20:17:17.585Z,,0,,,5052.559003051763,completion,,,,,false,,,,123713.60000228882,123713.30000305176,118646.723,118655.40000152588,118660.741,123724.571,8,400,,,
trial,html.Screen,4_24_0,2023-11-02T20:17:20.611Z,,0,1,,3014.4290000000037,response,ISIC_4579262.JPG,10,ISIC_3260571.JPG,ISIC_3260571.JPG,false,0,keypress(z),500,126739.20000076294,126739,123706.959,123713.60000228882,123724.571,126745.318,8,400,25,,ISIC_4579262.JPG
break,html.Screen,4_24_1,2023-11-02T20:17:20.611Z,,0,,,NaN,,,,,,false,,,,126739.70000076294,126739.60000228882,,126739.30000305176,,126745.318,8,400,,,
break_continue,html.Screen,4_24_2,2023-11-02T20:17:20.612Z,,0,,,NaN,,,,,,false,,,,126740.20000076294,126740,,126739.80000305176,,126745.318,8,400,,,
sequence,flow.Sequence,4_24,2023-11-02T20:17:20.612Z,,0,,,3015.4290000000037,completion,,,,,false,,,,126740.20000076294,126740,123706.959,123713.60000228882,123724.571,126745.318,8,400,,,
trial,html.Screen,4_25_0,2023-11-02T20:17:23.261Z,,0,1,,2643.9820030517585,response,ISIC_0056921.JPG,13,ISIC_8436666.JPG,ISIC_8436666.JPG,false,0,keypress(z),500,129389.5,129389.30000305176,126731.986,126740.40000152588,126745.318,129395.476,8,400,26,,ISIC_0056921.JPG
break,html.Screen,4_25_1,2023-11-02T20:17:23.261Z,,0,,,NaN,,,,,,false,,,,129389.90000152588,129389.80000305176,,129389.60000228882,,129395.476,8,400,,,
break_continue,html.Screen,4_25_2,2023-11-02T20:17:23.262Z,,0,,,NaN,,,,,,false,,,,129390.30000305176,129390.30000305176,,129390.20000076294,,129395.476,8,400,,,
sequence,flow.Sequence,4_25,2023-11-02T20:17:23.262Z,,0,,,2644.9820030517585,completion,,,,,false,,,,129390.5,129390.30000305176,126731.986,126740.40000152588,126745.318,129395.476,8,400,,,
trial,html.Screen,4_26_0,2023-11-02T20:17:26.928Z,,0,1,,3661.2240007629443,response,ISIC_8873236.JPG,9,ISIC_1738738.JPG,ISIC_8873236.JPG,false,1,keypress(m),500,133056.80000305176,133056.70000076294,129382.433,129390.60000228882,129395.476,133063.218,8,400,27,,ISIC_1738738.JPG
break,html.Screen,4_26_1,2023-11-02T20:17:26.929Z,,0,,,NaN,,,,,,false,,,,133057.5,133057.30000305176,,133057,,133063.218,8,400,,,
break_continue,html.Screen,4_26_2,2023-11-02T20:17:26.929Z,,0,,,NaN,,,,,,false,,,,133058,133058,,133057.60000228882,,133063.218,8,400,,,
sequence,flow.Sequence,4_26,2023-11-02T20:17:26.930Z,,0,,,3662.524000000005,completion,,,,,false,,,,133058.10000228882,133058,129382.433,129390.60000228882,129395.476,133063.218,8,400,,,
trial,html.Screen,4_27_0,2023-11-02T20:17:31.884Z,,0,1,,4949.482000762946,response,ISIC_0046628.JPG,10,ISIC_0057858.JPG,ISIC_0046628.JPG,false,1,keypress(m),500,138012.90000152588,138012.70000076294,133043.895,133058.20000076294,133063.218,138017.606,8,400,28,,ISIC_0057858.JPG
break,html.Screen,4_27_1,2023-11-02T20:17:31.885Z,,0,,,NaN,,,,,,false,,,,138013.40000152588,138013.30000305176,,138013,,138017.606,8,400,,,
break_continue,html.Screen,4_27_2,2023-11-02T20:17:31.885Z,,0,,,NaN,,,,,,false,,,,138013.80000305176,138013.70000076294,,138013.60000228882,,138017.606,8,400,,,
sequence,flow.Sequence,4_27,2023-11-02T20:17:31.885Z,,0,,,4950.482000762946,completion,,,,,false,,,,138013.90000152588,138013.70000076294,133043.895,133058.20000076294,133063.218,138017.606,8,400,,,
trial,html.Screen,4_28_0,2023-11-02T20:17:36.832Z,,0,1,,4942.994002288819,response,ISIC_0024227.JPG,14,ISIC_0623284.JPG,ISIC_0623284.JPG,false,0,keypress(z),500,142960.80000305176,142960.60000228882,137998.869,138014.10000228882,138017.606,142991.535,8,400,29,,ISIC_0024227.JPG
break,html.Screen,4_28_1,2023-11-02T20:17:36.833Z,,0,,,NaN,,,,,,false,,,,142961.30000305176,142961.20000076294,,142961,,142991.535,8,400,,,
break_continue,html.Screen,4_28_2,2023-11-02T20:17:36.833Z,,0,,,NaN,,,,,,false,,,,142961.60000228882,142961.40000152588,,142961.30000305176,,142991.535,8,400,,,
sequence,flow.Sequence,4_28,2023-11-02T20:17:36.833Z,,0,,,4943.794001525879,completion,,,,,false,,,,142961.60000228882,142961.40000152588,137998.869,138014,138017.606,142991.535,8,400,,,
trial,html.Screen,4_29_0,2023-11-02T20:17:39.909Z,,0,1,,3045.565002288815,response,ISIC_9382494.JPG,8,ISIC_8492957.JPG,ISIC_8492957.JPG,false,0,keypress(z),500,146037.30000305176,146037.10000228882,142974.882,142961.70000076294,142991.535,146048.156,8,400,30,,ISIC_9382494.JPG
break,html.Screen,4_29_1,2023-11-02T20:17:39.909Z,,0,,,NaN,,,,,,false,,,,146037.90000152588,146037.80000305176,,146037.5,,146048.156,8,400,,,
break_continue,html.Screen,4_29_2,2023-11-02T20:17:39.910Z,,0,,,NaN,,,,,,false,,,,146038.30000305176,146038.20000076294,,146038.10000228882,,146048.156,8,400,,,
sequence,flow.Sequence,4_29,2023-11-02T20:17:39.910Z,,0,,,3046.665000762936,completion,,,,,false,,,,146038.5,146038.20000076294,142974.882,142961.70000076294,142991.535,146048.156,8,400,,,
trial,html.Screen,4_30_0,2023-11-02T20:17:42.172Z,,0,1,,2252.6440030517697,response,ISIC_5281485.JPG,12,ISIC_0070250.JPG,ISIC_0070250.JPG,false,0,keypress(z),500,148301,148300.80000305176,146035.852,146038.60000228882,146048.156,148307.364,8,400,31,,ISIC_5281485.JPG
break,html.Screen,4_30_1,2023-11-02T20:17:42.173Z,,0,,,NaN,,,,,,false,,,,148301.60000228882,148301.40000152588,,148301.20000076294,,148307.364,8,400,,,
break_continue,html.Screen,4_30_2,2023-11-02T20:17:42.174Z,,0,,,NaN,,,,,,false,,,,148302,148301.90000152588,,148301.80000305176,,148307.364,8,400,,,
sequence,flow.Sequence,4_30,2023-11-02T20:17:42.174Z,,0,,,2253.744001525891,completion,,,,,false,,,,148302.30000305176,148301.90000152588,146035.852,146038.60000228882,146048.156,148307.364,8,400,,,
trial,html.Screen,4_31_0,2023-11-02T20:17:46.953Z,,0,1,,4773.436003051756,response,ISIC_3591332.JPG,2,ISIC_0069668.JPG,ISIC_0069668.JPG,false,0,keypress(z),500,153081.20000076294,153080.80000305176,148295.048,148302.40000152588,148307.364,153089.241,8,400,32,,ISIC_3591332.JPG
break,html.Screen,4_31_1,2023-11-02T20:17:46.953Z,,0,,,NaN,,,,,,false,,,,153081.90000152588,153081.80000305176,,153081.40000152588,,153089.241,8,400,,,
break_continue,html.Screen,4_31_2,2023-11-02T20:17:46.954Z,,0,,,NaN,,,,,,false,,,,153082.5,153082.40000152588,,153082.30000305176,,153089.241,8,400,,,
sequence,flow.Sequence,4_31,2023-11-02T20:17:46.954Z,,0,,,4775.0360015258775,completion,,,,,false,,,,153082.70000076294,153082.40000152588,148295.048,148302.40000152588,148307.364,153089.241,8,400,,,
trial,html.Screen,4_32_0,2023-11-02T20:17:50.888Z,,0,1,,3926.8590022888093,response,ISIC_7271745.JPG,10,ISIC_7858034.JPG,ISIC_7271745.JPG,false,1,keypress(m),500,157016.5,157016.10000228882,153072.922,153082.90000152588,153089.241,157023.09,8,400,33,,ISIC_7858034.JPG
break,html.Screen,4_32_1,2023-11-02T20:17:50.889Z,,0,,,NaN,,,,,,false,,,,157017.30000305176,157017.10000228882,,157016.70000076294,,157023.09,8,400,,,
break_continue,html.Screen,4_32_2,2023-11-02T20:17:50.889Z,,0,,,NaN,,,,,,false,,,,157017.80000305176,157017.70000076294,,157017.5,,157023.09,8,400,,,
sequence,flow.Sequence,4_32,2023-11-02T20:17:50.889Z,,0,,,3928.4590007629304,completion,,,,,false,,,,157018,157017.70000076294,153072.922,153082.90000152588,153089.241,157023.09,8,400,,,
trial,html.Screen,4_33_0,2023-11-02T20:17:54.528Z,,0,1,,3633.010002288822,response,ISIC_0004042.JPG,11,ISIC_9568138.JPG,ISIC_0004042.JPG,false,1,keypress(m),500,160656.40000152588,160656.10000228882,157004.404,157018.20000076294,157023.09,160662.904,8,400,34,,ISIC_9568138.JPG
break,html.Screen,4_33_1,2023-11-02T20:17:54.529Z,,0,,,NaN,,,,,,false,,,,160657.30000305176,160657.10000228882,,160656.70000076294,,160662.904,8,400,,,
break_continue,html.Screen,4_33_2,2023-11-02T20:17:54.529Z,,0,,,NaN,,,,,,false,,,,160657.70000076294,160657.60000228882,,160657.40000152588,,160662.904,8,400,,,
sequence,flow.Sequence,4_33,2023-11-02T20:17:54.529Z,,0,,,3634.510002288822,completion,,,,,false,,,,160657.90000152588,160657.60000228882,157004.404,157018.10000228882,157023.09,160662.904,8,400,,,
trial,html.Screen,4_34_0,2023-11-02T20:17:57.516Z,,0,1,,2981.29600076293,response,ISIC_7452410.JPG,12,ISIC_7755096.JPG,ISIC_7452410.JPG,false,1,keypress(m),500,163644.5,163644.20000076294,160645.72,160658,160662.904,163651.027,8,400,35,,ISIC_7755096.JPG
break,html.Screen,4_34_1,2023-11-02T20:17:57.517Z,,0,,,NaN,,,,,,false,,,,163645.30000305176,163645.20000076294,,163644.70000076294,,163651.027,8,400,,,
break_continue,html.Screen,4_34_2,2023-11-02T20:17:57.517Z,,0,,,NaN,,,,,,false,,,,163645.80000305176,163645.60000228882,,163645.5,,163651.027,8,400,,,
sequence,flow.Sequence,4_34,2023-11-02T20:17:57.517Z,,0,,,2982.696002288809,completion,,,,,false,,,,163646,163645.60000228882,160645.72,160658,160662.904,163651.027,8,400,,,
trial,html.Screen,4_35_0,2023-11-02T20:18:00.481Z,,0,1,,2958.0730022888165,response,ISIC_4509525.JPG,11,ISIC_0010040.JPG,ISIC_4509525.JPG,false,1,keypress(m),500,166609.40000152588,166609.10000228882,163640.996,163646.20000076294,163651.027,166614.713,8,400,36,,ISIC_0010040.JPG
break,html.Screen,4_35_1,2023-11-02T20:18:00.482Z,,0,,,NaN,,,,,,false,,,,166610.10000228882,166609.90000152588,,166609.60000228882,,166614.713,8,400,,,
break_continue,html.Screen,4_35_2,2023-11-02T20:18:00.482Z,,0,,,NaN,,,,,,false,,,,166610.60000228882,166610.5,,166610.40000152588,,166614.713,8,400,,,
sequence,flow.Sequence,4_35,2023-11-02T20:18:00.482Z,,0,,,2959.472999999998,completion,,,,,false,,,,166610.80000305176,166610.5,163640.996,163646.10000228882,163651.027,166614.713,8,400,,,
trial,html.Screen,4_36_0,2023-11-02T20:18:05.146Z,,0,1,,4659.987000762951,response,ISIC_2670619.JPG,15,ISIC_0000087.JPG,ISIC_0000087.JPG,false,0,keypress(z),500,171275,171274.70000076294,166606.232,166611,166614.713,171281.613,8,400,37,,ISIC_2670619.JPG
break,html.Screen,4_36_1,2023-11-02T20:18:05.147Z,,0,,,NaN,,,,,,false,,,,171275.80000305176,171275.60000228882,,171275.20000076294,,171281.613,8,400,,,
break_continue,html.Screen,4_36_2,2023-11-02T20:18:05.148Z,,0,,,NaN,,,,,,false,,,,171276.30000305176,171276.10000228882,,171276,,171281.613,8,400,,,
sequence,flow.Sequence,4_36,2023-11-02T20:18:05.148Z,,0,,,4661.3870022888295,completion,,,,,false,,,,171276.5,171276.10000228882,166606.232,166610.90000152588,166614.713,171281.613,8,400,,,
trial,html.Screen,4_37_0,2023-11-02T20:18:08.680Z,,0,1,,3526.1870030517457,response,ISIC_1930598.JPG,14,ISIC_0031184.JPG,ISIC_1930598.JPG,false,1,keypress(m),500,174808.20000076294,174807.80000305176,171268.479,171276.70000076294,171281.613,174814.78,8,400,38,,ISIC_0031184.JPG
break,html.Screen,4_37_1,2023-11-02T20:18:08.680Z,,0,,,NaN,,,,,,false,,,,174809,174808.80000305176,,174808.40000152588,,174814.78,8,400,,,
break_continue,html.Screen,4_37_2,2023-11-02T20:18:08.681Z,,0,,,NaN,,,,,,false,,,,174809.5,174809.30000305176,,174809.20000076294,,174814.78,8,400,,,
sequence,flow.Sequence,4_37,2023-11-02T20:18:08.682Z,,0,,,3527.6870030517457,completion,,,,,false,,,,174810.90000152588,174809.30000305176,171268.479,171276.70000076294,171281.613,174814.78,8,400,,,
trial,html.Screen,4_38_0,2023-11-02T20:18:11.831Z,,0,1,,3144.520003051759,response,ISIC_2202486.JPG,9,ISIC_5602826.JPG,ISIC_2202486.JPG,false,1,keypress(m),500,177959.60000228882,177959.30000305176,174800.988,174811.30000305176,174814.78,177966.316,8,400,39,,ISIC_5602826.JPG
break,html.Screen,4_38_1,2023-11-02T20:18:11.832Z,,0,,,NaN,,,,,,false,,,,177960.70000076294,177960.40000152588,,177960,,177966.316,8,400,,,
break_continue,html.Screen,4_38_2,2023-11-02T20:18:11.833Z,,0,,,NaN,,,,,,false,,,,177961.10000228882,177961,,177960.80000305176,,177966.316,8,400,,,
sequence,flow.Sequence,4_38,2023-11-02T20:18:11.833Z,,0,,,3146.220000000001,completion,,,,,false,,,,177961.30000305176,177961,174800.988,174811.20000076294,174814.78,177966.316,8,400,,,
trial,html.Screen,4_39_0,2023-11-02T20:18:15.246Z,,0,1,,3408.384000762948,response,ISIC_1738738.JPG,8,ISIC_8713330.JPG,ISIC_8713330.JPG,false,0,keypress(z),500,181375,181374.70000076294,177950.34,177961.5,177966.316,181380.353,8,400,40,,ISIC_1738738.JPG
break,html.Screen,4_39_1,2023-11-02T20:18:15.247Z,,0,,,NaN,,,,,,false,,,,181375.80000305176,181375.60000228882,,181375.30000305176,,181380.353,8,400,,,
break_continue,html.Screen,4_39_2,2023-11-02T20:18:15.248Z,,0,,,NaN,,,,,,false,,,,181376.20000076294,181376.10000228882,,181376,,181380.353,8,400,,,
sequence,flow.Sequence,4_39,2023-11-02T20:18:15.248Z,,0,,,3409.7840022888267,completion,,,,,false,,,,181376.5,181376.10000228882,177950.34,177961.40000152588,177966.316,181380.353,8,400,,,
trial,html.Screen,4_40_0,2023-11-02T20:18:18.596Z,,0,1,,3343.447003051755,response,ISIC_0032626.JPG,2,ISIC_0030597.JPG,ISIC_0030597.JPG,false,0,keypress(z),500,184724.20000076294,184723.80000305176,181363.999,181376.70000076294,181380.353,184755.932,8,400,41,,ISIC_0032626.JPG
break,html.Screen,4_40_1,2023-11-02T20:18:18.596Z,,0,,,NaN,,,,,,false,,,,184725,184724.80000305176,,184724.40000152588,,184755.932,8,400,,,
break_continue,html.Screen,4_40_2,2023-11-02T20:18:18.597Z,,0,,,NaN,,,,,,false,,,,184725.40000152588,184725.20000076294,,184725.10000228882,,184755.932,8,400,,,
sequence,flow.Sequence,4_40,2023-11-02T20:18:18.597Z,,0,,,3344.8470007629367,completion,,,,,false,,,,184725.60000228882,184725.20000076294,181363.999,181376.60000228882,181380.353,184755.932,8,400,,,
trial,html.Screen,4_41_0,2023-11-02T20:18:22.798Z,,0,1,,4170.468001525878,response,ISIC_0010089.JPG,10,ISIC_0553565.JPG,ISIC_0553565.JPG,false,0,keypress(z),500,188926.70000076294,188926.40000152588,184739.599,184725.80000305176,184755.932,188943.843,8,400,42,,ISIC_0010089.JPG
break,html.Screen,4_41_1,2023-11-02T20:18:22.799Z,,0,,,NaN,,,,,,false,,,,188927.5,188927.30000305176,,188926.90000152588,,188943.843,8,400,,,
break_continue,html.Screen,4_41_2,2023-11-02T20:18:22.799Z,,0,,,NaN,,,,,,false,,,,188928.10000228882,188927.90000152588,,188927.70000076294,,188943.843,8,400,,,
sequence,flow.Sequence,4_41,2023-11-02T20:18:22.800Z,,0,,,4171.968001525878,completion,,,,,false,,,,188928.20000076294,188927.90000152588,184739.599,184725.70000076294,184755.932,188943.843,8,400,,,
trial,html.Screen,4_42_0,2023-11-02T20:18:27.642Z,,0,1,,4826.357000762946,response,ISIC_0081584.JPG,8,ISIC_0030183.JPG,ISIC_0030183.JPG,false,0,keypress(z),500,193770.60000228882,193770.20000076294,188917.745,188928.40000152588,188943.843,193777.213,8,400,43,,ISIC_0081584.JPG
break,html.Screen,4_42_1,2023-11-02T20:18:27.643Z,,0,,,NaN,,,,,,false,,,,193771.40000152588,193771.20000076294,,193770.80000305176,,193777.213,8,400,,,
break_continue,html.Screen,4_42_2,2023-11-02T20:18:27.643Z,,0,,,NaN,,,,,,false,,,,193771.90000152588,193771.80000305176,,193771.60000228882,,193777.213,8,400,,,
sequence,flow.Sequence,4_42,2023-11-02T20:18:27.644Z,,0,,,4827.957003051764,completion,,,,,false,,,,193772.10000228882,193771.80000305176,188917.745,188928.30000305176,188943.843,193777.213,8,400,,,
trial,html.Screen,4_43_0,2023-11-02T20:18:30.884Z,,0,1,,3234.787000000011,response,ISIC_7696538.JPG,11,ISIC_9350507.JPG,ISIC_7696538.JPG,false,1,keypress(m),500,197012.30000305176,197012,193766.177,193772.5,193777.213,197018.809,8,400,44,,ISIC_9350507.JPG
break,html.Screen,4_43_1,2023-11-02T20:18:30.885Z,,0,,,NaN,,,,,,false,,,,197013.10000228882,197012.90000152588,,197012.5,,197018.809,8,400,,,
break_continue,html.Screen,4_43_2,2023-11-02T20:18:30.885Z,,0,,,NaN,,,,,,false,,,,197013.60000228882,197013.5,,197013.30000305176,,197018.809,8,400,,,
sequence,flow.Sequence,4_43,2023-11-02T20:18:30.885Z,,0,,,3236.287000000011,completion,,,,,false,,,,197013.80000305176,197013.5,193766.177,193772.40000152588,193777.213,197018.809,8,400,,,
trial,html.Screen,4_44_0,2023-11-02T20:18:34.412Z,,0,1,,3521.79100228881,response,ISIC_3880324.JPG,10,ISIC_9738202.JPG,ISIC_9738202.JPG,false,0,keypress(z),500,200541,200540.60000228882,197004.325,197014,197018.809,200553.357,8,400,45,,ISIC_3880324.JPG
break,html.Screen,4_44_1,2023-11-02T20:18:34.413Z,,0,,,NaN,,,,,,false,,,,200541.90000152588,200541.60000228882,,200541.20000076294,,200553.357,8,400,,,
break_continue,html.Screen,4_44_2,2023-11-02T20:18:34.414Z,,0,,,NaN,,,,,,false,,,,200542.30000305176,200542.20000076294,,200542,,200553.357,8,400,,,
sequence,flow.Sequence,4_44,2023-11-02T20:18:34.414Z,,0,,,3523.391000762931,completion,,,,,false,,,,200542.5,200542.20000076294,197004.325,197013.90000152588,197018.809,200553.357,8,400,,,
trial,html.Screen,4_45_0,2023-11-02T20:18:37.863Z,,0,1,,3438.3430007629504,response,ISIC_9568138.JPG,11,ISIC_9008026.JPG,ISIC_9008026.JPG,false,0,keypress(z),500,203991.90000152588,203991.70000076294,200532.944,200542.70000076294,200553.357,203998.525,8,400,46,,ISIC_9568138.JPG
break,html.Screen,4_45_1,2023-11-02T20:18:37.864Z,,0,,,NaN,,,,,,false,,,,203992.80000305176,203992.60000228882,,203992.20000076294,,203998.525,8,400,,,
break_continue,html.Screen,4_45_2,2023-11-02T20:18:37.865Z,,0,,,NaN,,,,,,false,,,,203993.20000076294,203993,,203992.90000152588,,203998.525,8,400,,,
sequence,flow.Sequence,4_45,2023-11-02T20:18:37.865Z,,0,,,3439.643000000011,completion,,,,,false,,,,203993.40000152588,203993,200532.944,200542.70000076294,200553.357,203998.525,8,400,,,
trial,html.Screen,4_46_0,2023-11-02T20:18:41.332Z,,0,1,,3461.7750030517636,response,ISIC_0025582.JPG,7,ISIC_0046985.JPG,ISIC_0046985.JPG,false,0,keypress(z),500,207460.60000228882,207460.30000305176,203992.357,203993.60000228882,203998.525,207478.145,8,400,47,,ISIC_0025582.JPG
break,html.Screen,4_46_1,2023-11-02T20:18:41.333Z,,0,,,NaN,,,,,,false,,,,207461.40000152588,207461.30000305176,,207460.80000305176,,207478.145,8,400,,,
break_continue,html.Screen,4_46_2,2023-11-02T20:18:41.333Z,,0,,,NaN,,,,,,false,,,,207461.90000152588,207461.80000305176,,207461.60000228882,,207478.145,8,400,,,
sequence,flow.Sequence,4_46,2023-11-02T20:18:41.334Z,,0,,,3463.2750030517636,completion,,,,,false,,,,207462.20000076294,207461.80000305176,203992.357,203993.60000228882,203998.525,207478.145,8,400,,,
trial,html.Screen,4_47_0,2023-11-02T20:18:44.720Z,,0,1,,3370.3550000000105,response,ISIC_0015071.JPG,1,ISIC_5354202.JPG,ISIC_5354202.JPG,false,0,keypress(z),500,210848.80000305176,210848.5,207450.023,207462.30000305176,207478.145,210855.718,8,400,48,,ISIC_0015071.JPG
break,html.Screen,4_47_1,2023-11-02T20:18:44.721Z,,0,,,NaN,,,,,,false,,,,210849.60000228882,210849.5,,210849.10000228882,,210855.718,8,400,,,
break_continue,html.Screen,4_47_2,2023-11-02T20:18:44.722Z,,0,,,NaN,,,,,,false,,,,210850.20000076294,210850,,210849.90000152588,,210855.718,8,400,,,
sequence,flow.Sequence,4_47,2023-11-02T20:18:44.722Z,,0,,,3371.8550000000105,completion,,,,,false,,,,210850.40000152588,210850,207450.023,207462.30000305176,207478.145,210855.718,8,400,,,
trial,html.Screen,4_48_0,2023-11-02T20:18:48.270Z,,0,1,,3542.382002288825,response,ISIC_0058132.JPG,7,ISIC_6752060.JPG,ISIC_0058132.JPG,false,1,keypress(m),500,214398.40000152588,214398.10000228882,210833.334,210850.60000228882,210855.718,214408.865,8,400,49,,ISIC_6752060.JPG
break,html.Screen,4_48_1,2023-11-02T20:18:48.271Z,,0,,,NaN,,,,,,false,,,,214399.30000305176,214399,,214398.60000228882,,214408.865,8,400,,,
break_continue,html.Screen,4_48_2,2023-11-02T20:18:48.271Z,,0,,,NaN,,,,,,false,,,,214399.80000305176,214399.60000228882,,214399.5,,214408.865,8,400,,,
sequence,flow.Sequence,4_48,2023-11-02T20:18:48.271Z,,0,,,3543.882002288825,completion,,,,,false,,,,214400,214399.60000228882,210833.334,210850.5,210855.718,214408.865,8,400,,,
trial,html.Screen,4_49_0,2023-11-02T20:18:52.037Z,,0,1,,3756.7350022888277,response,ISIC_3433060.JPG,7,ISIC_0071951.JPG,ISIC_3433060.JPG,false,1,keypress(m),500,218165.90000152588,218165.60000228882,214396.169,214400.10000228882,214408.865,218172.593,8,400,50,,ISIC_0071951.JPG
break,html.Screen,4_49_1,2023-11-02T20:19:02.021Z,,0,,,9992.023000000016,timeout,,,,,false,,,,228149.20000076294,228148.217,218151.366,218166.20000076294,218172.593,228164.616,8,400,,,
break_continue,html.Screen,4_49_2,2023-11-02T20:19:04.797Z,,0,,,2752.0840007629304,response,,,,,false,continue,keypress(Space),,230925.70000076294,230916.70000076294,228148.217,228149.40000152588,228164.616,230931.798,8,400,,,
sequence,flow.Sequence,4_49,2023-11-02T20:19:04.797Z,,0,,,16507.83500076295,completion,,,,,false,,,,230925.80000305176,230916.70000076294,214396.169,214400.10000228882,214408.865,230931.798,8,400,,,
trial,html.Screen,4_50_0,2023-11-02T20:19:08.309Z,,0,2,,3505.70199999999,response,ISIC_0014903.JPG,7,ISIC_0003150.JPG,ISIC_0003150.JPG,false,0,keypress(z),500,234437.80000305176,234437.5,230917.65,230925.90000152588,230931.798,234441.692,8,400,1,,ISIC_0014903.JPG
break,html.Screen,4_50_1,2023-11-02T20:19:08.310Z,,0,,,NaN,,,,,,false,,,,234438.70000076294,234438.40000152588,,234438.10000228882,,234441.692,8,400,,,
break_continue,html.Screen,4_50_2,2023-11-02T20:19:08.311Z,,0,,,NaN,,,,,,false,,,,234439.10000228882,234439,,234438.90000152588,,234441.692,8,400,,,
sequence,flow.Sequence,4_50,2023-11-02T20:19:08.311Z,,0,,,3507.20199999999,completion,,,,,false,,,,234439.40000152588,234439,230917.65,230925.90000152588,230931.798,234441.692,8,400,,,
trial,html.Screen,4_51_0,2023-11-02T20:19:11.220Z,,0,2,,2906.708001525869,response,ISIC_0005686.JPG,5,ISIC_0032759.JPG,ISIC_0005686.JPG,false,1,keypress(m),500,237348.40000152588,237348.40000152588,234433.416,234439.5,234441.692,237354.623,8,400,2,,ISIC_0032759.JPG
break,html.Screen,4_51_1,2023-11-02T20:19:11.220Z,,0,,,NaN,,,,,,false,,,,237348.90000152588,237348.80000305176,,237348.60000228882,,237354.623,8,400,,,
break_continue,html.Screen,4_51_2,2023-11-02T20:19:11.221Z,,0,,,NaN,,,,,,false,,,,237349.40000152588,237349.40000152588,,237349,,237354.623,8,400,,,
sequence,flow.Sequence,4_51,2023-11-02T20:19:11.221Z,,0,,,2907.708001525869,completion,,,,,false,,,,237349.40000152588,237349.40000152588,234433.416,234439.5,234441.692,237354.623,8,400,,,
trial,html.Screen,4_52_0,2023-11-02T20:19:14.189Z,,0,2,,2962.977002288826,response,ISIC_1923467.JPG,9,ISIC_0059722.JPG,ISIC_1923467.JPG,false,1,keypress(m),500,240317.90000152588,240317.60000228882,237341.073,237349.5,237354.623,240325.49,8,400,3,,ISIC_0059722.JPG
break,html.Screen,4_52_1,2023-11-02T20:19:14.190Z,,0,,,NaN,,,,,,false,,,,240318.80000305176,240318.60000228882,,240318.20000076294,,240325.49,8,400,,,
break_continue,html.Screen,4_52_2,2023-11-02T20:19:14.191Z,,0,,,NaN,,,,,,false,,,,240319.30000305176,240319.20000076294,,240319.10000228882,,240325.49,8,400,,,
sequence,flow.Sequence,4_52,2023-11-02T20:19:14.191Z,,0,,,2964.577000762947,completion,,,,,false,,,,240319.60000228882,240319.20000076294,237341.073,237349.5,237354.623,240325.49,8,400,,,
trial,html.Screen,4_53_0,2023-11-02T20:19:18.153Z,,0,2,,3955.7100007629488,response,ISIC_7418723.JPG,6,ISIC_0010818.JPG,ISIC_0010818.JPG,false,0,keypress(z),500,244281.5,244281.20000076294,240310.466,240319.80000305176,240325.49,244287.653,8,400,4,,ISIC_7418723.JPG
break,html.Screen,4_53_1,2023-11-02T20:19:18.154Z,,0,,,NaN,,,,,,false,,,,244282.10000228882,244281.90000152588,,244281.60000228882,,244287.653,8,400,,,
break_continue,html.Screen,4_53_2,2023-11-02T20:19:18.154Z,,0,,,NaN,,,,,,false,,,,244282.60000228882,244282.60000228882,,244282.40000152588,,244287.653,8,400,,,
sequence,flow.Sequence,4_53,2023-11-02T20:19:18.154Z,,0,,,3957.1100022888277,completion,,,,,false,,,,244282.80000305176,244282.60000228882,240310.466,240319.80000305176,240325.49,244287.653,8,400,,,
trial,html.Screen,4_54_0,2023-11-02T20:19:20.894Z,,0,2,,2734.2470015258878,response,ISIC_0072703.JPG,8,ISIC_0057286.JPG,ISIC_0072703.JPG,false,1,keypress(m),500,247022.20000076294,247021.90000152588,244270.862,244282.90000152588,244287.653,247028.886,8,400,5,,ISIC_0057286.JPG
break,html.Screen,4_54_1,2023-11-02T20:19:20.895Z,,0,,,NaN,,,,,,false,,,,247023.10000228882,247022.90000152588,,247022.5,,247028.886,8,400,,,
break_continue,html.Screen,4_54_2,2023-11-02T20:19:20.895Z,,0,,,NaN,,,,,,false,,,,247023.60000228882,247023.5,,247023.30000305176,,247028.886,8,400,,,
sequence,flow.Sequence,4_54,2023-11-02T20:19:20.895Z,,0,,,2735.847000000009,completion,,,,,false,,,,247023.80000305176,247023.5,244270.862,244282.90000152588,244287.653,247028.886,8,400,,,
trial,html.Screen,4_55_0,2023-11-02T20:19:23.986Z,,0,2,,3085.814000762941,response,ISIC_7132685.JPG,4,ISIC_0057371.JPG,ISIC_7132685.JPG,false,1,keypress(m),500,250115,250114.70000076294,247008.342,247024,247028.886,250121.664,8,400,6,,ISIC_0057371.JPG
break,html.Screen,4_55_1,2023-11-02T20:19:23.987Z,,0,,,NaN,,,,,,false,,,,250115.90000152588,250115.60000228882,,250115.20000076294,,250121.664,8,400,,,
break_continue,html.Screen,4_55_2,2023-11-02T20:19:23.988Z,,0,,,NaN,,,,,,false,,,,250116.30000305176,250116.20000076294,,250116,,250121.664,8,400,,,
sequence,flow.Sequence,4_55,2023-11-02T20:19:23.988Z,,0,,,3087.314000762941,completion,,,,,false,,,,250116.5,250116.20000076294,247008.342,247024,247028.886,250121.664,8,400,,,
trial,html.Screen,4_56_0,2023-11-02T20:19:26.910Z,,0,2,,2916.236001525889,response,ISIC_0010818.JPG,14,ISIC_0073032.JPG,ISIC_0010818.JPG,false,1,keypress(m),500,253038.20000076294,253037.90000152588,250114.776,250116.70000076294,250121.664,253046.723,8,400,7,,ISIC_0073032.JPG
break,html.Screen,4_56_1,2023-11-02T20:19:26.910Z,,0,,,NaN,,,,,,false,,,,253038.90000152588,253038.80000305176,,253038.40000152588,,253046.723,8,400,,,
break_continue,html.Screen,4_56_2,2023-11-02T20:19:26.911Z,,0,,,NaN,,,,,,false,,,,253039.40000152588,253039.20000076294,,253039.10000228882,,253046.723,8,400,,,
sequence,flow.Sequence,4_56,2023-11-02T20:19:26.911Z,,0,,,2917.5360007629497,completion,,,,,false,,,,253039.60000228882,253039.20000076294,250114.776,250116.60000228882,250121.664,253046.723,8,400,,,
trial,html.Screen,4_57_0,2023-11-02T20:19:29.651Z,,0,2,,2732.0770030517597,response,ISIC_0034036.JPG,6,ISIC_7651944.JPG,ISIC_7651944.JPG,false,0,keypress(z),500,255779.10000228882,255778.80000305176,253032.415,253039.80000305176,253046.723,255795.617,8,400,8,,ISIC_0034036.JPG
break,html.Screen,4_57_1,2023-11-02T20:19:29.651Z,,0,,,NaN,,,,,,false,,,,255779.60000228882,255779.5,,255779.20000076294,,255795.617,8,400,,,
break_continue,html.Screen,4_57_2,2023-11-02T20:19:29.651Z,,0,,,NaN,,,,,,false,,,,255780,255779.90000152588,,255779.80000305176,,255795.617,8,400,,,
sequence,flow.Sequence,4_57,2023-11-02T20:19:29.652Z,,0,,,2733.1770015258808,completion,,,,,false,,,,255780.20000076294,255779.90000152588,253032.415,253039.80000305176,253046.723,255795.617,8,400,,,
trial,html.Screen,4_58_0,2023-11-02T20:19:33.162Z,,0,2,,3494.583000762941,response,ISIC_0924902.JPG,12,ISIC_0013073.JPG,ISIC_0924902.JPG,false,1,keypress(m),500,259290.40000152588,259290.20000076294,255777.159,255780.20000076294,255795.617,259294.625,8,400,9,,ISIC_0013073.JPG
break,html.Screen,4_58_1,2023-11-02T20:19:33.163Z,,0,,,NaN,,,,,,false,,,,259291.40000152588,259291.20000076294,,259290.70000076294,,259294.625,8,400,,,
break_continue,html.Screen,4_58_2,2023-11-02T20:19:33.163Z,,0,,,NaN,,,,,,false,,,,259291.80000305176,259291.70000076294,,259291.60000228882,,259294.625,8,400,,,
sequence,flow.Sequence,4_58,2023-11-02T20:19:33.164Z,,0,,,3496.083000762941,completion,,,,,false,,,,259292,259291.70000076294,255777.159,255780.20000076294,255795.617,259294.625,8,400,,,
trial,html.Screen,4_59_0,2023-11-02T20:19:37.553Z,,0,2,,4386.275001525879,response,ISIC_5514594.JPG,7,ISIC_0030255.JPG,ISIC_5514594.JPG,false,1,keypress(m),500,263681.1000022888,263680.9000015259,259278.69,259292.20000076294,259294.625,263693.897,8,400,10,,ISIC_0030255.JPG
break,html.Screen,4_59_1,2023-11-02T20:19:37.554Z,,0,,,NaN,,,,,,false,,,,263682.1000022888,263681.9000015259,,263681.4000015259,,263693.897,8,400,,,
break_continue,html.Screen,4_59_2,2023-11-02T20:19:37.554Z,,0,,,NaN,,,,,,false,,,,263682.70000076294,263682.5,,263682.4000015259,,263693.897,8,400,,,
sequence,flow.Sequence,4_59,2023-11-02T20:19:37.555Z,,0,,,4387.875,completion,,,,,false,,,,263683,263682.5,259278.69,259292.20000076294,259294.625,263693.897,8,400,,,
trial,html.Screen,4_60_0,2023-11-02T20:19:43.082Z,,0,2,,5516.003001525882,response,ISIC_0013565.JPG,11,ISIC_4885444.JPG,ISIC_4885444.JPG,false,0,keypress(z),500,269210.20000076294,269209.9000015259,263671.249,263683.20000076294,263693.897,269241.984,8,400,11,,ISIC_0013565.JPG
break,html.Screen,4_60_1,2023-11-02T20:19:43.082Z,,0,,,NaN,,,,,,false,,,,269211,269210.80000305176,,269210.5,,269241.984,8,400,,,
break_continue,html.Screen,4_60_2,2023-11-02T20:19:43.083Z,,0,,,NaN,,,,,,false,,,,269211.30000305176,269211.20000076294,,269211.1000022888,,269241.984,8,400,,,
sequence,flow.Sequence,4_60,2023-11-02T20:19:43.083Z,,0,,,5517.303000762942,completion,,,,,false,,,,269211.6000022888,269211.20000076294,263671.249,263683.20000076294,263693.897,269241.984,8,400,,,
trial,html.Screen,4_61_0,2023-11-02T20:19:46.741Z,,0,2,,3627.6160022888216,response,ISIC_0011092.JPG,7,ISIC_5048124.JPG,ISIC_5048124.JPG,false,0,keypress(z),500,272869.9000015259,272869.6000022888,269225.708,269211.80000305176,269241.984,272876.596,8,400,12,,ISIC_0011092.JPG
break,html.Screen,4_61_1,2023-11-02T20:19:46.742Z,,0,,,NaN,,,,,,false,,,,272870.80000305176,272870.6000022888,,272870.20000076294,,272876.596,8,400,,,
break_continue,html.Screen,4_61_2,2023-11-02T20:19:46.743Z,,0,,,NaN,,,,,,false,,,,272871.30000305176,272871.1000022888,,272871,,272876.596,8,400,,,
sequence,flow.Sequence,4_61,2023-11-02T20:19:46.743Z,,0,,,3629.1160022888216,completion,,,,,false,,,,272871.5,272871.1000022888,269225.708,269211.70000076294,269241.984,272876.596,8,400,,,
trial,html.Screen,4_62_0,2023-11-02T20:19:49.664Z,,0,2,,2915.7040030517383,response,ISIC_0031015.JPG,5,ISIC_0026890.JPG,ISIC_0026890.JPG,false,0,keypress(z),500,275792.5,275792.30000305176,272869.704,272871.70000076294,272876.596,275801.444,8,400,13,,ISIC_0031015.JPG
break,html.Screen,4_62_1,2023-11-02T20:19:49.665Z,,0,,,NaN,,,,,,false,,,,275793.4000015259,275793.20000076294,,275792.80000305176,,275801.444,8,400,,,
break_continue,html.Screen,4_62_2,2023-11-02T20:19:49.665Z,,0,,,NaN,,,,,,false,,,,275793.80000305176,275793.6000022888,,275793.5,,275801.444,8,400,,,
sequence,flow.Sequence,4_62,2023-11-02T20:19:49.666Z,,0,,,2917.004002288799,completion,,,,,false,,,,275794,275793.6000022888,272869.704,272871.70000076294,272876.596,275801.444,8,400,,,
trial,html.Screen,4_63_0,2023-11-02T20:19:52.637Z,,0,2,,2963.35600305174,response,ISIC_6855540.JPG,6,ISIC_0032925.JPG,ISIC_6855540.JPG,false,1,keypress(m),500,278765,278764.80000305176,275781.293,275794.20000076294,275801.444,278771.658,8,400,14,,ISIC_0032925.JPG
break,html.Screen,4_63_1,2023-11-02T20:19:52.637Z,,0,,,NaN,,,,,,false,,,,278765.9000015259,278765.70000076294,,278765.30000305176,,278771.658,8,400,,,
break_continue,html.Screen,4_63_2,2023-11-02T20:19:52.638Z,,0,,,NaN,,,,,,false,,,,278766.4000015259,278766.20000076294,,278766.1000022888,,278771.658,8,400,,,
sequence,flow.Sequence,4_63,2023-11-02T20:19:52.638Z,,0,,,2964.7560007629218,completion,,,,,false,,,,278766.70000076294,278766.20000076294,275781.293,275794.20000076294,275801.444,278771.658,8,400,,,
trial,html.Screen,4_64_0,2023-11-02T20:19:56.492Z,,0,2,,3848.5420007629436,response,ISIC_0070313.JPG,11,ISIC_0000462.JPG,ISIC_0000462.JPG,false,0,keypress(z),500,282620.4000015259,282620.20000076294,278765.278,278766.80000305176,278771.658,282627.035,8,400,15,,ISIC_0070313.JPG
break,html.Screen,4_64_1,2023-11-02T20:19:56.493Z,,0,,,NaN,,,,,,false,,,,282621.1000022888,282620.80000305176,,282620.6000022888,,282627.035,8,400,,,
break_continue,html.Screen,4_64_2,2023-11-02T20:19:56.493Z,,0,,,NaN,,,,,,false,,,,282621.4000015259,282621.30000305176,,282621.30000305176,,282627.035,8,400,,,
sequence,flow.Sequence,4_64,2023-11-02T20:19:56.493Z,,0,,,3849.642003051762,completion,,,,,false,,,,282621.70000076294,282621.30000305176,278765.278,278766.70000076294,278771.658,282627.035,8,400,,,
trial,html.Screen,4_65_0,2023-11-02T20:19:59.633Z,,0,2,,3134.565002288844,response,ISIC_0063496.JPG,14,ISIC_0029993.JPG,ISIC_0029993.JPG,false,0,keypress(z),500,285761.80000305176,285761.6000022888,282605.827,282621.9000015259,282627.035,285793.871,8,400,16,,ISIC_0063496.JPG
break,html.Screen,4_65_1,2023-11-02T20:19:59.634Z,,0,,,NaN,,,,,,false,,,,285762.70000076294,285762.5,,285762.20000076294,,285793.871,8,400,,,
break_continue,html.Screen,4_65_2,2023-11-02T20:19:59.635Z,,0,,,NaN,,,,,,false,,,,285763.1000022888,285762.9000015259,,285762.80000305176,,285793.871,8,400,,,
sequence,flow.Sequence,4_65,2023-11-02T20:19:59.635Z,,0,,,3135.8650015259045,completion,,,,,false,,,,285763.30000305176,285762.9000015259,282605.827,282621.9000015259,282627.035,285793.871,8,400,,,
trial,html.Screen,4_66_0,2023-11-02T20:20:02.599Z,,0,2,,2933.1290000000154,response,ISIC_0024591.JPG,10,ISIC_8899350.JPG,ISIC_0024591.JPG,false,1,keypress(m),500,288727.20000076294,288727,285777.285,285763.5,285793.871,288759.657,8,400,17,,ISIC_8899350.JPG
break,html.Screen,4_66_1,2023-11-02T20:20:02.599Z,,0,,,NaN,,,,,,false,,,,288727.9000015259,288727.70000076294,,288727.4000015259,,288759.657,8,400,,,
break_continue,html.Screen,4_66_2,2023-11-02T20:20:02.600Z,,0,,,NaN,,,,,,false,,,,288728.20000076294,288728.20000076294,,288728,,288759.657,8,400,,,
sequence,flow.Sequence,4_66,2023-11-02T20:20:02.600Z,,0,,,2934.329000762955,completion,,,,,false,,,,288728.4000015259,288728.20000076294,285777.285,285763.4000015259,285793.871,288759.657,8,400,,,
trial,html.Screen,4_67_0,2023-11-02T20:20:06.797Z,,0,2,,4165.643003051751,response,ISIC_9529971.JPG,9,ISIC_4646815.JPG,ISIC_4646815.JPG,false,0,keypress(z),500,292925.6000022888,292925.30000305176,288743.009,288728.70000076294,288759.657,292932.271,8,400,18,,ISIC_9529971.JPG
break,html.Screen,4_67_1,2023-11-02T20:20:06.798Z,,0,,,NaN,,,,,,false,,,,292926.5,292926.20000076294,,292925.80000305176,,292932.271,8,400,,,
break_continue,html.Screen,4_67_2,2023-11-02T20:20:06.798Z,,0,,,NaN,,,,,,false,,,,292927,292926.80000305176,,292926.70000076294,,292932.271,8,400,,,
sequence,flow.Sequence,4_67,2023-11-02T20:20:06.799Z,,0,,,4167.143003051751,completion,,,,,false,,,,292927.20000076294,292926.80000305176,288743.009,288728.5,288759.657,292932.271,8,400,,,
trial,html.Screen,4_68_0,2023-11-02T20:20:10.321Z,,0,2,,3516.728999999992,response,ISIC_0027882.JPG,6,ISIC_6592334.JPG,ISIC_6592334.JPG,false,0,keypress(z),500,296449.30000305176,296449,292913.513,292927.4000015259,292932.271,296454.263,8,400,19,,ISIC_0027882.JPG
break,html.Screen,4_68_1,2023-11-02T20:20:10.322Z,,0,,,NaN,,,,,,false,,,,296450.20000076294,296450,,296449.6000022888,,296454.263,8,400,,,
break_continue,html.Screen,4_68_2,2023-11-02T20:20:10.322Z,,0,,,NaN,,,,,,false,,,,296450.70000076294,296450.6000022888,,296450.4000015259,,296454.263,8,400,,,
sequence,flow.Sequence,4_68,2023-11-02T20:20:10.322Z,,0,,,3518.3290022888104,completion,,,,,false,,,,296451,296450.6000022888,292913.513,292927.4000015259,292932.271,296454.263,8,400,,,
trial,html.Screen,4_69_0,2023-11-02T20:20:14.022Z,,0,2,,3696.4370007629623,response,ISIC_3246746.JPG,14,ISIC_0001832.JPG,ISIC_3246746.JPG,false,1,keypress(m),500,300151,300150.70000076294,296448.006,296451.1000022888,296454.263,300159.419,8,400,20,,ISIC_0001832.JPG
break,html.Screen,4_69_1,2023-11-02T20:20:14.023Z,,0,,,NaN,,,,,,false,,,,300151.80000305176,300151.6000022888,,300151.20000076294,,300159.419,8,400,,,
break_continue,html.Screen,4_69_2,2023-11-02T20:20:14.024Z,,0,,,NaN,,,,,,false,,,,300152.30000305176,300152.1000022888,,300152,,300159.419,8,400,,,
sequence,flow.Sequence,4_69,2023-11-02T20:20:14.024Z,,0,,,3697.837002288841,completion,,,,,false,,,,300152.5,300152.1000022888,296448.006,296451.1000022888,296454.263,300159.419,8,400,,,
trial,html.Screen,4_70_0,2023-11-02T20:20:17.621Z,,0,2,,3589.681002288824,response,ISIC_0024317.JPG,16,ISIC_4320200.JPG,ISIC_4320200.JPG,false,0,keypress(z),500,303749.5,303749.1000022888,300151.375,300152.70000076294,300159.419,303756.109,8,400,21,,ISIC_0024317.JPG
break,html.Screen,4_70_1,2023-11-02T20:20:17.622Z,,0,,,NaN,,,,,,false,,,,303750.30000305176,303750.1000022888,,303749.70000076294,,303756.109,8,400,,,
break_continue,html.Screen,4_70_2,2023-11-02T20:20:17.622Z,,0,,,NaN,,,,,,false,,,,303750.80000305176,303750.70000076294,,303750.6000022888,,303756.109,8,400,,,
sequence,flow.Sequence,4_70,2023-11-02T20:20:17.623Z,,0,,,3591.281000762945,completion,,,,,false,,,,303751.1000022888,303750.70000076294,300151.375,300152.6000022888,300159.419,303756.109,8,400,,,
trial,html.Screen,4_71_0,2023-11-02T20:20:21.102Z,,0,2,,3474.0910007629427,response,ISIC_0028898.JPG,14,ISIC_0413173.JPG,ISIC_0413173.JPG,false,0,keypress(z),500,307230.30000305176,307230.20000076294,303734.126,303751.30000305176,303756.109,307236.83,8,400,22,,ISIC_0028898.JPG
break,html.Screen,4_71_1,2023-11-02T20:20:21.102Z,,0,,,NaN,,,,,,false,,,,307230.70000076294,307230.6000022888,,307230.30000305176,,307236.83,8,400,,,
break_continue,html.Screen,4_71_2,2023-11-02T20:20:21.102Z,,0,,,NaN,,,,,,false,,,,307230.9000015259,307230.80000305176,,307230.70000076294,,307236.83,8,400,,,
sequence,flow.Sequence,4_71,2023-11-02T20:20:21.102Z,,0,,,3474.691003051761,completion,,,,,false,,,,307230.9000015259,307230.80000305176,303734.126,303751.20000076294,303756.109,307236.83,8,400,,,
trial,html.Screen,4_72_0,2023-11-02T20:20:24.233Z,,0,2,,3124.6699999999837,response,ISIC_0058046.JPG,13,ISIC_9936773.JPG,ISIC_0058046.JPG,false,1,keypress(m),500,310361.80000305176,310361.5,307214.752,307231,307236.83,310368.43,8,400,23,,ISIC_9936773.JPG
break,html.Screen,4_72_1,2023-11-02T20:20:24.234Z,,0,,,NaN,,,,,,false,,,,310362.6000022888,310362.4000015259,,310362,,310368.43,8,400,,,
break_continue,html.Screen,4_72_2,2023-11-02T20:20:24.235Z,,0,,,NaN,,,,,,false,,,,310363.1000022888,310363,,310362.80000305176,,310368.43,8,400,,,
sequence,flow.Sequence,4_72,2023-11-02T20:20:24.235Z,,0,,,3126.1699999999837,completion,,,,,false,,,,310363.30000305176,310363,307214.752,307231,307236.83,310368.43,8,400,,,
trial,html.Screen,4_73_0,2023-11-02T20:20:27.473Z,,0,2,,3232.6700022888253,response,ISIC_0693902.JPG,9,ISIC_0025814.JPG,ISIC_0693902.JPG,false,1,keypress(m),500,313601.4000015259,313601.1000022888,310355.074,310363.5,310368.43,313615.368,8,400,24,,ISIC_0025814.JPG
break,html.Screen,4_73_1,2023-11-02T20:20:27.474Z,,0,,,NaN,,,,,,false,,,,313602.30000305176,313602,,313601.70000076294,,313615.368,8,400,,,
break_continue,html.Screen,4_73_2,2023-11-02T20:20:27.474Z,,0,,,NaN,,,,,,false,,,,313602.80000305176,313602.5,,313602.4000015259,,313615.368,8,400,,,
sequence,flow.Sequence,4_73,2023-11-02T20:20:27.474Z,,0,,,3234.070000000007,completion,,,,,false,,,,313603,313602.5,310355.074,310363.5,310368.43,313615.368,8,400,,,
trial,html.Screen,4_74_0,2023-11-02T20:20:30.697Z,,0,2,,3210.032001525862,response,ISIC_0001832.JPG,6,ISIC_4974868.JPG,ISIC_0001832.JPG,false,1,keypress(m),500,316825.70000076294,316825.4000015259,313599.151,313603.1000022888,313615.368,316832.301,8,400,25,,ISIC_4974868.JPG
break,html.Screen,4_74_1,2023-11-02T20:20:30.698Z,,0,,,NaN,,,,,,false,,,,316826.6000022888,316826.30000305176,,316826,,316832.301,8,400,,,
break_continue,html.Screen,4_74_2,2023-11-02T20:20:30.698Z,,0,,,NaN,,,,,,false,,,,316827,316826.80000305176,,316826.80000305176,,316832.301,8,400,,,
sequence,flow.Sequence,4_74,2023-11-02T20:20:30.699Z,,0,,,3211.432003051741,completion,,,,,false,,,,316827.30000305176,316826.80000305176,313599.151,313603.1000022888,313615.368,316832.301,8,400,,,
trial,html.Screen,4_75_0,2023-11-02T20:20:35.318Z,,0,2,,4614.099001525901,response,ISIC_9063429.JPG,16,ISIC_0033399.JPG,ISIC_9063429.JPG,false,1,keypress(m),500,321446.70000076294,321446.4000015259,316814.878,316827.5,316832.301,321469.89,8,400,26,,ISIC_0033399.JPG
break,html.Screen,4_75_1,2023-11-02T20:20:35.319Z,,0,,,NaN,,,,,,false,,,,321447.6000022888,321447.30000305176,,321447,,321469.89,8,400,,,
break_continue,html.Screen,4_75_2,2023-11-02T20:20:35.319Z,,0,,,NaN,,,,,,false,,,,321448.1000022888,321447.9000015259,,321447.80000305176,,321469.89,8,400,,,
sequence,flow.Sequence,4_75,2023-11-02T20:20:35.320Z,,0,,,4615.599001525901,completion,,,,,false,,,,321448.4000015259,321447.9000015259,316814.878,316827.4000015259,316832.301,321469.89,8,400,,,
trial,html.Screen,4_76_0,2023-11-02T20:20:38.609Z,,0,2,,3267.910003051744,response,ISIC_0333091.JPG,10,ISIC_1601532.JPG,ISIC_1601532.JPG,false,0,keypress(z),500,324737.9000015259,324737.80000305176,321438.582,321448.6000022888,321469.89,324744.309,8,400,27,,ISIC_0333091.JPG
break,html.Screen,4_76_1,2023-11-02T20:20:38.610Z,,0,,,NaN,,,,,,false,,,,324738.6000022888,324738.4000015259,,324738.20000076294,,324744.309,8,400,,,
break_continue,html.Screen,4_76_2,2023-11-02T20:20:38.610Z,,0,,,NaN,,,,,,false,,,,324738.9000015259,324738.80000305176,,324738.70000076294,,324744.309,8,400,,,
sequence,flow.Sequence,4_76,2023-11-02T20:20:38.611Z,,0,,,3268.910003051744,completion,,,,,false,,,,324739.1000022888,324738.80000305176,321438.582,321448.6000022888,321469.89,324744.309,8,400,,,
trial,html.Screen,4_77_0,2023-11-02T20:20:41.343Z,,0,2,,2727.1909999999916,response,ISIC_3651451.JPG,13,ISIC_0032671.JPG,ISIC_3651451.JPG,false,1,keypress(m),500,327471.80000305176,327471.5,324726.796,324739.20000076294,324744.309,327478.793,8,400,28,,ISIC_0032671.JPG
break,html.Screen,4_77_1,2023-11-02T20:20:41.344Z,,0,,,NaN,,,,,,false,,,,327472.70000076294,327472.5,,327472.1000022888,,327478.793,8,400,,,
break_continue,html.Screen,4_77_2,2023-11-02T20:20:41.345Z,,0,,,NaN,,,,,,false,,,,327473.20000076294,327473,,327472.9000015259,,327478.793,8,400,,,
sequence,flow.Sequence,4_77,2023-11-02T20:20:41.345Z,,0,,,2728.6909999999916,completion,,,,,false,,,,327473.4000015259,327473,324726.796,324739.20000076294,324744.309,327478.793,8,400,,,
trial,html.Screen,4_78_0,2023-11-02T20:20:45.657Z,,0,2,,4306.807002288813,response,ISIC_5647554.JPG,14,ISIC_8795740.JPG,ISIC_5647554.JPG,false,1,keypress(m),500,331785.9000015259,331785.6000022888,327466.448,327473.6000022888,327478.793,331792.991,8,400,29,,ISIC_8795740.JPG
break,html.Screen,4_78_1,2023-11-02T20:20:45.658Z,,0,,,NaN,,,,,,false,,,,331786.70000076294,331786.5,,331786.1000022888,,331792.991,8,400,,,
break_continue,html.Screen,4_78_2,2023-11-02T20:20:45.659Z,,0,,,NaN,,,,,,false,,,,331787.1000022888,331787,,331786.9000015259,,331792.991,8,400,,,
sequence,flow.Sequence,4_78,2023-11-02T20:20:45.659Z,,0,,,4308.206999999995,completion,,,,,false,,,,331787.4000015259,331787,327466.448,327473.5,327478.793,331792.991,8,400,,,
trial,html.Screen,4_79_0,2023-11-02T20:20:49.139Z,,0,2,,3473.7090007629595,response,ISIC_0034289.JPG,16,ISIC_0063190.JPG,ISIC_0063190.JPG,false,0,keypress(z),500,335267.1000022888,335266.70000076294,331777.223,331787.6000022888,331792.991,335273.778,8,400,30,,ISIC_0034289.JPG
break,html.Screen,4_79_1,2023-11-02T20:20:49.139Z,,0,,,NaN,,,,,,false,,,,335267.9000015259,335267.80000305176,,335267.4000015259,,335273.778,8,400,,,
break_continue,html.Screen,4_79_2,2023-11-02T20:20:49.140Z,,0,,,NaN,,,,,,false,,,,335268.5,335268.30000305176,,335268.20000076294,,335273.778,8,400,,,
sequence,flow.Sequence,4_79,2023-11-02T20:20:49.140Z,,0,,,3475.309003051778,completion,,,,,false,,,,335268.70000076294,335268.30000305176,331777.223,331787.5,331792.991,335273.778,8,400,,,
trial,html.Screen,4_80_0,2023-11-02T20:20:52.141Z,,0,2,,2995.5220030517667,response,ISIC_0069056.JPG,15,ISIC_0579562.JPG,ISIC_0069056.JPG,false,1,keypress(m),500,338269.6000022888,338269.30000305176,335266.257,335269,335273.778,338276.097,8,400,31,,ISIC_0579562.JPG
break,html.Screen,4_80_1,2023-11-02T20:20:52.142Z,,0,,,NaN,,,,,,false,,,,338270.4000015259,338270.20000076294,,338269.80000305176,,338276.097,8,400,,,
break_continue,html.Screen,4_80_2,2023-11-02T20:20:52.142Z,,0,,,NaN,,,,,,false,,,,338270.80000305176,338270.80000305176,,338270.6000022888,,338276.097,8,400,,,
sequence,flow.Sequence,4_80,2023-11-02T20:20:52.143Z,,0,,,2997.0220030517667,completion,,,,,false,,,,338271.1000022888,338270.80000305176,335266.257,335268.80000305176,335273.778,338276.097,8,400,,,
trial,html.Screen,4_81_0,2023-11-02T20:20:55.928Z,,0,2,,3780.203003051749,response,ISIC_5919355.JPG,15,ISIC_0033121.JPG,ISIC_5919355.JPG,false,1,keypress(m),500,342056.6000022888,342056.30000305176,338262.885,338271.20000076294,338276.097,342062.791,8,400,32,,ISIC_0033121.JPG
break,html.Screen,4_81_1,2023-11-02T20:20:55.929Z,,0,,,NaN,,,,,,false,,,,342057.5,342057.20000076294,,342056.80000305176,,342062.791,8,400,,,
break_continue,html.Screen,4_81_2,2023-11-02T20:20:55.929Z,,0,,,NaN,,,,,,false,,,,342058,342057.80000305176,,342057.70000076294,,342062.791,8,400,,,
sequence,flow.Sequence,4_81,2023-11-02T20:20:55.930Z,,0,,,3781.703003051749,completion,,,,,false,,,,342058.20000076294,342057.80000305176,338262.885,338271.20000076294,338276.097,342062.791,8,400,,,
trial,html.Screen,4_82_0,2023-11-02T20:20:58.975Z,,0,2,,3040.5090030517313,response,ISIC_9776851.JPG,5,ISIC_0027024.JPG,ISIC_9776851.JPG,false,1,keypress(m),500,345103.6000022888,345103.30000305176,342049.142,342058.5,342062.791,345111.022,8,400,33,,ISIC_0027024.JPG
break,html.Screen,4_82_1,2023-11-02T20:20:58.976Z,,0,,,NaN,,,,,,false,,,,345104.5,345104.30000305176,,345103.9000015259,,345111.022,8,400,,,
break_continue,html.Screen,4_82_2,2023-11-02T20:20:58.976Z,,0,,,NaN,,,,,,false,,,,345105,345104.70000076294,,345104.70000076294,,345111.022,8,400,,,
sequence,flow.Sequence,4_82,2023-11-02T20:20:58.977Z,,0,,,3041.909000762913,completion,,,,,false,,,,345105.20000076294,345104.70000076294,342049.142,342058.30000305176,342062.791,345111.022,8,400,,,
trial,html.Screen,4_83_0,2023-11-02T20:21:03.049Z,,0,2,,4066.478000000003,response,ISIC_5798331.JPG,6,ISIC_5729818.JPG,ISIC_5729818.JPG,false,0,keypress(z),500,349177.80000305176,349177.5,345091.148,345105.30000305176,345111.022,349184.51,8,400,34,,ISIC_5798331.JPG
break,html.Screen,4_83_1,2023-11-02T20:21:03.050Z,,0,,,NaN,,,,,,false,,,,349178.80000305176,349178.4000015259,,349178.1000022888,,349184.51,8,400,,,
break_continue,html.Screen,4_83_2,2023-11-02T20:21:03.051Z,,0,,,NaN,,,,,,false,,,,349179.20000076294,349179.1000022888,,349178.9000015259,,349184.51,8,400,,,
sequence,flow.Sequence,4_83,2023-11-02T20:21:03.051Z,,0,,,4068.078002288821,completion,,,,,false,,,,349179.4000015259,349179.1000022888,345091.148,345105.30000305176,345111.022,349184.51,8,400,,,
trial,html.Screen,4_84_0,2023-11-02T20:21:06.837Z,,0,2,,3780.7900030517485,response,ISIC_0028565.JPG,11,ISIC_0071196.JPG,ISIC_0028565.JPG,false,1,keypress(m),500,352965.6000022888,352965.30000305176,349165.213,349179.6000022888,349184.51,352972.14,8,400,35,,ISIC_0071196.JPG
break,html.Screen,4_84_1,2023-11-02T20:21:06.838Z,,0,,,NaN,,,,,,false,,,,352966.4000015259,352966.20000076294,,352965.80000305176,,352972.14,8,400,,,
break_continue,html.Screen,4_84_2,2023-11-02T20:21:06.838Z,,0,,,NaN,,,,,,false,,,,352966.9000015259,352966.80000305176,,352966.6000022888,,352972.14,8,400,,,
sequence,flow.Sequence,4_84,2023-11-02T20:21:06.839Z,,0,,,3782.2900030517485,completion,,,,,false,,,,352967.20000076294,352966.80000305176,349165.213,349179.5,349184.51,352972.14,8,400,,,
trial,html.Screen,4_85_0,2023-11-02T20:21:09.825Z,,0,2,,2981.0600007629255,response,ISIC_0032094.JPG,7,ISIC_0024300.JPG,ISIC_0024300.JPG,false,0,keypress(z),500,355953.6000022888,355953.20000076294,352961.122,352967.30000305176,352972.14,355960.173,8,400,36,,ISIC_0032094.JPG
break,html.Screen,4_85_1,2023-11-02T20:21:09.826Z,,0,,,NaN,,,,,,false,,,,355954.30000305176,355954.1000022888,,355953.80000305176,,355960.173,8,400,,,
break_continue,html.Screen,4_85_2,2023-11-02T20:21:09.826Z,,0,,,NaN,,,,,,false,,,,355954.80000305176,355954.80000305176,,355954.5,,355960.173,8,400,,,
sequence,flow.Sequence,4_85,2023-11-02T20:21:09.827Z,,0,,,2982.660003051744,completion,,,,,false,,,,355955.1000022888,355954.80000305176,352961.122,352967.20000076294,352972.14,355960.173,8,400,,,
trial,html.Screen,4_86_0,2023-11-02T20:21:12.765Z,,0,2,,2932.82699999999,response,ISIC_3397174.JPG,10,ISIC_1611503.JPG,ISIC_3397174.JPG,false,1,keypress(m),500,358893.30000305176,358893,355944.189,355955.30000305176,355960.173,358899.88,8,400,37,,ISIC_1611503.JPG
break,html.Screen,4_86_1,2023-11-02T20:21:12.766Z,,0,,,NaN,,,,,,false,,,,358894.20000076294,358893.9000015259,,358893.5,,358899.88,8,400,,,
break_continue,html.Screen,4_86_2,2023-11-02T20:21:12.766Z,,0,,,NaN,,,,,,false,,,,358894.6000022888,358894.5,,358894.4000015259,,358899.88,8,400,,,
sequence,flow.Sequence,4_86,2023-11-02T20:21:12.766Z,,0,,,2934.32699999999,completion,,,,,false,,,,358895,358894.5,355944.189,355955.20000076294,355960.173,358899.88,8,400,,,
trial,html.Screen,4_87_0,2023-11-02T20:21:15.643Z,,0,2,,2871.820000762935,response,ISIC_0009886.JPG,11,ISIC_7984569.JPG,ISIC_7984569.JPG,false,0,keypress(z),500,361772,361771.70000076294,358885.89,358895.20000076294,358899.88,361778.53,8,400,38,,ISIC_0009886.JPG
break,html.Screen,4_87_1,2023-11-02T20:21:15.644Z,,0,,,NaN,,,,,,false,,,,361772.80000305176,361772.5,,361772.20000076294,,361778.53,8,400,,,
break_continue,html.Screen,4_87_2,2023-11-02T20:21:15.645Z,,0,,,NaN,,,,,,false,,,,361773.30000305176,361773.1000022888,,361773,,361778.53,8,400,,,
sequence,flow.Sequence,4_87,2023-11-02T20:21:15.645Z,,0,,,2873.2200022888137,completion,,,,,false,,,,361773.5,361773.1000022888,358885.89,358895.20000076294,358899.88,361778.53,8,400,,,
trial,html.Screen,4_88_0,2023-11-02T20:21:19.352Z,,0,2,,3701.6700007629115,response,ISIC_0062702.JPG,6,ISIC_0010848.JPG,ISIC_0062702.JPG,false,1,keypress(m),500,365480.6000022888,365480.20000076294,361767.066,361773.5,361778.53,365487.06,8,400,39,,ISIC_0010848.JPG
break,html.Screen,4_88_1,2023-11-02T20:21:19.353Z,,0,,,NaN,,,,,,false,,,,365481.4000015259,365481.1000022888,,365480.80000305176,,365487.06,8,400,,,
break_continue,html.Screen,4_88_2,2023-11-02T20:21:19.353Z,,0,,,NaN,,,,,,false,,,,365481.80000305176,365481.70000076294,,365481.5,,365487.06,8,400,,,
sequence,flow.Sequence,4_88,2023-11-02T20:21:19.353Z,,0,,,3703.1700007629115,completion,,,,,false,,,,365482,365481.70000076294,361767.066,361773.5,361778.53,365487.06,8,400,,,
trial,html.Screen,4_89_0,2023-11-02T20:21:22.013Z,,0,2,,2654.140000762942,response,ISIC_0010393.JPG,12,ISIC_0007749.JPG,ISIC_0007749.JPG,false,0,keypress(z),500,368141.4000015259,368141.20000076294,365470.165,365482.20000076294,365487.06,368148.024,8,400,40,,ISIC_0010393.JPG
break,html.Screen,4_89_1,2023-11-02T20:21:22.014Z,,0,,,NaN,,,,,,false,,,,368142.20000076294,368142,,368141.6000022888,,368148.024,8,400,,,
break_continue,html.Screen,4_89_2,2023-11-02T20:21:22.014Z,,0,,,NaN,,,,,,false,,,,368142.6000022888,368142.5,,368142.4000015259,,368148.024,8,400,,,
sequence,flow.Sequence,4_89,2023-11-02T20:21:22.014Z,,0,,,2655.4400000000023,completion,,,,,false,,,,368142.80000305176,368142.5,365470.165,365482.1000022888,365487.06,368148.024,8,400,,,
trial,html.Screen,4_90_0,2023-11-02T20:21:24.934Z,,0,2,,2913.976000000024,response,ISIC_0011517.JPG,6,ISIC_0028226.JPG,ISIC_0028226.JPG,false,0,keypress(z),500,371062.20000076294,371062,368134.883,368142.9000015259,368148.024,371068.961,8,400,41,,ISIC_0011517.JPG
break,html.Screen,4_90_1,2023-11-02T20:21:24.934Z,,0,,,NaN,,,,,,false,,,,371063,371062.80000305176,,371062.5,,371068.961,8,400,,,
break_continue,html.Screen,4_90_2,2023-11-02T20:21:24.935Z,,0,,,NaN,,,,,,false,,,,371063.5,371063.30000305176,,371063.20000076294,,371068.961,8,400,,,
sequence,flow.Sequence,4_90,2023-11-02T20:21:24.935Z,,0,,,2915.276003051782,completion,,,,,false,,,,371063.70000076294,371063.30000305176,368134.883,368142.9000015259,368148.024,371068.961,8,400,,,
trial,html.Screen,4_91_0,2023-11-02T20:21:28.620Z,,0,2,,3679.0389999999898,response,ISIC_0028469.JPG,9,ISIC_3655327.JPG,ISIC_3655327.JPG,false,0,keypress(z),500,374748.30000305176,374748,371050.22,371063.9000015259,371068.961,374754.9,8,400,42,,ISIC_0028469.JPG
break,html.Screen,4_91_1,2023-11-02T20:21:28.621Z,,0,,,NaN,,,,,,false,,,,374749.30000305176,374749,,374748.70000076294,,374754.9,8,400,,,
break_continue,html.Screen,4_91_2,2023-11-02T20:21:28.621Z,,0,,,NaN,,,,,,false,,,,374749.80000305176,374749.70000076294,,374749.5,,374754.9,8,400,,,
sequence,flow.Sequence,4_91,2023-11-02T20:21:28.621Z,,0,,,3680.739000762929,completion,,,,,false,,,,374750.1000022888,374749.70000076294,371050.22,371063.9000015259,371068.961,374754.9,8,400,,,
trial,html.Screen,4_92_0,2023-11-02T20:21:32.377Z,,0,2,,3750.300000762916,response,ISIC_9482039.JPG,5,ISIC_6548307.JPG,ISIC_6548307.JPG,false,0,keypress(z),500,378505.5,378505.20000076294,374741.729,374750.20000076294,374754.9,378512.411,8,400,43,,ISIC_9482039.JPG
break,html.Screen,4_92_1,2023-11-02T20:21:32.378Z,,0,,,NaN,,,,,,false,,,,378506.5,378506.20000076294,,378505.80000305176,,378512.411,8,400,,,
break_continue,html.Screen,4_92_2,2023-11-02T20:21:32.378Z,,0,,,NaN,,,,,,false,,,,378507,378506.80000305176,,378506.70000076294,,378512.411,8,400,,,
sequence,flow.Sequence,4_92,2023-11-02T20:21:32.379Z,,0,,,3751.9000030517345,completion,,,,,false,,,,378507.30000305176,378506.80000305176,374741.729,374750.20000076294,374754.9,378512.411,8,400,,,
trial,html.Screen,4_93_0,2023-11-02T20:21:36.130Z,,0,2,,3746.1890022887965,response,ISIC_0056723.JPG,10,ISIC_0061343.JPG,ISIC_0061343.JPG,false,0,keypress(z),500,382258.9000015259,382258.6000022888,378492.391,378507.4000015259,378512.411,382265.625,8,400,44,,ISIC_0056723.JPG
break,html.Screen,4_93_1,2023-11-02T20:21:36.131Z,,0,,,NaN,,,,,,false,,,,382259.80000305176,382259.6000022888,,382259.20000076294,,382265.625,8,400,,,
break_continue,html.Screen,4_93_2,2023-11-02T20:21:36.132Z,,0,,,NaN,,,,,,false,,,,382260.4000015259,382260.20000076294,,382260,,382265.625,8,400,,,
sequence,flow.Sequence,4_93,2023-11-02T20:21:36.132Z,,0,,,3747.7890007629176,completion,,,,,false,,,,382260.6000022888,382260.20000076294,378492.391,378507.4000015259,378512.411,382265.625,8,400,,,
trial,html.Screen,4_94_0,2023-11-02T20:21:39.660Z,,0,2,,3522.375,response,ISIC_0014336.JPG,13,ISIC_0064761.JPG,ISIC_0064761.JPG,false,0,keypress(z),500,385788.20000076294,385788,382245.338,382260.80000305176,382265.625,385794.899,8,400,45,,ISIC_0014336.JPG
break,html.Screen,4_94_1,2023-11-02T20:21:39.661Z,,0,,,NaN,,,,,,false,,,,385789.20000076294,385789,,385788.6000022888,,385794.899,8,400,,,
break_continue,html.Screen,4_94_2,2023-11-02T20:21:39.661Z,,0,,,NaN,,,,,,false,,,,385789.6000022888,385789.5,,385789.30000305176,,385794.899,8,400,,,
sequence,flow.Sequence,4_94,2023-11-02T20:21:39.661Z,,0,,,3523.875,completion,,,,,false,,,,385789.9000015259,385789.5,382245.338,382260.80000305176,382265.625,385794.899,8,400,,,
trial,html.Screen,4_95_0,2023-11-02T20:21:43.209Z,,0,2,,3542.3010007629637,response,ISIC_0011530.JPG,8,ISIC_0013936.JPG,ISIC_0013936.JPG,false,0,keypress(z),500,389337.6000022888,389337.20000076294,385779.361,385790.1000022888,385794.899,389344.926,8,400,46,,ISIC_0011530.JPG
break,html.Screen,4_95_1,2023-11-02T20:21:43.210Z,,0,,,NaN,,,,,,false,,,,389338.4000015259,389338.30000305176,,389337.9000015259,,389344.926,8,400,,,
break_continue,html.Screen,4_95_2,2023-11-02T20:21:43.210Z,,0,,,NaN,,,,,,false,,,,389339.1000022888,389338.9000015259,,389338.70000076294,,389344.926,8,400,,,
sequence,flow.Sequence,4_95,2023-11-02T20:21:43.211Z,,0,,,3544.001001525903,completion,,,,,false,,,,389339.30000305176,389338.9000015259,385779.361,385790.1000022888,385794.899,389344.926,8,400,,,
trial,html.Screen,4_96_0,2023-11-02T20:21:46.109Z,,0,2,,2892.1740022888407,response,ISIC_0234248.JPG,6,ISIC_7138875.JPG,ISIC_0234248.JPG,false,1,keypress(m),500,392237.4000015259,392237.1000022888,389326.309,389339.5,389344.926,392269.425,8,400,47,,ISIC_7138875.JPG
break,html.Screen,4_96_1,2023-11-02T20:21:46.110Z,,0,,,NaN,,,,,,false,,,,392238.1000022888,392238,,392237.6000022888,,392269.425,8,400,,,
break_continue,html.Screen,4_96_2,2023-11-02T20:21:46.110Z,,0,,,NaN,,,,,,false,,,,392238.70000076294,392238.4000015259,,392238.4000015259,,392269.425,8,400,,,
sequence,flow.Sequence,4_96,2023-11-02T20:21:46.110Z,,0,,,2893.4740015259013,completion,,,,,false,,,,392238.9000015259,392238.4000015259,389326.309,389339.5,389344.926,392269.425,8,400,,,
trial,html.Screen,4_97_0,2023-11-02T20:21:48.827Z,,0,2,,2685.8750030517695,response,ISIC_2266715.JPG,6,ISIC_0027604.JPG,ISIC_2266715.JPG,false,1,keypress(m),500,394955.6000022888,394955.30000305176,392252.751,392239.1000022888,392269.425,394962.129,8,400,48,,ISIC_0027604.JPG
break,html.Screen,4_97_1,2023-11-02T20:21:48.828Z,,0,,,NaN,,,,,,false,,,,394956.5,394956.30000305176,,394955.9000015259,,394962.129,8,400,,,
break_continue,html.Screen,4_97_2,2023-11-02T20:21:48.828Z,,0,,,NaN,,,,,,false,,,,394957.1000022888,394956.9000015259,,394956.80000305176,,394962.129,8,400,,,
sequence,flow.Sequence,4_97,2023-11-02T20:21:48.829Z,,0,,,2687.4750015258905,completion,,,,,false,,,,394957.30000305176,394956.9000015259,392252.751,392239.1000022888,392269.425,394962.129,8,400,,,
trial,html.Screen,4_98_0,2023-11-02T20:21:51.796Z,,0,2,,2961.971002288803,response,ISIC_0026402.JPG,11,ISIC_2612661.JPG,ISIC_0026402.JPG,false,1,keypress(m),500,397924.4000015259,397924.1000022888,394948.166,394957.6000022888,394962.129,397931.184,8,400,49,,ISIC_2612661.JPG
break,html.Screen,4_98_1,2023-11-02T20:21:51.797Z,,0,,,NaN,,,,,,false,,,,397925.5,397925.20000076294,,397924.80000305176,,397931.184,8,400,,,
break_continue,html.Screen,4_98_2,2023-11-02T20:21:51.798Z,,0,,,NaN,,,,,,false,,,,397926.20000076294,397925.80000305176,,397925.70000076294,,397931.184,8,400,,,
sequence,flow.Sequence,4_98,2023-11-02T20:21:51.798Z,,0,,,2963.6710030517424,completion,,,,,false,,,,397926.4000015259,397925.80000305176,394948.166,394957.5,394962.129,397931.184,8,400,,,
trial,html.Screen,4_99_0,2023-11-02T20:21:55.244Z,,0,2,,3441.516000762931,response,ISIC_4266533.JPG,13,ISIC_0027863.JPG,ISIC_4266533.JPG,false,1,keypress(m),500,401373,401372.70000076294,397912.21,397926.6000022888,397931.184,401380.953,8,400,50,,ISIC_0027863.JPG
break,html.Screen,4_99_1,2023-11-02T20:22:05.229Z,,0,,,9992.132000000041,timeout,,,,,false,,,,411357.4000015259,411356.434,401365.055,401373.30000305176,401380.953,411373.085,8,400,,,
break_continue,html.Screen,4_99_2,2023-11-02T20:22:35.902Z,,0,,,30634.11500076292,response,,,,,false,continue,keypress(Space),,442032.30000305176,442007.20000076294,411356.434,411357.6000022888,411373.085,442039.119,8,400,,,
sequence,flow.Sequence,4_99,2023-11-02T20:22:35.902Z,,0,,,44076.01600076293,completion,,,,,false,,,,442032.6000022888,442007.20000076294,397912.21,397926.5,397931.184,442039.119,8,400,,,
trial,html.Screen,4_100_0,2023-11-02T20:22:38.742Z,,0,3,,2832.781001525873,response,ISIC_8766254.JPG,19,ISIC_0046609.JPG,ISIC_8766254.JPG,false,1,keypress(m),500,444872.20000076294,444871.9000015259,442020.102,442032.70000076294,442039.119,444880.669,8,400,1,,ISIC_0046609.JPG
break,html.Screen,4_100_1,2023-11-02T20:22:38.743Z,,0,,,NaN,,,,,,false,,,,444873.30000305176,444873,,444872.5,,444880.669,8,400,,,
break_continue,html.Screen,4_100_2,2023-11-02T20:22:38.743Z,,0,,,NaN,,,,,,false,,,,444873.70000076294,444873.5,,444873.4000015259,,444880.669,8,400,,,
sequence,flow.Sequence,4_100,2023-11-02T20:22:38.744Z,,0,,,2834.380999999994,completion,,,,,false,,,,444874,444873.5,442020.102,442032.6000022888,442039.119,444880.669,8,400,,,
trial,html.Screen,4_101_0,2023-11-02T20:22:41.731Z,,0,3,,2981.031000762945,response,ISIC_8504479.JPG,14,ISIC_0014150.JPG,ISIC_8504479.JPG,false,1,keypress(m),500,447861.9000015259,447861.70000076294,444868.951,444874.20000076294,444880.669,447868.573,8,400,2,,ISIC_0014150.JPG
break,html.Screen,4_101_1,2023-11-02T20:22:41.732Z,,0,,,NaN,,,,,,false,,,,447862.80000305176,447862.6000022888,,447862.1000022888,,447868.573,8,400,,,
break_continue,html.Screen,4_101_2,2023-11-02T20:22:41.733Z,,0,,,NaN,,,,,,false,,,,447863.4000015259,447863.20000076294,,447863,,447868.573,8,400,,,
sequence,flow.Sequence,4_101,2023-11-02T20:22:41.733Z,,0,,,2982.531000762945,completion,,,,,false,,,,447863.6000022888,447863.20000076294,444868.951,444874.20000076294,444880.669,447868.573,8,400,,,
trial,html.Screen,4_102_0,2023-11-02T20:22:45.216Z,,0,3,,3477.5270022888435,response,ISIC_8375123.JPG,8,ISIC_0010442.JPG,ISIC_8375123.JPG,false,1,keypress(m),500,451346.4000015259,451346.1000022888,447849.533,447863.80000305176,447868.573,451352.952,8,400,3,,ISIC_0010442.JPG
break,html.Screen,4_102_1,2023-11-02T20:22:45.217Z,,0,,,NaN,,,,,,false,,,,451347.20000076294,451347,,451346.6000022888,,451352.952,8,400,,,
break_continue,html.Screen,4_102_2,2023-11-02T20:22:45.217Z,,0,,,NaN,,,,,,false,,,,451347.80000305176,451347.6000022888,,451347.4000015259,,451352.952,8,400,,,
sequence,flow.Sequence,4_102,2023-11-02T20:22:45.218Z,,0,,,3479.0270022888435,completion,,,,,false,,,,451348,451347.6000022888,447849.533,447863.80000305176,447868.573,451352.952,8,400,,,
trial,html.Screen,4_103_0,2023-11-02T20:22:49.435Z,,0,3,,4211.648002288828,response,ISIC_7562175.JPG,5,ISIC_0056391.JPG,ISIC_0056391.JPG,false,0,keypress(z),500,455564.9000015259,455564.6000022888,451339.355,451348.20000076294,451352.952,455567.342,8,400,4,,ISIC_7562175.JPG
break,html.Screen,4_103_1,2023-11-02T20:22:49.435Z,,0,,,NaN,,,,,,false,,,,455565.80000305176,455565.6000022888,,455565.20000076294,,455567.342,8,400,,,
break_continue,html.Screen,4_103_2,2023-11-02T20:22:49.436Z,,0,,,NaN,,,,,,false,,,,455566.30000305176,455566.20000076294,,455566,,455567.342,8,400,,,
sequence,flow.Sequence,4_103,2023-11-02T20:22:49.436Z,,0,,,4213.248000762949,completion,,,,,false,,,,455566.6000022888,455566.20000076294,451339.355,451348.1000022888,451352.952,455567.342,8,400,,,
trial,html.Screen,4_104_0,2023-11-02T20:23:00.914Z,,0,3,,11509.233000000007,timeout,ISIC_0256715.JPG,13,ISIC_0839675.JPG,,false,,,500,467044.6000022888,467044.30000305176,455565.539,455566.80000305176,455567.342,467076.575,8,400,5,,
break,html.Screen,4_104_1,2023-11-02T20:23:00.915Z,,0,,,NaN,,,,,,false,,,,467045.4000015259,467045.20000076294,,467044.80000305176,,467076.575,8,400,,,
break_continue,html.Screen,4_104_2,2023-11-02T20:23:00.916Z,,0,,,NaN,,,,,,false,,,,467045.9000015259,467045.80000305176,,467045.6000022888,,467076.575,8,400,,,
sequence,flow.Sequence,4_104,2023-11-02T20:23:00.916Z,,0,,,11478.458003051754,completion,,,,,false,,,,467046.20000076294,467045.80000305176,455565.539,455566.70000076294,455567.342,467076.575,8,400,,,
trial,html.Screen,4_105_0,2023-11-02T20:23:12.426Z,,0,3,,11511.663,timeout,ISIC_0057192.JPG,7,ISIC_2222879.JPG,,false,,,500,478556.20000076294,478555.9000015259,467059.898,467046.4000015259,467076.575,478588.238,8,400,6,,
break,html.Screen,4_105_1,2023-11-02T20:23:12.427Z,,0,,,NaN,,,,,,false,,,,478557,478556.80000305176,,478556.4000015259,,478588.238,8,400,,,
break_continue,html.Screen,4_105_2,2023-11-02T20:23:12.427Z,,0,,,NaN,,,,,,false,,,,478557.5,478557.30000305176,,478557.1000022888,,478588.238,8,400,,,
sequence,flow.Sequence,4_105,2023-11-02T20:23:12.427Z,,0,,,11480.725003051746,completion,,,,,false,,,,478557.70000076294,478557.30000305176,467059.898,467046.30000305176,467076.575,478588.238,8,400,,,
trial,html.Screen,4_106_0,2023-11-02T20:23:23.936Z,,0,3,,11510.657000000007,timeout,ISIC_1834920.JPG,12,ISIC_6620748.JPG,,false,,,500,490066.6000022888,490066.4000015259,478571.547,478557.9000015259,478588.238,490098.895,8,400,7,,
break,html.Screen,4_106_1,2023-11-02T20:23:23.937Z,,0,,,NaN,,,,,,false,,,,490067.30000305176,490067.1000022888,,490066.80000305176,,490098.895,8,400,,,
break_continue,html.Screen,4_106_2,2023-11-02T20:23:23.937Z,,0,,,NaN,,,,,,false,,,,490067.80000305176,490067.70000076294,,490067.5,,490098.895,8,400,,,
sequence,flow.Sequence,4_106,2023-11-02T20:23:23.938Z,,0,,,11479.462000762927,completion,,,,,false,,,,490068.20000076294,490067.70000076294,478571.547,478557.80000305176,478588.238,490098.895,8,400,,,
trial,html.Screen,4_107_0,2023-11-02T20:23:35.451Z,,0,3,,11514.828999999969,timeout,ISIC_7297078.JPG,10,ISIC_0000301.JPG,,false,,,500,501581.4000015259,501581,490081.801,490068.30000305176,490098.895,501613.724,8,400,8,,
break,html.Screen,4_107_1,2023-11-02T20:23:35.452Z,,0,,,NaN,,,,,,false,,,,501582.20000076294,501582,,501581.6000022888,,501613.724,8,400,,,
break_continue,html.Screen,4_107_2,2023-11-02T20:23:35.452Z,,0,,,NaN,,,,,,false,,,,501582.80000305176,501582.6000022888,,501582.5,,501613.724,8,400,,,
sequence,flow.Sequence,4_107,2023-11-02T20:23:35.453Z,,0,,,11483.7050022888,completion,,,,,false,,,,501583,501582.6000022888,490081.801,490068.30000305176,490098.895,501613.724,8,400,,,
trial,html.Screen,4_108_0,2023-11-02T20:23:47.613Z,,0,3,,12977.668000000005,timeout,ISIC_0071857.JPG,13,ISIC_0011779.JPG,,false,,,500,513742.20000076294,513741.9000015259,501597.041,501583.20000076294,501613.724,514591.392,8,400,9,,
break,html.Screen,4_108_1,2023-11-02T20:23:47.614Z,,0,,,NaN,,,,,,false,,,,513743,513742.70000076294,,513742.4000015259,,514591.392,8,400,,,
break_continue,html.Screen,4_108_2,2023-11-02T20:23:47.614Z,,0,,,NaN,,,,,,false,,,,513743.5,513743.20000076294,,513743.20000076294,,514591.392,8,400,,,
sequence,flow.Sequence,4_108,2023-11-02T20:23:47.614Z,,0,,,12129.476000762952,completion,,,,,false,,,,513743.70000076294,513743.20000076294,501597.041,501583.20000076294,501613.724,514591.392,8,400,,,
trial,html.Screen,4_109_0,2023-11-02T20:23:50.993Z,,0,3,,2530.6080000000075,response,ISIC_0025437.JPG,6,ISIC_9934037.JPG,ISIC_0025437.JPG,false,1,keypress(m),500,517122.30000305176,517122,514558.083,513743.80000305176,514591.392,517128.539,8,400,10,,ISIC_9934037.JPG
break,html.Screen,4_109_1,2023-11-02T20:23:50.993Z,,0,,,NaN,,,,,,false,,,,517122.80000305176,517122.70000076294,,517122.30000305176,,517128.539,8,400,,,
break_continue,html.Screen,4_109_2,2023-11-02T20:23:50.994Z,,0,,,NaN,,,,,,false,,,,517123.20000076294,517123,,517122.9000015259,,517128.539,8,400,,,
sequence,flow.Sequence,4_109,2023-11-02T20:23:50.994Z,,0,,,2531.6080000000075,completion,,,,,false,,,,517123.4000015259,517123,514558.083,513743.80000305176,514591.392,517128.539,8,400,,,
trial,html.Screen,4_110_0,2023-11-02T20:23:54.708Z,,0,3,,3708.9610000000102,response,ISIC_8278912.JPG,13,ISIC_6697013.JPG,ISIC_6697013.JPG,false,0,keypress(z),500,520837.80000305176,520837.5,517110.907,517123.5,517128.539,520844.462,8,400,11,,ISIC_8278912.JPG
break,html.Screen,4_110_1,2023-11-02T20:23:54.709Z,,0,,,NaN,,,,,,false,,,,520838.70000076294,520838.5,,520838.20000076294,,520844.462,8,400,,,
break_continue,html.Screen,4_110_2,2023-11-02T20:23:54.710Z,,0,,,NaN,,,,,,false,,,,520839.4000015259,520839.30000305176,,520839.20000076294,,520844.462,8,400,,,
sequence,flow.Sequence,4_110,2023-11-02T20:23:54.710Z,,0,,,3710.761003051768,completion,,,,,false,,,,520839.70000076294,520839.30000305176,517110.907,517123.5,517128.539,520844.462,8,400,,,
trial,html.Screen,4_111_0,2023-11-02T20:23:59.875Z,,0,3,,5159.838003051758,response,ISIC_9422630.JPG,7,ISIC_0588855.JPG,ISIC_0588855.JPG,false,0,keypress(z),500,526004.5,526004.3000030518,520834.044,520839.9000015259,520844.462,526010.717,8,400,12,,ISIC_9422630.JPG
break,html.Screen,4_111_1,2023-11-02T20:23:59.876Z,,0,,,NaN,,,,,,false,,,,526005.2000007629,526005,,526004.7000007629,,526010.717,8,400,,,
break_continue,html.Screen,4_111_2,2023-11-02T20:23:59.876Z,,0,,,NaN,,,,,,false,,,,526005.4000015259,526005.4000015259,,526005.2000007629,,526010.717,8,400,,,
sequence,flow.Sequence,4_111,2023-11-02T20:23:59.876Z,,0,,,5160.938001525879,completion,,,,,false,,,,526005.7000007629,526005.4000015259,520834.044,520839.80000305176,520844.462,526010.717,8,400,,,
trial,html.Screen,4_112_0,2023-11-02T20:24:03.246Z,,0,3,,3364.583003051812,response,ISIC_0064318.JPG,4,ISIC_0014766.JPG,ISIC_0064318.JPG,false,1,keypress(m),500,529375.7000007629,529375.3000030518,525997.002,526006.5,526010.717,529382.218,8,400,13,,ISIC_0014766.JPG
break,html.Screen,4_112_1,2023-11-02T20:24:03.247Z,,0,,,NaN,,,,,,false,,,,529376.5,529376.3000030518,,529375.9000015259,,529382.218,8,400,,,
break_continue,html.Screen,4_112_2,2023-11-02T20:24:03.247Z,,0,,,NaN,,,,,,false,,,,529377,529376.9000015259,,529376.7000007629,,529382.218,8,400,,,
sequence,flow.Sequence,4_112,2023-11-02T20:24:03.248Z,,0,,,3366.183001525933,completion,,,,,false,,,,529377.2000007629,529376.9000015259,525997.002,526006.4000015259,526010.717,529382.218,8,400,,,
trial,html.Screen,4_113_0,2023-11-02T20:24:06.610Z,,0,3,,3357.2820000000065,response,ISIC_2536779.JPG,11,ISIC_7888672.JPG,ISIC_2536779.JPG,false,1,keypress(m),500,532739.9000015259,532739.5,529372.292,529377.4000015259,529382.218,532746.477,8,400,14,,ISIC_7888672.JPG
break,html.Screen,4_113_1,2023-11-02T20:24:06.611Z,,0,,,NaN,,,,,,false,,,,532740.7000007629,532740.6000022888,,532740.1000022888,,532746.477,8,400,,,
break_continue,html.Screen,4_113_2,2023-11-02T20:24:06.612Z,,0,,,NaN,,,,,,false,,,,532741.3000030518,532741.1000022888,,532740.9000015259,,532746.477,8,400,,,
sequence,flow.Sequence,4_113,2023-11-02T20:24:06.612Z,,0,,,3358.882002288825,completion,,,,,false,,,,532741.5,532741.1000022888,529372.292,529377.3000030518,529382.218,532746.477,8,400,,,
trial,html.Screen,4_114_0,2023-11-02T20:24:10.397Z,,0,3,,3779.223000762984,response,ISIC_6126620.JPG,6,ISIC_5877410.JPG,ISIC_6126620.JPG,false,1,keypress(m),500,536526,536525.7000007629,532727.253,532741.7000007629,532746.477,536537.966,8,400,15,,ISIC_5877410.JPG
break,html.Screen,4_114_1,2023-11-02T20:24:10.397Z,,0,,,NaN,,,,,,false,,,,536526.9000015259,536526.7000007629,,536526.3000030518,,536537.966,8,400,,,
break_continue,html.Screen,4_114_2,2023-11-02T20:24:10.398Z,,0,,,NaN,,,,,,false,,,,536527.4000015259,536527.2000007629,,536527.1000022888,,536537.966,8,400,,,
sequence,flow.Sequence,4_114,2023-11-02T20:24:10.398Z,,0,,,3780.723000762984,completion,,,,,false,,,,536527.6000022888,536527.2000007629,532727.253,532741.6000022888,532746.477,536537.966,8,400,,,
trial,html.Screen,4_115_0,2023-11-02T20:24:16.586Z,,0,3,,6177.234000762925,response,ISIC_4957315.JPG,17,ISIC_0054988.JPG,ISIC_4957315.JPG,false,1,keypress(m),500,542715.6000022888,542715.2000007629,536516.98,536527.8000030518,536537.966,542735.153,8,400,16,,ISIC_0054988.JPG
break,html.Screen,4_115_1,2023-11-02T20:24:16.587Z,,0,,,NaN,,,,,,false,,,,542716.3000030518,542716.1000022888,,542715.8000030518,,542735.153,8,400,,,
break_continue,html.Screen,4_115_2,2023-11-02T20:24:16.587Z,,0,,,NaN,,,,,,false,,,,542716.8000030518,542716.7000007629,,542716.5,,542735.153,8,400,,,
sequence,flow.Sequence,4_115,2023-11-02T20:24:16.588Z,,0,,,6178.734000762925,completion,,,,,false,,,,542717,542716.7000007629,536516.98,536527.7000007629,536537.966,542735.153,8,400,,,
trial,html.Screen,4_116_0,2023-11-02T20:24:20.763Z,,0,3,,4156.947002288769,response,ISIC_0064014.JPG,14,ISIC_5624273.JPG,ISIC_5624273.JPG,false,0,keypress(z),500,546892.2000007629,546892.1000022888,542718.418,542717.3000030518,542735.153,546898.317,8,400,17,,ISIC_0064014.JPG
break,html.Screen,4_116_1,2023-11-02T20:24:20.763Z,,0,,,NaN,,,,,,false,,,,546892.5,546892.5,,546892.3000030518,,546898.317,8,400,,,
break_continue,html.Screen,4_116_2,2023-11-02T20:24:20.763Z,,0,,,NaN,,,,,,false,,,,546892.8000030518,546892.7000007629,,546892.6000022888,,546898.317,8,400,,,
sequence,flow.Sequence,4_116,2023-11-02T20:24:20.763Z,,0,,,4157.54700076289,completion,,,,,false,,,,546892.9000015259,546892.7000007629,542718.418,542717.2000007629,542735.153,546898.317,8,400,,,
trial,html.Screen,4_117_0,2023-11-02T20:24:24.000Z,,0,3,,3231.3830007629003,response,ISIC_0006158.JPG,7,ISIC_8425541.JPG,ISIC_0006158.JPG,false,1,keypress(m),500,550129.9000015259,550129.7000007629,546879.51,546892.9000015259,546898.317,550136.151,8,400,18,,ISIC_8425541.JPG
break,html.Screen,4_117_1,2023-11-02T20:24:24.001Z,,0,,,NaN,,,,,,false,,,,550130.5,550130.3000030518,,550130,,550136.151,8,400,,,
break_continue,html.Screen,4_117_2,2023-11-02T20:24:24.001Z,,0,,,NaN,,,,,,false,,,,550130.8000030518,550130.6000022888,,550130.5,,550136.151,8,400,,,
sequence,flow.Sequence,4_117,2023-11-02T20:24:24.001Z,,0,,,3232.2830022887792,completion,,,,,false,,,,550130.9000015259,550130.6000022888,546879.51,546892.9000015259,546898.317,550136.151,8,400,,,
trial,html.Screen,4_118_0,2023-11-02T20:24:26.784Z,,0,3,,2776.6490030518034,response,ISIC_7927525.JPG,10,ISIC_0028582.JPG,ISIC_7927525.JPG,false,1,keypress(m),500,552913.2000007629,552912.8000030518,550117.863,550131.1000022888,550136.151,552919.71,8,400,19,,ISIC_0028582.JPG
break,html.Screen,4_118_1,2023-11-02T20:24:26.785Z,,0,,,NaN,,,,,,false,,,,552914,552913.7000007629,,552913.4000015259,,552919.71,8,400,,,
break_continue,html.Screen,4_118_2,2023-11-02T20:24:26.785Z,,0,,,NaN,,,,,,false,,,,552914.4000015259,552914.3000030518,,552914.1000022888,,552919.71,8,400,,,
sequence,flow.Sequence,4_118,2023-11-02T20:24:26.785Z,,0,,,2778.1490030518034,completion,,,,,false,,,,552914.7000007629,552914.3000030518,550117.863,550131,550136.151,552919.71,8,400,,,
trial,html.Screen,4_119_0,2023-11-02T20:24:30.473Z,,0,3,,3682.2900000000373,response,ISIC_9142818.JPG,10,ISIC_0034173.JPG,ISIC_9142818.JPG,false,1,keypress(m),500,556602.3000030518,556602,552912.481,552914.9000015259,552919.71,556608.641,8,400,20,,ISIC_0034173.JPG
break,html.Screen,4_119_1,2023-11-02T20:24:30.474Z,,0,,,NaN,,,,,,false,,,,556603,556602.9000015259,,556602.5,,556608.641,8,400,,,
break_continue,html.Screen,4_119_2,2023-11-02T20:24:30.474Z,,0,,,NaN,,,,,,false,,,,556603.3000030518,556603.2000007629,,556603.1000022888,,556608.641,8,400,,,
sequence,flow.Sequence,4_119,2023-11-02T20:24:30.474Z,,0,,,3683.4900007629767,completion,,,,,false,,,,556603.5,556603.2000007629,552912.481,552914.8000030518,552919.71,556608.641,8,400,,,
trial,html.Screen,4_120_0,2023-11-02T20:24:33.603Z,,0,3,,3123.5590007629944,response,ISIC_0024380.JPG,6,ISIC_6118824.JPG,ISIC_6118824.JPG,false,0,keypress(z),500,559732.5,559732.2000007629,556587.535,556603.5,556608.641,559739.028,8,400,21,,ISIC_0024380.JPG
break,html.Screen,4_120_1,2023-11-02T20:24:33.604Z,,0,,,NaN,,,,,,false,,,,559733.3000030518,559733.1000022888,,559732.7000007629,,559739.028,8,400,,,
break_continue,html.Screen,4_120_2,2023-11-02T20:24:33.604Z,,0,,,NaN,,,,,,false,,,,559733.8000030518,559733.7000007629,,559733.6000022888,,559739.028,8,400,,,
sequence,flow.Sequence,4_120,2023-11-02T20:24:33.605Z,,0,,,3125.0590007629944,completion,,,,,false,,,,559734,559733.7000007629,556587.535,556603.5,556608.641,559739.028,8,400,,,
trial,html.Screen,4_121_0,2023-11-02T20:24:38.772Z,,0,3,,5160.971999999951,response,ISIC_0011040.JPG,9,ISIC_4107717.JPG,ISIC_4107717.JPG,false,0,keypress(z),500,564900.2000007629,564900,559731.915,559734.3000030518,559739.028,564906.825,8,400,22,,ISIC_0011040.JPG
break,html.Screen,4_121_1,2023-11-02T20:24:38.773Z,,0,,,NaN,,,,,,false,,,,564901.1000022888,564900.9000015259,,564900.5,,564906.825,8,400,,,
break_continue,html.Screen,4_121_2,2023-11-02T20:24:38.773Z,,0,,,NaN,,,,,,false,,,,564901.6000022888,564901.5,,564901.3000030518,,564906.825,8,400,,,
sequence,flow.Sequence,4_121,2023-11-02T20:24:38.773Z,,0,,,5162.471999999951,completion,,,,,false,,,,564901.8000030518,564901.5,559731.915,559734.3000030518,559739.028,564906.825,8,400,,,
trial,html.Screen,4_122_0,2023-11-02T20:24:50.614Z,,0,3,,11887.01000000001,timeout,ISIC_0011750.JPG,12,ISIC_1859923.JPG,,false,,,500,576743,576742.6000022888,564889.689,564902,564906.825,576793.835,8,400,23,,
break,html.Screen,4_122_1,2023-11-02T20:24:50.616Z,,0,,,NaN,,,,,,false,,,,576744.2000007629,576743.9000015259,,576743.4000015259,,576793.835,8,400,,,
break_continue,html.Screen,4_122_2,2023-11-02T20:24:50.616Z,,0,,,NaN,,,,,,false,,,,576745,576744.6000022888,,576744.5,,576793.835,8,400,,,
sequence,flow.Sequence,4_122,2023-11-02T20:24:50.617Z,,0,,,11837.775002288865,completion,,,,,false,,,,576745.4000015259,576744.6000022888,564889.689,564902,564906.825,576793.835,8,400,,,
trial,html.Screen,4_123_0,2023-11-02T20:24:53.516Z,,0,3,,2850.065001525916,response,ISIC_0056326.JPG,17,ISIC_1532684.JPG,ISIC_0056326.JPG,false,1,keypress(m),500,579644.3000030518,579643.9000015259,576777.144,576745.6000022888,576793.835,579650.839,8,400,24,,ISIC_1532684.JPG
break,html.Screen,4_123_1,2023-11-02T20:24:53.517Z,,0,,,NaN,,,,,,false,,,,579645.2000007629,579644.9000015259,,579644.5,,579650.839,8,400,,,
break_continue,html.Screen,4_123_2,2023-11-02T20:24:53.517Z,,0,,,NaN,,,,,,false,,,,579645.7000007629,579645.6000022888,,579645.4000015259,,579650.839,8,400,,,
sequence,flow.Sequence,4_123,2023-11-02T20:24:53.518Z,,0,,,2851.7650022888556,completion,,,,,false,,,,579646.2000007629,579645.6000022888,576777.144,576745.6000022888,576793.835,579650.839,8,400,,,
trial,html.Screen,4_124_0,2023-11-02T20:24:56.981Z,,0,3,,3458.5610015258426,response,ISIC_0011127.JPG,9,ISIC_0413154.JPG,ISIC_0413154.JPG,false,0,keypress(z),500,583109.8000030518,583109.4000015259,579638.369,579646.4000015259,579650.839,583116.367,8,400,25,,ISIC_0011127.JPG
break,html.Screen,4_124_1,2023-11-02T20:24:56.982Z,,0,,,NaN,,,,,,false,,,,583110.6000022888,583110.4000015259,,583110,,583116.367,8,400,,,
break_continue,html.Screen,4_124_2,2023-11-02T20:24:56.984Z,,0,,,NaN,,,,,,false,,,,583112.8000030518,583110.9000015259,,583110.8000030518,,583116.367,8,400,,,
sequence,flow.Sequence,4_124,2023-11-02T20:24:56.985Z,,0,,,3460.0610015258426,completion,,,,,false,,,,583113.2000007629,583110.9000015259,579638.369,579646.4000015259,579650.839,583116.367,8,400,,,
trial,html.Screen,4_125_0,2023-11-02T20:24:59.885Z,,0,3,,2897.1330000000307,response,ISIC_1663144.JPG,5,ISIC_5416978.JPG,ISIC_5416978.JPG,false,0,keypress(z),500,586013.8000030518,586013.5,583094.878,583113.5,583116.367,586020.429,8,400,26,,ISIC_1663144.JPG
break,html.Screen,4_125_1,2023-11-02T20:24:59.886Z,,0,,,NaN,,,,,,false,,,,586014.7000007629,586014.5,,586014,,586020.429,8,400,,,
break_continue,html.Screen,4_125_2,2023-11-02T20:24:59.887Z,,0,,,NaN,,,,,,false,,,,586015.2000007629,586015,,586014.9000015259,,586020.429,8,400,,,
sequence,flow.Sequence,4_125,2023-11-02T20:24:59.887Z,,0,,,2898.6330000000307,completion,,,,,false,,,,586015.5,586015,583094.878,583113.4000015259,583116.367,586020.429,8,400,,,
