sender,sender_type,sender_id,timestamp,meta,,blockNo,condition,duration,ended_on,img_left,img_reveal,img_right,loser,practice,response,response_action,selection_duration,time_commit,time_end,time_render,time_run,time_show,time_switch,total_blocks,total_trials,trialNo,url,winner
informed_consent,html.Screen,0,2023-09-11T18:16:24.131Z,"{""labjs_version"":""20.2.4"",""labjs_build"":{""flavor"":""production"",""commit"":""f5b4a49f956347addd546a832a3327688c2c0fef""},""location"":""https://run.pavlovia.org/MurrayBennett/melanoma-2afc/?participant=67281&platform=sona"",""userAgent"":""Mozilla/5.0 (Macintosh; Intel Mac OS X 10_15_7) AppleWebKit/537.36 (KHTML, like Gecko) Chrome/116.0.0.0 Safari/537.36"",""platform"":""MacIntel"",""language"":""en-US"",""locale"":""en-US"",""timeZone"":""America/Chicago"",""timezoneOffset"":300,""screen_width"":1680,""screen_height"":1050,""scroll_width"":1537,""scroll_height"":694,""window_innerWidth"":1537,""window_innerHeight"":742,""devicePixelRatio"":2}",,,,14187.46400000298,response,,,,,,consent,click button,,25707.5,25685.70000000298,11481.57,11474.70000000298,11498.236,25714.589,,,,"{""participant"":""67281"",""platform"":""sona""}",
Welcome,html.Screen,1,2023-09-11T18:16:59.530Z,,,,uniform,35368.411,response,,,,,,continue,click button,,61106.20000000298,61083,25697.923,25707.80000000447,25714.589,61114.266,,,,,
trial,html.Screen,2_0_0,2023-09-11T18:17:04.285Z,,0,0,,4746.733999999997,response,ISIC_0063388.JPG,,ISIC_0025593.JPG,ISIC_0025593.JPG,true,0,keypress(z),500,65861.39999999851,65861,61097.6,61106.5,61114.266,65864.076,1,6,1,,ISIC_0063388.JPG
sequence,flow.Sequence,2_0,2023-09-11T18:17:04.286Z,,0,,,4746.733999999997,completion,,,,,true,,,,65861.89999999851,65861,61097.6,61106.39999999851,61114.266,65864.076,1,6,,,
trial,html.Screen,2_1_0,2023-09-11T18:17:11.779Z,,0,0,,7490.024000001489,response,ISIC_1309015.JPG,,ISIC_0028178.JPG,ISIC_0028178.JPG,true,0,keypress(z),500,73354.5,73354.10000000149,65847.41,65862,65864.076,73364.085,1,6,2,,ISIC_1309015.JPG
sequence,flow.Sequence,2_1,2023-09-11T18:17:11.779Z,,0,,,7490.024000001489,completion,,,,,true,,,,73354.70000000298,73354.10000000149,65847.41,65862,65864.076,73364.085,1,6,,,
trial,html.Screen,2_2_0,2023-09-11T18:17:16.738Z,,0,0,,4949.615000002974,response,ISIC_0031128.JPG,,ISIC_3314853.JPG,ISIC_0031128.JPG,true,1,keypress(m),500,78313.89999999851,78313.70000000298,73347.419,73354.89999999851,73364.085,78330.553,1,6,3,,ISIC_3314853.JPG
sequence,flow.Sequence,2_2,2023-09-11T18:17:16.739Z,,0,,,4949.615000002974,completion,,,,,true,,,,78314.30000000447,78313.70000000298,73347.419,73354.89999999851,73364.085,78330.553,1,6,,,
trial,html.Screen,2_3_0,2023-09-11T18:17:21.506Z,,0,0,,4750.34699999851,response,ISIC_0031612.JPG,,ISIC_8980141.JPG,ISIC_0031612.JPG,true,1,keypress(m),500,83081.20000000298,83080.89999999851,78313.887,78314.60000000149,78330.553,83097.029,1,6,4,,ISIC_8980141.JPG
sequence,flow.Sequence,2_3,2023-09-11T18:17:21.506Z,,0,,,4750.34699999851,completion,,,,,true,,,,83081.80000000447,83080.89999999851,78313.887,78314.5,78330.553,83097.029,1,6,,,
trial,html.Screen,2_4_0,2023-09-11T18:17:25.734Z,,0,0,,4211.971000000005,response,ISIC_9721604.JPG,,ISIC_1197737.JPG,ISIC_1197737.JPG,true,0,keypress(z),500,87309.30000000447,87309,83080.363,83082,83097.029,87313.787,1,6,5,,ISIC_9721604.JPG
sequence,flow.Sequence,2_4,2023-09-11T18:17:25.734Z,,0,,,4211.971000000005,completion,,,,,true,,,,87309.70000000298,87309,83080.363,83082,83097.029,87313.787,1,6,,,
trial,html.Screen,2_5_0,2023-09-11T18:17:29.625Z,,0,0,,3886.3130000014935,response,ISIC_0010681.JPG,,ISIC_0025346.JPG,ISIC_0025346.JPG,true,0,keypress(z),500,91200.30000000447,91200.10000000149,87297.121,87310,87313.787,91213.631,1,6,6,,ISIC_0010681.JPG
sequence,flow.Sequence,2_5,2023-09-11T18:17:29.625Z,,0,,,3886.3130000014935,completion,,,,,true,,,,91200.70000000298,91200.10000000149,87297.121,87309.89999999851,87313.787,91213.631,1,6,,,
loop,flow.Loop,2,2023-09-11T18:17:29.625Z,,,,,30085.834000001487,completion,,,,,true,,,,91201,91200.10000000149,61097.6,61106.39999999851,61114.266,91213.631,1,6,,,
exp_instructions,html.Screen,3,2023-09-11T18:17:40.751Z,,,,,11107.169000004476,response,,,,,,continue,keypress(Space),,102326.20000000298,102320.80000000447,91196.965,91201.10000000149,91213.631,102329.853,,,,,
trial,html.Screen,4_0_0,2023-09-11T18:17:46.067Z,,0,1,,5312.347000002977,response,ISIC_7236842.JPG,7,ISIC_1247683.JPG,ISIC_1247683.JPG,false,0,keypress(z),500,107642.5,107642.20000000298,102313.187,102326.30000000447,102329.853,107646.795,8,400,1,,ISIC_7236842.JPG
break,html.Screen,4_0_1,2023-09-11T18:17:46.068Z,,0,,,NaN,,,,,,false,,,,107643.30000000447,107643.10000000149,,107642.70000000298,,107646.795,8,400,,,
break_continue,html.Screen,4_0_2,2023-09-11T18:17:46.068Z,,0,,,NaN,,,,,,false,,,,107643.70000000298,107643.70000000298,,107643.5,,107646.795,8,400,,,
sequence,flow.Sequence,4_0,2023-09-11T18:17:46.069Z,,0,,,5313.847000002977,completion,,,,,false,,,,107643.89999999851,107643.70000000298,102313.187,102326.30000000447,102329.853,107646.795,8,400,,,
trial,html.Screen,4_1_0,2023-09-11T18:17:51.577Z,,0,1,,5504.705000000002,response,ISIC_7658133.JPG,7,ISIC_4236274.JPG,ISIC_7658133.JPG,false,1,keypress(m),500,113151.70000000298,113151.5,107630.129,107644,107646.795,113163.503,8,400,2,,ISIC_4236274.JPG
break,html.Screen,4_1_1,2023-09-11T18:17:51.577Z,,0,,,NaN,,,,,,false,,,,113152.5,113152.30000000447,,113152,,113163.503,8,400,,,
break_continue,html.Screen,4_1_2,2023-09-11T18:17:51.578Z,,0,,,NaN,,,,,,false,,,,113152.80000000447,113152.70000000298,,113152.5,,113163.503,8,400,,,
sequence,flow.Sequence,4_1,2023-09-11T18:17:51.578Z,,0,,,5505.905000002982,completion,,,,,false,,,,113152.89999999851,113152.70000000298,107630.129,107643.89999999851,107646.795,113163.503,8,400,,,
trial,html.Screen,4_2_0,2023-09-11T18:17:57.486Z,,0,1,,5897.396999998513,response,ISIC_5164416.JPG,9,ISIC_1368336.JPG,ISIC_5164416.JPG,false,1,keypress(m),500,119061.10000000149,119060.89999999851,113146.837,113153,113163.503,119063.267,8,400,3,,ISIC_1368336.JPG
break,html.Screen,4_2_1,2023-09-11T18:17:57.487Z,,0,,,NaN,,,,,,false,,,,119061.89999999851,119061.70000000298,,119061.39999999851,,119063.267,8,400,,,
break_continue,html.Screen,4_2_2,2023-09-11T18:17:57.487Z,,0,,,NaN,,,,,,false,,,,119062.20000000298,119062,,119062,,119063.267,8,400,,,
sequence,flow.Sequence,4_2,2023-09-11T18:17:57.487Z,,0,,,5898.497000000003,completion,,,,,false,,,,119062.30000000447,119062,113146.837,113152.89999999851,113163.503,119063.267,8,400,,,
trial,html.Screen,4_3_0,2023-09-11T18:18:02.099Z,,0,1,,4610.933000002973,response,ISIC_1881133.JPG,8,ISIC_0029209.JPG,ISIC_1881133.JPG,false,1,keypress(m),500,123674.39999999851,123674.20000000298,119046.601,119062.39999999851,119063.267,123680.012,8,400,4,,ISIC_0029209.JPG
break,html.Screen,4_3_1,2023-09-11T18:18:02.100Z,,0,,,NaN,,,,,,false,,,,123675.10000000149,123675,,123674.60000000149,,123680.012,8,400,,,
break_continue,html.Screen,4_3_2,2023-09-11T18:18:02.100Z,,0,,,NaN,,,,,,false,,,,123675.39999999851,123675.30000000447,,123675.30000000447,,123680.012,8,400,,,
sequence,flow.Sequence,4_3,2023-09-11T18:18:02.101Z,,0,,,4612.033000004463,completion,,,,,false,,,,123675.60000000149,123675.30000000447,119046.601,119062.39999999851,119063.267,123680.012,8,400,,,
trial,html.Screen,4_4_0,2023-09-11T18:18:07.479Z,,0,1,,5373.588000001488,response,ISIC_1784255.JPG,8,ISIC_5674396.JPG,ISIC_1784255.JPG,false,1,keypress(m),500,129053.80000000447,129053.60000000149,123663.346,123675.60000000149,123680.012,129079.796,8,400,5,,ISIC_5674396.JPG
break,html.Screen,4_4_1,2023-09-11T18:18:07.479Z,,0,,,NaN,,,,,,false,,,,129054.39999999851,129054.30000000447,,129054,,129079.796,8,400,,,
break_continue,html.Screen,4_4_2,2023-09-11T18:18:07.480Z,,0,,,NaN,,,,,,false,,,,129054.60000000149,129054.60000000149,,129054.5,,129079.796,8,400,,,
sequence,flow.Sequence,4_4,2023-09-11T18:18:07.480Z,,0,,,5374.588000001488,completion,,,,,false,,,,129054.80000000447,129054.60000000149,123663.346,123675.60000000149,123680.012,129079.796,8,400,,,
trial,html.Screen,4_5_0,2023-09-11T18:18:12.380Z,,0,1,,4874.603999998508,response,ISIC_0029316.JPG,8,ISIC_0013472.JPG,ISIC_0029316.JPG,false,1,keypress(m),500,133954.6000000015,133954.3999999985,129063.13,129055,129079.796,133963.199,8,400,6,,ISIC_0013472.JPG
break,html.Screen,4_5_1,2023-09-11T18:18:12.381Z,,0,,,NaN,,,,,,false,,,,133955.3999999985,133955.30000000447,,133954.8999999985,,133963.199,8,400,,,
break_continue,html.Screen,4_5_2,2023-09-11T18:18:12.381Z,,0,,,NaN,,,,,,false,,,,133955.70000000298,133955.70000000298,,133955.6000000015,,133963.199,8,400,,,
sequence,flow.Sequence,4_5,2023-09-11T18:18:12.381Z,,0,,,4875.904000002978,completion,,,,,false,,,,133955.80000000447,133955.70000000298,129063.13,129054.89999999851,129079.796,133963.199,8,400,,,
trial,html.Screen,4_6_0,2023-09-11T18:18:17.033Z,,0,1,,4644.301000000007,response,ISIC_0014675.JPG,4,ISIC_0014541.JPG,ISIC_0014541.JPG,false,0,keypress(z),500,138607.70000000298,138607.5,133946.533,133956,133963.199,138613.013,8,400,7,,ISIC_0014675.JPG
break,html.Screen,4_6_1,2023-09-11T18:18:17.034Z,,0,,,NaN,,,,,,false,,,,138608.3999999985,138608.30000000447,,138607.80000000447,,138613.013,8,400,,,
break_continue,html.Screen,4_6_2,2023-09-11T18:18:17.034Z,,0,,,NaN,,,,,,false,,,,138608.70000000298,138608.6000000015,,138608.5,,138613.013,8,400,,,
sequence,flow.Sequence,4_6,2023-09-11T18:18:17.034Z,,0,,,4645.401000001497,completion,,,,,false,,,,138608.8999999985,138608.6000000015,133946.533,133955.8999999985,133963.199,138613.013,8,400,,,
trial,html.Screen,4_7_0,2023-09-11T18:18:20.654Z,,0,1,,3615.9869999999937,response,ISIC_5659295.JPG,7,ISIC_0064623.JPG,ISIC_5659295.JPG,false,1,keypress(m),500,142229.1000000015,142229,138596.347,138608.8999999985,138613.013,142246.201,8,400,8,,ISIC_0064623.JPG
break,html.Screen,4_7_1,2023-09-11T18:18:20.655Z,,0,,,NaN,,,,,,false,,,,142229.8999999985,142229.70000000298,,142229.30000000447,,142246.201,8,400,,,
break_continue,html.Screen,4_7_2,2023-09-11T18:18:20.655Z,,0,,,NaN,,,,,,false,,,,142230.1000000015,142230,,142230,,142246.201,8,400,,,
sequence,flow.Sequence,4_7,2023-09-11T18:18:20.656Z,,0,,,3616.9869999999937,completion,,,,,false,,,,142230.30000000447,142230,138596.347,138608.8999999985,138613.013,142246.201,8,400,,,
trial,html.Screen,4_8_0,2023-09-11T18:18:24.377Z,,0,1,,3705.298999999999,response,ISIC_2633745.JPG,7,ISIC_0003046.JPG,ISIC_2633745.JPG,false,1,keypress(m),500,145951.70000000298,145951.5,142229.535,142230.30000000447,142246.201,145962.98,8,400,9,,ISIC_0003046.JPG
break,html.Screen,4_8_1,2023-09-11T18:18:24.378Z,,0,,,NaN,,,,,,false,,,,145952.3999999985,145952.30000000447,,145951.8999999985,,145962.98,8,400,,,
break_continue,html.Screen,4_8_2,2023-09-11T18:18:24.378Z,,0,,,NaN,,,,,,false,,,,145952.70000000298,145952.70000000298,,145952.6000000015,,145962.98,8,400,,,
sequence,flow.Sequence,4_8,2023-09-11T18:18:24.378Z,,0,,,3706.4990000029793,completion,,,,,false,,,,145952.80000000447,145952.70000000298,142229.535,142230.30000000447,142246.201,145962.98,8,400,,,
trial,html.Screen,4_9_0,2023-09-11T18:18:27.743Z,,0,1,,3353.9199999984994,response,ISIC_0026759.JPG,7,ISIC_0072748.JPG,ISIC_0072748.JPG,false,0,keypress(z),500,149317.20000000298,149316.8999999985,145946.314,145953,145962.98,149329.512,8,400,10,,ISIC_0026759.JPG
break,html.Screen,4_9_1,2023-09-11T18:18:27.743Z,,0,,,NaN,,,,,,false,,,,149317.8999999985,149317.70000000298,,149317.30000000447,,149329.512,8,400,,,
break_continue,html.Screen,4_9_2,2023-09-11T18:18:27.744Z,,0,,,NaN,,,,,,false,,,,149318.20000000298,149318.1000000015,,149317.8999999985,,149329.512,8,400,,,
sequence,flow.Sequence,4_9,2023-09-11T18:18:27.744Z,,0,,,3355.1200000014796,completion,,,,,false,,,,149318.20000000298,149318.1000000015,145946.314,145952.8999999985,145962.98,149329.512,8,400,,,
trial,html.Screen,4_10_0,2023-09-11T18:18:31.849Z,,0,1,,4094.088000001502,response,ISIC_0033832.JPG,6,ISIC_4014307.JPG,ISIC_0033832.JPG,false,1,keypress(m),500,153423.80000000447,153423.6000000015,149312.846,149318.3999999985,149329.512,153429.348,8,400,11,,ISIC_4014307.JPG
break,html.Screen,4_10_1,2023-09-11T18:18:31.850Z,,0,,,NaN,,,,,,false,,,,153424.5,153424.30000000447,,153424,,153429.348,8,400,,,
break_continue,html.Screen,4_10_2,2023-09-11T18:18:31.850Z,,0,,,NaN,,,,,,false,,,,153424.80000000447,153424.70000000298,,153424.5,,153429.348,8,400,,,
sequence,flow.Sequence,4_10,2023-09-11T18:18:31.850Z,,0,,,4095.1880000029923,completion,,,,,false,,,,153424.80000000447,153424.70000000298,149312.846,149318.30000000447,149329.512,153429.348,8,400,,,
trial,html.Screen,4_11_0,2023-09-11T18:18:37.513Z,,0,1,,5658.051999998512,response,ISIC_0062026.JPG,5,ISIC_0024756.JPG,ISIC_0062026.JPG,false,1,keypress(m),500,159087.5,159087.3999999985,153412.682,153424.8999999985,153429.348,159096.06,8,400,12,,ISIC_0024756.JPG
break,html.Screen,4_11_1,2023-09-11T18:18:37.514Z,,0,,,NaN,,,,,,false,,,,159088.30000000447,159088.20000000298,,159087.80000000447,,159096.06,8,400,,,
break_continue,html.Screen,4_11_2,2023-09-11T18:18:37.514Z,,0,,,NaN,,,,,,false,,,,159088.6000000015,159088.5,,159088.3999999985,,159096.06,8,400,,,
sequence,flow.Sequence,4_11,2023-09-11T18:18:37.514Z,,0,,,5659.152000000002,completion,,,,,false,,,,159088.70000000298,159088.5,153412.682,153424.8999999985,153429.348,159096.06,8,400,,,
trial,html.Screen,4_12_0,2023-09-11T18:18:41.518Z,,0,1,,3996.7400000044727,response,ISIC_8570555.JPG,8,ISIC_4966865.JPG,ISIC_4966865.JPG,false,0,keypress(z),500,163092.8999999985,163092.80000000447,159079.394,159088.80000000447,159096.06,163095.9,8,400,13,,ISIC_8570555.JPG
break,html.Screen,4_12_1,2023-09-11T18:18:41.519Z,,0,,,NaN,,,,,,false,,,,163093.20000000298,163093.1000000015,,163093,,163095.9,8,400,,,
break_continue,html.Screen,4_12_2,2023-09-11T18:18:41.519Z,,0,,,NaN,,,,,,false,,,,163093.5,163093.30000000447,,163093.30000000447,,163095.9,8,400,,,
sequence,flow.Sequence,4_12,2023-09-11T18:18:41.519Z,,0,,,3997.2400000044727,completion,,,,,false,,,,163093.6000000015,163093.30000000447,159079.394,159088.80000000447,159096.06,163095.9,8,400,,,
trial,html.Screen,4_13_0,2023-09-11T18:18:45.074Z,,0,1,,3552.700000001496,response,ISIC_7145788.JPG,8,ISIC_0034046.JPG,ISIC_0034046.JPG,false,0,keypress(z),500,166648.70000000298,166648.6000000015,163079.234,163093.6000000015,163095.9,166662.681,8,400,14,,ISIC_7145788.JPG
break,html.Screen,4_13_1,2023-09-11T18:18:45.075Z,,0,,,NaN,,,,,,false,,,,166649,166648.8999999985,,166648.70000000298,,166662.681,8,400,,,
break_continue,html.Screen,4_13_2,2023-09-11T18:18:45.075Z,,0,,,NaN,,,,,,false,,,,166649.1000000015,166649.1000000015,,166649.1000000015,,166662.681,8,400,,,
sequence,flow.Sequence,4_13,2023-09-11T18:18:45.075Z,,0,,,3553.200000001496,completion,,,,,false,,,,166649.1000000015,166649.1000000015,163079.234,163093.6000000015,163095.9,166662.681,8,400,,,
trial,html.Screen,4_14_0,2023-09-11T18:18:48.689Z,,0,1,,3600.2189999984985,response,ISIC_1850674.JPG,6,ISIC_2279679.JPG,ISIC_1850674.JPG,false,1,keypress(m),500,170263.1000000015,170262.8999999985,166646.015,166649.20000000298,166662.681,170279.203,8,400,15,,ISIC_2279679.JPG
break,html.Screen,4_14_1,2023-09-11T18:18:48.689Z,,0,,,NaN,,,,,,false,,,,170263.70000000298,170263.6000000015,,170263.20000000298,,170279.203,8,400,,,
break_continue,html.Screen,4_14_2,2023-09-11T18:18:48.690Z,,0,,,NaN,,,,,,false,,,,170264.1000000015,170264,,170263.8999999985,,170279.203,8,400,,,
sequence,flow.Sequence,4_14,2023-09-11T18:18:48.690Z,,0,,,3601.3189999999886,completion,,,,,false,,,,170264.20000000298,170264,166646.015,166649.20000000298,166662.681,170279.203,8,400,,,
trial,html.Screen,4_15_0,2023-09-11T18:18:51.908Z,,0,1,,3202.9970000029716,response,ISIC_6609484.JPG,7,ISIC_8901784.JPG,ISIC_6609484.JPG,false,1,keypress(m),500,173482.3999999985,173482.20000000298,170262.537,170264.30000000447,170279.203,173495.741,8,400,16,,ISIC_8901784.JPG
break,html.Screen,4_15_1,2023-09-11T18:18:51.909Z,,0,,,NaN,,,,,,false,,,,173483.20000000298,173483,,173482.70000000298,,173495.741,8,400,,,
break_continue,html.Screen,4_15_2,2023-09-11T18:18:51.909Z,,0,,,NaN,,,,,,false,,,,173483.5,173483.3999999985,,173483.30000000447,,173495.741,8,400,,,
sequence,flow.Sequence,4_15,2023-09-11T18:18:51.909Z,,0,,,3204.1969999985013,completion,,,,,false,,,,173483.6000000015,173483.3999999985,170262.537,170264.30000000447,170279.203,173495.741,8,400,,,
trial,html.Screen,4_16_0,2023-09-11T18:18:55.753Z,,0,1,,3831.658999998501,response,ISIC_0031705.JPG,7,ISIC_0597218.JPG,ISIC_0597218.JPG,false,0,keypress(z),500,177327.70000000298,177327.3999999985,173479.075,173483.70000000298,173495.741,177329.185,8,400,17,,ISIC_0031705.JPG
break,html.Screen,4_16_1,2023-09-11T18:18:55.754Z,,0,,,NaN,,,,,,false,,,,177328.3999999985,177328.20000000298,,177327.8999999985,,177329.185,8,400,,,
break_continue,html.Screen,4_16_2,2023-09-11T18:18:55.755Z,,0,,,NaN,,,,,,false,,,,177328.70000000298,177328.6000000015,,177328.5,,177329.185,8,400,,,
sequence,flow.Sequence,4_16,2023-09-11T18:18:55.755Z,,0,,,3832.859000001481,completion,,,,,false,,,,177328.8999999985,177328.6000000015,173479.075,173483.70000000298,173495.741,177329.185,8,400,,,
trial,html.Screen,4_17_0,2023-09-11T18:18:59.194Z,,0,1,,3438.214999998512,response,ISIC_0030492.JPG,8,ISIC_0806138.JPG,ISIC_0030492.JPG,false,1,keypress(m),500,180767.70000000298,180767.3999999985,177312.519,177328.8999999985,177329.185,180779.047,8,400,18,,ISIC_0806138.JPG
break,html.Screen,4_17_1,2023-09-11T18:18:59.194Z,,0,,,NaN,,,,,,false,,,,180768.3999999985,180768.20000000298,,180767.8999999985,,180779.047,8,400,,,
break_continue,html.Screen,4_17_2,2023-09-11T18:18:59.195Z,,0,,,NaN,,,,,,false,,,,180768.6000000015,180768.6000000015,,180768.5,,180779.047,8,400,,,
sequence,flow.Sequence,4_17,2023-09-11T18:18:59.195Z,,0,,,3439.4150000014924,completion,,,,,false,,,,180768.80000000447,180768.6000000015,177312.519,177328.8999999985,177329.185,180779.047,8,400,,,
trial,html.Screen,4_18_0,2023-09-11T18:19:02.892Z,,0,1,,3687.153000002989,response,ISIC_8160596.JPG,8,ISIC_0031931.JPG,ISIC_0031931.JPG,false,0,keypress(z),500,184466.3999999985,184466.20000000298,180762.381,180768.8999999985,180779.047,184478.899,8,400,19,,ISIC_8160596.JPG
break,html.Screen,4_18_1,2023-09-11T18:19:02.893Z,,0,,,NaN,,,,,,false,,,,184467.1000000015,184466.8999999985,,184466.6000000015,,184478.899,8,400,,,
break_continue,html.Screen,4_18_2,2023-09-11T18:19:02.893Z,,0,,,NaN,,,,,,false,,,,184467.5,184467.30000000447,,184467.30000000447,,184478.899,8,400,,,
sequence,flow.Sequence,4_18,2023-09-11T18:19:02.893Z,,0,,,3688.253000004479,completion,,,,,false,,,,184467.5,184467.30000000447,180762.381,180768.80000000447,180779.047,184478.899,8,400,,,
trial,html.Screen,4_19_0,2023-09-11T18:19:06.895Z,,0,1,,3990.000999998505,response,ISIC_0003052.JPG,5,ISIC_9409255.JPG,ISIC_9409255.JPG,false,0,keypress(z),500,188469.1000000015,188468.8999999985,184462.233,184467.6000000015,184478.899,188479.006,8,400,20,,ISIC_0003052.JPG
break,html.Screen,4_19_1,2023-09-11T18:19:06.896Z,,0,,,NaN,,,,,,false,,,,188469.80000000447,188469.70000000298,,188469.30000000447,,188479.006,8,400,,,
break_continue,html.Screen,4_19_2,2023-09-11T18:19:06.896Z,,0,,,NaN,,,,,,false,,,,188470.1000000015,188470,,188469.8999999985,,188479.006,8,400,,,
sequence,flow.Sequence,4_19,2023-09-11T18:19:06.896Z,,0,,,3991.100999999995,completion,,,,,false,,,,188470.20000000298,188470,184462.233,184467.6000000015,184478.899,188479.006,8,400,,,
trial,html.Screen,4_20_0,2023-09-11T18:19:10.474Z,,0,1,,3568.393999998516,response,ISIC_1615996.JPG,7,ISIC_1330008.JPG,ISIC_1615996.JPG,false,1,keypress(m),500,192047.70000000298,192047.3999999985,188462.34,188470.3999999985,188479.006,192062.196,8,400,21,,ISIC_1330008.JPG
break,html.Screen,4_20_1,2023-09-11T18:19:10.474Z,,0,,,NaN,,,,,,false,,,,192048.3999999985,192048.20000000298,,192048,,192062.196,8,400,,,
break_continue,html.Screen,4_20_2,2023-09-11T18:19:10.475Z,,0,,,NaN,,,,,,false,,,,192048.70000000298,192048.70000000298,,192048.6000000015,,192062.196,8,400,,,
sequence,flow.Sequence,4_20,2023-09-11T18:19:10.475Z,,0,,,3569.6940000029863,completion,,,,,false,,,,192048.8999999985,192048.70000000298,188462.34,188470.30000000447,188479.006,192062.196,8,400,,,
trial,html.Screen,4_21_0,2023-09-11T18:19:15.391Z,,0,1,,4902.904000001494,response,ISIC_0056860.JPG,8,ISIC_0011532.JPG,ISIC_0056860.JPG,false,1,keypress(m),500,196965.30000000447,196965.1000000015,192045.53,192049,192062.196,196978.944,8,400,22,,ISIC_0011532.JPG
break,html.Screen,4_21_1,2023-09-11T18:19:15.392Z,,0,,,NaN,,,,,,false,,,,196966,196965.8999999985,,196965.5,,196978.944,8,400,,,
break_continue,html.Screen,4_21_2,2023-09-11T18:19:15.392Z,,0,,,NaN,,,,,,false,,,,196966.30000000447,196966.20000000298,,196966.1000000015,,196978.944,8,400,,,
sequence,flow.Sequence,4_21,2023-09-11T18:19:15.393Z,,0,,,4904.004000002984,completion,,,,,false,,,,196966.5,196966.20000000298,192045.53,192049,192062.196,196978.944,8,400,,,
trial,html.Screen,4_22_0,2023-09-11T18:19:19.590Z,,0,1,,4184.455999998521,response,ISIC_2904474.JPG,6,ISIC_0025382.JPG,ISIC_0025382.JPG,false,0,keypress(z),500,201163.6000000015,201163.3999999985,196962.278,196966.5,196978.944,201178.776,8,400,23,,ISIC_2904474.JPG
break,html.Screen,4_22_1,2023-09-11T18:19:19.591Z,,0,,,NaN,,,,,,false,,,,201164.30000000447,201164.20000000298,,201163.80000000447,,201178.776,8,400,,,
break_continue,html.Screen,4_22_2,2023-09-11T18:19:19.591Z,,0,,,NaN,,,,,,false,,,,201164.6000000015,201164.5,,201164.3999999985,,201178.776,8,400,,,
sequence,flow.Sequence,4_22,2023-09-11T18:19:19.591Z,,0,,,4185.556000000011,completion,,,,,false,,,,201164.70000000298,201164.5,196962.278,196966.5,196978.944,201178.776,8,400,,,
trial,html.Screen,4_23_0,2023-09-11T18:19:24.580Z,,0,1,,4974.424000002968,response,ISIC_8257549.JPG,6,ISIC_0014434.JPG,ISIC_0014434.JPG,false,0,keypress(z),500,206153.5,206153.20000000298,201162.11,201164.80000000447,201178.776,206161.91,8,400,24,,ISIC_8257549.JPG
break,html.Screen,4_23_1,2023-09-11T18:19:24.580Z,,0,,,NaN,,,,,,false,,,,206154.20000000298,206154.1000000015,,206153.6000000015,,206161.91,8,400,,,
break_continue,html.Screen,4_23_2,2023-09-11T18:19:24.581Z,,0,,,NaN,,,,,,false,,,,206154.5,206154.5,,206154.30000000447,,206161.91,8,400,,,
sequence,flow.Sequence,4_23,2023-09-11T18:19:24.581Z,,0,,,4975.723999999987,completion,,,,,false,,,,206154.70000000298,206154.5,201162.11,201164.80000000447,201178.776,206161.91,8,400,,,
trial,html.Screen,4_24_0,2023-09-11T18:19:27.880Z,,0,1,,3291.1900000014866,response,ISIC_0007029.JPG,8,ISIC_0070254.JPG,ISIC_0070254.JPG,false,0,keypress(z),500,209453.30000000447,209453.1000000015,206145.244,206154.70000000298,206161.91,209462.041,8,400,25,,ISIC_0007029.JPG
break,html.Screen,4_24_1,2023-09-11T18:19:27.880Z,,0,,,NaN,,,,,,false,,,,209454.1000000015,209454,,209453.5,,209462.041,8,400,,,
break_continue,html.Screen,4_24_2,2023-09-11T18:19:27.881Z,,0,,,NaN,,,,,,false,,,,209454.3999999985,209454.30000000447,,209454.20000000298,,209462.041,8,400,,,
sequence,flow.Sequence,4_24,2023-09-11T18:19:27.881Z,,0,,,3292.390000004467,completion,,,,,false,,,,209454.5,209454.30000000447,206145.244,206154.70000000298,206161.91,209462.041,8,400,,,
trial,html.Screen,4_25_0,2023-09-11T18:19:33.933Z,,0,1,,6044.659000002983,response,ISIC_4391909.JPG,7,ISIC_0003201.JPG,ISIC_4391909.JPG,false,1,keypress(m),500,215506.8999999985,215506.70000000298,209445.375,209454.6000000015,209462.041,215511.799,8,400,26,,ISIC_0003201.JPG
break,html.Screen,4_25_1,2023-09-11T18:19:33.934Z,,0,,,NaN,,,,,,false,,,,215507.70000000298,215507.6000000015,,215507.20000000298,,215511.799,8,400,,,
break_continue,html.Screen,4_25_2,2023-09-11T18:19:33.934Z,,0,,,NaN,,,,,,false,,,,215508,215507.8999999985,,215507.80000000447,,215511.799,8,400,,,
sequence,flow.Sequence,4_25,2023-09-11T18:19:33.935Z,,0,,,6045.858999998512,completion,,,,,false,,,,215508.1000000015,215507.8999999985,209445.375,209454.6000000015,209462.041,215511.799,8,400,,,
trial,html.Screen,4_26_0,2023-09-11T18:19:37.379Z,,0,1,,3440.600999998511,response,ISIC_0031960.JPG,9,ISIC_0283957.JPG,ISIC_0283957.JPG,false,0,keypress(z),500,218952.6000000015,218952.3999999985,215495.133,215508.30000000447,215511.799,218961.92,8,400,27,,ISIC_0031960.JPG
break,html.Screen,4_26_1,2023-09-11T18:19:37.380Z,,0,,,NaN,,,,,,false,,,,218953.30000000447,218953.1000000015,,218952.8999999985,,218961.92,8,400,,,
break_continue,html.Screen,4_26_2,2023-09-11T18:19:37.380Z,,0,,,NaN,,,,,,false,,,,218953.70000000298,218953.6000000015,,218953.5,,218961.92,8,400,,,
sequence,flow.Sequence,4_26,2023-09-11T18:19:37.380Z,,0,,,3441.801000001491,completion,,,,,false,,,,218953.70000000298,218953.6000000015,215495.133,215508.30000000447,215511.799,218961.92,8,400,,,
trial,html.Screen,4_27_0,2023-09-11T18:19:42.969Z,,0,1,,5579.8800000044575,response,ISIC_0012067.JPG,7,ISIC_0031208.JPG,ISIC_0031208.JPG,false,0,keypress(z),500,224542.1000000015,224541.80000000447,218945.254,218953.80000000447,218961.92,224545.03,8,400,28,,ISIC_0012067.JPG
break,html.Screen,4_27_1,2023-09-11T18:19:42.969Z,,0,,,NaN,,,,,,false,,,,224542.80000000447,224542.5,,224542.20000000298,,224545.03,8,400,,,
break_continue,html.Screen,4_27_2,2023-09-11T18:19:42.970Z,,0,,,NaN,,,,,,false,,,,224543.1000000015,224543,,224542.80000000447,,224545.03,8,400,,,
sequence,flow.Sequence,4_27,2023-09-11T18:19:42.970Z,,0,,,5581.079999999987,completion,,,,,false,,,,224543.1000000015,224543,218945.254,218953.80000000447,218961.92,224545.03,8,400,,,
trial,html.Screen,4_28_0,2023-09-11T18:19:46.414Z,,0,1,,3442.0700000014913,response,ISIC_0010909.JPG,8,ISIC_1037315.JPG,ISIC_0010909.JPG,false,1,keypress(m),500,227987.3999999985,227987.1000000015,224528.364,224543.30000000447,224545.03,227995.158,8,400,29,,ISIC_1037315.JPG
break,html.Screen,4_28_1,2023-09-11T18:19:46.415Z,,0,,,NaN,,,,,,false,,,,227988.1000000015,227987.80000000447,,227987.6000000015,,227995.158,8,400,,,
break_continue,html.Screen,4_28_2,2023-09-11T18:19:46.415Z,,0,,,NaN,,,,,,false,,,,227988.30000000447,227988.30000000447,,227988.20000000298,,227995.158,8,400,,,
sequence,flow.Sequence,4_28,2023-09-11T18:19:46.415Z,,0,,,3443.2700000044715,completion,,,,,false,,,,227988.5,227988.30000000447,224528.364,224543.20000000298,224545.03,227995.158,8,400,,,
trial,html.Screen,4_29_0,2023-09-11T18:19:50.738Z,,0,1,,4315.942000001494,response,ISIC_0011295.JPG,7,ISIC_0011344.JPG,ISIC_0011295.JPG,false,1,keypress(m),500,232311.30000000447,232311.1000000015,227978.492,227988.6000000015,227995.158,232328.318,8,400,30,,ISIC_0011344.JPG
break,html.Screen,4_29_1,2023-09-11T18:19:50.739Z,,0,,,NaN,,,,,,false,,,,232312,232311.8999999985,,232311.5,,232328.318,8,400,,,
break_continue,html.Screen,4_29_2,2023-09-11T18:19:50.739Z,,0,,,NaN,,,,,,false,,,,232312.3999999985,232312.30000000447,,232312.20000000298,,232328.318,8,400,,,
sequence,flow.Sequence,4_29,2023-09-11T18:19:50.739Z,,0,,,4317.1420000044745,completion,,,,,false,,,,232312.5,232312.30000000447,227978.492,227988.6000000015,227995.158,232328.318,8,400,,,
trial,html.Screen,4_30_0,2023-09-11T18:19:54.261Z,,0,1,,3506.0819999985106,response,ISIC_0028567.JPG,9,ISIC_1925632.JPG,ISIC_0028567.JPG,false,1,keypress(m),500,235834.6000000015,235834.3999999985,232311.652,232312.6000000015,232328.318,235844.844,8,400,31,,ISIC_1925632.JPG
break,html.Screen,4_30_1,2023-09-11T18:19:54.262Z,,0,,,NaN,,,,,,false,,,,235835.3999999985,235835.20000000298,,235834.8999999985,,235844.844,8,400,,,
break_continue,html.Screen,4_30_2,2023-09-11T18:19:54.262Z,,0,,,NaN,,,,,,false,,,,235835.70000000298,235835.5,,235835.5,,235844.844,8,400,,,
sequence,flow.Sequence,4_30,2023-09-11T18:19:54.263Z,,0,,,3507.1820000000007,completion,,,,,false,,,,235835.80000000447,235835.5,232311.652,232312.5,232328.318,235844.844,8,400,,,
trial,html.Screen,4_31_0,2023-09-11T18:19:59.771Z,,0,1,,5499.4560000044585,response,ISIC_1858237.JPG,7,ISIC_3394080.JPG,ISIC_1858237.JPG,false,1,keypress(m),500,241344.5,241344.30000000447,235828.178,235835.8999999985,235844.844,241361.552,8,400,32,,ISIC_3394080.JPG
break,html.Screen,4_31_1,2023-09-11T18:19:59.772Z,,0,,,NaN,,,,,,false,,,,241345.20000000298,241345.1000000015,,241344.70000000298,,241361.552,8,400,,,
break_continue,html.Screen,4_31_2,2023-09-11T18:19:59.772Z,,0,,,NaN,,,,,,false,,,,241345.5,241345.3999999985,,241345.30000000447,,241361.552,8,400,,,
sequence,flow.Sequence,4_31,2023-09-11T18:19:59.772Z,,0,,,5500.555999998498,completion,,,,,false,,,,241345.6000000015,241345.3999999985,235828.178,235835.8999999985,235844.844,241361.552,8,400,,,
trial,html.Screen,4_32_0,2023-09-11T18:20:11.275Z,,0,1,,11516.545000000013,timeout,ISIC_8255784.JPG,8,ISIC_0032544.JPG,,false,,,500,252848,252847.80000000447,241344.886,241345.70000000298,241361.552,252878.097,8,400,33,,
break,html.Screen,4_32_1,2023-09-11T18:20:11.276Z,,0,,,NaN,,,,,,false,,,,252848.70000000298,252848.5,,252848.20000000298,,252878.097,8,400,,,
break_continue,html.Screen,4_32_2,2023-09-11T18:20:11.276Z,,0,,,NaN,,,,,,false,,,,252848.8999999985,252848.8999999985,,252848.80000000447,,252878.097,8,400,,,
sequence,flow.Sequence,4_32,2023-09-11T18:20:11.276Z,,0,,,11487.347999998514,completion,,,,,false,,,,252849,252848.8999999985,241344.886,241345.70000000298,241361.552,252878.097,8,400,,,
trial,html.Screen,4_33_0,2023-09-11T18:20:17.296Z,,0,1,,5990.603000002971,response,ISIC_0011387.JPG,7,ISIC_3877643.JPG,ISIC_0011387.JPG,false,1,keypress(m),500,258869.1000000015,258868.70000000298,252861.431,252849.20000000298,252878.097,258877.857,8,400,34,,ISIC_3877643.JPG
break,html.Screen,4_33_1,2023-09-11T18:20:17.297Z,,0,,,NaN,,,,,,false,,,,258869.80000000447,258869.6000000015,,258869.20000000298,,258877.857,8,400,,,
break_continue,html.Screen,4_33_2,2023-09-11T18:20:17.297Z,,0,,,NaN,,,,,,false,,,,258870,258869.8999999985,,258869.8999999985,,258877.857,8,400,,,
sequence,flow.Sequence,4_33,2023-09-11T18:20:17.297Z,,0,,,5991.802999998501,completion,,,,,false,,,,258870.20000000298,258869.8999999985,252861.431,252849.20000000298,252878.097,258877.857,8,400,,,
trial,html.Screen,4_34_0,2023-09-11T18:20:20.870Z,,0,1,,3564.243000001501,response,ISIC_6683370.JPG,7,ISIC_0010895.JPG,ISIC_0010895.JPG,false,0,keypress(z),500,262442.3999999985,262442.1000000015,258861.191,258870.30000000447,258877.857,262444.654,8,400,35,,ISIC_6683370.JPG
break,html.Screen,4_34_1,2023-09-11T18:20:20.870Z,,0,,,NaN,,,,,,false,,,,262443.200000003,262443,,262442.6000000015,,262444.654,8,400,,,
break_continue,html.Screen,4_34_2,2023-09-11T18:20:20.871Z,,0,,,NaN,,,,,,false,,,,262443.3999999985,262443.30000000447,,262443.200000003,,262444.654,8,400,,,
sequence,flow.Sequence,4_34,2023-09-11T18:20:20.871Z,,0,,,3565.4430000044813,completion,,,,,false,,,,262443.6000000015,262443.30000000447,258861.191,258870.30000000447,258877.857,262444.654,8,400,,,
trial,html.Screen,4_35_0,2023-09-11T18:20:25.915Z,,0,1,,5042.84600000002,response,ISIC_0000957.JPG,8,ISIC_4591316.JPG,ISIC_4591316.JPG,false,0,keypress(z),500,267487.700000003,267487.5,262427.988,262443.6000000015,262444.654,267494.452,8,400,36,,ISIC_0000957.JPG
break,html.Screen,4_35_1,2023-09-11T18:20:25.916Z,,0,,,NaN,,,,,,false,,,,267488.5,267488.30000000447,,267488,,267494.452,8,400,,,
break_continue,html.Screen,4_35_2,2023-09-11T18:20:25.916Z,,0,,,NaN,,,,,,false,,,,267488.700000003,267488.6000000015,,267488.5,,267494.452,8,400,,,
sequence,flow.Sequence,4_35,2023-09-11T18:20:25.916Z,,0,,,5043.94600000151,completion,,,,,false,,,,267488.8999999985,267488.6000000015,262427.988,262443.6000000015,262444.654,267494.452,8,400,,,
trial,html.Screen,4_36_0,2023-09-11T18:20:29.163Z,,0,1,,3241.04800000001,response,ISIC_0026756.JPG,6,ISIC_8945395.JPG,ISIC_8945395.JPG,false,0,keypress(z),500,270735.700000003,270735.5,267477.786,267489,267494.452,270744.322,8,400,37,,ISIC_0026756.JPG
break,html.Screen,4_36_1,2023-09-11T18:20:29.164Z,,0,,,NaN,,,,,,false,,,,270736.5,270736.30000000447,,270735.8999999985,,270744.322,8,400,,,
break_continue,html.Screen,4_36_2,2023-09-11T18:20:29.164Z,,0,,,NaN,,,,,,false,,,,270736.80000000447,270736.6000000015,,270736.6000000015,,270744.322,8,400,,,
sequence,flow.Sequence,4_36,2023-09-11T18:20:29.164Z,,0,,,3242.1480000015,completion,,,,,false,,,,270736.8999999985,270736.6000000015,267477.786,267489,267494.452,270744.322,8,400,,,
trial,html.Screen,4_37_0,2023-09-11T18:20:34.161Z,,0,1,,4988.778000001505,response,ISIC_6536232.JPG,6,ISIC_0068166.JPG,ISIC_6536232.JPG,false,1,keypress(m),500,275733.3999999985,275733.1000000015,270727.656,270737,270744.322,275744.383,8,400,38,,ISIC_0068166.JPG
break,html.Screen,4_37_1,2023-09-11T18:20:34.161Z,,0,,,NaN,,,,,,false,,,,275734.200000003,275734,,275733.6000000015,,275744.383,8,400,,,
break_continue,html.Screen,4_37_2,2023-09-11T18:20:34.162Z,,0,,,NaN,,,,,,false,,,,275734.3999999985,275734.3999999985,,275734.200000003,,275744.383,8,400,,,
sequence,flow.Sequence,4_37,2023-09-11T18:20:34.162Z,,0,,,4990.077999998524,completion,,,,,false,,,,275734.5,275734.3999999985,270727.656,270736.8999999985,270744.322,275744.383,8,400,,,
trial,html.Screen,4_38_0,2023-09-11T18:20:39.188Z,,0,1,,5015.717000001518,response,ISIC_6056692.JPG,8,ISIC_0059421.JPG,ISIC_6056692.JPG,false,1,keypress(m),500,280760.3999999985,280760.1000000015,275727.717,275734.700000003,275744.383,280760.849,8,400,39,,ISIC_0059421.JPG
break,html.Screen,4_38_1,2023-09-11T18:20:39.189Z,,0,,,NaN,,,,,,false,,,,280761.1000000015,280760.8999999985,,280760.6000000015,,280760.849,8,400,,,
break_continue,html.Screen,4_38_2,2023-09-11T18:20:39.189Z,,0,,,NaN,,,,,,false,,,,280761.3999999985,280761.30000000447,,280761.200000003,,280760.849,8,400,,,
sequence,flow.Sequence,4_38,2023-09-11T18:20:39.189Z,,0,,,5016.917000004498,completion,,,,,false,,,,280761.5,280761.30000000447,275727.717,275734.6000000015,275744.383,280760.849,8,400,,,
trial,html.Screen,4_39_0,2023-09-11T18:20:42.651Z,,0,1,,3462.0509999985225,response,ISIC_0013898.JPG,7,ISIC_0058508.JPG,ISIC_0058508.JPG,false,0,keypress(z),500,284223.1000000015,284222.8999999985,280744.183,280761.6000000015,280760.849,284227.632,8,400,40,,ISIC_0013898.JPG
break,html.Screen,4_39_1,2023-09-11T18:20:42.651Z,,0,,,NaN,,,,,,false,,,,284223.80000000447,284223.6000000015,,284223.30000000447,,284227.632,8,400,,,
break_continue,html.Screen,4_39_2,2023-09-11T18:20:42.652Z,,0,,,NaN,,,,,,false,,,,284224.1000000015,284224.1000000015,,284223.8999999985,,284227.632,8,400,,,
sequence,flow.Sequence,4_39,2023-09-11T18:20:42.652Z,,0,,,3463.2510000015027,completion,,,,,false,,,,284224.200000003,284224.1000000015,280744.183,280761.6000000015,280760.849,284227.632,8,400,,,
trial,html.Screen,4_40_0,2023-09-11T18:20:45.857Z,,0,1,,3201.168000004487,response,ISIC_9228573.JPG,7,ISIC_0064925.JPG,ISIC_0064925.JPG,false,0,keypress(z),500,287429.1000000015,287428.80000000447,284210.966,284224.3999999985,284227.632,287444.17,8,400,41,,ISIC_9228573.JPG
break,html.Screen,4_40_1,2023-09-11T18:20:45.857Z,,0,,,NaN,,,,,,false,,,,287429.700000003,287429.6000000015,,287429.30000000447,,287444.17,8,400,,,
break_continue,html.Screen,4_40_2,2023-09-11T18:20:45.858Z,,0,,,NaN,,,,,,false,,,,287430.1000000015,287430,,287429.80000000447,,287444.17,8,400,,,
sequence,flow.Sequence,4_40,2023-09-11T18:20:45.858Z,,0,,,3202.3680000000168,completion,,,,,false,,,,287430.200000003,287430,284210.966,284224.3999999985,284227.632,287444.17,8,400,,,
trial,html.Screen,4_41_0,2023-09-11T18:20:49.691Z,,0,1,,3819.229999998526,response,ISIC_9125543.JPG,8,ISIC_0060390.JPG,ISIC_0060390.JPG,false,0,keypress(z),500,291263.700000003,291263.3999999985,287427.504,287430.30000000447,287444.17,291277.35,8,400,42,,ISIC_9125543.JPG
break,html.Screen,4_41_1,2023-09-11T18:20:49.692Z,,0,,,NaN,,,,,,false,,,,291264.3999999985,291264.30000000447,,291263.8999999985,,291277.35,8,400,,,
break_continue,html.Screen,4_41_2,2023-09-11T18:20:49.692Z,,0,,,NaN,,,,,,false,,,,291264.80000000447,291264.6000000015,,291264.5,,291277.35,8,400,,,
sequence,flow.Sequence,4_41,2023-09-11T18:20:49.692Z,,0,,,3820.4300000015064,completion,,,,,false,,,,291264.80000000447,291264.6000000015,287427.504,287430.30000000447,287444.17,291277.35,8,400,,,
trial,html.Screen,4_42_0,2023-09-11T18:20:53.150Z,,0,1,,3444.8500000030035,response,ISIC_1330008.JPG,8,ISIC_8124900.JPG,ISIC_8124900.JPG,false,0,keypress(z),500,294722.3999999985,294722.200000003,291260.684,291265,291277.35,294727.467,8,400,43,,ISIC_1330008.JPG
break,html.Screen,4_42_1,2023-09-11T18:20:53.151Z,,0,,,NaN,,,,,,false,,,,294723.200000003,294723,,294722.6000000015,,294727.467,8,400,,,
break_continue,html.Screen,4_42_2,2023-09-11T18:20:53.151Z,,0,,,NaN,,,,,,false,,,,294723.3999999985,294723.30000000447,,294723.200000003,,294727.467,8,400,,,
sequence,flow.Sequence,4_42,2023-09-11T18:20:53.151Z,,0,,,3445.9500000044936,completion,,,,,false,,,,294723.5,294723.30000000447,291260.684,291265,291277.35,294727.467,8,400,,,
trial,html.Screen,4_43_0,2023-09-11T18:20:56.676Z,,0,1,,3520.833000004466,response,ISIC_1819358.JPG,4,ISIC_1332766.JPG,ISIC_1332766.JPG,false,0,keypress(z),500,298248.5,298248.30000000447,294710.801,294723.700000003,294727.467,298260.659,8,400,44,,ISIC_1819358.JPG
break,html.Screen,4_43_1,2023-09-11T18:20:56.677Z,,0,,,NaN,,,,,,false,,,,298249.3999999985,298249.1000000015,,298248.80000000447,,298260.659,8,400,,,
break_continue,html.Screen,4_43_2,2023-09-11T18:20:56.677Z,,0,,,NaN,,,,,,false,,,,298249.6000000015,298249.5,,298249.3999999985,,298260.659,8,400,,,
sequence,flow.Sequence,4_43,2023-09-11T18:20:56.677Z,,0,,,3522.032999999996,completion,,,,,false,,,,298249.700000003,298249.5,294710.801,294723.700000003,294727.467,298260.659,8,400,,,
trial,html.Screen,4_44_0,2023-09-11T18:21:00.438Z,,0,1,,3748.841000000015,response,ISIC_0072175.JPG,8,ISIC_0776189.JPG,ISIC_0072175.JPG,false,1,keypress(m),500,302009.80000000447,302009.5,298243.993,298249.80000000447,298260.659,302027.175,8,400,45,,ISIC_0776189.JPG
break,html.Screen,4_44_1,2023-09-11T18:21:00.438Z,,0,,,NaN,,,,,,false,,,,302010.6000000015,302010.3999999985,,302010.1000000015,,302027.175,8,400,,,
break_continue,html.Screen,4_44_2,2023-09-11T18:21:00.439Z,,0,,,NaN,,,,,,false,,,,302010.8999999985,302010.80000000447,,302010.700000003,,302027.175,8,400,,,
sequence,flow.Sequence,4_44,2023-09-11T18:21:00.439Z,,0,,,3750.1410000044852,completion,,,,,false,,,,302011,302010.80000000447,298243.993,298249.80000000447,298260.659,302027.175,8,400,,,
trial,html.Screen,4_45_0,2023-09-11T18:21:03.577Z,,0,1,,3121.525000002992,response,ISIC_0010050.JPG,8,ISIC_8497457.JPG,ISIC_0010050.JPG,false,1,keypress(m),500,305148.80000000447,305148.700000003,302010.509,302011.1000000015,302027.175,305160.655,8,400,46,,ISIC_8497457.JPG
break,html.Screen,4_45_1,2023-09-11T18:21:03.577Z,,0,,,NaN,,,,,,false,,,,305149.30000000447,305149.200000003,,305148.8999999985,,305160.655,8,400,,,
break_continue,html.Screen,4_45_2,2023-09-11T18:21:03.577Z,,0,,,NaN,,,,,,false,,,,305149.5,305149.30000000447,,305149.30000000447,,305160.655,8,400,,,
sequence,flow.Sequence,4_45,2023-09-11T18:21:03.577Z,,0,,,3122.125000004482,completion,,,,,false,,,,305149.5,305149.30000000447,302010.509,302011.1000000015,302027.175,305160.655,8,400,,,
trial,html.Screen,4_46_0,2023-09-11T18:21:08.044Z,,0,1,,4454.945000001462,response,ISIC_0013530.JPG,5,ISIC_0071300.JPG,ISIC_0071300.JPG,false,0,keypress(z),500,309615.8999999985,309615.6000000015,305143.989,305149.6000000015,305160.655,309627.143,8,400,47,,ISIC_0013530.JPG
break,html.Screen,4_46_1,2023-09-11T18:21:08.045Z,,0,,,NaN,,,,,,false,,,,309616.6000000015,309616.5,,309616.1000000015,,309627.143,8,400,,,
break_continue,html.Screen,4_46_2,2023-09-11T18:21:08.045Z,,0,,,NaN,,,,,,false,,,,309616.8999999985,309616.80000000447,,309616.80000000447,,309627.143,8,400,,,
sequence,flow.Sequence,4_46,2023-09-11T18:21:08.045Z,,0,,,4456.145000004442,completion,,,,,false,,,,309617.1000000015,309616.80000000447,305143.989,305149.6000000015,305160.655,309627.143,8,400,,,
trial,html.Screen,4_47_0,2023-09-11T18:21:11.582Z,,0,1,,3526.4570000015083,response,ISIC_0014395.JPG,7,ISIC_0024401.JPG,ISIC_0024401.JPG,false,0,keypress(z),500,313153.80000000447,313153.6000000015,309610.477,309617.200000003,309627.143,313160.335,8,400,48,,ISIC_0014395.JPG
break,html.Screen,4_47_1,2023-09-11T18:21:11.583Z,,0,,,NaN,,,,,,false,,,,313154.6000000015,313154.3999999985,,313154.1000000015,,313160.335,8,400,,,
break_continue,html.Screen,4_47_2,2023-09-11T18:21:11.583Z,,0,,,NaN,,,,,,false,,,,313154.8999999985,313154.80000000447,,313154.700000003,,313160.335,8,400,,,
sequence,flow.Sequence,4_47,2023-09-11T18:21:11.583Z,,0,,,3527.6570000044885,completion,,,,,false,,,,313155,313154.80000000447,309610.477,309617.200000003,309627.143,313160.335,8,400,,,
trial,html.Screen,4_48_0,2023-09-11T18:21:14.961Z,,0,1,,3372.564999998489,response,ISIC_0025835.JPG,6,ISIC_8901784.JPG,ISIC_0025835.JPG,false,1,keypress(m),500,316533.200000003,316532.8999999985,313143.669,313155.1000000015,313160.335,316543.79,8,400,49,,ISIC_8901784.JPG
break,html.Screen,4_48_1,2023-09-11T18:21:14.962Z,,0,,,NaN,,,,,,false,,,,316533.8999999985,316533.700000003,,316533.3999999985,,316543.79,8,400,,,
break_continue,html.Screen,4_48_2,2023-09-11T18:21:14.962Z,,0,,,NaN,,,,,,false,,,,316534.1000000015,316534.1000000015,,316534,,316543.79,8,400,,,
sequence,flow.Sequence,4_48,2023-09-11T18:21:14.962Z,,0,,,3373.765000001469,completion,,,,,false,,,,316534.30000000447,316534.1000000015,313143.669,313155.1000000015,313160.335,316543.79,8,400,,,
trial,html.Screen,4_49_0,2023-09-11T18:21:18.279Z,,0,1,,3306.810000001511,response,ISIC_3246746.JPG,7,ISIC_0063289.JPG,ISIC_0063289.JPG,false,0,keypress(z),500,319850.8999999985,319850.6000000015,316527.124,316534.3999999985,316543.79,319860.324,8,400,50,,ISIC_3246746.JPG
break,html.Screen,4_49_1,2023-09-11T18:21:28.273Z,,0,,,9999.853999999992,timeout,,,,,false,,,,329845.1000000015,329843.512,319843.658,319851.1000000015,319860.324,329860.178,8,400,,,
break_continue,html.Screen,4_49_2,2023-09-11T18:21:30.667Z,,0,,,2368.522000002966,response,,,,,false,continue,keypress(Space),,332238.5,332228.700000003,329843.512,329845.200000003,329860.178,332243.416,8,400,,,
sequence,flow.Sequence,4_49,2023-09-11T18:21:30.667Z,,0,,,15684.910000003001,completion,,,,,false,,,,332238.6000000015,332228.700000003,316527.124,316534.30000000447,316543.79,332243.416,8,400,,,
trial,html.Screen,4_50_0,2023-09-11T18:21:34.367Z,,0,2,,3694.884000004444,response,ISIC_0062546.JPG,8,ISIC_8659618.JPG,ISIC_0062546.JPG,false,1,keypress(m),500,335938.5,335938.30000000447,332226.75,332238.6000000015,332243.416,335943.524,8,400,1,,ISIC_8659618.JPG
break,html.Screen,4_50_1,2023-09-11T18:21:34.368Z,,0,,,NaN,,,,,,false,,,,335939.30000000447,335939.1000000015,,335938.700000003,,335943.524,8,400,,,
break_continue,html.Screen,4_50_2,2023-09-11T18:21:34.368Z,,0,,,NaN,,,,,,false,,,,335939.6000000015,335939.3999999985,,335939.3999999985,,335943.524,8,400,,,
sequence,flow.Sequence,4_50,2023-09-11T18:21:34.368Z,,0,,,3695.9839999984833,completion,,,,,false,,,,335939.700000003,335939.3999999985,332226.75,332238.6000000015,332243.416,335943.524,8,400,,,
trial,html.Screen,4_51_0,2023-09-11T18:21:37.522Z,,0,2,,3149.476000000024,response,ISIC_2371495.JPG,4,ISIC_0081584.JPG,ISIC_0081584.JPG,false,0,keypress(z),500,339093.200000003,339093,335926.858,335939.80000000447,335943.524,339110.064,8,400,2,,ISIC_2371495.JPG
break,html.Screen,4_51_1,2023-09-11T18:21:37.522Z,,0,,,NaN,,,,,,false,,,,339093.8999999985,339093.700000003,,339093.3999999985,,339110.064,8,400,,,
break_continue,html.Screen,4_51_2,2023-09-11T18:21:37.523Z,,0,,,NaN,,,,,,false,,,,339094.200000003,339094.1000000015,,339094,,339110.064,8,400,,,
sequence,flow.Sequence,4_51,2023-09-11T18:21:37.523Z,,0,,,3150.5760000015143,completion,,,,,false,,,,339094.30000000447,339094.1000000015,335926.858,335939.700000003,335943.524,339110.064,8,400,,,
trial,html.Screen,4_52_0,2023-09-11T18:21:41.718Z,,0,2,,4179.835999998497,response,ISIC_0061583.JPG,8,ISIC_0061315.JPG,ISIC_0061583.JPG,false,1,keypress(m),500,343290,343289.8999999985,339093.398,339094.3999999985,339110.064,343293.23,8,400,3,,ISIC_0061315.JPG
break,html.Screen,4_52_1,2023-09-11T18:21:41.719Z,,0,,,NaN,,,,,,false,,,,343290.80000000447,343290.700000003,,343290.30000000447,,343293.23,8,400,,,
break_continue,html.Screen,4_52_2,2023-09-11T18:21:41.719Z,,0,,,NaN,,,,,,false,,,,343291.1000000015,343291,,343290.8999999985,,343293.23,8,400,,,
sequence,flow.Sequence,4_52,2023-09-11T18:21:41.720Z,,0,,,4180.935999999987,completion,,,,,false,,,,343291.3999999985,343291,339093.398,339094.3999999985,339110.064,343293.23,8,400,,,
trial,html.Screen,4_53_0,2023-09-11T18:21:44.668Z,,0,2,,2946.2700000000186,response,ISIC_7025487.JPG,8,ISIC_9270367.JPG,ISIC_7025487.JPG,false,1,keypress(m),500,346239.80000000447,346239.5,343276.564,343291.5,343293.23,346243.367,8,400,4,,ISIC_9270367.JPG
break,html.Screen,4_53_1,2023-09-11T18:21:44.669Z,,0,,,NaN,,,,,,false,,,,346240.3999999985,346240.200000003,,346239.8999999985,,346243.367,8,400,,,
break_continue,html.Screen,4_53_2,2023-09-11T18:21:44.669Z,,0,,,NaN,,,,,,false,,,,346240.700000003,346240.6000000015,,346240.5,,346243.367,8,400,,,
sequence,flow.Sequence,4_53,2023-09-11T18:21:44.669Z,,0,,,2947.3700000015087,completion,,,,,false,,,,346240.80000000447,346240.6000000015,343276.564,343291.5,343293.23,346243.367,8,400,,,
trial,html.Screen,4_54_0,2023-09-11T18:21:47.426Z,,0,2,,2753.433000004443,response,ISIC_4093484.JPG,5,ISIC_0057028.JPG,ISIC_0057028.JPG,false,0,keypress(z),500,348997.1000000015,348996.80000000447,346226.701,346241,346243.367,349009.923,8,400,5,,ISIC_4093484.JPG
break,html.Screen,4_54_1,2023-09-11T18:21:47.426Z,,0,,,NaN,,,,,,false,,,,348997.8999999985,348997.700000003,,348997.3999999985,,349009.923,8,400,,,
break_continue,html.Screen,4_54_2,2023-09-11T18:21:47.427Z,,0,,,NaN,,,,,,false,,,,348998.200000003,348998.1000000015,,348997.8999999985,,349009.923,8,400,,,
sequence,flow.Sequence,4_54,2023-09-11T18:21:47.427Z,,0,,,2754.7330000014626,completion,,,,,false,,,,348998.200000003,348998.1000000015,346226.701,346240.8999999985,346243.367,349009.923,8,400,,,
trial,html.Screen,4_55_0,2023-09-11T18:21:50.060Z,,0,2,,2621.7770000029705,response,ISIC_3981425.JPG,7,ISIC_0026558.JPG,ISIC_0026558.JPG,false,0,keypress(z),500,351631.8999999985,351631.700000003,348993.257,348999.200000003,349009.923,351643.151,8,400,6,,ISIC_3981425.JPG
break,html.Screen,4_55_1,2023-09-11T18:21:50.061Z,,0,,,NaN,,,,,,false,,,,351632.6000000015,351632.3999999985,,351632.1000000015,,351643.151,8,400,,,
break_continue,html.Screen,4_55_2,2023-09-11T18:21:50.061Z,,0,,,NaN,,,,,,false,,,,351632.8999999985,351632.80000000447,,351632.80000000447,,351643.151,8,400,,,
sequence,flow.Sequence,4_55,2023-09-11T18:21:50.062Z,,0,,,2622.8770000044606,completion,,,,,false,,,,351633,351632.80000000447,348993.257,348999.1000000015,349009.923,351643.151,8,400,,,
trial,html.Screen,4_56_0,2023-09-11T18:21:52.931Z,,0,2,,2858.649000004458,response,ISIC_6515546.JPG,7,ISIC_0072582.JPG,ISIC_0072582.JPG,false,0,keypress(z),500,354502.1000000015,354501.80000000447,351626.485,351633.1000000015,351643.151,354509.974,8,400,7,,ISIC_6515546.JPG
break,html.Screen,4_56_1,2023-09-11T18:21:52.931Z,,0,,,NaN,,,,,,false,,,,354502.80000000447,354502.6000000015,,354502.30000000447,,354509.974,8,400,,,
break_continue,html.Screen,4_56_2,2023-09-11T18:21:52.932Z,,0,,,NaN,,,,,,false,,,,354503,354502.8999999985,,354502.8999999985,,354509.974,8,400,,,
sequence,flow.Sequence,4_56,2023-09-11T18:21:52.932Z,,0,,,2859.7489999984973,completion,,,,,false,,,,354503.200000003,354502.8999999985,351626.485,351633.1000000015,351643.151,354509.974,8,400,,,
trial,html.Screen,4_57_0,2023-09-11T18:21:55.740Z,,0,2,,2801.5260000000126,response,ISIC_0070651.JPG,9,ISIC_0027576.JPG,ISIC_0027576.JPG,false,0,keypress(z),500,357311.700000003,357311.5,354493.308,354503.30000000447,354509.974,357326.528,8,400,8,,ISIC_0070651.JPG
break,html.Screen,4_57_1,2023-09-11T18:21:55.741Z,,0,,,NaN,,,,,,false,,,,357312.3999999985,357312.200000003,,357311.8999999985,,357326.528,8,400,,,
break_continue,html.Screen,4_57_2,2023-09-11T18:21:55.741Z,,0,,,NaN,,,,,,false,,,,357312.700000003,357312.6000000015,,357312.5,,357326.528,8,400,,,
sequence,flow.Sequence,4_57,2023-09-11T18:21:55.741Z,,0,,,2802.6260000015027,completion,,,,,false,,,,357312.80000000447,357312.6000000015,354493.308,354503.200000003,354509.974,357326.528,8,400,,,
trial,html.Screen,4_58_0,2023-09-11T18:21:58.562Z,,0,2,,2806.3719999985187,response,ISIC_9203812.JPG,7,ISIC_7850786.JPG,ISIC_9203812.JPG,false,1,keypress(m),500,360133.1000000015,360132.8999999985,357309.862,357312.8999999985,357326.528,360143.082,8,400,9,,ISIC_7850786.JPG
break,html.Screen,4_58_1,2023-09-11T18:21:58.562Z,,0,,,NaN,,,,,,false,,,,360133.80000000447,360133.6000000015,,360133.200000003,,360143.082,8,400,,,
break_continue,html.Screen,4_58_2,2023-09-11T18:21:58.563Z,,0,,,NaN,,,,,,false,,,,360134.1000000015,360133.8999999985,,360133.8999999985,,360143.082,8,400,,,
sequence,flow.Sequence,4_58,2023-09-11T18:21:58.563Z,,0,,,2807.3719999985187,completion,,,,,false,,,,360134.200000003,360133.8999999985,357309.862,357312.8999999985,357326.528,360143.082,8,400,,,
trial,html.Screen,4_59_0,2023-09-11T18:22:01.880Z,,0,2,,3308.0180000014952,response,ISIC_0024288.JPG,7,ISIC_0002162.JPG,ISIC_0024288.JPG,false,1,keypress(m),500,363451.30000000447,363451.1000000015,360126.416,360134.30000000447,360143.082,363459.616,8,400,10,,ISIC_0002162.JPG
break,html.Screen,4_59_1,2023-09-11T18:22:01.881Z,,0,,,NaN,,,,,,false,,,,363452,363451.8999999985,,363451.5,,363459.616,8,400,,,
break_continue,html.Screen,4_59_2,2023-09-11T18:22:01.881Z,,0,,,NaN,,,,,,false,,,,363452.30000000447,363452.200000003,,363452.1000000015,,363459.616,8,400,,,
sequence,flow.Sequence,4_59,2023-09-11T18:22:01.881Z,,0,,,3309.1180000029854,completion,,,,,false,,,,363452.5,363452.200000003,360126.416,360134.200000003,360143.082,363459.616,8,400,,,
trial,html.Screen,4_60_0,2023-09-11T18:22:07.246Z,,0,2,,5357.48400000151,response,ISIC_5140952.JPG,5,ISIC_6128108.JPG,ISIC_6128108.JPG,false,0,keypress(z),500,368817.3999999985,368817.1000000015,363442.95,363452.6000000015,363459.616,368826.331,8,400,11,,ISIC_5140952.JPG
break,html.Screen,4_60_1,2023-09-11T18:22:07.247Z,,0,,,NaN,,,,,,false,,,,368818.1000000015,368818,,368817.6000000015,,368826.331,8,400,,,
break_continue,html.Screen,4_60_2,2023-09-11T18:22:07.247Z,,0,,,NaN,,,,,,false,,,,368818.3999999985,368818.30000000447,,368818.200000003,,368826.331,8,400,,,
sequence,flow.Sequence,4_60,2023-09-11T18:22:07.247Z,,0,,,5358.68400000449,completion,,,,,false,,,,368818.6000000015,368818.30000000447,363442.95,363452.5,363459.616,368826.331,8,400,,,
trial,html.Screen,4_61_0,2023-09-11T18:22:10.242Z,,0,2,,2986.4690000044648,response,ISIC_0030428.JPG,5,ISIC_0067012.JPG,ISIC_0067012.JPG,false,0,keypress(z),500,371813.1000000015,371812.80000000447,368809.665,368818.6000000015,368826.331,371826.211,8,400,12,,ISIC_0030428.JPG
break,html.Screen,4_61_1,2023-09-11T18:22:10.243Z,,0,,,NaN,,,,,,false,,,,371813.80000000447,371813.6000000015,,371813.200000003,,371826.211,8,400,,,
break_continue,html.Screen,4_61_2,2023-09-11T18:22:10.243Z,,0,,,NaN,,,,,,false,,,,371814.1000000015,371813.8999999985,,371813.8999999985,,371826.211,8,400,,,
sequence,flow.Sequence,4_61,2023-09-11T18:22:10.243Z,,0,,,2987.5689999985043,completion,,,,,false,,,,371814.200000003,371813.8999999985,368809.665,368818.6000000015,368826.331,371826.211,8,400,,,
trial,html.Screen,4_62_0,2023-09-11T18:22:12.903Z,,0,2,,2647.88900000148,response,ISIC_7358691.JPG,6,ISIC_0027971.JPG,ISIC_0027971.JPG,false,0,keypress(z),500,374474.30000000447,374474.1000000015,371809.545,371814.30000000447,371826.211,374476.105,8,400,13,,ISIC_7358691.JPG
break,html.Screen,4_62_1,2023-09-11T18:22:12.904Z,,0,,,NaN,,,,,,false,,,,374475,374474.80000000447,,374474.3999999985,,374476.105,8,400,,,
break_continue,html.Screen,4_62_2,2023-09-11T18:22:12.904Z,,0,,,NaN,,,,,,false,,,,374475.30000000447,374475.1000000015,,374475.1000000015,,374476.105,8,400,,,
sequence,flow.Sequence,4_62,2023-09-11T18:22:12.904Z,,0,,,2648.88900000148,completion,,,,,false,,,,374475.3999999985,374475.1000000015,371809.545,371814.30000000447,371826.211,374476.105,8,400,,,
trial,html.Screen,4_63_0,2023-09-11T18:22:15.927Z,,0,2,,3021.695000004489,response,ISIC_4141898.JPG,7,ISIC_0024826.JPG,ISIC_0024826.JPG,false,0,keypress(z),500,377498.1000000015,377497.80000000447,374459.439,374475.5,374476.105,377509.574,8,400,14,,ISIC_4141898.JPG
break,html.Screen,4_63_1,2023-09-11T18:22:15.928Z,,0,,,NaN,,,,,,false,,,,377498.80000000447,377498.6000000015,,377498.30000000447,,377509.574,8,400,,,
break_continue,html.Screen,4_63_2,2023-09-11T18:22:15.928Z,,0,,,NaN,,,,,,false,,,,377499.1000000015,377498.8999999985,,377498.8999999985,,377509.574,8,400,,,
sequence,flow.Sequence,4_63,2023-09-11T18:22:15.928Z,,0,,,3022.7949999985285,completion,,,,,false,,,,377499.1000000015,377498.8999999985,374459.439,374475.5,374476.105,377509.574,8,400,,,
trial,html.Screen,4_64_0,2023-09-11T18:22:18.599Z,,0,2,,2659.9259999999776,response,ISIC_3436139.JPG,6,ISIC_0064180.JPG,ISIC_0064180.JPG,false,0,keypress(z),500,380169.80000000447,380169.5,377492.908,377499.30000000447,377509.574,380176.134,8,400,15,,ISIC_3436139.JPG
break,html.Screen,4_64_1,2023-09-11T18:22:18.599Z,,0,,,NaN,,,,,,false,,,,380170.3999999985,380170.200000003,,380170,,380176.134,8,400,,,
break_continue,html.Screen,4_64_2,2023-09-11T18:22:18.600Z,,0,,,NaN,,,,,,false,,,,380170.700000003,380170.6000000015,,380170.6000000015,,380176.134,8,400,,,
sequence,flow.Sequence,4_64,2023-09-11T18:22:18.600Z,,0,,,2661.0260000014678,completion,,,,,false,,,,380170.8999999985,380170.6000000015,377492.908,377499.200000003,377509.574,380176.134,8,400,,,
trial,html.Screen,4_65_0,2023-09-11T18:22:21.725Z,,0,2,,3119.36599999998,response,ISIC_2412888.JPG,8,ISIC_0010895.JPG,ISIC_0010895.JPG,false,0,keypress(z),500,383295.700000003,383295.5,380159.468,380171,380176.134,383309.342,8,400,16,,ISIC_2412888.JPG
break,html.Screen,4_65_1,2023-09-11T18:22:21.725Z,,0,,,NaN,,,,,,false,,,,383296.5,383296.30000000447,,383296,,383309.342,8,400,,,
break_continue,html.Screen,4_65_2,2023-09-11T18:22:21.726Z,,0,,,NaN,,,,,,false,,,,383296.700000003,383296.700000003,,383296.6000000015,,383309.342,8,400,,,
sequence,flow.Sequence,4_65,2023-09-11T18:22:21.726Z,,0,,,3120.56600000296,completion,,,,,false,,,,383296.8999999985,383296.700000003,380159.468,380170.8999999985,380176.134,383309.342,8,400,,,
trial,html.Screen,4_66_0,2023-09-11T18:22:24.834Z,,0,2,,3095.5579999985057,response,ISIC_0030440.JPG,8,ISIC_8479913.JPG,ISIC_0030440.JPG,false,1,keypress(m),500,386405.200000003,386404.8999999985,383292.676,383296.8999999985,383309.342,386409.48,8,400,17,,ISIC_8479913.JPG
break,html.Screen,4_66_1,2023-09-11T18:22:24.835Z,,0,,,NaN,,,,,,false,,,,386405.8999999985,386405.700000003,,386405.3999999985,,386409.48,8,400,,,
break_continue,html.Screen,4_66_2,2023-09-11T18:22:24.835Z,,0,,,NaN,,,,,,false,,,,386406.200000003,386406,,386405.8999999985,,386409.48,8,400,,,
sequence,flow.Sequence,4_66,2023-09-11T18:22:24.835Z,,0,,,3096.657999999996,completion,,,,,false,,,,386406.200000003,386406,383292.676,383296.8999999985,383309.342,386409.48,8,400,,,
trial,html.Screen,4_67_0,2023-09-11T18:22:27.463Z,,0,2,,2624.1200000015087,response,ISIC_6688417.JPG,8,ISIC_0015219.JPG,ISIC_0015219.JPG,false,0,keypress(z),500,389033.80000000447,389033.6000000015,386392.814,386406.30000000447,386409.48,389042.708,8,400,18,,ISIC_6688417.JPG
break,html.Screen,4_67_1,2023-09-11T18:22:27.464Z,,0,,,NaN,,,,,,false,,,,389034.5,389034.3999999985,,389034.1000000015,,389042.708,8,400,,,
break_continue,html.Screen,4_67_2,2023-09-11T18:22:27.464Z,,0,,,NaN,,,,,,false,,,,389034.80000000447,389034.700000003,,389034.700000003,,389042.708,8,400,,,
sequence,flow.Sequence,4_67,2023-09-11T18:22:27.464Z,,0,,,2625.220000002999,completion,,,,,false,,,,389035,389034.700000003,386392.814,386406.30000000447,386409.48,389042.708,8,400,,,
trial,html.Screen,4_68_0,2023-09-11T18:22:30.749Z,,0,2,,3276.892000001506,response,ISIC_9286292.JPG,8,ISIC_0028041.JPG,ISIC_0028041.JPG,false,0,keypress(z),500,392319.700000003,392319.6000000015,389026.042,389035,389042.708,392325.91,8,400,19,,ISIC_9286292.JPG
break,html.Screen,4_68_1,2023-09-11T18:22:30.750Z,,0,,,NaN,,,,,,false,,,,392320.3999999985,392320.30000000447,,392319.8999999985,,392325.91,8,400,,,
break_continue,html.Screen,4_68_2,2023-09-11T18:22:30.750Z,,0,,,NaN,,,,,,false,,,,392320.700000003,392320.6000000015,,392320.5,,392325.91,8,400,,,
sequence,flow.Sequence,4_68,2023-09-11T18:22:30.750Z,,0,,,3277.892000001506,completion,,,,,false,,,,392320.80000000447,392320.6000000015,389026.042,389035,389042.708,392325.91,8,400,,,
trial,html.Screen,4_69_0,2023-09-11T18:22:33.602Z,,0,2,,2846.890000004496,response,ISIC_0069475.JPG,7,ISIC_0031155.JPG,ISIC_0069475.JPG,false,1,keypress(m),500,395173,395172.80000000447,392309.244,392320.8999999985,392325.91,395175.796,8,400,20,,ISIC_0031155.JPG
break,html.Screen,4_69_1,2023-09-11T18:22:33.603Z,,0,,,NaN,,,,,,false,,,,395173.700000003,395173.6000000015,,395173.200000003,,395175.796,8,400,,,
break_continue,html.Screen,4_69_2,2023-09-11T18:22:33.603Z,,0,,,NaN,,,,,,false,,,,395174,395174,,395173.8999999985,,395175.796,8,400,,,
sequence,flow.Sequence,4_69,2023-09-11T18:22:33.603Z,,0,,,2848.0900000000256,completion,,,,,false,,,,395174.200000003,395174,392309.244,392320.8999999985,392325.91,395175.796,8,400,,,
trial,html.Screen,4_70_0,2023-09-11T18:22:36.222Z,,0,2,,2616.804000001517,response,ISIC_5923430.JPG,7,ISIC_5067317.JPG,ISIC_5067317.JPG,false,0,keypress(z),500,397792.8999999985,397792.6000000015,395159.13,395174.30000000447,395175.796,397809.287,8,400,21,,ISIC_5923430.JPG
break,html.Screen,4_70_1,2023-09-11T18:22:36.223Z,,0,,,NaN,,,,,,false,,,,397793.6000000015,397793.3999999985,,397793.1000000015,,397809.287,8,400,,,
break_continue,html.Screen,4_70_2,2023-09-11T18:22:36.223Z,,0,,,NaN,,,,,,false,,,,397793.8999999985,397793.80000000447,,397793.700000003,,397809.287,8,400,,,
sequence,flow.Sequence,4_70,2023-09-11T18:22:36.223Z,,0,,,2618.0040000044974,completion,,,,,false,,,,397794,397793.80000000447,395159.13,395174.30000000447,395175.796,397809.287,8,400,,,
trial,html.Screen,4_71_0,2023-09-11T18:22:39.057Z,,0,2,,2818.6129999984987,response,ISIC_0069351.JPG,6,ISIC_0033055.JPG,ISIC_0069351.JPG,false,1,keypress(m),500,400628.1000000015,400627.8999999985,397792.621,397794.1000000015,397809.287,400642.507,8,400,22,,ISIC_0033055.JPG
break,html.Screen,4_71_1,2023-09-11T18:22:39.058Z,,0,,,NaN,,,,,,false,,,,400628.8999999985,400628.6000000015,,400628.30000000447,,400642.507,8,400,,,
break_continue,html.Screen,4_71_2,2023-09-11T18:22:39.058Z,,0,,,NaN,,,,,,false,,,,400629.1000000015,400629.1000000015,,400628.8999999985,,400642.507,8,400,,,
sequence,flow.Sequence,4_71,2023-09-11T18:22:39.059Z,,0,,,2819.813000001479,completion,,,,,false,,,,400629.30000000447,400629.1000000015,397792.621,397794.1000000015,397809.287,400642.507,8,400,,,
trial,html.Screen,4_72_0,2023-09-11T18:22:41.767Z,,0,2,,2694.793000004487,response,ISIC_0026699.JPG,7,ISIC_6877295.JPG,ISIC_6877295.JPG,false,0,keypress(z),500,403337.5,403337.30000000447,400625.841,400629.3999999985,400642.507,403342.399,8,400,23,,ISIC_0026699.JPG
break,html.Screen,4_72_1,2023-09-11T18:22:41.768Z,,0,,,NaN,,,,,,false,,,,403338.30000000447,403338.1000000015,,403337.700000003,,403342.399,8,400,,,
break_continue,html.Screen,4_72_2,2023-09-11T18:22:41.768Z,,0,,,NaN,,,,,,false,,,,403338.6000000015,403338.5,,403338.3999999985,,403342.399,8,400,,,
sequence,flow.Sequence,4_72,2023-09-11T18:22:41.768Z,,0,,,2695.9930000000168,completion,,,,,false,,,,403338.700000003,403338.5,400625.841,400629.30000000447,400642.507,403342.399,8,400,,,
trial,html.Screen,4_73_0,2023-09-11T18:22:44.711Z,,0,2,,2939.2010000015143,response,ISIC_0064836.JPG,5,ISIC_6507792.JPG,ISIC_0064836.JPG,false,1,keypress(m),500,406281.80000000447,406281.6000000015,403325.733,403338.700000003,403342.399,406292.55,8,400,24,,ISIC_6507792.JPG
break,html.Screen,4_73_1,2023-09-11T18:22:44.712Z,,0,,,NaN,,,,,,false,,,,406282.6000000015,406282.3999999985,,406282.1000000015,,406292.55,8,400,,,
break_continue,html.Screen,4_73_2,2023-09-11T18:22:44.712Z,,0,,,NaN,,,,,,false,,,,406282.80000000447,406282.700000003,,406282.6000000015,,406292.55,8,400,,,
sequence,flow.Sequence,4_73,2023-09-11T18:22:44.712Z,,0,,,2940.3010000030044,completion,,,,,false,,,,406282.8999999985,406282.700000003,403325.733,403338.700000003,403342.399,406292.55,8,400,,,
trial,html.Screen,4_74_0,2023-09-11T18:22:48.349Z,,0,2,,3627.150000002992,response,ISIC_7181296.JPG,6,ISIC_9256438.JPG,ISIC_9256438.JPG,false,0,keypress(z),500,409920,409919.700000003,406275.884,406283,406292.55,409925.738,8,400,25,,ISIC_7181296.JPG
break,html.Screen,4_74_1,2023-09-11T18:22:48.350Z,,0,,,NaN,,,,,,false,,,,409920.700000003,409920.5,,409920.200000003,,409925.738,8,400,,,
break_continue,html.Screen,4_74_2,2023-09-11T18:22:48.350Z,,0,,,NaN,,,,,,false,,,,409920.80000000447,409920.80000000447,,409920.80000000447,,409925.738,8,400,,,
sequence,flow.Sequence,4_74,2023-09-11T18:22:48.350Z,,0,,,3628.250000004482,completion,,,,,false,,,,409921,409920.80000000447,406275.884,406283,406292.55,409925.738,8,400,,,
trial,html.Screen,4_75_0,2023-09-11T18:22:51.249Z,,0,2,,2893.5620000044582,response,ISIC_0014211.JPG,7,ISIC_1509635.JPG,ISIC_1509635.JPG,false,0,keypress(z),500,412819.5,412819.30000000447,409909.072,409921.1000000015,409925.738,412825.622,8,400,26,,ISIC_0014211.JPG
break,html.Screen,4_75_1,2023-09-11T18:22:51.250Z,,0,,,NaN,,,,,,false,,,,412820.200000003,412820.1000000015,,412819.700000003,,412825.622,8,400,,,
break_continue,html.Screen,4_75_2,2023-09-11T18:22:51.250Z,,0,,,NaN,,,,,,false,,,,412820.5,412820.5,,412820.3999999985,,412825.622,8,400,,,
sequence,flow.Sequence,4_75,2023-09-11T18:22:51.250Z,,0,,,2894.761999999988,completion,,,,,false,,,,412820.700000003,412820.5,409909.072,409921.1000000015,409925.738,412825.622,8,400,,,
trial,html.Screen,4_76_0,2023-09-11T18:22:54.501Z,,0,2,,3245.6780000044964,response,ISIC_0025832.JPG,7,ISIC_3916064.JPG,ISIC_3916064.JPG,false,0,keypress(z),500,416071.5,416071.30000000447,412808.956,412820.80000000447,412825.622,416075.492,8,400,27,,ISIC_0025832.JPG
break,html.Screen,4_76_1,2023-09-11T18:22:54.502Z,,0,,,NaN,,,,,,false,,,,416072.200000003,416072.1000000015,,416071.700000003,,416075.492,8,400,,,
break_continue,html.Screen,4_76_2,2023-09-11T18:22:54.502Z,,0,,,NaN,,,,,,false,,,,416072.5,416072.3999999985,,416072.3999999985,,416075.492,8,400,,,
sequence,flow.Sequence,4_76,2023-09-11T18:22:54.502Z,,0,,,3246.777999998536,completion,,,,,false,,,,416072.6000000015,416072.3999999985,412808.956,412820.80000000447,412825.622,416075.492,8,400,,,
trial,html.Screen,4_77_0,2023-09-11T18:22:57.451Z,,0,2,,2946.2080000029528,response,ISIC_0029550.JPG,5,ISIC_3025889.JPG,ISIC_3025889.JPG,false,0,keypress(z),500,419021.8999999985,419021.700000003,416058.826,416072.700000003,416075.492,419025.636,8,400,28,,ISIC_0029550.JPG
break,html.Screen,4_77_1,2023-09-11T18:22:57.452Z,,0,,,NaN,,,,,,false,,,,419022.700000003,419022.5,,419022.1000000015,,419025.636,8,400,,,
break_continue,html.Screen,4_77_2,2023-09-11T18:22:57.452Z,,0,,,NaN,,,,,,false,,,,419022.8999999985,419022.80000000447,,419022.80000000447,,419025.636,8,400,,,
sequence,flow.Sequence,4_77,2023-09-11T18:22:57.453Z,,0,,,2947.308000004443,completion,,,,,false,,,,419023.1000000015,419022.80000000447,416058.826,416072.700000003,416075.492,419025.636,8,400,,,
trial,html.Screen,4_78_0,2023-09-11T18:23:00.849Z,,0,2,,3393.9640000014915,response,ISIC_8108099.JPG,8,ISIC_5790319.JPG,ISIC_8108099.JPG,false,1,keypress(m),500,422419.80000000447,422419.6000000015,419008.97,419023.1000000015,419025.636,422425.5,8,400,29,,ISIC_5790319.JPG
break,html.Screen,4_78_1,2023-09-11T18:23:00.850Z,,0,,,NaN,,,,,,false,,,,422420.6000000015,422420.3999999985,,422420,,422425.5,8,400,,,
break_continue,html.Screen,4_78_2,2023-09-11T18:23:00.850Z,,0,,,NaN,,,,,,false,,,,422420.8999999985,422420.700000003,,422420.6000000015,,422425.5,8,400,,,
sequence,flow.Sequence,4_78,2023-09-11T18:23:00.851Z,,0,,,3395.0640000029816,completion,,,,,false,,,,422420.8999999985,422420.700000003,419008.97,419023.1000000015,419025.636,422425.5,8,400,,,
trial,html.Screen,4_79_0,2023-09-11T18:23:04.328Z,,0,2,,3472.2000000029802,response,ISIC_0032473.JPG,8,ISIC_0024840.JPG,ISIC_0024840.JPG,false,0,keypress(z),500,425897.8999999985,425897.700000003,422408.834,422421.1000000015,422425.5,425908.694,8,400,30,,ISIC_0032473.JPG
break,html.Screen,4_79_1,2023-09-11T18:23:04.328Z,,0,,,NaN,,,,,,false,,,,425898.6000000015,425898.3999999985,,425898.1000000015,,425908.694,8,400,,,
break_continue,html.Screen,4_79_2,2023-09-11T18:23:04.329Z,,0,,,NaN,,,,,,false,,,,425898.8999999985,425898.80000000447,,425898.700000003,,425908.694,8,400,,,
sequence,flow.Sequence,4_79,2023-09-11T18:23:04.329Z,,0,,,3473.3000000044703,completion,,,,,false,,,,425899,425898.80000000447,422408.834,422421.1000000015,422425.5,425908.694,8,400,,,
trial,html.Screen,4_80_0,2023-09-11T18:23:07.358Z,,0,2,,3019.205999998492,response,ISIC_1002979.JPG,7,ISIC_1915890.JPG,ISIC_1915890.JPG,false,0,keypress(z),500,428928.1000000015,428927.8999999985,425892.028,425899.1000000015,425908.694,428958.847,8,400,31,,ISIC_1002979.JPG
break,html.Screen,4_80_1,2023-09-11T18:23:07.358Z,,0,,,NaN,,,,,,false,,,,428928.700000003,428928.6000000015,,428928.3999999985,,428958.847,8,400,,,
break_continue,html.Screen,4_80_2,2023-09-11T18:23:07.359Z,,0,,,NaN,,,,,,false,,,,428929,428928.80000000447,,428928.80000000447,,428958.847,8,400,,,
sequence,flow.Sequence,4_80,2023-09-11T18:23:07.359Z,,0,,,3020.1060000044527,completion,,,,,false,,,,428929.1000000015,428928.80000000447,425892.028,425899.1000000015,425908.694,428958.847,8,400,,,
trial,html.Screen,4_81_0,2023-09-11T18:23:10.241Z,,0,2,,2852.4530000044615,response,ISIC_0059390.JPG,7,ISIC_7059794.JPG,ISIC_0059390.JPG,false,1,keypress(m),500,431811.5,431811.30000000447,428942.181,428929.200000003,428958.847,431825.399,8,400,32,,ISIC_7059794.JPG
break,html.Screen,4_81_1,2023-09-11T18:23:10.242Z,,0,,,NaN,,,,,,false,,,,431812.200000003,431812,,431811.700000003,,431825.399,8,400,,,
break_continue,html.Screen,4_81_2,2023-09-11T18:23:10.242Z,,0,,,NaN,,,,,,false,,,,431812.6000000015,431812.3999999985,,431812.3999999985,,431825.399,8,400,,,
sequence,flow.Sequence,4_81,2023-09-11T18:23:10.242Z,,0,,,2853.552999998501,completion,,,,,false,,,,431812.6000000015,431812.3999999985,428942.181,428929.200000003,428958.847,431825.399,8,400,,,
trial,html.Screen,4_82_0,2023-09-11T18:23:13.256Z,,0,2,,3000.7010000015143,response,ISIC_0010742.JPG,7,ISIC_4680417.JPG,ISIC_0010742.JPG,false,1,keypress(m),500,434826.30000000447,434826.1000000015,431808.733,431812.700000003,431825.399,434841.945,8,400,33,,ISIC_4680417.JPG
break,html.Screen,4_82_1,2023-09-11T18:23:13.257Z,,0,,,NaN,,,,,,false,,,,434827,434826.80000000447,,434826.6000000015,,434841.945,8,400,,,
break_continue,html.Screen,4_82_2,2023-09-11T18:23:13.257Z,,0,,,NaN,,,,,,false,,,,434827.3999999985,434827.30000000447,,434827.1000000015,,434841.945,8,400,,,
sequence,flow.Sequence,4_82,2023-09-11T18:23:13.257Z,,0,,,3001.9010000044946,completion,,,,,false,,,,434827.5,434827.30000000447,431808.733,431812.700000003,431825.399,434841.945,8,400,,,
trial,html.Screen,4_83_0,2023-09-11T18:23:16.476Z,,0,2,,3203.954999998503,response,ISIC_0026224.JPG,7,ISIC_9688119.JPG,ISIC_0026224.JPG,false,1,keypress(m),500,438046.200000003,438045.8999999985,434825.279,434827.5,434841.945,438058.753,8,400,34,,ISIC_9688119.JPG
break,html.Screen,4_83_1,2023-09-11T18:23:16.477Z,,0,,,NaN,,,,,,false,,,,438046.8999999985,438046.700000003,,438046.3999999985,,438058.753,8,400,,,
break_continue,html.Screen,4_83_2,2023-09-11T18:23:16.477Z,,0,,,NaN,,,,,,false,,,,438047.200000003,438047.1000000015,,438047,,438058.753,8,400,,,
sequence,flow.Sequence,4_83,2023-09-11T18:23:16.477Z,,0,,,3205.155000001483,completion,,,,,false,,,,438047.30000000447,438047.1000000015,434825.279,434827.5,434841.945,438058.753,8,400,,,
trial,html.Screen,4_84_0,2023-09-11T18:23:19.458Z,,0,2,,2969.447000002954,response,ISIC_8184471.JPG,8,ISIC_6991849.JPG,ISIC_8184471.JPG,false,1,keypress(m),500,441028.5,441028.200000003,438042.087,438047.3999999985,438058.753,441041.967,8,400,35,,ISIC_6991849.JPG
break,html.Screen,4_84_1,2023-09-11T18:23:19.459Z,,0,,,NaN,,,,,,false,,,,441029.30000000447,441029,,441028.700000003,,441041.967,8,400,,,
break_continue,html.Screen,4_84_2,2023-09-11T18:23:19.459Z,,0,,,NaN,,,,,,false,,,,441029.5,441029.3999999985,,441029.30000000447,,441041.967,8,400,,,
sequence,flow.Sequence,4_84,2023-09-11T18:23:19.460Z,,0,,,2970.646999998484,completion,,,,,false,,,,441029.6000000015,441029.3999999985,438042.087,438047.3999999985,438058.753,441041.967,8,400,,,
trial,html.Screen,4_85_0,2023-09-11T18:23:22.494Z,,0,2,,3021.4329999985057,response,ISIC_0011127.JPG,8,ISIC_5476770.JPG,ISIC_0011127.JPG,false,1,keypress(m),500,444063.700000003,444063.3999999985,441025.301,441029.700000003,441041.967,444075.179,8,400,36,,ISIC_5476770.JPG
break,html.Screen,4_85_1,2023-09-11T18:23:22.494Z,,0,,,NaN,,,,,,false,,,,444064.3999999985,444064.200000003,,444063.8999999985,,444075.179,8,400,,,
break_continue,html.Screen,4_85_2,2023-09-11T18:23:22.495Z,,0,,,NaN,,,,,,false,,,,444064.700000003,444064.6000000015,,444064.6000000015,,444075.179,8,400,,,
sequence,flow.Sequence,4_85,2023-09-11T18:23:22.495Z,,0,,,3022.633000001486,completion,,,,,false,,,,444064.8999999985,444064.6000000015,441025.301,441029.700000003,441041.967,444075.179,8,400,,,
trial,html.Screen,4_86_0,2023-09-11T18:23:25.586Z,,0,2,,3080.9210000014864,response,ISIC_0028481.JPG,8,ISIC_0034218.JPG,ISIC_0034218.JPG,false,0,keypress(z),500,447156.30000000447,447156.1000000015,444058.513,444064.8999999985,444075.179,447158.389,8,400,37,,ISIC_0028481.JPG
break,html.Screen,4_86_1,2023-09-11T18:23:25.587Z,,0,,,NaN,,,,,,false,,,,447157,447156.80000000447,,447156.5,,447158.389,8,400,,,
break_continue,html.Screen,4_86_2,2023-09-11T18:23:25.587Z,,0,,,NaN,,,,,,false,,,,447157.30000000447,447157.1000000015,,447157.1000000015,,447158.389,8,400,,,
sequence,flow.Sequence,4_86,2023-09-11T18:23:25.587Z,,0,,,3081.9210000014864,completion,,,,,false,,,,447157.3999999985,447157.1000000015,444058.513,444064.8999999985,444075.179,447158.389,8,400,,,
trial,html.Screen,4_87_0,2023-09-11T18:23:28.614Z,,0,2,,3025.8110000029556,response,ISIC_5787517.JPG,7,ISIC_7101810.JPG,ISIC_5787517.JPG,false,1,keypress(m),500,450184.5,450184.200000003,447141.723,447157.5,447158.389,450191.864,8,400,38,,ISIC_7101810.JPG
break,html.Screen,4_87_1,2023-09-11T18:23:28.615Z,,0,,,NaN,,,,,,false,,,,450185.200000003,450184.8999999985,,450184.6000000015,,450191.864,8,400,,,
break_continue,html.Screen,4_87_2,2023-09-11T18:23:28.616Z,,0,,,NaN,,,,,,false,,,,450185.5,450185.30000000447,,450185.30000000447,,450191.864,8,400,,,
sequence,flow.Sequence,4_87,2023-09-11T18:23:28.616Z,,0,,,3026.9110000044457,completion,,,,,false,,,,450185.6000000015,450185.30000000447,447141.723,447157.5,447158.389,450191.864,8,400,,,
trial,html.Screen,4_88_0,2023-09-11T18:23:31.375Z,,0,2,,2753.0359999985085,response,ISIC_0046340.JPG,6,ISIC_1223849.JPG,ISIC_0046340.JPG,false,1,keypress(m),500,452945.200000003,452944.8999999985,450175.198,450185.6000000015,450191.864,452958.42,8,400,39,,ISIC_1223849.JPG
break,html.Screen,4_88_1,2023-09-11T18:23:31.376Z,,0,,,NaN,,,,,,false,,,,452945.8999999985,452945.700000003,,452945.3999999985,,452958.42,8,400,,,
break_continue,html.Screen,4_88_2,2023-09-11T18:23:31.376Z,,0,,,NaN,,,,,,false,,,,452946.200000003,452946,,452946,,452958.42,8,400,,,
sequence,flow.Sequence,4_88,2023-09-11T18:23:31.376Z,,0,,,2754.1359999999986,completion,,,,,false,,,,452946.30000000447,452946,450175.198,450185.6000000015,450191.864,452958.42,8,400,,,
trial,html.Screen,4_89_0,2023-09-11T18:23:34.275Z,,0,2,,2886.479999998526,response,ISIC_1637536.JPG,8,ISIC_0062686.JPG,ISIC_0062686.JPG,false,0,keypress(z),500,455845.200000003,455844.8999999985,452941.754,452946.30000000447,452958.42,455858.304,8,400,40,,ISIC_1637536.JPG
break,html.Screen,4_89_1,2023-09-11T18:23:34.276Z,,0,,,NaN,,,,,,false,,,,455845.8999999985,455845.700000003,,455845.3999999985,,455858.304,8,400,,,
break_continue,html.Screen,4_89_2,2023-09-11T18:23:34.276Z,,0,,,NaN,,,,,,false,,,,455846.1000000015,455846,,455846,,455858.304,8,400,,,
sequence,flow.Sequence,4_89,2023-09-11T18:23:34.276Z,,0,,,2887.5800000000163,completion,,,,,false,,,,455846.200000003,455846,452941.754,452946.30000000447,452958.42,455858.304,8,400,,,
trial,html.Screen,4_90_0,2023-09-11T18:23:37.303Z,,0,2,,3014.095999998506,response,ISIC_9005623.JPG,7,ISIC_0025658.JPG,ISIC_0025658.JPG,false,0,keypress(z),500,458872.6000000015,458872.3999999985,455841.638,455846.30000000447,455858.304,458875.115,8,400,41,,ISIC_9005623.JPG
break,html.Screen,4_90_1,2023-09-11T18:23:37.304Z,,0,,,NaN,,,,,,false,,,,458873.3999999985,458873.200000003,,458872.80000000447,,458875.115,8,400,,,
break_continue,html.Screen,4_90_2,2023-09-11T18:23:37.304Z,,0,,,NaN,,,,,,false,,,,458873.5,458873.5,,458873.3999999985,,458875.115,8,400,,,
sequence,flow.Sequence,4_90,2023-09-11T18:23:37.304Z,,0,,,3015.1959999999963,completion,,,,,false,,,,458873.700000003,458873.5,455841.638,455846.30000000447,455858.304,458875.115,8,400,,,
trial,html.Screen,4_91_0,2023-09-11T18:23:40.141Z,,0,2,,2834.9850000014994,response,ISIC_4220010.JPG,9,ISIC_4873045.JPG,ISIC_4220010.JPG,false,1,keypress(m),500,461710.30000000447,461710.1000000015,458858.449,458873.80000000447,458875.115,461725.001,8,400,42,,ISIC_4873045.JPG
break,html.Screen,4_91_1,2023-09-11T18:23:40.141Z,,0,,,NaN,,,,,,false,,,,461711,461710.8999999985,,461710.5,,461725.001,8,400,,,
break_continue,html.Screen,4_91_2,2023-09-11T18:23:40.142Z,,0,,,NaN,,,,,,false,,,,461711.30000000447,461711.30000000447,,461711.1000000015,,461725.001,8,400,,,
sequence,flow.Sequence,4_91,2023-09-11T18:23:40.142Z,,0,,,2836.1850000044797,completion,,,,,false,,,,461711.3999999985,461711.30000000447,458858.449,458873.80000000447,458875.115,461725.001,8,400,,,
trial,html.Screen,4_92_0,2023-09-11T18:23:43.393Z,,0,2,,3237.299000004481,response,ISIC_0009879.JPG,8,ISIC_9171071.JPG,ISIC_9171071.JPG,false,0,keypress(z),500,464962.5,464962.30000000447,461708.335,461711.6000000015,461725.001,464974.871,8,400,43,,ISIC_0009879.JPG
break,html.Screen,4_92_1,2023-09-11T18:23:43.393Z,,0,,,NaN,,,,,,false,,,,464963.200000003,464963,,464962.700000003,,464974.871,8,400,,,
break_continue,html.Screen,4_92_2,2023-09-11T18:23:43.394Z,,0,,,NaN,,,,,,false,,,,464963.3999999985,464963.30000000447,,464963.30000000447,,464974.871,8,400,,,
sequence,flow.Sequence,4_92,2023-09-11T18:23:43.394Z,,0,,,3238.299000004481,completion,,,,,false,,,,464963.6000000015,464963.30000000447,461708.335,461711.5,461725.001,464974.871,8,400,,,
trial,html.Screen,4_93_0,2023-09-11T18:23:46.135Z,,0,2,,2729.1290000000154,response,ISIC_2714572.JPG,9,ISIC_8077943.JPG,ISIC_2714572.JPG,false,1,keypress(m),500,467704.200000003,467704,464958.205,464963.6000000015,464974.871,467708.095,8,400,44,,ISIC_8077943.JPG
break,html.Screen,4_93_1,2023-09-11T18:23:46.135Z,,0,,,NaN,,,,,,false,,,,467705,467704.80000000447,,467704.3999999985,,467708.095,8,400,,,
break_continue,html.Screen,4_93_2,2023-09-11T18:23:46.136Z,,0,,,NaN,,,,,,false,,,,467705.30000000447,467705.200000003,,467705,,467708.095,8,400,,,
sequence,flow.Sequence,4_93,2023-09-11T18:23:46.136Z,,0,,,2730.3290000029956,completion,,,,,false,,,,467705.5,467705.200000003,464958.205,464963.6000000015,464974.871,467708.095,8,400,,,
trial,html.Screen,4_94_0,2023-09-11T18:23:49.149Z,,0,2,,3009.905000000028,response,ISIC_0476606.JPG,7,ISIC_7575957.JPG,ISIC_7575957.JPG,false,0,keypress(z),500,470718.30000000447,470718,467691.429,467705.5,467708.095,470724.904,8,400,45,,ISIC_0476606.JPG
break,html.Screen,4_94_1,2023-09-11T18:23:49.149Z,,0,,,NaN,,,,,,false,,,,470719,470718.80000000447,,470718.3999999985,,470724.904,8,400,,,
break_continue,html.Screen,4_94_2,2023-09-11T18:23:49.150Z,,0,,,NaN,,,,,,false,,,,470719.30000000447,470719.200000003,,470719.1000000015,,470724.904,8,400,,,
sequence,flow.Sequence,4_94,2023-09-11T18:23:49.150Z,,0,,,3011.105000003008,completion,,,,,false,,,,470719.3999999985,470719.200000003,467691.429,467705.5,467708.095,470724.904,8,400,,,
trial,html.Screen,4_95_0,2023-09-11T18:23:51.814Z,,0,2,,2658.796000003,response,ISIC_8863344.JPG,8,ISIC_0062048.JPG,ISIC_0062048.JPG,false,0,keypress(z),500,473383.8999999985,473383.700000003,470708.238,470719.5,470724.904,473391.464,8,400,46,,ISIC_8863344.JPG
break,html.Screen,4_95_1,2023-09-11T18:23:51.815Z,,0,,,NaN,,,,,,false,,,,473384.6000000015,473384.3999999985,,473384.1000000015,,473391.464,8,400,,,
break_continue,html.Screen,4_95_2,2023-09-11T18:23:51.815Z,,0,,,NaN,,,,,,false,,,,473384.8999999985,473384.8999999985,,473384.700000003,,473391.464,8,400,,,
sequence,flow.Sequence,4_95,2023-09-11T18:23:51.815Z,,0,,,2659.9959999985294,completion,,,,,false,,,,473385,473384.8999999985,470708.238,470719.5,470724.904,473391.464,8,400,,,
trial,html.Screen,4_96_0,2023-09-11T18:23:55.360Z,,0,2,,3535.9359999985318,response,ISIC_9564379.JPG,5,ISIC_0055246.JPG,ISIC_0055246.JPG,false,0,keypress(z),500,476927.700000003,476927.3999999985,473374.798,473385.200000003,473391.464,476941.322,8,400,47,,ISIC_9564379.JPG
break,html.Screen,4_96_1,2023-09-11T18:23:55.361Z,,0,,,NaN,,,,,,false,,,,476928.3999999985,476928.200000003,,476927.8999999985,,476941.322,8,400,,,
break_continue,html.Screen,4_96_2,2023-09-11T18:23:55.361Z,,0,,,NaN,,,,,,false,,,,476928.6000000015,476928.6000000015,,476928.3999999985,,476941.322,8,400,,,
sequence,flow.Sequence,4_96,2023-09-11T18:23:55.361Z,,0,,,3537.136000001512,completion,,,,,false,,,,476928.80000000447,476928.6000000015,473374.798,473385.200000003,473391.464,476941.322,8,400,,,
trial,html.Screen,4_97_0,2023-09-11T18:23:58.875Z,,0,2,,3497.7780000015046,response,ISIC_0008724.JPG,9,ISIC_0029684.JPG,ISIC_0029684.JPG,false,0,keypress(z),500,480439.30000000447,480439.1000000015,476924.656,476928.8999999985,476941.322,480441.467,8,400,48,,ISIC_0008724.JPG
break,html.Screen,4_97_1,2023-09-11T18:23:58.875Z,,0,,,NaN,,,,,,false,,,,480440.1000000015,480439.80000000447,,480439.5,,480441.467,8,400,,,
break_continue,html.Screen,4_97_2,2023-09-11T18:23:58.876Z,,0,,,NaN,,,,,,false,,,,480440.30000000447,480440.200000003,,480440.1000000015,,480441.467,8,400,,,
sequence,flow.Sequence,4_97,2023-09-11T18:23:58.876Z,,0,,,3498.8780000029947,completion,,,,,false,,,,480440.5,480440.200000003,476924.656,476928.8999999985,476941.322,480441.467,8,400,,,
trial,html.Screen,4_98_0,2023-09-11T18:24:01.744Z,,0,2,,2864.733000002976,response,ISIC_2483825.JPG,7,ISIC_5204408.JPG,ISIC_2483825.JPG,false,1,keypress(m),500,483306.5,483306.200000003,480424.801,480440.6000000015,480441.467,483324.685,8,400,49,,ISIC_5204408.JPG
break,html.Screen,4_98_1,2023-09-11T18:24:01.745Z,,0,,,NaN,,,,,,false,,,,483307.200000003,483307,,483306.700000003,,483324.685,8,400,,,
break_continue,html.Screen,4_98_2,2023-09-11T18:24:01.745Z,,0,,,NaN,,,,,,false,,,,483307.3999999985,483307.3999999985,,483307.200000003,,483324.685,8,400,,,
sequence,flow.Sequence,4_98,2023-09-11T18:24:01.745Z,,0,,,2865.9329999985057,completion,,,,,false,,,,483307.6000000015,483307.3999999985,480424.801,480440.6000000015,480441.467,483324.685,8,400,,,
trial,html.Screen,4_99_0,2023-09-11T18:24:05.013Z,,0,2,,3248.214999998512,response,ISIC_2975580.JPG,8,ISIC_0375034.JPG,ISIC_0375034.JPG,false,0,keypress(z),500,486573.200000003,486572.8999999985,483308.019,483307.6000000015,483324.685,486574.555,8,400,50,,ISIC_2975580.JPG
break,html.Screen,4_99_1,2023-09-11T18:24:15.003Z,,0,,,9999.853999999992,timeout,,,,,false,,,,496559.200000003,496557.743,486557.889,486573.3999999985,486574.555,496574.409,8,400,,,
break_continue,html.Screen,4_99_2,2023-09-11T18:24:17.035Z,,0,,,2003.4909999985248,response,,,,,false,continue,keypress(Space),,498591.30000000447,498577.8999999985,496557.743,496559.30000000447,496574.409,498607.661,8,400,,,
sequence,flow.Sequence,4_99,2023-09-11T18:24:17.035Z,,0,,,15253.214999998512,completion,,,,,false,,,,498591.30000000447,498577.8999999985,483308.019,483307.6000000015,483324.685,498607.661,8,400,,,
trial,html.Screen,4_100_0,2023-09-11T18:24:21.055Z,,0,3,,4002.238999998488,response,ISIC_0385633.JPG,8,ISIC_0030656.JPG,ISIC_0385633.JPG,false,1,keypress(m),500,502610.200000003,502609.8999999985,498590.995,498591.3999999985,498607.661,502624.425,8,400,1,,ISIC_0030656.JPG
break,html.Screen,4_100_1,2023-09-11T18:24:21.056Z,,0,,,NaN,,,,,,false,,,,502610.80000000447,502610.700000003,,502610.30000000447,,502624.425,8,400,,,
break_continue,html.Screen,4_100_2,2023-09-11T18:24:21.056Z,,0,,,NaN,,,,,,false,,,,502611.1000000015,502611,,502610.8999999985,,502624.425,8,400,,,
sequence,flow.Sequence,4_100,2023-09-11T18:24:21.056Z,,0,,,4003.338999999978,completion,,,,,false,,,,502611.200000003,502611,498590.995,498591.3999999985,498607.661,502624.425,8,400,,,
trial,html.Screen,4_101_0,2023-09-11T18:24:23.648Z,,0,3,,2577.4749999985215,response,ISIC_5688950.JPG,5,ISIC_0033099.JPG,ISIC_0033099.JPG,false,0,keypress(z),500,505202.1000000015,505201.8999999985,502607.759,502611.30000000447,502624.425,505207.655,8,400,2,,ISIC_5688950.JPG
break,html.Screen,4_101_1,2023-09-11T18:24:23.648Z,,0,,,NaN,,,,,,false,,,,505202.8999999985,505202.700000003,,505202.3999999985,,505207.655,8,400,,,
break_continue,html.Screen,4_101_2,2023-09-11T18:24:23.649Z,,0,,,NaN,,,,,,false,,,,505203.200000003,505203.200000003,,505203.1000000015,,505207.655,8,400,,,
sequence,flow.Sequence,4_101,2023-09-11T18:24:23.649Z,,0,,,2578.775000002992,completion,,,,,false,,,,505203.30000000447,505203.200000003,502607.759,502611.30000000447,502624.425,505207.655,8,400,,,
trial,html.Screen,4_102_0,2023-09-11T18:24:27.476Z,,0,3,,3821.744999998482,response,ISIC_5261146.JPG,6,ISIC_9987485.JPG,ISIC_5261146.JPG,false,1,keypress(m),500,509029.6000000015,509029.3999999985,505190.989,505203.5,505207.655,509040.835,8,400,3,,ISIC_9987485.JPG
break,html.Screen,4_102_1,2023-09-11T18:24:27.476Z,,0,,,NaN,,,,,,false,,,,509030.30000000447,509030.1000000015,,509029.80000000447,,509040.835,8,400,,,
break_continue,html.Screen,4_102_2,2023-09-11T18:24:27.477Z,,0,,,NaN,,,,,,false,,,,509030.5,509030.5,,509030.3999999985,,509040.835,8,400,,,
sequence,flow.Sequence,4_102,2023-09-11T18:24:27.477Z,,0,,,3822.844999999972,completion,,,,,false,,,,509030.700000003,509030.5,505190.989,505203.3999999985,505207.655,509040.835,8,400,,,
trial,html.Screen,4_103_0,2023-09-11T18:24:30.457Z,,0,3,,2969.3650000029593,response,ISIC_0030122.JPG,7,ISIC_3356355.JPG,ISIC_0030122.JPG,false,1,keypress(m),500,512010.5,512010.200000003,509024.169,509030.80000000447,509040.835,512024.313,8,400,4,,ISIC_3356355.JPG
break,html.Screen,4_103_1,2023-09-11T18:24:30.458Z,,0,,,NaN,,,,,,false,,,,512011.1000000015,512011,,512010.6000000015,,512024.313,8,400,,,
break_continue,html.Screen,4_103_2,2023-09-11T18:24:30.458Z,,0,,,NaN,,,,,,false,,,,512011.3999999985,512011.3999999985,,512011.30000000447,,512024.313,8,400,,,
sequence,flow.Sequence,4_103,2023-09-11T18:24:30.458Z,,0,,,2970.564999998489,completion,,,,,false,,,,512011.5,512011.3999999985,509024.169,509030.700000003,509040.835,512024.313,8,400,,,
trial,html.Screen,4_104_0,2023-09-11T18:24:33.225Z,,0,3,,2753.3870000029565,response,ISIC_4433832.JPG,7,ISIC_0025243.JPG,ISIC_4433832.JPG,false,1,keypress(m),500,514777.8999999985,514777.700000003,512007.647,512011.700000003,512024.313,514790.869,8,400,5,,ISIC_0025243.JPG
break,html.Screen,4_104_1,2023-09-11T18:24:33.225Z,,0,,,NaN,,,,,,false,,,,514778.6000000015,514778.5,,514778.1000000015,,514790.869,8,400,,,
break_continue,html.Screen,4_104_2,2023-09-11T18:24:33.226Z,,0,,,NaN,,,,,,false,,,,514778.8999999985,514778.80000000447,,514778.80000000447,,514790.869,8,400,,,
sequence,flow.Sequence,4_104,2023-09-11T18:24:33.226Z,,0,,,2754.4870000044466,completion,,,,,false,,,,514779,514778.80000000447,512007.647,512011.700000003,512024.313,514790.869,8,400,,,
trial,html.Screen,4_105_0,2023-09-11T18:24:35.849Z,,0,3,,2611.231000001484,response,ISIC_0070244.JPG,8,ISIC_0000240.JPG,ISIC_0070244.JPG,false,1,keypress(m),500,517402.3999999985,517402.1000000015,514774.203,514779.200000003,514790.869,517407.431,8,400,6,,ISIC_0000240.JPG
break,html.Screen,4_105_1,2023-09-11T18:24:35.850Z,,0,,,NaN,,,,,,false,,,,517403,517402.80000000447,,517402.5,,517407.431,8,400,,,
break_continue,html.Screen,4_105_2,2023-09-11T18:24:35.850Z,,0,,,NaN,,,,,,false,,,,517403.30000000447,517403.30000000447,,517403.1000000015,,517407.431,8,400,,,
sequence,flow.Sequence,4_105,2023-09-11T18:24:35.851Z,,0,,,2612.4310000044643,completion,,,,,false,,,,517403.5,517403.30000000447,514774.203,514779.1000000015,514790.869,517407.431,8,400,,,
trial,html.Screen,4_106_0,2023-09-11T18:24:38.543Z,,0,3,,2688.0690000000177,response,ISIC_0070387.JPG,7,ISIC_0013898.JPG,ISIC_0070387.JPG,false,1,keypress(m),500,520095.700000003,520095.5,517390.765,517403.6000000015,517407.431,520107.323,8,400,7,,ISIC_0013898.JPG
break,html.Screen,4_106_1,2023-09-11T18:24:38.544Z,,0,,,NaN,,,,,,false,,,,520096.6000000015,520096.3999999985,,520096.1000000015,,520107.323,8,400,,,
break_continue,html.Screen,4_106_2,2023-09-11T18:24:38.544Z,,0,,,NaN,,,,,,false,,,,520096.80000000447,520096.700000003,,520096.700000003,,520107.323,8,400,,,
sequence,flow.Sequence,4_106,2023-09-11T18:24:38.544Z,,0,,,2689.269000002998,completion,,,,,false,,,,520097,520096.700000003,517390.765,517403.6000000015,517407.431,520107.323,8,400,,,
trial,html.Screen,4_107_0,2023-09-11T18:24:41.711Z,,0,3,,3156.076999998535,response,ISIC_1788979.JPG,7,ISIC_1818238.JPG,ISIC_1818238.JPG,false,0,keypress(z),500,523263.700000003,523263.3999999985,520090.657,520097.1000000015,520107.323,523274.132,8,400,8,,ISIC_1788979.JPG
break,html.Screen,4_107_1,2023-09-11T18:24:41.712Z,,0,,,NaN,,,,,,false,,,,523264.3999999985,523264.200000003,,523263.8999999985,,523274.132,8,400,,,
break_continue,html.Screen,4_107_2,2023-09-11T18:24:41.712Z,,0,,,NaN,,,,,,false,,,,523264.6000000015,523264.6000000015,,523264.5,,523274.132,8,400,,,
sequence,flow.Sequence,4_107,2023-09-11T18:24:41.712Z,,0,,,3157.2770000015153,completion,,,,,false,,,,523264.80000000447,523264.6000000015,520090.657,520097,520107.323,523274.132,8,400,,,
trial,html.Screen,4_108_0,2023-09-11T18:24:44.456Z,,0,3,,2733.7679999985266,response,ISIC_5011583.JPG,5,ISIC_0032433.JPG,ISIC_0032433.JPG,false,0,keypress(z),500,526008.200000003,526007.8999999985,523257.466,523264.8999999985,523274.132,526024.022,8,400,9,,ISIC_5011583.JPG
break,html.Screen,4_108_1,2023-09-11T18:24:44.457Z,,0,,,NaN,,,,,,false,,,,526008.8999999985,526008.8000000045,,526008.3999999985,,526024.022,8,400,,,
break_continue,html.Screen,4_108_2,2023-09-11T18:24:44.457Z,,0,,,NaN,,,,,,false,,,,526009.200000003,526009.1000000015,,526009,,526024.022,8,400,,,
sequence,flow.Sequence,4_108,2023-09-11T18:24:44.457Z,,0,,,2734.968000001507,completion,,,,,false,,,,526009.3000000045,526009.1000000015,523257.466,523264.8999999985,523274.132,526024.022,8,400,,,
trial,html.Screen,4_109_0,2023-09-11T18:24:48.335Z,,0,3,,3863.278000004473,response,ISIC_0228772.JPG,5,ISIC_6731470.JPG,ISIC_6731470.JPG,false,0,keypress(z),500,529887.6000000015,529887.3000000045,526007.356,526009.3999999985,526024.022,529890.534,8,400,10,,ISIC_0228772.JPG
break,html.Screen,4_109_1,2023-09-11T18:24:48.336Z,,0,,,NaN,,,,,,false,,,,529888.3000000045,529888.1000000015,,529887.8000000045,,529890.534,8,400,,,
break_continue,html.Screen,4_109_2,2023-09-11T18:24:48.336Z,,0,,,NaN,,,,,,false,,,,529888.5,529888.5,,529888.3999999985,,529890.534,8,400,,,
sequence,flow.Sequence,4_109,2023-09-11T18:24:48.337Z,,0,,,3864.478000000003,completion,,,,,false,,,,529888.700000003,529888.5,526007.356,526009.3999999985,526024.022,529890.534,8,400,,,
trial,html.Screen,4_110_0,2023-09-11T18:24:51.408Z,,0,3,,3068.865999998525,response,ISIC_0510774.JPG,8,ISIC_0034207.JPG,ISIC_0510774.JPG,false,1,keypress(m),500,532959.700000003,532959.3999999985,529873.868,529888.8000000045,529890.534,532974.005,8,400,11,,ISIC_0034207.JPG
break,html.Screen,4_110_1,2023-09-11T18:24:51.409Z,,0,,,NaN,,,,,,false,,,,532960.3999999985,532960.3000000045,,532959.8999999985,,532974.005,8,400,,,
break_continue,html.Screen,4_110_2,2023-09-11T18:24:51.409Z,,0,,,NaN,,,,,,false,,,,532960.700000003,532960.700000003,,532960.5,,532974.005,8,400,,,
sequence,flow.Sequence,4_110,2023-09-11T18:24:51.409Z,,0,,,3070.166000002995,completion,,,,,false,,,,532960.8000000045,532960.700000003,529873.868,529888.8000000045,529890.534,532974.005,8,400,,,
trial,html.Screen,4_111_0,2023-09-11T18:24:54.309Z,,0,3,,2886.894999998505,response,ISIC_7254389.JPG,8,ISIC_3761253.JPG,ISIC_3761253.JPG,false,0,keypress(z),500,535861.1000000015,535860.8999999985,532957.339,532960.8999999985,532974.005,535873.889,8,400,12,,ISIC_7254389.JPG
break,html.Screen,4_111_1,2023-09-11T18:24:54.310Z,,0,,,NaN,,,,,,false,,,,535861.8000000045,535861.6000000015,,535861.3000000045,,535873.889,8,400,,,
break_continue,html.Screen,4_111_2,2023-09-11T18:24:54.310Z,,0,,,NaN,,,,,,false,,,,535862,535861.8999999985,,535861.8000000045,,535873.889,8,400,,,
sequence,flow.Sequence,4_111,2023-09-11T18:24:54.310Z,,0,,,2887.894999998505,completion,,,,,false,,,,535862.200000003,535861.8999999985,532957.339,532960.8999999985,532974.005,535873.889,8,400,,,
trial,html.Screen,4_112_0,2023-09-11T18:24:57.161Z,,0,3,,2838.411000004504,response,ISIC_0014217.JPG,8,ISIC_4620425.JPG,ISIC_0014217.JPG,false,1,keypress(m),500,538712.6000000015,538712.3000000045,535857.223,535862.200000003,535873.889,538723.775,8,400,13,,ISIC_4620425.JPG
break,html.Screen,4_112_1,2023-09-11T18:24:57.162Z,,0,,,NaN,,,,,,false,,,,538713.3000000045,538713,,538712.700000003,,538723.775,8,400,,,
break_continue,html.Screen,4_112_2,2023-09-11T18:24:57.162Z,,0,,,NaN,,,,,,false,,,,538713.6000000015,538713.5,,538713.3999999985,,538723.775,8,400,,,
sequence,flow.Sequence,4_112,2023-09-11T18:24:57.162Z,,0,,,2839.6110000000335,completion,,,,,false,,,,538713.6000000015,538713.5,535857.223,535862.200000003,535873.889,538723.775,8,400,,,
trial,html.Screen,4_113_0,2023-09-11T18:24:59.852Z,,0,3,,2679.925000002957,response,ISIC_0399220.JPG,6,ISIC_3820669.JPG,ISIC_3820669.JPG,false,0,keypress(z),500,541403.8999999985,541403.700000003,538707.109,538713.700000003,538723.775,541407.001,8,400,14,,ISIC_0399220.JPG
break,html.Screen,4_113_1,2023-09-11T18:24:59.853Z,,0,,,NaN,,,,,,false,,,,541404.700000003,541404.5,,541404.200000003,,541407.001,8,400,,,
break_continue,html.Screen,4_113_2,2023-09-11T18:24:59.853Z,,0,,,NaN,,,,,,false,,,,541405,541404.8999999985,,541404.700000003,,541407.001,8,400,,,
sequence,flow.Sequence,4_113,2023-09-11T18:24:59.853Z,,0,,,2681.1249999984866,completion,,,,,false,,,,541405.1000000015,541404.8999999985,538707.109,538713.700000003,538723.775,541407.001,8,400,,,
trial,html.Screen,4_114_0,2023-09-11T18:25:02.506Z,,0,3,,2650.799000004423,response,ISIC_6168754.JPG,5,ISIC_6620377.JPG,ISIC_6620377.JPG,false,0,keypress(z),500,544058,544057.8000000045,541390.335,541405.1000000015,541407.001,544073.816,8,400,15,,ISIC_6168754.JPG
break,html.Screen,4_114_1,2023-09-11T18:25:02.507Z,,0,,,NaN,,,,,,false,,,,544058.700000003,544058.5,,544058.1000000015,,544073.816,8,400,,,
break_continue,html.Screen,4_114_2,2023-09-11T18:25:02.507Z,,0,,,NaN,,,,,,false,,,,544059,544058.8999999985,,544058.8000000045,,544073.816,8,400,,,
sequence,flow.Sequence,4_114,2023-09-11T18:25:02.508Z,,0,,,2651.8989999984624,completion,,,,,false,,,,544059.1000000015,544058.8999999985,541390.335,541405.1000000015,541407.001,544073.816,8,400,,,
trial,html.Screen,4_115_0,2023-09-11T18:25:05.280Z,,0,3,,2757.6840000000084,response,ISIC_9742073.JPG,8,ISIC_0070012.JPG,ISIC_0070012.JPG,false,0,keypress(z),500,546831.700000003,546831.5,544057.15,544059.200000003,544073.816,546840.372,8,400,16,,ISIC_9742073.JPG
break,html.Screen,4_115_1,2023-09-11T18:25:05.281Z,,0,,,NaN,,,,,,false,,,,546832.5,546832.3999999985,,546832,,546840.372,8,400,,,
break_continue,html.Screen,4_115_2,2023-09-11T18:25:05.281Z,,0,,,NaN,,,,,,false,,,,546832.700000003,546832.700000003,,546832.6000000015,,546840.372,8,400,,,
sequence,flow.Sequence,4_115,2023-09-11T18:25:05.281Z,,0,,,2758.8840000029886,completion,,,,,false,,,,546832.8999999985,546832.700000003,544057.15,544059.1000000015,544073.816,546840.372,8,400,,,
trial,html.Screen,4_116_0,2023-09-11T18:25:07.880Z,,0,3,,2591.128000000026,response,ISIC_6292348.JPG,8,ISIC_0011564.JPG,ISIC_0011564.JPG,false,0,keypress(z),500,549431.8000000045,549431.5,546823.706,546833,546840.372,549440.268,8,400,17,,ISIC_6292348.JPG
break,html.Screen,4_116_1,2023-09-11T18:25:07.881Z,,0,,,NaN,,,,,,false,,,,549432.5,549432.3000000045,,549432,,549440.268,8,400,,,
break_continue,html.Screen,4_116_2,2023-09-11T18:25:07.881Z,,0,,,NaN,,,,,,false,,,,549432.8000000045,549432.700000003,,549432.6000000015,,549440.268,8,400,,,
sequence,flow.Sequence,4_116,2023-09-11T18:25:07.882Z,,0,,,2592.3280000030063,completion,,,,,false,,,,549433,549432.700000003,546823.706,546833,546840.372,549440.268,8,400,,,
trial,html.Screen,4_117_0,2023-09-11T18:25:11.376Z,,0,3,,3487.13199999847,response,ISIC_0061244.JPG,9,ISIC_9482842.JPG,ISIC_9482842.JPG,false,0,keypress(z),500,552927.6000000015,552927.3999999985,549423.602,549433,549440.268,552940.407,8,400,18,,ISIC_0061244.JPG
break,html.Screen,4_117_1,2023-09-11T18:25:11.377Z,,0,,,NaN,,,,,,false,,,,552928.3999999985,552928.200000003,,552927.8000000045,,552940.407,8,400,,,
break_continue,html.Screen,4_117_2,2023-09-11T18:25:11.377Z,,0,,,NaN,,,,,,false,,,,552928.6000000015,552928.5,,552928.5,,552940.407,8,400,,,
sequence,flow.Sequence,4_117,2023-09-11T18:25:11.377Z,,0,,,3488.23199999996,completion,,,,,false,,,,552928.8000000045,552928.5,549423.602,549433,549440.268,552940.407,8,400,,,
trial,html.Screen,4_118_0,2023-09-11T18:25:14.035Z,,0,3,,2645.9929999985034,response,ISIC_0066109.JPG,7,ISIC_0000213.JPG,ISIC_0000213.JPG,false,0,keypress(z),500,555586.700000003,555586.3999999985,552923.741,552928.8999999985,552940.407,555590.301,8,400,19,,ISIC_0066109.JPG
break,html.Screen,4_118_1,2023-09-11T18:25:14.036Z,,0,,,NaN,,,,,,false,,,,555587.3999999985,555587.200000003,,555586.8000000045,,555590.301,8,400,,,
break_continue,html.Screen,4_118_2,2023-09-11T18:25:14.036Z,,0,,,NaN,,,,,,false,,,,555587.6000000015,555587.6000000015,,555587.5,,555590.301,8,400,,,
sequence,flow.Sequence,4_118,2023-09-11T18:25:14.037Z,,0,,,2647.1930000014836,completion,,,,,false,,,,555587.8000000045,555587.6000000015,552923.741,552928.8000000045,552940.407,555590.301,8,400,,,
trial,html.Screen,4_119_0,2023-09-11T18:25:16.570Z,,0,3,,2530.4990000044927,response,ISIC_9939653.JPG,8,ISIC_4248013.JPG,ISIC_4248013.JPG,false,0,keypress(z),500,558121,558120.8000000045,555573.635,555587.8999999985,555590.301,558123.533,8,400,20,,ISIC_9939653.JPG
break,html.Screen,4_119_1,2023-09-11T18:25:16.571Z,,0,,,NaN,,,,,,false,,,,558121.8000000045,558121.6000000015,,558121.200000003,,558123.533,8,400,,,
break_continue,html.Screen,4_119_2,2023-09-11T18:25:16.571Z,,0,,,NaN,,,,,,false,,,,558122.1000000015,558121.8999999985,,558121.8999999985,,558123.533,8,400,,,
sequence,flow.Sequence,4_119,2023-09-11T18:25:16.571Z,,0,,,2531.5989999985322,completion,,,,,false,,,,558122.1000000015,558121.8999999985,555573.635,555587.8999999985,555590.301,558123.533,8,400,,,
trial,html.Screen,4_120_0,2023-09-11T18:25:19.726Z,,0,3,,3153.167000002926,response,ISIC_0065022.JPG,8,ISIC_0058079.JPG,ISIC_0065022.JPG,false,1,keypress(m),500,561277,561276.700000003,558106.867,558122.3000000045,558123.533,561290.073,8,400,21,,ISIC_0058079.JPG
break,html.Screen,4_120_1,2023-09-11T18:25:19.727Z,,0,,,NaN,,,,,,false,,,,561277.8000000045,561277.5,,561277.200000003,,561290.073,8,400,,,
break_continue,html.Screen,4_120_2,2023-09-11T18:25:19.727Z,,0,,,NaN,,,,,,false,,,,561278,561278,,561277.8000000045,,561290.073,8,400,,,
sequence,flow.Sequence,4_120,2023-09-11T18:25:19.727Z,,0,,,3154.466999999946,completion,,,,,false,,,,561278.200000003,561278,558106.867,558122.200000003,558123.533,561290.073,8,400,,,
trial,html.Screen,4_121_0,2023-09-11T18:25:23.105Z,,0,3,,3365.427000000025,response,ISIC_0058021.JPG,4,ISIC_5666345.JPG,ISIC_5666345.JPG,false,0,keypress(z),500,564655.8000000045,564655.5,561273.407,561278.3000000045,561290.073,564656.867,8,400,22,,ISIC_0058021.JPG
break,html.Screen,4_121_1,2023-09-11T18:25:23.105Z,,0,,,NaN,,,,,,false,,,,564656.5,564656.3999999985,,564656,,564656.867,8,400,,,
break_continue,html.Screen,4_121_2,2023-09-11T18:25:23.106Z,,0,,,NaN,,,,,,false,,,,564656.700000003,564656.700000003,,564656.5,,564656.867,8,400,,,
sequence,flow.Sequence,4_121,2023-09-11T18:25:23.106Z,,0,,,3366.6270000030054,completion,,,,,false,,,,564656.8000000045,564656.700000003,561273.407,561278.200000003,561290.073,564656.867,8,400,,,
trial,html.Screen,4_122_0,2023-09-11T18:25:27.062Z,,0,3,,3955.833000003011,response,ISIC_0027282.JPG,8,ISIC_0027921.JPG,ISIC_0027921.JPG,false,0,keypress(z),500,568613,568612.700000003,564640.201,564656.8999999985,564656.867,568623.375,8,400,23,,ISIC_0027282.JPG
break,html.Screen,4_122_1,2023-09-11T18:25:27.063Z,,0,,,NaN,,,,,,false,,,,568613.700000003,568613.5,,568613.200000003,,568623.375,8,400,,,
break_continue,html.Screen,4_122_2,2023-09-11T18:25:27.063Z,,0,,,NaN,,,,,,false,,,,568614,568613.8999999985,,568613.8000000045,,568623.375,8,400,,,
sequence,flow.Sequence,4_122,2023-09-11T18:25:27.063Z,,0,,,3957.0329999985406,completion,,,,,false,,,,568614.1000000015,568613.8999999985,564640.201,564656.8999999985,564656.867,568623.375,8,400,,,
trial,html.Screen,4_123_0,2023-09-11T18:25:30.107Z,,0,3,,3034.72500000149,response,ISIC_0033813.JPG,8,ISIC_8121679.JPG,ISIC_0033813.JPG,false,1,keypress(m),500,571658.3000000045,571658.1000000015,568606.709,568614.200000003,568623.375,571673.253,8,400,24,,ISIC_8121679.JPG
break,html.Screen,4_123_1,2023-09-11T18:25:30.108Z,,0,,,NaN,,,,,,false,,,,571659.1000000015,571658.8000000045,,571658.5,,571673.253,8,400,,,
break_continue,html.Screen,4_123_2,2023-09-11T18:25:30.108Z,,0,,,NaN,,,,,,false,,,,571659.3999999985,571659.200000003,,571659.1000000015,,571673.253,8,400,,,
sequence,flow.Sequence,4_123,2023-09-11T18:25:30.109Z,,0,,,3035.8250000029802,completion,,,,,false,,,,571659.5,571659.200000003,568606.709,568614.200000003,568623.375,571673.253,8,400,,,
trial,html.Screen,4_124_0,2023-09-11T18:25:33.345Z,,0,3,,3222.347000001464,response,ISIC_0013861.JPG,8,ISIC_0067476.JPG,ISIC_0013861.JPG,false,1,keypress(m),500,574895.8000000045,574895.6000000015,571656.587,571659.6000000015,571673.253,574906.721,8,400,25,,ISIC_0067476.JPG
break,html.Screen,4_124_1,2023-09-11T18:25:33.346Z,,0,,,NaN,,,,,,false,,,,574896.5,574896.3999999985,,574896,,574906.721,8,400,,,
break_continue,html.Screen,4_124_2,2023-09-11T18:25:33.346Z,,0,,,NaN,,,,,,false,,,,574896.8000000045,574896.700000003,,574896.6000000015,,574906.721,8,400,,,
sequence,flow.Sequence,4_124,2023-09-11T18:25:33.346Z,,0,,,3223.447000002954,completion,,,,,false,,,,574897,574896.700000003,571656.587,571659.6000000015,571673.253,574906.721,8,400,,,
trial,html.Screen,4_125_0,2023-09-11T18:25:36.057Z,,0,3,,2701.079000004451,response,ISIC_0053734.JPG,7,ISIC_4343552.JPG,ISIC_0053734.JPG,false,1,keypress(m),500,577608,577607.8000000045,574890.055,574897,574906.721,577623.279,8,400,26,,ISIC_4343552.JPG
break,html.Screen,4_125_1,2023-09-11T18:25:36.058Z,,0,,,NaN,,,,,,false,,,,577608.8000000045,577608.5,,577608.3000000045,,577623.279,8,400,,,
break_continue,html.Screen,4_125_2,2023-09-11T18:25:36.058Z,,0,,,NaN,,,,,,false,,,,577609,577609,,577608.8999999985,,577623.279,8,400,,,
sequence,flow.Sequence,4_125,2023-09-11T18:25:36.058Z,,0,,,2702.2789999999804,completion,,,,,false,,,,577609.200000003,577609,574890.055,574897,574906.721,577623.279,8,400,,,
trial,html.Screen,4_126_0,2023-09-11T18:25:39.052Z,,0,3,,2978.8210000015097,response,ISIC_0029698.JPG,5,ISIC_0032149.JPG,ISIC_0029698.JPG,false,1,keypress(m),500,580602.3999999985,580602.1000000015,577606.613,577609.3000000045,577623.279,580606.493,8,400,27,,ISIC_0032149.JPG
