sender,sender_type,sender_id,timestamp,meta,,blockNo,condition,duration,ended_on,img_left,img_reveal,img_right,loser,practice,response,response_action,selection_duration,time_commit,time_end,time_render,time_run,time_show,time_switch,total_blocks,total_trials,trialNo,url,winner
informed_consent,html.Screen,0,2023-09-08T18:43:50.929Z,"{""labjs_version"":""20.2.4"",""labjs_build"":{""flavor"":""production"",""commit"":""f5b4a49f956347addd546a832a3327688c2c0fef""},""location"":""https://run.pavlovia.org/MurrayBennett/melanoma-2afc/?participant=632d68dde8d04677f58d963c&STUDY_ID=64f8c92207ba404bcb356c90&SESSION_ID=64fb6b563b8d9dcf2e221fae&platform=prolific"",""userAgent"":""Mozilla/5.0 (Windows NT 10.0; Win64; x64) AppleWebKit/537.36 (KHTML, like Gecko) Chrome/115.0.0.0 Safari/537.36 OPR/101.0.0.0"",""platform"":""Win32"",""language"":""en-US"",""locale"":""en-US"",""timeZone"":""America/Chicago"",""timezoneOffset"":300,""screen_width"":2560,""screen_height"":1440,""scroll_width"":2519,""scroll_height"":1251,""window_innerWidth"":2519,""window_innerHeight"":1299,""devicePixelRatio"":1}",,,,4000.5430000476836,response,,,,,,consent,click button,,5423.200000047684,5422.200000047684,1414.734,1415.8999999761581,1421.657,5428.616,,,,"{""participant"":""632d68dde8d04677f58d963c"",""STUDY_ID"":""64f8c92207ba404bcb356c90"",""SESSION_ID"":""64fb6b563b8d9dcf2e221fae"",""platform"":""prolific""}",
Welcome,html.Screen,1,2023-09-08T18:43:55.516Z,,,,colourful,4581.484000023842,response,,,,,,continue,click button,,10010.700000047684,10010.100000023842,5421.627,5423.399999976158,5428.616,10011.938,,,,,
trial,html.Screen,2_0_0,2023-09-08T18:43:58.639Z,,0,0,,3120.861999952316,response,ISIC_0063388.JPG,,ISIC_0025593.JPG,ISIC_0063388.JPG,true,1,keypress(m),500,13133,13132.799999952316,10004.922,10010.799999952316,10011.938,13136.835,1,6,1,,ISIC_0025593.JPG
sequence,flow.Sequence,2_0,2023-09-08T18:43:58.639Z,,0,,,3120.861999952316,completion,,,,,true,,,,13133.200000047684,13132.799999952316,10004.922,10010.799999952316,10011.938,13136.835,1,6,,,
trial,html.Screen,2_1_0,2023-09-08T18:44:01.363Z,,0,0,,2720.464999952317,response,ISIC_1309015.JPG,,ISIC_0028178.JPG,ISIC_1309015.JPG,true,1,keypress(m),500,15857.399999976158,15857.299999952316,13129.88,13133.200000047684,13136.835,15859.065,1,6,2,,ISIC_0028178.JPG
sequence,flow.Sequence,2_1,2023-09-08T18:44:01.363Z,,0,,,2720.464999952317,completion,,,,,true,,,,15857.600000023842,15857.299999952316,13129.88,13133.200000047684,13136.835,15859.065,1,6,,,
trial,html.Screen,2_2_0,2023-09-08T18:44:04.301Z,,0,0,,2936.0350000238413,response,ISIC_0031128.JPG,,ISIC_3314853.JPG,ISIC_3314853.JPG,true,0,keypress(z),500,18795.200000047684,18795.100000023842,15852.086,15857.600000023842,15859.065,18796.541,1,6,3,,ISIC_0031128.JPG
sequence,flow.Sequence,2_2,2023-09-08T18:44:04.301Z,,0,,,2936.0350000238413,completion,,,,,true,,,,18795.399999976158,18795.100000023842,15852.086,15857.600000023842,15859.065,18796.541,1,6,,,
trial,html.Screen,2_3_0,2023-09-08T18:44:07.937Z,,0,0,,3633.758999952315,response,ISIC_0031612.JPG,,ISIC_8980141.JPG,ISIC_0031612.JPG,true,1,keypress(m),500,22430.5,22430.299999952316,18789.555,18795.5,18796.541,22435.407,1,6,4,,ISIC_8980141.JPG
sequence,flow.Sequence,2_3,2023-09-08T18:44:07.937Z,,0,,,3633.758999952315,completion,,,,,true,,,,22430.700000047684,22430.299999952316,18789.555,18795.5,18796.541,22435.407,1,6,,,
trial,html.Screen,2_4_0,2023-09-08T18:44:11.038Z,,0,0,,3095.892999952317,response,ISIC_9721604.JPG,,ISIC_1197737.JPG,ISIC_9721604.JPG,true,1,keypress(m),500,25531.5,25531.299999952316,22428.43,22430.700000047684,22435.407,25532.632,1,6,5,,ISIC_1197737.JPG
sequence,flow.Sequence,2_4,2023-09-08T18:44:11.038Z,,0,,,3095.892999952317,completion,,,,,true,,,,25531.600000023842,25531.299999952316,22428.43,22430.700000047684,22435.407,25532.632,1,6,,,
trial,html.Screen,2_5_0,2023-09-08T18:44:14.148Z,,0,0,,3108.9680000238404,response,ISIC_0025346.JPG,,ISIC_0010681.JPG,ISIC_0010681.JPG,true,0,keypress(z),500,28641.700000047684,28641.600000023842,25525.639,25531.700000047684,25532.632,28643.695,1,6,6,,ISIC_0025346.JPG
sequence,flow.Sequence,2_5,2023-09-08T18:44:14.148Z,,0,,,3108.9680000238404,completion,,,,,true,,,,28641.899999976158,28641.600000023842,25525.639,25531.600000023842,25532.632,28643.695,1,6,,,
loop,flow.Loop,2,2023-09-08T18:44:14.148Z,,,,,18629.66200002384,completion,,,,,true,,,,28641.899999976158,28641.600000023842,10004.922,10010.799999952316,10011.938,28643.695,1,6,,,
exp_instructions,html.Screen,3,2023-09-08T18:44:18.699Z,,,,,4549.005000047684,response,,,,,,continue,keypress(Space),,33193.10000002384,33192.700000047684,28636.765,28642,28643.695,33199.221,,,,,
trial,html.Screen,4_0_0,2023-09-08T18:44:21.553Z,,0,1,,2847.879000023844,response,ISIC_2547431.JPG,5,ISIC_9751013.JPG,ISIC_2547431.JPG,false,1,keypress(m),500,36047.200000047684,36047.10000002384,33192.032,33193.299999952316,33199.221,36053.352,8,400,1,,ISIC_9751013.JPG
break,html.Screen,4_0_1,2023-09-08T18:44:21.554Z,,0,,,NaN,,,,,,false,,,,36047.60000002384,36047.5,,36047.200000047684,,36053.352,8,400,,,
break_continue,html.Screen,4_0_2,2023-09-08T18:44:21.554Z,,0,,,NaN,,,,,,false,,,,36047.799999952316,36047.799999952316,,36047.700000047684,,36053.352,8,400,,,
sequence,flow.Sequence,4_0,2023-09-08T18:44:21.554Z,,0,,,2848.5789999523186,completion,,,,,false,,,,36047.89999997616,36047.799999952316,33192.032,33193.299999952316,33199.221,36053.352,8,400,,,
trial,html.Screen,4_1_0,2023-09-08T18:44:24.177Z,,0,1,,2617.648000000001,response,ISIC_2228511.JPG,5,ISIC_3649113.JPG,ISIC_2228511.JPG,false,1,keypress(m),500,38671,38671,36046.385,36048,36053.352,38671.402,8,400,2,,ISIC_3649113.JPG
break,html.Screen,4_1_1,2023-09-08T18:44:24.178Z,,0,,,NaN,,,,,,false,,,,38671.5,38671.39999997616,,38671.10000002384,,38671.402,8,400,,,
break_continue,html.Screen,4_1_2,2023-09-08T18:44:24.178Z,,0,,,NaN,,,,,,false,,,,38671.60000002384,38671.60000002384,,38671.5,,38671.402,8,400,,,
sequence,flow.Sequence,4_1,2023-09-08T18:44:24.178Z,,0,,,2618.248000023843,completion,,,,,false,,,,38671.700000047684,38671.60000002384,36046.385,36048,36053.352,38671.402,8,400,,,
trial,html.Screen,4_2_0,2023-09-08T18:44:27.036Z,,0,1,,2858.097999999998,response,ISIC_0059330.JPG,5,ISIC_0032965.JPG,ISIC_0059330.JPG,false,1,keypress(m),500,41529.700000047684,41529.5,38664.427,38671.700000047684,38671.402,41532.534,8,400,3,,ISIC_0032965.JPG
break,html.Screen,4_2_1,2023-09-08T18:44:27.036Z,,0,,,NaN,,,,,,false,,,,41530.10000002384,41530,,41529.700000047684,,41532.534,8,400,,,
break_continue,html.Screen,4_2_2,2023-09-08T18:44:27.036Z,,0,,,NaN,,,,,,false,,,,41530.200000047684,41530.10000002384,,41530.10000002384,,41532.534,8,400,,,
sequence,flow.Sequence,4_2,2023-09-08T18:44:27.036Z,,0,,,2858.69800002384,completion,,,,,false,,,,41530.200000047684,41530.10000002384,38664.427,38671.700000047684,38671.402,41532.534,8,400,,,
trial,html.Screen,4_3_0,2023-09-08T18:44:29.741Z,,0,1,,2702.4660000000003,response,ISIC_9108776.JPG,5,ISIC_0055440.JPG,ISIC_9108776.JPG,false,1,keypress(m),500,44235.10000002384,44235,41525.514,41530.299999952316,41532.534,44240.829,8,400,4,,ISIC_0055440.JPG
break,html.Screen,4_3_1,2023-09-08T18:44:29.742Z,,0,,,NaN,,,,,,false,,,,44235.5,44235.39999997616,,44235.200000047684,,44240.829,8,400,,,
break_continue,html.Screen,4_3_2,2023-09-08T18:44:29.742Z,,0,,,NaN,,,,,,false,,,,44235.60000002384,44235.60000002384,,44235.5,,44240.829,8,400,,,
sequence,flow.Sequence,4_3,2023-09-08T18:44:29.742Z,,0,,,2703.066000023842,completion,,,,,false,,,,44235.700000047684,44235.60000002384,41525.514,41530.200000047684,41532.534,44240.829,8,400,,,
trial,html.Screen,4_4_0,2023-09-08T18:44:32.484Z,,0,1,,2736.771000023844,response,ISIC_0064936.JPG,5,ISIC_1689678.JPG,ISIC_1689678.JPG,false,0,keypress(z),500,46977.700000047684,46977.60000002384,44233.871,44235.700000047684,44240.829,46983.853,8,400,5,,ISIC_0064936.JPG
break,html.Screen,4_4_1,2023-09-08T18:44:32.484Z,,0,,,NaN,,,,,,false,,,,46978.10000002384,46978,,46977.799999952316,,46983.853,8,400,,,
break_continue,html.Screen,4_4_2,2023-09-08T18:44:32.484Z,,0,,,NaN,,,,,,false,,,,46978.299999952316,46978.299999952316,,46978.200000047684,,46983.853,8,400,,,
sequence,flow.Sequence,4_4,2023-09-08T18:44:32.484Z,,0,,,2737.4709999523184,completion,,,,,false,,,,46978.39999997616,46978.299999952316,44233.871,44235.700000047684,44240.829,46983.853,8,400,,,
trial,html.Screen,4_5_0,2023-09-08T18:44:35.163Z,,0,1,,2672.646999999997,response,ISIC_0062208.JPG,4,ISIC_0032806.JPG,ISIC_0062208.JPG,false,1,keypress(m),500,49656.60000002384,49656.5,46976.866,46978.39999997616,46983.853,49657.432,8,400,6,,ISIC_0032806.JPG
break,html.Screen,4_5_1,2023-09-08T18:44:35.163Z,,0,,,NaN,,,,,,false,,,,49657.10000002384,49657,,49656.799999952316,,49657.432,8,400,,,
break_continue,html.Screen,4_5_2,2023-09-08T18:44:35.163Z,,0,,,NaN,,,,,,false,,,,49657.200000047684,49657.10000002384,,49657.10000002384,,49657.432,8,400,,,
sequence,flow.Sequence,4_5,2023-09-08T18:44:35.163Z,,0,,,2673.247000023839,completion,,,,,false,,,,49657.299999952316,49657.10000002384,46976.866,46978.39999997616,46983.853,49657.432,8,400,,,
trial,html.Screen,4_6_0,2023-09-08T18:44:38.063Z,,0,1,,2899.768000047683,response,ISIC_0061371.JPG,5,ISIC_8709211.JPG,ISIC_8709211.JPG,false,0,keypress(z),500,52557.39999997616,52557.200000047684,49650.46,49657.39999997616,49657.432,52560.192,8,400,7,,ISIC_0061371.JPG
break,html.Screen,4_6_1,2023-09-08T18:44:38.064Z,,0,,,NaN,,,,,,false,,,,52557.799999952316,52557.700000047684,,52557.5,,52560.192,8,400,,,
break_continue,html.Screen,4_6_2,2023-09-08T18:44:38.064Z,,0,,,NaN,,,,,,false,,,,52557.89999997616,52557.89999997616,,52557.89999997616,,52560.192,8,400,,,
sequence,flow.Sequence,4_6,2023-09-08T18:44:38.064Z,,0,,,2900.4679999761574,completion,,,,,false,,,,52558,52557.89999997616,49650.46,49657.299999952316,49657.432,52560.192,8,400,,,
trial,html.Screen,4_7_0,2023-09-08T18:44:40.740Z,,0,1,,2673.508000047681,response,ISIC_0010772.JPG,6,ISIC_0030417.JPG,ISIC_0010772.JPG,false,1,keypress(m),500,55233.89999997616,55233.700000047684,52553.217,52558.10000002384,52560.192,55240.728,8,400,8,,ISIC_0030417.JPG
break,html.Screen,4_7_1,2023-09-08T18:44:40.740Z,,0,,,NaN,,,,,,false,,,,55234.39999997616,55234.299999952316,,55234,,55240.728,8,400,,,
break_continue,html.Screen,4_7_2,2023-09-08T18:44:40.741Z,,0,,,NaN,,,,,,false,,,,55234.60000002384,55234.60000002384,,55234.5,,55240.728,8,400,,,
sequence,flow.Sequence,4_7,2023-09-08T18:44:40.741Z,,0,,,2674.408000023839,completion,,,,,false,,,,55234.700000047684,55234.60000002384,52553.217,52558,52560.192,55240.728,8,400,,,
trial,html.Screen,4_8_0,2023-09-08T18:44:43.443Z,,0,1,,2695.5719999523135,response,ISIC_0030749.JPG,5,ISIC_1979534.JPG,ISIC_0030749.JPG,false,1,keypress(m),500,57936.5,57936.299999952316,55233.806,55234.799999952316,55240.728,57942.104,8,400,9,,ISIC_1979534.JPG
break,html.Screen,4_8_1,2023-09-08T18:44:43.443Z,,0,,,NaN,,,,,,false,,,,57936.799999952316,57936.700000047684,,57936.5,,57942.104,8,400,,,
break_continue,html.Screen,4_8_2,2023-09-08T18:44:43.443Z,,0,,,NaN,,,,,,false,,,,57937,57937,,57936.89999997616,,57942.104,8,400,,,
sequence,flow.Sequence,4_8,2023-09-08T18:44:43.443Z,,0,,,2696.271999999997,completion,,,,,false,,,,57937,57937,55233.806,55234.799999952316,55240.728,57942.104,8,400,,,
trial,html.Screen,4_9_0,2023-09-08T18:44:46.127Z,,0,1,,2678.695999952317,response,ISIC_1835041.JPG,5,ISIC_0058063.JPG,ISIC_1835041.JPG,false,1,keypress(m),500,60620.89999997616,60620.799999952316,57935.13,57937.10000002384,57942.104,60622.673,8,400,10,,ISIC_0058063.JPG
break,html.Screen,4_9_1,2023-09-08T18:44:46.127Z,,0,,,NaN,,,,,,false,,,,60621.39999997616,60621.200000047684,,60621,,60622.673,8,400,,,
break_continue,html.Screen,4_9_2,2023-09-08T18:44:46.128Z,,0,,,NaN,,,,,,false,,,,60621.5,60621.39999997616,,60621.39999997616,,60622.673,8,400,,,
sequence,flow.Sequence,4_9,2023-09-08T18:44:46.128Z,,0,,,2679.295999976159,completion,,,,,false,,,,60621.60000002384,60621.39999997616,57935.13,57937.10000002384,57942.104,60622.673,8,400,,,
trial,html.Screen,4_10_0,2023-09-08T18:44:49.025Z,,0,1,,2895.7269999761556,response,ISIC_0014291.JPG,5,ISIC_3696726.JPG,ISIC_3696726.JPG,false,0,keypress(z),500,63518.60000002384,63518.39999997616,60615.862,60621.60000002384,60622.673,63525.425,8,400,11,,ISIC_0014291.JPG
break,html.Screen,4_10_1,2023-09-08T18:44:49.025Z,,0,,,NaN,,,,,,false,,,,63519,63518.89999997616,,63518.700000047684,,63525.425,8,400,,,
break_continue,html.Screen,4_10_2,2023-09-08T18:44:49.025Z,,0,,,NaN,,,,,,false,,,,63519.10000002384,63519.10000002384,,63519,,63525.425,8,400,,,
sequence,flow.Sequence,4_10,2023-09-08T18:44:49.025Z,,0,,,2896.4270000238394,completion,,,,,false,,,,63519.10000002384,63519.10000002384,60615.862,60621.60000002384,60622.673,63525.425,8,400,,,
trial,html.Screen,4_11_0,2023-09-08T18:44:51.785Z,,0,1,,2753.574999999997,response,ISIC_0025138.JPG,4,ISIC_6780901.JPG,ISIC_6780901.JPG,false,0,keypress(z),500,66279.20000004768,66279,63518.441,63519.200000047684,63525.425,66282.332,8,400,12,,ISIC_0025138.JPG
break,html.Screen,4_11_1,2023-09-08T18:44:51.786Z,,0,,,NaN,,,,,,false,,,,66279.5,66279.5,,66279.29999995232,,66282.332,8,400,,,
break_continue,html.Screen,4_11_2,2023-09-08T18:44:51.786Z,,0,,,NaN,,,,,,false,,,,66279.70000004768,66279.70000004768,,66279.60000002384,,66282.332,8,400,,,
sequence,flow.Sequence,4_11,2023-09-08T18:44:51.786Z,,0,,,2754.275000047681,completion,,,,,false,,,,66279.79999995232,66279.70000004768,63518.441,63519.10000002384,63525.425,66282.332,8,400,,,
trial,html.Screen,4_12_0,2023-09-08T18:44:54.410Z,,0,1,,2621.0679999761633,response,ISIC_4945233.JPG,4,ISIC_0055140.JPG,ISIC_4945233.JPG,false,1,keypress(m),500,68903.60000002384,68903.39999997616,66275.344,66279.79999995232,66282.332,68907.293,8,400,13,,ISIC_0055140.JPG
break,html.Screen,4_12_1,2023-09-08T18:44:54.410Z,,0,,,NaN,,,,,,false,,,,68904,68903.89999997616,,68903.60000002384,,68907.293,8,400,,,
break_continue,html.Screen,4_12_2,2023-09-08T18:44:54.410Z,,0,,,NaN,,,,,,false,,,,68904.10000002384,68904.10000002384,,68904,,68907.293,8,400,,,
sequence,flow.Sequence,4_12,2023-09-08T18:44:54.410Z,,0,,,2621.768000023847,completion,,,,,false,,,,68904.10000002384,68904.10000002384,66275.344,66279.79999995232,66282.332,68907.293,8,400,,,
trial,html.Screen,4_13_0,2023-09-08T18:44:57.481Z,,0,1,,3067.4070000476786,response,ISIC_6231450.JPG,4,ISIC_7266604.JPG,ISIC_7266604.JPG,false,0,keypress(z),500,71974.79999995232,71974.70000004768,68900.381,68904.20000004768,68907.293,71976.763,8,400,14,,ISIC_6231450.JPG
break,html.Screen,4_13_1,2023-09-08T18:44:57.481Z,,0,,,NaN,,,,,,false,,,,71975.20000004768,71975.10000002384,,71975,,71976.763,8,400,,,
break_continue,html.Screen,4_13_2,2023-09-08T18:44:57.481Z,,0,,,NaN,,,,,,false,,,,71975.39999997616,71975.39999997616,,71975.20000004768,,71976.763,8,400,,,
sequence,flow.Sequence,4_13,2023-09-08T18:44:57.482Z,,0,,,3068.106999976153,completion,,,,,false,,,,71975.39999997616,71975.39999997616,68900.381,68904.20000004768,68907.293,71976.763,8,400,,,
trial,html.Screen,4_14_0,2023-09-08T18:45:00.235Z,,0,1,,2751.53699995231,response,ISIC_9596388.JPG,5,ISIC_1471329.JPG,ISIC_9596388.JPG,false,1,keypress(m),500,74728.39999997616,74728.29999995232,71969.759,71975.5,71976.763,74733.672,8,400,15,,ISIC_1471329.JPG
break,html.Screen,4_14_1,2023-09-08T18:45:00.235Z,,0,,,NaN,,,,,,false,,,,74728.79999995232,74728.70000004768,,74728.5,,74733.672,8,400,,,
break_continue,html.Screen,4_14_2,2023-09-08T18:45:00.235Z,,0,,,NaN,,,,,,false,,,,74729,74728.89999997616,,74728.89999997616,,74733.672,8,400,,,
sequence,flow.Sequence,4_14,2023-09-08T18:45:00.235Z,,0,,,2752.136999976152,completion,,,,,false,,,,74729,74728.89999997616,71969.759,71975.5,71976.763,74733.672,8,400,,,
trial,html.Screen,4_15_0,2023-09-08T18:45:02.881Z,,0,1,,2641.1279999523103,response,ISIC_0067476.JPG,5,ISIC_2457024.JPG,ISIC_0067476.JPG,false,1,keypress(m),500,77374.89999997616,77374.79999995232,74726.681,74729,74733.672,77379.479,8,400,16,,ISIC_2457024.JPG
break,html.Screen,4_15_1,2023-09-08T18:45:02.881Z,,0,,,NaN,,,,,,false,,,,77375.29999995232,77375.20000004768,,77375,,77379.479,8,400,,,
break_continue,html.Screen,4_15_2,2023-09-08T18:45:02.881Z,,0,,,NaN,,,,,,false,,,,77375.39999997616,77375.29999995232,,77375.29999995232,,77379.479,8,400,,,
sequence,flow.Sequence,4_15,2023-09-08T18:45:02.882Z,,0,,,2641.6279999523103,completion,,,,,false,,,,77375.39999997616,77375.29999995232,74726.681,74729,74733.672,77379.479,8,400,,,
trial,html.Screen,4_16_0,2023-09-08T18:45:05.685Z,,0,1,,2799.3209999523096,response,ISIC_9699426.JPG,4,ISIC_0010850.JPG,ISIC_0010850.JPG,false,0,keypress(z),500,80179,80178.79999995232,77372.484,77375.39999997616,77379.479,80185.027,8,400,17,,ISIC_9699426.JPG
break,html.Screen,4_16_1,2023-09-08T18:45:05.686Z,,0,,,NaN,,,,,,false,,,,80179.39999997616,80179.29999995232,,80179.10000002384,,80185.027,8,400,,,
break_continue,html.Screen,4_16_2,2023-09-08T18:45:05.686Z,,0,,,NaN,,,,,,false,,,,80179.60000002384,80179.39999997616,,80179.39999997616,,80185.027,8,400,,,
sequence,flow.Sequence,4_16,2023-09-08T18:45:05.686Z,,0,,,2799.9209999761515,completion,,,,,false,,,,80179.60000002384,80179.39999997616,77372.484,77375.39999997616,77379.479,80185.027,8,400,,,
trial,html.Screen,4_17_0,2023-09-08T18:45:08.414Z,,0,1,,2722.472999999998,response,ISIC_0029859.JPG,4,ISIC_0024967.JPG,ISIC_0029859.JPG,false,1,keypress(m),500,82907.60000002384,82907.5,80178.052,80179.60000002384,80185.027,82914.163,8,400,18,,ISIC_0024967.JPG
break,html.Screen,4_17_1,2023-09-08T18:45:08.414Z,,0,,,NaN,,,,,,false,,,,82908,82907.89999997616,,82907.70000004768,,82914.163,8,400,,,
break_continue,html.Screen,4_17_2,2023-09-08T18:45:08.414Z,,0,,,NaN,,,,,,false,,,,82908.20000004768,82908.10000002384,,82908.10000002384,,82914.163,8,400,,,
sequence,flow.Sequence,4_17,2023-09-08T18:45:08.414Z,,0,,,2723.07300002384,completion,,,,,false,,,,82908.20000004768,82908.10000002384,80178.052,80179.60000002384,80185.027,82914.163,8,400,,,
trial,html.Screen,4_18_0,2023-09-08T18:45:11.107Z,,0,1,,2686.7369999761577,response,ISIC_0231167.JPG,4,ISIC_7124160.JPG,ISIC_0231167.JPG,false,1,keypress(m),500,85601,85600.89999997616,82907.197,82908.20000004768,82914.163,85601.649,8,400,19,,ISIC_7124160.JPG
break,html.Screen,4_18_1,2023-09-08T18:45:11.108Z,,0,,,NaN,,,,,,false,,,,85601.39999997616,85601.39999997616,,85601.10000002384,,85601.649,8,400,,,
break_continue,html.Screen,4_18_2,2023-09-08T18:45:11.108Z,,0,,,NaN,,,,,,false,,,,85601.60000002384,85601.5,,85601.5,,85601.649,8,400,,,
sequence,flow.Sequence,4_18,2023-09-08T18:45:11.108Z,,0,,,2687.3369999999995,completion,,,,,false,,,,85601.70000004768,85601.5,82907.197,82908.20000004768,82914.163,85601.649,8,400,,,
trial,html.Screen,4_19_0,2023-09-08T18:45:13.889Z,,0,1,,2781.2509999761533,response,ISIC_0010532.JPG,4,ISIC_0063295.JPG,ISIC_0010532.JPG,false,1,keypress(m),500,88383.10000002384,88382.89999997616,85594.703,85601.79999995232,85601.649,88386.319,8,400,20,,ISIC_0063295.JPG
break,html.Screen,4_19_1,2023-09-08T18:45:13.890Z,,0,,,NaN,,,,,,false,,,,88383.60000002384,88383.39999997616,,88383.20000004768,,88386.319,8,400,,,
break_continue,html.Screen,4_19_2,2023-09-08T18:45:13.890Z,,0,,,NaN,,,,,,false,,,,88383.60000002384,88383.60000002384,,88383.60000002384,,88386.319,8,400,,,
sequence,flow.Sequence,4_19,2023-09-08T18:45:13.890Z,,0,,,2781.951000023837,completion,,,,,false,,,,88383.79999995232,88383.60000002384,85594.703,85601.70000004768,85601.649,88386.319,8,400,,,
trial,html.Screen,4_20_0,2023-09-08T18:45:17.645Z,,0,1,,3752.080999976155,response,ISIC_0072412.JPG,4,ISIC_9472209.JPG,ISIC_9472209.JPG,false,0,keypress(z),500,92138.60000002384,92138.39999997616,88379.371,88383.79999995232,88386.319,92143.27,8,400,21,,ISIC_0072412.JPG
break,html.Screen,4_20_1,2023-09-08T18:45:17.645Z,,0,,,NaN,,,,,,false,,,,92139.10000002384,92138.89999997616,,92138.70000004768,,92143.27,8,400,,,
break_continue,html.Screen,4_20_2,2023-09-08T18:45:17.645Z,,0,,,NaN,,,,,,false,,,,92139.20000004768,92139.20000004768,,92139.10000002384,,92143.27,8,400,,,
sequence,flow.Sequence,4_20,2023-09-08T18:45:17.645Z,,0,,,3752.8810000476806,completion,,,,,false,,,,92139.29999995232,92139.20000004768,88379.371,88383.79999995232,88386.319,92143.27,8,400,,,
trial,html.Screen,4_21_0,2023-09-08T18:45:20.657Z,,0,1,,3007.330000023838,response,ISIC_0011422.JPG,5,ISIC_5315486.JPG,ISIC_5315486.JPG,false,0,keypress(z),500,95150.79999995232,95150.60000002384,92136.301,92139.39999997616,92143.27,95157.134,8,400,22,,ISIC_0011422.JPG
break,html.Screen,4_21_1,2023-09-08T18:45:20.657Z,,0,,,NaN,,,,,,false,,,,95151.20000004768,95151.10000002384,,95150.79999995232,,95157.134,8,400,,,
break_continue,html.Screen,4_21_2,2023-09-08T18:45:20.657Z,,0,,,NaN,,,,,,false,,,,95151.29999995232,95151.20000004768,,95151.20000004768,,95157.134,8,400,,,
sequence,flow.Sequence,4_21,2023-09-08T18:45:20.658Z,,0,,,3007.9300000476796,completion,,,,,false,,,,95151.39999997616,95151.20000004768,92136.301,92139.39999997616,92143.27,95157.134,8,400,,,
trial,html.Screen,4_22_0,2023-09-08T18:45:24.079Z,,0,1,,3415.165999952311,response,ISIC_4530249.JPG,5,ISIC_0046635.JPG,ISIC_4530249.JPG,false,1,keypress(m),500,98572.5,98572.29999995232,95150.172,95151.39999997616,95157.134,98573.778,8,400,23,,ISIC_0046635.JPG
break,html.Screen,4_22_1,2023-09-08T18:45:24.079Z,,0,,,NaN,,,,,,false,,,,98572.79999995232,98572.79999995232,,98572.60000002384,,98573.778,8,400,,,
break_continue,html.Screen,4_22_2,2023-09-08T18:45:24.079Z,,0,,,NaN,,,,,,false,,,,98573,98573,,98572.89999997616,,98573.778,8,400,,,
sequence,flow.Sequence,4_22,2023-09-08T18:45:24.079Z,,0,,,3415.8659999999945,completion,,,,,false,,,,98573.10000002384,98573,95150.172,95151.39999997616,95157.134,98573.778,8,400,,,
trial,html.Screen,4_23_0,2023-09-08T18:45:26.927Z,,0,1,,2847.2219999999943,response,ISIC_0029056.JPG,4,ISIC_0071966.JPG,ISIC_0071966.JPG,false,0,keypress(z),500,101421.20000004768,101421,98566.825,98573.10000002384,98573.778,101427.923,8,400,24,,ISIC_0029056.JPG
break,html.Screen,4_23_1,2023-09-08T18:45:26.928Z,,0,,,NaN,,,,,,false,,,,101421.60000002384,101421.5,,101421.29999995232,,101427.923,8,400,,,
break_continue,html.Screen,4_23_2,2023-09-08T18:45:26.928Z,,0,,,NaN,,,,,,false,,,,101421.79999995232,101421.70000004768,,101421.70000004768,,101427.923,8,400,,,
sequence,flow.Sequence,4_23,2023-09-08T18:45:26.928Z,,0,,,2847.922000047678,completion,,,,,false,,,,101421.79999995232,101421.70000004768,98566.825,98573.10000002384,98573.778,101427.923,8,400,,,
trial,html.Screen,4_24_0,2023-09-08T18:45:30.140Z,,0,1,,3205.577000000005,response,ISIC_0068924.JPG,5,ISIC_9822350.JPG,ISIC_9822350.JPG,false,0,keypress(z),500,104633.60000002384,104633.5,101420.969,101421.89999997616,101427.923,104636.242,8,400,25,,ISIC_0068924.JPG
break,html.Screen,4_24_1,2023-09-08T18:45:30.140Z,,0,,,NaN,,,,,,false,,,,104634,104633.89999997616,,104633.60000002384,,104636.242,8,400,,,
break_continue,html.Screen,4_24_2,2023-09-08T18:45:30.140Z,,0,,,NaN,,,,,,false,,,,104634.10000002384,104634.10000002384,,104634,,104636.242,8,400,,,
sequence,flow.Sequence,4_24,2023-09-08T18:45:30.140Z,,0,,,3206.1770000238466,completion,,,,,false,,,,104634.20000004768,104634.10000002384,101420.969,101421.89999997616,101427.923,104636.242,8,400,,,
trial,html.Screen,4_25_0,2023-09-08T18:45:33.103Z,,0,1,,2960.4580000476853,response,ISIC_0010967.JPG,4,ISIC_2324728.JPG,ISIC_2324728.JPG,false,0,keypress(z),500,107596.89999997616,107596.70000004768,104629.255,104634.20000004768,104636.242,107601.52,8,400,26,,ISIC_0010967.JPG
break,html.Screen,4_25_1,2023-09-08T18:45:33.103Z,,0,,,NaN,,,,,,false,,,,107597.20000004768,107597.10000002384,,107597,,107601.52,8,400,,,
break_continue,html.Screen,4_25_2,2023-09-08T18:45:33.104Z,,0,,,NaN,,,,,,false,,,,107597.39999997616,107597.39999997616,,107597.29999995232,,107601.52,8,400,,,
sequence,flow.Sequence,4_25,2023-09-08T18:45:33.104Z,,0,,,2961.1579999761598,completion,,,,,false,,,,107597.39999997616,107597.39999997616,104629.255,104634.20000004768,104636.242,107601.52,8,400,,,
trial,html.Screen,4_26_0,2023-09-08T18:45:36.139Z,,0,1,,3031.479999999996,response,ISIC_0065219.JPG,5,ISIC_0057495.JPG,ISIC_0057495.JPG,false,0,keypress(z),500,110633.20000004768,110633,107594.517,107597.5,107601.52,110636.212,8,400,27,,ISIC_0065219.JPG
break,html.Screen,4_26_1,2023-09-08T18:45:36.140Z,,0,,,NaN,,,,,,false,,,,110633.60000002384,110633.60000002384,,110633.39999997616,,110636.212,8,400,,,
break_continue,html.Screen,4_26_2,2023-09-08T18:45:36.140Z,,0,,,NaN,,,,,,false,,,,110633.70000004768,110633.70000004768,,110633.60000002384,,110636.212,8,400,,,
sequence,flow.Sequence,4_26,2023-09-08T18:45:36.140Z,,0,,,3032.1800000476796,completion,,,,,false,,,,110633.79999995232,110633.70000004768,107594.517,107597.5,107601.52,110636.212,8,400,,,
trial,html.Screen,4_27_0,2023-09-08T18:45:39.170Z,,0,1,,3027.1879999761586,response,ISIC_0011512.JPG,6,ISIC_0056089.JPG,ISIC_0056089.JPG,false,0,keypress(z),500,113663.5,113663.39999997616,110629.236,110633.79999995232,110636.212,113670.924,8,400,28,,ISIC_0011512.JPG
break,html.Screen,4_27_1,2023-09-08T18:45:39.170Z,,0,,,NaN,,,,,,false,,,,113664.10000002384,113664,,113663.70000004768,,113670.924,8,400,,,
break_continue,html.Screen,4_27_2,2023-09-08T18:45:39.170Z,,0,,,NaN,,,,,,false,,,,113664.29999995232,113664.20000004768,,113664.10000002384,,113670.924,8,400,,,
sequence,flow.Sequence,4_27,2023-09-08T18:45:39.170Z,,0,,,3027.988000047684,completion,,,,,false,,,,113664.29999995232,113664.20000004768,110629.236,110633.79999995232,110636.212,113670.924,8,400,,,
trial,html.Screen,4_28_0,2023-09-08T18:45:42.026Z,,0,1,,2848.576000000001,response,ISIC_4646815.JPG,5,ISIC_5591622.JPG,ISIC_4646815.JPG,false,1,keypress(m),500,116519.60000002384,116519.5,113663.971,113664.39999997616,113670.924,116525.056,8,400,29,,ISIC_5591622.JPG
break,html.Screen,4_28_1,2023-09-08T18:45:42.026Z,,0,,,NaN,,,,,,false,,,,116520,116520,,116519.70000004768,,116525.056,8,400,,,
break_continue,html.Screen,4_28_2,2023-09-08T18:45:42.026Z,,0,,,NaN,,,,,,false,,,,116520.20000004768,116520.10000002384,,116520,,116525.056,8,400,,,
sequence,flow.Sequence,4_28,2023-09-08T18:45:42.026Z,,0,,,2849.176000023843,completion,,,,,false,,,,116520.20000004768,116520.10000002384,113663.971,113664.29999995232,113670.924,116525.056,8,400,,,
trial,html.Screen,4_29_0,2023-09-08T18:45:45.078Z,,0,1,,3046.944000000003,response,ISIC_3475142.JPG,5,ISIC_1550721.JPG,ISIC_3475142.JPG,false,1,keypress(m),500,119572,119572,116518.075,116520.20000004768,116525.056,119573.636,8,400,30,,ISIC_1550721.JPG
break,html.Screen,4_29_1,2023-09-08T18:45:45.079Z,,0,,,NaN,,,,,,false,,,,119572.39999997616,119572.39999997616,,119572.10000002384,,119573.636,8,400,,,
break_continue,html.Screen,4_29_2,2023-09-08T18:45:45.079Z,,0,,,NaN,,,,,,false,,,,119572.5,119572.5,,119572.39999997616,,119573.636,8,400,,,
sequence,flow.Sequence,4_29,2023-09-08T18:45:45.079Z,,0,,,3047.444000000003,completion,,,,,false,,,,119572.60000002384,119572.5,116518.075,116520.20000004768,116525.056,119573.636,8,400,,,
trial,html.Screen,4_30_0,2023-09-08T18:45:48.233Z,,0,1,,3152.8640000000014,response,ISIC_1305537.JPG,4,ISIC_0588855.JPG,ISIC_0588855.JPG,false,0,keypress(z),500,122726.79999995232,122726.5,119566.665,119572.60000002384,119573.636,122733.352,8,400,31,,ISIC_1305537.JPG
break,html.Screen,4_30_1,2023-09-08T18:45:48.233Z,,0,,,NaN,,,,,,false,,,,122727.20000004768,122727.10000002384,,122726.79999995232,,122733.352,8,400,,,
break_continue,html.Screen,4_30_2,2023-09-08T18:45:48.233Z,,0,,,NaN,,,,,,false,,,,122727.29999995232,122727.29999995232,,122727.20000004768,,122733.352,8,400,,,
sequence,flow.Sequence,4_30,2023-09-08T18:45:48.234Z,,0,,,3153.6639999523177,completion,,,,,false,,,,122727.39999997616,122727.29999995232,119566.665,119572.60000002384,119573.636,122733.352,8,400,,,
trial,html.Screen,4_31_0,2023-09-08T18:45:51.823Z,,0,1,,3583.3480000476848,response,ISIC_1117369.JPG,4,ISIC_7824688.JPG,ISIC_1117369.JPG,false,1,keypress(m),500,126316.79999995232,126316.70000004768,122726.453,122727.5,122733.352,126323.632,8,400,32,,ISIC_7824688.JPG
break,html.Screen,4_31_1,2023-09-08T18:45:51.823Z,,0,,,NaN,,,,,,false,,,,126317.29999995232,126317.20000004768,,126317,,126323.632,8,400,,,
break_continue,html.Screen,4_31_2,2023-09-08T18:45:51.824Z,,0,,,NaN,,,,,,false,,,,126317.39999997616,126317.39999997616,,126317.29999995232,,126323.632,8,400,,,
sequence,flow.Sequence,4_31,2023-09-08T18:45:51.824Z,,0,,,3584.047999976159,completion,,,,,false,,,,126317.5,126317.39999997616,122726.453,122727.39999997616,122733.352,126323.632,8,400,,,
trial,html.Screen,4_32_0,2023-09-08T18:45:54.950Z,,0,1,,3119.968000023844,response,ISIC_4292879.JPG,5,ISIC_2800198.JPG,ISIC_4292879.JPG,false,1,keypress(m),500,129443.70000004768,129443.60000002384,126316.646,126317.5,126323.632,129455.504,8,400,33,,ISIC_2800198.JPG
break,html.Screen,4_32_1,2023-09-08T18:45:54.950Z,,0,,,NaN,,,,,,false,,,,129444.10000002384,129444,,129443.79999995232,,129455.504,8,400,,,
break_continue,html.Screen,4_32_2,2023-09-08T18:45:54.950Z,,0,,,NaN,,,,,,false,,,,129444.20000004768,129444.10000002384,,129444.10000002384,,129455.504,8,400,,,
sequence,flow.Sequence,4_32,2023-09-08T18:45:54.950Z,,0,,,3120.468000023844,completion,,,,,false,,,,129444.29999995232,129444.10000002384,126316.646,126317.5,126323.632,129455.504,8,400,,,
trial,html.Screen,4_33_0,2023-09-08T18:45:57.724Z,,0,1,,2762.2959999523155,response,ISIC_0030660.JPG,4,ISIC_0010754.JPG,ISIC_0030660.JPG,false,1,keypress(m),500,132217.89999997616,132217.79999995232,129448.582,129444.29999995232,129455.504,132219.387,8,400,34,,ISIC_0010754.JPG
break,html.Screen,4_33_1,2023-09-08T18:45:57.724Z,,0,,,NaN,,,,,,false,,,,132218.29999995232,132218.20000004768,,132218,,132219.387,8,400,,,
break_continue,html.Screen,4_33_2,2023-09-08T18:45:57.725Z,,0,,,NaN,,,,,,false,,,,132218.39999997616,132218.39999997616,,132218.29999995232,,132219.387,8,400,,,
sequence,flow.Sequence,4_33,2023-09-08T18:45:57.725Z,,0,,,2762.8959999761573,completion,,,,,false,,,,132218.5,132218.39999997616,129448.582,129444.29999995232,129455.504,132219.387,8,400,,,
trial,html.Screen,4_34_0,2023-09-08T18:46:00.740Z,,0,1,,3014.613000000012,response,ISIC_0002899.JPG,5,ISIC_0061300.JPG,ISIC_0002899.JPG,false,1,keypress(m),500,135234.20000004768,135234,132212.433,132218.5,132219.387,135240.213,8,400,35,,ISIC_0061300.JPG
break,html.Screen,4_34_1,2023-09-08T18:46:00.741Z,,0,,,NaN,,,,,,false,,,,135234.60000002384,135234.5,,135234.29999995232,,135240.213,8,400,,,
break_continue,html.Screen,4_34_2,2023-09-08T18:46:00.741Z,,0,,,NaN,,,,,,false,,,,135234.70000004768,135234.70000004768,,135234.60000002384,,135240.213,8,400,,,
sequence,flow.Sequence,4_34,2023-09-08T18:46:00.741Z,,0,,,3015.313000047696,completion,,,,,false,,,,135234.79999995232,135234.70000004768,132212.433,132218.5,132219.387,135240.213,8,400,,,
trial,html.Screen,4_35_0,2023-09-08T18:46:03.845Z,,0,1,,3098.287000000011,response,ISIC_0011684.JPG,5,ISIC_0032331.JPG,ISIC_0032331.JPG,false,0,keypress(z),500,138338.60000002384,138338.5,135233.23,135234.79999995232,135240.213,138344.413,8,400,36,,ISIC_0011684.JPG
break,html.Screen,4_35_1,2023-09-08T18:46:03.845Z,,0,,,NaN,,,,,,false,,,,138338.89999997616,138338.79999995232,,138338.60000002384,,138344.413,8,400,,,
break_continue,html.Screen,4_35_2,2023-09-08T18:46:03.845Z,,0,,,NaN,,,,,,false,,,,138339.10000002384,138339.10000002384,,138338.89999997616,,138344.413,8,400,,,
sequence,flow.Sequence,4_35,2023-09-08T18:46:03.845Z,,0,,,3098.887000023853,completion,,,,,false,,,,138339.20000004768,138339.10000002384,135233.23,135234.79999995232,135240.213,138344.413,8,400,,,
trial,html.Screen,4_36_0,2023-09-08T18:46:06.742Z,,0,1,,2891.1870000238414,response,ISIC_0059904.JPG,4,ISIC_3064807.JPG,ISIC_0059904.JPG,false,1,keypress(m),500,141235.70000004768,141235.60000002384,138337.359,138339.20000004768,138344.413,141240.182,8,400,37,,ISIC_3064807.JPG
break,html.Screen,4_36_1,2023-09-08T18:46:06.742Z,,0,,,NaN,,,,,,false,,,,141236,141236,,141235.79999995232,,141240.182,8,400,,,
break_continue,html.Screen,4_36_2,2023-09-08T18:46:06.742Z,,0,,,NaN,,,,,,false,,,,141236.20000004768,141236.20000004768,,141236.10000002384,,141240.182,8,400,,,
sequence,flow.Sequence,4_36,2023-09-08T18:46:06.742Z,,0,,,2891.7870000476833,completion,,,,,false,,,,141236.20000004768,141236.20000004768,138337.359,138339.20000004768,138344.413,141240.182,8,400,,,
trial,html.Screen,4_37_0,2023-09-08T18:46:09.460Z,,0,1,,2713.418000023841,response,ISIC_0010978.JPG,4,ISIC_0055393.JPG,ISIC_0010978.JPG,false,1,keypress(m),500,143953.70000004768,143953.60000002384,141233.185,141236.29999995232,141240.182,143955.425,8,400,38,,ISIC_0055393.JPG
break,html.Screen,4_37_1,2023-09-08T18:46:09.460Z,,0,,,NaN,,,,,,false,,,,143954.10000002384,143954.10000002384,,143953.79999995232,,143955.425,8,400,,,
break_continue,html.Screen,4_37_2,2023-09-08T18:46:09.460Z,,0,,,NaN,,,,,,false,,,,143954.20000004768,143954.20000004768,,143954.20000004768,,143955.425,8,400,,,
sequence,flow.Sequence,4_37,2023-09-08T18:46:09.460Z,,0,,,2714.018000047683,completion,,,,,false,,,,143954.29999995232,143954.20000004768,141233.185,141236.29999995232,141240.182,143955.425,8,400,,,
trial,html.Screen,4_38_0,2023-09-08T18:46:12.124Z,,0,1,,2662.1750000238535,response,ISIC_0067206.JPG,5,ISIC_0034042.JPG,ISIC_0034042.JPG,false,0,keypress(z),500,146617.60000002384,146617.60000002384,143948.449,143954.39999997616,143955.425,146622.082,8,400,39,,ISIC_0067206.JPG
break,html.Screen,4_38_1,2023-09-08T18:46:12.124Z,,0,,,NaN,,,,,,false,,,,146618.10000002384,146618,,146617.70000004768,,146622.082,8,400,,,
break_continue,html.Screen,4_38_2,2023-09-08T18:46:12.124Z,,0,,,NaN,,,,,,false,,,,146618.20000004768,146618.20000004768,,146618.10000002384,,146622.082,8,400,,,
sequence,flow.Sequence,4_38,2023-09-08T18:46:12.124Z,,0,,,2662.7750000476954,completion,,,,,false,,,,146618.29999995232,146618.20000004768,143948.449,143954.39999997616,143955.425,146622.082,8,400,,,
trial,html.Screen,4_39_0,2023-09-08T18:46:14.822Z,,0,1,,2694.118000047689,response,ISIC_0011039.JPG,5,ISIC_0046597.JPG,ISIC_0046597.JPG,false,0,keypress(z),500,149316.29999995232,149316.20000004768,146615.986,146618.29999995232,146622.082,149323.45,8,400,40,,ISIC_0011039.JPG
break,html.Screen,4_39_1,2023-09-08T18:46:14.823Z,,0,,,NaN,,,,,,false,,,,149316.89999997616,149316.79999995232,,149316.39999997616,,149323.45,8,400,,,
break_continue,html.Screen,4_39_2,2023-09-08T18:46:14.823Z,,0,,,NaN,,,,,,false,,,,149317.10000002384,149317,,149316.89999997616,,149323.45,8,400,,,
sequence,flow.Sequence,4_39,2023-09-08T18:46:14.823Z,,0,,,2694.918000000005,completion,,,,,false,,,,149317.20000004768,149317,146615.986,146618.29999995232,146622.082,149323.45,8,400,,,
trial,html.Screen,4_40_0,2023-09-08T18:46:17.433Z,,0,1,,2603.5499999999884,response,ISIC_0067798.JPG,5,ISIC_8969855.JPG,ISIC_8969855.JPG,false,0,keypress(z),500,151927.10000002384,151927,149316.467,149317.20000004768,149323.45,151927.597,8,400,41,,ISIC_0067798.JPG
break,html.Screen,4_40_1,2023-09-08T18:46:17.434Z,,0,,,NaN,,,,,,false,,,,151927.70000004768,151927.39999997616,,151927.20000004768,,151927.597,8,400,,,
break_continue,html.Screen,4_40_2,2023-09-08T18:46:17.434Z,,0,,,NaN,,,,,,false,,,,151927.79999995232,151927.79999995232,,151927.79999995232,,151927.597,8,400,,,
sequence,flow.Sequence,4_40,2023-09-08T18:46:17.434Z,,0,,,2604.3499999523046,completion,,,,,false,,,,151927.89999997616,151927.79999995232,149316.467,149317.20000004768,149323.45,151927.597,8,400,,,
trial,html.Screen,4_41_0,2023-09-08T18:46:20.410Z,,0,1,,2975.7029999523074,response,ISIC_0001581.JPG,5,ISIC_0708552.JPG,ISIC_0708552.JPG,false,0,keypress(z),500,154903.5,154903.29999995232,151920.621,151927.89999997616,151927.597,154906.721,8,400,42,,ISIC_0001581.JPG
break,html.Screen,4_41_1,2023-09-08T18:46:20.410Z,,0,,,NaN,,,,,,false,,,,154903.89999997616,154903.79999995232,,154903.60000002384,,154906.721,8,400,,,
break_continue,html.Screen,4_41_2,2023-09-08T18:46:20.410Z,,0,,,NaN,,,,,,false,,,,154904,154903.89999997616,,154903.89999997616,,154906.721,8,400,,,
sequence,flow.Sequence,4_41,2023-09-08T18:46:20.410Z,,0,,,2976.3029999761493,completion,,,,,false,,,,154904,154903.89999997616,151920.621,151927.89999997616,151927.597,154906.721,8,400,,,
trial,html.Screen,4_42_0,2023-09-08T18:46:23.148Z,,0,1,,2735.078999952326,response,ISIC_0030911.JPG,4,ISIC_0032504.JPG,ISIC_0030911.JPG,false,1,keypress(m),500,157642,157641.79999995232,154899.766,154904.10000002384,154906.721,157642.907,8,400,43,,ISIC_0032504.JPG
break,html.Screen,4_42_1,2023-09-08T18:46:23.149Z,,0,,,NaN,,,,,,false,,,,157642.39999997616,157642.29999995232,,157642.10000002384,,157642.907,8,400,,,
break_continue,html.Screen,4_42_2,2023-09-08T18:46:23.149Z,,0,,,NaN,,,,,,false,,,,157642.60000002384,157642.60000002384,,157642.5,,157642.907,8,400,,,
sequence,flow.Sequence,4_42,2023-09-08T18:46:23.149Z,,0,,,2735.8790000238514,completion,,,,,false,,,,157642.70000004768,157642.60000002384,154899.766,154904.10000002384,154906.721,157642.907,8,400,,,
trial,html.Screen,4_43_0,2023-09-08T18:46:25.972Z,,0,1,,2822.4929999761516,response,ISIC_7342636.JPG,5,ISIC_7999342.JPG,ISIC_7999342.JPG,false,0,keypress(z),500,160465.70000004768,160465.39999997616,157635.869,157642.79999995232,157642.907,160469.182,8,400,44,,ISIC_7342636.JPG
break,html.Screen,4_43_1,2023-09-08T18:46:25.972Z,,0,,,NaN,,,,,,false,,,,160465.89999997616,160465.89999997616,,160465.70000004768,,160469.182,8,400,,,
break_continue,html.Screen,4_43_2,2023-09-08T18:46:25.972Z,,0,,,NaN,,,,,,false,,,,160466.10000002384,160466.10000002384,,160466,,160469.182,8,400,,,
sequence,flow.Sequence,4_43,2023-09-08T18:46:25.972Z,,0,,,2823.1930000238353,completion,,,,,false,,,,160466.20000004768,160466.10000002384,157635.869,157642.70000004768,157642.907,160469.182,8,400,,,
trial,html.Screen,4_44_0,2023-09-08T18:46:28.576Z,,0,1,,2600.3179999999993,response,ISIC_0011064.JPG,5,ISIC_0032265.JPG,ISIC_0011064.JPG,false,1,keypress(m),500,163069.60000002384,163069.5,160462.221,160466.20000004768,160469.182,163073.358,8,400,45,,ISIC_0032265.JPG
break,html.Screen,4_44_1,2023-09-08T18:46:28.576Z,,0,,,NaN,,,,,,false,,,,163070.10000002384,163069.89999997616,,163069.70000004768,,163073.358,8,400,,,
break_continue,html.Screen,4_44_2,2023-09-08T18:46:28.576Z,,0,,,NaN,,,,,,false,,,,163070.29999995232,163070.20000004768,,163070.20000004768,,163073.358,8,400,,,
sequence,flow.Sequence,4_44,2023-09-08T18:46:28.576Z,,0,,,2601.018000047683,completion,,,,,false,,,,163070.39999997616,163070.20000004768,160462.221,160466.20000004768,160469.182,163073.358,8,400,,,
trial,html.Screen,4_45_0,2023-09-08T18:46:31.111Z,,0,1,,2531.3420000476763,response,ISIC_4118762.JPG,4,ISIC_0025732.JPG,ISIC_4118762.JPG,false,1,keypress(m),500,165604.89999997616,165604.70000004768,163066.376,163070.39999997616,163073.358,165608.067,8,400,46,,ISIC_0025732.JPG
break,html.Screen,4_45_1,2023-09-08T18:46:31.111Z,,0,,,NaN,,,,,,false,,,,165605.20000004768,165605.20000004768,,165605,,165608.067,8,400,,,
break_continue,html.Screen,4_45_2,2023-09-08T18:46:31.112Z,,0,,,NaN,,,,,,false,,,,165605.5,165605.39999997616,,165605.29999995232,,165608.067,8,400,,,
sequence,flow.Sequence,4_45,2023-09-08T18:46:31.112Z,,0,,,2532.0419999761507,completion,,,,,false,,,,165605.5,165605.39999997616,163066.376,163070.39999997616,163073.358,165608.067,8,400,,,
trial,html.Screen,4_46_0,2023-09-08T18:46:33.675Z,,0,1,,2560.533000023832,response,ISIC_0060096.JPG,5,ISIC_9353514.JPG,ISIC_9353514.JPG,false,0,keypress(z),500,168168.70000004768,168168.60000002384,165601.098,165605.60000002384,165608.067,168170.525,8,400,47,,ISIC_0060096.JPG
break,html.Screen,4_46_1,2023-09-08T18:46:33.675Z,,0,,,NaN,,,,,,false,,,,168169.10000002384,168169,,168168.89999997616,,168170.525,8,400,,,
break_continue,html.Screen,4_46_2,2023-09-08T18:46:33.675Z,,0,,,NaN,,,,,,false,,,,168169.29999995232,168169.20000004768,,168169.20000004768,,168170.525,8,400,,,
sequence,flow.Sequence,4_46,2023-09-08T18:46:33.675Z,,0,,,2561.1330000476737,completion,,,,,false,,,,168169.29999995232,168169.20000004768,165601.098,165605.5,165608.067,168170.525,8,400,,,
trial,html.Screen,4_47_0,2023-09-08T18:46:36.287Z,,0,1,,2610.0750000238477,response,ISIC_3365692.JPG,4,ISIC_0034192.JPG,ISIC_3365692.JPG,false,1,keypress(m),500,170780.79999995232,170780.60000002384,168163.568,168169.39999997616,168170.525,170781.638,8,400,48,,ISIC_0034192.JPG
break,html.Screen,4_47_1,2023-09-08T18:46:36.287Z,,0,,,NaN,,,,,,false,,,,170781,170781,,170780.79999995232,,170781.638,8,400,,,
break_continue,html.Screen,4_47_2,2023-09-08T18:46:36.287Z,,0,,,NaN,,,,,,false,,,,170781.20000004768,170781.20000004768,,170781.10000002384,,170781.638,8,400,,,
sequence,flow.Sequence,4_47,2023-09-08T18:46:36.287Z,,0,,,2610.6750000476895,completion,,,,,false,,,,170781.20000004768,170781.20000004768,168163.568,168169.39999997616,168170.525,170781.638,8,400,,,
trial,html.Screen,4_48_0,2023-09-08T18:46:38.869Z,,0,1,,2580.9620000238356,response,ISIC_7306131.JPG,5,ISIC_0071135.JPG,ISIC_7306131.JPG,false,1,keypress(m),500,173362.70000004768,173362.60000002384,170774.665,170781.39999997616,170781.638,173364.932,8,400,49,,ISIC_0071135.JPG
break,html.Screen,4_48_1,2023-09-08T18:46:38.869Z,,0,,,NaN,,,,,,false,,,,173363.10000002384,173363,,173362.79999995232,,173364.932,8,400,,,
break_continue,html.Screen,4_48_2,2023-09-08T18:46:38.869Z,,0,,,NaN,,,,,,false,,,,173363.29999995232,173363.20000004768,,173363.10000002384,,173364.932,8,400,,,
sequence,flow.Sequence,4_48,2023-09-08T18:46:38.869Z,,0,,,2581.5620000476774,completion,,,,,false,,,,173363.39999997616,173363.20000004768,170774.665,170781.29999995232,170781.638,173364.932,8,400,,,
trial,html.Screen,4_49_0,2023-09-08T18:46:41.770Z,,0,1,,2898.768000047683,response,ISIC_9182285.JPG,5,ISIC_0066328.JPG,ISIC_9182285.JPG,false,1,keypress(m),500,176263.89999997616,176263.70000004768,173357.978,173363.39999997616,173364.932,176267.718,8,400,50,,ISIC_0066328.JPG
break,html.Screen,4_49_1,2023-09-08T18:46:51.767Z,,0,,,9999.910000000003,timeout,,,,,false,,,,186261.10000002384,186260.686,176260.73,176264,176267.718,186267.628,8,400,,,
break_continue,html.Screen,4_49_2,2023-09-08T18:46:52.470Z,,0,,,691.872000000003,response,,,,,false,continue,keypress(Space),,186963.5,186959.5,186260.686,186261.10000002384,186267.628,186969.014,8,400,,,
sequence,flow.Sequence,4_49,2023-09-08T18:46:52.470Z,,0,,,13594.568,completion,,,,,false,,,,186963.70000004768,186959.5,173357.978,173363.39999997616,173364.932,186969.014,8,400,,,
trial,html.Screen,4_50_0,2023-09-08T18:46:55.025Z,,0,2,,2549.4860000000044,response,ISIC_0024315.JPG,5,ISIC_5530598.JPG,ISIC_5530598.JPG,false,0,keypress(z),500,189518.60000002384,189518.5,186962.046,186963.70000004768,186969.014,189524.554,8,400,1,,ISIC_0024315.JPG
break,html.Screen,4_50_1,2023-09-08T18:46:55.025Z,,0,,,NaN,,,,,,false,,,,189518.89999997616,189518.89999997616,,189518.70000004768,,189524.554,8,400,,,
break_continue,html.Screen,4_50_2,2023-09-08T18:46:55.025Z,,0,,,NaN,,,,,,false,,,,189519.10000002384,189519.10000002384,,189519,,189524.554,8,400,,,
sequence,flow.Sequence,4_50,2023-09-08T18:46:55.025Z,,0,,,2550.0860000238463,completion,,,,,false,,,,189519.20000004768,189519.10000002384,186962.046,186963.70000004768,186969.014,189524.554,8,400,,,
trial,html.Screen,4_51_0,2023-09-08T18:46:57.773Z,,0,2,,2742.4459999999963,response,ISIC_0002184.JPG,4,ISIC_2226940.JPG,ISIC_0002184.JPG,false,1,keypress(m),500,192267.10000002384,192267,189517.585,189519.29999995232,189524.554,192267.602,8,400,2,,ISIC_2226940.JPG
break,html.Screen,4_51_1,2023-09-08T18:46:57.774Z,,0,,,NaN,,,,,,false,,,,192267.5,192267.39999997616,,192267.29999995232,,192267.602,8,400,,,
break_continue,html.Screen,4_51_2,2023-09-08T18:46:57.774Z,,0,,,NaN,,,,,,false,,,,192267.70000004768,192267.60000002384,,192267.5,,192267.602,8,400,,,
sequence,flow.Sequence,4_51,2023-09-08T18:46:57.774Z,,0,,,2743.046000023838,completion,,,,,false,,,,192267.79999995232,192267.60000002384,189517.585,189519.20000004768,189524.554,192267.602,8,400,,,
trial,html.Screen,4_52_0,2023-09-08T18:47:00.395Z,,0,2,,2621.2979999761446,response,ISIC_5798015.JPG,4,ISIC_0033320.JPG,ISIC_5798015.JPG,false,1,keypress(m),500,194889,194888.89999997616,192260.655,192267.89999997616,192267.602,194892.597,8,400,3,,ISIC_0033320.JPG
break,html.Screen,4_52_1,2023-09-08T18:47:00.396Z,,0,,,NaN,,,,,,false,,,,194889.39999997616,194889.39999997616,,194889.10000002384,,194892.597,8,400,,,
break_continue,html.Screen,4_52_2,2023-09-08T18:47:00.396Z,,0,,,NaN,,,,,,false,,,,194889.60000002384,194889.5,,194889.5,,194892.597,8,400,,,
sequence,flow.Sequence,4_52,2023-09-08T18:47:00.396Z,,0,,,2621.8979999999865,completion,,,,,false,,,,194889.70000004768,194889.5,192260.655,192267.79999995232,192267.602,194892.597,8,400,,,
trial,html.Screen,4_53_0,2023-09-08T18:47:03.220Z,,0,2,,2821.402999999991,response,ISIC_3064807.JPG,4,ISIC_0429825.JPG,ISIC_3064807.JPG,false,1,keypress(m),500,197714.10000002384,197714,194885.626,194889.70000004768,194892.597,197718.952,8,400,4,,ISIC_0429825.JPG
break,html.Screen,4_53_1,2023-09-08T18:47:03.221Z,,0,,,NaN,,,,,,false,,,,197714.5,197714.39999997616,,197714.20000004768,,197718.952,8,400,,,
break_continue,html.Screen,4_53_2,2023-09-08T18:47:03.221Z,,0,,,NaN,,,,,,false,,,,197714.70000004768,197714.60000002384,,197714.60000002384,,197718.952,8,400,,,
sequence,flow.Sequence,4_53,2023-09-08T18:47:03.221Z,,0,,,2822.003000023833,completion,,,,,false,,,,197714.79999995232,197714.60000002384,194885.626,194889.70000004768,194892.597,197718.952,8,400,,,
trial,html.Screen,4_54_0,2023-09-08T18:47:05.840Z,,0,2,,2614.447999976168,response,ISIC_6250970.JPG,4,ISIC_0010207.JPG,ISIC_6250970.JPG,false,1,keypress(m),500,200333.5,200333.39999997616,197711.982,197714.79999995232,197718.952,200336.988,8,400,5,,ISIC_0010207.JPG
break,html.Screen,4_54_1,2023-09-08T18:47:05.840Z,,0,,,NaN,,,,,,false,,,,200333.89999997616,200333.79999995232,,200333.60000002384,,200336.988,8,400,,,
break_continue,html.Screen,4_54_2,2023-09-08T18:47:05.840Z,,0,,,NaN,,,,,,false,,,,200334,200334,,200333.89999997616,,200336.988,8,400,,,
sequence,flow.Sequence,4_54,2023-09-08T18:47:05.840Z,,0,,,2615.04800000001,completion,,,,,false,,,,200334.10000002384,200334,197711.982,197714.79999995232,197718.952,200336.988,8,400,,,
trial,html.Screen,4_55_0,2023-09-08T18:47:08.523Z,,0,2,,2680.511999999988,response,ISIC_4518384.JPG,5,ISIC_0069105.JPG,ISIC_4518384.JPG,false,1,keypress(m),500,203017.60000002384,203017.5,200330.029,200334.10000002384,200336.988,203024.488,8,400,6,,ISIC_0069105.JPG
break,html.Screen,4_55_1,2023-09-08T18:47:08.524Z,,0,,,NaN,,,,,,false,,,,203018.10000002384,203018,,203017.70000004768,,203024.488,8,400,,,
break_continue,html.Screen,4_55_2,2023-09-08T18:47:08.524Z,,0,,,NaN,,,,,,false,,,,203018.39999997616,203018.29999995232,,203018.10000002384,,203024.488,8,400,,,
sequence,flow.Sequence,4_55,2023-09-08T18:47:08.524Z,,0,,,2681.311999952304,completion,,,,,false,,,,203018.5,203018.29999995232,200330.029,200334.10000002384,200336.988,203024.488,8,400,,,
trial,html.Screen,4_56_0,2023-09-08T18:47:11.113Z,,0,2,,2582.311999952304,response,ISIC_0941332.JPG,4,ISIC_1794249.JPG,ISIC_1794249.JPG,false,0,keypress(z),500,205606.89999997616,205606.79999995232,203017.498,203018.60000002384,203024.488,205607.794,8,400,7,,ISIC_0941332.JPG
break,html.Screen,4_56_1,2023-09-08T18:47:11.113Z,,0,,,NaN,,,,,,false,,,,205607.29999995232,205607.20000004768,,205607,,205607.794,8,400,,,
break_continue,html.Screen,4_56_2,2023-09-08T18:47:11.113Z,,0,,,NaN,,,,,,false,,,,205607.39999997616,205607.39999997616,,205607.39999997616,,205607.794,8,400,,,
sequence,flow.Sequence,4_56,2023-09-08T18:47:11.113Z,,0,,,2582.911999976146,completion,,,,,false,,,,205607.5,205607.39999997616,203017.498,203018.5,203024.488,205607.794,8,400,,,
trial,html.Screen,4_57_0,2023-09-08T18:47:13.953Z,,0,2,,2839.6059999761637,response,ISIC_0068616.JPG,4,ISIC_4692567.JPG,ISIC_4692567.JPG,false,0,keypress(z),500,208447.5,208447.39999997616,205600.824,205607.5,205607.794,208448.052,8,400,8,,ISIC_0068616.JPG
break,html.Screen,4_57_1,2023-09-08T18:47:13.954Z,,0,,,NaN,,,,,,false,,,,208448,208447.79999995232,,208447.60000002384,,208448.052,8,400,,,
break_continue,html.Screen,4_57_2,2023-09-08T18:47:13.954Z,,0,,,NaN,,,,,,false,,,,208448,208448,,208448,,208448.052,8,400,,,
sequence,flow.Sequence,4_57,2023-09-08T18:47:13.954Z,,0,,,2840.2060000000056,completion,,,,,false,,,,208448.10000002384,208448,205600.824,205607.5,205607.794,208448.052,8,400,,,
trial,html.Screen,4_58_0,2023-09-08T18:47:16.921Z,,0,2,,2967.1480000476877,response,ISIC_9826778.JPG,5,ISIC_0553932.JPG,ISIC_0553932.JPG,false,0,keypress(z),500,211415.29999995232,211415.20000004768,208441.106,208448.10000002384,208448.052,211420.262,8,400,9,,ISIC_9826778.JPG
break,html.Screen,4_58_1,2023-09-08T18:47:16.922Z,,0,,,NaN,,,,,,false,,,,211415.70000004768,211415.70000004768,,211415.5,,211420.262,8,400,,,
break_continue,html.Screen,4_58_2,2023-09-08T18:47:16.922Z,,0,,,NaN,,,,,,false,,,,211415.89999997616,211415.89999997616,,211415.79999995232,,211420.262,8,400,,,
sequence,flow.Sequence,4_58,2023-09-08T18:47:16.922Z,,0,,,2967.847999976162,completion,,,,,false,,,,211415.89999997616,211415.89999997616,208441.106,208448.10000002384,208448.052,211420.262,8,400,,,
trial,html.Screen,4_59_0,2023-09-08T18:47:19.561Z,,0,2,,2634.938000047696,response,ISIC_5298216.JPG,4,ISIC_3124612.JPG,ISIC_3124612.JPG,false,0,keypress(z),500,214055.39999997616,214055.20000004768,211413.28,211416,211420.262,214059.131,8,400,10,,ISIC_5298216.JPG
break,html.Screen,4_59_1,2023-09-08T18:47:19.562Z,,0,,,NaN,,,,,,false,,,,214055.70000004768,214055.70000004768,,214055.5,,214059.131,8,400,,,
break_continue,html.Screen,4_59_2,2023-09-08T18:47:19.562Z,,0,,,NaN,,,,,,false,,,,214055.89999997616,214055.89999997616,,214055.79999995232,,214059.131,8,400,,,
sequence,flow.Sequence,4_59,2023-09-08T18:47:19.562Z,,0,,,2635.6379999761702,completion,,,,,false,,,,214056,214055.89999997616,211413.28,211416,211420.262,214059.131,8,400,,,
trial,html.Screen,4_60_0,2023-09-08T18:47:22.185Z,,0,2,,2619.5690000476898,response,ISIC_1389141.JPG,4,ISIC_0056749.JPG,ISIC_1389141.JPG,false,1,keypress(m),500,216678.89999997616,216678.70000004768,214052.146,214056,214059.131,216684.092,8,400,11,,ISIC_0056749.JPG
break,html.Screen,4_60_1,2023-09-08T18:47:22.185Z,,0,,,NaN,,,,,,false,,,,216679.5,216679.29999995232,,216679,,216684.092,8,400,,,
break_continue,html.Screen,4_60_2,2023-09-08T18:47:22.185Z,,0,,,NaN,,,,,,false,,,,216679.70000004768,216679.60000002384,,216679.5,,216684.092,8,400,,,
sequence,flow.Sequence,4_60,2023-09-08T18:47:22.186Z,,0,,,2620.469000023848,completion,,,,,false,,,,216679.70000004768,216679.60000002384,214052.146,214056,214059.131,216684.092,8,400,,,
trial,html.Screen,4_61_0,2023-09-08T18:47:24.695Z,,0,2,,2505.407999999996,response,ISIC_2266011.JPG,4,ISIC_0026745.JPG,ISIC_2266011.JPG,false,1,keypress(m),500,219189.60000002384,219189.5,216677.138,216679.89999997616,216684.092,219191.033,8,400,12,,ISIC_0026745.JPG
break,html.Screen,4_61_1,2023-09-08T18:47:24.696Z,,0,,,NaN,,,,,,false,,,,219190,219189.89999997616,,219189.70000004768,,219191.033,8,400,,,
break_continue,html.Screen,4_61_2,2023-09-08T18:47:24.696Z,,0,,,NaN,,,,,,false,,,,219190.20000004768,219190.10000002384,,219190,,219191.033,8,400,,,
sequence,flow.Sequence,4_61,2023-09-08T18:47:24.696Z,,0,,,2506.0080000238377,completion,,,,,false,,,,219190.20000004768,219190.10000002384,216677.138,216679.89999997616,216684.092,219191.033,8,400,,,
trial,html.Screen,4_62_0,2023-09-08T18:47:27.247Z,,0,2,,2550.2669999523205,response,ISIC_0068905.JPG,5,ISIC_0027712.JPG,ISIC_0027712.JPG,false,0,keypress(z),500,221741.39999997616,221741.29999995232,219184.059,219190.20000004768,219191.033,221746.565,8,400,13,,ISIC_0068905.JPG
break,html.Screen,4_62_1,2023-09-08T18:47:27.248Z,,0,,,NaN,,,,,,false,,,,221741.79999995232,221741.70000004768,,221741.60000002384,,221746.565,8,400,,,
break_continue,html.Screen,4_62_2,2023-09-08T18:47:27.248Z,,0,,,NaN,,,,,,false,,,,221742,221741.89999997616,,221741.89999997616,,221746.565,8,400,,,
sequence,flow.Sequence,4_62,2023-09-08T18:47:27.248Z,,0,,,2550.8669999761623,completion,,,,,false,,,,221742,221741.89999997616,219184.059,219190.20000004768,219191.033,221746.565,8,400,,,
trial,html.Screen,4_63_0,2023-09-08T18:47:29.814Z,,0,2,,2561.0350000238395,response,ISIC_0059336.JPG,4,ISIC_0033080.JPG,ISIC_0033080.JPG,false,0,keypress(z),500,224307.79999995232,224307.60000002384,221739.594,221742,221746.565,224309.06,8,400,14,,ISIC_0059336.JPG
break,html.Screen,4_63_1,2023-09-08T18:47:29.814Z,,0,,,NaN,,,,,,false,,,,224308.20000004768,224308.10000002384,,224307.89999997616,,224309.06,8,400,,,
break_continue,html.Screen,4_63_2,2023-09-08T18:47:29.814Z,,0,,,NaN,,,,,,false,,,,224308.29999995232,224308.29999995232,,224308.20000004768,,224309.06,8,400,,,
sequence,flow.Sequence,4_63,2023-09-08T18:47:29.814Z,,0,,,2561.734999952314,completion,,,,,false,,,,224308.39999997616,224308.29999995232,221739.594,221742,221746.565,224309.06,8,400,,,
trial,html.Screen,4_64_0,2023-09-08T18:47:32.423Z,,0,2,,2608.540000023844,response,ISIC_0014920.JPG,5,ISIC_0026699.JPG,ISIC_0026699.JPG,false,0,keypress(z),500,226917.70000004768,226917.60000002384,224302.093,224308.39999997616,224309.06,226920.142,8,400,15,,ISIC_0014920.JPG
break,html.Screen,4_64_1,2023-09-08T18:47:32.424Z,,0,,,NaN,,,,,,false,,,,226918.10000002384,226918,,226917.79999995232,,226920.142,8,400,,,
break_continue,html.Screen,4_64_2,2023-09-08T18:47:32.424Z,,0,,,NaN,,,,,,false,,,,226918.29999995232,226918.20000004768,,226918.10000002384,,226920.142,8,400,,,
sequence,flow.Sequence,4_64,2023-09-08T18:47:32.424Z,,0,,,2609.140000047686,completion,,,,,false,,,,226918.29999995232,226918.20000004768,224302.093,224308.39999997616,224309.06,226920.142,8,400,,,
trial,html.Screen,4_65_0,2023-09-08T18:47:35.130Z,,0,2,,2703.8580000000075,response,ISIC_0000387.JPG,5,ISIC_6440229.JPG,ISIC_0000387.JPG,false,1,keypress(m),500,229624.10000002384,229624,226913.192,226918.39999997616,226920.142,229628.466,8,400,16,,ISIC_6440229.JPG
break,html.Screen,4_65_1,2023-09-08T18:47:35.130Z,,0,,,NaN,,,,,,false,,,,229624.5,229624.39999997616,,229624.20000004768,,229628.466,8,400,,,
break_continue,html.Screen,4_65_2,2023-09-08T18:47:35.130Z,,0,,,NaN,,,,,,false,,,,229624.70000004768,229624.60000002384,,229624.5,,229628.466,8,400,,,
sequence,flow.Sequence,4_65,2023-09-08T18:47:35.130Z,,0,,,2704.4580000238493,completion,,,,,false,,,,229624.70000004768,229624.60000002384,226913.192,226918.29999995232,226920.142,229628.466,8,400,,,
trial,html.Screen,4_66_0,2023-09-08T18:47:37.890Z,,0,2,,2755.634000023856,response,ISIC_0030034.JPG,4,ISIC_0034232.JPG,ISIC_0034232.JPG,false,0,keypress(z),500,232384.29999995232,232384.10000002384,229621.502,229624.70000004768,229628.466,232385.438,8,400,17,,ISIC_0030034.JPG
break,html.Screen,4_66_1,2023-09-08T18:47:37.890Z,,0,,,NaN,,,,,,false,,,,232384.70000004768,232384.60000002384,,232384.39999997616,,232385.438,8,400,,,
break_continue,html.Screen,4_66_2,2023-09-08T18:47:37.891Z,,0,,,NaN,,,,,,false,,,,232384.89999997616,232384.79999995232,,232384.79999995232,,232385.438,8,400,,,
sequence,flow.Sequence,4_66,2023-09-08T18:47:37.891Z,,0,,,2756.3339999523305,completion,,,,,false,,,,232384.89999997616,232384.79999995232,229621.502,229624.70000004768,229628.466,232385.438,8,400,,,
trial,html.Screen,4_67_0,2023-09-08T18:47:40.458Z,,0,2,,2566.9619999761635,response,ISIC_0056679.JPG,4,ISIC_0060660.JPG,ISIC_0060660.JPG,false,0,keypress(z),500,234952.60000002384,234952.39999997616,232378.432,232385,232385.438,234954.81,8,400,18,,ISIC_0056679.JPG
break,html.Screen,4_67_1,2023-09-08T18:47:40.459Z,,0,,,NaN,,,,,,false,,,,234952.89999997616,234952.79999995232,,234952.60000002384,,234954.81,8,400,,,
break_continue,html.Screen,4_67_2,2023-09-08T18:47:40.459Z,,0,,,NaN,,,,,,false,,,,234953,234953,,234953,,234954.81,8,400,,,
sequence,flow.Sequence,4_67,2023-09-08T18:47:40.459Z,,0,,,2567.5620000000054,completion,,,,,false,,,,234953.10000002384,234953,232378.432,232385,232385.438,234954.81,8,400,,,
trial,html.Screen,4_68_0,2023-09-08T18:47:43.613Z,,0,2,,3152.5899999761605,response,ISIC_6653311.JPG,5,ISIC_0027109.JPG,ISIC_0027109.JPG,false,0,keypress(z),500,238107.5,238107.39999997616,234947.871,234953.10000002384,234954.81,238114.513,8,400,19,,ISIC_6653311.JPG
break,html.Screen,4_68_1,2023-09-08T18:47:43.614Z,,0,,,NaN,,,,,,false,,,,238108,238107.89999997616,,238107.60000002384,,238114.513,8,400,,,
break_continue,html.Screen,4_68_2,2023-09-08T18:47:43.614Z,,0,,,NaN,,,,,,false,,,,238108.20000004768,238108.10000002384,,238108,,238114.513,8,400,,,
sequence,flow.Sequence,4_68,2023-09-08T18:47:43.614Z,,0,,,3153.290000023844,completion,,,,,false,,,,238108.20000004768,238108.10000002384,234947.871,234953.10000002384,234954.81,238114.513,8,400,,,
trial,html.Screen,4_69_0,2023-09-08T18:47:47.192Z,,0,2,,3571.1870000476774,response,ISIC_8586909.JPG,5,ISIC_0007501.JPG,ISIC_0007501.JPG,false,0,keypress(z),500,241685.79999995232,241685.70000004768,238107.539,238108.20000004768,238114.513,241690.883,8,400,20,,ISIC_8586909.JPG
break,html.Screen,4_69_1,2023-09-08T18:47:47.192Z,,0,,,NaN,,,,,,false,,,,241686.20000004768,241686.10000002384,,241685.89999997616,,241690.883,8,400,,,
break_continue,html.Screen,4_69_2,2023-09-08T18:47:47.192Z,,0,,,NaN,,,,,,false,,,,241686.29999995232,241686.20000004768,,241686.20000004768,,241690.883,8,400,,,
sequence,flow.Sequence,4_69,2023-09-08T18:47:47.192Z,,0,,,3571.6870000476774,completion,,,,,false,,,,241686.39999997616,241686.20000004768,238107.539,238108.20000004768,238114.513,241690.883,8,400,,,
trial,html.Screen,4_70_0,2023-09-08T18:47:50.157Z,,0,2,,2960.6169999999984,response,ISIC_0026043.JPG,5,ISIC_0024808.JPG,ISIC_0024808.JPG,false,0,keypress(z),500,244651.5,244651.5,241683.908,241686.39999997616,241690.883,244656.137,8,400,21,,ISIC_0026043.JPG
break,html.Screen,4_70_1,2023-09-08T18:47:50.158Z,,0,,,NaN,,,,,,false,,,,244651.89999997616,244651.89999997616,,244651.70000004768,,244656.137,8,400,,,
break_continue,html.Screen,4_70_2,2023-09-08T18:47:50.158Z,,0,,,NaN,,,,,,false,,,,244652,244652,,244652,,244656.137,8,400,,,
sequence,flow.Sequence,4_70,2023-09-08T18:47:50.158Z,,0,,,2961.1169999999984,completion,,,,,false,,,,244652.10000002384,244652,241683.908,241686.39999997616,241690.883,244656.137,8,400,,,
trial,html.Screen,4_71_0,2023-09-08T18:47:53.616Z,,0,2,,3453.963000023854,response,ISIC_0029902.JPG,5,ISIC_0233487.JPG,ISIC_0029902.JPG,false,1,keypress(m),500,248110.20000004768,248110.10000002384,244649.191,244652.10000002384,244656.137,248121.386,8,400,22,,ISIC_0233487.JPG
break,html.Screen,4_71_1,2023-09-08T18:47:53.616Z,,0,,,NaN,,,,,,false,,,,248110.5,248110.5,,248110.29999995232,,248121.386,8,400,,,
break_continue,html.Screen,4_71_2,2023-09-08T18:47:53.616Z,,0,,,NaN,,,,,,false,,,,248110.70000004768,248110.70000004768,,248110.60000002384,,248121.386,8,400,,,
sequence,flow.Sequence,4_71,2023-09-08T18:47:53.617Z,,0,,,3454.563000047696,completion,,,,,false,,,,248110.79999995232,248110.70000004768,244649.191,244652.10000002384,244656.137,248121.386,8,400,,,
trial,html.Screen,4_72_0,2023-09-08T18:47:56.324Z,,0,2,,2696.7140000238433,response,ISIC_9048840.JPG,5,ISIC_0032094.JPG,ISIC_9048840.JPG,false,1,keypress(m),500,250818.20000004768,250818.10000002384,248114.451,248110.79999995232,248121.386,250822.781,8,400,23,,ISIC_0032094.JPG
break,html.Screen,4_72_1,2023-09-08T18:47:56.324Z,,0,,,NaN,,,,,,false,,,,250818.60000002384,250818.5,,250818.29999995232,,250822.781,8,400,,,
break_continue,html.Screen,4_72_2,2023-09-08T18:47:56.325Z,,0,,,NaN,,,,,,false,,,,250818.79999995232,250818.70000004768,,250818.70000004768,,250822.781,8,400,,,
sequence,flow.Sequence,4_72,2023-09-08T18:47:56.325Z,,0,,,2697.314000047685,completion,,,,,false,,,,250818.79999995232,250818.70000004768,248114.451,248110.79999995232,248121.386,250822.781,8,400,,,
trial,html.Screen,4_73_0,2023-09-08T18:47:58.908Z,,0,2,,2579.219000000012,response,ISIC_8375123.JPG,5,ISIC_0047022.JPG,ISIC_8375123.JPG,false,1,keypress(m),500,253402.20000004768,253402,250815.805,250818.79999995232,250822.781,253406.125,8,400,24,,ISIC_0047022.JPG
break,html.Screen,4_73_1,2023-09-08T18:47:58.908Z,,0,,,NaN,,,,,,false,,,,253402.5,253402.39999997616,,253402.29999995232,,253406.125,8,400,,,
break_continue,html.Screen,4_73_2,2023-09-08T18:47:58.908Z,,0,,,NaN,,,,,,false,,,,253402.70000004768,253402.60000002384,,253402.60000002384,,253406.125,8,400,,,
sequence,flow.Sequence,4_73,2023-09-08T18:47:58.908Z,,0,,,2579.8190000238537,completion,,,,,false,,,,253402.70000004768,253402.60000002384,250815.805,250818.79999995232,250822.781,253406.125,8,400,,,
trial,html.Screen,4_74_0,2023-09-08T18:48:01.745Z,,0,2,,2833.0750000476837,response,ISIC_4969996.JPG,5,ISIC_0011482.JPG,ISIC_4969996.JPG,false,1,keypress(m),500,256239.29999995232,256239.20000004768,253399.108,253402.70000004768,253406.125,256246.338,8,400,25,,ISIC_0011482.JPG
break,html.Screen,4_74_1,2023-09-08T18:48:01.745Z,,0,,,NaN,,,,,,false,,,,256239.70000004768,256239.60000002384,,256239.39999997616,,256246.338,8,400,,,
break_continue,html.Screen,4_74_2,2023-09-08T18:48:01.746Z,,0,,,NaN,,,,,,false,,,,256239.79999995232,256239.79999995232,,256239.70000004768,,256246.338,8,400,,,
sequence,flow.Sequence,4_74,2023-09-08T18:48:01.746Z,,0,,,2833.6749999523163,completion,,,,,false,,,,256239.89999997616,256239.79999995232,253399.108,253402.70000004768,253406.125,256246.338,8,400,,,
trial,html.Screen,4_75_0,2023-09-08T18:48:04.459Z,,0,2,,2706.362000047695,response,ISIC_6790780.JPG,5,ISIC_0029112.JPG,ISIC_0029112.JPG,false,0,keypress(z),500,258952.79999995232,258952.70000004768,256239.39,256239.89999997616,256246.338,258954.675,8,400,26,,ISIC_6790780.JPG
break,html.Screen,4_75_1,2023-09-08T18:48:04.459Z,,0,,,NaN,,,,,,false,,,,258953.10000002384,258953,,258952.89999997616,,258954.675,8,400,,,
break_continue,html.Screen,4_75_2,2023-09-08T18:48:04.459Z,,0,,,NaN,,,,,,false,,,,258953.29999995232,258953.20000004768,,258953.20000004768,,258954.675,8,400,,,
sequence,flow.Sequence,4_75,2023-09-08T18:48:04.459Z,,0,,,2706.862000047695,completion,,,,,false,,,,258953.39999997616,258953.20000004768,256239.39,256239.89999997616,256246.338,258954.675,8,400,,,
trial,html.Screen,4_76_0,2023-09-08T18:48:07.601Z,,0,2,,3140.9250000238535,response,ISIC_0010271.JPG,5,ISIC_0030281.JPG,ISIC_0030281.JPG,false,0,keypress(z),500,262095.70000004768,262095.60000002384,258947.692,258953.39999997616,258954.675,262100.445,8,400,27,,ISIC_0010271.JPG
break,html.Screen,4_76_1,2023-09-08T18:48:07.602Z,,0,,,NaN,,,,,,false,,,,262096.20000004768,262096,,262095.79999995232,,262100.445,8,400,,,
break_continue,html.Screen,4_76_2,2023-09-08T18:48:07.602Z,,0,,,NaN,,,,,,false,,,,262096.29999995232,262096.20000004768,,262096.20000004768,,262100.445,8,400,,,
sequence,flow.Sequence,4_76,2023-09-08T18:48:07.602Z,,0,,,3141.5250000476954,completion,,,,,false,,,,262096.29999995232,262096.20000004768,258947.692,258953.39999997616,258954.675,262100.445,8,400,,,
trial,html.Screen,4_77_0,2023-09-08T18:48:10.366Z,,0,2,,2759.155000023835,response,ISIC_0025592.JPG,5,ISIC_0029550.JPG,ISIC_0025592.JPG,false,1,keypress(m),500,264859.7999999523,264859.60000002384,262093.5,262096.29999995232,262100.445,264864.37,8,400,28,,ISIC_0029550.JPG
break,html.Screen,4_77_1,2023-09-08T18:48:10.366Z,,0,,,NaN,,,,,,false,,,,264860.2000000477,264860.10000002384,,264859.7999999523,,264864.37,8,400,,,
break_continue,html.Screen,4_77_2,2023-09-08T18:48:10.366Z,,0,,,NaN,,,,,,false,,,,264860.39999997616,264860.39999997616,,264860.2000000477,,264864.37,8,400,,,
sequence,flow.Sequence,4_77,2023-09-08T18:48:10.367Z,,0,,,2759.954999976151,completion,,,,,false,,,,264860.39999997616,264860.39999997616,262093.5,262096.29999995232,262100.445,264864.37,8,400,,,
trial,html.Screen,4_78_0,2023-09-08T18:48:13.122Z,,0,2,,2751.8300000476884,response,ISIC_9241599.JPG,4,ISIC_5122220.JPG,ISIC_5122220.JPG,false,0,keypress(z),500,267616.39999997616,267616.2000000477,264857.385,264860.39999997616,264864.37,267621.266,8,400,29,,ISIC_9241599.JPG
break,html.Screen,4_78_1,2023-09-08T18:48:13.123Z,,0,,,NaN,,,,,,false,,,,267616.7000000477,267616.60000002384,,267616.39999997616,,267621.266,8,400,,,
break_continue,html.Screen,4_78_2,2023-09-08T18:48:13.123Z,,0,,,NaN,,,,,,false,,,,267616.89999997616,267616.7999999523,,267616.7000000477,,267621.266,8,400,,,
sequence,flow.Sequence,4_78,2023-09-08T18:48:13.123Z,,0,,,2752.429999952321,completion,,,,,false,,,,267616.89999997616,267616.7999999523,264857.385,264860.39999997616,264864.37,267621.266,8,400,,,
trial,html.Screen,4_79_0,2023-09-08T18:48:15.861Z,,0,2,,2732.9340000476805,response,ISIC_8820668.JPG,5,ISIC_0014117.JPG,ISIC_0014117.JPG,false,0,keypress(z),500,270354.39999997616,270354.2000000477,267614.315,267617,267621.266,270357.364,8,400,30,,ISIC_8820668.JPG
break,html.Screen,4_79_1,2023-09-08T18:48:15.861Z,,0,,,NaN,,,,,,false,,,,270354.7000000477,270354.7000000477,,270354.5,,270357.364,8,400,,,
break_continue,html.Screen,4_79_2,2023-09-08T18:48:15.861Z,,0,,,NaN,,,,,,false,,,,270354.7999999523,270354.7999999523,,270354.7999999523,,270357.364,8,400,,,
sequence,flow.Sequence,4_79,2023-09-08T18:48:15.861Z,,0,,,2733.533999952313,completion,,,,,false,,,,270354.89999997616,270354.7999999523,267614.315,267616.89999997616,267621.266,270357.364,8,400,,,
trial,html.Screen,4_80_0,2023-09-08T18:48:18.484Z,,0,2,,2620.3360000476823,response,ISIC_0001137.JPG,5,ISIC_5108076.JPG,ISIC_5108076.JPG,false,0,keypress(z),500,272977.89999997616,272977.7000000477,270350.424,270354.89999997616,270357.364,272982.333,8,400,31,,ISIC_0001137.JPG
break,html.Screen,4_80_1,2023-09-08T18:48:18.484Z,,0,,,NaN,,,,,,false,,,,272978.2999999523,272978.2000000477,,272978,,272982.333,8,400,,,
break_continue,html.Screen,4_80_2,2023-09-08T18:48:18.485Z,,0,,,NaN,,,,,,false,,,,272978.5,272978.39999997616,,272978.39999997616,,272982.333,8,400,,,
sequence,flow.Sequence,4_80,2023-09-08T18:48:18.485Z,,0,,,2621.0359999761567,completion,,,,,false,,,,272978.5,272978.39999997616,270350.424,270354.89999997616,270357.364,272982.333,8,400,,,
trial,html.Screen,4_81_0,2023-09-08T18:48:21.018Z,,0,2,,2529.667000000016,response,ISIC_4099058.JPG,5,ISIC_0024298.JPG,ISIC_4099058.JPG,false,1,keypress(m),500,275512.2999999523,275512,272975.379,272978.60000002384,272982.333,275517.047,8,400,32,,ISIC_0024298.JPG
break,html.Screen,4_81_1,2023-09-08T18:48:21.019Z,,0,,,NaN,,,,,,false,,,,275512.60000002384,275512.5,,275512.2999999523,,275517.047,8,400,,,
break_continue,html.Screen,4_81_2,2023-09-08T18:48:21.019Z,,0,,,NaN,,,,,,false,,,,275512.7000000477,275512.7000000477,,275512.60000002384,,275517.047,8,400,,,
sequence,flow.Sequence,4_81,2023-09-08T18:48:21.019Z,,0,,,2530.3670000476995,completion,,,,,false,,,,275512.7999999523,275512.7000000477,272975.379,272978.60000002384,272982.333,275517.047,8,400,,,
trial,html.Screen,4_82_0,2023-09-08T18:48:23.899Z,,0,2,,2876.153000047663,response,ISIC_0000504.JPG,5,ISIC_0031249.JPG,ISIC_0031249.JPG,false,0,keypress(z),500,278393.39999997616,278393.2000000477,275510.09,275512.7999999523,275517.047,278398.968,8,400,33,,ISIC_0000504.JPG
break,html.Screen,4_82_1,2023-09-08T18:48:23.900Z,,0,,,NaN,,,,,,false,,,,278393.7000000477,278393.60000002384,,278393.39999997616,,278398.968,8,400,,,
break_continue,html.Screen,4_82_2,2023-09-08T18:48:23.900Z,,0,,,NaN,,,,,,false,,,,278393.89999997616,278393.7999999523,,278393.7000000477,,278398.968,8,400,,,
sequence,flow.Sequence,4_82,2023-09-08T18:48:23.900Z,,0,,,2876.752999952296,completion,,,,,false,,,,278394,278393.7999999523,275510.09,275512.7999999523,275517.047,278398.968,8,400,,,
trial,html.Screen,4_83_0,2023-09-08T18:48:26.467Z,,0,2,,2561.6320000238484,response,ISIC_0009916.JPG,5,ISIC_7761711.JPG,ISIC_7761711.JPG,false,0,keypress(z),500,280960.7000000477,280960.60000002384,278392.029,278394,278398.968,280961.462,8,400,34,,ISIC_0009916.JPG
break,html.Screen,4_83_1,2023-09-08T18:48:26.467Z,,0,,,NaN,,,,,,false,,,,280961.10000002384,280961,,280960.7999999523,,280961.462,8,400,,,
break_continue,html.Screen,4_83_2,2023-09-08T18:48:26.467Z,,0,,,NaN,,,,,,false,,,,280961.2000000477,280961.2000000477,,280961.10000002384,,280961.462,8,400,,,
sequence,flow.Sequence,4_83,2023-09-08T18:48:26.467Z,,0,,,2562.2320000476902,completion,,,,,false,,,,280961.2999999523,280961.2000000477,278392.029,278394,278398.968,280961.462,8,400,,,
trial,html.Screen,4_84_0,2023-09-08T18:48:28.961Z,,0,2,,2492.9379999761586,response,ISIC_0034140.JPG,5,ISIC_3098750.JPG,ISIC_3098750.JPG,false,0,keypress(z),500,283454.60000002384,283454.39999997616,280954.484,280961.2999999523,280961.462,283461.435,8,400,35,,ISIC_0034140.JPG
break,html.Screen,4_84_1,2023-09-08T18:48:28.961Z,,0,,,NaN,,,,,,false,,,,283455,283455,,283454.60000002384,,283461.435,8,400,,,
break_continue,html.Screen,4_84_2,2023-09-08T18:48:28.961Z,,0,,,NaN,,,,,,false,,,,283455.2000000477,283455.10000002384,,283455.10000002384,,283461.435,8,400,,,
sequence,flow.Sequence,4_84,2023-09-08T18:48:28.961Z,,0,,,2493.6380000238423,completion,,,,,false,,,,283455.2000000477,283455.10000002384,280954.484,280961.2999999523,280961.462,283461.435,8,400,,,
trial,html.Screen,4_85_0,2023-09-08T18:48:32.162Z,,0,2,,3193.8649999523186,response,ISIC_7600621.JPG,4,ISIC_0014846.JPG,ISIC_7600621.JPG,false,1,keypress(m),500,286655.5,286655.2999999523,283454.471,283455.2000000477,283461.435,286662.828,8,400,36,,ISIC_0014846.JPG
break,html.Screen,4_85_1,2023-09-08T18:48:32.162Z,,0,,,NaN,,,,,,false,,,,286655.89999997616,286655.7999999523,,286655.60000002384,,286662.828,8,400,,,
break_continue,html.Screen,4_85_2,2023-09-08T18:48:32.162Z,,0,,,NaN,,,,,,false,,,,286656.10000002384,286656,,286656,,286662.828,8,400,,,
sequence,flow.Sequence,4_85,2023-09-08T18:48:32.162Z,,0,,,3194.5650000000023,completion,,,,,false,,,,286656.2000000477,286656,283454.471,283455.2000000477,283461.435,286662.828,8,400,,,
trial,html.Screen,4_86_0,2023-09-08T18:48:35.246Z,,0,2,,3077.372000047704,response,ISIC_0062649.JPG,4,ISIC_6829008.JPG,ISIC_6829008.JPG,false,0,keypress(z),500,289740.39999997616,289740.2000000477,286655.841,286656.2000000477,286662.828,289746.123,8,400,37,,ISIC_0062649.JPG
break,html.Screen,4_86_1,2023-09-08T18:48:35.247Z,,0,,,NaN,,,,,,false,,,,289740.7000000477,289740.60000002384,,289740.39999997616,,289746.123,8,400,,,
break_continue,html.Screen,4_86_2,2023-09-08T18:48:35.247Z,,0,,,NaN,,,,,,false,,,,289740.89999997616,289740.89999997616,,289740.7000000477,,289746.123,8,400,,,
sequence,flow.Sequence,4_86,2023-09-08T18:48:35.247Z,,0,,,3078.0719999761786,completion,,,,,false,,,,289741,289740.89999997616,286655.841,286656.2000000477,286662.828,289746.123,8,400,,,
trial,html.Screen,4_87_0,2023-09-08T18:48:38.176Z,,0,2,,2923.7769999761367,response,ISIC_9271800.JPG,5,ISIC_3716504.JPG,ISIC_3716504.JPG,false,0,keypress(z),500,292670.10000002384,292669.89999997616,289739.184,289741,289746.123,292676.65,8,400,38,,ISIC_9271800.JPG
break,html.Screen,4_87_1,2023-09-08T18:48:38.177Z,,0,,,NaN,,,,,,false,,,,292670.5,292670.2999999523,,292670.10000002384,,292676.65,8,400,,,
break_continue,html.Screen,4_87_2,2023-09-08T18:48:38.177Z,,0,,,NaN,,,,,,false,,,,292670.60000002384,292670.5,,292670.5,,292676.65,8,400,,,
sequence,flow.Sequence,4_87,2023-09-08T18:48:38.177Z,,0,,,2924.3769999999786,completion,,,,,false,,,,292670.60000002384,292670.5,289739.184,289741,289746.123,292676.65,8,400,,,
trial,html.Screen,4_88_0,2023-09-08T18:48:40.878Z,,0,2,,2695.249999976135,response,ISIC_5881453.JPG,4,ISIC_8626941.JPG,ISIC_5881453.JPG,false,1,keypress(m),500,295372.10000002384,295371.89999997616,292669.81,292670.7000000477,292676.65,295378.027,8,400,39,,ISIC_8626941.JPG
break,html.Screen,4_88_1,2023-09-08T18:48:40.879Z,,0,,,NaN,,,,,,false,,,,295372.60000002384,295372.5,,295372.2000000477,,295378.027,8,400,,,
break_continue,html.Screen,4_88_2,2023-09-08T18:48:40.879Z,,0,,,NaN,,,,,,false,,,,295372.7000000477,295372.7000000477,,295372.60000002384,,295378.027,8,400,,,
sequence,flow.Sequence,4_88,2023-09-08T18:48:40.879Z,,0,,,2696.0500000476604,completion,,,,,false,,,,295372.7000000477,295372.7000000477,292669.81,292670.7000000477,292676.65,295378.027,8,400,,,
trial,html.Screen,4_89_0,2023-09-08T18:48:43.559Z,,0,2,,2674.8729999761563,response,ISIC_0032052.JPG,5,ISIC_0009931.JPG,ISIC_0009931.JPG,false,0,keypress(z),500,298053,298052.89999997616,295371.052,295372.7999999523,295378.027,298058.552,8,400,40,,ISIC_0032052.JPG
break,html.Screen,4_89_1,2023-09-08T18:48:43.560Z,,0,,,NaN,,,,,,false,,,,298053.39999997616,298053.2999999523,,298053.10000002384,,298058.552,8,400,,,
break_continue,html.Screen,4_89_2,2023-09-08T18:48:43.560Z,,0,,,NaN,,,,,,false,,,,298053.60000002384,298053.60000002384,,298053.60000002384,,298058.552,8,400,,,
sequence,flow.Sequence,4_89,2023-09-08T18:48:43.560Z,,0,,,2675.57300002384,completion,,,,,false,,,,298053.7000000477,298053.60000002384,295371.052,295372.7000000477,295378.027,298058.552,8,400,,,
trial,html.Screen,4_90_0,2023-09-08T18:48:46.496Z,,0,2,,2931.6480000476586,response,ISIC_0000294.JPG,5,ISIC_6906476.JPG,ISIC_0000294.JPG,false,1,keypress(m),500,300990.2999999523,300990.2000000477,298051.586,298053.7000000477,298058.552,300996.064,8,400,41,,ISIC_6906476.JPG
break,html.Screen,4_90_1,2023-09-08T18:48:46.497Z,,0,,,NaN,,,,,,false,,,,300990.7000000477,300990.60000002384,,300990.39999997616,,300996.064,8,400,,,
break_continue,html.Screen,4_90_2,2023-09-08T18:48:46.497Z,,0,,,NaN,,,,,,false,,,,300990.7000000477,300990.7000000477,,300990.7000000477,,300996.064,8,400,,,
sequence,flow.Sequence,4_90,2023-09-08T18:48:46.497Z,,0,,,2932.1480000476586,completion,,,,,false,,,,300990.7999999523,300990.7000000477,298051.586,298053.7000000477,298058.552,300996.064,8,400,,,
trial,html.Screen,4_91_0,2023-09-08T18:48:49.134Z,,0,2,,2632.1360000476707,response,ISIC_6937199.JPG,5,ISIC_9041897.JPG,ISIC_6937199.JPG,false,1,keypress(m),500,303628.2999999523,303628.2000000477,300989.433,300990.7999999523,300996.064,303634.899,8,400,42,,ISIC_9041897.JPG
break,html.Screen,4_91_1,2023-09-08T18:48:49.135Z,,0,,,NaN,,,,,,false,,,,303628.7000000477,303628.7000000477,,303628.39999997616,,303634.899,8,400,,,
break_continue,html.Screen,4_91_2,2023-09-08T18:48:49.135Z,,0,,,NaN,,,,,,false,,,,303628.89999997616,303628.7999999523,,303628.7000000477,,303634.899,8,400,,,
sequence,flow.Sequence,4_91,2023-09-08T18:48:49.135Z,,0,,,2632.7359999523032,completion,,,,,false,,,,303628.89999997616,303628.7999999523,300989.433,300990.7999999523,300996.064,303634.899,8,400,,,
trial,html.Screen,4_92_0,2023-09-08T18:48:51.751Z,,0,2,,2609.701000023866,response,ISIC_0026795.JPG,5,ISIC_5867911.JPG,ISIC_0026795.JPG,false,1,keypress(m),500,306244.7000000477,306244.60000002384,303627.949,303628.89999997616,303634.899,306246.011,8,400,43,,ISIC_5867911.JPG
break,html.Screen,4_92_1,2023-09-08T18:48:51.751Z,,0,,,NaN,,,,,,false,,,,306245,306245,,306244.7999999523,,306246.011,8,400,,,
break_continue,html.Screen,4_92_2,2023-09-08T18:48:51.751Z,,0,,,NaN,,,,,,false,,,,306245.2000000477,306245.2000000477,,306245.10000002384,,306246.011,8,400,,,
sequence,flow.Sequence,4_92,2023-09-08T18:48:51.751Z,,0,,,2610.301000047708,completion,,,,,false,,,,306245.2999999523,306245.2000000477,303627.949,303628.89999997616,303634.899,306246.011,8,400,,,
trial,html.Screen,4_93_0,2023-09-08T18:48:54.610Z,,0,2,,2857.189000047685,response,ISIC_7912104.JPG,5,ISIC_9765024.JPG,ISIC_7912104.JPG,false,1,keypress(m),500,309103.5,309103.2000000477,306239.026,306245.2999999523,306246.011,309107.103,8,400,44,,ISIC_9765024.JPG
break,html.Screen,4_93_1,2023-09-08T18:48:54.610Z,,0,,,NaN,,,,,,false,,,,309103.89999997616,309103.7999999523,,309103.5,,309107.103,8,400,,,
break_continue,html.Screen,4_93_2,2023-09-08T18:48:54.610Z,,0,,,NaN,,,,,,false,,,,309104,309103.89999997616,,309103.89999997616,,309107.103,8,400,,,
sequence,flow.Sequence,4_93,2023-09-08T18:48:54.610Z,,0,,,2857.8889999761595,completion,,,,,false,,,,309104.10000002384,309103.89999997616,306239.026,306245.2999999523,306246.011,309107.103,8,400,,,
trial,html.Screen,4_94_0,2023-09-08T18:48:57.054Z,,0,2,,2440.997000023839,response,ISIC_8468512.JPG,4,ISIC_5065245.JPG,ISIC_5065245.JPG,false,0,keypress(z),500,311548.2999999523,311548.10000002384,309100.135,309104.10000002384,309107.103,311551.516,8,400,45,,ISIC_8468512.JPG
break,html.Screen,4_94_1,2023-09-08T18:48:57.055Z,,0,,,NaN,,,,,,false,,,,311548.7999999523,311548.7000000477,,311548.39999997616,,311551.516,8,400,,,
break_continue,html.Screen,4_94_2,2023-09-08T18:48:57.055Z,,0,,,NaN,,,,,,false,,,,311548.89999997616,311548.7999999523,,311548.7999999523,,311551.516,8,400,,,
sequence,flow.Sequence,4_94,2023-09-08T18:48:57.055Z,,0,,,2441.6969999523135,completion,,,,,false,,,,311548.89999997616,311548.7999999523,309100.135,309104.10000002384,309107.103,311551.516,8,400,,,
trial,html.Screen,4_95_0,2023-09-08T18:48:59.737Z,,0,2,,2679.4839999999967,response,ISIC_0025219.JPG,5,ISIC_0054767.JPG,ISIC_0054767.JPG,false,0,keypress(z),500,314231.10000002384,314231,311544.575,311549.10000002384,311551.516,314232.058,8,400,46,,ISIC_0025219.JPG
break,html.Screen,4_95_1,2023-09-08T18:48:59.738Z,,0,,,NaN,,,,,,false,,,,314231.5,314231.39999997616,,314231.2000000477,,314232.058,8,400,,,
break_continue,html.Screen,4_95_2,2023-09-08T18:48:59.738Z,,0,,,NaN,,,,,,false,,,,314231.7000000477,314231.60000002384,,314231.5,,314232.058,8,400,,,
sequence,flow.Sequence,4_95,2023-09-08T18:48:59.738Z,,0,,,2680.0840000238386,completion,,,,,false,,,,314231.7000000477,314231.60000002384,311544.575,311549,311551.516,314232.058,8,400,,,
trial,html.Screen,4_96_0,2023-09-08T18:49:02.341Z,,0,2,,2602.441999999981,response,ISIC_6002694.JPG,5,ISIC_0067830.JPG,ISIC_6002694.JPG,false,1,keypress(m),500,316834.60000002384,316834.5,314225.101,314231.7000000477,314232.058,316836.218,8,400,47,,ISIC_0067830.JPG
break,html.Screen,4_96_1,2023-09-08T18:49:02.341Z,,0,,,NaN,,,,,,false,,,,316835,316834.89999997616,,316834.7000000477,,316836.218,8,400,,,
break_continue,html.Screen,4_96_2,2023-09-08T18:49:02.341Z,,0,,,NaN,,,,,,false,,,,316835.10000002384,316835,,316835,,316836.218,8,400,,,
sequence,flow.Sequence,4_96,2023-09-08T18:49:02.341Z,,0,,,2602.941999999981,completion,,,,,false,,,,316835.10000002384,316835,314225.101,314231.7000000477,314232.058,316836.218,8,400,,,
trial,html.Screen,4_97_0,2023-09-08T18:49:04.908Z,,0,2,,2565.1819999761647,response,ISIC_0055742.JPG,4,ISIC_0060817.JPG,ISIC_0055742.JPG,false,1,keypress(m),500,319401.5,319401.39999997616,316829.248,316835.2000000477,316836.218,319405.638,8,400,48,,ISIC_0060817.JPG
break,html.Screen,4_97_1,2023-09-08T18:49:04.908Z,,0,,,NaN,,,,,,false,,,,319401.89999997616,319401.7999999523,,319401.60000002384,,319405.638,8,400,,,
break_continue,html.Screen,4_97_2,2023-09-08T18:49:04.908Z,,0,,,NaN,,,,,,false,,,,319402.10000002384,319402.10000002384,,319402,,319405.638,8,400,,,
sequence,flow.Sequence,4_97,2023-09-08T18:49:04.908Z,,0,,,2565.8820000238484,completion,,,,,false,,,,319402.10000002384,319402.10000002384,316829.248,316835.2000000477,316836.218,319405.638,8,400,,,
trial,html.Screen,4_98_0,2023-09-08T18:49:08.381Z,,0,2,,3468.9620000238647,response,ISIC_0001505.JPG,4,ISIC_0058649.JPG,ISIC_0001505.JPG,false,1,keypress(m),500,322874.7999999523,322874.60000002384,319398.678,319402.2000000477,319405.638,322877.842,8,400,49,,ISIC_0058649.JPG
break,html.Screen,4_98_1,2023-09-08T18:49:08.381Z,,0,,,NaN,,,,,,false,,,,322875.2000000477,322875.10000002384,,322874.89999997616,,322877.842,8,400,,,
break_continue,html.Screen,4_98_2,2023-09-08T18:49:08.381Z,,0,,,NaN,,,,,,false,,,,322875.39999997616,322875.2999999523,,322875.2999999523,,322877.842,8,400,,,
sequence,flow.Sequence,4_98,2023-09-08T18:49:08.382Z,,0,,,3469.661999952339,completion,,,,,false,,,,322875.5,322875.2999999523,319398.678,319402.2000000477,319405.638,322877.842,8,400,,,
trial,html.Screen,4_99_0,2023-09-08T18:49:10.899Z,,0,2,,2514.657999999996,response,ISIC_0032484.JPG,5,ISIC_1858237.JPG,ISIC_1858237.JPG,false,0,keypress(z),500,325392.60000002384,325392.5,322870.9,322875.5,322877.842,325398.659,8,400,50,,ISIC_0032484.JPG
break,html.Screen,4_99_1,2023-09-08T18:49:20.898Z,,0,,,9999.937000000034,timeout,,,,,false,,,,335392.10000002384,335391.639,325391.682,325392.7000000477,325398.659,335398.596,8,400,,,
break_continue,html.Screen,4_99_2,2023-09-08T18:49:21.641Z,,0,,,728.6040000476642,response,,,,,false,continue,keypress(Space),,336134.39999997616,336127.2000000477,335391.639,335392.10000002384,335398.596,336141.641,8,400,,,
sequence,flow.Sequence,4_99,2023-09-08T18:49:21.641Z,,0,,,13249.35800004768,completion,,,,,false,,,,336134.60000002384,336127.2000000477,322870.9,322875.5,322877.842,336141.641,8,400,,,
trial,html.Screen,4_100_0,2023-09-08T18:49:24.339Z,,0,3,,2690.8589999999967,response,ISIC_0000572.JPG,5,ISIC_3251773.JPG,ISIC_0000572.JPG,false,1,keypress(m),500,338832.60000002384,338832.5,336134.664,336134.60000002384,336141.641,338836.063,8,400,1,,ISIC_3251773.JPG
break,html.Screen,4_100_1,2023-09-08T18:49:24.339Z,,0,,,NaN,,,,,,false,,,,338832.89999997616,338832.89999997616,,338832.7000000477,,338836.063,8,400,,,
break_continue,html.Screen,4_100_2,2023-09-08T18:49:24.339Z,,0,,,NaN,,,,,,false,,,,338833.10000002384,338833,,338832.89999997616,,338836.063,8,400,,,
sequence,flow.Sequence,4_100,2023-09-08T18:49:24.339Z,,0,,,2691.3589999999967,completion,,,,,false,,,,338833.10000002384,338833,336134.664,336134.60000002384,336141.641,338836.063,8,400,,,
trial,html.Screen,4_101_0,2023-09-08T18:49:26.768Z,,0,3,,2425.2369999522925,response,ISIC_1078854.JPG,5,ISIC_8579575.JPG,ISIC_1078854.JPG,false,1,keypress(m),500,341261.39999997616,341261.2999999523,338829.125,338833.2000000477,338836.063,341266.601,8,400,2,,ISIC_8579575.JPG
break,html.Screen,4_101_1,2023-09-08T18:49:26.768Z,,0,,,NaN,,,,,,false,,,,341261.89999997616,341261.7999999523,,341261.60000002384,,341266.601,8,400,,,
break_continue,html.Screen,4_101_2,2023-09-08T18:49:26.768Z,,0,,,NaN,,,,,,false,,,,341262,341261.89999997616,,341261.89999997616,,341266.601,8,400,,,
sequence,flow.Sequence,4_101,2023-09-08T18:49:26.768Z,,0,,,2425.8369999761344,completion,,,,,false,,,,341262.10000002384,341261.89999997616,338829.125,338833.2000000477,338836.063,341266.601,8,400,,,
trial,html.Screen,4_102_0,2023-09-08T18:49:29.290Z,,0,3,,2517.0990000476595,response,ISIC_5614446.JPG,5,ISIC_6339509.JPG,ISIC_5614446.JPG,false,1,keypress(m),500,343783.7000000477,343783.7000000477,341259.632,341262.10000002384,341266.601,343787.425,8,400,3,,ISIC_6339509.JPG
break,html.Screen,4_102_1,2023-09-08T18:49:29.290Z,,0,,,NaN,,,,,,false,,,,343784.2000000477,343784.10000002384,,343783.7999999523,,343787.425,8,400,,,
break_continue,html.Screen,4_102_2,2023-09-08T18:49:29.290Z,,0,,,NaN,,,,,,false,,,,343784.2999999523,343784.2999999523,,343784.2000000477,,343787.425,8,400,,,
sequence,flow.Sequence,4_102,2023-09-08T18:49:29.291Z,,0,,,2517.698999952292,completion,,,,,false,,,,343784.39999997616,343784.2999999523,341259.632,341262.10000002384,341266.601,343787.425,8,400,,,
trial,html.Screen,4_103_0,2023-09-08T18:49:31.922Z,,0,3,,2628.6750000238535,response,ISIC_0024344.JPG,5,ISIC_0011483.JPG,ISIC_0011483.JPG,false,0,keypress(z),500,346416.2000000477,346416.10000002384,343780.457,343784.39999997616,343787.425,346419.36,8,400,4,,ISIC_0024344.JPG
break,html.Screen,4_103_1,2023-09-08T18:49:31.923Z,,0,,,NaN,,,,,,false,,,,346416.5,346416.39999997616,,346416.2000000477,,346419.36,8,400,,,
break_continue,html.Screen,4_103_2,2023-09-08T18:49:31.923Z,,0,,,NaN,,,,,,false,,,,346416.60000002384,346416.60000002384,,346416.5,,346419.36,8,400,,,
sequence,flow.Sequence,4_103,2023-09-08T18:49:31.923Z,,0,,,2629.1750000238535,completion,,,,,false,,,,346416.7000000477,346416.60000002384,343780.457,343784.39999997616,343787.425,346419.36,8,400,,,
trial,html.Screen,4_104_0,2023-09-08T18:49:34.394Z,,0,3,,2468.039999976172,response,ISIC_0979974.JPG,5,ISIC_4049598.JPG,ISIC_0979974.JPG,false,1,keypress(m),500,348887.5,348887.39999997616,346412.375,346416.7999999523,346419.36,348891.542,8,400,5,,ISIC_4049598.JPG
break,html.Screen,4_104_1,2023-09-08T18:49:34.394Z,,0,,,NaN,,,,,,false,,,,348887.89999997616,348887.7000000477,,348887.5,,348891.542,8,400,,,
break_continue,html.Screen,4_104_2,2023-09-08T18:49:34.394Z,,0,,,NaN,,,,,,false,,,,348888,348888,,348887.89999997616,,348891.542,8,400,,,
sequence,flow.Sequence,4_104,2023-09-08T18:49:34.394Z,,0,,,2468.640000000014,completion,,,,,false,,,,348888.10000002384,348888,346412.375,346416.7999999523,346419.36,348891.542,8,400,,,
trial,html.Screen,4_105_0,2023-09-08T18:49:37.046Z,,0,3,,2647.7579999523005,response,ISIC_9436034.JPG,4,ISIC_2724278.JPG,ISIC_2724278.JPG,false,0,keypress(z),500,351539.5,351539.2999999523,348884.613,348888.10000002384,348891.542,351544.319,8,400,6,,ISIC_9436034.JPG
break,html.Screen,4_105_1,2023-09-08T18:49:37.046Z,,0,,,NaN,,,,,,false,,,,351539.89999997616,351539.7000000477,,351539.60000002384,,351544.319,8,400,,,
break_continue,html.Screen,4_105_2,2023-09-08T18:49:37.046Z,,0,,,NaN,,,,,,false,,,,351540,351540,,351539.89999997616,,351544.319,8,400,,,
sequence,flow.Sequence,4_105,2023-09-08T18:49:37.046Z,,0,,,2648.457999999984,completion,,,,,false,,,,351540,351540,348884.613,348888.10000002384,348891.542,351544.319,8,400,,,
trial,html.Screen,4_106_0,2023-09-08T18:49:39.658Z,,0,3,,2606.9809999522986,response,ISIC_0032751.JPG,5,ISIC_0004691.JPG,ISIC_0004691.JPG,false,0,keypress(z),500,354151.39999997616,354151.2999999523,351537.393,351540.10000002384,351544.319,354155.425,8,400,7,,ISIC_0032751.JPG
break,html.Screen,4_106_1,2023-09-08T18:49:39.658Z,,0,,,NaN,,,,,,false,,,,354151.7000000477,354151.7000000477,,354151.5,,354155.425,8,400,,,
break_continue,html.Screen,4_106_2,2023-09-08T18:49:39.658Z,,0,,,NaN,,,,,,false,,,,354151.89999997616,354151.89999997616,,354151.7999999523,,354155.425,8,400,,,
sequence,flow.Sequence,4_106,2023-09-08T18:49:39.658Z,,0,,,2607.5809999761404,completion,,,,,false,,,,354151.89999997616,354151.89999997616,351537.393,351540.10000002384,351544.319,354155.425,8,400,,,
trial,html.Screen,4_107_0,2023-09-08T18:49:42.126Z,,0,3,,2464.0750000000116,response,ISIC_3610783.JPG,5,ISIC_0024307.JPG,ISIC_0024307.JPG,false,0,keypress(z),500,356619.7000000477,356619.5,354148.465,354151.89999997616,354155.425,356620.675,8,400,8,,ISIC_3610783.JPG
break,html.Screen,4_107_1,2023-09-08T18:49:42.126Z,,0,,,NaN,,,,,,false,,,,356620,356619.89999997616,,356619.7999999523,,356620.675,8,400,,,
break_continue,html.Screen,4_107_2,2023-09-08T18:49:42.126Z,,0,,,NaN,,,,,,false,,,,356620.2000000477,356620.10000002384,,356620,,356620.675,8,400,,,
sequence,flow.Sequence,4_107,2023-09-08T18:49:42.126Z,,0,,,2464.6750000238535,completion,,,,,false,,,,356620.2000000477,356620.10000002384,354148.465,354151.89999997616,354155.425,356620.675,8,400,,,
trial,html.Screen,4_108_0,2023-09-08T18:49:44.754Z,,0,3,,2626.8250000000116,response,ISIC_8650516.JPG,4,ISIC_5164416.JPG,ISIC_8650516.JPG,false,1,keypress(m),500,359247.60000002384,359247.5,356613.716,356620.2000000477,356620.675,359252.615,8,400,9,,ISIC_5164416.JPG
break,html.Screen,4_108_1,2023-09-08T18:49:44.754Z,,0,,,NaN,,,,,,false,,,,359248,359248,,359247.7000000477,,359252.615,8,400,,,
break_continue,html.Screen,4_108_2,2023-09-08T18:49:44.754Z,,0,,,NaN,,,,,,false,,,,359248.10000002384,359248.10000002384,,359248,,359252.615,8,400,,,
sequence,flow.Sequence,4_108,2023-09-08T18:49:44.754Z,,0,,,2627.4250000238535,completion,,,,,false,,,,359248.2000000477,359248.10000002384,356613.716,356620.2000000477,356620.675,359252.615,8,400,,,
trial,html.Screen,4_109_0,2023-09-08T18:49:47.244Z,,0,3,,2485.085000047693,response,ISIC_0011428.JPG,5,ISIC_0072290.JPG,ISIC_0072290.JPG,false,0,keypress(z),500,361737.89999997616,361737.7000000477,359245.637,359248.2999999523,359252.615,361738.694,8,400,10,,ISIC_0011428.JPG
break,html.Screen,4_109_1,2023-09-08T18:49:47.244Z,,0,,,NaN,,,,,,false,,,,361738.2999999523,361738.2000000477,,361738,,361738.694,8,400,,,
break_continue,html.Screen,4_109_2,2023-09-08T18:49:47.245Z,,0,,,NaN,,,,,,false,,,,361738.5,361738.39999997616,,361738.39999997616,,361738.694,8,400,,,
sequence,flow.Sequence,4_109,2023-09-08T18:49:47.245Z,,0,,,2485.7849999761675,completion,,,,,false,,,,361738.5,361738.39999997616,359245.637,359248.2999999523,359252.615,361738.694,8,400,,,
trial,html.Screen,4_110_0,2023-09-08T18:49:50.124Z,,0,3,,2878.8059999999823,response,ISIC_0027248.JPG,5,ISIC_0024284.JPG,ISIC_0027248.JPG,false,1,keypress(m),500,364617.5,364617.5,361731.722,361738.60000002384,361738.694,364620.633,8,400,11,,ISIC_0024284.JPG
break,html.Screen,4_110_1,2023-09-08T18:49:50.124Z,,0,,,NaN,,,,,,false,,,,364618,364617.89999997616,,364617.7000000477,,364620.633,8,400,,,
break_continue,html.Screen,4_110_2,2023-09-08T18:49:50.124Z,,0,,,NaN,,,,,,false,,,,364618.10000002384,364618.10000002384,,364618,,364620.633,8,400,,,
sequence,flow.Sequence,4_110,2023-09-08T18:49:50.124Z,,0,,,2879.406000023824,completion,,,,,false,,,,364618.2000000477,364618.10000002384,361731.722,361738.5,361738.694,364620.633,8,400,,,
trial,html.Screen,4_111_0,2023-09-08T18:49:52.895Z,,0,3,,2767.7669999761856,response,ISIC_1838888.JPG,4,ISIC_5785408.JPG,ISIC_1838888.JPG,false,1,keypress(m),500,367388.60000002384,367388.39999997616,364613.655,364618.2000000477,364620.633,367391.46,8,400,12,,ISIC_5785408.JPG
break,html.Screen,4_111_1,2023-09-08T18:49:52.895Z,,0,,,NaN,,,,,,false,,,,367389,367388.89999997616,,367388.60000002384,,367391.46,8,400,,,
break_continue,html.Screen,4_111_2,2023-09-08T18:49:52.895Z,,0,,,NaN,,,,,,false,,,,367389.10000002384,367389,,367389,,367391.46,8,400,,,
sequence,flow.Sequence,4_111,2023-09-08T18:49:52.895Z,,0,,,2768.3670000000275,completion,,,,,false,,,,367389.2000000477,367389,364613.655,364618.2000000477,364620.633,367391.46,8,400,,,
trial,html.Screen,4_112_0,2023-09-08T18:49:55.376Z,,0,3,,2477.7400000476628,response,ISIC_0060773.JPG,4,ISIC_6523645.JPG,ISIC_6523645.JPG,false,0,keypress(z),500,369869.39999997616,369869.2000000477,367384.455,367389.2000000477,367391.46,369870.6,8,400,13,,ISIC_0060773.JPG
break,html.Screen,4_112_1,2023-09-08T18:49:55.376Z,,0,,,NaN,,,,,,false,,,,369869.89999997616,369869.7000000477,,369869.60000002384,,369870.6,8,400,,,
break_continue,html.Screen,4_112_2,2023-09-08T18:49:55.376Z,,0,,,NaN,,,,,,false,,,,369869.89999997616,369869.89999997616,,369869.89999997616,,369870.6,8,400,,,
sequence,flow.Sequence,4_112,2023-09-08T18:49:55.376Z,,0,,,2478.439999976137,completion,,,,,false,,,,369870,369869.89999997616,367384.455,367389.2000000477,367391.46,369870.6,8,400,,,
trial,html.Screen,4_113_0,2023-09-08T18:49:57.839Z,,0,3,,2462.4000000000233,response,ISIC_1426331.JPG,5,ISIC_0031499.JPG,ISIC_1426331.JPG,false,1,keypress(m),500,372333.2000000477,372333,369863.627,369870.10000002384,369870.6,372335.837,8,400,14,,ISIC_0031499.JPG
break,html.Screen,4_113_1,2023-09-08T18:49:57.840Z,,0,,,NaN,,,,,,false,,,,372333.5,372333.39999997616,,372333.2000000477,,372335.837,8,400,,,
break_continue,html.Screen,4_113_2,2023-09-08T18:49:57.840Z,,0,,,NaN,,,,,,false,,,,372333.60000002384,372333.60000002384,,372333.5,,372335.837,8,400,,,
sequence,flow.Sequence,4_113,2023-09-08T18:49:57.840Z,,0,,,2463.000000023865,completion,,,,,false,,,,372333.7000000477,372333.60000002384,369863.627,369870.10000002384,369870.6,372335.837,8,400,,,
trial,html.Screen,4_114_0,2023-09-08T18:50:00.172Z,,0,3,,2329.863000047684,response,ISIC_0062026.JPG,5,ISIC_0011531.JPG,ISIC_0011531.JPG,false,0,keypress(z),500,374665.7999999523,374665.7000000477,372328.874,372333.7999999523,372335.837,374669.161,8,400,15,,ISIC_0062026.JPG
break,html.Screen,4_114_1,2023-09-08T18:50:00.172Z,,0,,,NaN,,,,,,false,,,,374666.2000000477,374666,,374665.7999999523,,374669.161,8,400,,,
break_continue,html.Screen,4_114_2,2023-09-08T18:50:00.172Z,,0,,,NaN,,,,,,false,,,,374666.2999999523,374666.2000000477,,374666.2000000477,,374669.161,8,400,,,
sequence,flow.Sequence,4_114,2023-09-08T18:50:00.172Z,,0,,,2330.363000047684,completion,,,,,false,,,,374666.2999999523,374666.2000000477,372328.874,372333.7999999523,372335.837,374669.161,8,400,,,
trial,html.Screen,4_115_0,2023-09-08T18:50:02.497Z,,0,3,,2321.6389999522944,response,ISIC_9864402.JPG,4,ISIC_0030006.JPG,ISIC_9864402.JPG,false,1,keypress(m),500,376991,376990.7999999523,374662.236,374666.39999997616,374669.161,376995.539,8,400,16,,ISIC_0030006.JPG
break,html.Screen,4_115_1,2023-09-08T18:50:02.497Z,,0,,,NaN,,,,,,false,,,,376991.2999999523,376991.2000000477,,376991,,376995.539,8,400,,,
break_continue,html.Screen,4_115_2,2023-09-08T18:50:02.498Z,,0,,,NaN,,,,,,false,,,,376991.39999997616,376991.39999997616,,376991.2999999523,,376995.539,8,400,,,
sequence,flow.Sequence,4_115,2023-09-08T18:50:02.498Z,,0,,,2322.2389999761363,completion,,,,,false,,,,376991.5,376991.39999997616,374662.236,374666.39999997616,374669.161,376995.539,8,400,,,
trial,html.Screen,4_116_0,2023-09-08T18:50:04.941Z,,0,3,,2439.561000023852,response,ISIC_0010933.JPG,4,ISIC_0033831.JPG,ISIC_0010933.JPG,false,1,keypress(m),500,379435.2000000477,379435.10000002384,376988.567,376991.5,376995.539,379439.977,8,400,17,,ISIC_0033831.JPG
break,html.Screen,4_116_1,2023-09-08T18:50:04.942Z,,0,,,NaN,,,,,,false,,,,379435.5,379435.5,,379435.2999999523,,379439.977,8,400,,,
break_continue,html.Screen,4_116_2,2023-09-08T18:50:04.942Z,,0,,,NaN,,,,,,false,,,,379435.7000000477,379435.60000002384,,379435.60000002384,,379439.977,8,400,,,
sequence,flow.Sequence,4_116,2023-09-08T18:50:04.942Z,,0,,,2440.061000023852,completion,,,,,false,,,,379435.7000000477,379435.60000002384,376988.567,376991.5,376995.539,379439.977,8,400,,,
trial,html.Screen,4_117_0,2023-09-08T18:50:07.425Z,,0,3,,2478.4229999761446,response,ISIC_8373462.JPG,5,ISIC_0065477.JPG,ISIC_8373462.JPG,false,1,keypress(m),500,381918.5,381918.39999997616,379432.989,379435.7000000477,379439.977,381919.116,8,400,18,,ISIC_0065477.JPG
break,html.Screen,4_117_1,2023-09-08T18:50:07.425Z,,0,,,NaN,,,,,,false,,,,381918.89999997616,381918.89999997616,,381918.60000002384,,381919.116,8,400,,,
break_continue,html.Screen,4_117_2,2023-09-08T18:50:07.425Z,,0,,,NaN,,,,,,false,,,,381919,381919,,381919,,381919.116,8,400,,,
sequence,flow.Sequence,4_117,2023-09-08T18:50:07.425Z,,0,,,2479.0229999999865,completion,,,,,false,,,,381919.2000000477,381919,379432.989,379435.7000000477,379439.977,381919.116,8,400,,,
trial,html.Screen,4_118_0,2023-09-08T18:50:10.108Z,,0,3,,2683.283999976178,response,ISIC_7564545.JPG,4,ISIC_9630931.JPG,ISIC_7564545.JPG,false,1,keypress(m),500,384602.39999997616,384602.39999997616,381912.143,381919.2000000477,381919.116,384613.567,8,400,19,,ISIC_9630931.JPG
break,html.Screen,4_118_1,2023-09-08T18:50:10.109Z,,0,,,NaN,,,,,,false,,,,384602.89999997616,384602.7999999523,,384602.60000002384,,384613.567,8,400,,,
break_continue,html.Screen,4_118_2,2023-09-08T18:50:10.109Z,,0,,,NaN,,,,,,false,,,,384603.10000002384,384603,,384602.89999997616,,384613.567,8,400,,,
sequence,flow.Sequence,4_118,2023-09-08T18:50:10.109Z,,0,,,2683.88400000002,completion,,,,,false,,,,384603.10000002384,384603,381912.143,381919.2000000477,381919.116,384613.567,8,400,,,
trial,html.Screen,4_119_0,2023-09-08T18:50:12.604Z,,0,3,,2484.633000047703,response,ISIC_9303594.JPG,5,ISIC_4564960.JPG,ISIC_9303594.JPG,false,1,keypress(m),500,387098.2999999523,387098.2000000477,384606.616,384603.2000000477,384613.567,387099.634,8,400,20,,ISIC_4564960.JPG
break,html.Screen,4_119_1,2023-09-08T18:50:12.604Z,,0,,,NaN,,,,,,false,,,,387098.60000002384,387098.60000002384,,387098.39999997616,,387099.634,8,400,,,
break_continue,html.Screen,4_119_2,2023-09-08T18:50:12.605Z,,0,,,NaN,,,,,,false,,,,387098.7999999523,387098.7999999523,,387098.7000000477,,387099.634,8,400,,,
sequence,flow.Sequence,4_119,2023-09-08T18:50:12.605Z,,0,,,2485.2329999523354,completion,,,,,false,,,,387098.7999999523,387098.7999999523,384606.616,384603.2000000477,384613.567,387099.634,8,400,,,
trial,html.Screen,4_120_0,2023-09-08T18:50:15.193Z,,0,3,,2587.966000023822,response,ISIC_6119208.JPG,4,ISIC_0027171.JPG,ISIC_6119208.JPG,false,1,keypress(m),500,389687.7000000477,389687.60000002384,387092.691,387098.89999997616,387099.634,389689.949,8,400,21,,ISIC_0027171.JPG
break,html.Screen,4_120_1,2023-09-08T18:50:15.194Z,,0,,,NaN,,,,,,false,,,,389688,389687.89999997616,,389687.7000000477,,389689.949,8,400,,,
break_continue,html.Screen,4_120_2,2023-09-08T18:50:15.194Z,,0,,,NaN,,,,,,false,,,,389688.2000000477,389688.10000002384,,389688.10000002384,,389689.949,8,400,,,
sequence,flow.Sequence,4_120,2023-09-08T18:50:15.194Z,,0,,,2588.466000023822,completion,,,,,false,,,,389688.2000000477,389688.10000002384,387092.691,387098.7999999523,387099.634,389689.949,8,400,,,
trial,html.Screen,4_121_0,2023-09-08T18:50:17.595Z,,0,3,,2399.350999952294,response,ISIC_5320483.JPG,5,ISIC_0064877.JPG,ISIC_5320483.JPG,false,1,keypress(m),500,392089.5,392089.2999999523,389682.955,389688.2000000477,389689.949,392092.66,8,400,22,,ISIC_0064877.JPG
break,html.Screen,4_121_1,2023-09-08T18:50:17.596Z,,0,,,NaN,,,,,,false,,,,392089.89999997616,392089.7999999523,,392089.60000002384,,392092.66,8,400,,,
break_continue,html.Screen,4_121_2,2023-09-08T18:50:17.596Z,,0,,,NaN,,,,,,false,,,,392090,392090,,392089.89999997616,,392092.66,8,400,,,
sequence,flow.Sequence,4_121,2023-09-08T18:50:17.596Z,,0,,,2400.0509999999776,completion,,,,,false,,,,392090.10000002384,392090,389682.955,389688.2000000477,389689.949,392092.66,8,400,,,
trial,html.Screen,4_122_0,2023-09-08T18:50:20.216Z,,0,3,,2617.639999952342,response,ISIC_3932879.JPG,4,ISIC_9469284.JPG,ISIC_9469284.JPG,false,0,keypress(z),500,394710.39999997616,394710.2999999523,392085.697,392090.2000000477,392092.66,394710.721,8,400,23,,ISIC_3932879.JPG
break,html.Screen,4_122_1,2023-09-08T18:50:20.217Z,,0,,,NaN,,,,,,false,,,,394710.89999997616,394710.7999999523,,394710.5,,394710.721,8,400,,,
break_continue,html.Screen,4_122_2,2023-09-08T18:50:20.217Z,,0,,,NaN,,,,,,false,,,,394711,394711,,394710.89999997616,,394710.721,8,400,,,
sequence,flow.Sequence,4_122,2023-09-08T18:50:20.217Z,,0,,,2618.3400000000256,completion,,,,,false,,,,394711.2000000477,394711,392085.697,392090.2000000477,392092.66,394710.721,8,400,,,
trial,html.Screen,4_123_0,2023-09-08T18:50:22.710Z,,0,3,,2492.979000047664,response,ISIC_0000410.JPG,4,ISIC_1925623.JPG,ISIC_0000410.JPG,false,1,keypress(m),500,397203.7999999523,397203.7000000477,394710.69,394711.2000000477,394710.721,397210.686,8,400,24,,ISIC_1925623.JPG
break,html.Screen,4_123_1,2023-09-08T18:50:22.710Z,,0,,,NaN,,,,,,false,,,,397204.2999999523,397204.2000000477,,397203.89999997616,,397210.686,8,400,,,
break_continue,html.Screen,4_123_2,2023-09-08T18:50:22.710Z,,0,,,NaN,,,,,,false,,,,397204.39999997616,397204.39999997616,,397204.2999999523,,397210.686,8,400,,,
sequence,flow.Sequence,4_123,2023-09-08T18:50:22.710Z,,0,,,2493.6789999761386,completion,,,,,false,,,,397204.5,397204.39999997616,394710.69,394711.2000000477,394710.721,397210.686,8,400,,,
trial,html.Screen,4_124_0,2023-09-08T18:50:25.159Z,,0,3,,2442.213999976171,response,ISIC_2647198.JPG,4,ISIC_5325805.JPG,ISIC_2647198.JPG,false,1,keypress(m),500,399653,399652.89999997616,397203.713,397204.60000002384,397210.686,399662.06,8,400,25,,ISIC_5325805.JPG
break,html.Screen,4_124_1,2023-09-08T18:50:25.159Z,,0,,,NaN,,,,,,false,,,,399653.5,399653.2999999523,,399653.10000002384,,399662.06,8,400,,,
break_continue,html.Screen,4_124_2,2023-09-08T18:50:25.159Z,,0,,,NaN,,,,,,false,,,,399653.60000002384,399653.60000002384,,399653.5,,399662.06,8,400,,,
sequence,flow.Sequence,4_124,2023-09-08T18:50:25.159Z,,0,,,2442.914000023855,completion,,,,,false,,,,399653.60000002384,399653.60000002384,397203.713,397204.60000002384,397210.686,399662.06,8,400,,,
trial,html.Screen,4_125_0,2023-09-08T18:50:27.916Z,,0,3,,2748.540000023844,response,ISIC_0032232.JPG,4,ISIC_3045939.JPG,ISIC_0032232.JPG,false,1,keypress(m),500,402410.7000000477,402410.60000002384,399655.118,399653.60000002384,399662.06,402412.042,8,400,26,,ISIC_3045939.JPG
break,html.Screen,4_125_1,2023-09-08T18:50:27.917Z,,0,,,NaN,,,,,,false,,,,402411,402410.89999997616,,402410.7000000477,,402412.042,8,400,,,
