sender,sender_type,sender_id,timestamp,meta,,blockNo,condition,duration,ended_on,img_left,img_reveal,img_right,loser,practice,response,response_action,selection_duration,time_commit,time_end,time_render,time_run,time_show,time_switch,total_blocks,total_trials,trialNo,url,winner
informed_consent,html.Screen,0,2023-09-15T21:00:49.775Z,"{""labjs_version"":""20.2.4"",""labjs_build"":{""flavor"":""production"",""commit"":""f5b4a49f956347addd546a832a3327688c2c0fef""},""location"":""https://run.pavlovia.org/MurrayBennett/melanoma-2afc/?participant=66196&platform=sona"",""userAgent"":""Mozilla/5.0 (Macintosh; Intel Mac OS X 10_15_7) AppleWebKit/537.36 (KHTML, like Gecko) Chrome/115.0.0.0 Safari/537.36"",""platform"":""MacIntel"",""language"":""en-US"",""locale"":""en-US"",""timeZone"":""America/Chicago"",""timezoneOffset"":300,""screen_width"":1710,""screen_height"":1107,""scroll_width"":1710,""scroll_height"":936,""window_innerWidth"":1710,""window_innerHeight"":984,""devicePixelRatio"":2}",,,,18326.775,response,,,,,,consent,click button,,19843.5,19839,1362.231,1511.699999988079,1512.225,19862.025,,,,"{""participant"":""66196"",""platform"":""sona""}",
Welcome,html.Screen,1,2023-09-15T21:01:19.908Z,,,,colourful,30111.274999952315,response,,,,,,continue,click button,,49976.89999997616,49973.299999952316,19828.693,19843.899999976158,19862.025,49979.223,,,,,
trial,html.Screen,2_0_0,2023-09-15T21:01:25.372Z,,0,0,,5460.376999964239,response,ISIC_0025593.JPG,,ISIC_0063388.JPG,ISIC_0063388.JPG,true,0,keypress(z),500,55440.299999952316,55439.59999996424,49962.557,49977.39999997616,49979.223,55446.21,1,6,1,,ISIC_0025593.JPG
sequence,flow.Sequence,2_0,2023-09-15T21:01:25.372Z,,0,,,5460.376999964239,completion,,,,,true,,,,55440.89999997616,55439.59999996424,49962.557,49977.39999997616,49979.223,55446.21,1,6,,,
trial,html.Screen,2_1_0,2023-09-15T21:01:30.099Z,,0,0,,4721.089999952317,response,ISIC_1309015.JPG,,ISIC_0028178.JPG,ISIC_1309015.JPG,true,1,keypress(m),500,60167.69999998808,60167.299999952316,55429.544,55441.09999996424,55446.21,60179.354,1,6,2,,ISIC_0028178.JPG
sequence,flow.Sequence,2_1,2023-09-15T21:01:30.100Z,,0,,,4721.089999952317,completion,,,,,true,,,,60168.19999998808,60167.299999952316,55429.544,55441,55446.21,60179.354,1,6,,,
trial,html.Screen,2_2_0,2023-09-15T21:01:35.644Z,,0,0,,5531.945999952317,response,ISIC_3314853.JPG,,ISIC_0031128.JPG,ISIC_3314853.JPG,true,1,keypress(m),500,65711.89999997616,65711.29999995232,60162.688,60168.39999997616,60179.354,65729.647,1,6,3,,ISIC_0031128.JPG
sequence,flow.Sequence,2_2,2023-09-15T21:01:35.644Z,,0,,,5531.945999952317,completion,,,,,true,,,,65712.29999995232,65711.29999995232,60162.688,60168.299999952316,60179.354,65729.647,1,6,,,
trial,html.Screen,2_3_0,2023-09-15T21:01:39.003Z,,0,0,,3341.353000000003,response,ISIC_8980141.JPG,,ISIC_0031612.JPG,ISIC_0031612.JPG,true,0,keypress(z),500,69071.59999996424,69071,65712.981,65712.5,65729.647,69079.513,1,6,4,,ISIC_8980141.JPG
sequence,flow.Sequence,2_3,2023-09-15T21:01:39.004Z,,0,,,3341.353000000003,completion,,,,,true,,,,69072.09999996424,69071,65712.981,65712.39999997616,65729.647,69079.513,1,6,,,
trial,html.Screen,2_4_0,2023-09-15T21:01:42.203Z,,0,0,,3191.4869999999937,response,ISIC_1197737.JPG,,ISIC_9721604.JPG,ISIC_9721604.JPG,true,0,keypress(z),500,72271.69999998808,72271,69062.847,69072.39999997616,69079.513,72279.385,1,6,5,,ISIC_1197737.JPG
sequence,flow.Sequence,2_4,2023-09-15T21:01:42.204Z,,0,,,3191.4869999999937,completion,,,,,true,,,,72272.09999996424,72271,69062.847,69072.19999998808,69079.513,72279.385,1,6,,,
trial,html.Screen,2_5_0,2023-09-15T21:01:47.668Z,,0,0,,5456.014999976163,response,ISIC_0025346.JPG,,ISIC_0010681.JPG,ISIC_0010681.JPG,true,0,keypress(z),500,77735.89999997616,77735.39999997616,72262.719,72272.39999997616,72279.385,77746.47,1,6,6,,ISIC_0025346.JPG
sequence,flow.Sequence,2_5,2023-09-15T21:01:47.668Z,,0,,,5456.014999976163,completion,,,,,true,,,,77736.5,77735.39999997616,72262.719,72272.19999998808,72279.385,77746.47,1,6,,,
loop,flow.Loop,2,2023-09-15T21:01:47.668Z,,,,,27756.17699997616,completion,,,,,true,,,,77736.69999998808,77735.39999997616,49962.557,49977.299999952316,49979.223,77746.47,1,6,,,
exp_instructions,html.Screen,3,2023-09-15T21:02:01.102Z,,,,,13417.129999964236,response,,,,,,continue,keypress(Space),,91169.79999995232,91163.59999996424,77729.804,77736.89999997616,77746.47,91179.266,,,,,
trial,html.Screen,4_0_0,2023-09-15T21:02:12.603Z,,0,1,,11517.394,timeout,ISIC_6272501.JPG,7,ISIC_7567699.JPG,,false,,,500,102670.89999997616,102670.59999996424,91162.6,91170.19999998808,91179.266,102696.66,8,400,1,,
break,html.Screen,4_0_1,2023-09-15T21:02:12.604Z,,0,,,NaN,,,,,,false,,,,102671.79999995232,102671.59999996424,,102671.19999998808,,102696.66,8,400,,,
break_continue,html.Screen,4_0_2,2023-09-15T21:02:12.604Z,,0,,,NaN,,,,,,false,,,,102672,102671.89999997616,,102671.79999995232,,102696.66,8,400,,,
sequence,flow.Sequence,4_0,2023-09-15T21:02:12.604Z,,0,,,11492.633999976155,completion,,,,,false,,,,102672.29999995232,102671.89999997616,91162.6,91170.19999998808,91179.266,102696.66,8,400,,,
trial,html.Screen,4_1_0,2023-09-15T21:02:18.644Z,,0,1,,6015.439999964234,response,ISIC_0030845.JPG,10,ISIC_0031324.JPG,ISIC_0031324.JPG,false,0,keypress(z),500,108712.5,108712.09999996424,102679.994,102672.39999997616,102696.66,108729.752,8,400,2,,ISIC_0030845.JPG
break,html.Screen,4_1_1,2023-09-15T21:02:18.645Z,,0,,,NaN,,,,,,false,,,,108713.5,108713.29999995232,,108712.79999995232,,108729.752,8,400,,,
break_continue,html.Screen,4_1_2,2023-09-15T21:02:18.646Z,,0,,,NaN,,,,,,false,,,,108713.89999997616,108713.79999995232,,108713.69999998808,,108729.752,8,400,,,
sequence,flow.Sequence,4_1,2023-09-15T21:02:18.646Z,,0,,,6017.139999952313,completion,,,,,false,,,,108714.09999996424,108713.79999995232,102679.994,102672.39999997616,102696.66,108729.752,8,400,,,
trial,html.Screen,4_2_0,2023-09-15T21:02:25.260Z,,0,1,,6597.647999976165,response,ISIC_0055783.JPG,8,ISIC_0070313.JPG,ISIC_0070313.JPG,false,0,keypress(z),500,115327.89999997616,115327.39999997616,108713.086,108714.19999998808,108729.752,115330.048,8,400,3,,ISIC_0055783.JPG
break,html.Screen,4_2_1,2023-09-15T21:02:25.261Z,,0,,,NaN,,,,,,false,,,,115328.89999997616,115328.69999998808,,115328.09999996424,,115330.048,8,400,,,
break_continue,html.Screen,4_2_2,2023-09-15T21:02:25.261Z,,0,,,NaN,,,,,,false,,,,115329.29999995232,115329.19999998808,,115329,,115330.048,8,400,,,
sequence,flow.Sequence,4_2,2023-09-15T21:02:25.261Z,,0,,,6599.447999988086,completion,,,,,false,,,,115329.5,115329.19999998808,108713.086,108714.19999998808,108729.752,115330.048,8,400,,,
trial,html.Screen,4_3_0,2023-09-15T21:02:28.283Z,,0,1,,3020.751999952321,response,ISIC_8855790.JPG,9,ISIC_1654342.JPG,ISIC_8855790.JPG,false,1,keypress(m),500,118351.29999995232,118350.79999995232,115313.382,115329.59999996424,115330.048,118363.26,8,400,4,,ISIC_1654342.JPG
break,html.Screen,4_3_1,2023-09-15T21:02:28.284Z,,0,,,NaN,,,,,,false,,,,118352.29999995232,118352.09999996424,,118351.59999996424,,118363.26,8,400,,,
break_continue,html.Screen,4_3_2,2023-09-15T21:02:28.285Z,,0,,,NaN,,,,,,false,,,,118352.69999998808,118352.59999996424,,118352.5,,118363.26,8,400,,,
sequence,flow.Sequence,4_3,2023-09-15T21:02:28.285Z,,0,,,3022.551999964242,completion,,,,,false,,,,118352.89999997616,118352.59999996424,115313.382,115329.59999996424,115330.048,118363.26,8,400,,,
trial,html.Screen,4_4_0,2023-09-15T21:02:33.332Z,,0,1,,5036.139999976163,response,ISIC_0071536.JPG,10,ISIC_0029343.JPG,ISIC_0029343.JPG,false,0,keypress(z),500,123400,123399.39999997616,118346.594,118353,118363.26,123413.67,8,400,5,,ISIC_0071536.JPG
break,html.Screen,4_4_1,2023-09-15T21:02:33.333Z,,0,,,NaN,,,,,,false,,,,123401,123400.79999995232,,123400.19999998808,,123413.67,8,400,,,
break_continue,html.Screen,4_4_2,2023-09-15T21:02:33.333Z,,0,,,NaN,,,,,,false,,,,123401.29999995232,123401.19999998808,,123401.09999996424,,123413.67,8,400,,,
sequence,flow.Sequence,4_4,2023-09-15T21:02:33.333Z,,0,,,5037.939999988084,completion,,,,,false,,,,123401.39999997616,123401.19999998808,118346.594,118352.89999997616,118363.26,123413.67,8,400,,,
trial,html.Screen,4_5_0,2023-09-15T21:02:38.060Z,,0,1,,4713.629999952318,response,ISIC_0062547.JPG,9,ISIC_1470245.JPG,ISIC_1470245.JPG,false,0,keypress(z),500,128127.69999998808,128127.29999995232,123397.004,123401.5,123413.67,128130.148,8,400,6,,ISIC_0062547.JPG
break,html.Screen,4_5_1,2023-09-15T21:02:38.061Z,,0,,,NaN,,,,,,false,,,,128128.89999997616,128128.69999998808,,128128.19999998808,,128130.148,8,400,,,
break_continue,html.Screen,4_5_2,2023-09-15T21:02:38.061Z,,0,,,NaN,,,,,,false,,,,128129.29999995232,128129.19999998808,,128129,,128130.148,8,400,,,
sequence,flow.Sequence,4_5,2023-09-15T21:02:38.062Z,,0,,,4715.529999988081,completion,,,,,false,,,,128129.5,128129.19999998808,123397.004,123401.5,123413.67,128130.148,8,400,,,
trial,html.Screen,4_6_0,2023-09-15T21:02:43.300Z,,0,1,,5237.451999964236,response,ISIC_0063234.JPG,9,ISIC_0030034.JPG,ISIC_0030034.JPG,false,0,keypress(z),500,133368,133367.59999996424,128113.482,128129.69999998808,128130.148,133380.452,8,400,7,,ISIC_0063234.JPG
break,html.Screen,4_6_1,2023-09-15T21:02:43.301Z,,0,,,NaN,,,,,,false,,,,133369,133368.79999995232,,133368.29999995232,,133380.452,8,400,,,
break_continue,html.Screen,4_6_2,2023-09-15T21:02:43.302Z,,0,,,NaN,,,,,,false,,,,133369.39999997616,133369.19999998808,,133369.19999998808,,133380.452,8,400,,,
sequence,flow.Sequence,4_6,2023-09-15T21:02:43.302Z,,0,,,5239.051999988078,completion,,,,,false,,,,133369.59999996424,133369.19999998808,128113.482,128129.59999996424,128130.148,133380.452,8,400,,,
trial,html.Screen,4_7_0,2023-09-15T21:02:48.348Z,,0,1,,5035.147999964247,response,ISIC_0011943.JPG,8,ISIC_1042960.JPG,ISIC_1042960.JPG,false,0,keypress(z),500,138416,138415.59999996424,133363.786,133369.69999998808,133380.452,138430.25,8,400,8,,ISIC_0011943.JPG
break,html.Screen,4_7_1,2023-09-15T21:02:48.349Z,,0,,,NaN,,,,,,false,,,,138417,138416.79999995232,,138416.19999998808,,138430.25,8,400,,,
break_continue,html.Screen,4_7_2,2023-09-15T21:02:48.350Z,,0,,,NaN,,,,,,false,,,,138417.39999997616,138417.19999998808,,138417.09999996424,,138430.25,8,400,,,
sequence,flow.Sequence,4_7,2023-09-15T21:02:48.350Z,,0,,,5036.747999988089,completion,,,,,false,,,,138417.5,138417.19999998808,133363.786,133369.59999996424,133380.452,138430.25,8,400,,,
trial,html.Screen,4_8_0,2023-09-15T21:02:57.444Z,,0,1,,9081.549999952316,response,ISIC_2663597.JPG,9,ISIC_2748736.JPG,ISIC_2663597.JPG,false,1,keypress(m),500,147512.19999998808,147511.79999995232,138413.584,138417.69999998808,138430.25,147513.6,8,400,9,,ISIC_2748736.JPG
break,html.Screen,4_8_1,2023-09-15T21:02:57.446Z,,0,,,NaN,,,,,,false,,,,147513.29999995232,147513,,147512.5,,147513.6,8,400,,,
break_continue,html.Screen,4_8_2,2023-09-15T21:02:57.446Z,,0,,,NaN,,,,,,false,,,,147513.69999998808,147513.59999996424,,147513.39999997616,,147513.6,8,400,,,
sequence,flow.Sequence,4_8,2023-09-15T21:02:57.446Z,,0,,,9083.349999964237,completion,,,,,false,,,,147513.89999997616,147513.59999996424,138413.584,138417.59999996424,138430.25,147513.6,8,400,,,
trial,html.Screen,4_9_0,2023-09-15T21:03:04.148Z,,0,1,,6701.599999988073,response,ISIC_2159510.JPG,8,ISIC_4950467.JPG,ISIC_2159510.JPG,false,1,keypress(m),500,154215.69999998808,154215.19999998808,147496.934,147514,147513.6,154230.515,8,400,10,,ISIC_4950467.JPG
break,html.Screen,4_9_1,2023-09-15T21:03:04.150Z,,0,,,NaN,,,,,,false,,,,154217.89999997616,154217.59999996424,,154217.19999998808,,154230.515,8,400,,,
break_continue,html.Screen,4_9_2,2023-09-15T21:03:04.150Z,,0,,,NaN,,,,,,false,,,,154218.09999996424,154218,,154217.89999997616,,154230.515,8,400,,,
sequence,flow.Sequence,4_9,2023-09-15T21:03:04.150Z,,0,,,6704.399999999994,completion,,,,,false,,,,154218.19999998808,154218,147496.934,147514,147513.6,154230.515,8,400,,,
trial,html.Screen,4_10_0,2023-09-15T21:03:09.604Z,,0,1,,5440.684999988065,response,ISIC_0315631.JPG,8,ISIC_2506200.JPG,ISIC_2506200.JPG,false,0,keypress(z),500,159671.69999998808,159671.19999998808,154213.849,154218.19999998808,154230.515,159680.297,8,400,11,,ISIC_0315631.JPG
break,html.Screen,4_10_1,2023-09-15T21:03:09.605Z,,0,,,NaN,,,,,,false,,,,159672.69999998808,159672.5,,159672,,159680.297,8,400,,,
break_continue,html.Screen,4_10_2,2023-09-15T21:03:09.605Z,,0,,,NaN,,,,,,false,,,,159673.09999996424,159672.89999997616,,159672.79999995232,,159680.297,8,400,,,
sequence,flow.Sequence,4_10,2023-09-15T21:03:09.605Z,,0,,,5442.384999976144,completion,,,,,false,,,,159673.19999998808,159672.89999997616,154213.849,154218.19999998808,154230.515,159680.297,8,400,,,
trial,html.Screen,4_11_0,2023-09-15T21:03:14.188Z,,0,1,,4574.802999964246,response,ISIC_4734111.JPG,9,ISIC_8324870.JPG,ISIC_8324870.JPG,false,0,keypress(z),500,164255.39999997616,164255.09999996424,159663.631,159673.39999997616,159680.297,164264.146,8,400,12,,ISIC_4734111.JPG
break,html.Screen,4_11_1,2023-09-15T21:03:14.189Z,,0,,,NaN,,,,,,false,,,,164256.5,164256.29999995232,,164255.69999998808,,164264.146,8,400,,,
break_continue,html.Screen,4_11_2,2023-09-15T21:03:14.189Z,,0,,,NaN,,,,,,false,,,,164256.89999997616,164256.69999998808,,164256.5,,164264.146,8,400,,,
sequence,flow.Sequence,4_11,2023-09-15T21:03:14.189Z,,0,,,4576.402999988088,completion,,,,,false,,,,164257,164256.69999998808,159663.631,159673.29999995232,159680.297,164264.146,8,400,,,
trial,html.Screen,4_12_0,2023-09-15T21:03:19.409Z,,0,1,,5212.653999952308,response,ISIC_7906421.JPG,9,ISIC_0065233.JPG,ISIC_0065233.JPG,false,0,keypress(z),500,169477.09999996424,169476.79999995232,164247.48,164257.09999996424,164264.146,169497.27,8,400,13,,ISIC_7906421.JPG
break,html.Screen,4_12_1,2023-09-15T21:03:19.410Z,,0,,,NaN,,,,,,false,,,,169477.69999998808,169477.59999996424,,169477.29999995232,,169497.27,8,400,,,
break_continue,html.Screen,4_12_2,2023-09-15T21:03:19.410Z,,0,,,NaN,,,,,,false,,,,169478,169477.89999997616,,169477.79999995232,,169497.27,8,400,,,
sequence,flow.Sequence,4_12,2023-09-15T21:03:19.410Z,,0,,,5213.75399997615,completion,,,,,false,,,,169478,169477.89999997616,164247.48,164257.09999996424,164264.146,169497.27,8,400,,,
trial,html.Screen,4_13_0,2023-09-15T21:03:22.765Z,,0,1,,3334.3299999642477,response,ISIC_0024686.JPG,13,ISIC_0063190.JPG,ISIC_0024686.JPG,false,1,keypress(m),500,172832.19999998808,172831.59999996424,169480.604,169478.09999996424,169497.27,172847.136,8,400,14,,ISIC_0063190.JPG
break,html.Screen,4_13_1,2023-09-15T21:03:22.766Z,,0,,,NaN,,,,,,false,,,,172833.19999998808,172832.89999997616,,172832.5,,172847.136,8,400,,,
break_continue,html.Screen,4_13_2,2023-09-15T21:03:22.766Z,,0,,,NaN,,,,,,false,,,,172833.5,172833.39999997616,,172833.29999995232,,172847.136,8,400,,,
sequence,flow.Sequence,4_13,2023-09-15T21:03:22.766Z,,0,,,3336.1299999761686,completion,,,,,false,,,,172833.79999995232,172833.39999997616,169480.604,169478.09999996424,169497.27,172847.136,8,400,,,
trial,html.Screen,4_14_0,2023-09-15T21:03:25.836Z,,0,1,,3056.1639999523177,response,ISIC_0030610.JPG,9,ISIC_4848047.JPG,ISIC_4848047.JPG,false,0,keypress(z),500,175903.79999995232,175903.29999995232,172830.47,172833.89999997616,172847.136,175914.205,8,400,15,,ISIC_0030610.JPG
break,html.Screen,4_14_1,2023-09-15T21:03:25.837Z,,0,,,NaN,,,,,,false,,,,175904.79999995232,175904.59999996424,,175904,,175914.205,8,400,,,
break_continue,html.Screen,4_14_2,2023-09-15T21:03:25.838Z,,0,,,NaN,,,,,,false,,,,175905.19999998808,175905,,175905,,175914.205,8,400,,,
sequence,flow.Sequence,4_14,2023-09-15T21:03:25.838Z,,0,,,3057.8640000000014,completion,,,,,false,,,,175905.39999997616,175905,172830.47,172833.79999995232,172847.136,175914.205,8,400,,,
trial,html.Screen,4_15_0,2023-09-15T21:03:28.852Z,,0,1,,3005.194999976171,response,ISIC_9829436.JPG,9,ISIC_0010788.JPG,ISIC_9829436.JPG,false,1,keypress(m),500,178919.89999997616,178919.39999997616,175897.539,175905.5,175914.205,178930.751,8,400,16,,ISIC_0010788.JPG
break,html.Screen,4_15_1,2023-09-15T21:03:28.853Z,,0,,,NaN,,,,,,false,,,,178920.89999997616,178920.69999998808,,178920.19999998808,,178930.751,8,400,,,
break_continue,html.Screen,4_15_2,2023-09-15T21:03:28.854Z,,0,,,NaN,,,,,,false,,,,178921.19999998808,178921.09999996424,,178921,,178930.751,8,400,,,
sequence,flow.Sequence,4_15,2023-09-15T21:03:28.854Z,,0,,,3006.89499996425,completion,,,,,false,,,,178921.39999997616,178921.09999996424,175897.539,175905.5,175914.205,178930.751,8,400,,,
trial,html.Screen,4_16_0,2023-09-15T21:03:34.188Z,,0,1,,5324.648999976169,response,ISIC_6674797.JPG,9,ISIC_0033625.JPG,ISIC_0033625.JPG,false,0,keypress(z),500,184255.89999997616,184255.39999997616,178914.085,178921.5,178930.751,184263.871,8,400,17,,ISIC_6674797.JPG
break,html.Screen,4_16_1,2023-09-15T21:03:34.189Z,,0,,,NaN,,,,,,false,,,,184256.89999997616,184256.69999998808,,184256.19999998808,,184263.871,8,400,,,
break_continue,html.Screen,4_16_2,2023-09-15T21:03:34.190Z,,0,,,NaN,,,,,,false,,,,184257.29999995232,184257.19999998808,,184257.09999996424,,184263.871,8,400,,,
sequence,flow.Sequence,4_16,2023-09-15T21:03:34.190Z,,0,,,5326.44899998809,completion,,,,,false,,,,184257.5,184257.19999998808,178914.085,178921.5,178930.751,184263.871,8,400,,,
trial,html.Screen,4_17_0,2023-09-15T21:03:38.781Z,,0,1,,4584.128999999986,response,ISIC_0011073.JPG,9,ISIC_0028225.JPG,ISIC_0011073.JPG,false,1,keypress(m),500,188848.5,188848,184247.205,184257.59999996424,184263.871,188864.208,8,400,18,,ISIC_0028225.JPG
break,html.Screen,4_17_1,2023-09-15T21:03:38.782Z,,0,,,NaN,,,,,,false,,,,188849.5,188849.19999998808,,188848.79999995232,,188864.208,8,400,,,
break_continue,html.Screen,4_17_2,2023-09-15T21:03:38.782Z,,0,,,NaN,,,,,,false,,,,188849.79999995232,188849.69999998808,,188849.59999996424,,188864.208,8,400,,,
sequence,flow.Sequence,4_17,2023-09-15T21:03:38.782Z,,0,,,4585.828999988065,completion,,,,,false,,,,188850,188849.69999998808,184247.205,184257.5,184263.871,188864.208,8,400,,,
trial,html.Screen,4_18_0,2023-09-15T21:03:44.148Z,,0,1,,5350.891999964224,response,ISIC_0032047.JPG,9,ISIC_0027350.JPG,ISIC_0032047.JPG,false,1,keypress(m),500,194215.5,194215.09999996424,188847.542,188850.19999998808,188864.208,194230.66,8,400,19,,ISIC_0027350.JPG
break,html.Screen,4_18_1,2023-09-15T21:03:44.149Z,,0,,,NaN,,,,,,false,,,,194216.19999998808,194216.09999996424,,194215.69999998808,,194230.66,8,400,,,
break_continue,html.Screen,4_18_2,2023-09-15T21:03:44.149Z,,0,,,NaN,,,,,,false,,,,194216.39999997616,194216.39999997616,,194216.29999995232,,194230.66,8,400,,,
sequence,flow.Sequence,4_18,2023-09-15T21:03:44.149Z,,0,,,5352.191999976145,completion,,,,,false,,,,194216.59999996424,194216.39999997616,188847.542,188850,188864.208,194230.66,8,400,,,
trial,html.Screen,4_19_0,2023-09-15T21:03:47.556Z,,0,1,,3392.3399999999965,response,ISIC_0028379.JPG,9,ISIC_4442490.JPG,ISIC_4442490.JPG,false,0,keypress(z),500,197623.39999997616,197623,194213.994,194216.59999996424,194230.66,197631.107,8,400,20,,ISIC_0028379.JPG
break,html.Screen,4_19_1,2023-09-15T21:03:47.557Z,,0,,,NaN,,,,,,false,,,,197624.39999997616,197624.19999998808,,197623.69999998808,,197631.107,8,400,,,
break_continue,html.Screen,4_19_2,2023-09-15T21:03:47.557Z,,0,,,NaN,,,,,,false,,,,197624.69999998808,197624.59999996424,,197624.5,,197631.107,8,400,,,
sequence,flow.Sequence,4_19,2023-09-15T21:03:47.557Z,,0,,,3393.9399999642337,completion,,,,,false,,,,197624.89999997616,197624.59999996424,194213.994,194216.59999996424,194230.66,197631.107,8,400,,,
trial,html.Screen,4_20_0,2023-09-15T21:03:53.533Z,,0,1,,5968.393000000011,response,ISIC_0069638.JPG,9,ISIC_6334958.JPG,ISIC_6334958.JPG,false,0,keypress(z),500,203599.89999997616,203599.5,197614.441,197625,197631.107,203614.201,8,400,21,,ISIC_0069638.JPG
break,html.Screen,4_20_1,2023-09-15T21:03:53.534Z,,0,,,NaN,,,,,,false,,,,203601,203600.79999995232,,203600.29999995232,,203614.201,8,400,,,
break_continue,html.Screen,4_20_2,2023-09-15T21:03:53.534Z,,0,,,NaN,,,,,,false,,,,203601.29999995232,203601.19999998808,,203601.09999996424,,203614.201,8,400,,,
sequence,flow.Sequence,4_20,2023-09-15T21:03:53.534Z,,0,,,5970.09299998809,completion,,,,,false,,,,203601.5,203601.19999998808,197614.441,197625,197631.107,203614.201,8,400,,,
trial,html.Screen,4_21_0,2023-09-15T21:03:58.740Z,,0,1,,5192.998999988078,response,ISIC_0010313.JPG,9,ISIC_3433060.JPG,ISIC_0010313.JPG,false,1,keypress(m),500,208807.59999996424,208807.19999998808,203597.535,203601.59999996424,203614.201,208814.515,8,400,22,,ISIC_3433060.JPG
break,html.Screen,4_21_1,2023-09-15T21:03:58.741Z,,0,,,NaN,,,,,,false,,,,208808.69999998808,208808.39999997616,,208807.89999997616,,208814.515,8,400,,,
break_continue,html.Screen,4_21_2,2023-09-15T21:03:58.742Z,,0,,,NaN,,,,,,false,,,,208809.09999996424,208809,,208808.79999995232,,208814.515,8,400,,,
sequence,flow.Sequence,4_21,2023-09-15T21:03:58.742Z,,0,,,5194.798999999999,completion,,,,,false,,,,208809.19999998808,208809,203597.535,203601.59999996424,203614.201,208814.515,8,400,,,
trial,html.Screen,4_22_0,2023-09-15T21:04:04.173Z,,0,1,,5425.384999976144,response,ISIC_0034150.JPG,8,ISIC_5948901.JPG,ISIC_5948901.JPG,false,0,keypress(z),500,214240.39999997616,214239.89999997616,208797.849,208809.29999995232,208814.515,214247.631,8,400,23,,ISIC_0034150.JPG
break,html.Screen,4_22_1,2023-09-15T21:04:04.174Z,,0,,,NaN,,,,,,false,,,,214241.29999995232,214241.19999998808,,214240.59999996424,,214247.631,8,400,,,
break_continue,html.Screen,4_22_2,2023-09-15T21:04:04.174Z,,0,,,NaN,,,,,,false,,,,214241.69999998808,214241.59999996424,,214241.5,,214247.631,8,400,,,
sequence,flow.Sequence,4_22,2023-09-15T21:04:04.175Z,,0,,,5427.084999964223,completion,,,,,false,,,,214241.89999997616,214241.59999996424,208797.849,208809.29999995232,208814.515,214247.631,8,400,,,
trial,html.Screen,4_23_0,2023-09-15T21:04:09.156Z,,0,1,,4975.768999976164,response,ISIC_0056406.JPG,9,ISIC_0029963.JPG,ISIC_0029963.JPG,false,0,keypress(z),500,219223.79999995232,219223.39999997616,214230.965,214242,214247.631,219231.357,8,400,24,,ISIC_0056406.JPG
break,html.Screen,4_23_1,2023-09-15T21:04:09.158Z,,0,,,NaN,,,,,,false,,,,219224.79999995232,219224.59999996424,,219224.09999996424,,219231.357,8,400,,,
break_continue,html.Screen,4_23_2,2023-09-15T21:04:09.158Z,,0,,,NaN,,,,,,false,,,,219225.19999998808,219225,,219224.89999997616,,219231.357,8,400,,,
sequence,flow.Sequence,4_23,2023-09-15T21:04:09.158Z,,0,,,4977.369000000006,completion,,,,,false,,,,219225.39999997616,219225,214230.965,214242,214247.631,219231.357,8,400,,,
trial,html.Screen,4_24_0,2023-09-15T21:04:13.613Z,,0,1,,4448.643000000011,response,ISIC_3573969.JPG,9,ISIC_0033081.JPG,ISIC_0033081.JPG,false,0,keypress(z),500,223680.39999997616,223680,219214.691,219225.39999997616,219231.357,223697.845,8,400,25,,ISIC_3573969.JPG
break,html.Screen,4_24_1,2023-09-15T21:04:13.614Z,,0,,,NaN,,,,,,false,,,,223681.39999997616,223681.29999995232,,223680.79999995232,,223697.845,8,400,,,
break_continue,html.Screen,4_24_2,2023-09-15T21:04:13.614Z,,0,,,NaN,,,,,,false,,,,223681.79999995232,223681.59999996424,,223681.59999996424,,223697.845,8,400,,,
sequence,flow.Sequence,4_24,2023-09-15T21:04:13.615Z,,0,,,4450.242999964248,completion,,,,,false,,,,223681.89999997616,223681.59999996424,219214.691,219225.39999997616,219231.357,223697.845,8,400,,,
trial,html.Screen,4_25_0,2023-09-15T21:04:19.437Z,,0,1,,5805.754999964236,response,ISIC_9779803.JPG,8,ISIC_3346045.JPG,ISIC_9779803.JPG,false,1,keypress(m),500,229504,229503.59999996424,223681.179,223682.09999996424,223697.845,229514.904,8,400,26,,ISIC_3346045.JPG
break,html.Screen,4_25_1,2023-09-15T21:04:19.438Z,,0,,,NaN,,,,,,false,,,,229505,229504.79999995232,,229504.29999995232,,229514.904,8,400,,,
break_continue,html.Screen,4_25_2,2023-09-15T21:04:19.438Z,,0,,,NaN,,,,,,false,,,,229505.39999997616,229505.29999995232,,229505.19999998808,,229514.904,8,400,,,
sequence,flow.Sequence,4_25,2023-09-15T21:04:19.438Z,,0,,,5807.454999952315,completion,,,,,false,,,,229505.59999996424,229505.29999995232,223681.179,223682,223697.845,229514.904,8,400,,,
trial,html.Screen,4_26_0,2023-09-15T21:04:24.845Z,,0,1,,5396.995999976149,response,ISIC_0027081.JPG,9,ISIC_0026910.JPG,ISIC_0027081.JPG,false,1,keypress(m),500,234912.39999997616,234911.89999997616,229498.238,229505.69999998808,229514.904,234914.688,8,400,27,,ISIC_0026910.JPG
break,html.Screen,4_26_1,2023-09-15T21:04:24.846Z,,0,,,NaN,,,,,,false,,,,234913.39999997616,234913.19999998808,,234912.79999995232,,234914.688,8,400,,,
break_continue,html.Screen,4_26_2,2023-09-15T21:04:24.847Z,,0,,,NaN,,,,,,false,,,,234913.79999995232,234913.69999998808,,234913.59999996424,,234914.688,8,400,,,
sequence,flow.Sequence,4_26,2023-09-15T21:04:24.847Z,,0,,,5398.7959999880695,completion,,,,,false,,,,234913.89999997616,234913.69999998808,229498.238,229505.59999996424,229514.904,234914.688,8,400,,,
trial,html.Screen,4_27_0,2023-09-15T21:04:29.861Z,,0,1,,5013.312000000005,response,ISIC_0024911.JPG,8,ISIC_0010629.JPG,ISIC_0024911.JPG,false,1,keypress(m),500,239928.39999997616,239928,234898.022,234914.19999998808,234914.688,239931.612,8,400,28,,ISIC_0010629.JPG
break,html.Screen,4_27_1,2023-09-15T21:04:29.862Z,,0,,,NaN,,,,,,false,,,,239929.5,239929.29999995232,,239928.69999998808,,239931.612,8,400,,,
break_continue,html.Screen,4_27_2,2023-09-15T21:04:29.863Z,,0,,,NaN,,,,,,false,,,,239929.79999995232,239929.69999998808,,239929.59999996424,,239931.612,8,400,,,
sequence,flow.Sequence,4_27,2023-09-15T21:04:29.863Z,,0,,,5015.011999988084,completion,,,,,false,,,,239929.89999997616,239929.69999998808,234898.022,234914.09999996424,234914.688,239931.612,8,400,,,
trial,html.Screen,4_28_0,2023-09-15T21:04:34.573Z,,0,1,,4707.787999976164,response,ISIC_0056900.JPG,9,ISIC_6811363.JPG,ISIC_6811363.JPG,false,0,keypress(z),500,244639.89999997616,244639.39999997616,239914.946,239930.09999996424,239931.612,244648.09,8,400,29,,ISIC_0056900.JPG
break,html.Screen,4_28_1,2023-09-15T21:04:34.574Z,,0,,,NaN,,,,,,false,,,,244640.89999997616,244640.79999995232,,244640.19999998808,,244648.09,8,400,,,
break_continue,html.Screen,4_28_2,2023-09-15T21:04:34.574Z,,0,,,NaN,,,,,,false,,,,244641.29999995232,244641.19999998808,,244641,,244648.09,8,400,,,
sequence,flow.Sequence,4_28,2023-09-15T21:04:34.574Z,,0,,,4709.587999988085,completion,,,,,false,,,,244641.5,244641.19999998808,239914.946,239930,239931.612,244648.09,8,400,,,
trial,html.Screen,4_29_0,2023-09-15T21:04:38.661Z,,0,1,,4079.3099999761616,response,ISIC_0066878.JPG,9,ISIC_0054792.JPG,ISIC_0054792.JPG,false,0,keypress(z),500,248727.89999997616,248727.39999997616,244631.424,244641.59999996424,244648.09,248731.26,8,400,30,,ISIC_0066878.JPG
break,html.Screen,4_29_1,2023-09-15T21:04:38.662Z,,0,,,NaN,,,,,,false,,,,248728.89999997616,248728.69999998808,,248728.29999995232,,248731.26,8,400,,,
break_continue,html.Screen,4_29_2,2023-09-15T21:04:38.662Z,,0,,,NaN,,,,,,false,,,,248729.29999995232,248729.19999998808,,248729.09999996424,,248731.26,8,400,,,
sequence,flow.Sequence,4_29,2023-09-15T21:04:38.662Z,,0,,,4081.1099999880826,completion,,,,,false,,,,248729.5,248729.19999998808,244631.424,244641.59999996424,244648.09,248731.26,8,400,,,
trial,html.Screen,4_30_0,2023-09-15T21:04:43.284Z,,0,1,,4619.739999999991,response,ISIC_0026915.JPG,9,ISIC_4326917.JPG,ISIC_0026915.JPG,false,1,keypress(m),500,253351.5,253351,248714.594,248729.59999996424,248731.26,253364.973,8,400,31,,ISIC_4326917.JPG
break,html.Screen,4_30_1,2023-09-15T21:04:43.285Z,,0,,,NaN,,,,,,false,,,,253352.5,253352.29999995232,,253351.79999995232,,253364.973,8,400,,,
break_continue,html.Screen,4_30_2,2023-09-15T21:04:43.286Z,,0,,,NaN,,,,,,false,,,,253352.89999997616,253352.69999998808,,253352.69999998808,,253364.973,8,400,,,
sequence,flow.Sequence,4_30,2023-09-15T21:04:43.286Z,,0,,,4621.43999998807,completion,,,,,false,,,,253353,253352.69999998808,248714.594,248729.59999996424,248731.26,253364.973,8,400,,,
trial,html.Screen,4_31_0,2023-09-15T21:04:49.845Z,,0,1,,6546.027000000002,response,ISIC_2222091.JPG,9,ISIC_0054134.JPG,ISIC_2222091.JPG,false,1,keypress(m),500,259911.59999996424,259911,253348.307,253353.19999998808,253364.973,259914.711,8,400,32,,ISIC_0054134.JPG
break,html.Screen,4_31_1,2023-09-15T21:04:49.846Z,,0,,,NaN,,,,,,false,,,,259912.59999996424,259912.39999997616,,259911.89999997616,,259914.711,8,400,,,
break_continue,html.Screen,4_31_2,2023-09-15T21:04:49.846Z,,0,,,NaN,,,,,,false,,,,259913,259912.89999997616,,259912.69999998808,,259914.711,8,400,,,
sequence,flow.Sequence,4_31,2023-09-15T21:04:49.846Z,,0,,,6547.92699997616,completion,,,,,false,,,,259913.09999996424,259912.89999997616,253348.307,253353.19999998808,253364.973,259914.711,8,400,,,
trial,html.Screen,4_32_0,2023-09-15T21:04:54.821Z,,0,1,,4973.28899999999,response,ISIC_1475598.JPG,9,ISIC_0029561.JPG,ISIC_1475598.JPG,false,1,keypress(m),500,264888.5,264888,259898.045,259913.29999995232,259914.711,264898.391,8,400,33,,ISIC_0029561.JPG
break,html.Screen,4_32_1,2023-09-15T21:04:54.822Z,,0,,,NaN,,,,,,false,,,,264889.39999997616,264889.2999999523,,264888.6999999881,,264898.391,8,400,,,
break_continue,html.Screen,4_32_2,2023-09-15T21:04:54.823Z,,0,,,NaN,,,,,,false,,,,264889.89999997616,264889.7999999523,,264889.59999996424,,264898.391,8,400,,,
sequence,flow.Sequence,4_32,2023-09-15T21:04:54.823Z,,0,,,4975.088999952306,completion,,,,,false,,,,264890,264889.7999999523,259898.045,259913.29999995232,259914.711,264898.391,8,400,,,
trial,html.Screen,4_33_0,2023-09-15T21:04:58.717Z,,0,1,,3884.808999988076,response,ISIC_0030072.JPG,8,ISIC_0012263.JPG,ISIC_0012263.JPG,false,0,keypress(z),500,268783.59999996424,268783.1999999881,264881.725,264890.09999996424,264898.391,268798.235,8,400,34,,ISIC_0030072.JPG
break,html.Screen,4_33_1,2023-09-15T21:04:58.718Z,,0,,,NaN,,,,,,false,,,,268784.59999996424,268784.5,,268783.89999997616,,268798.235,8,400,,,
break_continue,html.Screen,4_33_2,2023-09-15T21:04:58.718Z,,0,,,NaN,,,,,,false,,,,268785,268784.89999997616,,268784.7999999523,,268798.235,8,400,,,
sequence,flow.Sequence,4_33,2023-09-15T21:04:58.718Z,,0,,,3886.508999976155,completion,,,,,false,,,,268785.1999999881,268784.89999997616,264881.725,264890.09999996424,264898.391,268798.235,8,400,,,
trial,html.Screen,4_34_0,2023-09-15T21:05:03.685Z,,0,1,,4953.06499995233,response,ISIC_2200924.JPG,10,ISIC_2528656.JPG,ISIC_2528656.JPG,false,0,keypress(z),500,273751.59999996424,273751.2999999523,268781.569,268785.39999997616,268798.235,273765.259,8,400,35,,ISIC_2200924.JPG
break,html.Screen,4_34_1,2023-09-15T21:05:03.686Z,,0,,,NaN,,,,,,false,,,,273752.59999996424,273752.5,,273751.89999997616,,273765.259,8,400,,,
break_continue,html.Screen,4_34_2,2023-09-15T21:05:03.686Z,,0,,,NaN,,,,,,false,,,,273753,273753,,273752.7999999523,,273765.259,8,400,,,
sequence,flow.Sequence,4_34,2023-09-15T21:05:03.686Z,,0,,,4954.765000000014,completion,,,,,false,,,,273753.1999999881,273753,268781.569,268785.1999999881,268798.235,273765.259,8,400,,,
trial,html.Screen,4_35_0,2023-09-15T21:05:07.693Z,,0,1,,3994.140999976138,response,ISIC_5716385.JPG,9,ISIC_0033007.JPG,ISIC_5716385.JPG,false,1,keypress(m),500,277759.89999997616,277759.39999997616,273748.593,273753.39999997616,273765.259,277765.099,8,400,36,,ISIC_0033007.JPG
break,html.Screen,4_35_1,2023-09-15T21:05:07.694Z,,0,,,NaN,,,,,,false,,,,277760.89999997616,277760.6999999881,,277760.1999999881,,277765.099,8,400,,,
break_continue,html.Screen,4_35_2,2023-09-15T21:05:07.694Z,,0,,,NaN,,,,,,false,,,,277761.2999999523,277761.09999996424,,277761,,277765.099,8,400,,,
sequence,flow.Sequence,4_35,2023-09-15T21:05:07.695Z,,0,,,3995.840999964217,completion,,,,,false,,,,277761.39999997616,277761.09999996424,273748.593,273753.2999999523,273765.259,277765.099,8,400,,,
trial,html.Screen,4_36_0,2023-09-15T21:05:13.173Z,,0,1,,5474.600999988092,response,ISIC_0708542.JPG,10,ISIC_8806357.JPG,ISIC_8806357.JPG,false,0,keypress(z),500,283240.09999996424,283239.6999999881,277748.433,277761.59999996424,277765.099,283248.751,8,400,37,,ISIC_0708542.JPG
break,html.Screen,4_36_1,2023-09-15T21:05:13.174Z,,0,,,NaN,,,,,,false,,,,283241.1999999881,283241,,283240.5,,283248.751,8,400,,,
break_continue,html.Screen,4_36_2,2023-09-15T21:05:13.175Z,,0,,,NaN,,,,,,false,,,,283241.7999999523,283241.5,,283241.2999999523,,283248.751,8,400,,,
sequence,flow.Sequence,4_36,2023-09-15T21:05:13.175Z,,0,,,5476.401000000013,completion,,,,,false,,,,283241.89999997616,283241.5,277748.433,277761.59999996424,277765.099,283248.751,8,400,,,
trial,html.Screen,4_37_0,2023-09-15T21:05:18.733Z,,0,1,,5550.94899998809,response,ISIC_0024846.JPG,8,ISIC_6381197.JPG,ISIC_0024846.JPG,false,1,keypress(m),500,288800.1999999881,288799.6999999881,283232.085,283242,283248.751,288815.195,8,400,38,,ISIC_6381197.JPG
break,html.Screen,4_37_1,2023-09-15T21:05:18.734Z,,0,,,NaN,,,,,,false,,,,288801.1999999881,288801,,288800.5,,288815.195,8,400,,,
break_continue,html.Screen,4_37_2,2023-09-15T21:05:18.735Z,,0,,,NaN,,,,,,false,,,,288801.59999996424,288801.5,,288801.39999997616,,288815.195,8,400,,,
sequence,flow.Sequence,4_37,2023-09-15T21:05:18.735Z,,0,,,5552.749000000011,completion,,,,,false,,,,288801.6999999881,288801.5,283232.085,283242,283248.751,288815.195,8,400,,,
trial,html.Screen,4_38_0,2023-09-15T21:05:23.525Z,,0,1,,4775.90499996423,response,ISIC_1020968.JPG,8,ISIC_0056246.JPG,ISIC_1020968.JPG,false,1,keypress(m),500,293591.59999996424,293591.09999996424,288798.529,288801.89999997616,288815.195,293598.857,8,400,39,,ISIC_0056246.JPG
break,html.Screen,4_38_1,2023-09-15T21:05:23.526Z,,0,,,NaN,,,,,,false,,,,293592.59999996424,293592.39999997616,,293591.89999997616,,293598.857,8,400,,,
break_continue,html.Screen,4_38_2,2023-09-15T21:05:23.526Z,,0,,,NaN,,,,,,false,,,,293593,293592.7999999523,,293592.6999999881,,293598.857,8,400,,,
sequence,flow.Sequence,4_38,2023-09-15T21:05:23.526Z,,0,,,4777.604999952309,completion,,,,,false,,,,293593.09999996424,293592.7999999523,288798.529,288801.7999999523,288815.195,293598.857,8,400,,,
trial,html.Screen,4_39_0,2023-09-15T21:05:28.493Z,,0,1,,4960.642999999982,response,ISIC_2076902.JPG,9,ISIC_2720971.JPG,ISIC_2076902.JPG,false,1,keypress(m),500,298560,298559.5,293582.191,293593.1999999881,293598.857,298565.325,8,400,40,,ISIC_2720971.JPG
break,html.Screen,4_39_1,2023-09-15T21:05:28.494Z,,0,,,NaN,,,,,,false,,,,298561,298560.7999999523,,298560.1999999881,,298565.325,8,400,,,
break_continue,html.Screen,4_39_2,2023-09-15T21:05:28.495Z,,0,,,NaN,,,,,,false,,,,298561.5,298561.2999999523,,298561.1999999881,,298565.325,8,400,,,
sequence,flow.Sequence,4_39,2023-09-15T21:05:28.495Z,,0,,,4962.442999952298,completion,,,,,false,,,,298561.59999996424,298561.2999999523,293582.191,293593.1999999881,293598.857,298565.325,8,400,,,
trial,html.Screen,4_40_0,2023-09-15T21:05:33.349Z,,0,1,,4849.874999988067,response,ISIC_9000901.JPG,8,ISIC_0011546.JPG,ISIC_9000901.JPG,false,1,keypress(m),500,303415.59999996424,303415.1999999881,298548.659,298561.7999999523,298565.325,303432.314,8,400,41,,ISIC_0011546.JPG
break,html.Screen,4_40_1,2023-09-15T21:05:33.350Z,,0,,,NaN,,,,,,false,,,,303416.59999996424,303416.5,,303415.89999997616,,303432.314,8,400,,,
break_continue,html.Screen,4_40_2,2023-09-15T21:05:33.350Z,,0,,,NaN,,,,,,false,,,,303417,303416.7999999523,,303416.6999999881,,303432.314,8,400,,,
sequence,flow.Sequence,4_40,2023-09-15T21:05:33.350Z,,0,,,4851.474999952305,completion,,,,,false,,,,303417.09999996424,303416.7999999523,298548.659,298561.6999999881,298565.325,303432.314,8,400,,,
trial,html.Screen,4_41_0,2023-09-15T21:05:38.109Z,,0,1,,4743.285999964224,response,ISIC_0025778.JPG,9,ISIC_0046429.JPG,ISIC_0046429.JPG,false,0,keypress(z),500,308176.09999996424,308175.59999996424,303415.648,303417.2999999523,303432.314,308182.124,8,400,42,,ISIC_0025778.JPG
break,html.Screen,4_41_1,2023-09-15T21:05:38.110Z,,0,,,NaN,,,,,,false,,,,308177.09999996424,308176.89999997616,,308176.39999997616,,308182.124,8,400,,,
break_continue,html.Screen,4_41_2,2023-09-15T21:05:38.111Z,,0,,,NaN,,,,,,false,,,,308177.5,308177.39999997616,,308177.2999999523,,308182.124,8,400,,,
sequence,flow.Sequence,4_41,2023-09-15T21:05:38.111Z,,0,,,4745.085999976145,completion,,,,,false,,,,308177.6999999881,308177.39999997616,303415.648,303417.2999999523,303432.314,308182.124,8,400,,,
trial,html.Screen,4_42_0,2023-09-15T21:05:43.893Z,,0,1,,5776.9759999642265,response,ISIC_5578239.JPG,8,ISIC_0744870.JPG,ISIC_5578239.JPG,false,1,keypress(m),500,313959.59999996424,313959.09999996424,308165.458,308177.89999997616,308182.124,313965.744,8,400,43,,ISIC_0744870.JPG
break,html.Screen,4_42_1,2023-09-15T21:05:43.894Z,,0,,,NaN,,,,,,false,,,,313960.6999999881,313960.5,,313960,,313965.744,8,400,,,
break_continue,html.Screen,4_42_2,2023-09-15T21:05:43.894Z,,0,,,NaN,,,,,,false,,,,313961.09999996424,313960.89999997616,,313960.6999999881,,313965.744,8,400,,,
sequence,flow.Sequence,4_42,2023-09-15T21:05:43.895Z,,0,,,5778.775999976147,completion,,,,,false,,,,313961.1999999881,313960.89999997616,308165.458,308177.7999999523,308182.124,313965.744,8,400,,,
trial,html.Screen,4_43_0,2023-09-15T21:05:48.837Z,,0,1,,4937.155999976152,response,ISIC_6577767.JPG,10,ISIC_0357043.JPG,ISIC_0357043.JPG,false,0,keypress(z),500,318903.2999999523,318902.89999997616,313949.078,313961.39999997616,313965.744,318915.546,8,400,44,,ISIC_6577767.JPG
break,html.Screen,4_43_1,2023-09-15T21:05:48.838Z,,0,,,NaN,,,,,,false,,,,318904.2999999523,318904.09999996424,,318903.59999996424,,318915.546,8,400,,,
break_continue,html.Screen,4_43_2,2023-09-15T21:05:48.838Z,,0,,,NaN,,,,,,false,,,,318904.6999999881,318904.59999996424,,318904.39999997616,,318915.546,8,400,,,
sequence,flow.Sequence,4_43,2023-09-15T21:05:48.838Z,,0,,,4938.855999964231,completion,,,,,false,,,,318904.89999997616,318904.59999996424,313949.078,313961.2999999523,313965.744,318915.546,8,400,,,
trial,html.Screen,4_44_0,2023-09-15T21:05:52.813Z,,0,1,,3963.853999976185,response,ISIC_8295152.JPG,10,ISIC_0033568.JPG,ISIC_8295152.JPG,false,1,keypress(m),500,322879.7999999523,322879.39999997616,318898.88,318905.09999996424,318915.546,322882.054,8,400,45,,ISIC_0033568.JPG
break,html.Screen,4_44_1,2023-09-15T21:05:52.814Z,,0,,,NaN,,,,,,false,,,,322880.89999997616,322880.6999999881,,322880.1999999881,,322882.054,8,400,,,
break_continue,html.Screen,4_44_2,2023-09-15T21:05:52.815Z,,0,,,NaN,,,,,,false,,,,322881.1999999881,322881.1999999881,,322881,,322882.054,8,400,,,
sequence,flow.Sequence,4_44,2023-09-15T21:05:52.815Z,,0,,,3965.653999988106,completion,,,,,false,,,,322881.39999997616,322881.1999999881,318898.88,318905,318915.546,322882.054,8,400,,,
trial,html.Screen,4_45_0,2023-09-15T21:05:58.005Z,,0,1,,5189.0459999642335,response,ISIC_1226882.JPG,9,ISIC_7545340.JPG,ISIC_1226882.JPG,false,1,keypress(m),500,328071.59999996424,328071.09999996424,322865.388,322881.5,322882.054,328082.479,8,400,46,,ISIC_7545340.JPG
break,html.Screen,4_45_1,2023-09-15T21:05:58.006Z,,0,,,NaN,,,,,,false,,,,328072.6999999881,328072.39999997616,,328072,,328082.479,8,400,,,
break_continue,html.Screen,4_45_2,2023-09-15T21:05:58.007Z,,0,,,NaN,,,,,,false,,,,328073.09999996424,328072.89999997616,,328072.89999997616,,328082.479,8,400,,,
sequence,flow.Sequence,4_45,2023-09-15T21:05:58.007Z,,0,,,5190.845999976154,completion,,,,,false,,,,328073.2999999523,328072.89999997616,322865.388,322881.5,322882.054,328082.479,8,400,,,
trial,html.Screen,4_46_0,2023-09-15T21:06:02.737Z,,0,1,,4720.920999976166,response,ISIC_1554992.JPG,9,ISIC_0068696.JPG,ISIC_1554992.JPG,false,1,keypress(m),500,332803.6999999881,332803.39999997616,328065.813,328073.5,328082.479,332832.289,8,400,47,,ISIC_0068696.JPG
break,html.Screen,4_46_1,2023-09-15T21:06:02.738Z,,0,,,NaN,,,,,,false,,,,332804.6999999881,332804.39999997616,,332803.89999997616,,332832.289,8,400,,,
break_continue,html.Screen,4_46_2,2023-09-15T21:06:02.739Z,,0,,,NaN,,,,,,false,,,,332805,332804.89999997616,,332804.7999999523,,332832.289,8,400,,,
sequence,flow.Sequence,4_46,2023-09-15T21:06:02.739Z,,0,,,4722.420999976166,completion,,,,,false,,,,332805.1999999881,332804.89999997616,328065.813,328073.39999997616,328082.479,332832.289,8,400,,,
trial,html.Screen,4_47_0,2023-09-15T21:06:06.741Z,,0,1,,3975.0109999523265,response,ISIC_0028071.JPG,13,ISIC_0033175.JPG,ISIC_0028071.JPG,false,1,keypress(m),500,336807.6999999881,336807.2999999523,332815.623,332805.2999999523,332832.289,336816.053,8,400,48,,ISIC_0033175.JPG
break,html.Screen,4_47_1,2023-09-15T21:06:06.742Z,,0,,,NaN,,,,,,false,,,,336808.7999999523,336808.5,,336808,,336816.053,8,400,,,
break_continue,html.Screen,4_47_2,2023-09-15T21:06:06.743Z,,0,,,NaN,,,,,,false,,,,336809.09999996424,336809,,336808.89999997616,,336816.053,8,400,,,
sequence,flow.Sequence,4_47,2023-09-15T21:06:06.743Z,,0,,,3976.7110000000102,completion,,,,,false,,,,336809.1999999881,336809,332815.623,332805.1999999881,332832.289,336816.053,8,400,,,
trial,html.Screen,4_48_0,2023-09-15T21:06:10.237Z,,0,1,,3487.4469999999856,response,ISIC_0061252.JPG,9,ISIC_5336548.JPG,ISIC_5336548.JPG,false,0,keypress(z),500,340303.89999997616,340303.5,336799.387,336809.39999997616,336816.053,340315.913,8,400,49,,ISIC_0061252.JPG
break,html.Screen,4_48_1,2023-09-15T21:06:10.238Z,,0,,,NaN,,,,,,false,,,,340304.7999999523,340304.59999996424,,340304.09999996424,,340315.913,8,400,,,
break_continue,html.Screen,4_48_2,2023-09-15T21:06:10.239Z,,0,,,NaN,,,,,,false,,,,340305.09999996424,340305.09999996424,,340304.89999997616,,340315.913,8,400,,,
sequence,flow.Sequence,4_48,2023-09-15T21:06:10.239Z,,0,,,3489.046999964223,completion,,,,,false,,,,340305.2999999523,340305.09999996424,336799.387,336809.39999997616,336816.053,340315.913,8,400,,,
trial,html.Screen,4_49_0,2023-09-15T21:06:15.030Z,,0,1,,4779.886999952316,response,ISIC_7826557.JPG,9,ISIC_1150482.JPG,ISIC_1150482.JPG,false,0,keypress(z),500,345096.1999999881,345095.7999999523,340299.247,340305.5,340315.913,345099.581,8,400,50,,ISIC_7826557.JPG
break,html.Screen,4_49_1,2023-09-15T21:06:25.021Z,,0,,,10000.121999999974,timeout,,,,,false,,,,355087,355083.037,345082.915,345096.5,345099.581,355099.703,8,400,,,
break_continue,html.Screen,4_49_2,2023-09-15T21:06:26.896Z,,0,,,1849.2970000000205,response,,,,,false,continue,keypress(Space),,356962,356949,355083.037,355087.1999999881,355099.703,356966.295,8,400,,,
sequence,flow.Sequence,4_49,2023-09-15T21:06:26.896Z,,0,,,16633.087,completion,,,,,false,,,,356962.1999999881,356949,340299.247,340305.39999997616,340315.913,356966.295,8,400,,,
trial,html.Screen,4_50_0,2023-09-15T21:06:30.406Z,,0,2,,3505.5049999523326,response,ISIC_4032636.JPG,8,ISIC_4907595.JPG,ISIC_4032636.JPG,false,1,keypress(m),500,360472.2999999523,360471.7999999523,356949.629,356962.2999999523,356966.295,360482.821,8,400,1,,ISIC_4907595.JPG
break,html.Screen,4_50_1,2023-09-15T21:06:30.407Z,,0,,,NaN,,,,,,false,,,,360473.2999999523,360473.09999996424,,360472.59999996424,,360482.821,8,400,,,
break_continue,html.Screen,4_50_2,2023-09-15T21:06:30.407Z,,0,,,NaN,,,,,,false,,,,360473.59999996424,360473.5,,360473.39999997616,,360482.821,8,400,,,
sequence,flow.Sequence,4_50,2023-09-15T21:06:30.407Z,,0,,,3507.2050000000163,completion,,,,,false,,,,360473.7999999523,360473.5,356949.629,356962.2999999523,356966.295,360482.821,8,400,,,
trial,html.Screen,4_51_0,2023-09-15T21:06:34.365Z,,0,2,,3948.278999964241,response,ISIC_0067891.JPG,9,ISIC_2682861.JPG,ISIC_2682861.JPG,false,0,keypress(z),500,364431.6999999881,364431.09999996424,360466.155,360474,360482.821,364432.663,8,400,2,,ISIC_0067891.JPG
break,html.Screen,4_51_1,2023-09-15T21:06:34.366Z,,0,,,NaN,,,,,,false,,,,364432.7999999523,364432.5,,364432.09999996424,,364432.663,8,400,,,
break_continue,html.Screen,4_51_2,2023-09-15T21:06:34.367Z,,0,,,NaN,,,,,,false,,,,364433.1999999881,364433,,364432.89999997616,,364432.663,8,400,,,
sequence,flow.Sequence,4_51,2023-09-15T21:06:34.367Z,,0,,,3950.1790000000037,completion,,,,,false,,,,364433.2999999523,364433,360466.155,360473.89999997616,360482.821,364432.663,8,400,,,
trial,html.Screen,4_52_0,2023-09-15T21:06:38.909Z,,0,2,,4542.236999976158,response,ISIC_0293086.JPG,9,ISIC_0072612.JPG,ISIC_0293086.JPG,false,1,keypress(m),500,368975.5,368974.89999997616,364415.997,364433.5,364432.663,368982.987,8,400,3,,ISIC_0072612.JPG
break,html.Screen,4_52_1,2023-09-15T21:06:38.910Z,,0,,,NaN,,,,,,false,,,,368976.5,368976.2999999523,,368975.7999999523,,368982.987,8,400,,,
break_continue,html.Screen,4_52_2,2023-09-15T21:06:38.911Z,,0,,,NaN,,,,,,false,,,,368976.89999997616,368976.7999999523,,368976.6999999881,,368982.987,8,400,,,
sequence,flow.Sequence,4_52,2023-09-15T21:06:38.911Z,,0,,,4544.136999952316,completion,,,,,false,,,,368977.1999999881,368976.7999999523,364415.997,364433.39999997616,364432.663,368982.987,8,400,,,
trial,html.Screen,4_53_0,2023-09-15T21:06:42.869Z,,0,2,,3952.3129999522935,response,ISIC_6381785.JPG,9,ISIC_1344537.JPG,ISIC_6381785.JPG,false,1,keypress(m),500,372935.6999999881,372935.2999999523,368966.321,368977.2999999523,368982.987,372949.495,8,400,4,,ISIC_1344537.JPG
break,html.Screen,4_53_1,2023-09-15T21:06:42.871Z,,0,,,NaN,,,,,,false,,,,372936.7999999523,372936.59999996424,,372936,,372949.495,8,400,,,
break_continue,html.Screen,4_53_2,2023-09-15T21:06:42.871Z,,0,,,NaN,,,,,,false,,,,372937.09999996424,372937,,372936.89999997616,,372949.495,8,400,,,
sequence,flow.Sequence,4_53,2023-09-15T21:06:42.871Z,,0,,,3954.012999999977,completion,,,,,false,,,,372937.2999999523,372937,368966.321,368977.1999999881,368982.987,372949.495,8,400,,,
trial,html.Screen,4_54_0,2023-09-15T21:06:46.388Z,,0,2,,3504.7049999880837,response,ISIC_0231167.JPG,9,ISIC_2015441.JPG,ISIC_0231167.JPG,false,1,keypress(m),500,376454.5,376454.1999999881,372932.829,372937.39999997616,372949.495,376466.616,8,400,5,,ISIC_2015441.JPG
break,html.Screen,4_54_1,2023-09-15T21:06:46.389Z,,0,,,NaN,,,,,,false,,,,376455.39999997616,376455.2999999523,,376454.6999999881,,376466.616,8,400,,,
break_continue,html.Screen,4_54_2,2023-09-15T21:06:46.390Z,,0,,,NaN,,,,,,false,,,,376455.7999999523,376455.59999996424,,376455.5,,376466.616,8,400,,,
sequence,flow.Sequence,4_54,2023-09-15T21:06:46.390Z,,0,,,3506.104999964242,completion,,,,,false,,,,376455.89999997616,376455.59999996424,372932.829,372937.39999997616,372949.495,376466.616,8,400,,,
trial,html.Screen,4_55_0,2023-09-15T21:06:50.918Z,,0,2,,4516.783999976178,response,ISIC_0011512.JPG,11,ISIC_0010466.JPG,ISIC_0010466.JPG,false,0,keypress(z),500,380983.89999997616,380983.39999997616,376449.95,376456,376466.616,380999.768,8,400,6,,ISIC_0011512.JPG
break,html.Screen,4_55_1,2023-09-15T21:06:50.919Z,,0,,,NaN,,,,,,false,,,,380984.89999997616,380984.6999999881,,380984.09999996424,,380999.768,8,400,,,
break_continue,html.Screen,4_55_2,2023-09-15T21:06:50.919Z,,0,,,NaN,,,,,,false,,,,380985.1999999881,380985.09999996424,,380985,,380999.768,8,400,,,
sequence,flow.Sequence,4_55,2023-09-15T21:06:50.919Z,,0,,,4518.483999964257,completion,,,,,false,,,,380985.2999999523,380985.09999996424,376449.95,376456,376466.616,380999.768,8,400,,,
trial,html.Screen,4_56_0,2023-09-15T21:06:55.509Z,,0,2,,4575.331999964255,response,ISIC_6370977.JPG,9,ISIC_0030353.JPG,ISIC_6370977.JPG,false,1,keypress(m),500,385575.59999996424,385575.09999996424,380983.102,380985.2999999523,380999.768,385582.918,8,400,7,,ISIC_0030353.JPG
break,html.Screen,4_56_1,2023-09-15T21:06:55.510Z,,0,,,NaN,,,,,,false,,,,385576.59999996424,385576.2999999523,,385575.7999999523,,385582.918,8,400,,,
break_continue,html.Screen,4_56_2,2023-09-15T21:06:55.511Z,,0,,,NaN,,,,,,false,,,,385576.89999997616,385576.7999999523,,385576.6999999881,,385582.918,8,400,,,
sequence,flow.Sequence,4_56,2023-09-15T21:06:55.511Z,,0,,,4577.031999952334,completion,,,,,false,,,,385577.09999996424,385576.7999999523,380983.102,380985.2999999523,380999.768,385582.918,8,400,,,
trial,html.Screen,4_57_0,2023-09-15T21:07:00.766Z,,0,2,,5248.781999988074,response,ISIC_0640806.JPG,10,ISIC_1781273.JPG,ISIC_1781273.JPG,false,0,keypress(z),500,390832,390831.6999999881,385566.252,385577.1999999881,385582.918,390833.217,8,400,8,,ISIC_0640806.JPG
break,html.Screen,4_57_1,2023-09-15T21:07:00.767Z,,0,,,NaN,,,,,,false,,,,390833.09999996424,390832.7999999523,,390832.2999999523,,390833.217,8,400,,,
break_continue,html.Screen,4_57_2,2023-09-15T21:07:00.767Z,,0,,,NaN,,,,,,false,,,,390833.39999997616,390833.39999997616,,390833.1999999881,,390833.217,8,400,,,
sequence,flow.Sequence,4_57,2023-09-15T21:07:00.767Z,,0,,,5250.481999976153,completion,,,,,false,,,,390833.59999996424,390833.39999997616,385566.252,385577.09999996424,385582.918,390833.217,8,400,,,
trial,html.Screen,4_58_0,2023-09-15T21:07:06.958Z,,0,2,,6190.282999999996,response,ISIC_0065039.JPG,10,ISIC_8892236.JPG,ISIC_0065039.JPG,false,1,keypress(m),500,397024,397023.5,390816.551,390833.7999999523,390833.217,397033.514,8,400,9,,ISIC_8892236.JPG
break,html.Screen,4_58_1,2023-09-15T21:07:06.959Z,,0,,,NaN,,,,,,false,,,,397024.89999997616,397024.7999999523,,397024.1999999881,,397033.514,8,400,,,
break_continue,html.Screen,4_58_2,2023-09-15T21:07:06.959Z,,0,,,NaN,,,,,,false,,,,397025.39999997616,397025.1999999881,,397025.09999996424,,397033.514,8,400,,,
sequence,flow.Sequence,4_58,2023-09-15T21:07:06.959Z,,0,,,6191.982999988075,completion,,,,,false,,,,397025.5,397025.1999999881,390816.551,390833.7999999523,390833.217,397033.514,8,400,,,
trial,html.Screen,4_59_0,2023-09-15T21:07:12.134Z,,0,2,,5165.8859999761335,response,ISIC_0749263.JPG,9,ISIC_0281179.JPG,ISIC_0749263.JPG,false,1,keypress(m),500,402199.89999997616,402199.39999997616,397016.848,397025.59999996424,397033.514,402216.64,8,400,10,,ISIC_0281179.JPG
break,html.Screen,4_59_1,2023-09-15T21:07:12.135Z,,0,,,NaN,,,,,,false,,,,402200.89999997616,402200.59999996424,,402200.1999999881,,402216.64,8,400,,,
break_continue,html.Screen,4_59_2,2023-09-15T21:07:12.135Z,,0,,,NaN,,,,,,false,,,,402201.2999999523,402201.09999996424,,402201,,402216.64,8,400,,,
sequence,flow.Sequence,4_59,2023-09-15T21:07:12.135Z,,0,,,5167.5859999642125,completion,,,,,false,,,,402201.5,402201.09999996424,397016.848,397025.59999996424,397033.514,402216.64,8,400,,,
trial,html.Screen,4_60_0,2023-09-15T21:07:16.830Z,,0,2,,4678.959999964223,response,ISIC_9852341.JPG,9,ISIC_0011798.JPG,ISIC_9852341.JPG,false,1,keypress(m),500,406896,406895.59999996424,402199.974,402201.59999996424,402216.64,406916.964,8,400,11,,ISIC_0011798.JPG
break,html.Screen,4_60_1,2023-09-15T21:07:16.831Z,,0,,,NaN,,,,,,false,,,,406897,406896.6999999881,,406896.1999999881,,406916.964,8,400,,,
break_continue,html.Screen,4_60_2,2023-09-15T21:07:16.831Z,,0,,,NaN,,,,,,false,,,,406897.2999999523,406897.1999999881,,406897,,406916.964,8,400,,,
sequence,flow.Sequence,4_60,2023-09-15T21:07:16.831Z,,0,,,4680.559999988065,completion,,,,,false,,,,406897.5,406897.1999999881,402199.974,402201.59999996424,402216.64,406916.964,8,400,,,
trial,html.Screen,4_61_0,2023-09-15T21:07:20.582Z,,0,2,,3730.43599997618,response,ISIC_8265105.JPG,9,ISIC_9684649.JPG,ISIC_8265105.JPG,false,1,keypress(m),500,410647.89999997616,410647.39999997616,406900.298,406897.59999996424,406916.964,410650.148,8,400,12,,ISIC_9684649.JPG
break,html.Screen,4_61_1,2023-09-15T21:07:20.583Z,,0,,,NaN,,,,,,false,,,,410648.7999999523,410648.6999999881,,410648.1999999881,,410650.148,8,400,,,
break_continue,html.Screen,4_61_2,2023-09-15T21:07:20.583Z,,0,,,NaN,,,,,,false,,,,410649.1999999881,410649.1999999881,,410649,,410650.148,8,400,,,
sequence,flow.Sequence,4_61,2023-09-15T21:07:20.583Z,,0,,,3732.235999988101,completion,,,,,false,,,,410649.5,410649.1999999881,406900.298,406897.5,406916.964,410650.148,8,400,,,
trial,html.Screen,4_62_0,2023-09-15T21:07:24.902Z,,0,2,,4317.15199995233,response,ISIC_0027076.JPG,9,ISIC_4107717.JPG,ISIC_0027076.JPG,false,1,keypress(m),500,414967.6999999881,414967.2999999523,410633.482,410649.59999996424,410650.148,414983.308,8,400,13,,ISIC_4107717.JPG
break,html.Screen,4_62_1,2023-09-15T21:07:24.903Z,,0,,,NaN,,,,,,false,,,,414968.7999999523,414968.5,,414968,,414983.308,8,400,,,
break_continue,html.Screen,4_62_2,2023-09-15T21:07:24.903Z,,0,,,NaN,,,,,,false,,,,414969.09999996424,414969,,414968.89999997616,,414983.308,8,400,,,
sequence,flow.Sequence,4_62,2023-09-15T21:07:24.903Z,,0,,,4318.8520000000135,completion,,,,,false,,,,414969.1999999881,414969,410633.482,410649.5,410650.148,414983.308,8,400,,,
trial,html.Screen,4_63_0,2023-09-15T21:07:28.494Z,,0,2,,3576.091999976139,response,ISIC_2927673.JPG,8,ISIC_7896667.JPG,ISIC_7896667.JPG,false,0,keypress(z),500,418559.7999999523,418559.39999997616,414966.642,414969.39999997616,414983.308,418567.022,8,400,14,,ISIC_2927673.JPG
break,html.Screen,4_63_1,2023-09-15T21:07:28.495Z,,0,,,NaN,,,,,,false,,,,418560.7999999523,418560.59999996424,,418560.09999996424,,418567.022,8,400,,,
break_continue,html.Screen,4_63_2,2023-09-15T21:07:28.495Z,,0,,,NaN,,,,,,false,,,,418561.1999999881,418561.09999996424,,418561,,418567.022,8,400,,,
sequence,flow.Sequence,4_63,2023-09-15T21:07:28.495Z,,0,,,3577.791999964218,completion,,,,,false,,,,418561.2999999523,418561.09999996424,414966.642,414969.39999997616,414983.308,418567.022,8,400,,,
trial,html.Screen,4_64_0,2023-09-15T21:07:34.054Z,,0,2,,5552.07799996424,response,ISIC_0032531.JPG,9,ISIC_5545874.JPG,ISIC_5545874.JPG,false,0,keypress(z),500,424119.59999996424,424119.09999996424,418550.356,418561.5,418567.022,424133.466,8,400,15,,ISIC_0032531.JPG
break,html.Screen,4_64_1,2023-09-15T21:07:34.055Z,,0,,,NaN,,,,,,false,,,,424120.5,424120.2999999523,,424119.89999997616,,424133.466,8,400,,,
break_continue,html.Screen,4_64_2,2023-09-15T21:07:34.055Z,,0,,,NaN,,,,,,false,,,,424121,424120.7999999523,,424120.7999999523,,424133.466,8,400,,,
sequence,flow.Sequence,4_64,2023-09-15T21:07:34.055Z,,0,,,5553.777999952319,completion,,,,,false,,,,424121.1999999881,424120.7999999523,418550.356,418561.5,418567.022,424133.466,8,400,,,
trial,html.Screen,4_65_0,2023-09-15T21:07:39.614Z,,0,2,,5545.733999988064,response,ISIC_5791954.JPG,10,ISIC_0884550.JPG,ISIC_0884550.JPG,false,0,keypress(z),500,429679.6999999881,429679.1999999881,424116.8,424121.2999999523,424133.466,429683.731,8,400,16,,ISIC_5791954.JPG
break,html.Screen,4_65_1,2023-09-15T21:07:39.615Z,,0,,,NaN,,,,,,false,,,,429680.6999999881,429680.39999997616,,429679.89999997616,,429683.731,8,400,,,
break_continue,html.Screen,4_65_2,2023-09-15T21:07:39.615Z,,0,,,NaN,,,,,,false,,,,429681,429680.89999997616,,429680.7999999523,,429683.731,8,400,,,
sequence,flow.Sequence,4_65,2023-09-15T21:07:39.615Z,,0,,,5547.433999976143,completion,,,,,false,,,,429681.1999999881,429680.89999997616,424116.8,424121.1999999881,424133.466,429683.731,8,400,,,
trial,html.Screen,4_66_0,2023-09-15T21:07:44.317Z,,0,2,,4699.068999952287,response,ISIC_0025571.JPG,9,ISIC_0011753.JPG,ISIC_0025571.JPG,false,1,keypress(m),500,434383.2999999523,434382.7999999523,429667.065,429681.2999999523,429683.731,434400.209,8,400,17,,ISIC_0011753.JPG
break,html.Screen,4_66_1,2023-09-15T21:07:44.318Z,,0,,,NaN,,,,,,false,,,,434384.2999999523,434384.09999996424,,434383.59999996424,,434400.209,8,400,,,
break_continue,html.Screen,4_66_2,2023-09-15T21:07:44.319Z,,0,,,NaN,,,,,,false,,,,434384.6999999881,434384.59999996424,,434384.39999997616,,434400.209,8,400,,,
sequence,flow.Sequence,4_66,2023-09-15T21:07:44.319Z,,0,,,4700.868999964208,completion,,,,,false,,,,434384.7999999523,434384.59999996424,429667.065,429681.2999999523,429683.731,434400.209,8,400,,,
trial,html.Screen,4_67_0,2023-09-15T21:07:47.822Z,,0,2,,3486.590999952343,response,ISIC_8492957.JPG,10,ISIC_9605122.JPG,ISIC_8492957.JPG,false,1,keypress(m),500,437887.39999997616,437886.7999999523,434383.543,434385,434400.209,437900.069,8,400,18,,ISIC_9605122.JPG
break,html.Screen,4_67_1,2023-09-15T21:07:47.823Z,,0,,,NaN,,,,,,false,,,,437888.2999999523,437888.09999996424,,437887.59999996424,,437900.069,8,400,,,
break_continue,html.Screen,4_67_2,2023-09-15T21:07:47.823Z,,0,,,NaN,,,,,,false,,,,437888.6999999881,437888.59999996424,,437888.39999997616,,437900.069,8,400,,,
sequence,flow.Sequence,4_67,2023-09-15T21:07:47.823Z,,0,,,3488.3909999642638,completion,,,,,false,,,,437888.89999997616,437888.59999996424,434383.543,434384.89999997616,434400.209,437900.069,8,400,,,
trial,html.Screen,4_68_0,2023-09-15T21:07:52.606Z,,0,2,,4771.230999952299,response,ISIC_7282415.JPG,9,ISIC_6793830.JPG,ISIC_6793830.JPG,false,0,keypress(z),500,442671.7999999523,442671.2999999523,437883.403,437889,437900.069,442683.88,8,400,19,,ISIC_7282415.JPG
break,html.Screen,4_68_1,2023-09-15T21:07:52.607Z,,0,,,NaN,,,,,,false,,,,442672.7999999523,442672.59999996424,,442672.09999996424,,442683.88,8,400,,,
break_continue,html.Screen,4_68_2,2023-09-15T21:07:52.607Z,,0,,,NaN,,,,,,false,,,,442673.1999999881,442673,,442673,,442683.88,8,400,,,
sequence,flow.Sequence,4_68,2023-09-15T21:07:52.608Z,,0,,,4772.930999999982,completion,,,,,false,,,,442673.2999999523,442673,437883.403,437889,437900.069,442683.88,8,400,,,
trial,html.Screen,4_69_0,2023-09-15T21:08:00.150Z,,0,2,,7531.419999952312,response,ISIC_0057978.JPG,9,ISIC_1552232.JPG,ISIC_0057978.JPG,false,1,keypress(m),500,450215.7999999523,450215.2999999523,442667.214,442673.5,442683.88,450217.507,8,400,20,,ISIC_1552232.JPG
break,html.Screen,4_69_1,2023-09-15T21:08:00.151Z,,0,,,NaN,,,,,,false,,,,450216.89999997616,450216.59999996424,,450216.09999996424,,450217.507,8,400,,,
break_continue,html.Screen,4_69_2,2023-09-15T21:08:00.151Z,,0,,,NaN,,,,,,false,,,,450217.1999999881,450217.09999996424,,450217,,450217.507,8,400,,,
sequence,flow.Sequence,4_69,2023-09-15T21:08:00.152Z,,0,,,7533.219999964233,completion,,,,,false,,,,450217.39999997616,450217.09999996424,442667.214,442673.39999997616,442683.88,450217.507,8,400,,,
trial,html.Screen,4_70_0,2023-09-15T21:08:04.758Z,,0,2,,4605.592999964254,response,ISIC_1937955.JPG,9,ISIC_7768567.JPG,ISIC_7768567.JPG,false,0,keypress(z),500,454823.59999996424,454823.09999996424,450200.841,450217.5,450217.507,454833.989,8,400,21,,ISIC_1937955.JPG
break,html.Screen,4_70_1,2023-09-15T21:08:04.759Z,,0,,,NaN,,,,,,false,,,,454824.59999996424,454824.2999999523,,454823.7999999523,,454833.989,8,400,,,
break_continue,html.Screen,4_70_2,2023-09-15T21:08:04.759Z,,0,,,NaN,,,,,,false,,,,454825,454824.7999999523,,454824.6999999881,,454833.989,8,400,,,
sequence,flow.Sequence,4_70,2023-09-15T21:08:04.759Z,,0,,,4607.292999952333,completion,,,,,false,,,,454825.09999996424,454824.7999999523,450200.841,450217.39999997616,450217.507,454833.989,8,400,,,
trial,html.Screen,4_71_0,2023-09-15T21:08:09.405Z,,0,2,,4636.110999964236,response,ISIC_9182492.JPG,9,ISIC_0361149.JPG,ISIC_0361149.JPG,false,0,keypress(z),500,459470.5,459470.09999996424,454817.323,454825.1999999881,454833.989,459483.803,8,400,22,,ISIC_9182492.JPG
break,html.Screen,4_71_1,2023-09-15T21:08:09.406Z,,0,,,NaN,,,,,,false,,,,459471.5,459471.2999999523,,459470.7999999523,,459483.803,8,400,,,
break_continue,html.Screen,4_71_2,2023-09-15T21:08:09.406Z,,0,,,NaN,,,,,,false,,,,459471.89999997616,459471.7999999523,,459471.6999999881,,459483.803,8,400,,,
sequence,flow.Sequence,4_71,2023-09-15T21:08:09.406Z,,0,,,4637.810999952315,completion,,,,,false,,,,459472,459471.7999999523,454817.323,454825.1999999881,454833.989,459483.803,8,400,,,
trial,html.Screen,4_72_0,2023-09-15T21:08:15.102Z,,0,2,,5683.296999964223,response,ISIC_7253401.JPG,11,ISIC_0010400.JPG,ISIC_7253401.JPG,false,1,keypress(m),500,465167.59999996424,465167.09999996424,459467.137,459472.2999999523,459483.803,465184.055,8,400,23,,ISIC_0010400.JPG
break,html.Screen,4_72_1,2023-09-15T21:08:15.103Z,,0,,,NaN,,,,,,false,,,,465168.6999999881,465168.5,,465168,,465184.055,8,400,,,
break_continue,html.Screen,4_72_2,2023-09-15T21:08:15.103Z,,0,,,NaN,,,,,,false,,,,465169.09999996424,465169,,465168.89999997616,,465184.055,8,400,,,
sequence,flow.Sequence,4_72,2023-09-15T21:08:15.104Z,,0,,,5685.196999999986,completion,,,,,false,,,,465169.2999999523,465169,459467.137,459472.1999999881,459483.803,465184.055,8,400,,,
trial,html.Screen,4_73_0,2023-09-15T21:08:20.134Z,,0,2,,5015.144999988086,response,ISIC_0062712.JPG,8,ISIC_0071892.JPG,ISIC_0062712.JPG,false,1,keypress(m),500,470199.59999996424,470199.1999999881,465167.389,465169.39999997616,465184.055,470200.521,8,400,24,,ISIC_0071892.JPG
break,html.Screen,4_73_1,2023-09-15T21:08:20.135Z,,0,,,NaN,,,,,,false,,,,470200.59999996424,470200.39999997616,,470199.89999997616,,470200.521,8,400,,,
break_continue,html.Screen,4_73_2,2023-09-15T21:08:20.135Z,,0,,,NaN,,,,,,false,,,,470201,470200.7999999523,,470200.6999999881,,470200.521,8,400,,,
sequence,flow.Sequence,4_73,2023-09-15T21:08:20.136Z,,0,,,5016.744999952323,completion,,,,,false,,,,470201.1999999881,470200.7999999523,465167.389,465169.39999997616,465184.055,470200.521,8,400,,,
trial,html.Screen,4_74_0,2023-09-15T21:08:28.070Z,,0,2,,7934.678999988071,response,ISIC_0028481.JPG,9,ISIC_0060832.JPG,ISIC_0060832.JPG,false,0,keypress(z),500,478135.5,478135.1999999881,470183.855,470201.2999999523,470200.521,478150.735,8,400,25,,ISIC_0028481.JPG
break,html.Screen,4_74_1,2023-09-15T21:08:28.071Z,,0,,,NaN,,,,,,false,,,,478136.2999999523,478136.09999996424,,478135.7999999523,,478150.735,8,400,,,
break_continue,html.Screen,4_74_2,2023-09-15T21:08:28.071Z,,0,,,NaN,,,,,,false,,,,478136.6999999881,478136.5,,478136.39999997616,,478150.735,8,400,,,
sequence,flow.Sequence,4_74,2023-09-15T21:08:28.071Z,,0,,,7935.978999999992,completion,,,,,false,,,,478136.7999999523,478136.5,470183.855,470201.1999999881,470200.521,478150.735,8,400,,,
trial,html.Screen,4_75_0,2023-09-15T21:08:33.038Z,,0,2,,4952.56499995233,response,ISIC_5736979.JPG,10,ISIC_0011343.JPG,ISIC_0011343.JPG,false,0,keypress(z),500,483103.6999999881,483103.2999999523,478134.069,478136.89999997616,478150.735,483117.77,8,400,26,,ISIC_5736979.JPG
break,html.Screen,4_75_1,2023-09-15T21:08:33.039Z,,0,,,NaN,,,,,,false,,,,483104.6999999881,483104.5,,483104,,483117.77,8,400,,,
break_continue,html.Screen,4_75_2,2023-09-15T21:08:33.040Z,,0,,,NaN,,,,,,false,,,,483105.09999996424,483104.89999997616,,483104.7999999523,,483117.77,8,400,,,
sequence,flow.Sequence,4_75,2023-09-15T21:08:33.040Z,,0,,,4954.164999976172,completion,,,,,false,,,,483105.2999999523,483104.89999997616,478134.069,478136.89999997616,478150.735,483117.77,8,400,,,
trial,html.Screen,4_76_0,2023-09-15T21:08:37.774Z,,0,2,,4721.529999952298,response,ISIC_5810196.JPG,9,ISIC_6392461.JPG,ISIC_5810196.JPG,false,1,keypress(m),500,487839.6999999881,487839.2999999523,483101.104,483105.39999997616,483117.77,487850.914,8,400,27,,ISIC_6392461.JPG
break,html.Screen,4_76_1,2023-09-15T21:08:37.775Z,,0,,,NaN,,,,,,false,,,,487840.89999997616,487840.59999996424,,487840.09999996424,,487850.914,8,400,,,
break_continue,html.Screen,4_76_2,2023-09-15T21:08:37.776Z,,0,,,NaN,,,,,,false,,,,487841.1999999881,487841.09999996424,,487841,,487850.914,8,400,,,
sequence,flow.Sequence,4_76,2023-09-15T21:08:37.776Z,,0,,,4723.329999964219,completion,,,,,false,,,,487841.39999997616,487841.09999996424,483101.104,483105.2999999523,483117.77,487850.914,8,400,,,
trial,html.Screen,4_77_0,2023-09-15T21:08:41.414Z,,0,2,,3628.3859999523265,response,ISIC_0033954.JPG,9,ISIC_7596681.JPG,ISIC_0033954.JPG,false,1,keypress(m),500,491479.7999999523,491479.2999999523,487834.248,487841.59999996424,487850.914,491484.102,8,400,28,,ISIC_7596681.JPG
break,html.Screen,4_77_1,2023-09-15T21:08:41.415Z,,0,,,NaN,,,,,,false,,,,491480.89999997616,491480.59999996424,,491480.09999996424,,491484.102,8,400,,,
break_continue,html.Screen,4_77_2,2023-09-15T21:08:41.416Z,,0,,,NaN,,,,,,false,,,,491481.1999999881,491481.09999996424,,491481,,491484.102,8,400,,,
sequence,flow.Sequence,4_77,2023-09-15T21:08:41.416Z,,0,,,3630.1859999642475,completion,,,,,false,,,,491481.39999997616,491481.09999996424,487834.248,487841.5,487850.914,491484.102,8,400,,,
trial,html.Screen,4_78_0,2023-09-15T21:08:45.534Z,,0,2,,4115.197999952303,response,ISIC_0030666.JPG,6,ISIC_0026853.JPG,ISIC_0030666.JPG,false,1,keypress(m),500,495599.7999999523,495599.2999999523,491467.436,491481.59999996424,491484.102,495601.199,8,400,29,,ISIC_0026853.JPG
break,html.Screen,4_78_1,2023-09-15T21:08:45.535Z,,0,,,NaN,,,,,,false,,,,495600.7999999523,495600.59999996424,,495600.09999996424,,495601.199,8,400,,,
break_continue,html.Screen,4_78_2,2023-09-15T21:08:45.536Z,,0,,,NaN,,,,,,false,,,,495601.1999999881,495601,,495600.89999997616,,495601.199,8,400,,,
sequence,flow.Sequence,4_78,2023-09-15T21:08:45.536Z,,0,,,4116.8979999999865,completion,,,,,false,,,,495601.39999997616,495601,491467.436,491481.5,491484.102,495601.199,8,400,,,
trial,html.Screen,4_79_0,2023-09-15T21:08:48.886Z,,0,2,,3350.0009999880567,response,ISIC_0028751.JPG,9,ISIC_7697022.JPG,ISIC_7697022.JPG,false,0,keypress(z),500,498951.7999999523,498951.1999999881,495584.533,495601.5,495601.199,498967.731,8,400,30,,ISIC_0028751.JPG
break,html.Screen,4_79_1,2023-09-15T21:08:48.887Z,,0,,,NaN,,,,,,false,,,,498952.7999999523,498952.5,,498952,,498967.731,8,400,,,
break_continue,html.Screen,4_79_2,2023-09-15T21:08:48.888Z,,0,,,NaN,,,,,,false,,,,498953.1999999881,498953,,498952.89999997616,,498967.731,8,400,,,
sequence,flow.Sequence,4_79,2023-09-15T21:08:48.888Z,,0,,,3351.8009999999776,completion,,,,,false,,,,498953.2999999523,498953,495584.533,495601.39999997616,495601.199,498967.731,8,400,,,
trial,html.Screen,4_80_0,2023-09-15T21:08:53.062Z,,0,2,,4159.46899998805,response,ISIC_0340453.JPG,9,ISIC_9280171.JPG,ISIC_0340453.JPG,false,1,keypress(m),500,503127.6999999881,503127.1999999881,498951.065,498953.39999997616,498967.731,503134.231,8,400,31,,ISIC_9280171.JPG
break,html.Screen,4_80_1,2023-09-15T21:08:53.063Z,,0,,,NaN,,,,,,false,,,,503128.6999999881,503128.5,,503128,,503134.231,8,400,,,
break_continue,html.Screen,4_80_2,2023-09-15T21:08:53.064Z,,0,,,NaN,,,,,,false,,,,503129.09999996424,503128.89999997616,,503128.89999997616,,503134.231,8,400,,,
sequence,flow.Sequence,4_80,2023-09-15T21:08:53.064Z,,0,,,4161.168999976129,completion,,,,,false,,,,503129.2999999523,503128.89999997616,498951.065,498953.39999997616,498967.731,503134.231,8,400,,,
trial,html.Screen,4_81_0,2023-09-15T21:08:57.030Z,,0,2,,3960.768999999971,response,ISIC_6406517.JPG,9,ISIC_1739667.JPG,ISIC_1739667.JPG,false,0,keypress(z),500,507095.5,507095,503117.565,503129.5,503134.231,507101.255,8,400,32,,ISIC_6406517.JPG
break,html.Screen,4_81_1,2023-09-15T21:08:57.031Z,,0,,,NaN,,,,,,false,,,,507096.5,507096.2999999523,,507095.7999999523,,507101.255,8,400,,,
break_continue,html.Screen,4_81_2,2023-09-15T21:08:57.032Z,,0,,,NaN,,,,,,false,,,,507097,507096.7999999523,,507096.6999999881,,507101.255,8,400,,,
sequence,flow.Sequence,4_81,2023-09-15T21:08:57.032Z,,0,,,3962.5689999522874,completion,,,,,false,,,,507097.1999999881,507096.7999999523,503117.565,503129.2999999523,503134.231,507101.255,8,400,,,
trial,html.Screen,4_82_0,2023-09-15T21:09:02.134Z,,0,2,,5097.844999964233,response,ISIC_1368336.JPG,9,ISIC_5164416.JPG,ISIC_1368336.JPG,false,1,keypress(m),500,512199.5,512199.09999996424,507084.589,507097.2999999523,507101.255,512201.051,8,400,33,,ISIC_5164416.JPG
break,html.Screen,4_82_1,2023-09-15T21:09:02.135Z,,0,,,NaN,,,,,,false,,,,512200.39999997616,512200.2999999523,,512199.7999999523,,512201.051,8,400,,,
break_continue,html.Screen,4_82_2,2023-09-15T21:09:02.136Z,,0,,,NaN,,,,,,false,,,,512200.7999999523,512200.6999999881,,512200.59999996424,,512201.051,8,400,,,
sequence,flow.Sequence,4_82,2023-09-15T21:09:02.136Z,,0,,,5099.444999988074,completion,,,,,false,,,,512201,512200.6999999881,507084.589,507097.2999999523,507101.255,512201.051,8,400,,,
trial,html.Screen,4_83_0,2023-09-15T21:09:06.191Z,,0,2,,4054.6489999881014,response,ISIC_0032383.JPG,9,ISIC_0033806.JPG,ISIC_0032383.JPG,false,1,keypress(m),500,516256.09999996424,516255.6999999881,512184.385,512201.1999999881,512201.051,516268.051,8,400,34,,ISIC_0033806.JPG
break,html.Screen,4_83_1,2023-09-15T21:09:06.192Z,,0,,,NaN,,,,,,false,,,,516257.1999999881,516257,,516256.39999997616,,516268.051,8,400,,,
break_continue,html.Screen,4_83_2,2023-09-15T21:09:06.192Z,,0,,,NaN,,,,,,false,,,,516257.59999996424,516257.39999997616,,516257.2999999523,,516268.051,8,400,,,
sequence,flow.Sequence,4_83,2023-09-15T21:09:06.192Z,,0,,,4056.3489999761805,completion,,,,,false,,,,516257.6999999881,516257.39999997616,512184.385,512201.1999999881,512201.051,516268.051,8,400,,,
trial,html.Screen,4_84_0,2023-09-15T21:09:10.015Z,,0,2,,3811.6489999881014,response,ISIC_0010401.JPG,9,ISIC_0027359.JPG,ISIC_0027359.JPG,false,0,keypress(z),500,520080.1999999881,520079.6999999881,516251.385,516257.7999999523,516268.051,520084.565,8,400,35,,ISIC_0010401.JPG
break,html.Screen,4_84_1,2023-09-15T21:09:10.016Z,,0,,,NaN,,,,,,false,,,,520081.2999999523,520081.09999996424,,520080.5,,520084.565,8,400,,,
break_continue,html.Screen,4_84_2,2023-09-15T21:09:10.016Z,,0,,,NaN,,,,,,false,,,,520081.59999996424,520081.5,,520081.39999997616,,520084.565,8,400,,,
sequence,flow.Sequence,4_84,2023-09-15T21:09:10.017Z,,0,,,3813.4490000000224,completion,,,,,false,,,,520081.7999999523,520081.5,516251.385,516257.7999999523,516268.051,520084.565,8,400,,,
trial,html.Screen,4_85_0,2023-09-15T21:09:13.326Z,,0,2,,3306.4349999999977,response,ISIC_6868089.JPG,9,ISIC_0011530.JPG,ISIC_6868089.JPG,false,1,keypress(m),500,523391.39999997616,523391,520067.899,520082,520084.565,523401.099,8,400,36,,ISIC_0011530.JPG
break,html.Screen,4_85_1,2023-09-15T21:09:13.327Z,,0,,,NaN,,,,,,false,,,,523392.5,523392.2999999523,,523391.6999999881,,523401.099,8,400,,,
break_continue,html.Screen,4_85_2,2023-09-15T21:09:13.328Z,,0,,,NaN,,,,,,false,,,,523392.7999999523,523392.7999999523,,523392.6999999881,,523401.099,8,400,,,
sequence,flow.Sequence,4_85,2023-09-15T21:09:13.328Z,,0,,,3308.234999952314,completion,,,,,false,,,,523393.09999996424,523392.7999999523,520067.899,520081.89999997616,520084.565,523401.099,8,400,,,
trial,html.Screen,4_86_0,2023-09-15T21:09:17.294Z,,0,2,,3957.9010000000126,response,ISIC_0011344.JPG,9,ISIC_0029944.JPG,ISIC_0011344.JPG,false,1,keypress(m),500,527359.5,527359,523384.433,523393.09999996424,523401.099,527368.156,8,400,37,,ISIC_0029944.JPG
break,html.Screen,4_86_1,2023-09-15T21:09:17.295Z,,0,,,NaN,,,,,,false,,,,527360.3999999762,527360.1999999881,,527359.6999999881,,527368.156,8,400,,,
break_continue,html.Screen,4_86_2,2023-09-15T21:09:17.296Z,,0,,,NaN,,,,,,false,,,,527360.8999999762,527360.6999999881,,527360.5999999642,,527368.156,8,400,,,
sequence,flow.Sequence,4_86,2023-09-15T21:09:17.296Z,,0,,,3959.6009999880916,completion,,,,,false,,,,527361,527360.6999999881,523384.433,523393.09999996424,523401.099,527368.156,8,400,,,
trial,html.Screen,4_87_0,2023-09-15T21:09:20.767Z,,0,2,,3463.344000000041,response,ISIC_0025458.JPG,9,ISIC_3771332.JPG,ISIC_3771332.JPG,false,0,keypress(z),500,530831.8999999762,530831.5,527351.49,527361.0999999642,527368.156,530834.684,8,400,38,,ISIC_0025458.JPG
break,html.Screen,4_87_1,2023-09-15T21:09:20.768Z,,0,,,NaN,,,,,,false,,,,530832.8999999762,530832.6999999881,,530832.1999999881,,530834.684,8,400,,,
break_continue,html.Screen,4_87_2,2023-09-15T21:09:20.768Z,,0,,,NaN,,,,,,false,,,,530833.2999999523,530833.1999999881,,530833.0999999642,,530834.684,8,400,,,
sequence,flow.Sequence,4_87,2023-09-15T21:09:20.768Z,,0,,,3465.04399998812,completion,,,,,false,,,,530833.3999999762,530833.1999999881,527351.49,527361,527368.156,530834.684,8,400,,,
trial,html.Screen,4_88_0,2023-09-15T21:09:24.919Z,,0,2,,4148.415999964229,response,ISIC_0031325.JPG,9,ISIC_0013652.JPG,ISIC_0013652.JPG,false,0,keypress(z),500,534983.6999999881,534983.0999999642,530818.018,530833.5999999642,530834.684,534985.007,8,400,39,,ISIC_0031325.JPG
break,html.Screen,4_88_1,2023-09-15T21:09:24.920Z,,0,,,NaN,,,,,,false,,,,534984.6999999881,534984.5,,534983.8999999762,,534985.007,8,400,,,
break_continue,html.Screen,4_88_2,2023-09-15T21:09:24.920Z,,0,,,NaN,,,,,,false,,,,534985.0999999642,534985,,534984.8999999762,,534985.007,8,400,,,
sequence,flow.Sequence,4_88,2023-09-15T21:09:24.920Z,,0,,,4150.315999999992,completion,,,,,false,,,,534985.1999999881,534985,530818.018,530833.5999999642,530834.684,534985.007,8,400,,,
trial,html.Screen,4_89_0,2023-09-15T21:09:32.191Z,,0,2,,7270.192999988096,response,ISIC_0011375.JPG,9,ISIC_4782878.JPG,ISIC_4782878.JPG,false,0,keypress(z),500,542255.6999999881,542255.1999999881,534968.341,534985.2999999523,534985.007,542268.049,8,400,40,,ISIC_0011375.JPG
break,html.Screen,4_89_1,2023-09-15T21:09:32.192Z,,0,,,NaN,,,,,,false,,,,542256.6999999881,542256.5999999642,,542256,,542268.049,8,400,,,
break_continue,html.Screen,4_89_2,2023-09-15T21:09:32.192Z,,0,,,NaN,,,,,,false,,,,542257.0999999642,542257,,542256.7999999523,,542268.049,8,400,,,
sequence,flow.Sequence,4_89,2023-09-15T21:09:32.192Z,,0,,,7271.993000000017,completion,,,,,false,,,,542257.2999999523,542257,534968.341,534985.2999999523,534985.007,542268.049,8,400,,,
trial,html.Screen,4_90_0,2023-09-15T21:09:36.430Z,,0,2,,4226.951000000001,response,ISIC_3673080.JPG,9,ISIC_4938638.JPG,ISIC_4938638.JPG,false,0,keypress(z),500,546495.5,546495,542251.383,542257.3999999762,542268.049,546501.844,8,400,41,,ISIC_3673080.JPG
break,html.Screen,4_90_1,2023-09-15T21:09:36.432Z,,0,,,NaN,,,,,,false,,,,546496.5,546496.2999999523,,546495.7999999523,,546501.844,8,400,,,
break_continue,html.Screen,4_90_2,2023-09-15T21:09:36.432Z,,0,,,NaN,,,,,,false,,,,546497,546496.7999999523,,546496.6999999881,,546501.844,8,400,,,
sequence,flow.Sequence,4_90,2023-09-15T21:09:36.432Z,,0,,,4228.750999952317,completion,,,,,false,,,,546497.0999999642,546496.7999999523,542251.383,542257.2999999523,542268.049,546501.844,8,400,,,
trial,html.Screen,4_91_0,2023-09-15T21:09:40.215Z,,0,2,,3777.355999988038,response,ISIC_2126035.JPG,9,ISIC_0490442.JPG,ISIC_2126035.JPG,false,1,keypress(m),500,550279.7999999523,550279.1999999881,546485.178,546497.1999999881,546501.844,550285.026,8,400,42,,ISIC_0490442.JPG
break,html.Screen,4_91_1,2023-09-15T21:09:40.216Z,,0,,,NaN,,,,,,false,,,,550280.8999999762,550280.5999999642,,550280.0999999642,,550285.026,8,400,,,
break_continue,html.Screen,4_91_2,2023-09-15T21:09:40.216Z,,0,,,NaN,,,,,,false,,,,550281.1999999881,550281,,550280.8999999762,,550285.026,8,400,,,
sequence,flow.Sequence,4_91,2023-09-15T21:09:40.216Z,,0,,,3779.155999999959,completion,,,,,false,,,,550281.3999999762,550281,546485.178,546497.1999999881,546501.844,550285.026,8,400,,,
trial,html.Screen,4_92_0,2023-09-15T21:09:43.359Z,,0,2,,3138.4740000000456,response,ISIC_7567699.JPG,9,ISIC_5583159.JPG,ISIC_5583159.JPG,false,0,keypress(z),500,553424.0999999642,553423.5,550268.36,550281.5,550285.026,553434.9,8,400,43,,ISIC_7567699.JPG
break,html.Screen,4_92_1,2023-09-15T21:09:43.360Z,,0,,,NaN,,,,,,false,,,,553425.0999999642,553424.7999999523,,553424.2999999523,,553434.9,8,400,,,
break_continue,html.Screen,4_92_2,2023-09-15T21:09:43.360Z,,0,,,NaN,,,,,,false,,,,553425.5,553425.2999999523,,553425.1999999881,,553434.9,8,400,,,
sequence,flow.Sequence,4_92,2023-09-15T21:09:43.361Z,,0,,,3140.273999952362,completion,,,,,false,,,,553425.5999999642,553425.2999999523,550268.36,550281.5,550285.026,553434.9,8,400,,,
trial,html.Screen,4_93_0,2023-09-15T21:09:47.247Z,,0,2,,3876.199999964214,response,ISIC_7404937.JPG,8,ISIC_2915747.JPG,ISIC_7404937.JPG,false,1,keypress(m),500,557311.5999999642,557311.0999999642,553418.234,553425.7999999523,553434.9,557318.612,8,400,44,,ISIC_2915747.JPG
break,html.Screen,4_93_1,2023-09-15T21:09:47.248Z,,0,,,NaN,,,,,,false,,,,557312.6999999881,557312.5,,557311.8999999762,,557318.612,8,400,,,
break_continue,html.Screen,4_93_2,2023-09-15T21:09:47.248Z,,0,,,NaN,,,,,,false,,,,557313.0999999642,557312.8999999762,,557312.7999999523,,557318.612,8,400,,,
sequence,flow.Sequence,4_93,2023-09-15T21:09:47.248Z,,0,,,3877.999999976135,completion,,,,,false,,,,557313.2999999523,557312.8999999762,553418.234,553425.6999999881,553434.9,557318.612,8,400,,,
trial,html.Screen,4_94_0,2023-09-15T21:09:51.095Z,,0,2,,3840.4879999642726,response,ISIC_0059891.JPG,10,ISIC_0006717.JPG,ISIC_0006717.JPG,false,0,keypress(z),500,561159.5,561159.0999999642,557301.946,557313.3999999762,557318.612,561168.458,8,400,45,,ISIC_0059891.JPG
break,html.Screen,4_94_1,2023-09-15T21:09:51.095Z,,0,,,NaN,,,,,,false,,,,561160.1999999881,561160,,561159.6999999881,,561168.458,8,400,,,
break_continue,html.Screen,4_94_2,2023-09-15T21:09:51.096Z,,0,,,NaN,,,,,,false,,,,561160.3999999762,561160.3999999762,,561160.2999999523,,561168.458,8,400,,,
sequence,flow.Sequence,4_94,2023-09-15T21:09:51.096Z,,0,,,3841.7879999761935,completion,,,,,false,,,,561160.5999999642,561160.3999999762,557301.946,557313.3999999762,557318.612,561168.458,8,400,,,
trial,html.Screen,4_95_0,2023-09-15T21:09:54.615Z,,0,2,,3510.542000000016,response,ISIC_7758102.JPG,10,ISIC_5578611.JPG,ISIC_5578611.JPG,false,0,keypress(z),500,564679.3999999762,564679,561151.792,561160.5999999642,561168.458,564684.984,8,400,46,,ISIC_7758102.JPG
break,html.Screen,4_95_1,2023-09-15T21:09:54.616Z,,0,,,NaN,,,,,,false,,,,564680.5,564680.2999999523,,564679.7999999523,,564684.984,8,400,,,
break_continue,html.Screen,4_95_2,2023-09-15T21:09:54.616Z,,0,,,NaN,,,,,,false,,,,564680.7999999523,564680.6999999881,,564680.5999999642,,564684.984,8,400,,,
sequence,flow.Sequence,4_95,2023-09-15T21:09:54.616Z,,0,,,3512.241999988095,completion,,,,,false,,,,564681.0999999642,564680.6999999881,561151.792,561160.5999999642,561168.458,564684.984,8,400,,,
trial,html.Screen,4_96_0,2023-09-15T21:09:57.271Z,,0,2,,2650.515999999945,response,ISIC_2029418.JPG,9,ISIC_1358527.JPG,ISIC_2029418.JPG,false,1,keypress(m),500,567336,567335.5,564668.318,564681.2999999523,564684.984,567335.4,8,400,47,,ISIC_1358527.JPG
break,html.Screen,4_96_1,2023-09-15T21:09:57.272Z,,0,,,NaN,,,,,,false,,,,567337,567336.7999999523,,567336.2999999523,,567335.4,8,400,,,
break_continue,html.Screen,4_96_2,2023-09-15T21:09:57.272Z,,0,,,NaN,,,,,,false,,,,567337.2999999523,567337.1999999881,,567337.0999999642,,567335.4,8,400,,,
sequence,flow.Sequence,4_96,2023-09-15T21:09:57.273Z,,0,,,2652.215999988024,completion,,,,,false,,,,567337.5,567337.1999999881,564668.318,564681.1999999881,564684.984,567335.4,8,400,,,
trial,html.Screen,4_97_0,2023-09-15T21:10:00.807Z,,0,2,,3535.899999952293,response,ISIC_0011505.JPG,9,ISIC_0064298.JPG,ISIC_0064298.JPG,false,0,keypress(z),500,570871.8999999762,570871.2999999523,567318.734,567337.6999999881,567335.4,570885.258,8,400,48,,ISIC_0011505.JPG
break,html.Screen,4_97_1,2023-09-15T21:10:00.808Z,,0,,,NaN,,,,,,false,,,,570872.8999999762,570872.6999999881,,570872.1999999881,,570885.258,8,400,,,
break_continue,html.Screen,4_97_2,2023-09-15T21:10:00.808Z,,0,,,NaN,,,,,,false,,,,570873.2999999523,570873.0999999642,,570873.0999999642,,570885.258,8,400,,,
sequence,flow.Sequence,4_97,2023-09-15T21:10:00.809Z,,0,,,3537.699999964214,completion,,,,,false,,,,570873.3999999762,570873.0999999642,567318.734,567337.5999999642,567335.4,570885.258,8,400,,,
trial,html.Screen,4_98_0,2023-09-15T21:10:04.103Z,,0,2,,3282.2419999999693,response,ISIC_2953279.JPG,10,ISIC_0568867.JPG,ISIC_2953279.JPG,false,1,keypress(m),500,574167.8999999762,574167.5,570868.592,570873.5999999642,570885.258,574185.126,8,400,49,,ISIC_0568867.JPG
break,html.Screen,4_98_1,2023-09-15T21:10:04.104Z,,0,,,NaN,,,,,,false,,,,574168.8999999762,574168.6999999881,,574168.1999999881,,574185.126,8,400,,,
break_continue,html.Screen,4_98_2,2023-09-15T21:10:04.104Z,,0,,,NaN,,,,,,false,,,,574169.1999999881,574169.0999999642,,574169,,574185.126,8,400,,,
sequence,flow.Sequence,4_98,2023-09-15T21:10:04.105Z,,0,,,3283.8419999642065,completion,,,,,false,,,,574169.3999999762,574169.0999999642,570868.592,570873.5,570885.258,574185.126,8,400,,,
trial,html.Screen,4_99_0,2023-09-15T21:10:09.415Z,,0,2,,5294.47399996419,response,ISIC_7139908.JPG,10,ISIC_0026112.JPG,ISIC_7139908.JPG,false,1,keypress(m),500,579480,579479.5999999642,574168.46,574169.5,574185.126,579485.436,8,400,50,,ISIC_0026112.JPG
break,html.Screen,4_99_1,2023-09-15T21:10:19.409Z,,0,,,10000.14300000004,timeout,,,,,false,,,,589473.3999999762,589468.913,579468.77,579480.0999999642,579485.436,589485.579,8,400,,,
break_continue,html.Screen,4_99_2,2023-09-15T21:10:39.280Z,,0,,,19846.420999999973,response,,,,,false,continue,keypress(Space),,609345.0999999642,609332,589468.913,589473.5999999642,589485.579,609351.451,8,400,,,
sequence,flow.Sequence,4_99,2023-09-15T21:10:39.281Z,,0,,,35146.87399999995,completion,,,,,false,,,,609345.1999999881,609332,574168.46,574169.3999999762,574185.126,609351.451,8,400,,,
trial,html.Screen,4_100_0,2023-09-15T21:10:43.671Z,,0,3,,4384.048999999999,response,ISIC_6292348.JPG,10,ISIC_0028338.JPG,ISIC_6292348.JPG,false,1,keypress(m),500,613735.7999999523,613735.5,609334.785,609345.1999999881,609351.451,613752.451,8,400,1,,ISIC_0028338.JPG
break,html.Screen,4_100_1,2023-09-15T21:10:43.672Z,,0,,,NaN,,,,,,false,,,,613737,613736.7999999523,,613736.1999999881,,613752.451,8,400,,,
break_continue,html.Screen,4_100_2,2023-09-15T21:10:43.673Z,,0,,,NaN,,,,,,false,,,,613737.2999999523,613737.1999999881,,613737.0999999642,,613752.451,8,400,,,
sequence,flow.Sequence,4_100,2023-09-15T21:10:43.673Z,,0,,,4385.748999988078,completion,,,,,false,,,,613737.5,613737.1999999881,609334.785,609345.1999999881,609351.451,613752.451,8,400,,,
trial,html.Screen,4_101_0,2023-09-15T21:10:46.744Z,,0,3,,3055.3489999523154,response,ISIC_3702669.JPG,9,ISIC_0030843.JPG,ISIC_3702669.JPG,false,1,keypress(m),500,616808.1999999881,616807.7999999523,613735.785,613737.5999999642,613752.451,616818.995,8,400,2,,ISIC_0030843.JPG
break,html.Screen,4_101_1,2023-09-15T21:10:46.745Z,,0,,,NaN,,,,,,false,,,,616809.2999999523,616809.0999999642,,616808.5,,616818.995,8,400,,,
break_continue,html.Screen,4_101_2,2023-09-15T21:10:46.745Z,,0,,,NaN,,,,,,false,,,,616809.7999999523,616809.6999999881,,616809.3999999762,,616818.995,8,400,,,
sequence,flow.Sequence,4_101,2023-09-15T21:10:46.745Z,,0,,,3057.248999988078,completion,,,,,false,,,,616809.7999999523,616809.6999999881,613735.785,613737.5999999642,613752.451,616818.995,8,400,,,
trial,html.Screen,4_102_0,2023-09-15T21:10:50.343Z,,0,3,,3588.0050000000047,response,ISIC_0016131.JPG,8,ISIC_2232442.JPG,ISIC_2232442.JPG,false,0,keypress(z),500,620407.5,620407,616802.329,616809.8999999762,616818.995,620419.436,8,400,3,,ISIC_0016131.JPG
break,html.Screen,4_102_1,2023-09-15T21:10:50.344Z,,0,,,NaN,,,,,,false,,,,620408.5,620408.2999999523,,620407.6999999881,,620419.436,8,400,,,
break_continue,html.Screen,4_102_2,2023-09-15T21:10:50.344Z,,0,,,NaN,,,,,,false,,,,620408.8999999762,620408.7999999523,,620408.5999999642,,620419.436,8,400,,,
sequence,flow.Sequence,4_102,2023-09-15T21:10:50.345Z,,0,,,3589.804999952321,completion,,,,,false,,,,620409.0999999642,620408.7999999523,616802.329,616809.8999999762,616818.995,620419.436,8,400,,,
trial,html.Screen,4_103_0,2023-09-15T21:10:54.384Z,,0,3,,4028.463999976171,response,ISIC_0004455.JPG,9,ISIC_6460137.JPG,ISIC_0004455.JPG,false,1,keypress(m),500,624448.3999999762,624447.8999999762,620402.77,620409.1999999881,620419.436,624452.608,8,400,4,,ISIC_6460137.JPG
break,html.Screen,4_103_1,2023-09-15T21:10:54.385Z,,0,,,NaN,,,,,,false,,,,624449.5,624449.1999999881,,624448.6999999881,,624452.608,8,400,,,
break_continue,html.Screen,4_103_2,2023-09-15T21:10:54.385Z,,0,,,NaN,,,,,,false,,,,624449.8999999762,624449.6999999881,,624449.5999999642,,624452.608,8,400,,,
sequence,flow.Sequence,4_103,2023-09-15T21:10:54.386Z,,0,,,4030.263999988092,completion,,,,,false,,,,624450.0999999642,624449.6999999881,620402.77,620409.0999999642,620419.436,624452.608,8,400,,,
trial,html.Screen,4_104_0,2023-09-15T21:10:57.256Z,,0,3,,2867.3919999999925,response,ISIC_9568138.JPG,9,ISIC_6668197.JPG,ISIC_6668197.JPG,false,0,keypress(z),500,627320.3999999762,627320,624435.942,624450.0999999642,624452.608,627335.826,8,400,5,,ISIC_9568138.JPG
break,html.Screen,4_104_1,2023-09-15T21:10:57.257Z,,0,,,NaN,,,,,,false,,,,627321.5,627321.1999999881,,627320.6999999881,,627335.826,8,400,,,
break_continue,html.Screen,4_104_2,2023-09-15T21:10:57.257Z,,0,,,NaN,,,,,,false,,,,627321.8999999762,627321.7999999523,,627321.6999999881,,627335.826,8,400,,,
sequence,flow.Sequence,4_104,2023-09-15T21:10:57.258Z,,0,,,2869.191999952309,completion,,,,,false,,,,627322.0999999642,627321.7999999523,624435.942,624450.0999999642,624452.608,627335.826,8,400,,,
trial,html.Screen,4_105_0,2023-09-15T21:11:00.495Z,,0,3,,3223.373999988078,response,ISIC_0029561.JPG,9,ISIC_4641968.JPG,ISIC_4641968.JPG,false,0,keypress(z),500,630559.5999999642,630559.1999999881,627319.16,627322.2999999523,627335.826,630569.554,8,400,6,,ISIC_0029561.JPG
break,html.Screen,4_105_1,2023-09-15T21:11:00.496Z,,0,,,NaN,,,,,,false,,,,630560.7999999523,630560.5,,630560,,630569.554,8,400,,,
break_continue,html.Screen,4_105_2,2023-09-15T21:11:00.497Z,,0,,,NaN,,,,,,false,,,,630561.0999999642,630561,,630560.8999999762,,630569.554,8,400,,,
sequence,flow.Sequence,4_105,2023-09-15T21:11:00.497Z,,0,,,3225.173999999999,completion,,,,,false,,,,630561.2999999523,630561,627319.16,627322.1999999881,627335.826,630569.554,8,400,,,
trial,html.Screen,4_106_0,2023-09-15T21:11:04.391Z,,0,3,,3885.4459999999963,response,ISIC_6831108.JPG,9,ISIC_9059311.JPG,ISIC_6831108.JPG,false,1,keypress(m),500,634455.5,634455,630552.888,630561.3999999762,630569.554,634469.398,8,400,7,,ISIC_9059311.JPG
break,html.Screen,4_106_1,2023-09-15T21:11:04.392Z,,0,,,NaN,,,,,,false,,,,634456.5,634456.2999999523,,634455.8999999762,,634469.398,8,400,,,
break_continue,html.Screen,4_106_2,2023-09-15T21:11:04.393Z,,0,,,NaN,,,,,,false,,,,634456.8999999762,634456.7999999523,,634456.6999999881,,634469.398,8,400,,,
sequence,flow.Sequence,4_106,2023-09-15T21:11:04.393Z,,0,,,3887.2459999523126,completion,,,,,false,,,,634457.0999999642,634456.7999999523,630552.888,630561.3999999762,630569.554,634469.398,8,400,,,
trial,html.Screen,4_107_0,2023-09-15T21:11:10.223Z,,0,3,,5817.7019999641925,response,ISIC_5284935.JPG,10,ISIC_0031561.JPG,ISIC_5284935.JPG,false,1,keypress(m),500,640287.5999999642,640287.0999999642,634452.732,634457.1999999881,634469.398,640302.498,8,400,8,,ISIC_0031561.JPG
break,html.Screen,4_107_1,2023-09-15T21:11:10.224Z,,0,,,NaN,,,,,,false,,,,640288.5,640288.2999999523,,640287.7999999523,,640302.498,8,400,,,
break_continue,html.Screen,4_107_2,2023-09-15T21:11:10.225Z,,0,,,NaN,,,,,,false,,,,640288.8999999762,640288.7999999523,,640288.6999999881,,640302.498,8,400,,,
sequence,flow.Sequence,4_107,2023-09-15T21:11:10.225Z,,0,,,5819.401999952272,completion,,,,,false,,,,640289.0999999642,640288.7999999523,634452.732,634457.0999999642,634469.398,640302.498,8,400,,,
trial,html.Screen,4_108_0,2023-09-15T21:11:13.544Z,,0,3,,3305.5019999999786,response,ISIC_0025512.JPG,9,ISIC_0014183.JPG,ISIC_0014183.JPG,false,0,keypress(z),500,643608.3999999762,643608,640285.832,640289.2999999523,640302.498,643619.56,8,400,9,,ISIC_0025512.JPG
break,html.Screen,4_108_1,2023-09-15T21:11:13.545Z,,0,,,NaN,,,,,,false,,,,643609.3999999762,643609.0999999642,,643608.6999999881,,643619.56,8,400,,,
break_continue,html.Screen,4_108_2,2023-09-15T21:11:13.545Z,,0,,,NaN,,,,,,false,,,,643609.7999999523,643609.6999999881,,643609.5,,643619.56,8,400,,,
sequence,flow.Sequence,4_108,2023-09-15T21:11:13.546Z,,0,,,3307.2019999880577,completion,,,,,false,,,,643610,643609.6999999881,640285.832,640289.1999999881,640302.498,643619.56,8,400,,,
trial,html.Screen,4_109_0,2023-09-15T21:11:17.208Z,,0,3,,3651.8399999761023,response,ISIC_0071492.JPG,8,ISIC_0033578.JPG,ISIC_0033578.JPG,false,0,keypress(z),500,647271.7999999523,647271.3999999762,643602.894,643610.0999999642,643619.56,647286.08,8,400,10,,ISIC_0071492.JPG
break,html.Screen,4_109_1,2023-09-15T21:11:17.209Z,,0,,,NaN,,,,,,false,,,,647272.7999999523,647272.6999999881,,647272.0999999642,,647286.08,8,400,,,
break_continue,html.Screen,4_109_2,2023-09-15T21:11:17.209Z,,0,,,NaN,,,,,,false,,,,647273.2999999523,647273.1999999881,,647273,,647286.08,8,400,,,
sequence,flow.Sequence,4_109,2023-09-15T21:11:17.209Z,,0,,,3653.639999988023,completion,,,,,false,,,,647273.3999999762,647273.1999999881,643602.894,643610.0999999642,643619.56,647286.08,8,400,,,
trial,html.Screen,4_110_0,2023-09-15T21:11:21.456Z,,0,3,,4233.3199999762,response,ISIC_8253317.JPG,9,ISIC_0003793.JPG,ISIC_0003793.JPG,false,0,keypress(z),500,651519.8999999762,651519.3999999762,647269.414,647273.5,647286.08,651536.348,8,400,11,,ISIC_8253317.JPG
break,html.Screen,4_110_1,2023-09-15T21:11:21.457Z,,0,,,NaN,,,,,,false,,,,651520.7999999523,651520.5999999642,,651520.0999999642,,651536.348,8,400,,,
break_continue,html.Screen,4_110_2,2023-09-15T21:11:21.457Z,,0,,,NaN,,,,,,false,,,,651521.1999999881,651521,,651521,,651536.348,8,400,,,
sequence,flow.Sequence,4_110,2023-09-15T21:11:21.457Z,,0,,,4234.920000000042,completion,,,,,false,,,,651521.2999999523,651521,647269.414,647273.5,647286.08,651536.348,8,400,,,
trial,html.Screen,4_111_0,2023-09-15T21:11:24.775Z,,0,3,,3302.652000000002,response,ISIC_0010411.JPG,9,ISIC_0057978.JPG,ISIC_0010411.JPG,false,1,keypress(m),500,654839.5999999642,654839,651519.682,651521.5,651536.348,654852.882,8,400,12,,ISIC_0057978.JPG
break,html.Screen,4_111_1,2023-09-15T21:11:24.776Z,,0,,,NaN,,,,,,false,,,,654840.5,654840.2999999523,,654839.7999999523,,654852.882,8,400,,,
break_continue,html.Screen,4_111_2,2023-09-15T21:11:24.777Z,,0,,,NaN,,,,,,false,,,,654840.8999999762,654840.7999999523,,654840.6999999881,,654852.882,8,400,,,
sequence,flow.Sequence,4_111,2023-09-15T21:11:24.777Z,,0,,,3304.451999952318,completion,,,,,false,,,,654841.0999999642,654840.7999999523,651519.682,651521.5,651536.348,654852.882,8,400,,,
trial,html.Screen,4_112_0,2023-09-15T21:11:28.775Z,,0,3,,3986.1180000000168,response,ISIC_7614221.JPG,10,ISIC_0010227.JPG,ISIC_0010227.JPG,false,0,keypress(z),500,658839.3999999762,658839,654836.216,654841.1999999881,654852.882,658852.722,8,400,13,,ISIC_7614221.JPG
break,html.Screen,4_112_1,2023-09-15T21:11:28.776Z,,0,,,NaN,,,,,,false,,,,658839.8999999762,658839.7999999523,,658839.3999999762,,658852.722,8,400,,,
break_continue,html.Screen,4_112_2,2023-09-15T21:11:28.776Z,,0,,,NaN,,,,,,false,,,,658840.0999999642,658840.0999999642,,658840,,658852.722,8,400,,,
sequence,flow.Sequence,4_112,2023-09-15T21:11:28.776Z,,0,,,3987.217999964254,completion,,,,,false,,,,658840.2999999523,658840.0999999642,654836.216,654841.1999999881,654852.882,658852.722,8,400,,,
trial,html.Screen,4_113_0,2023-09-15T21:11:32.295Z,,0,3,,3506.2780000000494,response,ISIC_0029433.JPG,11,ISIC_0057656.JPG,ISIC_0057656.JPG,false,0,keypress(z),500,662359.5999999642,662359,658836.056,658840.3999999762,658852.722,662369.881,8,400,14,,ISIC_0029433.JPG
break,html.Screen,4_113_1,2023-09-15T21:11:32.296Z,,0,,,NaN,,,,,,false,,,,662360.5999999642,662360.3999999762,,662359.7999999523,,662369.881,8,400,,,
break_continue,html.Screen,4_113_2,2023-09-15T21:11:32.297Z,,0,,,NaN,,,,,,false,,,,662361,662360.7999999523,,662360.6999999881,,662369.881,8,400,,,
sequence,flow.Sequence,4_113,2023-09-15T21:11:32.297Z,,0,,,3508.0779999523656,completion,,,,,false,,,,662361.0999999642,662360.7999999523,658836.056,658840.2999999523,658852.722,662369.881,8,400,,,
trial,html.Screen,4_114_0,2023-09-15T21:11:36.992Z,,0,3,,4685.718999964185,response,ISIC_2160913.JPG,10,ISIC_0014903.JPG,ISIC_2160913.JPG,false,1,keypress(m),500,667056,667055.5999999642,662353.215,662361.1999999881,662369.881,667069.693,8,400,15,,ISIC_0014903.JPG
break,html.Screen,4_114_1,2023-09-15T21:11:36.993Z,,0,,,NaN,,,,,,false,,,,667057,667056.7999999523,,667056.3999999762,,667069.693,8,400,,,
break_continue,html.Screen,4_114_2,2023-09-15T21:11:36.993Z,,0,,,NaN,,,,,,false,,,,667057.2999999523,667057.1999999881,,667057.1999999881,,667069.693,8,400,,,
sequence,flow.Sequence,4_114,2023-09-15T21:11:36.993Z,,0,,,4687.318999988027,completion,,,,,false,,,,667057.5,667057.1999999881,662353.215,662361.1999999881,662369.881,667069.693,8,400,,,
trial,html.Screen,4_115_0,2023-09-15T21:11:41.455Z,,0,3,,4449.406999964267,response,ISIC_5122220.JPG,9,ISIC_0016082.JPG,ISIC_5122220.JPG,false,1,keypress(m),500,671519.5999999642,671519.0999999642,667053.027,667057.6999999881,667069.693,671536.181,8,400,16,,ISIC_0016082.JPG
break,html.Screen,4_115_1,2023-09-15T21:11:41.456Z,,0,,,NaN,,,,,,false,,,,671520.5999999642,671520.3999999762,,671519.8999999762,,671536.181,8,400,,,
break_continue,html.Screen,4_115_2,2023-09-15T21:11:41.457Z,,0,,,NaN,,,,,,false,,,,671520.8999999762,671520.8999999762,,671520.6999999881,,671536.181,8,400,,,
sequence,flow.Sequence,4_115,2023-09-15T21:11:41.457Z,,0,,,4451.206999976188,completion,,,,,false,,,,671521.0999999642,671520.8999999762,667053.027,667057.6999999881,667069.693,671536.181,8,400,,,
trial,html.Screen,4_116_0,2023-09-15T21:11:45.928Z,,0,3,,4455.718999976176,response,ISIC_0034065.JPG,9,ISIC_9513918.JPG,ISIC_0034065.JPG,false,1,keypress(m),500,675992.2999999523,675991.8999999762,671519.515,671521.1999999881,671536.181,676003.207,8,400,17,,ISIC_9513918.JPG
break,html.Screen,4_116_1,2023-09-15T21:11:45.929Z,,0,,,NaN,,,,,,false,,,,675993.2999999523,675993,,675992.5,,676003.207,8,400,,,
break_continue,html.Screen,4_116_2,2023-09-15T21:11:45.929Z,,0,,,NaN,,,,,,false,,,,675993.5999999642,675993.5,,675993.3999999762,,676003.207,8,400,,,
sequence,flow.Sequence,4_116,2023-09-15T21:11:45.930Z,,0,,,4457.319000000018,completion,,,,,false,,,,675993.7999999523,675993.5,671519.515,671521.1999999881,671536.181,676003.207,8,400,,,
trial,html.Screen,4_117_0,2023-09-15T21:11:49.456Z,,0,3,,3516.192999976105,response,ISIC_0033341.JPG,8,ISIC_0000163.JPG,ISIC_0000163.JPG,false,0,keypress(z),500,679519.8999999762,679519.3999999762,675986.541,675994,676003.207,679536.399,8,400,18,,ISIC_0033341.JPG
break,html.Screen,4_117_1,2023-09-15T21:11:49.457Z,,0,,,NaN,,,,,,false,,,,679520.8999999762,679520.6999999881,,679520.1999999881,,679536.399,8,400,,,
break_continue,html.Screen,4_117_2,2023-09-15T21:11:49.457Z,,0,,,NaN,,,,,,false,,,,679521.1999999881,679521.0999999642,,679520.8999999762,,679536.399,8,400,,,
sequence,flow.Sequence,4_117,2023-09-15T21:11:49.457Z,,0,,,3517.892999964184,completion,,,,,false,,,,679521.5,679521.0999999642,675986.541,675993.8999999762,676003.207,679536.399,8,400,,,
trial,html.Screen,4_118_0,2023-09-15T21:11:56.048Z,,0,3,,6575.000999976182,response,ISIC_0080539.JPG,9,ISIC_0027125.JPG,ISIC_0080539.JPG,false,1,keypress(m),500,686111.8999999762,686111.3999999762,679519.733,679521.5,679536.399,686119.991,8,400,19,,ISIC_0027125.JPG
break,html.Screen,4_118_1,2023-09-15T21:11:56.049Z,,0,,,NaN,,,,,,false,,,,686112.8999999762,686112.6999999881,,686112.0999999642,,686119.991,8,400,,,
break_continue,html.Screen,4_118_2,2023-09-15T21:11:56.049Z,,0,,,NaN,,,,,,false,,,,686113.2999999523,686113.0999999642,,686113,,686119.991,8,400,,,
sequence,flow.Sequence,4_118,2023-09-15T21:11:56.049Z,,0,,,6576.700999964261,completion,,,,,false,,,,686113.2999999523,686113.0999999642,679519.733,679521.5,679536.399,686119.991,8,400,,,
trial,html.Screen,4_119_0,2023-09-15T21:11:59.928Z,,0,3,,3871.108999964199,response,ISIC_0032360.JPG,9,ISIC_9797578.JPG,ISIC_0032360.JPG,false,1,keypress(m),500,689991.5999999642,689991.0999999642,686103.325,686113.5,686119.991,690003.169,8,400,20,,ISIC_9797578.JPG
break,html.Screen,4_119_1,2023-09-15T21:11:59.929Z,,0,,,NaN,,,,,,false,,,,689992.5999999642,689992.3999999762,,689991.7999999523,,690003.169,8,400,,,
break_continue,html.Screen,4_119_2,2023-09-15T21:11:59.929Z,,0,,,NaN,,,,,,false,,,,689992.8999999762,689992.7999999523,,689992.6999999881,,690003.169,8,400,,,
sequence,flow.Sequence,4_119,2023-09-15T21:11:59.929Z,,0,,,3872.808999952278,completion,,,,,false,,,,689993.0999999642,689992.7999999523,686103.325,686113.5,686119.991,690003.169,8,400,,,
trial,html.Screen,4_120_0,2023-09-15T21:12:03.312Z,,0,3,,3372.8310000000056,response,ISIC_0046671.JPG,9,ISIC_9335652.JPG,ISIC_9335652.JPG,false,0,keypress(z),500,693376.1999999881,693376,689986.503,689993.1999999881,690003.169,693386.367,8,400,21,,ISIC_0046671.JPG
break,html.Screen,4_120_1,2023-09-15T21:12:03.313Z,,0,,,NaN,,,,,,false,,,,693376.6999999881,693376.5999999642,,693376.2999999523,,693386.367,8,400,,,
break_continue,html.Screen,4_120_2,2023-09-15T21:12:03.313Z,,0,,,NaN,,,,,,false,,,,693376.8999999762,693376.6999999881,,693376.6999999881,,693386.367,8,400,,,
sequence,flow.Sequence,4_120,2023-09-15T21:12:03.313Z,,0,,,3373.5309999880847,completion,,,,,false,,,,693376.8999999762,693376.6999999881,689986.503,689993.1999999881,690003.169,693386.367,8,400,,,
trial,html.Screen,4_121_0,2023-09-15T21:12:06.952Z,,0,3,,3629.33299998811,response,ISIC_6126620.JPG,10,ISIC_0067412.JPG,ISIC_6126620.JPG,false,1,keypress(m),500,697016.1999999881,697015.6999999881,693369.701,693376.8999999762,693386.367,697020.237,8,400,22,,ISIC_0067412.JPG
break,html.Screen,4_121_1,2023-09-15T21:12:06.953Z,,0,,,NaN,,,,,,false,,,,697017.2999999523,697017,,697016.3999999762,,697020.237,8,400,,,
break_continue,html.Screen,4_121_2,2023-09-15T21:12:06.954Z,,0,,,NaN,,,,,,false,,,,697017.6999999881,697017.5,,697017.3999999762,,697020.237,8,400,,,
sequence,flow.Sequence,4_121,2023-09-15T21:12:06.954Z,,0,,,3631.1330000000307,completion,,,,,false,,,,697017.7999999523,697017.5,693369.701,693376.8999999762,693386.367,697020.237,8,400,,,
trial,html.Screen,4_122_0,2023-09-15T21:12:13.264Z,,0,3,,6306.862999964273,response,ISIC_0054395.JPG,8,ISIC_0012183.JPG,ISIC_0012183.JPG,false,0,keypress(z),500,703327.5,703327.0999999642,697003.571,697017.8999999762,697020.237,703353.317,8,400,23,,ISIC_0054395.JPG
break,html.Screen,4_122_1,2023-09-15T21:12:13.265Z,,0,,,NaN,,,,,,false,,,,703328.5999999642,703328.2999999523,,703327.8999999762,,703353.317,8,400,,,
break_continue,html.Screen,4_122_2,2023-09-15T21:12:13.265Z,,0,,,NaN,,,,,,false,,,,703328.8999999762,703328.7999999523,,703328.6999999881,,703353.317,8,400,,,
sequence,flow.Sequence,4_122,2023-09-15T21:12:13.265Z,,0,,,6308.562999952352,completion,,,,,false,,,,703329,703328.7999999523,697003.571,697017.8999999762,697020.237,703353.317,8,400,,,
trial,html.Screen,4_123_0,2023-09-15T21:12:16.736Z,,0,3,,3446.282999964198,response,ISIC_1560455.JPG,9,ISIC_0070253.JPG,ISIC_1560455.JPG,false,1,keypress(m),500,706799.8999999762,706799.5999999642,703336.651,703329.1999999881,703353.317,706803.692,8,400,24,,ISIC_0070253.JPG
break,html.Screen,4_123_1,2023-09-15T21:12:16.737Z,,0,,,NaN,,,,,,false,,,,706800.6999999881,706800.5999999642,,706800.1999999881,,706803.692,8,400,,,
break_continue,html.Screen,4_123_2,2023-09-15T21:12:16.737Z,,0,,,NaN,,,,,,false,,,,706801,706801,,706800.8999999762,,706803.692,8,400,,,
sequence,flow.Sequence,4_123,2023-09-15T21:12:16.737Z,,0,,,3447.682999999961,completion,,,,,false,,,,706801.1999999881,706801,703336.651,703329.1999999881,703353.317,706803.692,8,400,,,
trial,html.Screen,4_124_0,2023-09-15T21:12:20.984Z,,0,3,,4243.607999952277,response,ISIC_4911407.JPG,10,ISIC_0031079.JPG,ISIC_0031079.JPG,false,0,keypress(z),500,711047.6999999881,711047.2999999523,706787.026,706801.2999999523,706803.692,711053.522,8,400,25,,ISIC_4911407.JPG
break,html.Screen,4_124_1,2023-09-15T21:12:20.985Z,,0,,,NaN,,,,,,false,,,,711048.6999999881,711048.5,,711048,,711053.522,8,400,,,
break_continue,html.Screen,4_124_2,2023-09-15T21:12:20.985Z,,0,,,NaN,,,,,,false,,,,711049.1999999881,711049,,711048.8999999762,,711053.522,8,400,,,
sequence,flow.Sequence,4_124,2023-09-15T21:12:20.985Z,,0,,,4245.307999999961,completion,,,,,false,,,,711049.2999999523,711049,706787.026,706801.2999999523,706803.692,711053.522,8,400,,,
trial,html.Screen,4_125_0,2023-09-15T21:12:24.376Z,,0,3,,3385.478000000003,response,ISIC_0028396.JPG,9,ISIC_0013972.JPG,ISIC_0013972.JPG,false,0,keypress(z),500,714439.5,714439,711036.856,711049.5,711053.522,714453.386,8,400,26,,ISIC_0028396.JPG
break,html.Screen,4_125_1,2023-09-15T21:12:24.377Z,,0,,,NaN,,,,,,false,,,,714440.5,714440.2999999523,,714439.7999999523,,714453.386,8,400,,,
break_continue,html.Screen,4_125_2,2023-09-15T21:12:24.377Z,,0,,,NaN,,,,,,false,,,,714440.8999999762,714440.7999999523,,714440.5999999642,,714453.386,8,400,,,
sequence,flow.Sequence,4_125,2023-09-15T21:12:24.377Z,,0,,,3387.277999952319,completion,,,,,false,,,,714441,714440.7999999523,711036.856,711049.3999999762,711053.522,714453.386,8,400,,,
trial,html.Screen,4_126_0,2023-09-15T21:12:28.312Z,,0,3,,3921.7139999641804,response,ISIC_1280780.JPG,9,ISIC_0026966.JPG,ISIC_1280780.JPG,false,1,keypress(m),500,718375.5999999642,718375.0999999642,714436.72,714441.1999999881,714453.386,718387.135,8,400,27,,ISIC_0026966.JPG
