sender,sender_type,sender_id,timestamp,meta,,blockNo,condition,duration,ended_on,img_left,img_reveal,img_right,loser,practice,response,response_action,selection_duration,time_commit,time_end,time_render,time_run,time_show,time_switch,total_blocks,total_trials,trialNo,url,winner
informed_consent,html.Screen,0,2023-09-23T16:55:47.882Z,"{""labjs_version"":""20.2.4"",""labjs_build"":{""flavor"":""production"",""commit"":""f5b4a49f956347addd546a832a3327688c2c0fef""},""location"":""https://run.pavlovia.org/MurrayBennett/melanoma-2afc/?participant=67161&platform=sona"",""userAgent"":""Mozilla/5.0 (Windows NT 10.0; Win64; x64) AppleWebKit/537.36 (KHTML, like Gecko) Chrome/116.0.0.0 Safari/537.36"",""platform"":""Win32"",""language"":""en-US"",""locale"":""en-US"",""timeZone"":""America/Chicago"",""timezoneOffset"":300,""screen_width"":1920,""screen_height"":1080,""scroll_width"":1920,""scroll_height"":921,""window_innerWidth"":1920,""window_innerHeight"":969,""devicePixelRatio"":1}",,,,6658.826999952316,response,,,,,,consent,click button,,12117.5,12115.299999952316,5439.658,5432.599999904633,5456.473,12122.904,,,,"{""participant"":""67161"",""platform"":""sona""}",
Welcome,html.Screen,1,2023-09-23T16:56:55.667Z,,,,symmetry,67778.69599990464,response,,,,,,continue,click button,,79903.09999990463,79901.59999990463,12106.378,12117.899999976158,12122.904,79906.228,,,,,
trial,html.Screen,2_0_0,2023-09-23T16:57:04.379Z,,0,0,,8708.271999999997,response,ISIC_0069348.JPG,,ISIC_6997061.JPG,ISIC_0069348.JPG,true,1,keypress(m),500,88614.69999992847,88614.5,79889.89,79903.39999997616,79906.228,88622.781,1,6,1,,ISIC_6997061.JPG
sequence,flow.Sequence,2_0,2023-09-23T16:57:04.379Z,,0,,,8708.271999999997,completion,,,,,true,,,,88615.19999992847,88614.5,79889.89,79903.39999997616,79906.228,88622.781,1,6,,,
trial,html.Screen,2_1_0,2023-09-23T16:57:10.621Z,,0,0,,6233.718999999997,response,ISIC_0009529.JPG,,ISIC_0057368.JPG,ISIC_0057368.JPG,true,0,keypress(z),500,94856.79999995232,94856.5,88606.51,88615.39999997616,88622.781,94872.738,1,6,2,,ISIC_0009529.JPG
sequence,flow.Sequence,2_1,2023-09-23T16:57:10.621Z,,0,,,6233.718999999997,completion,,,,,true,,,,94857.09999990463,94856.5,88606.51,88615.29999995232,88622.781,94872.738,1,6,,,
trial,html.Screen,2_2_0,2023-09-23T16:57:17.503Z,,0,0,,6865.861999904635,response,ISIC_0064954.JPG,,ISIC_9758671.JPG,ISIC_9758671.JPG,true,0,keypress(z),500,101738.79999995232,101738.59999990463,94855.966,94857.29999995232,94872.738,101756.106,1,6,3,,ISIC_0064954.JPG
sequence,flow.Sequence,2_2,2023-09-23T16:57:17.503Z,,0,,,6865.861999904635,completion,,,,,true,,,,101739.09999990463,101738.59999990463,94855.966,94857.19999992847,94872.738,101756.106,1,6,,,
trial,html.Screen,2_3_0,2023-09-23T16:57:21.625Z,,0,0,,4104.093999928475,response,ISIC_0005785.JPG,,ISIC_0000080.JPG,ISIC_0005785.JPG,true,1,keypress(m),500,105860.5,105860.19999992847,101723.647,101739.39999997616,101756.106,105872.82,1,6,4,,ISIC_0000080.JPG
sequence,flow.Sequence,2_3,2023-09-23T16:57:21.625Z,,0,,,4104.093999928475,completion,,,,,true,,,,105861,105860.19999992847,101723.647,101739.29999995232,101756.106,105872.82,1,6,,,
trial,html.Screen,2_4_0,2023-09-23T16:57:24.715Z,,0,0,,3078.079999976151,response,ISIC_5390060.JPG,,ISIC_7944028.JPG,ISIC_5390060.JPG,true,1,keypress(m),500,108951.19999992847,108950.89999997616,105856.169,105861.19999992847,105872.82,108955.992,1,6,5,,ISIC_7944028.JPG
sequence,flow.Sequence,2_4,2023-09-23T16:57:24.716Z,,0,,,3078.079999976151,completion,,,,,true,,,,108951.5,108950.89999997616,105856.169,105861.19999992847,105872.82,108955.992,1,6,,,
trial,html.Screen,2_5_0,2023-09-23T16:57:28.318Z,,0,0,,3597.4079999761598,response,ISIC_0010188.JPG,,ISIC_0794216.JPG,ISIC_0010188.JPG,true,1,keypress(m),500,112553.59999990463,112553.39999997616,108939.555,108951.69999992847,108955.992,112573.594,1,6,6,,ISIC_0794216.JPG
sequence,flow.Sequence,2_5,2023-09-23T16:57:28.318Z,,0,,,3597.4079999761598,completion,,,,,true,,,,112553.89999997616,112553.39999997616,108939.555,108951.59999990463,108955.992,112573.594,1,6,,,
loop,flow.Loop,2,2023-09-23T16:57:28.319Z,,,,,32647.171999976155,completion,,,,,true,,,,112554.29999995232,112553.39999997616,79889.89,79903.29999995232,79906.228,112573.594,1,6,,,
exp_instructions,html.Screen,3,2023-09-23T16:57:30.718Z,,,,,2379.105999928477,response,,,,,,continue,keypress(Space),,114953.5,114952.69999992847,112539.639,112554.39999997616,112573.594,114956.057,,,,,
trial,html.Screen,4_0_0,2023-09-23T16:57:38.528Z,,0,1,,7808.042999904632,response,ISIC_4701900.JPG,5,ISIC_0071388.JPG,ISIC_4701900.JPG,false,1,keypress(m),500,122764.29999995232,122764.09999990463,114940.061,114953.79999995232,114956.057,122772.673,8,400,1,,ISIC_0071388.JPG
break,html.Screen,4_0_1,2023-09-23T16:57:38.529Z,,0,,,NaN,,,,,,false,,,,122765.29999995232,122765,,122764.5,,122772.673,8,400,,,
break_continue,html.Screen,4_0_2,2023-09-23T16:57:38.530Z,,0,,,NaN,,,,,,false,,,,122765.69999992847,122765.59999990463,,122765.39999997616,,122772.673,8,400,,,
sequence,flow.Sequence,4_0,2023-09-23T16:57:38.530Z,,0,,,7809.542999904632,completion,,,,,false,,,,122766,122765.59999990463,114940.061,114953.69999992847,114956.057,122772.673,8,400,,,
trial,html.Screen,4_1_0,2023-09-23T16:57:46.484Z,,0,1,,7946.726999976163,response,ISIC_0033454.JPG,5,ISIC_0059786.JPG,ISIC_0033454.JPG,false,1,keypress(m),500,130719.79999995232,130719.39999997616,122756.181,122766.09999990463,122772.673,130722.792,8,400,2,,ISIC_0059786.JPG
break,html.Screen,4_1_1,2023-09-23T16:57:46.485Z,,0,,,NaN,,,,,,false,,,,130720.69999992847,130720.39999997616,,130720,,130722.792,8,400,,,
break_continue,html.Screen,4_1_2,2023-09-23T16:57:46.485Z,,0,,,NaN,,,,,,false,,,,130721.09999990463,130720.89999997616,,130720.79999995232,,130722.792,8,400,,,
sequence,flow.Sequence,4_1,2023-09-23T16:57:46.485Z,,0,,,7948.226999976163,completion,,,,,false,,,,130721.09999990463,130720.89999997616,122756.181,122766,122772.673,130722.792,8,400,,,
trial,html.Screen,4_2_0,2023-09-23T16:57:54.408Z,,0,1,,7920.507999952315,response,ISIC_0066314.JPG,5,ISIC_4508511.JPG,ISIC_4508511.JPG,false,0,keypress(z),500,138643.5,138643.29999995232,130706.282,130721.29999995232,130722.792,138656.012,8,400,3,,ISIC_0066314.JPG
break,html.Screen,4_2_1,2023-09-23T16:57:54.408Z,,0,,,NaN,,,,,,false,,,,138644.29999995232,138644,,138643.59999990463,,138656.012,8,400,,,
break_continue,html.Screen,4_2_2,2023-09-23T16:57:54.409Z,,0,,,NaN,,,,,,false,,,,138644.59999990463,138644.5,,138644.39999997616,,138656.012,8,400,,,
sequence,flow.Sequence,4_2,2023-09-23T16:57:54.409Z,,0,,,7921.707999999999,completion,,,,,false,,,,138644.79999995232,138644.5,130706.282,130721.19999992847,130722.792,138656.012,8,400,,,
trial,html.Screen,4_3_0,2023-09-23T16:57:58.654Z,,0,1,,4233.88799997617,response,ISIC_7443391.JPG,6,ISIC_9785077.JPG,ISIC_9785077.JPG,false,0,keypress(z),500,142890.19999992847,142889.89999997616,138639.323,138644.79999995232,138656.012,142906.134,8,400,4,,ISIC_7443391.JPG
break,html.Screen,4_3_1,2023-09-23T16:57:58.655Z,,0,,,NaN,,,,,,false,,,,142891,142890.69999992847,,142890.29999995232,,142906.134,8,400,,,
break_continue,html.Screen,4_3_2,2023-09-23T16:57:58.655Z,,0,,,NaN,,,,,,false,,,,142891.39999997616,142891.19999992847,,142891.09999990463,,142906.134,8,400,,,
sequence,flow.Sequence,4_3,2023-09-23T16:57:58.656Z,,0,,,4235.1879999284865,completion,,,,,false,,,,142891.39999997616,142891.19999992847,138639.323,138644.79999995232,138656.012,142906.134,8,400,,,
trial,html.Screen,4_4_0,2023-09-23T16:58:08.021Z,,0,1,,9350.265999976167,response,ISIC_0054963.JPG,5,ISIC_0002295.JPG,ISIC_0054963.JPG,false,1,keypress(m),500,152256.69999992847,152256.39999997616,142889.417,142891.59999990463,142906.134,152272.759,8,400,5,,ISIC_0002295.JPG
break,html.Screen,4_4_1,2023-09-23T16:58:08.021Z,,0,,,NaN,,,,,,false,,,,152257.39999997616,152257.19999992847,,152256.79999995232,,152272.759,8,400,,,
break_continue,html.Screen,4_4_2,2023-09-23T16:58:08.022Z,,0,,,NaN,,,,,,false,,,,152257.79999995232,152257.69999992847,,152257.59999990463,,152272.759,8,400,,,
sequence,flow.Sequence,4_4,2023-09-23T16:58:08.022Z,,0,,,9351.565999928484,completion,,,,,false,,,,152257.89999997616,152257.69999992847,142889.417,142891.59999990463,142906.134,152272.759,8,400,,,
trial,html.Screen,4_5_0,2023-09-23T16:58:14.622Z,,0,1,,6584.9409999284835,response,ISIC_7298784.JPG,5,ISIC_2922104.JPG,ISIC_2922104.JPG,false,0,keypress(z),500,158857.89999997616,158857.69999992847,152256.056,152258.79999995232,152272.759,158872.835,8,400,6,,ISIC_7298784.JPG
break,html.Screen,4_5_1,2023-09-23T16:58:14.623Z,,0,,,NaN,,,,,,false,,,,158858.79999995232,158858.59999990463,,158858.19999992847,,158872.835,8,400,,,
break_continue,html.Screen,4_5_2,2023-09-23T16:58:14.623Z,,0,,,NaN,,,,,,false,,,,158859.19999992847,158859.09999990463,,158858.89999997616,,158872.835,8,400,,,
sequence,flow.Sequence,4_5,2023-09-23T16:58:14.623Z,,0,,,6586.340999904642,completion,,,,,false,,,,158859.29999995232,158859.09999990463,152256.056,152258,152272.759,158872.835,8,400,,,
trial,html.Screen,4_6_0,2023-09-23T16:58:23.153Z,,0,1,,8515.665000000008,response,ISIC_5566396.JPG,5,ISIC_0014127.JPG,ISIC_0014127.JPG,false,0,keypress(z),500,167388.69999992847,167388.5,158855.913,158859.5,158872.835,167406.037,8,400,7,,ISIC_5566396.JPG
break,html.Screen,4_6_1,2023-09-23T16:58:23.154Z,,0,,,NaN,,,,,,false,,,,167389.59999990463,167389.29999995232,,167388.89999997616,,167406.037,8,400,,,
break_continue,html.Screen,4_6_2,2023-09-23T16:58:23.154Z,,0,,,NaN,,,,,,false,,,,167389.89999997616,167389.79999995232,,167389.59999990463,,167406.037,8,400,,,
sequence,flow.Sequence,4_6,2023-09-23T16:58:23.154Z,,0,,,8516.964999952324,completion,,,,,false,,,,167390.09999990463,167389.79999995232,158855.913,158859.39999997616,158872.835,167406.037,8,400,,,
trial,html.Screen,4_7_0,2023-09-23T16:58:32.516Z,,0,1,,9345.462999999989,response,ISIC_0034049.JPG,4,ISIC_9613570.JPG,ISIC_9613570.JPG,false,0,keypress(z),500,176751.69999992847,176751.5,167389.327,167390.09999990463,167406.037,176755.911,8,400,8,,ISIC_0034049.JPG
break,html.Screen,4_7_1,2023-09-23T16:58:32.517Z,,0,,,NaN,,,,,,false,,,,176752.39999997616,176752.19999992847,,176751.79999995232,,176755.911,8,400,,,
break_continue,html.Screen,4_7_2,2023-09-23T16:58:32.517Z,,0,,,NaN,,,,,,false,,,,176752.89999997616,176752.69999992847,,176752.59999990463,,176755.911,8,400,,,
sequence,flow.Sequence,4_7,2023-09-23T16:58:32.518Z,,0,,,9346.662999928463,completion,,,,,false,,,,176753,176752.69999992847,167389.327,167390.09999990463,167406.037,176755.911,8,400,,,
trial,html.Screen,4_8_0,2023-09-23T16:58:41.463Z,,0,1,,8942.388999952324,response,ISIC_0025056.JPG,5,ISIC_9058340.JPG,ISIC_9058340.JPG,false,0,keypress(z),500,185698.59999990463,185698.29999995232,176739.452,176753.09999990463,176755.911,185705.989,8,400,9,,ISIC_0025056.JPG
break,html.Screen,4_8_1,2023-09-23T16:58:41.464Z,,0,,,NaN,,,,,,false,,,,185699.5,185699.09999990463,,185698.79999995232,,185705.989,8,400,,,
break_continue,html.Screen,4_8_2,2023-09-23T16:58:41.465Z,,0,,,NaN,,,,,,false,,,,185699.89999997616,185699.79999995232,,185699.69999992847,,185705.989,8,400,,,
sequence,flow.Sequence,4_8,2023-09-23T16:58:41.465Z,,0,,,8943.888999952324,completion,,,,,false,,,,185700,185699.79999995232,176739.452,176753.09999990463,176755.911,185705.989,8,400,,,
trial,html.Screen,4_9_0,2023-09-23T16:58:47.019Z,,0,1,,5548.510999999999,response,ISIC_0032841.JPG,5,ISIC_4368650.JPG,ISIC_4368650.JPG,false,0,keypress(z),500,191254.79999995232,191254.5,185689.433,185700.19999992847,185705.989,191272.591,8,400,10,,ISIC_0032841.JPG
break,html.Screen,4_9_1,2023-09-23T16:58:47.020Z,,0,,,NaN,,,,,,false,,,,191255.59999990463,191255.29999995232,,191254.89999997616,,191272.591,8,400,,,
break_continue,html.Screen,4_9_2,2023-09-23T16:58:47.021Z,,0,,,NaN,,,,,,false,,,,191256,191255.79999995232,,191255.69999992847,,191272.591,8,400,,,
sequence,flow.Sequence,4_9,2023-09-23T16:58:47.021Z,,0,,,5549.810999952315,completion,,,,,false,,,,191256.09999990463,191255.79999995232,185689.433,185700.19999992847,185705.989,191272.591,8,400,,,
trial,html.Screen,4_10_0,2023-09-23T16:58:52.431Z,,0,1,,5393.7089999523305,response,ISIC_9302863.JPG,6,ISIC_8791729.JPG,ISIC_9302863.JPG,false,1,keypress(m),500,196666.5,196666.29999995232,191239.162,191256.29999995232,191272.591,196672.496,8,400,11,,ISIC_8791729.JPG
break,html.Screen,4_10_1,2023-09-23T16:58:52.432Z,,0,,,NaN,,,,,,false,,,,196667.19999992847,196667,,196666.59999990463,,196672.496,8,400,,,
break_continue,html.Screen,4_10_2,2023-09-23T16:58:52.432Z,,0,,,NaN,,,,,,false,,,,196667.69999992847,196667.5,,196667.29999995232,,196672.496,8,400,,,
sequence,flow.Sequence,4_10,2023-09-23T16:58:52.432Z,,0,,,5394.909000000014,completion,,,,,false,,,,196667.79999995232,196667.5,191239.162,191256.19999992847,191272.591,196672.496,8,400,,,
trial,html.Screen,4_11_0,2023-09-23T16:59:02.738Z,,0,1,,10300.503999999986,response,ISIC_0056679.JPG,5,ISIC_7888517.JPG,ISIC_7888517.JPG,false,0,keypress(z),500,206973.29999995232,206973,196656.136,196667.89999997616,196672.496,206989.35,8,400,12,,ISIC_0056679.JPG
break,html.Screen,4_11_1,2023-09-23T16:59:02.739Z,,0,,,NaN,,,,,,false,,,,206974,206973.69999992847,,206973.39999997616,,206989.35,8,400,,,
break_continue,html.Screen,4_11_2,2023-09-23T16:59:02.739Z,,0,,,NaN,,,,,,false,,,,206974.29999995232,206974.29999995232,,206974.09999990463,,206989.35,8,400,,,
sequence,flow.Sequence,4_11,2023-09-23T16:59:02.739Z,,0,,,10301.803999952303,completion,,,,,false,,,,206974.5,206974.29999995232,196656.136,196667.89999997616,196672.496,206989.35,8,400,,,
trial,html.Screen,4_12_0,2023-09-23T16:59:12.901Z,,0,1,,10146.349999928469,response,ISIC_5098778.JPG,5,ISIC_1205826.JPG,ISIC_1205826.JPG,false,0,keypress(z),500,217135.89999997616,217135.69999992847,206972.556,206974.59999990463,206989.35,217139.121,8,400,13,,ISIC_5098778.JPG
break,html.Screen,4_12_1,2023-09-23T16:59:12.901Z,,0,,,NaN,,,,,,false,,,,217136.69999992847,217136.39999997616,,217136.09999990463,,217139.121,8,400,,,
break_continue,html.Screen,4_12_2,2023-09-23T16:59:12.902Z,,0,,,NaN,,,,,,false,,,,217137.19999992847,217137,,217136.69999992847,,217139.121,8,400,,,
sequence,flow.Sequence,4_12,2023-09-23T16:59:12.902Z,,0,,,10147.649999999994,completion,,,,,false,,,,217137.29999995232,217137,206972.556,206974.59999990463,206989.35,217139.121,8,400,,,
trial,html.Screen,4_13_0,2023-09-23T16:59:17.981Z,,0,1,,5077.278999976144,response,ISIC_4131697.JPG,5,ISIC_0065463.JPG,ISIC_4131697.JPG,false,1,keypress(m),500,222216.59999990463,222216.39999997616,217122.614,217137.39999997616,217139.121,222222.476,8,400,14,,ISIC_0065463.JPG
break,html.Screen,4_13_1,2023-09-23T16:59:17.982Z,,0,,,NaN,,,,,,false,,,,222217.39999997616,222217.19999992847,,222216.89999997616,,222222.476,8,400,,,
break_continue,html.Screen,4_13_2,2023-09-23T16:59:17.983Z,,0,,,NaN,,,,,,false,,,,222217.89999997616,222217.79999995232,,222217.69999992847,,222222.476,8,400,,,
sequence,flow.Sequence,4_13,2023-09-23T16:59:17.983Z,,0,,,5078.678999952303,completion,,,,,false,,,,222218.09999990463,222217.79999995232,217122.614,217137.29999995232,217139.121,222222.476,8,400,,,
trial,html.Screen,4_14_0,2023-09-23T16:59:26.640Z,,0,1,,8652.923999976163,response,ISIC_3650533.JPG,6,ISIC_0003345.JPG,ISIC_3650533.JPG,false,1,keypress(m),500,230875.59999990463,230875.39999997616,222205.91,222218.19999992847,222222.476,230889.303,8,400,15,,ISIC_0003345.JPG
break,html.Screen,4_14_1,2023-09-23T16:59:26.641Z,,0,,,NaN,,,,,,false,,,,230876.39999997616,230876.19999992847,,230875.79999995232,,230889.303,8,400,,,
break_continue,html.Screen,4_14_2,2023-09-23T16:59:26.641Z,,0,,,NaN,,,,,,false,,,,230876.79999995232,230876.69999992847,,230876.59999990463,,230889.303,8,400,,,
sequence,flow.Sequence,4_14,2023-09-23T16:59:26.642Z,,0,,,8654.22399992848,completion,,,,,false,,,,230876.89999997616,230876.69999992847,222205.91,222218.19999992847,222222.476,230889.303,8,400,,,
trial,html.Screen,4_15_0,2023-09-23T16:59:34.803Z,,0,1,,8148.996999952302,response,ISIC_0028554.JPG,5,ISIC_0024759.JPG,ISIC_0028554.JPG,false,1,keypress(m),500,239038.5,239038.29999995232,230872.264,230877.09999990463,230889.303,239055.931,8,400,16,,ISIC_0024759.JPG
break,html.Screen,4_15_1,2023-09-23T16:59:34.804Z,,0,,,NaN,,,,,,false,,,,239039.19999992847,239039,,239038.59999990463,,239055.931,8,400,,,
break_continue,html.Screen,4_15_2,2023-09-23T16:59:34.804Z,,0,,,NaN,,,,,,false,,,,239039.59999990463,239039.5,,239039.39999997616,,239055.931,8,400,,,
sequence,flow.Sequence,4_15,2023-09-23T16:59:34.805Z,,0,,,8150.196999999986,completion,,,,,false,,,,239039.79999995232,239039.5,230872.264,230877.09999990463,230889.303,239055.931,8,400,,,
trial,html.Screen,4_16_0,2023-09-23T16:59:40.023Z,,0,1,,5201.768999928463,response,ISIC_4274519.JPG,5,ISIC_9754098.JPG,ISIC_9754098.JPG,false,0,keypress(z),500,244257.89999997616,244257.69999992847,239039.262,239039.89999997616,239055.931,244272.581,8,400,17,,ISIC_4274519.JPG
break,html.Screen,4_16_1,2023-09-23T16:59:40.023Z,,0,,,NaN,,,,,,false,,,,244258.59999990463,244258.39999997616,,244258.09999990463,,244272.581,8,400,,,
break_continue,html.Screen,4_16_2,2023-09-23T16:59:40.024Z,,0,,,NaN,,,,,,false,,,,244259,244258.89999997616,,244258.79999995232,,244272.581,8,400,,,
sequence,flow.Sequence,4_16,2023-09-23T16:59:40.024Z,,0,,,5202.968999976147,completion,,,,,false,,,,244259.09999990463,244258.89999997616,239039.262,239039.89999997616,239055.931,244272.581,8,400,,,
trial,html.Screen,4_17_0,2023-09-23T16:59:47.594Z,,0,1,,7556.418999999994,response,ISIC_2177748.JPG,6,ISIC_1008609.JPG,ISIC_2177748.JPG,false,1,keypress(m),500,251829.19999992847,251829,244255.673,244259.29999995232,244272.581,251839.112,8,400,18,,ISIC_1008609.JPG
break,html.Screen,4_17_1,2023-09-23T16:59:47.595Z,,0,,,NaN,,,,,,false,,,,251829.89999997616,251829.59999990463,,251829.29999995232,,251839.112,8,400,,,
break_continue,html.Screen,4_17_2,2023-09-23T16:59:47.595Z,,0,,,NaN,,,,,,false,,,,251830.29999995232,251830.19999992847,,251830.09999990463,,251839.112,8,400,,,
sequence,flow.Sequence,4_17,2023-09-23T16:59:47.595Z,,0,,,7557.618999928469,completion,,,,,false,,,,251830.5,251830.19999992847,244255.673,244259.19999992847,244272.581,251839.112,8,400,,,
trial,html.Screen,4_18_0,2023-09-23T16:59:57.870Z,,0,1,,10265.58799992848,response,ISIC_0071196.JPG,5,ISIC_4071825.JPG,ISIC_4071825.JPG,false,0,keypress(z),500,262105,262104.69999992847,251822.362,251830.5,251839.112,262122.378,8,400,19,,ISIC_0071196.JPG
break,html.Screen,4_18_1,2023-09-23T16:59:57.870Z,,0,,,NaN,,,,,,false,,,,262105.69999992847,262105.5,,262105.09999990463,,262122.378,8,400,,,
break_continue,html.Screen,4_18_2,2023-09-23T16:59:57.871Z,,0,,,NaN,,,,,,false,,,,262106.09999990463,262106,,262105.79999995232,,262122.378,8,400,,,
sequence,flow.Sequence,4_18,2023-09-23T16:59:57.871Z,,0,,,10266.888000000006,completion,,,,,false,,,,262106.29999995232,262106,251822.362,251830.5,251839.112,262122.378,8,400,,,
trial,html.Screen,4_19_0,2023-09-23T17:00:05.125Z,,0,1,,7238.021999976161,response,ISIC_9935444.JPG,4,ISIC_9709594.JPG,ISIC_9935444.JPG,false,1,keypress(m),500,269360.59999990463,269360.39999997616,262105.719,262106.39999997616,262122.378,269372.46,8,400,20,,ISIC_9709594.JPG
break,html.Screen,4_19_1,2023-09-23T17:00:05.126Z,,0,,,NaN,,,,,,false,,,,269361.2999999523,269361.09999990463,,269360.7999999523,,269372.46,8,400,,,
break_continue,html.Screen,4_19_2,2023-09-23T17:00:05.126Z,,0,,,NaN,,,,,,false,,,,269361.6999999285,269361.59999990463,,269361.5,,269372.46,8,400,,,
sequence,flow.Sequence,4_19,2023-09-23T17:00:05.127Z,,0,,,7239.221999904636,completion,,,,,false,,,,269361.89999997616,269361.59999990463,262105.719,262106.39999997616,262122.378,269372.46,8,400,,,
trial,html.Screen,4_20_0,2023-09-23T17:00:12.856Z,,0,1,,7719.039999999979,response,ISIC_1216139.JPG,5,ISIC_0025165.JPG,ISIC_0025165.JPG,false,0,keypress(z),500,277091.6999999285,277091.5,269355.89,269362,269372.46,277105.775,8,400,21,,ISIC_1216139.JPG
break,html.Screen,4_20_1,2023-09-23T17:00:12.857Z,,0,,,NaN,,,,,,false,,,,277092.39999997616,277092.1999999285,,277091.7999999523,,277105.775,8,400,,,
break_continue,html.Screen,4_20_2,2023-09-23T17:00:12.858Z,,0,,,NaN,,,,,,false,,,,277092.7999999523,277092.6999999285,,277092.5,,277105.775,8,400,,,
sequence,flow.Sequence,4_20,2023-09-23T17:00:12.858Z,,0,,,7720.2399999284535,completion,,,,,false,,,,277092.89999997616,277092.6999999285,269355.89,269362,269372.46,277105.775,8,400,,,
trial,html.Screen,4_21_0,2023-09-23T17:00:18.146Z,,0,1,,5275.024999952293,response,ISIC_7125023.JPG,5,ISIC_0067027.JPG,ISIC_0067027.JPG,false,0,keypress(z),500,282381.09999990463,282380.7999999523,277089.04,277093,277105.775,282389.047,8,400,22,,ISIC_7125023.JPG
break,html.Screen,4_21_1,2023-09-23T17:00:18.147Z,,0,,,NaN,,,,,,false,,,,282381.89999997616,282381.59999990463,,282381.1999999285,,282389.047,8,400,,,
break_continue,html.Screen,4_21_2,2023-09-23T17:00:18.147Z,,0,,,NaN,,,,,,false,,,,282382.1999999285,282382.09999990463,,282382,,282389.047,8,400,,,
sequence,flow.Sequence,4_21,2023-09-23T17:00:18.147Z,,0,,,5276.324999904609,completion,,,,,false,,,,282382.39999997616,282382.09999990463,277089.04,277093,277105.775,282389.047,8,400,,,
trial,html.Screen,4_22_0,2023-09-23T17:00:27.621Z,,0,1,,9466.45299999998,response,ISIC_4591316.JPG,5,ISIC_8765068.JPG,ISIC_8765068.JPG,false,0,keypress(z),500,291855.7999999523,291855.5,282372.297,282382.5,282389.047,291872.387,8,400,23,,ISIC_4591316.JPG
break,html.Screen,4_22_1,2023-09-23T17:00:27.621Z,,0,,,NaN,,,,,,false,,,,291856.59999990463,291856.2999999523,,291856,,291872.387,8,400,,,
break_continue,html.Screen,4_22_2,2023-09-23T17:00:27.622Z,,0,,,NaN,,,,,,false,,,,291856.89999997616,291856.7999999523,,291856.6999999285,,291872.387,8,400,,,
sequence,flow.Sequence,4_22,2023-09-23T17:00:27.622Z,,0,,,9467.752999952296,completion,,,,,false,,,,291857.09999990463,291856.7999999523,282372.297,282382.5,282389.047,291872.387,8,400,,,
trial,html.Screen,4_23_0,2023-09-23T17:00:36.523Z,,0,1,,8885.51299997617,response,ISIC_3728352.JPG,6,ISIC_0708542.JPG,ISIC_3728352.JPG,false,1,keypress(m),500,300758.1999999285,300757.89999997616,291855.613,291857.1999999285,291872.387,300772.453,8,400,24,,ISIC_0708542.JPG
break,html.Screen,4_23_1,2023-09-23T17:00:36.524Z,,0,,,NaN,,,,,,false,,,,300758.89999997616,300758.6999999285,,300758.2999999523,,300772.453,8,400,,,
break_continue,html.Screen,4_23_2,2023-09-23T17:00:36.524Z,,0,,,NaN,,,,,,false,,,,300759.39999997616,300759.2999999523,,300759.09999990463,,300772.453,8,400,,,
sequence,flow.Sequence,4_23,2023-09-23T17:00:36.524Z,,0,,,8886.912999952328,completion,,,,,false,,,,300759.5,300759.2999999523,291855.613,291857.1999999285,291872.387,300772.453,8,400,,,
trial,html.Screen,4_24_0,2023-09-23T17:00:41.150Z,,0,1,,4613.146999904653,response,ISIC_2161864.JPG,5,ISIC_5599298.JPG,ISIC_5599298.JPG,false,0,keypress(z),500,305385.6999999285,305385.59999990463,300755.678,300759.7999999523,300772.453,305388.882,8,400,25,,ISIC_2161864.JPG
break,html.Screen,4_24_1,2023-09-23T17:00:41.151Z,,0,,,NaN,,,,,,false,,,,305386.39999997616,305386.2999999523,,305386,,305388.882,8,400,,,
break_continue,html.Screen,4_24_2,2023-09-23T17:00:41.151Z,,0,,,NaN,,,,,,false,,,,305386.7999999523,305386.6999999285,,305386.5,,305388.882,8,400,,,
sequence,flow.Sequence,4_24,2023-09-23T17:00:41.152Z,,0,,,4614.246999928495,completion,,,,,false,,,,305386.89999997616,305386.6999999285,300755.678,300759.6999999285,300772.453,305388.882,8,400,,,
trial,html.Screen,4_25_0,2023-09-23T17:00:46.449Z,,0,1,,5295.118000000017,response,ISIC_0014982.JPG,5,ISIC_7899041.JPG,ISIC_7899041.JPG,false,0,keypress(z),500,310684.2999999523,310684,305372.532,305387,305388.882,310705.621,8,400,26,,ISIC_0014982.JPG
break,html.Screen,4_25_1,2023-09-23T17:00:46.450Z,,0,,,NaN,,,,,,false,,,,310685,310684.7999999523,,310684.39999997616,,310705.621,8,400,,,
break_continue,html.Screen,4_25_2,2023-09-23T17:00:46.450Z,,0,,,NaN,,,,,,false,,,,310685.2999999523,310685.1999999285,,310685,,310705.621,8,400,,,
sequence,flow.Sequence,4_25,2023-09-23T17:00:46.450Z,,0,,,5296.317999928491,completion,,,,,false,,,,310685.39999997616,310685.1999999285,305372.532,305387,305388.882,310705.621,8,400,,,
trial,html.Screen,4_26_0,2023-09-23T17:00:51.127Z,,0,1,,4656.07899992849,response,ISIC_0029395.JPG,4,ISIC_4960784.JPG,ISIC_4960784.JPG,false,0,keypress(z),500,315362,315361.6999999285,310689.018,310685.5,310705.621,315389.072,8,400,27,,ISIC_0029395.JPG
break,html.Screen,4_26_1,2023-09-23T17:00:51.127Z,,0,,,NaN,,,,,,false,,,,315362.59999990463,315362.39999997616,,315362.09999990463,,315389.072,8,400,,,
break_continue,html.Screen,4_26_2,2023-09-23T17:00:51.128Z,,0,,,NaN,,,,,,false,,,,315363,315362.7999999523,,315362.7999999523,,315389.072,8,400,,,
sequence,flow.Sequence,4_26,2023-09-23T17:00:51.128Z,,0,,,4657.178999952332,completion,,,,,false,,,,315363.09999990463,315362.7999999523,310689.018,310685.5,310705.621,315389.072,8,400,,,
trial,html.Screen,4_27_0,2023-09-23T17:01:01.069Z,,0,1,,9914.72799995233,response,ISIC_0054364.JPG,5,ISIC_0071783.JPG,ISIC_0054364.JPG,false,1,keypress(m),500,325304,325303.7999999523,315372.606,315363.2999999523,315389.072,325322.495,8,400,28,,ISIC_0071783.JPG
break,html.Screen,4_27_1,2023-09-23T17:01:01.069Z,,0,,,NaN,,,,,,false,,,,325304.6999999285,325304.59999990463,,325304.2999999523,,325322.495,8,400,,,
break_continue,html.Screen,4_27_2,2023-09-23T17:01:01.070Z,,0,,,NaN,,,,,,false,,,,325305,325305,,325304.7999999523,,325322.495,8,400,,,
sequence,flow.Sequence,4_27,2023-09-23T17:01:01.070Z,,0,,,9915.928000000014,completion,,,,,false,,,,325305.1999999285,325305,315372.606,315363.1999999285,315389.072,325322.495,8,400,,,
trial,html.Screen,4_28_0,2023-09-23T17:01:07.584Z,,0,1,,6496.704999928479,response,ISIC_0024802.JPG,4,ISIC_0067054.JPG,ISIC_0067054.JPG,false,0,keypress(z),500,331819.39999997616,331819.1999999285,325305.517,325305.39999997616,325322.495,331822.184,8,400,29,,ISIC_0024802.JPG
break,html.Screen,4_28_1,2023-09-23T17:01:07.585Z,,0,,,NaN,,,,,,false,,,,331820.1999999285,331819.89999997616,,331819.59999990463,,331822.184,8,400,,,
break_continue,html.Screen,4_28_2,2023-09-23T17:01:07.585Z,,0,,,NaN,,,,,,false,,,,331820.5,331820.39999997616,,331820.1999999285,,331822.184,8,400,,,
sequence,flow.Sequence,4_28,2023-09-23T17:01:07.585Z,,0,,,6497.904999976163,completion,,,,,false,,,,331820.6999999285,331820.39999997616,325305.517,325305.2999999523,325322.495,331822.184,8,400,,,
trial,html.Screen,4_29_0,2023-09-23T17:01:18.820Z,,0,1,,11232.915999904624,response,ISIC_0029189.JPG,5,ISIC_4548632.JPG,ISIC_0029189.JPG,false,1,keypress(m),500,343055.2999999523,343055.09999990463,331805.605,331820.7999999523,331822.184,343072.324,8,400,30,,ISIC_4548632.JPG
break,html.Screen,4_29_1,2023-09-23T17:01:18.821Z,,0,,,NaN,,,,,,false,,,,343056.09999990463,343055.7999999523,,343055.5,,343072.324,8,400,,,
break_continue,html.Screen,4_29_2,2023-09-23T17:01:18.821Z,,0,,,NaN,,,,,,false,,,,343056.39999997616,343056.2999999523,,343056.1999999285,,343072.324,8,400,,,
sequence,flow.Sequence,4_29,2023-09-23T17:01:18.821Z,,0,,,11234.115999952308,completion,,,,,false,,,,343056.59999990463,343056.2999999523,331805.605,331820.6999999285,331822.184,343072.324,8,400,,,
trial,html.Screen,4_30_0,2023-09-23T17:01:25.883Z,,0,1,,7045.875999928452,response,ISIC_3328295.JPG,5,ISIC_0013845.JPG,ISIC_0013845.JPG,false,0,keypress(z),500,350118.5,350118.1999999285,343055.587,343056.6999999285,343072.324,350122.14,8,400,31,,ISIC_3328295.JPG
break,html.Screen,4_30_1,2023-09-23T17:01:25.884Z,,0,,,NaN,,,,,,false,,,,350119.39999997616,350119.09999990463,,350118.6999999285,,350122.14,8,400,,,
break_continue,html.Screen,4_30_2,2023-09-23T17:01:25.884Z,,0,,,NaN,,,,,,false,,,,350119.7999999523,350119.59999990463,,350119.5,,350122.14,8,400,,,
sequence,flow.Sequence,4_30,2023-09-23T17:01:25.885Z,,0,,,7047.27599990461,completion,,,,,false,,,,350119.89999997616,350119.59999990463,343055.587,343056.6999999285,343072.324,350122.14,8,400,,,
trial,html.Screen,4_31_0,2023-09-23T17:01:35.442Z,,0,1,,9554.459999904619,response,ISIC_0010306.JPG,5,ISIC_2642742.JPG,ISIC_0010306.JPG,false,1,keypress(m),500,359676.7999999523,359676.59999990463,350105.481,350120.09999990463,350122.14,359689.143,8,400,32,,ISIC_2642742.JPG
break,html.Screen,4_31_1,2023-09-23T17:01:35.442Z,,0,,,NaN,,,,,,false,,,,359677.6999999285,359677.5,,359677.09999990463,,359689.143,8,400,,,
break_continue,html.Screen,4_31_2,2023-09-23T17:01:35.443Z,,0,,,NaN,,,,,,false,,,,359678,359678,,359677.7999999523,,359689.143,8,400,,,
sequence,flow.Sequence,4_31,2023-09-23T17:01:35.443Z,,0,,,9555.859999999986,completion,,,,,false,,,,359678.1999999285,359678,350105.481,350120,350122.14,359689.143,8,400,,,
trial,html.Screen,4_32_0,2023-09-23T17:01:44.586Z,,0,1,,9131.556999928493,response,ISIC_0032441.JPG,4,ISIC_4523382.JPG,ISIC_0032441.JPG,false,1,keypress(m),500,368821,368820.6999999285,359672.253,359678.2999999523,359689.143,368839.037,8,400,33,,ISIC_4523382.JPG
break,html.Screen,4_32_1,2023-09-23T17:01:44.586Z,,0,,,NaN,,,,,,false,,,,368821.7999999523,368821.39999997616,,368821.09999990463,,368839.037,8,400,,,
break_continue,html.Screen,4_32_2,2023-09-23T17:01:44.587Z,,0,,,NaN,,,,,,false,,,,368822.09999990463,368822.09999990463,,368821.89999997616,,368839.037,8,400,,,
sequence,flow.Sequence,4_32,2023-09-23T17:01:44.587Z,,0,,,9132.95699990465,completion,,,,,false,,,,368822.2999999523,368822.09999990463,359672.253,359678.2999999523,359689.143,368839.037,8,400,,,
trial,html.Screen,4_33_0,2023-09-23T17:01:52.445Z,,0,1,,7840.562999904621,response,ISIC_3485583.JPG,4,ISIC_0066935.JPG,ISIC_0066935.JPG,false,0,keypress(z),500,376679.7999999523,376679.59999990463,368805.597,368822.39999997616,368839.037,376688.726,8,400,34,,ISIC_3485583.JPG
break,html.Screen,4_33_1,2023-09-23T17:01:52.445Z,,0,,,NaN,,,,,,false,,,,376680.5,376680.2999999523,,376680,,376688.726,8,400,,,
break_continue,html.Screen,4_33_2,2023-09-23T17:01:52.446Z,,0,,,NaN,,,,,,false,,,,376680.89999997616,376680.7999999523,,376680.6999999285,,376688.726,8,400,,,
sequence,flow.Sequence,4_33,2023-09-23T17:01:52.446Z,,0,,,7841.762999952305,completion,,,,,false,,,,376681.09999990463,376680.7999999523,368805.597,368822.39999997616,368839.037,376688.726,8,400,,,
trial,html.Screen,4_34_0,2023-09-23T17:02:01.350Z,,0,1,,8895.873999904608,response,ISIC_0011726.JPG,6,ISIC_4350093.JPG,ISIC_0011726.JPG,false,1,keypress(m),500,385584.7999999523,385584.59999990463,376672.269,376681.1999999285,376688.726,385588.733,8,400,35,,ISIC_4350093.JPG
break,html.Screen,4_34_1,2023-09-23T17:02:01.350Z,,0,,,NaN,,,,,,false,,,,385585.59999990463,385585.39999997616,,385585,,385588.733,8,400,,,
break_continue,html.Screen,4_34_2,2023-09-23T17:02:01.351Z,,0,,,NaN,,,,,,false,,,,385585.89999997616,385585.7999999523,,385585.6999999285,,385588.733,8,400,,,
sequence,flow.Sequence,4_34,2023-09-23T17:02:01.351Z,,0,,,8897.073999952292,completion,,,,,false,,,,385586.1999999285,385585.7999999523,376672.269,376681.1999999285,376688.726,385588.733,8,400,,,
trial,html.Screen,4_35_0,2023-09-23T17:02:05.416Z,,0,1,,4062.6669999761507,response,ISIC_3941147.JPG,5,ISIC_0031960.JPG,ISIC_3941147.JPG,false,1,keypress(m),500,389651.5,389651.39999997616,385571.904,385586.1999999285,385588.733,389655.363,8,400,36,,ISIC_0031960.JPG
break,html.Screen,4_35_1,2023-09-23T17:02:05.417Z,,0,,,NaN,,,,,,false,,,,389652.39999997616,389652.09999990463,,389651.7999999523,,389655.363,8,400,,,
break_continue,html.Screen,4_35_2,2023-09-23T17:02:05.417Z,,0,,,NaN,,,,,,false,,,,389652.7999999523,389652.6999999285,,389652.5,,389655.363,8,400,,,
sequence,flow.Sequence,4_35,2023-09-23T17:02:05.418Z,,0,,,4063.966999928467,completion,,,,,false,,,,389653,389652.6999999285,385571.904,385586.1999999285,385588.733,389655.363,8,400,,,
trial,html.Screen,4_36_0,2023-09-23T17:02:09.916Z,,0,1,,4495.136999999988,response,ISIC_2975580.JPG,6,ISIC_0008621.JPG,ISIC_2975580.JPG,false,1,keypress(m),500,394150.7999999523,394150.5,389639.016,389653,389655.363,394155.306,8,400,37,,ISIC_0008621.JPG
break,html.Screen,4_36_1,2023-09-23T17:02:09.916Z,,0,,,NaN,,,,,,false,,,,394151.6999999285,394151.39999997616,,394151.09999990463,,394155.306,8,400,,,
break_continue,html.Screen,4_36_2,2023-09-23T17:02:09.917Z,,0,,,NaN,,,,,,false,,,,394152,394151.89999997616,,394151.7999999523,,394155.306,8,400,,,
sequence,flow.Sequence,4_36,2023-09-23T17:02:09.917Z,,0,,,4496.536999976146,completion,,,,,false,,,,394152.1999999285,394151.89999997616,389639.016,389653,389655.363,394155.306,8,400,,,
trial,html.Screen,4_37_0,2023-09-23T17:02:14.367Z,,0,1,,4446.893999928492,response,ISIC_5198780.JPG,5,ISIC_7409889.JPG,ISIC_7409889.JPG,false,0,keypress(z),500,398602.5,398602.1999999285,394138.81,394152.1999999285,394155.306,398605.31,8,400,38,,ISIC_5198780.JPG
break,html.Screen,4_37_1,2023-09-23T17:02:14.368Z,,0,,,NaN,,,,,,false,,,,398603.2999999523,398603,,398602.6999999285,,398605.31,8,400,,,
break_continue,html.Screen,4_37_2,2023-09-23T17:02:14.368Z,,0,,,NaN,,,,,,false,,,,398603.59999990463,398603.5,,398603.2999999523,,398605.31,8,400,,,
sequence,flow.Sequence,4_37,2023-09-23T17:02:14.368Z,,0,,,4448.194000000018,completion,,,,,false,,,,398603.6999999285,398603.5,394138.81,394152.1999999285,394155.306,398605.31,8,400,,,
trial,html.Screen,4_38_0,2023-09-23T17:02:22.242Z,,0,1,,7872.0899999761605,response,ISIC_0034260.JPG,5,ISIC_1296490.JPG,ISIC_1296490.JPG,false,0,keypress(z),500,406477.5,406477.39999997616,398588.639,398603.7999999523,398605.31,406488.612,8,400,39,,ISIC_0034260.JPG
break,html.Screen,4_38_1,2023-09-23T17:02:22.243Z,,0,,,NaN,,,,,,false,,,,406478.2999999523,406478.09999990463,,406477.6999999285,,406488.612,8,400,,,
break_continue,html.Screen,4_38_2,2023-09-23T17:02:22.243Z,,0,,,NaN,,,,,,false,,,,406478.6999999285,406478.5,,406478.5,,406488.612,8,400,,,
sequence,flow.Sequence,4_38,2023-09-23T17:02:22.244Z,,0,,,7873.190000000002,completion,,,,,false,,,,406478.7999999523,406478.5,398588.639,398603.7999999523,398605.31,406488.612,8,400,,,
trial,html.Screen,4_39_0,2023-09-23T17:02:31.128Z,,0,1,,8872.587999928452,response,ISIC_6381197.JPG,5,ISIC_0027095.JPG,ISIC_0027095.JPG,false,0,keypress(z),500,415361.39999997616,415361.1999999285,406472.004,406478.89999997616,406488.612,415371.922,8,400,40,,ISIC_6381197.JPG
break,html.Screen,4_39_1,2023-09-23T17:02:31.129Z,,0,,,NaN,,,,,,false,,,,415362.1999999285,415361.89999997616,,415361.59999990463,,415371.922,8,400,,,
break_continue,html.Screen,4_39_2,2023-09-23T17:02:31.129Z,,0,,,NaN,,,,,,false,,,,415362.5,415362.39999997616,,415362.2999999523,,415371.922,8,400,,,
sequence,flow.Sequence,4_39,2023-09-23T17:02:31.129Z,,0,,,8873.787999976135,completion,,,,,false,,,,415362.6999999285,415362.39999997616,406472.004,406478.89999997616,406488.612,415371.922,8,400,,,
trial,html.Screen,4_40_0,2023-09-23T17:02:40.127Z,,0,1,,8988.07799999998,response,ISIC_0054982.JPG,5,ISIC_0068460.JPG,ISIC_0054982.JPG,false,1,keypress(m),500,424360.1999999285,424360,415355.45,415362.6999999285,415371.922,424371.909,8,400,41,,ISIC_0068460.JPG
break,html.Screen,4_40_1,2023-09-23T17:02:40.127Z,,0,,,NaN,,,,,,false,,,,424360.89999997616,424360.7999999523,,424360.39999997616,,424371.909,8,400,,,
break_continue,html.Screen,4_40_2,2023-09-23T17:02:40.128Z,,0,,,NaN,,,,,,false,,,,424361.2999999523,424361.1999999285,,424361,,424371.909,8,400,,,
sequence,flow.Sequence,4_40,2023-09-23T17:02:40.129Z,,0,,,8989.277999928454,completion,,,,,false,,,,424362.5,424361.1999999285,415355.45,415362.6999999285,415371.922,424371.909,8,400,,,
trial,html.Screen,4_41_0,2023-09-23T17:02:51.027Z,,0,1,,10887.79099992849,response,ISIC_1919324.JPG,4,ISIC_0033805.JPG,ISIC_0033805.JPG,false,0,keypress(z),500,435260,435259.6999999285,424355.353,424362.59999990463,424371.909,435271.987,8,400,42,,ISIC_1919324.JPG
break,html.Screen,4_41_1,2023-09-23T17:02:51.027Z,,0,,,NaN,,,,,,false,,,,435260.6999999285,435260.5,,435260.1999999285,,435271.987,8,400,,,
break_continue,html.Screen,4_41_2,2023-09-23T17:02:51.028Z,,0,,,NaN,,,,,,false,,,,435261.1999999285,435261,,435260.89999997616,,435271.987,8,400,,,
sequence,flow.Sequence,4_41,2023-09-23T17:02:51.028Z,,0,,,10889.091000000015,completion,,,,,false,,,,435261.2999999523,435261,424355.353,424362.59999990463,424371.909,435271.987,8,400,,,
trial,html.Screen,4_42_0,2023-09-23T17:02:55.830Z,,0,1,,4791.61299990461,response,ISIC_0026081.JPG,6,ISIC_0028489.JPG,ISIC_0026081.JPG,false,1,keypress(m),500,440063.7999999523,440063.59999990463,435255.198,435261.39999997616,435271.987,440072.103,8,400,43,,ISIC_0028489.JPG
break,html.Screen,4_42_1,2023-09-23T17:02:55.831Z,,0,,,NaN,,,,,,false,,,,440064.59999990463,440064.2999999523,,440064,,440072.103,8,400,,,
break_continue,html.Screen,4_42_2,2023-09-23T17:02:55.831Z,,0,,,NaN,,,,,,false,,,,440064.89999997616,440064.7999999523,,440064.6999999285,,440072.103,8,400,,,
sequence,flow.Sequence,4_42,2023-09-23T17:02:55.832Z,,0,,,4792.8129999522935,completion,,,,,false,,,,440065,440064.7999999523,435255.198,435261.2999999523,435271.987,440072.103,8,400,,,
trial,html.Screen,4_43_0,2023-09-23T17:02:59.689Z,,0,1,,3850.2969999761553,response,ISIC_6384997.JPG,5,ISIC_0058047.JPG,ISIC_0058047.JPG,false,0,keypress(z),500,443922.59999990463,443922.39999997616,440055.395,440065.1999999285,440072.103,443938.581,8,400,44,,ISIC_6384997.JPG
break,html.Screen,4_43_1,2023-09-23T17:02:59.690Z,,0,,,NaN,,,,,,false,,,,443923.2999999523,443923,,443922.7999999523,,443938.581,8,400,,,
break_continue,html.Screen,4_43_2,2023-09-23T17:02:59.690Z,,0,,,NaN,,,,,,false,,,,443923.6999999285,443923.5,,443923.5,,443938.581,8,400,,,
sequence,flow.Sequence,4_43,2023-09-23T17:02:59.690Z,,0,,,3851.396999999997,completion,,,,,false,,,,443923.7999999523,443923.5,440055.395,440065.1999999285,440072.103,443938.581,8,400,,,
trial,html.Screen,4_44_0,2023-09-23T17:03:05.726Z,,0,1,,6020.618999928469,response,ISIC_0010958.JPG,5,ISIC_3649632.JPG,ISIC_0010958.JPG,false,1,keypress(m),500,449959.39999997616,449959.1999999285,443921.896,443923.89999997616,443938.581,449988.683,8,400,45,,ISIC_3649632.JPG
break,html.Screen,4_44_1,2023-09-23T17:03:05.727Z,,0,,,NaN,,,,,,false,,,,449960.09999990463,449959.89999997616,,449959.6999999285,,449988.683,8,400,,,
break_continue,html.Screen,4_44_2,2023-09-23T17:03:05.727Z,,0,,,NaN,,,,,,false,,,,449960.39999997616,449960.39999997616,,449960.2999999523,,449988.683,8,400,,,
sequence,flow.Sequence,4_44,2023-09-23T17:03:05.727Z,,0,,,6021.818999976153,completion,,,,,false,,,,449960.59999990463,449960.39999997616,443921.896,443923.89999997616,443938.581,449988.683,8,400,,,
trial,html.Screen,4_45_0,2023-09-23T17:03:17.137Z,,0,1,,11381.416999904613,response,ISIC_0010441.JPG,4,ISIC_0006730.JPG,ISIC_0010441.JPG,false,1,keypress(m),500,461370.2999999523,461370.09999990463,449972.311,449960.6999999285,449988.683,461389.026,8,400,46,,ISIC_0006730.JPG
break,html.Screen,4_45_1,2023-09-23T17:03:17.138Z,,0,,,NaN,,,,,,false,,,,461371.1999999285,461370.89999997616,,461370.59999990463,,461389.026,8,400,,,
break_continue,html.Screen,4_45_2,2023-09-23T17:03:17.138Z,,0,,,NaN,,,,,,false,,,,461371.5,461371.39999997616,,461371.2999999523,,461389.026,8,400,,,
sequence,flow.Sequence,4_45,2023-09-23T17:03:17.138Z,,0,,,11382.716999976139,completion,,,,,false,,,,461371.59999990463,461371.39999997616,449972.311,449960.6999999285,449988.683,461389.026,8,400,,,
trial,html.Screen,4_46_0,2023-09-23T17:03:26.260Z,,0,1,,9103.673999928462,response,ISIC_0001108.JPG,5,ISIC_6260969.JPG,ISIC_6260969.JPG,false,0,keypress(z),500,470492.89999997616,470492.6999999285,461371.842,461371.7999999523,461389.026,470505.349,8,400,47,,ISIC_0001108.JPG
break,html.Screen,4_46_1,2023-09-23T17:03:26.260Z,,0,,,NaN,,,,,,false,,,,470493.6999999285,470493.5,,470493.1999999285,,470505.349,8,400,,,
break_continue,html.Screen,4_46_2,2023-09-23T17:03:26.261Z,,0,,,NaN,,,,,,false,,,,470494,470493.89999997616,,470493.89999997616,,470505.349,8,400,,,
sequence,flow.Sequence,4_46,2023-09-23T17:03:26.261Z,,0,,,9104.873999976146,completion,,,,,false,,,,470494.1999999285,470493.89999997616,461371.842,461371.7999999523,461389.026,470505.349,8,400,,,
trial,html.Screen,4_47_0,2023-09-23T17:03:31.841Z,,0,1,,5563.350999928487,response,ISIC_0000368.JPG,5,ISIC_3370062.JPG,ISIC_3370062.JPG,false,0,keypress(z),500,476068.89999997616,476068.6999999285,470488.361,470494.39999997616,470505.349,476071.78,8,400,48,,ISIC_0000368.JPG
break,html.Screen,4_47_1,2023-09-23T17:03:31.842Z,,0,,,NaN,,,,,,false,,,,476069.6999999285,476069.5,,476069.09999990463,,476071.78,8,400,,,
break_continue,html.Screen,4_47_2,2023-09-23T17:03:31.842Z,,0,,,NaN,,,,,,false,,,,476070.09999990463,476070,,476069.89999997616,,476071.78,8,400,,,
sequence,flow.Sequence,4_47,2023-09-23T17:03:31.842Z,,0,,,5564.651000000013,completion,,,,,false,,,,476070.2999999523,476070,470488.361,470494.2999999523,470505.349,476071.78,8,400,,,
trial,html.Screen,4_48_0,2023-09-23T17:03:40.582Z,,0,1,,8738.019999952288,response,ISIC_0069970.JPG,6,ISIC_5948901.JPG,ISIC_5948901.JPG,false,0,keypress(z),500,484810.09999990463,484809.7999999523,476055.512,476070.39999997616,476071.78,484821.972,8,400,49,,ISIC_0069970.JPG
break,html.Screen,4_48_1,2023-09-23T17:03:40.583Z,,0,,,NaN,,,,,,false,,,,484811,484810.59999990463,,484810.2999999523,,484821.972,8,400,,,
break_continue,html.Screen,4_48_2,2023-09-23T17:03:40.584Z,,0,,,NaN,,,,,,false,,,,484811.39999997616,484811.2999999523,,484811.1999999285,,484821.972,8,400,,,
sequence,flow.Sequence,4_48,2023-09-23T17:03:40.584Z,,0,,,8739.519999952288,completion,,,,,false,,,,484811.59999990463,484811.2999999523,476055.512,476070.39999997616,476071.78,484821.972,8,400,,,
trial,html.Screen,4_49_0,2023-09-23T17:03:44.537Z,,0,1,,3942.7279999284656,response,ISIC_2124148.JPG,6,ISIC_0778327.JPG,ISIC_2124148.JPG,false,1,keypress(m),500,488764.89999997616,488764.6999999285,484805.452,484811.7999999523,484821.972,488771.817,8,400,50,,ISIC_0778327.JPG
break,html.Screen,4_49_1,2023-09-23T17:03:54.529Z,,0,,,10000.227000000014,timeout,,,,,false,,,,498756.59999990463,498755.547,488755.008,488765.1999999285,488771.817,498772.044,8,400,,,
break_continue,html.Screen,4_49_2,2023-09-23T17:03:57.527Z,,0,,,2977.255999952322,response,,,,,false,continue,keypress(Space),,501754.6999999285,501749.2999999523,498755.547,498756.6999999285,498772.044,501771.882,8,400,,,
sequence,flow.Sequence,4_49,2023-09-23T17:03:57.527Z,,0,,,16927.327999952307,completion,,,,,false,,,,501754.89999997616,501749.2999999523,484805.452,484811.6999999285,484821.972,501771.882,8,400,,,
trial,html.Screen,4_50_0,2023-09-23T17:04:00.984Z,,0,2,,3440.317999928491,response,ISIC_9077722.JPG,5,ISIC_0025512.JPG,ISIC_0025512.JPG,false,0,keypress(z),500,505212.39999997616,505212.1999999285,501755.124,501754.89999997616,501771.882,505221.823,8,400,1,,ISIC_9077722.JPG
break,html.Screen,4_50_1,2023-09-23T17:04:00.985Z,,0,,,NaN,,,,,,false,,,,505213.1999999285,505212.89999997616,,505212.59999990463,,505221.823,8,400,,,
break_continue,html.Screen,4_50_2,2023-09-23T17:04:00.986Z,,0,,,NaN,,,,,,false,,,,505213.59999990463,505213.5,,505213.2999999523,,505221.823,8,400,,,
sequence,flow.Sequence,4_50,2023-09-23T17:04:00.986Z,,0,,,3441.6180000000168,completion,,,,,false,,,,505213.6999999285,505213.5,501755.124,501754.89999997616,501771.882,505221.823,8,400,,,
trial,html.Screen,4_51_0,2023-09-23T17:04:04.078Z,,0,2,,3083.677000000025,response,ISIC_0010049.JPG,6,ISIC_6054977.JPG,ISIC_0010049.JPG,false,1,keypress(m),500,508305.7999999523,508305.5,505205.163,505213.89999997616,505221.823,508322.179,8,400,2,,ISIC_6054977.JPG
break,html.Screen,4_51_1,2023-09-23T17:04:04.079Z,,0,,,NaN,,,,,,false,,,,508306.5,508306.2999999523,,508305.89999997616,,508322.179,8,400,,,
break_continue,html.Screen,4_51_2,2023-09-23T17:04:04.079Z,,0,,,NaN,,,,,,false,,,,508306.89999997616,508306.6999999285,,508306.59999990463,,508322.179,8,400,,,
sequence,flow.Sequence,4_51,2023-09-23T17:04:04.079Z,,0,,,3084.8769999284996,completion,,,,,false,,,,508307,508306.6999999285,505205.163,505213.7999999523,505221.823,508322.179,8,400,,,
trial,html.Screen,4_52_0,2023-09-23T17:04:08.178Z,,0,2,,4083.420999904629,response,ISIC_1874480.JPG,4,ISIC_7218890.JPG,ISIC_1874480.JPG,false,1,keypress(m),500,512405.7999999523,512405.59999990463,508305.172,508307.09999990463,508322.179,512422.193,8,400,3,,ISIC_7218890.JPG
break,html.Screen,4_52_1,2023-09-23T17:04:08.179Z,,0,,,NaN,,,,,,false,,,,512406.59999990463,512406.2999999523,,512406,,512422.193,8,400,,,
break_continue,html.Screen,4_52_2,2023-09-23T17:04:08.179Z,,0,,,NaN,,,,,,false,,,,512407,512406.89999997616,,512406.7999999523,,512422.193,8,400,,,
sequence,flow.Sequence,4_52,2023-09-23T17:04:08.179Z,,0,,,4084.7209999761544,completion,,,,,false,,,,512407.1999999285,512406.89999997616,508305.172,508307.09999990463,508322.179,512422.193,8,400,,,
trial,html.Screen,4_53_0,2023-09-23T17:04:15.514Z,,0,2,,7319.506999928446,response,ISIC_0046597.JPG,5,ISIC_9598638.JPG,ISIC_0046597.JPG,false,1,keypress(m),500,519741.7999999523,519741.6999999285,512405.565,512407.39999997616,512422.193,519755.202,8,400,4,,ISIC_9598638.JPG
break,html.Screen,4_53_1,2023-09-23T17:04:15.515Z,,0,,,NaN,,,,,,false,,,,519742.59999990463,519742.39999997616,,519742.09999990463,,519755.202,8,400,,,
break_continue,html.Screen,4_53_2,2023-09-23T17:04:15.515Z,,0,,,NaN,,,,,,false,,,,519743,519742.89999997616,,519742.7999999523,,519755.202,8,400,,,
sequence,flow.Sequence,4_53,2023-09-23T17:04:15.515Z,,0,,,7320.70699997613,completion,,,,,false,,,,519743.1999999285,519742.89999997616,512405.565,512407.2999999523,512422.193,519755.202,8,400,,,
trial,html.Screen,4_54_0,2023-09-23T17:04:19.310Z,,0,2,,3782.29800000001,response,ISIC_0014013.JPG,5,ISIC_0033171.JPG,ISIC_0014013.JPG,false,1,keypress(m),500,523537.6999999285,523537.5,519738.67,519743.2999999523,519755.202,523555.13,8,400,5,,ISIC_0033171.JPG
break,html.Screen,4_54_1,2023-09-23T17:04:19.311Z,,0,,,NaN,,,,,,false,,,,523538.5,523538.1999999285,,523537.89999997616,,523555.13,8,400,,,
break_continue,html.Screen,4_54_2,2023-09-23T17:04:19.311Z,,0,,,NaN,,,,,,false,,,,523538.7999999523,523538.6999999285,,523538.59999990463,,523555.13,8,400,,,
sequence,flow.Sequence,4_54,2023-09-23T17:04:19.311Z,,0,,,3783.497999928484,completion,,,,,false,,,,523538.89999997616,523538.6999999285,519738.67,519743.1999999285,519755.202,523555.13,8,400,,,
trial,html.Screen,4_55_0,2023-09-23T17:04:25.937Z,,0,2,,6609.56999992847,response,ISIC_0009960.JPG,5,ISIC_3812485.JPG,ISIC_3812485.JPG,false,0,keypress(z),500,530164.8999999762,530164.6999999285,523522.125,523539,523555.13,530171.729,8,400,6,,ISIC_0009960.JPG
break,html.Screen,4_55_1,2023-09-23T17:04:25.938Z,,0,,,NaN,,,,,,false,,,,530165.5999999046,530165.3999999762,,530165,,530171.729,8,400,,,
break_continue,html.Screen,4_55_2,2023-09-23T17:04:25.938Z,,0,,,NaN,,,,,,false,,,,530166,530166,,530165.6999999285,,530171.729,8,400,,,
sequence,flow.Sequence,4_55,2023-09-23T17:04:25.938Z,,0,,,6610.869999999995,completion,,,,,false,,,,530166.1999999285,530166,523522.125,523539,523555.13,530171.729,8,400,,,
trial,html.Screen,4_56_0,2023-09-23T17:04:33.642Z,,0,2,,7692.27099999995,response,ISIC_0031293.JPG,5,ISIC_6440229.JPG,ISIC_6440229.JPG,false,0,keypress(z),500,537864.1999999285,537864,530155.17,530166.2999999523,530171.729,537871.704,8,400,7,,ISIC_0031293.JPG
break,html.Screen,4_56_1,2023-09-23T17:04:33.643Z,,0,,,NaN,,,,,,false,,,,537865,537864.6999999285,,537864.3999999762,,537871.704,8,400,,,
break_continue,html.Screen,4_56_2,2023-09-23T17:04:33.643Z,,0,,,NaN,,,,,,false,,,,537865.2999999523,537865.1999999285,,537865.0999999046,,537871.704,8,400,,,
sequence,flow.Sequence,4_56,2023-09-23T17:04:33.643Z,,0,,,7693.470999928424,completion,,,,,false,,,,537865.5,537865.1999999285,530155.17,530166.2999999523,530171.729,537871.704,8,400,,,
trial,html.Screen,4_57_0,2023-09-23T17:04:38.781Z,,0,2,,5131.595999952289,response,ISIC_0000523.JPG,5,ISIC_0463755.JPG,ISIC_0463755.JPG,false,0,keypress(z),500,543003.5,543003.2999999523,537855.24,537865.5999999046,537871.704,543022.453,8,400,8,,ISIC_0000523.JPG
break,html.Screen,4_57_1,2023-09-23T17:04:38.782Z,,0,,,NaN,,,,,,false,,,,543004.2999999523,543004.0999999046,,543003.6999999285,,543022.453,8,400,,,
break_continue,html.Screen,4_57_2,2023-09-23T17:04:38.782Z,,0,,,NaN,,,,,,false,,,,543004.5999999046,543004.5,,543004.3999999762,,543022.453,8,400,,,
sequence,flow.Sequence,4_57,2023-09-23T17:04:38.783Z,,0,,,5132.795999999973,completion,,,,,false,,,,543004.8999999762,543004.5,537855.24,537865.5999999046,537871.704,543022.453,8,400,,,
trial,html.Screen,4_58_0,2023-09-23T17:04:50.284Z,,0,2,,11515.976000000024,timeout,ISIC_0030440.JPG,5,ISIC_0026198.JPG,ISIC_0026198.JPG,false,,,500,554506,554505.7999999523,542988.496,543005,543022.453,554538.429,8,400,9,,ISIC_0030440.JPG
break,html.Screen,4_58_1,2023-09-23T17:04:50.284Z,,0,,,NaN,,,,,,false,,,,554506.5999999046,554506.5,,554506.1999999285,,554538.429,8,400,,,
break_continue,html.Screen,4_58_2,2023-09-23T17:04:50.285Z,,0,,,NaN,,,,,,false,,,,554507,554506.7999999523,,554506.7999999523,,554538.429,8,400,,,
sequence,flow.Sequence,4_58,2023-09-23T17:04:50.285Z,,0,,,11484.346999952337,completion,,,,,false,,,,554507.0999999046,554506.7999999523,542988.496,543005,543022.453,554538.429,8,400,,,
trial,html.Screen,4_59_0,2023-09-23T17:04:53.471Z,,0,2,,3154.9709999761544,response,ISIC_0029963.JPG,6,ISIC_9301809.JPG,ISIC_0029963.JPG,false,1,keypress(m),500,557693.6999999285,557693.3999999762,554521.687,554507.2999999523,554538.429,557704.982,8,400,10,,ISIC_9301809.JPG
break,html.Screen,4_59_1,2023-09-23T17:04:53.472Z,,0,,,NaN,,,,,,false,,,,557694.2999999523,557694.0999999046,,557693.8999999762,,557704.982,8,400,,,
break_continue,html.Screen,4_59_2,2023-09-23T17:04:53.472Z,,0,,,NaN,,,,,,false,,,,557694.6999999285,557694.5999999046,,557694.5,,557704.982,8,400,,,
sequence,flow.Sequence,4_59,2023-09-23T17:04:53.472Z,,0,,,3156.170999904629,completion,,,,,false,,,,557694.7999999523,557694.5999999046,554521.687,554507.1999999285,554538.429,557704.982,8,400,,,
trial,html.Screen,4_60_0,2023-09-23T17:04:59.106Z,,0,2,,5623.317999952356,response,ISIC_0016127.JPG,5,ISIC_1509635.JPG,ISIC_1509635.JPG,false,0,keypress(z),500,563328.5,563328.2999999523,557688.324,557694.8999999762,557704.982,563338.389,8,400,11,,ISIC_0016127.JPG
break,html.Screen,4_60_1,2023-09-23T17:04:59.107Z,,0,,,NaN,,,,,,false,,,,563329.1999999285,563329,,563328.6999999285,,563338.389,8,400,,,
break_continue,html.Screen,4_60_2,2023-09-23T17:04:59.107Z,,0,,,NaN,,,,,,false,,,,563329.6999999285,563329.5999999046,,563329.3999999762,,563338.389,8,400,,,
sequence,flow.Sequence,4_60,2023-09-23T17:04:59.108Z,,0,,,5624.617999904673,completion,,,,,false,,,,563329.8999999762,563329.5999999046,557688.324,557694.8999999762,557704.982,563338.389,8,400,,,
trial,html.Screen,4_61_0,2023-09-23T17:05:07.321Z,,0,2,,8204.510999976192,response,ISIC_6988514.JPG,5,ISIC_0046725.JPG,ISIC_0046725.JPG,false,0,keypress(z),500,571543.0999999046,571542.8999999762,563321.913,563330,563338.389,571555.025,8,400,12,,ISIC_6988514.JPG
break,html.Screen,4_61_1,2023-09-23T17:05:07.322Z,,0,,,NaN,,,,,,false,,,,571543.7999999523,571543.6999999285,,571543.2999999523,,571555.025,8,400,,,
break_continue,html.Screen,4_61_2,2023-09-23T17:05:07.322Z,,0,,,NaN,,,,,,false,,,,571544.1999999285,571544.0999999046,,571544,,571555.025,8,400,,,
sequence,flow.Sequence,4_61,2023-09-23T17:05:07.322Z,,0,,,8205.710999904666,completion,,,,,false,,,,571544.3999999762,571544.0999999046,563321.913,563329.8999999762,563338.389,571555.025,8,400,,,
trial,html.Screen,4_62_0,2023-09-23T17:05:10.644Z,,0,2,,3310.9749999999767,response,ISIC_0029531.JPG,4,ISIC_0058661.JPG,ISIC_0029531.JPG,false,1,keypress(m),500,574866.2999999523,574866,571538.493,571544.5,571555.025,574871.459,8,400,13,,ISIC_0058661.JPG
break,html.Screen,4_62_1,2023-09-23T17:05:10.645Z,,0,,,NaN,,,,,,false,,,,574867,574866.7999999523,,574866.3999999762,,574871.459,8,400,,,
break_continue,html.Screen,4_62_2,2023-09-23T17:05:10.645Z,,0,,,NaN,,,,,,false,,,,574867.3999999762,574867.1999999285,,574867.0999999046,,574871.459,8,400,,,
sequence,flow.Sequence,4_62,2023-09-23T17:05:10.645Z,,0,,,3312.174999928451,completion,,,,,false,,,,574867.5,574867.1999999285,571538.493,571544.5,571555.025,574871.459,8,400,,,
trial,html.Screen,4_63_0,2023-09-23T17:05:15.402Z,,0,2,,4752.340999952285,response,ISIC_4606646.JPG,5,ISIC_9197665.JPG,ISIC_4606646.JPG,false,1,keypress(m),500,579624,579623.7999999523,574855.362,574867.5999999046,574871.459,579638.317,8,400,14,,ISIC_9197665.JPG
break,html.Screen,4_63_1,2023-09-23T17:05:15.402Z,,0,,,NaN,,,,,,false,,,,579624.7999999523,579624.5,,579624.2999999523,,579638.317,8,400,,,
break_continue,html.Screen,4_63_2,2023-09-23T17:05:15.403Z,,0,,,NaN,,,,,,false,,,,579625.1999999285,579625.0999999046,,579624.8999999762,,579638.317,8,400,,,
sequence,flow.Sequence,4_63,2023-09-23T17:05:15.403Z,,0,,,4753.640999904601,completion,,,,,false,,,,579625.3999999762,579625.0999999046,574855.362,574867.5999999046,574871.459,579638.317,8,400,,,
trial,html.Screen,4_64_0,2023-09-23T17:05:19.188Z,,0,2,,3771.7829999045935,response,ISIC_1057521.JPG,4,ISIC_0066430.JPG,ISIC_1057521.JPG,false,1,keypress(m),500,583410.3999999762,583410.0999999046,579621.578,579625.3999999762,579638.317,583422.016,8,400,15,,ISIC_0066430.JPG
break,html.Screen,4_64_1,2023-09-23T17:05:19.189Z,,0,,,NaN,,,,,,false,,,,583411.0999999046,583410.7999999523,,583410.5,,583422.016,8,400,,,
break_continue,html.Screen,4_64_2,2023-09-23T17:05:19.189Z,,0,,,NaN,,,,,,false,,,,583411.5,583411.3999999762,,583411.1999999285,,583422.016,8,400,,,
sequence,flow.Sequence,4_64,2023-09-23T17:05:19.189Z,,0,,,3773.082999976119,completion,,,,,false,,,,583411.6999999285,583411.3999999762,579621.578,579625.3999999762,579638.317,583422.016,8,400,,,
trial,html.Screen,4_65_0,2023-09-23T17:05:23.067Z,,0,2,,3867.383999976213,response,ISIC_0006331.JPG,4,ISIC_0010730.JPG,ISIC_0010730.JPG,false,0,keypress(z),500,587289.6999999285,587289.3999999762,583404.992,583411.6999999285,583422.016,587304.877,8,400,16,,ISIC_0006331.JPG
break,html.Screen,4_65_1,2023-09-23T17:05:23.068Z,,0,,,NaN,,,,,,false,,,,587290.5,587290.2999999523,,587289.8999999762,,587304.877,8,400,,,
break_continue,html.Screen,4_65_2,2023-09-23T17:05:23.069Z,,0,,,NaN,,,,,,false,,,,587291.0999999046,587291.0999999046,,587290.8999999762,,587304.877,8,400,,,
sequence,flow.Sequence,4_65,2023-09-23T17:05:23.069Z,,0,,,3869.0839999046875,completion,,,,,false,,,,587291.3999999762,587291.0999999046,583404.992,583411.6999999285,583422.016,587304.877,8,400,,,
trial,html.Screen,4_66_0,2023-09-23T17:05:30.463Z,,0,2,,7380.322999928496,response,ISIC_0057655.JPG,5,ISIC_3575862.JPG,ISIC_0057655.JPG,false,1,keypress(m),500,594685.5,594685.1999999285,587288.454,587291.3999999762,587304.877,594688.184,8,400,17,,ISIC_3575862.JPG
break,html.Screen,4_66_1,2023-09-23T17:05:30.464Z,,0,,,NaN,,,,,,false,,,,594686.0999999046,594686,,594685.5999999046,,594688.184,8,400,,,
break_continue,html.Screen,4_66_2,2023-09-23T17:05:30.464Z,,0,,,NaN,,,,,,false,,,,594686.5999999046,594686.3999999762,,594686.1999999285,,594688.184,8,400,,,
sequence,flow.Sequence,4_66,2023-09-23T17:05:30.464Z,,0,,,7381.52299997618,completion,,,,,false,,,,594686.6999999285,594686.3999999762,587288.454,587291.3999999762,587304.877,594688.184,8,400,,,
trial,html.Screen,4_67_0,2023-09-23T17:05:33.769Z,,0,2,,3297.115999952308,response,ISIC_6676776.JPG,10,ISIC_4022621.JPG,ISIC_4022621.JPG,false,0,keypress(z),500,597985.5999999046,597985.2999999523,594671.702,594686.7999999523,594688.184,597988.147,8,400,18,,ISIC_6676776.JPG
break,html.Screen,4_67_1,2023-09-23T17:05:33.770Z,,0,,,NaN,,,,,,false,,,,597986.2999999523,597986,,597985.6999999285,,597988.147,8,400,,,
break_continue,html.Screen,4_67_2,2023-09-23T17:05:33.770Z,,0,,,NaN,,,,,,false,,,,597986.6999999285,597986.5999999046,,597986.5,,597988.147,8,400,,,
sequence,flow.Sequence,4_67,2023-09-23T17:05:33.770Z,,0,,,3298.415999904624,completion,,,,,false,,,,597986.8999999762,597986.5999999046,594671.702,594686.6999999285,594688.184,597988.147,8,400,,,
trial,html.Screen,4_68_0,2023-09-23T17:05:36.512Z,,0,2,,2740.4529999046354,response,ISIC_0000168.JPG,4,ISIC_8086526.JPG,ISIC_0000168.JPG,false,1,keypress(m),500,600728.7999999523,600728.5999999046,597971.636,597987,597988.147,600738.104,8,400,19,,ISIC_8086526.JPG
break,html.Screen,4_68_1,2023-09-23T17:05:36.513Z,,0,,,NaN,,,,,,false,,,,600729.5999999046,600729.2999999523,,600729,,600738.104,8,400,,,
break_continue,html.Screen,4_68_2,2023-09-23T17:05:36.513Z,,0,,,NaN,,,,,,false,,,,600729.8999999762,600729.7999999523,,600729.6999999285,,600738.104,8,400,,,
sequence,flow.Sequence,4_68,2023-09-23T17:05:36.513Z,,0,,,2741.652999952319,completion,,,,,false,,,,600730.0999999046,600729.7999999523,597971.636,597987,597988.147,600738.104,8,400,,,
trial,html.Screen,4_69_0,2023-09-23T17:05:43.609Z,,0,2,,7087.39599999995,response,ISIC_6201695.JPG,5,ISIC_7236365.JPG,ISIC_7236365.JPG,false,0,keypress(z),500,607825.6999999285,607825.5,600721.637,600730.1999999285,600738.104,607854.87,8,400,20,,ISIC_6201695.JPG
break,html.Screen,4_69_1,2023-09-23T17:05:43.610Z,,0,,,NaN,,,,,,false,,,,607826.3999999762,607826.0999999046,,607825.8999999762,,607854.87,8,400,,,
break_continue,html.Screen,4_69_2,2023-09-23T17:05:43.610Z,,0,,,NaN,,,,,,false,,,,607826.6999999285,607826.5999999046,,607826.5,,607854.87,8,400,,,
sequence,flow.Sequence,4_69,2023-09-23T17:05:43.610Z,,0,,,7088.495999904582,completion,,,,,false,,,,607826.8999999762,607826.5999999046,600721.637,600730.1999999285,600738.104,607854.87,8,400,,,
trial,html.Screen,4_70_0,2023-09-23T17:05:46.303Z,,0,2,,2664.529999976163,response,ISIC_5240648.JPG,5,ISIC_0030820.JPG,ISIC_5240648.JPG,false,1,keypress(m),500,610519.6999999285,610519.3999999762,607839.688,607827,607854.87,610539.201,8,400,21,,ISIC_0030820.JPG
break,html.Screen,4_70_1,2023-09-23T17:05:46.304Z,,0,,,NaN,,,,,,false,,,,610520.3999999762,610520.1999999285,,610519.8999999762,,610539.201,8,400,,,
break_continue,html.Screen,4_70_2,2023-09-23T17:05:46.304Z,,0,,,NaN,,,,,,false,,,,610520.8999999762,610520.7999999523,,610520.5999999046,,610539.201,8,400,,,
sequence,flow.Sequence,4_70,2023-09-23T17:05:46.304Z,,0,,,2665.929999952321,completion,,,,,false,,,,610521,610520.7999999523,607839.688,607826.8999999762,607854.87,610539.201,8,400,,,
trial,html.Screen,4_71_0,2023-09-23T17:05:54.266Z,,0,2,,7943.098999952315,response,ISIC_9227392.JPG,4,ISIC_0033125.JPG,ISIC_0033125.JPG,false,0,keypress(z),500,618482.5,618482.2999999523,610504.857,610521.0999999046,610539.201,618488.078,8,400,22,,ISIC_9227392.JPG
break,html.Screen,4_71_1,2023-09-23T17:05:54.267Z,,0,,,NaN,,,,,,false,,,,618483.2999999523,618483.0999999046,,618482.6999999285,,618488.078,8,400,,,
break_continue,html.Screen,4_71_2,2023-09-23T17:05:54.267Z,,0,,,NaN,,,,,,false,,,,618483.6999999285,618483.5999999046,,618483.3999999762,,618488.078,8,400,,,
sequence,flow.Sequence,4_71,2023-09-23T17:05:54.267Z,,0,,,7944.398999904632,completion,,,,,false,,,,618483.8999999762,618483.5999999046,610504.857,610521.0999999046,610539.201,618488.078,8,400,,,
trial,html.Screen,4_72_0,2023-09-23T17:05:58.574Z,,0,2,,4302.021999904653,response,ISIC_1576437.JPG,5,ISIC_8348712.JPG,ISIC_8348712.JPG,false,0,keypress(z),500,622790.2999999523,622790.0999999046,618471.623,618483.8999999762,618488.078,622804.918,8,400,23,,ISIC_1576437.JPG
break,html.Screen,4_72_1,2023-09-23T17:05:58.574Z,,0,,,NaN,,,,,,false,,,,622791.0999999046,622790.8999999762,,622790.5999999046,,622804.918,8,400,,,
break_continue,html.Screen,4_72_2,2023-09-23T17:05:58.575Z,,0,,,NaN,,,,,,false,,,,622791.3999999762,622791.2999999523,,622791.1999999285,,622804.918,8,400,,,
sequence,flow.Sequence,4_72,2023-09-23T17:05:58.575Z,,0,,,4303.221999952337,completion,,,,,false,,,,622791.5,622791.2999999523,618471.623,618483.8999999762,618488.078,622804.918,8,400,,,
trial,html.Screen,4_73_0,2023-09-23T17:06:01.441Z,,0,2,,2852.4819999762112,response,ISIC_0065449.JPG,4,ISIC_0439726.JPG,ISIC_0065449.JPG,false,1,keypress(m),500,625657.6999999285,625657.3999999762,622788.401,622791.6999999285,622804.918,625671.6,8,400,24,,ISIC_0439726.JPG
break,html.Screen,4_73_1,2023-09-23T17:06:01.442Z,,0,,,NaN,,,,,,false,,,,625658.3999999762,625658.2999999523,,625657.8999999762,,625671.6,8,400,,,
break_continue,html.Screen,4_73_2,2023-09-23T17:06:01.442Z,,0,,,NaN,,,,,,false,,,,625658.8999999762,625658.7999999523,,625658.5999999046,,625671.6,8,400,,,
sequence,flow.Sequence,4_73,2023-09-23T17:06:01.442Z,,0,,,2853.8819999523694,completion,,,,,false,,,,625659,625658.7999999523,622788.401,622791.6999999285,622804.918,625671.6,8,400,,,
trial,html.Screen,4_74_0,2023-09-23T17:06:07.668Z,,0,2,,6213.099999928498,response,ISIC_8843592.JPG,5,ISIC_6985859.JPG,ISIC_6985859.JPG,false,0,keypress(z),500,631884.8999999762,631884.6999999285,625655.069,625659.1999999285,625671.6,631888.075,8,400,25,,ISIC_8843592.JPG
break,html.Screen,4_74_1,2023-09-23T17:06:07.669Z,,0,,,NaN,,,,,,false,,,,631885.6999999285,631885.3999999762,,631885.0999999046,,631888.075,8,400,,,
break_continue,html.Screen,4_74_2,2023-09-23T17:06:07.669Z,,0,,,NaN,,,,,,false,,,,631886.0999999046,631886,,631885.8999999762,,631888.075,8,400,,,
sequence,flow.Sequence,4_74,2023-09-23T17:06:07.669Z,,0,,,6214.400000000023,completion,,,,,false,,,,631886.1999999285,631886,625655.069,625659.0999999046,625671.6,631888.075,8,400,,,
trial,html.Screen,4_75_0,2023-09-23T17:06:14.503Z,,0,2,,6831.925000000047,response,ISIC_8760203.JPG,5,ISIC_0032872.JPG,ISIC_0032872.JPG,false,0,keypress(z),500,638720.1999999285,638720,631871.566,631886.2999999523,631888.075,638738.161,8,400,26,,ISIC_8760203.JPG
break,html.Screen,4_75_1,2023-09-23T17:06:14.504Z,,0,,,NaN,,,,,,false,,,,638721,638720.7999999523,,638720.3999999762,,638738.161,8,400,,,
break_continue,html.Screen,4_75_2,2023-09-23T17:06:14.505Z,,0,,,NaN,,,,,,false,,,,638721.5,638721.3999999762,,638721.2999999523,,638738.161,8,400,,,
sequence,flow.Sequence,4_75,2023-09-23T17:06:14.505Z,,0,,,6833.324999976205,completion,,,,,false,,,,638721.7999999523,638721.3999999762,631871.566,631886.1999999285,631888.075,638738.161,8,400,,,
trial,html.Screen,4_76_0,2023-09-23T17:06:20.223Z,,0,2,,5701.339000000036,response,ISIC_0014222.JPG,5,ISIC_0172020.JPG,ISIC_0014222.JPG,false,1,keypress(m),500,644439.6999999285,644439.5,638704.747,638721.7999999523,638738.161,644455.055,8,400,27,,ISIC_0172020.JPG
break,html.Screen,4_76_1,2023-09-23T17:06:20.224Z,,0,,,NaN,,,,,,false,,,,644440.3999999762,644440.1999999285,,644439.8999999762,,644455.055,8,400,,,
break_continue,html.Screen,4_76_2,2023-09-23T17:06:20.224Z,,0,,,NaN,,,,,,false,,,,644440.8999999762,644440.6999999285,,644440.5999999046,,644455.055,8,400,,,
sequence,flow.Sequence,4_76,2023-09-23T17:06:20.224Z,,0,,,5702.538999928511,completion,,,,,false,,,,644441.0999999046,644440.6999999285,638704.747,638721.7999999523,638738.161,644455.055,8,400,,,
trial,html.Screen,4_77_0,2023-09-23T17:06:26.882Z,,0,2,,6643.944999999949,response,ISIC_9219692.JPG,5,ISIC_1069587.JPG,ISIC_1069587.JPG,false,0,keypress(z),500,651099.0999999046,651099,644438.394,644441.0999999046,644455.055,651104.601,8,400,28,,ISIC_9219692.JPG
break,html.Screen,4_77_1,2023-09-23T17:06:26.883Z,,0,,,NaN,,,,,,false,,,,651099.8999999762,651099.6999999285,,651099.2999999523,,651104.601,8,400,,,
break_continue,html.Screen,4_77_2,2023-09-23T17:06:26.884Z,,0,,,NaN,,,,,,false,,,,651100.1999999285,651100.0999999046,,651100.0999999046,,651104.601,8,400,,,
sequence,flow.Sequence,4_77,2023-09-23T17:06:26.884Z,,0,,,6645.044999904581,completion,,,,,false,,,,651100.3999999762,651100.0999999046,644438.394,644441.0999999046,644455.055,651104.601,8,400,,,
trial,html.Screen,4_78_0,2023-09-23T17:06:34.570Z,,0,2,,7676.798999976134,response,ISIC_0057999.JPG,5,ISIC_0011333.JPG,ISIC_0057999.JPG,false,1,keypress(m),500,658781.5999999046,658781.3999999762,651088.204,651100.5,651104.601,658787.98,8,400,29,,ISIC_0011333.JPG
break,html.Screen,4_78_1,2023-09-23T17:06:34.571Z,,0,,,NaN,,,,,,false,,,,658782.2999999523,658782.0999999046,,658781.6999999285,,658787.98,8,400,,,
break_continue,html.Screen,4_78_2,2023-09-23T17:06:34.572Z,,0,,,NaN,,,,,,false,,,,658782.6999999285,658782.5,,658782.5,,658787.98,8,400,,,
sequence,flow.Sequence,4_78,2023-09-23T17:06:34.572Z,,0,,,7677.898999999976,completion,,,,,false,,,,658782.7999999523,658782.5,651088.204,651100.5,651104.601,658787.98,8,400,,,
trial,html.Screen,4_79_0,2023-09-23T17:06:41.774Z,,0,2,,7196.919999976177,response,ISIC_5381712.JPG,5,ISIC_0033605.JPG,ISIC_0033605.JPG,false,0,keypress(z),500,665985.0999999046,665984.8999999762,658771.444,658782.8999999762,658787.98,665987.955,8,400,30,,ISIC_5381712.JPG
break,html.Screen,4_79_1,2023-09-23T17:06:41.775Z,,0,,,NaN,,,,,,false,,,,665985.7999999523,665985.5999999046,,665985.2999999523,,665987.955,8,400,,,
break_continue,html.Screen,4_79_2,2023-09-23T17:06:41.775Z,,0,,,NaN,,,,,,false,,,,665986.1999999285,665986.0999999046,,665985.8999999762,,665987.955,8,400,,,
sequence,flow.Sequence,4_79,2023-09-23T17:06:41.775Z,,0,,,7198.119999904651,completion,,,,,false,,,,665986.3999999762,665986.0999999046,658771.444,658782.8999999762,658787.98,665987.955,8,400,,,
trial,html.Screen,4_80_0,2023-09-23T17:06:48.883Z,,0,2,,7105.6449999046745,response,ISIC_6839272.JPG,5,ISIC_0028326.JPG,ISIC_0028326.JPG,false,0,keypress(z),500,673093.8999999762,673093.5999999046,665971.397,665986.5,665987.955,673104.607,8,400,31,,ISIC_6839272.JPG
break,html.Screen,4_80_1,2023-09-23T17:06:48.883Z,,0,,,NaN,,,,,,false,,,,673094.5999999046,673094.3999999762,,673094.0999999046,,673104.607,8,400,,,
break_continue,html.Screen,4_80_2,2023-09-23T17:06:48.884Z,,0,,,NaN,,,,,,false,,,,673095,673094.8999999762,,673094.6999999285,,673104.607,8,400,,,
sequence,flow.Sequence,4_80,2023-09-23T17:06:48.884Z,,0,,,7106.9449999762,completion,,,,,false,,,,673095.0999999046,673094.8999999762,665971.397,665986.3999999762,665987.955,673104.607,8,400,,,
trial,html.Screen,4_81_0,2023-09-23T17:06:51.926Z,,0,2,,3032.1929999523563,response,ISIC_3717983.JPG,5,ISIC_0054914.JPG,ISIC_0054914.JPG,false,0,keypress(z),500,676136.8999999762,676136.7999999523,673088.296,673095.1999999285,673104.607,676154.896,8,400,32,,ISIC_3717983.JPG
break,html.Screen,4_81_1,2023-09-23T17:06:51.927Z,,0,,,NaN,,,,,,false,,,,676137.6999999285,676137.3999999762,,676137.0999999046,,676154.896,8,400,,,
break_continue,html.Screen,4_81_2,2023-09-23T17:06:51.927Z,,0,,,NaN,,,,,,false,,,,676138.0999999046,676138,,676137.8999999762,,676154.896,8,400,,,
sequence,flow.Sequence,4_81,2023-09-23T17:06:51.927Z,,0,,,3033.39300000004,completion,,,,,false,,,,676138.1999999285,676138,673088.296,673095.1999999285,673104.607,676154.896,8,400,,,
trial,html.Screen,4_82_0,2023-09-23T17:06:54.761Z,,0,2,,2817.1040000000503,response,ISIC_0011493.JPG,4,ISIC_3230874.JPG,ISIC_0011493.JPG,false,1,keypress(m),500,678972.2999999523,678972,676121.399,676138.2999999523,676154.896,678988.192,8,400,33,,ISIC_3230874.JPG
break,html.Screen,4_82_1,2023-09-23T17:06:54.762Z,,0,,,NaN,,,,,,false,,,,678972.8999999762,678972.6999999285,,678972.5,,678988.192,8,400,,,
break_continue,html.Screen,4_82_2,2023-09-23T17:06:54.762Z,,0,,,NaN,,,,,,false,,,,678973.2999999523,678973.1999999285,,678973.0999999046,,678988.192,8,400,,,
sequence,flow.Sequence,4_82,2023-09-23T17:06:54.762Z,,0,,,2818.3039999285247,completion,,,,,false,,,,678973.5,678973.1999999285,676121.399,676138.2999999523,676154.896,678988.192,8,400,,,
trial,html.Screen,4_83_0,2023-09-23T17:07:04.445Z,,0,2,,9668.007999928435,response,ISIC_5204408.JPG,4,ISIC_0029441.JPG,ISIC_0029441.JPG,false,0,keypress(z),500,688656.3999999762,688656.1999999285,678971.486,678973.5,678988.192,688671.459,8,400,34,,ISIC_5204408.JPG
break,html.Screen,4_83_1,2023-09-23T17:07:04.446Z,,0,,,NaN,,,,,,false,,,,688657.2999999523,688656.8999999762,,688656.5999999046,,688671.459,8,400,,,
break_continue,html.Screen,4_83_2,2023-09-23T17:07:04.446Z,,0,,,NaN,,,,,,false,,,,688657.5999999046,688657.5,,688657.3999999762,,688671.459,8,400,,,
sequence,flow.Sequence,4_83,2023-09-23T17:07:04.447Z,,0,,,9669.30799999996,completion,,,,,false,,,,688657.6999999285,688657.5,678971.486,678973.5,678988.192,688671.459,8,400,,,
trial,html.Screen,4_84_0,2023-09-23T17:07:11.232Z,,0,2,,6771.9409999761265,response,ISIC_0031863.JPG,5,ISIC_2366727.JPG,ISIC_0031863.JPG,false,1,keypress(m),500,695443.5999999046,695443.3999999762,688654.656,688657.7999999523,688671.459,695454.526,8,400,35,,ISIC_2366727.JPG
break,html.Screen,4_84_1,2023-09-23T17:07:11.233Z,,0,,,NaN,,,,,,false,,,,695444.3999999762,695444.0999999046,,695443.7999999523,,695454.526,8,400,,,
break_continue,html.Screen,4_84_2,2023-09-23T17:07:11.234Z,,0,,,NaN,,,,,,false,,,,695444.6999999285,695444.5999999046,,695444.5,,695454.526,8,400,,,
sequence,flow.Sequence,4_84,2023-09-23T17:07:11.234Z,,0,,,6773.140999904601,completion,,,,,false,,,,695444.7999999523,695444.5999999046,688654.656,688657.7999999523,688671.459,695454.526,8,400,,,
trial,html.Screen,4_85_0,2023-09-23T17:07:17.091Z,,0,2,,5847.873999976204,response,ISIC_2731621.JPG,6,ISIC_0056902.JPG,ISIC_0056902.JPG,false,0,keypress(z),500,701302.5999999046,701302.3999999762,695438.05,695444.8999999762,695454.526,701322.026,8,400,36,,ISIC_2731621.JPG
break,html.Screen,4_85_1,2023-09-23T17:07:17.092Z,,0,,,NaN,,,,,,false,,,,701303.2999999523,701303.0999999046,,701302.7999999523,,701322.026,8,400,,,
break_continue,html.Screen,4_85_2,2023-09-23T17:07:17.093Z,,0,,,NaN,,,,,,false,,,,701303.6999999285,701303.5999999046,,701303.5,,701322.026,8,400,,,
sequence,flow.Sequence,4_85,2023-09-23T17:07:17.093Z,,0,,,5849.073999904678,completion,,,,,false,,,,701303.7999999523,701303.5999999046,695438.05,695444.8999999762,695454.526,701322.026,8,400,,,
trial,html.Screen,4_86_0,2023-09-23T17:07:22.520Z,,0,2,,5408.974000000046,response,ISIC_5732201.JPG,5,ISIC_0033805.JPG,ISIC_0033805.JPG,false,0,keypress(z),500,706731.1999999285,706731,701288.06,701303.8999999762,701322.026,706737.936,8,400,37,,ISIC_5732201.JPG
break,html.Screen,4_86_1,2023-09-23T17:07:22.521Z,,0,,,NaN,,,,,,false,,,,706732,706731.7999999523,,706731.3999999762,,706737.936,8,400,,,
break_continue,html.Screen,4_86_2,2023-09-23T17:07:22.521Z,,0,,,NaN,,,,,,false,,,,706732.5,706732.2999999523,,706732.0999999046,,706737.936,8,400,,,
sequence,flow.Sequence,4_86,2023-09-23T17:07:22.521Z,,0,,,5410.273999952362,completion,,,,,false,,,,706732.5999999046,706732.2999999523,701288.06,701303.8999999762,701322.026,706737.936,8,400,,,
trial,html.Screen,4_87_0,2023-09-23T17:07:28.592Z,,0,2,,6065.163999904646,response,ISIC_3691320.JPG,5,ISIC_4984668.JPG,ISIC_3691320.JPG,false,1,keypress(m),500,712803.2999999523,712803.0999999046,706721.648,706732.5999999046,706737.936,712821.428,8,400,38,,ISIC_4984668.JPG
break,html.Screen,4_87_1,2023-09-23T17:07:28.593Z,,0,,,NaN,,,,,,false,,,,712804.0999999046,712803.7999999523,,712803.5,,712821.428,8,400,,,
break_continue,html.Screen,4_87_2,2023-09-23T17:07:28.593Z,,0,,,NaN,,,,,,false,,,,712804.5,712804.1999999285,,712804.0999999046,,712821.428,8,400,,,
sequence,flow.Sequence,4_87,2023-09-23T17:07:28.593Z,,0,,,6066.2639999284875,completion,,,,,false,,,,712804.5999999046,712804.1999999285,706721.648,706732.5999999046,706737.936,712821.428,8,400,,,
trial,html.Screen,4_88_0,2023-09-23T17:07:33.056Z,,0,2,,4440.271999928518,response,ISIC_0030106.JPG,5,ISIC_4307205.JPG,ISIC_4307205.JPG,false,0,keypress(z),500,717261.8999999762,717261.6999999285,712788.073,712804.6999999285,712821.428,717271.137,8,400,39,,ISIC_0030106.JPG
break,html.Screen,4_88_1,2023-09-23T17:07:33.057Z,,0,,,NaN,,,,,,false,,,,717262.5999999046,717262.3999999762,,717262.0999999046,,717271.137,8,400,,,
break_continue,html.Screen,4_88_2,2023-09-23T17:07:33.057Z,,0,,,NaN,,,,,,false,,,,717263,717262.8999999762,,717262.6999999285,,717271.137,8,400,,,
sequence,flow.Sequence,4_88,2023-09-23T17:07:33.057Z,,0,,,4441.471999976202,completion,,,,,false,,,,717263.0999999046,717262.8999999762,712788.073,712804.6999999285,712821.428,717271.137,8,400,,,
trial,html.Screen,4_89_0,2023-09-23T17:07:36.483Z,,0,2,,3417.7629999761702,response,ISIC_5330187.JPG,5,ISIC_7853136.JPG,ISIC_5330187.JPG,false,1,keypress(m),500,720689.1999999285,720688.8999999762,717254.789,717263.1999999285,717271.137,720704.636,8,400,40,,ISIC_7853136.JPG
break,html.Screen,4_89_1,2023-09-23T17:07:36.484Z,,0,,,NaN,,,,,,false,,,,720689.8999999762,720689.6999999285,,720689.2999999523,,720704.636,8,400,,,
break_continue,html.Screen,4_89_2,2023-09-23T17:07:36.485Z,,0,,,NaN,,,,,,false,,,,720690.2999999523,720690.1999999285,,720690.0999999046,,720704.636,8,400,,,
sequence,flow.Sequence,4_89,2023-09-23T17:07:36.485Z,,0,,,3419.0629999284865,completion,,,,,false,,,,720690.5,720690.1999999285,717254.789,717263.1999999285,717271.137,720704.636,8,400,,,
trial,html.Screen,4_90_0,2023-09-23T17:07:42.682Z,,0,2,,6182.963999904576,response,ISIC_0060719.JPG,5,ISIC_0028746.JPG,ISIC_0028746.JPG,false,0,keypress(z),500,726887.7999999523,726887.5999999046,720687.99,720690.5,720704.636,726904.603,8,400,41,,ISIC_0060719.JPG
break,html.Screen,4_90_1,2023-09-23T17:07:42.683Z,,0,,,NaN,,,,,,false,,,,726888.5999999046,726888.2999999523,,726888,,726904.603,8,400,,,
break_continue,html.Screen,4_90_2,2023-09-23T17:07:42.683Z,,0,,,NaN,,,,,,false,,,,726889,726888.8999999762,,726888.7999999523,,726904.603,8,400,,,
sequence,flow.Sequence,4_90,2023-09-23T17:07:42.683Z,,0,,,6184.263999976101,completion,,,,,false,,,,726889.1999999285,726888.8999999762,720687.99,720690.5,720704.636,726904.603,8,400,,,
trial,html.Screen,4_91_0,2023-09-23T17:07:50.563Z,,0,2,,7863.49699990463,response,ISIC_8496052.JPG,6,ISIC_0009993.JPG,ISIC_8496052.JPG,false,1,keypress(m),500,734768.3999999762,734768.0999999046,726887.93,726889.2999999523,726904.603,734771.167,8,400,42,,ISIC_0009993.JPG
break,html.Screen,4_91_1,2023-09-23T17:07:50.564Z,,0,,,NaN,,,,,,false,,,,734769.2999999523,734768.8999999762,,734768.5999999046,,734771.167,8,400,,,
break_continue,html.Screen,4_91_2,2023-09-23T17:07:50.564Z,,0,,,NaN,,,,,,false,,,,734769.6999999285,734769.5,,734769.5,,734771.167,8,400,,,
sequence,flow.Sequence,4_91,2023-09-23T17:07:50.564Z,,0,,,7864.896999999997,completion,,,,,false,,,,734769.7999999523,734769.5,726887.93,726889.1999999285,726904.603,734771.167,8,400,,,
trial,html.Screen,4_92_0,2023-09-23T17:07:56.279Z,,0,2,,5712.932999904617,response,ISIC_8727731.JPG,5,ISIC_7521698.JPG,ISIC_7521698.JPG,false,0,keypress(z),500,740484.2999999523,740484.0999999046,734754.542,734770,734771.167,740487.746,8,400,43,,ISIC_8727731.JPG
break,html.Screen,4_92_1,2023-09-23T17:07:56.279Z,,0,,,NaN,,,,,,false,,,,740485.0999999046,740484.7999999523,,740484.3999999762,,740487.746,8,400,,,
break_continue,html.Screen,4_92_2,2023-09-23T17:07:56.280Z,,0,,,NaN,,,,,,false,,,,740485.5,740485.3999999762,,740485.1999999285,,740487.746,8,400,,,
sequence,flow.Sequence,4_92,2023-09-23T17:07:56.280Z,,0,,,5714.232999976142,completion,,,,,false,,,,740485.6999999285,740485.3999999762,734754.542,734769.8999999762,734771.167,740487.746,8,400,,,
trial,html.Screen,4_93_0,2023-09-23T17:08:03.946Z,,0,2,,7663.85399990459,response,ISIC_6985859.JPG,4,ISIC_0031914.JPG,ISIC_0031914.JPG,false,0,keypress(z),500,748151.7999999523,748151.5999999046,740471.214,740485.7999999523,740487.746,748154.455,8,400,44,,ISIC_6985859.JPG
break,html.Screen,4_93_1,2023-09-23T17:08:03.947Z,,0,,,NaN,,,,,,false,,,,748152.5999999046,748152.3999999762,,748152,,748154.455,8,400,,,
break_continue,html.Screen,4_93_2,2023-09-23T17:08:03.947Z,,0,,,NaN,,,,,,false,,,,748153,748152.8999999762,,748152.6999999285,,748154.455,8,400,,,
sequence,flow.Sequence,4_93,2023-09-23T17:08:03.947Z,,0,,,7665.153999976115,completion,,,,,false,,,,748153.0999999046,748152.8999999762,740471.214,740485.7999999523,740487.746,748154.455,8,400,,,
trial,html.Screen,4_94_0,2023-09-23T17:08:11.389Z,,0,2,,7439.9449999762,response,ISIC_0033512.JPG,5,ISIC_9291926.JPG,ISIC_9291926.JPG,false,0,keypress(z),500,755594.6999999285,755594.3999999762,748137.92,748153.2999999523,748154.455,755604.349,8,400,45,,ISIC_0033512.JPG
break,html.Screen,4_94_1,2023-09-23T17:08:11.390Z,,0,,,NaN,,,,,,false,,,,755595.5,755595.2999999523,,755594.8999999762,,755604.349,8,400,,,
break_continue,html.Screen,4_94_2,2023-09-23T17:08:11.390Z,,0,,,NaN,,,,,,false,,,,755595.8999999762,755595.7999999523,,755595.5999999046,,755604.349,8,400,,,
sequence,flow.Sequence,4_94,2023-09-23T17:08:11.390Z,,0,,,7441.344999952358,completion,,,,,false,,,,755596,755595.7999999523,748137.92,748153.1999999285,748154.455,755604.349,8,400,,,
trial,html.Screen,4_95_0,2023-09-23T17:08:16.516Z,,0,2,,5117.250999904587,response,ISIC_2287151.JPG,5,ISIC_0058906.JPG,ISIC_0058906.JPG,false,0,keypress(z),500,760721.7999999523,760721.5999999046,755588.155,755596.0999999046,755604.349,760737.94,8,400,46,,ISIC_2287151.JPG
break,html.Screen,4_95_1,2023-09-23T17:08:16.517Z,,0,,,NaN,,,,,,false,,,,760722.5,760722.2999999523,,760722,,760737.94,8,400,,,
break_continue,html.Screen,4_95_2,2023-09-23T17:08:16.517Z,,0,,,NaN,,,,,,false,,,,760722.8999999762,760722.6999999285,,760722.5999999046,,760737.94,8,400,,,
sequence,flow.Sequence,4_95,2023-09-23T17:08:16.517Z,,0,,,5118.350999928429,completion,,,,,false,,,,760723,760722.6999999285,755588.155,755596,755604.349,760737.94,8,400,,,
trial,html.Screen,4_96_0,2023-09-23T17:08:20.575Z,,0,2,,4042.6599999046884,response,ISIC_0025155.JPG,5,ISIC_5569091.JPG,ISIC_0025155.JPG,false,1,keypress(m),500,764780.8999999762,764780.5999999046,760721.156,760723.0999999046,760737.94,764787.792,8,400,47,,ISIC_5569091.JPG
break,html.Screen,4_96_1,2023-09-23T17:08:20.576Z,,0,,,NaN,,,,,,false,,,,764781.5999999046,764781.2999999523,,764781,,764787.792,8,400,,,
break_continue,html.Screen,4_96_2,2023-09-23T17:08:20.576Z,,0,,,NaN,,,,,,false,,,,764782.0999999046,764781.8999999762,,764781.6999999285,,764787.792,8,400,,,
sequence,flow.Sequence,4_96,2023-09-23T17:08:20.576Z,,0,,,4043.959999976214,completion,,,,,false,,,,764782.1999999285,764781.8999999762,760721.156,760723.0999999046,760737.94,764787.792,8,400,,,
trial,html.Screen,4_97_0,2023-09-23T17:08:24.259Z,,0,2,,3677.1079999761423,response,ISIC_0072182.JPG,5,ISIC_0032783.JPG,ISIC_0072182.JPG,false,1,keypress(m),500,768465.0999999046,768464.8999999762,764771.341,764782.2999999523,764787.792,768471.081,8,400,48,,ISIC_0032783.JPG
break,html.Screen,4_97_1,2023-09-23T17:08:24.260Z,,0,,,NaN,,,,,,false,,,,768465.8999999762,768465.6999999285,,768465.3999999762,,768471.081,8,400,,,
break_continue,html.Screen,4_97_2,2023-09-23T17:08:24.261Z,,0,,,NaN,,,,,,false,,,,768466.2999999523,768466.1999999285,,768466,,768471.081,8,400,,,
sequence,flow.Sequence,4_97,2023-09-23T17:08:24.261Z,,0,,,3678.4079999284586,completion,,,,,false,,,,768466.5,768466.1999999285,764771.341,764782.2999999523,764787.792,768471.081,8,400,,,
trial,html.Screen,4_98_0,2023-09-23T17:08:28.633Z,,0,2,,4367.018999904627,response,ISIC_0067830.JPG,5,ISIC_0071171.JPG,ISIC_0067830.JPG,false,1,keypress(m),500,772838.2999999523,772838.0999999046,768454.573,768466.5,768471.081,772854.484,8,400,49,,ISIC_0071171.JPG
break,html.Screen,4_98_1,2023-09-23T17:08:28.633Z,,0,,,NaN,,,,,,false,,,,772839,772838.7999999523,,772838.3999999762,,772854.484,8,400,,,
break_continue,html.Screen,4_98_2,2023-09-23T17:08:28.634Z,,0,,,NaN,,,,,,false,,,,772839.3999999762,772839.2999999523,,772839.1999999285,,772854.484,8,400,,,
sequence,flow.Sequence,4_98,2023-09-23T17:08:28.634Z,,0,,,4368.218999952311,completion,,,,,false,,,,772839.5,772839.2999999523,768454.573,768466.5,768471.081,772854.484,8,400,,,
trial,html.Screen,4_99_0,2023-09-23T17:08:32.838Z,,0,2,,4183.815999952261,response,ISIC_5955057.JPG,5,ISIC_0000040.JPG,ISIC_0000040.JPG,false,0,keypress(z),500,777038.5,777038.2999999523,772838.064,772839.6999999285,772854.484,777054.52,8,400,50,,ISIC_5955057.JPG
break,html.Screen,4_99_1,2023-09-23T17:08:42.839Z,,0,,,10000.062000000034,timeout,,,,,false,,,,787038.8999999762,787037.866,777037.764,777038.6999999285,777054.52,787054.582,8,400,,,
break_continue,html.Screen,4_99_2,2023-09-23T17:08:58.947Z,,0,,,16080.917999999947,response,,,,,false,continue,keypress(Space),,803146.7999999523,803135.5,787037.866,787038.8999999762,787054.582,803154.508,8,400,,,
sequence,flow.Sequence,4_99,2023-09-23T17:08:58.947Z,,0,,,30281.015999999945,completion,,,,,false,,,,803146.8999999762,803135.5,772838.064,772839.5999999046,772854.484,803154.508,8,400,,,
trial,html.Screen,4_100_0,2023-09-23T17:09:05.397Z,,0,3,,6441.691999928444,response,ISIC_8295306.JPG,6,ISIC_4864523.JPG,ISIC_4864523.JPG,false,0,keypress(z),500,809596.5999999046,809596.1999999285,803136.08,803146.8999999762,803154.508,809604.567,8,400,1,,ISIC_8295306.JPG
break,html.Screen,4_100_1,2023-09-23T17:09:05.397Z,,0,,,NaN,,,,,,false,,,,809597.2999999523,809597.0999999046,,809596.6999999285,,809604.567,8,400,,,
break_continue,html.Screen,4_100_2,2023-09-23T17:09:05.398Z,,0,,,NaN,,,,,,false,,,,809597.6999999285,809597.5999999046,,809597.5,,809604.567,8,400,,,
sequence,flow.Sequence,4_100,2023-09-23T17:09:05.398Z,,0,,,6443.091999904602,completion,,,,,false,,,,809597.7999999523,809597.5999999046,803136.08,803146.8999999762,803154.508,809604.567,8,400,,,
trial,html.Screen,4_101_0,2023-09-23T17:09:11.080Z,,0,3,,5675.032999904593,response,ISIC_0033068.JPG,5,ISIC_0056047.JPG,ISIC_0033068.JPG,false,1,keypress(m),500,815280,815279.5999999046,809587.692,809598,809604.567,815287.673,8,400,2,,ISIC_0056047.JPG
break,html.Screen,4_101_1,2023-09-23T17:09:11.081Z,,0,,,NaN,,,,,,false,,,,815280.6999999285,815280.5,,815280.0999999046,,815287.673,8,400,,,
break_continue,html.Screen,4_101_2,2023-09-23T17:09:11.081Z,,0,,,NaN,,,,,,false,,,,815281,815280.8999999762,,815280.7999999523,,815287.673,8,400,,,
sequence,flow.Sequence,4_101,2023-09-23T17:09:11.081Z,,0,,,5676.332999976119,completion,,,,,false,,,,815281.1999999285,815280.8999999762,809587.692,809597.8999999762,809604.567,815287.673,8,400,,,
trial,html.Screen,4_102_0,2023-09-23T17:09:18.283Z,,0,3,,7194.926999904681,response,ISIC_3880324.JPG,5,ISIC_0032419.JPG,ISIC_0032419.JPG,false,0,keypress(z),500,822482.7999999523,822482.5999999046,815271.062,815281.2999999523,815287.673,822487.589,8,400,3,,ISIC_3880324.JPG
break,html.Screen,4_102_1,2023-09-23T17:09:18.284Z,,0,,,NaN,,,,,,false,,,,822483.5999999046,822483.3999999762,,822483,,822487.589,8,400,,,
break_continue,html.Screen,4_102_2,2023-09-23T17:09:18.284Z,,0,,,NaN,,,,,,false,,,,822484,822483.8999999762,,822483.7999999523,,822487.589,8,400,,,
sequence,flow.Sequence,4_102,2023-09-23T17:09:18.284Z,,0,,,7196.226999976207,completion,,,,,false,,,,822484.1999999285,822483.8999999762,815271.062,815281.2999999523,815287.673,822487.589,8,400,,,
trial,html.Screen,4_103_0,2023-09-23T17:09:23.518Z,,0,3,,5229.910999999964,response,ISIC_0032615.JPG,5,ISIC_0060558.JPG,ISIC_0060558.JPG,false,0,keypress(z),500,827717.6999999285,827717.5,822471.046,822484.2999999523,822487.589,827720.871,8,400,4,,ISIC_0032615.JPG
break,html.Screen,4_103_1,2023-09-23T17:09:23.518Z,,0,,,NaN,,,,,,false,,,,827718.2999999523,827718.0999999046,,827717.7999999523,,827720.871,8,400,,,
break_continue,html.Screen,4_103_2,2023-09-23T17:09:23.519Z,,0,,,NaN,,,,,,false,,,,827718.7999999523,827718.5999999046,,827718.5,,827720.871,8,400,,,
sequence,flow.Sequence,4_103,2023-09-23T17:09:23.519Z,,0,,,5231.010999904596,completion,,,,,false,,,,827718.8999999762,827718.5999999046,822471.046,822484.1999999285,822487.589,827720.871,8,400,,,
trial,html.Screen,4_104_0,2023-09-23T17:09:31.623Z,,0,3,,8096.128999999957,response,ISIC_0032396.JPG,6,ISIC_0011329.JPG,ISIC_0032396.JPG,false,1,keypress(m),500,835817.1999999285,835817,827704.426,827719,827720.871,835820.849,8,400,5,,ISIC_0011329.JPG
break,html.Screen,4_104_1,2023-09-23T17:09:31.623Z,,0,,,NaN,,,,,,false,,,,835817.8999999762,835817.6999999285,,835817.3999999762,,835820.849,8,400,,,
break_continue,html.Screen,4_104_2,2023-09-23T17:09:31.624Z,,0,,,NaN,,,,,,false,,,,835818.2999999523,835818.1999999285,,835818.0999999046,,835820.849,8,400,,,
sequence,flow.Sequence,4_104,2023-09-23T17:09:31.624Z,,0,,,8097.328999928432,completion,,,,,false,,,,835818.5,835818.1999999285,827704.426,827719,827720.871,835820.849,8,400,,,
trial,html.Screen,4_105_0,2023-09-23T17:09:36.739Z,,0,3,,5112.450999952271,response,ISIC_8822331.JPG,5,ISIC_0033399.JPG,ISIC_0033399.JPG,false,0,keypress(z),500,840933.5,840933.2999999523,835804.483,835818.5,835820.849,840937.493,8,400,6,,ISIC_8822331.JPG
break,html.Screen,4_105_1,2023-09-23T17:09:36.740Z,,0,,,NaN,,,,,,false,,,,840934.1999999285,840934,,840933.6999999285,,840937.493,8,400,,,
break_continue,html.Screen,4_105_2,2023-09-23T17:09:36.740Z,,0,,,NaN,,,,,,false,,,,840934.5999999046,840934.5,,840934.3999999762,,840937.493,8,400,,,
sequence,flow.Sequence,4_105,2023-09-23T17:09:36.740Z,,0,,,5113.650999999954,completion,,,,,false,,,,840934.7999999523,840934.5,835804.483,835818.5,835820.849,840937.493,8,400,,,
trial,html.Screen,4_106_0,2023-09-23T17:09:42.333Z,,0,3,,5590.206999928458,response,ISIC_0071869.JPG,4,ISIC_0296109.JPG,ISIC_0296109.JPG,false,0,keypress(z),500,846527.8999999762,846527.6999999285,840921.154,840935,840937.493,846537.52,8,400,7,,ISIC_0071869.JPG
break,html.Screen,4_106_1,2023-09-23T17:09:42.334Z,,0,,,NaN,,,,,,false,,,,846528.6999999285,846528.3999999762,,846528,,846537.52,8,400,,,
break_continue,html.Screen,4_106_2,2023-09-23T17:09:42.335Z,,0,,,NaN,,,,,,false,,,,846529.0999999046,846529,,846528.8999999762,,846537.52,8,400,,,
sequence,flow.Sequence,4_106,2023-09-23T17:09:42.335Z,,0,,,5591.506999999983,completion,,,,,false,,,,846529.1999999285,846529,840921.154,840934.8999999762,840937.493,846537.52,8,400,,,
trial,html.Screen,4_107_0,2023-09-23T17:09:50.867Z,,0,3,,8523.979999999981,response,ISIC_5646706.JPG,5,ISIC_0066854.JPG,ISIC_0066854.JPG,false,0,keypress(z),500,855061.6999999285,855061.5,846520.908,846529.3999999762,846537.52,855071.045,8,400,8,,ISIC_5646706.JPG
break,html.Screen,4_107_1,2023-09-23T17:09:50.868Z,,0,,,NaN,,,,,,false,,,,855062.5,855062.2999999523,,855061.8999999762,,855071.045,8,400,,,
break_continue,html.Screen,4_107_2,2023-09-23T17:09:50.868Z,,0,,,NaN,,,,,,false,,,,855062.8999999762,855062.6999999285,,855062.6999999285,,855071.045,8,400,,,
sequence,flow.Sequence,4_107,2023-09-23T17:09:50.868Z,,0,,,8525.179999928456,completion,,,,,false,,,,855063,855062.6999999285,846520.908,846529.3999999762,846537.52,855071.045,8,400,,,
trial,html.Screen,4_108_0,2023-09-23T17:09:59.158Z,,0,3,,8281.654999928433,response,ISIC_5607452.JPG,5,ISIC_0033607.JPG,ISIC_0033607.JPG,false,0,keypress(z),500,863352.8999999762,863352.6999999285,855054.286,855063.1999999285,855071.045,863371.859,8,400,9,,ISIC_5607452.JPG
break,html.Screen,4_108_1,2023-09-23T17:09:59.159Z,,0,,,NaN,,,,,,false,,,,863353.5999999046,863353.3999999762,,863353.0999999046,,863371.859,8,400,,,
break_continue,html.Screen,4_108_2,2023-09-23T17:09:59.159Z,,0,,,NaN,,,,,,false,,,,863354.0999999046,863353.8999999762,,863353.7999999523,,863371.859,8,400,,,
sequence,flow.Sequence,4_108,2023-09-23T17:09:59.160Z,,0,,,8282.854999976116,completion,,,,,false,,,,863354.0999999046,863353.8999999762,855054.286,855063.0999999046,855071.045,863371.859,8,400,,,
trial,html.Screen,4_109_0,2023-09-23T17:10:04.361Z,,0,3,,5183.640999999945,response,ISIC_0011700.JPG,5,ISIC_7797853.JPG,ISIC_0011700.JPG,false,1,keypress(m),500,868555.6999999285,868555.5,863337.615,863354.2999999523,863371.859,868571.314,8,400,10,,ISIC_7797853.JPG
break,html.Screen,4_109_1,2023-09-23T17:10:04.362Z,,0,,,NaN,,,,,,false,,,,868556.5,868556.2999999523,,868555.8999999762,,868571.314,8,400,,,
break_continue,html.Screen,4_109_2,2023-09-23T17:10:04.362Z,,0,,,NaN,,,,,,false,,,,868557,868556.8999999762,,868556.5999999046,,868571.314,8,400,,,
sequence,flow.Sequence,4_109,2023-09-23T17:10:04.363Z,,0,,,5185.040999976103,completion,,,,,false,,,,868557.1999999285,868556.8999999762,863337.615,863354.2999999523,863371.859,868571.314,8,400,,,
trial,html.Screen,4_110_0,2023-09-23T17:10:09.420Z,,0,3,,5043.185999999987,response,ISIC_9169586.JPG,5,ISIC_7912183.JPG,ISIC_9169586.JPG,false,1,keypress(m),500,873614.5999999046,873614.5,868554.358,868557.2999999523,868571.314,873620.796,8,400,11,,ISIC_7912183.JPG
break,html.Screen,4_110_1,2023-09-23T17:10:09.421Z,,0,,,NaN,,,,,,false,,,,873615.3999999762,873615.0999999046,,873614.8999999762,,873620.796,8,400,,,
break_continue,html.Screen,4_110_2,2023-09-23T17:10:09.421Z,,0,,,NaN,,,,,,false,,,,873615.7999999523,873615.6999999285,,873615.5,,873620.796,8,400,,,
sequence,flow.Sequence,4_110,2023-09-23T17:10:09.421Z,,0,,,5044.385999928461,completion,,,,,false,,,,873616,873615.6999999285,868554.358,868557.1999999285,868571.314,873620.796,8,400,,,
trial,html.Screen,4_111_0,2023-09-23T17:10:16.899Z,,0,3,,7472.603999976185,response,ISIC_0053611.JPG,5,ISIC_8029613.JPG,ISIC_8029613.JPG,false,0,keypress(z),500,881093.6999999285,881093.3999999762,873604.401,873616.0999999046,873620.796,881104.031,8,400,12,,ISIC_0053611.JPG
break,html.Screen,4_111_1,2023-09-23T17:10:16.900Z,,0,,,NaN,,,,,,false,,,,881094.5,881094.2999999523,,881093.8999999762,,881104.031,8,400,,,
break_continue,html.Screen,4_111_2,2023-09-23T17:10:16.900Z,,0,,,NaN,,,,,,false,,,,881095,881094.8999999762,,881094.7999999523,,881104.031,8,400,,,
sequence,flow.Sequence,4_111,2023-09-23T17:10:16.901Z,,0,,,7474.103999976185,completion,,,,,false,,,,881095.0999999046,881094.8999999762,873604.401,873616.0999999046,873620.796,881104.031,8,400,,,
trial,html.Screen,4_112_0,2023-09-23T17:10:24.169Z,,0,3,,7259.668999928515,response,ISIC_8684147.JPG,5,ISIC_8348712.JPG,ISIC_8348712.JPG,false,0,keypress(z),500,888363.7999999523,888363.6999999285,881087.509,881095.2999999523,881104.031,888370.789,8,400,13,,ISIC_8684147.JPG
break,html.Screen,4_112_1,2023-09-23T17:10:24.170Z,,0,,,NaN,,,,,,false,,,,888364.5999999046,888364.2999999523,,888364,,888370.789,8,400,,,
break_continue,html.Screen,4_112_2,2023-09-23T17:10:24.170Z,,0,,,NaN,,,,,,false,,,,888364.8999999762,888364.7999999523,,888364.6999999285,,888370.789,8,400,,,
sequence,flow.Sequence,4_112,2023-09-23T17:10:24.171Z,,0,,,7260.768999952357,completion,,,,,false,,,,888365.0999999046,888364.7999999523,881087.509,881095.1999999285,881104.031,888370.789,8,400,,,
trial,html.Screen,4_113_0,2023-09-23T17:10:27.345Z,,0,3,,3168.2110000000102,response,ISIC_0062099.JPG,4,ISIC_3633306.JPG,ISIC_0062099.JPG,false,1,keypress(m),500,891539.2999999523,891539,888354.452,888365.0999999046,888370.789,891554.195,8,400,14,,ISIC_3633306.JPG
break,html.Screen,4_113_1,2023-09-23T17:10:27.345Z,,0,,,NaN,,,,,,false,,,,891540,891539.7999999523,,891539.5,,891554.195,8,400,,,
break_continue,html.Screen,4_113_2,2023-09-23T17:10:27.346Z,,0,,,NaN,,,,,,false,,,,891540.3999999762,891540.2999999523,,891540.0999999046,,891554.195,8,400,,,
sequence,flow.Sequence,4_113,2023-09-23T17:10:27.346Z,,0,,,3169.5109999523265,completion,,,,,false,,,,891540.5999999046,891540.2999999523,888354.452,888365.0999999046,888370.789,891554.195,8,400,,,
trial,html.Screen,4_114_0,2023-09-23T17:10:37.978Z,,0,3,,10612.404999904684,response,ISIC_4236274.JPG,5,ISIC_0034209.JPG,ISIC_0034209.JPG,false,0,keypress(z),500,902166.6999999285,902166.5999999046,891537.401,891540.6999999285,891554.195,902170.727,8,400,15,,ISIC_4236274.JPG
break,html.Screen,4_114_1,2023-09-23T17:10:37.979Z,,0,,,NaN,,,,,,false,,,,902167.5,902167.3999999762,,902167,,902170.727,8,400,,,
break_continue,html.Screen,4_114_2,2023-09-23T17:10:37.979Z,,0,,,NaN,,,,,,false,,,,902167.8999999762,902167.7999999523,,902167.6999999285,,902170.727,8,400,,,
sequence,flow.Sequence,4_114,2023-09-23T17:10:37.979Z,,0,,,10613.604999952368,completion,,,,,false,,,,902168,902167.7999999523,891537.401,891540.6999999285,891554.195,902170.727,8,400,,,
trial,html.Screen,4_115_0,2023-09-23T17:10:42.238Z,,0,3,,4255.472999928519,response,ISIC_0055797.JPG,5,ISIC_8699453.JPG,ISIC_8699453.JPG,false,0,keypress(z),500,906426.5,906426.1999999285,902154.092,902168.1999999285,902170.727,906437.354,8,400,16,,ISIC_0055797.JPG
break,html.Screen,4_115_1,2023-09-23T17:10:42.238Z,,0,,,NaN,,,,,,false,,,,906427.1999999285,906427,,906426.6999999285,,906437.354,8,400,,,
break_continue,html.Screen,4_115_2,2023-09-23T17:10:42.239Z,,0,,,NaN,,,,,,false,,,,906427.5999999046,906427.5,,906427.3999999762,,906437.354,8,400,,,
sequence,flow.Sequence,4_115,2023-09-23T17:10:42.239Z,,0,,,4256.773000000045,completion,,,,,false,,,,906427.7999999523,906427.5,902154.092,902168.1999999285,902170.727,906437.354,8,400,,,
trial,html.Screen,4_116_0,2023-09-23T17:10:50.673Z,,0,3,,8424.14599999995,response,ISIC_0031202.JPG,6,ISIC_0033075.JPG,ISIC_0031202.JPG,false,1,keypress(m),500,914861.6999999285,914861.5,906420.82,906427.7999999523,906437.354,914870.94,8,400,17,,ISIC_0033075.JPG
break,html.Screen,4_116_1,2023-09-23T17:10:50.674Z,,0,,,NaN,,,,,,false,,,,914862.5,914862.2999999523,,914862,,914870.94,8,400,,,
break_continue,html.Screen,4_116_2,2023-09-23T17:10:50.674Z,,0,,,NaN,,,,,,false,,,,914862.8999999762,914862.7999999523,,914862.5999999046,,914870.94,8,400,,,
sequence,flow.Sequence,4_116,2023-09-23T17:10:50.674Z,,0,,,8425.445999952266,completion,,,,,false,,,,914863,914862.7999999523,906420.82,906427.7999999523,906437.354,914870.94,8,400,,,
trial,html.Screen,4_117_0,2023-09-23T17:10:58.436Z,,0,3,,7753.959999976214,response,ISIC_0029024.JPG,5,ISIC_0025626.JPG,ISIC_0025626.JPG,false,0,keypress(z),500,922625.0999999046,922624.8999999762,914854.133,914863.0999999046,914870.94,922637.462,8,400,18,,ISIC_0029024.JPG
break,html.Screen,4_117_1,2023-09-23T17:10:58.437Z,,0,,,NaN,,,,,,false,,,,922625.7999999523,922625.5999999046,,922625.3999999762,,922637.462,8,400,,,
break_continue,html.Screen,4_117_2,2023-09-23T17:10:58.437Z,,0,,,NaN,,,,,,false,,,,922626.3999999762,922626.0999999046,,922626.0999999046,,922637.462,8,400,,,
sequence,flow.Sequence,4_117,2023-09-23T17:10:58.438Z,,0,,,7755.159999904688,completion,,,,,false,,,,922626.5,922626.0999999046,914854.133,914863,914870.94,922637.462,8,400,,,
trial,html.Screen,4_118_0,2023-09-23T17:11:02.216Z,,0,3,,3766.9379999761004,response,ISIC_6052437.JPG,5,ISIC_0071966.JPG,ISIC_0071966.JPG,false,0,keypress(z),500,926404.5,926404.3999999762,922620.978,922626.5999999046,922637.462,926421.092,8,400,19,,ISIC_6052437.JPG
break,html.Screen,4_118_1,2023-09-23T17:11:02.216Z,,0,,,NaN,,,,,,false,,,,926405.3999999762,926405,,926404.6999999285,,926421.092,8,400,,,
break_continue,html.Screen,4_118_2,2023-09-23T17:11:02.217Z,,0,,,NaN,,,,,,false,,,,926405.6999999285,926405.5999999046,,926405.3999999762,,926421.092,8,400,,,
sequence,flow.Sequence,4_118,2023-09-23T17:11:02.217Z,,0,,,3768.137999904575,completion,,,,,false,,,,926405.7999999523,926405.5999999046,922620.978,922626.5,922637.462,926421.092,8,400,,,
trial,html.Screen,4_119_0,2023-09-23T17:11:05.659Z,,0,3,,3426.7079999523703,response,ISIC_6595186.JPG,5,ISIC_0031883.JPG,ISIC_6595186.JPG,false,1,keypress(m),500,929848.0999999046,929847.7999999523,926404.293,926405.8999999762,926421.092,929853.971,8,400,20,,ISIC_0031883.JPG
break,html.Screen,4_119_1,2023-09-23T17:11:05.660Z,,0,,,NaN,,,,,,false,,,,929848.7999999523,929848.5,,929848.1999999285,,929853.971,8,400,,,
break_continue,html.Screen,4_119_2,2023-09-23T17:11:05.660Z,,0,,,NaN,,,,,,false,,,,929849.1999999285,929849.1999999285,,929849,,929853.971,8,400,,,
sequence,flow.Sequence,4_119,2023-09-23T17:11:05.661Z,,0,,,3428.1079999285284,completion,,,,,false,,,,929849.3999999762,929849.1999999285,926404.293,926405.8999999762,926421.092,929853.971,8,400,,,
trial,html.Screen,4_120_0,2023-09-23T17:11:09.782Z,,0,3,,4116.828999952297,response,ISIC_9052500.JPG,5,ISIC_3613012.JPG,ISIC_3613012.JPG,false,0,keypress(z),500,933971.0999999046,933970.7999999523,929837.499,929849.5999999046,929853.971,933987.363,8,400,21,,ISIC_9052500.JPG
break,html.Screen,4_120_1,2023-09-23T17:11:09.783Z,,0,,,NaN,,,,,,false,,,,933971.8999999762,933971.6999999285,,933971.2999999523,,933987.363,8,400,,,
break_continue,html.Screen,4_120_2,2023-09-23T17:11:09.783Z,,0,,,NaN,,,,,,false,,,,933972.1999999285,933972.0999999046,,933972,,933987.363,8,400,,,
sequence,flow.Sequence,4_120,2023-09-23T17:11:09.783Z,,0,,,4118.128999904613,completion,,,,,false,,,,933972.3999999762,933972.0999999046,929837.499,929849.5,929853.971,933987.363,8,400,,,
trial,html.Screen,4_121_0,2023-09-23T17:11:14.873Z,,0,3,,5074.836999928462,response,ISIC_0008816.JPG,5,ISIC_6553579.JPG,ISIC_0008816.JPG,false,1,keypress(m),500,939062.3999999762,939062.1999999285,933970.685,933972.5,933987.363,939070.64,8,400,22,,ISIC_6553579.JPG
break,html.Screen,4_121_1,2023-09-23T17:11:14.874Z,,0,,,NaN,,,,,,false,,,,939063.2999999523,939062.8999999762,,939062.5999999046,,939070.64,8,400,,,
break_continue,html.Screen,4_121_2,2023-09-23T17:11:14.875Z,,0,,,NaN,,,,,,false,,,,939063.6999999285,939063.5999999046,,939063.3999999762,,939070.64,8,400,,,
sequence,flow.Sequence,4_121,2023-09-23T17:11:14.875Z,,0,,,5076.2369999046205,completion,,,,,false,,,,939063.8999999762,939063.5999999046,933970.685,933972.5,933987.363,939070.64,8,400,,,
trial,html.Screen,4_122_0,2023-09-23T17:11:22.685Z,,0,3,,7803.359999999986,response,ISIC_0009738.JPG,5,ISIC_0053765.JPG,ISIC_0009738.JPG,false,1,keypress(m),500,946874.1999999285,946874,939054.393,939063.8999999762,939070.64,946887.718,8,400,23,,ISIC_0053765.JPG
break,html.Screen,4_122_1,2023-09-23T17:11:22.686Z,,0,,,NaN,,,,,,false,,,,946874.8999999762,946874.6999999285,,946874.2999999523,,946887.718,8,400,,,
break_continue,html.Screen,4_122_2,2023-09-23T17:11:22.686Z,,0,,,NaN,,,,,,false,,,,946875.3999999762,946875.1999999285,,946875.0999999046,,946887.718,8,400,,,
sequence,flow.Sequence,4_122,2023-09-23T17:11:22.687Z,,0,,,7804.5599999284605,completion,,,,,false,,,,946875.5999999046,946875.1999999285,939054.393,939063.8999999762,939070.64,946887.718,8,400,,,
trial,html.Screen,4_123_0,2023-09-23T17:11:32.582Z,,0,3,,9877.481999928481,response,ISIC_4264600.JPG,6,ISIC_6176182.JPG,ISIC_6176182.JPG,false,0,keypress(z),500,956765.3999999762,956765.1999999285,946870.649,946875.5999999046,946887.718,956787.371,8,400,24,,ISIC_4264600.JPG
break,html.Screen,4_123_1,2023-09-23T17:11:32.583Z,,0,,,NaN,,,,,,false,,,,956766.0999999046,956766,,956765.5999999046,,956787.371,8,400,,,
break_continue,html.Screen,4_123_2,2023-09-23T17:11:32.583Z,,0,,,NaN,,,,,,false,,,,956766.3999999762,956766.2999999523,,956766.2999999523,,956787.371,8,400,,,
sequence,flow.Sequence,4_123,2023-09-23T17:11:32.583Z,,0,,,9878.581999952323,completion,,,,,false,,,,956766.5,956766.2999999523,946870.649,946875.5999999046,946887.718,956787.371,8,400,,,
trial,html.Screen,4_124_0,2023-09-23T17:11:40.217Z,,0,3,,7612.72899990459,response,ISIC_0057892.JPG,5,ISIC_4331481.JPG,ISIC_4331481.JPG,false,0,keypress(z),500,964400.2999999523,964400.0999999046,956770.835,956766.6999999285,956787.371,964403.891,8,400,25,,ISIC_0057892.JPG
break,html.Screen,4_124_1,2023-09-23T17:11:40.218Z,,0,,,NaN,,,,,,false,,,,964401.0999999046,964400.7999999523,,964400.3999999762,,964403.891,8,400,,,
break_continue,html.Screen,4_124_2,2023-09-23T17:11:40.218Z,,0,,,NaN,,,,,,false,,,,964401.3999999762,964401.1999999285,,964401.0999999046,,964403.891,8,400,,,
sequence,flow.Sequence,4_124,2023-09-23T17:11:40.218Z,,0,,,7613.828999928432,completion,,,,,false,,,,964401.5,964401.1999999285,956770.835,956766.5999999046,956787.371,964403.891,8,400,,,
trial,html.Screen,4_125_0,2023-09-23T17:11:43.596Z,,0,3,,3375.3089999285294,response,ISIC_0027971.JPG,5,ISIC_1026382.JPG,ISIC_0027971.JPG,false,1,keypress(m),500,967779.3999999762,967779.1999999285,964387.236,964401.5999999046,964403.891,967787.1,8,400,26,,ISIC_1026382.JPG
break,html.Screen,4_125_1,2023-09-23T17:11:43.597Z,,0,,,NaN,,,,,,false,,,,967780,967779.8999999762,,967779.5999999046,,967787.1,8,400,,,
break_continue,html.Screen,4_125_2,2023-09-23T17:11:43.597Z,,0,,,NaN,,,,,,false,,,,967780.1999999285,967780.0999999046,,967780,,967787.1,8,400,,,
sequence,flow.Sequence,4_125,2023-09-23T17:11:43.597Z,,0,,,3376.2089999046875,completion,,,,,false,,,,967780.3999999762,967780.0999999046,964387.236,964401.5999999046,964403.891,967787.1,8,400,,,
