sender,sender_type,sender_id,timestamp,meta,,blockNo,condition,duration,ended_on,img_left,img_reveal,img_right,loser,practice,response,response_action,selection_duration,time_commit,time_end,time_render,time_run,time_show,time_switch,total_blocks,total_trials,trialNo,url,winner
informed_consent,html.Screen,0,2023-09-11T19:08:25.795Z,"{""labjs_version"":""20.2.4"",""labjs_build"":{""flavor"":""production"",""commit"":""f5b4a49f956347addd546a832a3327688c2c0fef""},""location"":""https://run.pavlovia.org/MurrayBennett/melanoma-2afc/?participant=67602&platform=sona"",""userAgent"":""Mozilla/5.0 (Macintosh; Intel Mac OS X 10_15_7) AppleWebKit/537.36 (KHTML, like Gecko) Chrome/116.0.0.0 Safari/537.36"",""platform"":""MacIntel"",""language"":""en-US"",""locale"":""en-US"",""timeZone"":""America/Chicago"",""timezoneOffset"":300,""screen_width"":1440,""screen_height"":900,""scroll_width"":1440,""scroll_height"":668,""window_innerWidth"":1440,""window_innerHeight"":716,""devicePixelRatio"":2}",,,,2321.0339999999533,response,,,,,,consent,click button,,3209.3000000000466,3207.6999999999534,870,864.5,886.666,3236.572,,,,"{""participant"":""67602"",""platform"":""sona""}",
Welcome,html.Screen,1,2023-09-11T19:08:26.085Z,,,,irregular,261.3280000001396,response,,,,,,continue,click button,,3500,3497.9000000001397,3219.906,3209.5,3236.572,3503.228,,,,,
trial,html.Screen,2_0_0,2023-09-11T19:08:33.453Z,,0,0,,7363.471999999953,response,ISIC_0061792.JPG,,ISIC_4679428.JPG,ISIC_4679428.JPG,true,0,keypress(z),500,10867.300000000047,10866.699999999953,3486.562,3500.5,3503.228,10870.921,1,6,1,,ISIC_0061792.JPG
sequence,flow.Sequence,2_0,2023-09-11T19:08:33.453Z,,0,,,7363.471999999953,completion,,,,,true,,,,10868,10866.699999999953,3486.562,3500.4000000001397,3503.228,10870.921,1,6,,,
trial,html.Screen,2_1_0,2023-09-11T19:08:41.968Z,,0,0,,8511.379000000046,response,ISIC_0776486.JPG,,ISIC_5199497.JPG,ISIC_5199497.JPG,true,0,keypress(z),500,19382.90000000014,19382.300000000047,10854.255,10868.199999999953,10870.921,19387.247,1,6,2,,ISIC_0776486.JPG
sequence,flow.Sequence,2_1,2023-09-11T19:08:41.968Z,,0,,,8511.379000000046,completion,,,,,true,,,,19383.199999999953,19382.300000000047,10854.255,10868.100000000093,10870.921,19387.247,1,6,,,
trial,html.Screen,2_2_0,2023-09-11T19:08:45.540Z,,0,0,,3567.3530000000937,response,ISIC_8575776.JPG,,ISIC_2556187.JPG,ISIC_2556187.JPG,true,0,keypress(z),500,22955.199999999953,22954.600000000093,19370.581,19383.40000000014,19387.247,22971.005,1,6,3,,ISIC_8575776.JPG
sequence,flow.Sequence,2_2,2023-09-11T19:08:45.541Z,,0,,,3567.3530000000937,completion,,,,,true,,,,22955.600000000093,22954.600000000093,19370.581,19383.40000000014,19387.247,22971.005,1,6,,,
trial,html.Screen,2_3_0,2023-09-11T19:08:48.225Z,,0,0,,2668.3950000001387,response,ISIC_8141769.JPG,,ISIC_9238366.JPG,ISIC_9238366.JPG,true,0,keypress(z),500,25639.90000000014,25639.40000000014,22954.339,22955.800000000047,22971.005,25654.231,1,6,4,,ISIC_8141769.JPG
sequence,flow.Sequence,2_3,2023-09-11T19:08:48.225Z,,0,,,2668.3950000001387,completion,,,,,true,,,,25640.40000000014,25639.40000000014,22954.339,22955.699999999953,22971.005,25654.231,1,6,,,
trial,html.Screen,2_4_0,2023-09-11T19:08:51.156Z,,0,0,,2916.2690000000002,response,ISIC_8949026.JPG,,ISIC_9959593.JPG,ISIC_9959593.JPG,true,0,keypress(z),500,28571.100000000093,28570.5,25637.565,25640.699999999953,25654.231,28587.447,1,6,5,,ISIC_8949026.JPG
sequence,flow.Sequence,2_4,2023-09-11T19:08:51.156Z,,0,,,2916.2690000000002,completion,,,,,true,,,,28571.600000000093,28570.5,25637.565,25640.600000000093,25654.231,28587.447,1,6,,,
trial,html.Screen,2_5_0,2023-09-11T19:08:53.608Z,,0,0,,2435.4530000001396,response,ISIC_0010479.JPG,,ISIC_0460240.JPG,ISIC_0460240.JPG,true,0,keypress(z),500,31023.600000000093,31022.90000000014,28570.781,28571.699999999953,28587.447,31037.793,1,6,6,,ISIC_0010479.JPG
sequence,flow.Sequence,2_5,2023-09-11T19:08:53.609Z,,0,,,2435.4530000001396,completion,,,,,true,,,,31024.100000000093,31022.90000000014,28570.781,28571.699999999953,28587.447,31037.793,1,6,,,
loop,flow.Loop,2,2023-09-11T19:08:53.609Z,,,,,27519.67200000014,completion,,,,,true,,,,31024.40000000014,31022.90000000014,3486.562,3500.3000000000466,3503.228,31037.793,1,6,,,
exp_instructions,html.Screen,3,2023-09-11T19:09:07.356Z,,,,,13728.206999999999,response,,,,,,continue,keypress(Space),,44771.60000000009,44766,31021.127,31024.5,31037.793,44787.243,,,,,
trial,html.Screen,4_0_0,2023-09-11T19:09:11.256Z,,0,1,,3884.1570000001375,response,ISIC_0911264.JPG,8,ISIC_0070137.JPG,ISIC_0070137.JPG,false,0,keypress(z),500,48671.80000000005,48671.40000000014,44770.577,44771.90000000014,44787.243,48687.365,8,400,1,,ISIC_0911264.JPG
break,html.Screen,4_0_1,2023-09-11T19:09:11.258Z,,0,,,NaN,,,,,,false,,,,48673.10000000009,48672.80000000005,,48672.10000000009,,48687.365,8,400,,,
break_continue,html.Screen,4_0_2,2023-09-11T19:09:11.258Z,,0,,,NaN,,,,,,false,,,,48673.60000000009,48673.5,,48673.30000000005,,48687.365,8,400,,,
sequence,flow.Sequence,4_0,2023-09-11T19:09:11.258Z,,0,,,3886.256999999998,completion,,,,,false,,,,48673.80000000005,48673.5,44770.577,44771.90000000014,44787.243,48687.365,8,400,,,
trial,html.Screen,4_1_0,2023-09-11T19:09:15.390Z,,0,1,,4117.8349999999555,response,ISIC_8873236.JPG,5,ISIC_9000234.JPG,ISIC_9000234.JPG,false,0,keypress(z),500,52805.60000000009,52805.19999999995,48670.699,48674,48687.365,52820.533,8,400,2,,ISIC_8873236.JPG
break,html.Screen,4_1_1,2023-09-11T19:09:15.391Z,,0,,,NaN,,,,,,false,,,,52806.60000000009,52806.30000000005,,52805.90000000014,,52820.533,8,400,,,
break_continue,html.Screen,4_1_2,2023-09-11T19:09:15.392Z,,0,,,NaN,,,,,,false,,,,52807.10000000009,52806.90000000014,,52806.80000000005,,52820.533,8,400,,,
sequence,flow.Sequence,4_1,2023-09-11T19:09:15.392Z,,0,,,4119.535000000142,completion,,,,,false,,,,52807.19999999995,52806.90000000014,48670.699,48673.90000000014,48687.365,52820.533,8,400,,,
trial,html.Screen,4_2_0,2023-09-11T19:09:17.749Z,,0,1,,2343.1669999999503,response,ISIC_0034069.JPG,7,ISIC_0010825.JPG,ISIC_0034069.JPG,false,1,keypress(m),500,55164.10000000009,55163.69999999995,52803.867,52807.40000000014,52820.533,55170.439,8,400,3,,ISIC_0010825.JPG
break,html.Screen,4_2_1,2023-09-11T19:09:17.750Z,,0,,,NaN,,,,,,false,,,,55165.10000000009,55164.90000000014,,55164.40000000014,,55170.439,8,400,,,
break_continue,html.Screen,4_2_2,2023-09-11T19:09:17.750Z,,0,,,NaN,,,,,,false,,,,55165.5,55165.40000000014,,55165.30000000005,,55170.439,8,400,,,
sequence,flow.Sequence,4_2,2023-09-11T19:09:17.750Z,,0,,,2344.8670000001366,completion,,,,,false,,,,55165.69999999995,55165.40000000014,52803.867,52807.30000000005,52820.533,55170.439,8,400,,,
trial,html.Screen,4_3_0,2023-09-11T19:09:20.073Z,,0,1,,2317.5610000000015,response,ISIC_7487840.JPG,9,ISIC_0060979.JPG,ISIC_0060979.JPG,false,0,keypress(z),500,57488.30000000005,57488,55153.773,55165.80000000005,55170.439,57504.454,8,400,4,,ISIC_7487840.JPG
break,html.Screen,4_3_1,2023-09-11T19:09:20.074Z,,0,,,NaN,,,,,,false,,,,57489.40000000014,57489.10000000009,,57488.69999999995,,57504.454,8,400,,,
break_continue,html.Screen,4_3_2,2023-09-11T19:09:20.074Z,,0,,,NaN,,,,,,false,,,,57489.69999999995,57489.5,,57489.40000000014,,57504.454,8,400,,,
sequence,flow.Sequence,4_3,2023-09-11T19:09:20.074Z,,0,,,2319.0610000000015,completion,,,,,false,,,,57489.90000000014,57489.5,55153.773,55165.80000000005,55170.439,57504.454,8,400,,,
trial,html.Screen,4_4_0,2023-09-11T19:09:22.857Z,,0,1,,2767.6460000000952,response,ISIC_9747194.JPG,6,ISIC_0070009.JPG,ISIC_9747194.JPG,false,1,keypress(m),500,60272.5,60272.10000000009,57487.788,57490,57504.454,60287.676,8,400,5,,ISIC_0070009.JPG
break,html.Screen,4_4_1,2023-09-11T19:09:22.858Z,,0,,,NaN,,,,,,false,,,,60273.40000000014,60273.19999999995,,60272.80000000005,,60287.676,8,400,,,
break_continue,html.Screen,4_4_2,2023-09-11T19:09:22.859Z,,0,,,NaN,,,,,,false,,,,60275,60274.90000000014,,60274.69999999995,,60287.676,8,400,,,
sequence,flow.Sequence,4_4,2023-09-11T19:09:22.859Z,,0,,,2770.446000000142,completion,,,,,false,,,,60275.10000000009,60274.90000000014,57487.788,57489.90000000014,57504.454,60287.676,8,400,,,
trial,html.Screen,4_5_0,2023-09-11T19:09:26.232Z,,0,1,,3359.624000000047,response,ISIC_3965087.JPG,8,ISIC_2779787.JPG,ISIC_2779787.JPG,false,0,keypress(z),500,63647.60000000009,63647.30000000005,60271.01,60275.30000000005,60287.676,63654.208,8,400,6,,ISIC_3965087.JPG
break,html.Screen,4_5_1,2023-09-11T19:09:26.233Z,,0,,,NaN,,,,,,false,,,,63648.5,63648.30000000005,,63647.90000000014,,63654.208,8,400,,,
break_continue,html.Screen,4_5_2,2023-09-11T19:09:26.233Z,,0,,,NaN,,,,,,false,,,,63648.90000000014,63648.80000000005,,63648.69999999995,,63654.208,8,400,,,
sequence,flow.Sequence,4_5,2023-09-11T19:09:26.233Z,,0,,,3361.124000000047,completion,,,,,false,,,,63649.10000000009,63648.80000000005,60271.01,60275.19999999995,60287.676,63654.208,8,400,,,
trial,html.Screen,4_6_0,2023-09-11T19:09:30.281Z,,0,1,,4042.192000000141,response,ISIC_0030994.JPG,8,ISIC_7980387.JPG,ISIC_0030994.JPG,false,1,keypress(m),500,67696.69999999995,67696.40000000014,63637.542,63649.30000000005,63654.208,67704.504,8,400,7,,ISIC_7980387.JPG
break,html.Screen,4_6_1,2023-09-11T19:09:30.282Z,,0,,,NaN,,,,,,false,,,,67697.6000000001,67697.40000000014,,67696.90000000014,,67704.504,8,400,,,
break_continue,html.Screen,4_6_2,2023-09-11T19:09:30.282Z,,0,,,NaN,,,,,,false,,,,67698,67697.80000000005,,67697.69999999995,,67704.504,8,400,,,
sequence,flow.Sequence,4_6,2023-09-11T19:09:30.282Z,,0,,,4043.592000000048,completion,,,,,false,,,,67698.19999999995,67697.80000000005,63637.542,63649.19999999995,63654.208,67704.504,8,400,,,
trial,html.Screen,4_7_0,2023-09-11T19:09:33.612Z,,0,1,,3323.495999999999,response,ISIC_0065658.JPG,8,ISIC_0029092.JPG,ISIC_0029092.JPG,false,0,keypress(z),500,71028.40000000014,71028,67687.838,67698.19999999995,67704.504,71037.704,8,400,8,,ISIC_0065658.JPG
break,html.Screen,4_7_1,2023-09-11T19:09:33.613Z,,0,,,NaN,,,,,,false,,,,71029.30000000005,71029.1000000001,,71028.69999999995,,71037.704,8,400,,,
break_continue,html.Screen,4_7_2,2023-09-11T19:09:33.614Z,,0,,,NaN,,,,,,false,,,,71029.69999999995,71029.5,,71029.5,,71037.704,8,400,,,
sequence,flow.Sequence,4_7,2023-09-11T19:09:33.614Z,,0,,,3324.995999999999,completion,,,,,false,,,,71029.80000000005,71029.5,67687.838,67698.19999999995,67704.504,71037.704,8,400,,,
trial,html.Screen,4_8_0,2023-09-11T19:09:37.016Z,,0,1,,3393.696000000142,response,ISIC_0063617.JPG,7,ISIC_6004197.JPG,ISIC_0063617.JPG,false,1,keypress(m),500,74431.69999999995,74431.40000000014,71021.038,71030,71037.704,74437.568,8,400,9,,ISIC_6004197.JPG
break,html.Screen,4_8_1,2023-09-11T19:09:37.017Z,,0,,,NaN,,,,,,false,,,,74432.69999999995,74432.40000000014,,74432,,74437.568,8,400,,,
break_continue,html.Screen,4_8_2,2023-09-11T19:09:37.017Z,,0,,,NaN,,,,,,false,,,,74433.1000000001,74432.90000000014,,74432.80000000005,,74437.568,8,400,,,
sequence,flow.Sequence,4_8,2023-09-11T19:09:37.017Z,,0,,,3395.196000000142,completion,,,,,false,,,,74433.30000000005,74432.90000000014,71021.038,71030,71037.704,74437.568,8,400,,,
trial,html.Screen,4_9_0,2023-09-11T19:09:40.126Z,,0,1,,3103.2320000000473,response,ISIC_0009883.JPG,7,ISIC_8822331.JPG,ISIC_8822331.JPG,false,0,keypress(z),500,77542.30000000005,77540.80000000005,74420.902,74433.40000000014,74437.568,77554.556,8,400,10,,ISIC_0009883.JPG
break,html.Screen,4_9_1,2023-09-11T19:09:40.127Z,,0,,,NaN,,,,,,false,,,,77543.1000000001,77542.90000000014,,77542.5,,77554.556,8,400,,,
break_continue,html.Screen,4_9_2,2023-09-11T19:09:40.128Z,,0,,,NaN,,,,,,false,,,,77543.6000000001,77543.40000000014,,77543.40000000014,,77554.556,8,400,,,
sequence,flow.Sequence,4_9,2023-09-11T19:09:40.128Z,,0,,,3105.8320000001404,completion,,,,,false,,,,77543.69999999995,77543.40000000014,74420.902,74433.30000000005,74437.568,77554.556,8,400,,,
trial,html.Screen,4_10_0,2023-09-11T19:09:42.993Z,,0,1,,2854.6439999999566,response,ISIC_0056938.JPG,6,ISIC_0067621.JPG,ISIC_0067621.JPG,false,0,keypress(z),500,80409.5,80409.19999999995,77537.89,77543.80000000005,77554.556,80421.108,8,400,11,,ISIC_0056938.JPG
break,html.Screen,4_10_1,2023-09-11T19:09:42.994Z,,0,,,NaN,,,,,,false,,,,80410.5,80410.30000000005,,80409.80000000005,,80421.108,8,400,,,
break_continue,html.Screen,4_10_2,2023-09-11T19:09:42.995Z,,0,,,NaN,,,,,,false,,,,80410.80000000005,80410.69999999995,,80410.6000000001,,80421.108,8,400,,,
sequence,flow.Sequence,4_10,2023-09-11T19:09:42.995Z,,0,,,2856.1439999999566,completion,,,,,false,,,,80410.90000000014,80410.69999999995,77537.89,77543.80000000005,77554.556,80421.108,8,400,,,
trial,html.Screen,4_11_0,2023-09-11T19:09:46.351Z,,0,1,,3345.892000000007,response,ISIC_2232442.JPG,7,ISIC_0000140.JPG,ISIC_0000140.JPG,false,0,keypress(z),500,83767.30000000005,83767,80404.442,80411,80421.108,83770.974,8,400,12,,ISIC_2232442.JPG
break,html.Screen,4_11_1,2023-09-11T19:09:46.352Z,,0,,,NaN,,,,,,false,,,,83768.19999999995,83768.1000000001,,83767.6000000001,,83770.974,8,400,,,
break_continue,html.Screen,4_11_2,2023-09-11T19:09:46.353Z,,0,,,NaN,,,,,,false,,,,83768.69999999995,83768.5,,83768.40000000014,,83770.974,8,400,,,
sequence,flow.Sequence,4_11,2023-09-11T19:09:46.353Z,,0,,,3347.392000000007,completion,,,,,false,,,,83768.69999999995,83768.5,80404.442,80411,80421.108,83770.974,8,400,,,
trial,html.Screen,4_12_0,2023-09-11T19:09:48.997Z,,0,1,,2642.2259999999515,response,ISIC_8009880.JPG,6,ISIC_7788318.JPG,ISIC_8009880.JPG,false,1,keypress(m),500,86413.5,86413.19999999995,83754.308,83768.90000000014,83770.974,86421.325,8,400,13,,ISIC_7788318.JPG
break,html.Screen,4_12_1,2023-09-11T19:09:48.998Z,,0,,,NaN,,,,,,false,,,,86414.40000000014,86414.30000000005,,86413.80000000005,,86421.325,8,400,,,
break_continue,html.Screen,4_12_2,2023-09-11T19:09:48.999Z,,0,,,NaN,,,,,,false,,,,86414.80000000005,86414.69999999995,,86414.6000000001,,86421.325,8,400,,,
sequence,flow.Sequence,4_12,2023-09-11T19:09:48.999Z,,0,,,2643.7259999999515,completion,,,,,false,,,,86415,86414.69999999995,83754.308,83768.90000000014,83770.974,86421.325,8,400,,,
trial,html.Screen,4_13_0,2023-09-11T19:09:52.492Z,,0,1,,3486.8749999999563,response,ISIC_0000296.JPG,8,ISIC_2741583.JPG,ISIC_2741583.JPG,false,0,keypress(z),500,89908.6000000001,89908.19999999995,86404.659,86415.19999999995,86421.325,89921.185,8,400,14,,ISIC_0000296.JPG
break,html.Screen,4_13_1,2023-09-11T19:09:52.493Z,,0,,,NaN,,,,,,false,,,,89909.5,89909.40000000014,,89908.90000000014,,89921.185,8,400,,,
break_continue,html.Screen,4_13_2,2023-09-11T19:09:52.494Z,,0,,,NaN,,,,,,false,,,,89909.90000000014,89909.80000000005,,89909.69999999995,,89921.185,8,400,,,
sequence,flow.Sequence,4_13,2023-09-11T19:09:52.494Z,,0,,,3488.4750000000495,completion,,,,,false,,,,89910,89909.80000000005,86404.659,86415.1000000001,86421.325,89921.185,8,400,,,
trial,html.Screen,4_14_0,2023-09-11T19:09:55.458Z,,0,1,,2953.115000000049,response,ISIC_0000523.JPG,7,ISIC_7185913.JPG,ISIC_0000523.JPG,false,1,keypress(m),500,92874.80000000005,92874.30000000005,89904.519,89910.19999999995,89921.185,92887.733,8,400,15,,ISIC_7185913.JPG
break,html.Screen,4_14_1,2023-09-11T19:09:55.459Z,,0,,,NaN,,,,,,false,,,,92875.69999999995,92875.5,,92875,,92887.733,8,400,,,
break_continue,html.Screen,4_14_2,2023-09-11T19:09:55.460Z,,0,,,NaN,,,,,,false,,,,92876.1000000001,92875.90000000014,,92875.80000000005,,92887.733,8,400,,,
sequence,flow.Sequence,4_14,2023-09-11T19:09:55.460Z,,0,,,2954.715000000142,completion,,,,,false,,,,92876.30000000005,92875.90000000014,89904.519,89910.19999999995,89921.185,92887.733,8,400,,,
trial,html.Screen,4_15_0,2023-09-11T19:09:57.711Z,,0,1,,2239.167000000147,response,ISIC_0027596.JPG,8,ISIC_0029815.JPG,ISIC_0029815.JPG,false,0,keypress(z),500,95127.30000000005,95126.90000000014,92871.067,92876.40000000014,92887.733,95137.643,8,400,16,,ISIC_0027596.JPG
break,html.Screen,4_15_1,2023-09-11T19:09:57.712Z,,0,,,NaN,,,,,,false,,,,95128.19999999995,95128.1000000001,,95127.69999999995,,95137.643,8,400,,,
break_continue,html.Screen,4_15_2,2023-09-11T19:09:57.712Z,,0,,,NaN,,,,,,false,,,,95128.6000000001,95128.5,,95128.40000000014,,95137.643,8,400,,,
sequence,flow.Sequence,4_15,2023-09-11T19:09:57.712Z,,0,,,2240.767000000007,completion,,,,,false,,,,95128.80000000005,95128.5,92871.067,92876.30000000005,92887.733,95137.643,8,400,,,
trial,html.Screen,4_16_0,2023-09-11T19:10:01.686Z,,0,1,,3964.3570000000036,response,ISIC_2349994.JPG,9,ISIC_0034092.JPG,ISIC_0034092.JPG,false,0,keypress(z),500,99102.30000000005,99102,95120.977,95128.90000000014,95137.643,99104.596,8,400,17,,ISIC_2349994.JPG
break,html.Screen,4_16_1,2023-09-11T19:10:01.687Z,,0,,,NaN,,,,,,false,,,,99103.19999999995,99103,,99102.6000000001,,99104.596,8,400,,,
break_continue,html.Screen,4_16_2,2023-09-11T19:10:01.687Z,,0,,,NaN,,,,,,false,,,,99103.6000000001,99103.5,,99103.40000000014,,99104.596,8,400,,,
sequence,flow.Sequence,4_16,2023-09-11T19:10:01.687Z,,0,,,3965.8570000000036,completion,,,,,false,,,,99103.90000000014,99103.5,95120.977,95128.90000000014,95137.643,99104.596,8,400,,,
trial,html.Screen,4_17_0,2023-09-11T19:10:05.036Z,,0,1,,3347.504000000088,response,ISIC_0058198.JPG,6,ISIC_7008969.JPG,ISIC_7008969.JPG,false,0,keypress(z),500,102452.40000000014,102452.1000000001,99087.93,99104,99104.596,102454.462,8,400,18,,ISIC_0058198.JPG
break,html.Screen,4_17_1,2023-09-11T19:10:05.037Z,,0,,,NaN,,,,,,false,,,,102453.5,102453.30000000005,,102452.80000000005,,102454.462,8,400,,,
break_continue,html.Screen,4_17_2,2023-09-11T19:10:05.037Z,,0,,,NaN,,,,,,false,,,,102453.90000000014,102453.80000000005,,102453.6000000001,,102454.462,8,400,,,
sequence,flow.Sequence,4_17,2023-09-11T19:10:05.038Z,,0,,,3349.2040000000416,completion,,,,,false,,,,102454,102453.80000000005,99087.93,99104,99104.596,102454.462,8,400,,,
trial,html.Screen,4_18_0,2023-09-11T19:10:07.894Z,,0,1,,2855.93800000014,response,ISIC_2421696.JPG,8,ISIC_0028543.JPG,ISIC_2421696.JPG,false,1,keypress(m),500,105310.5,105310.40000000014,102437.796,102454.19999999995,102454.462,105321.014,8,400,19,,ISIC_0028543.JPG
break,html.Screen,4_18_1,2023-09-11T19:10:07.894Z,,0,,,NaN,,,,,,false,,,,105310.90000000014,105310.90000000014,,105310.69999999995,,105321.014,8,400,,,
break_continue,html.Screen,4_18_2,2023-09-11T19:10:07.895Z,,0,,,NaN,,,,,,false,,,,105311.1000000001,105311.1000000001,,105311,,105321.014,8,400,,,
sequence,flow.Sequence,4_18,2023-09-11T19:10:07.895Z,,0,,,2856.6380000000936,completion,,,,,false,,,,105311.1000000001,105311.1000000001,102437.796,102454.1000000001,102454.462,105321.014,8,400,,,
trial,html.Screen,4_19_0,2023-09-11T19:10:10.303Z,,0,1,,2397.9860000000044,response,ISIC_0030211.JPG,8,ISIC_0182020.JPG,ISIC_0030211.JPG,false,1,keypress(m),500,107719.30000000005,107719,105304.348,105311.19999999995,105321.014,107721.362,8,400,20,,ISIC_0182020.JPG
break,html.Screen,4_19_1,2023-09-11T19:10:10.304Z,,0,,,NaN,,,,,,false,,,,107720.30000000005,107720,,107719.6000000001,,107721.362,8,400,,,
break_continue,html.Screen,4_19_2,2023-09-11T19:10:10.304Z,,0,,,NaN,,,,,,false,,,,107720.6000000001,107720.5,,107720.40000000014,,107721.362,8,400,,,
sequence,flow.Sequence,4_19,2023-09-11T19:10:10.304Z,,0,,,2399.4860000000044,completion,,,,,false,,,,107720.69999999995,107720.5,105304.348,105311.1000000001,105321.014,107721.362,8,400,,,
trial,html.Screen,4_20_0,2023-09-11T19:10:12.757Z,,0,1,,2452.2380000000994,response,ISIC_7641956.JPG,8,ISIC_0030845.JPG,ISIC_0030845.JPG,false,0,keypress(z),500,110174,110173.6000000001,107704.696,107721,107721.362,110187.93,8,400,21,,ISIC_7641956.JPG
break,html.Screen,4_20_1,2023-09-11T19:10:12.758Z,,0,,,NaN,,,,,,false,,,,110175.1000000001,110174.90000000014,,110174.40000000014,,110187.93,8,400,,,
break_continue,html.Screen,4_20_2,2023-09-11T19:10:12.759Z,,0,,,NaN,,,,,,false,,,,110175.40000000014,110175.30000000005,,110175.19999999995,,110187.93,8,400,,,
sequence,flow.Sequence,4_20,2023-09-11T19:10:12.759Z,,0,,,2453.938000000053,completion,,,,,false,,,,110175.6000000001,110175.30000000005,107704.696,107720.80000000005,107721.362,110187.93,8,400,,,
trial,html.Screen,4_21_0,2023-09-11T19:10:15.639Z,,0,1,,2867.7699999999604,response,ISIC_0004140.JPG,8,ISIC_6019374.JPG,ISIC_6019374.JPG,false,0,keypress(z),500,113055.90000000014,113055.69999999995,110171.264,110175.69999999995,110187.93,113071.148,8,400,22,,ISIC_0004140.JPG
break,html.Screen,4_21_1,2023-09-11T19:10:15.640Z,,0,,,NaN,,,,,,false,,,,113056.19999999995,113056.1000000001,,113055.90000000014,,113071.148,8,400,,,
break_continue,html.Screen,4_21_2,2023-09-11T19:10:15.640Z,,0,,,NaN,,,,,,false,,,,113056.30000000005,113056.30000000005,,113056.19999999995,,113071.148,8,400,,,
sequence,flow.Sequence,4_21,2023-09-11T19:10:15.640Z,,0,,,2868.3700000000536,completion,,,,,false,,,,113056.30000000005,113056.30000000005,110171.264,110175.69999999995,110187.93,113071.148,8,400,,,
trial,html.Screen,4_22_0,2023-09-11T19:10:18.668Z,,0,1,,3013.2520000001387,response,ISIC_8383600.JPG,8,ISIC_2167209.JPG,ISIC_8383600.JPG,false,1,keypress(m),500,116084.90000000014,116084.40000000014,113054.482,113056.40000000014,113071.148,116087.694,8,400,23,,ISIC_2167209.JPG
break,html.Screen,4_22_1,2023-09-11T19:10:18.669Z,,0,,,NaN,,,,,,false,,,,116085.90000000014,116085.69999999995,,116085.19999999995,,116087.694,8,400,,,
break_continue,html.Screen,4_22_2,2023-09-11T19:10:18.669Z,,0,,,NaN,,,,,,false,,,,116086.19999999995,116086.1000000001,,116086,,116087.694,8,400,,,
sequence,flow.Sequence,4_22,2023-09-11T19:10:18.670Z,,0,,,3014.952000000092,completion,,,,,false,,,,116086.40000000014,116086.1000000001,113054.482,113056.30000000005,113071.148,116087.694,8,400,,,
trial,html.Screen,4_23_0,2023-09-11T19:10:21.570Z,,0,1,,2899.0059999999503,response,ISIC_2519121.JPG,4,ISIC_0060585.JPG,ISIC_2519121.JPG,false,1,keypress(m),500,118987.1000000001,118986.69999999995,116071.028,116086.5,116087.694,118988.048,8,400,24,,ISIC_0060585.JPG
break,html.Screen,4_23_1,2023-09-11T19:10:21.571Z,,0,,,NaN,,,,,,false,,,,118988.1000000001,118987.90000000014,,118987.40000000014,,118988.048,8,400,,,
break_continue,html.Screen,4_23_2,2023-09-11T19:10:21.572Z,,0,,,NaN,,,,,,false,,,,118988.5,118988.30000000005,,118988.19999999995,,118988.048,8,400,,,
sequence,flow.Sequence,4_23,2023-09-11T19:10:21.572Z,,0,,,2900.6060000000434,completion,,,,,false,,,,118988.69999999995,118988.30000000005,116071.028,116086.5,116087.694,118988.048,8,400,,,
trial,html.Screen,4_24_0,2023-09-11T19:10:25.194Z,,0,1,,3622.052000000098,response,ISIC_6155782.JPG,7,ISIC_2050512.JPG,ISIC_2050512.JPG,false,0,keypress(z),500,122610.6000000001,122610.1000000001,118971.382,118988.69999999995,118988.048,122621.236,8,400,25,,ISIC_6155782.JPG
break,html.Screen,4_24_1,2023-09-11T19:10:25.195Z,,0,,,NaN,,,,,,false,,,,122611.69999999995,122611.40000000014,,122610.90000000014,,122621.236,8,400,,,
break_continue,html.Screen,4_24_2,2023-09-11T19:10:25.195Z,,0,,,NaN,,,,,,false,,,,122612.1000000001,122612,,122611.90000000014,,122621.236,8,400,,,
sequence,flow.Sequence,4_24,2023-09-11T19:10:25.195Z,,0,,,3623.952000000005,completion,,,,,false,,,,122612.19999999995,122612,118971.382,118988.69999999995,118988.048,122621.236,8,400,,,
trial,html.Screen,4_25_0,2023-09-11T19:10:28.129Z,,0,1,,2923.8640000000887,response,ISIC_3329255.JPG,8,ISIC_3900049.JPG,ISIC_3329255.JPG,false,1,keypress(m),500,125545.5,125545.1000000001,122604.57,122612.40000000014,122621.236,125554.452,8,400,26,,ISIC_3900049.JPG
break,html.Screen,4_25_1,2023-09-11T19:10:28.130Z,,0,,,NaN,,,,,,false,,,,125546.6000000001,125546.40000000014,,125545.80000000005,,125554.452,8,400,,,
break_continue,html.Screen,4_25_2,2023-09-11T19:10:28.130Z,,0,,,NaN,,,,,,false,,,,125547,125546.80000000005,,125546.69999999995,,125554.452,8,400,,,
sequence,flow.Sequence,4_25,2023-09-11T19:10:28.130Z,,0,,,2925.564000000042,completion,,,,,false,,,,125547.1000000001,125546.80000000005,122604.57,122612.40000000014,122621.236,125554.452,8,400,,,
trial,html.Screen,4_26_0,2023-09-11T19:10:32.927Z,,0,1,,4789.148000000088,response,ISIC_0010965.JPG,8,ISIC_8792007.JPG,ISIC_8792007.JPG,false,0,keypress(z),500,130344,130343.6000000001,125537.786,125547.19999999995,125554.452,130354.774,8,400,27,,ISIC_0010965.JPG
break,html.Screen,4_26_1,2023-09-11T19:10:32.928Z,,0,,,NaN,,,,,,false,,,,130345,130344.80000000005,,130344.40000000014,,130354.774,8,400,,,
break_continue,html.Screen,4_26_2,2023-09-11T19:10:32.928Z,,0,,,NaN,,,,,,false,,,,130345.40000000014,130345.30000000005,,130345.19999999995,,130354.774,8,400,,,
sequence,flow.Sequence,4_26,2023-09-11T19:10:32.929Z,,0,,,4790.848000000042,completion,,,,,false,,,,130345.6000000001,130345.30000000005,125537.786,125547.19999999995,125554.452,130354.774,8,400,,,
trial,html.Screen,4_27_0,2023-09-11T19:10:36.239Z,,0,1,,3300.725999999995,response,ISIC_0066314.JPG,9,ISIC_5737704.JPG,ISIC_0066314.JPG,false,1,keypress(m),500,133655.90000000014,133655.5,130338.108,130345.80000000005,130354.774,133671.308,8,400,28,,ISIC_5737704.JPG
break,html.Screen,4_27_1,2023-09-11T19:10:36.240Z,,0,,,NaN,,,,,,false,,,,133656.80000000005,133656.6000000001,,133656.19999999995,,133671.308,8,400,,,
break_continue,html.Screen,4_27_2,2023-09-11T19:10:36.240Z,,0,,,NaN,,,,,,false,,,,133657.19999999995,133657.1000000001,,133657,,133671.308,8,400,,,
sequence,flow.Sequence,4_27,2023-09-11T19:10:36.240Z,,0,,,3302.3260000000882,completion,,,,,false,,,,133657.5,133657.1000000001,130338.108,130345.69999999995,130354.774,133671.308,8,400,,,
trial,html.Screen,4_28_0,2023-09-11T19:10:39.381Z,,0,1,,3126.292000000103,response,ISIC_0071988.JPG,5,ISIC_0034117.JPG,ISIC_0034117.JPG,false,0,keypress(z),500,136798.1000000001,136797.6000000001,133654.642,133657.5,133671.308,136804.516,8,400,29,,ISIC_0071988.JPG
break,html.Screen,4_28_1,2023-09-11T19:10:39.382Z,,0,,,NaN,,,,,,false,,,,136799,136798.90000000014,,136798.40000000014,,136804.516,8,400,,,
break_continue,html.Screen,4_28_2,2023-09-11T19:10:39.382Z,,0,,,NaN,,,,,,false,,,,136799.6000000001,136799.5,,136799.30000000005,,136804.516,8,400,,,
sequence,flow.Sequence,4_28,2023-09-11T19:10:39.383Z,,0,,,3128.19200000001,completion,,,,,false,,,,136799.80000000005,136799.5,133654.642,133657.5,133671.308,136804.516,8,400,,,
trial,html.Screen,4_29_0,2023-09-11T19:10:45.692Z,,0,1,,6304.18399999995,response,ISIC_0610849.JPG,8,ISIC_0644590.JPG,ISIC_0644590.JPG,false,0,keypress(z),500,143109,143108.69999999995,136787.85,136799.90000000014,136804.516,143121.343,8,400,30,,ISIC_0610849.JPG
break,html.Screen,4_29_1,2023-09-11T19:10:45.693Z,,0,,,NaN,,,,,,false,,,,143110,143109.69999999995,,143109.30000000005,,143121.343,8,400,,,
break_continue,html.Screen,4_29_2,2023-09-11T19:10:45.693Z,,0,,,NaN,,,,,,false,,,,143110.30000000005,143110.19999999995,,143110.1000000001,,143121.343,8,400,,,
sequence,flow.Sequence,4_29,2023-09-11T19:10:45.693Z,,0,,,6305.68399999995,completion,,,,,false,,,,143110.40000000014,143110.19999999995,136787.85,136799.90000000014,136804.516,143121.343,8,400,,,
trial,html.Screen,4_30_0,2023-09-11T19:10:48.918Z,,0,1,,3213.1570000000065,response,ISIC_4352700.JPG,7,ISIC_0070711.JPG,ISIC_4352700.JPG,false,1,keypress(m),500,146334.90000000014,146334.5,143104.677,143110.6000000001,143121.343,146337.881,8,400,31,,ISIC_0070711.JPG
break,html.Screen,4_30_1,2023-09-11T19:10:48.919Z,,0,,,NaN,,,,,,false,,,,146335.90000000014,146335.69999999995,,146335.19999999995,,146337.881,8,400,,,
break_continue,html.Screen,4_30_2,2023-09-11T19:10:48.919Z,,0,,,NaN,,,,,,false,,,,146336.30000000005,146336.1000000001,,146336.1000000001,,146337.881,8,400,,,
sequence,flow.Sequence,4_30,2023-09-11T19:10:48.919Z,,0,,,3214.7570000000997,completion,,,,,false,,,,146336.5,146336.1000000001,143104.677,143110.6000000001,143121.343,146337.881,8,400,,,
trial,html.Screen,4_31_0,2023-09-11T19:10:51.804Z,,0,1,,2883.119000000006,response,ISIC_5358548.JPG,7,ISIC_0031010.JPG,ISIC_5358548.JPG,false,1,keypress(m),500,149221.40000000014,149221,146321.215,146336.6000000001,146337.881,149237.765,8,400,32,,ISIC_0031010.JPG
break,html.Screen,4_31_1,2023-09-11T19:10:51.805Z,,0,,,NaN,,,,,,false,,,,149222.40000000014,149222.19999999995,,149221.80000000005,,149237.765,8,400,,,
break_continue,html.Screen,4_31_2,2023-09-11T19:10:51.805Z,,0,,,NaN,,,,,,false,,,,149222.69999999995,149222.6000000001,,149222.5,,149237.765,8,400,,,
sequence,flow.Sequence,4_31,2023-09-11T19:10:51.806Z,,0,,,2884.719000000099,completion,,,,,false,,,,149222.90000000014,149222.6000000001,146321.215,146336.5,146337.881,149237.765,8,400,,,
trial,html.Screen,4_32_0,2023-09-11T19:10:54.966Z,,0,1,,3145.4349999999395,response,ISIC_2714572.JPG,7,ISIC_0029328.JPG,ISIC_0029328.JPG,false,0,keypress(z),500,152383.6000000001,152383.19999999995,149221.099,149223,149237.765,152388.116,8,400,33,,ISIC_2714572.JPG
break,html.Screen,4_32_1,2023-09-11T19:10:54.967Z,,0,,,NaN,,,,,,false,,,,152384.5,152384.40000000014,,152383.90000000014,,152388.116,8,400,,,
break_continue,html.Screen,4_32_2,2023-09-11T19:10:54.967Z,,0,,,NaN,,,,,,false,,,,152384.90000000014,152384.80000000005,,152384.69999999995,,152388.116,8,400,,,
sequence,flow.Sequence,4_32,2023-09-11T19:10:54.968Z,,0,,,3147.0350000000326,completion,,,,,false,,,,152385.1000000001,152384.80000000005,149221.099,149223,149237.765,152388.116,8,400,,,
trial,html.Screen,4_33_0,2023-09-11T19:10:58.157Z,,0,1,,3186.2840000001306,response,ISIC_0012037.JPG,7,ISIC_7727830.JPG,ISIC_0012037.JPG,false,1,keypress(m),500,155574.69999999995,155574.40000000014,152371.45,152385.19999999995,152388.116,155587.988,8,400,34,,ISIC_7727830.JPG
break,html.Screen,4_33_1,2023-09-11T19:10:58.158Z,,0,,,NaN,,,,,,false,,,,155575.69999999995,155575.6000000001,,155575,,155587.988,8,400,,,
break_continue,html.Screen,4_33_2,2023-09-11T19:10:58.159Z,,0,,,NaN,,,,,,false,,,,155576,155576,,155575.80000000005,,155587.988,8,400,,,
sequence,flow.Sequence,4_33,2023-09-11T19:10:58.159Z,,0,,,3187.883999999991,completion,,,,,false,,,,155576.19999999995,155576,152371.45,152385.19999999995,152388.116,155587.988,8,400,,,
trial,html.Screen,4_34_0,2023-09-11T19:11:00.801Z,,0,1,,2629.9120000001276,response,ISIC_0001100.JPG,7,ISIC_0065539.JPG,ISIC_0001100.JPG,false,1,keypress(m),500,158218.30000000005,158217.90000000014,155571.322,155576.40000000014,155587.988,158221.216,8,400,35,,ISIC_0065539.JPG
break,html.Screen,4_34_1,2023-09-11T19:11:00.802Z,,0,,,NaN,,,,,,false,,,,158219.19999999995,158219.1000000001,,158218.6000000001,,158221.216,8,400,,,
break_continue,html.Screen,4_34_2,2023-09-11T19:11:00.802Z,,0,,,NaN,,,,,,false,,,,158219.69999999995,158219.5,,158219.5,,158221.216,8,400,,,
sequence,flow.Sequence,4_34,2023-09-11T19:11:00.802Z,,0,,,2631.511999999988,completion,,,,,false,,,,158219.80000000005,158219.5,155571.322,155576.40000000014,155587.988,158221.216,8,400,,,
trial,html.Screen,4_35_0,2023-09-11T19:11:03.671Z,,0,1,,2866.8840000001073,response,ISIC_0027130.JPG,8,ISIC_0033561.JPG,ISIC_0033561.JPG,false,0,keypress(z),500,161088.5,161088.1000000001,158204.55,158220,158221.216,161104.928,8,400,36,,ISIC_0027130.JPG
break,html.Screen,4_35_1,2023-09-11T19:11:03.672Z,,0,,,NaN,,,,,,false,,,,161089.5,161089.19999999995,,161088.69999999995,,161104.928,8,400,,,
break_continue,html.Screen,4_35_2,2023-09-11T19:11:03.672Z,,0,,,NaN,,,,,,false,,,,161089.80000000005,161089.80000000005,,161089.6000000001,,161104.928,8,400,,,
sequence,flow.Sequence,4_35,2023-09-11T19:11:03.672Z,,0,,,2868.5840000000608,completion,,,,,false,,,,161090,161089.80000000005,158204.55,158219.90000000014,158221.216,161104.928,8,400,,,
trial,html.Screen,4_36_0,2023-09-11T19:11:06.798Z,,0,1,,3110.271999999939,response,ISIC_9433473.JPG,8,ISIC_0007808.JPG,ISIC_0007808.JPG,false,0,keypress(z),500,164215.6000000001,164215.19999999995,161088.262,161090.19999999995,161104.928,164221.47,8,400,37,,ISIC_9433473.JPG
break,html.Screen,4_36_1,2023-09-11T19:11:06.799Z,,0,,,NaN,,,,,,false,,,,164216.6000000001,164216.30000000005,,164215.80000000005,,164221.47,8,400,,,
break_continue,html.Screen,4_36_2,2023-09-11T19:11:06.799Z,,0,,,NaN,,,,,,false,,,,164217,164216.80000000005,,164216.69999999995,,164221.47,8,400,,,
sequence,flow.Sequence,4_36,2023-09-11T19:11:06.799Z,,0,,,3111.872000000032,completion,,,,,false,,,,164217.1000000001,164216.80000000005,161088.262,161090.1000000001,161104.928,164221.47,8,400,,,
trial,html.Screen,4_37_0,2023-09-11T19:11:09.989Z,,0,1,,3184.9300000001385,response,ISIC_7494625.JPG,8,ISIC_0071171.JPG,ISIC_7494625.JPG,false,1,keypress(m),500,167406.80000000005,167406.40000000014,164204.804,164217.19999999995,164221.47,167421.342,8,400,38,,ISIC_0071171.JPG
break,html.Screen,4_37_1,2023-09-11T19:11:09.990Z,,0,,,NaN,,,,,,false,,,,167407.69999999995,167407.5,,167407,,167421.342,8,400,,,
break_continue,html.Screen,4_37_2,2023-09-11T19:11:09.990Z,,0,,,NaN,,,,,,false,,,,167408,167407.90000000014,,167407.80000000005,,167421.342,8,400,,,
sequence,flow.Sequence,4_37,2023-09-11T19:11:09.990Z,,0,,,3186.4300000001385,completion,,,,,false,,,,167408.30000000005,167407.90000000014,164204.804,164217.19999999995,164221.47,167421.342,8,400,,,
trial,html.Screen,4_38_0,2023-09-11T19:11:12.681Z,,0,1,,2676.8579999999492,response,ISIC_8642938.JPG,5,ISIC_0010933.JPG,ISIC_8642938.JPG,false,1,keypress(m),500,170098.5,170098.19999999995,167404.676,167408.40000000014,167421.342,170104.568,8,400,39,,ISIC_0010933.JPG
break,html.Screen,4_38_1,2023-09-11T19:11:12.682Z,,0,,,NaN,,,,,,false,,,,170099.30000000005,170099,,170098.6000000001,,170104.568,8,400,,,
break_continue,html.Screen,4_38_2,2023-09-11T19:11:12.682Z,,0,,,NaN,,,,,,false,,,,170099.69999999995,170099.6000000001,,170099.40000000014,,170104.568,8,400,,,
sequence,flow.Sequence,4_38,2023-09-11T19:11:12.682Z,,0,,,2678.258000000089,completion,,,,,false,,,,170100,170099.6000000001,167404.676,167408.30000000005,167421.342,170104.568,8,400,,,
trial,html.Screen,4_39_0,2023-09-11T19:11:15.360Z,,0,1,,2672.532000000094,response,ISIC_0070110.JPG,8,ISIC_0313507.JPG,ISIC_0070110.JPG,false,1,keypress(m),500,172777.5,172777.1000000001,170087.902,170100.1000000001,170104.568,172788.214,8,400,40,,ISIC_0313507.JPG
break,html.Screen,4_39_1,2023-09-11T19:11:15.361Z,,0,,,NaN,,,,,,false,,,,172778.6000000001,172778.30000000005,,172777.80000000005,,172788.214,8,400,,,
break_continue,html.Screen,4_39_2,2023-09-11T19:11:15.361Z,,0,,,NaN,,,,,,false,,,,172778.90000000014,172778.69999999995,,172778.6000000001,,172788.214,8,400,,,
sequence,flow.Sequence,4_39,2023-09-11T19:11:15.361Z,,0,,,2674.131999999954,completion,,,,,false,,,,172779.1000000001,172778.69999999995,170087.902,170100.1000000001,170104.568,172788.214,8,400,,,
trial,html.Screen,4_40_0,2023-09-11T19:11:20.934Z,,0,1,,5563.485999999946,response,ISIC_1423737.JPG,6,ISIC_0032812.JPG,ISIC_0032812.JPG,false,0,keypress(z),500,178352.19999999995,178351.69999999995,172771.548,172779.19999999995,172788.214,178354.658,8,400,41,,ISIC_1423737.JPG
break,html.Screen,4_40_1,2023-09-11T19:11:20.935Z,,0,,,NaN,,,,,,false,,,,178353.19999999995,178353,,178352.6000000001,,178354.658,8,400,,,
break_continue,html.Screen,4_40_2,2023-09-11T19:11:20.936Z,,0,,,NaN,,,,,,false,,,,178353.6000000001,178353.5,,178353.40000000014,,178354.658,8,400,,,
sequence,flow.Sequence,4_40,2023-09-11T19:11:20.936Z,,0,,,5565.285999999993,completion,,,,,false,,,,178353.80000000005,178353.5,172771.548,172779.19999999995,172788.214,178354.658,8,400,,,
trial,html.Screen,4_41_0,2023-09-11T19:11:23.837Z,,0,1,,2900.0419999999576,response,ISIC_0031501.JPG,8,ISIC_0031726.JPG,ISIC_0031501.JPG,false,1,keypress(m),500,181254.90000000014,181254.69999999995,178337.992,178353.90000000014,178354.658,181271.208,8,400,42,,ISIC_0031726.JPG
break,html.Screen,4_41_1,2023-09-11T19:11:23.838Z,,0,,,NaN,,,,,,false,,,,181255.90000000014,181255.69999999995,,181255.30000000005,,181271.208,8,400,,,
break_continue,html.Screen,4_41_2,2023-09-11T19:11:23.838Z,,0,,,NaN,,,,,,false,,,,181256.30000000005,181256.19999999995,,181256.1000000001,,181271.208,8,400,,,
sequence,flow.Sequence,4_41,2023-09-11T19:11:23.838Z,,0,,,2901.5419999999576,completion,,,,,false,,,,181256.40000000014,181256.19999999995,178337.992,178353.90000000014,178354.658,181271.208,8,400,,,
trial,html.Screen,4_42_0,2023-09-11T19:11:26.132Z,,0,1,,2278.49199999994,response,ISIC_0026746.JPG,5,ISIC_0059593.JPG,ISIC_0059593.JPG,false,0,keypress(z),500,183550,183549.69999999995,181254.542,181256.6000000001,181271.208,183554.935,8,400,43,,ISIC_0026746.JPG
break,html.Screen,4_42_1,2023-09-11T19:11:26.133Z,,0,,,NaN,,,,,,false,,,,183551,183550.80000000005,,183550.30000000005,,183554.935,8,400,,,
break_continue,html.Screen,4_42_2,2023-09-11T19:11:26.133Z,,0,,,NaN,,,,,,false,,,,183551.5,183551.30000000005,,183551.1000000001,,183554.935,8,400,,,
sequence,flow.Sequence,4_42,2023-09-11T19:11:26.134Z,,0,,,2280.0920000000333,completion,,,,,false,,,,183551.6000000001,183551.30000000005,181254.542,181256.5,181271.208,183554.935,8,400,,,
trial,html.Screen,4_43_0,2023-09-11T19:11:28.621Z,,0,1,,2483.7649999999558,response,ISIC_0034150.JPG,8,ISIC_8207974.JPG,ISIC_8207974.JPG,false,0,keypress(z),500,186039,186038.69999999995,183538.269,183551.69999999995,183554.935,186054.835,8,400,44,,ISIC_0034150.JPG
break,html.Screen,4_43_1,2023-09-11T19:11:28.622Z,,0,,,NaN,,,,,,false,,,,186040.1000000001,186039.80000000005,,186039.30000000005,,186054.835,8,400,,,
break_continue,html.Screen,4_43_2,2023-09-11T19:11:28.622Z,,0,,,NaN,,,,,,false,,,,186040.5,186040.40000000014,,186040.19999999995,,186054.835,8,400,,,
sequence,flow.Sequence,4_43,2023-09-11T19:11:28.623Z,,0,,,2485.465000000142,completion,,,,,false,,,,186040.6000000001,186040.40000000014,183538.269,183551.6000000001,183554.935,186054.835,8,400,,,
trial,html.Screen,4_44_0,2023-09-11T19:11:31.316Z,,0,1,,2679.165000000008,response,ISIC_0029225.JPG,8,ISIC_8838753.JPG,ISIC_0029225.JPG,false,1,keypress(m),500,188734.40000000014,188734,186038.169,186040.80000000005,186054.835,188738.061,8,400,45,,ISIC_8838753.JPG
break,html.Screen,4_44_1,2023-09-11T19:11:31.317Z,,0,,,NaN,,,,,,false,,,,188735.30000000005,188735.1000000001,,188734.69999999995,,188738.061,8,400,,,
break_continue,html.Screen,4_44_2,2023-09-11T19:11:31.318Z,,0,,,NaN,,,,,,false,,,,188735.6000000001,188735.6000000001,,188735.5,,188738.061,8,400,,,
sequence,flow.Sequence,4_44,2023-09-11T19:11:31.318Z,,0,,,2680.7650000001013,completion,,,,,false,,,,188735.80000000005,188735.6000000001,186038.169,186040.80000000005,186054.835,188738.061,8,400,,,
trial,html.Screen,4_45_0,2023-09-11T19:11:33.928Z,,0,1,,2607.8390000001527,response,ISIC_6125652.JPG,8,ISIC_1412843.JPG,ISIC_1412843.JPG,false,0,keypress(z),500,191346.1000000001,191345.90000000014,188721.395,188736,188738.061,191354.623,8,400,46,,ISIC_6125652.JPG
break,html.Screen,4_45_1,2023-09-11T19:11:33.929Z,,0,,,NaN,,,,,,false,,,,191347.19999999995,191346.90000000014,,191346.5,,191354.623,8,400,,,
break_continue,html.Screen,4_45_2,2023-09-11T19:11:33.929Z,,0,,,NaN,,,,,,false,,,,191347.5,191347.40000000014,,191347.30000000005,,191354.623,8,400,,,
sequence,flow.Sequence,4_45,2023-09-11T19:11:33.929Z,,0,,,2609.3390000001527,completion,,,,,false,,,,191347.6000000001,191347.40000000014,188721.395,188735.90000000014,188738.061,191354.623,8,400,,,
trial,html.Screen,4_46_0,2023-09-11T19:11:36.501Z,,0,1,,2564.576999999961,response,ISIC_0026505.JPG,7,ISIC_5284935.JPG,ISIC_0026505.JPG,false,1,keypress(m),500,193919.6000000001,193919.19999999995,191337.957,191347.80000000005,191354.623,193921.605,8,400,47,,ISIC_5284935.JPG
break,html.Screen,4_46_1,2023-09-11T19:11:36.502Z,,0,,,NaN,,,,,,false,,,,193920.5,193920.30000000005,,193919.80000000005,,193921.605,8,400,,,
break_continue,html.Screen,4_46_2,2023-09-11T19:11:36.503Z,,0,,,NaN,,,,,,false,,,,193920.90000000014,193920.80000000005,,193920.69999999995,,193921.605,8,400,,,
sequence,flow.Sequence,4_46,2023-09-11T19:11:36.503Z,,0,,,2566.1770000000542,completion,,,,,false,,,,193921.1000000001,193920.80000000005,191337.957,191347.80000000005,191354.623,193921.605,8,400,,,
trial,html.Screen,4_47_0,2023-09-11T19:11:39.691Z,,0,1,,3187.795000000129,response,ISIC_3666094.JPG,6,ISIC_2152875.JPG,ISIC_2152875.JPG,false,0,keypress(z),500,197109.80000000005,197109.40000000014,193904.939,193921.19999999995,193921.605,197121.477,8,400,48,,ISIC_3666094.JPG
break,html.Screen,4_47_1,2023-09-11T19:11:39.692Z,,0,,,NaN,,,,,,false,,,,197110.69999999995,197110.5,,197110.1000000001,,197121.477,8,400,,,
break_continue,html.Screen,4_47_2,2023-09-11T19:11:39.693Z,,0,,,NaN,,,,,,false,,,,197111.1000000001,197111,,197110.80000000005,,197121.477,8,400,,,
sequence,flow.Sequence,4_47,2023-09-11T19:11:39.693Z,,0,,,3189.3949999999895,completion,,,,,false,,,,197111.19999999995,197111,193904.939,193921.19999999995,193921.605,197121.477,8,400,,,
trial,html.Screen,4_48_0,2023-09-11T19:11:42.240Z,,0,1,,2536.323000000033,response,ISIC_0033619.JPG,6,ISIC_0012040.JPG,ISIC_0033619.JPG,false,1,keypress(m),500,199658.19999999995,199657.80000000005,197104.811,197111.40000000014,197121.477,199671.375,8,400,49,,ISIC_0012040.JPG
break,html.Screen,4_48_1,2023-09-11T19:11:42.241Z,,0,,,NaN,,,,,,false,,,,199659.19999999995,199659,,199658.40000000014,,199671.375,8,400,,,
break_continue,html.Screen,4_48_2,2023-09-11T19:11:42.241Z,,0,,,NaN,,,,,,false,,,,199659.5,199659.40000000014,,199659.30000000005,,199671.375,8,400,,,
sequence,flow.Sequence,4_48,2023-09-11T19:11:42.241Z,,0,,,2537.923000000126,completion,,,,,false,,,,199659.69999999995,199659.40000000014,197104.811,197111.30000000005,197121.477,199671.375,8,400,,,
trial,html.Screen,4_49_0,2023-09-11T19:11:44.663Z,,0,1,,2409.5250000001397,response,ISIC_9174306.JPG,8,ISIC_0024244.JPG,ISIC_0024244.JPG,false,0,keypress(z),500,202081.30000000005,202080.90000000014,199654.709,199659.90000000014,199671.375,202088.407,8,400,50,,ISIC_9174306.JPG
break,html.Screen,4_49_1,2023-09-11T19:11:54.658Z,,0,,,10000.038,timeout,,,,,false,,,,212076.6000000001,212071.779,202071.741,202081.5,202088.407,212088.445,8,400,,,
break_continue,html.Screen,4_49_2,2023-09-11T19:11:56.661Z,,0,,,1980.1550000000861,response,,,,,false,continue,keypress(Space),,214079.19999999995,214068.6000000001,212071.779,212076.80000000005,212088.445,214088.365,8,400,,,
sequence,flow.Sequence,4_49,2023-09-11T19:11:56.661Z,,0,,,14397.225000000093,completion,,,,,false,,,,214079.40000000014,214068.6000000001,199654.709,199659.80000000005,199671.375,214088.365,8,400,,,
trial,html.Screen,4_50_0,2023-09-11T19:12:00.266Z,,0,2,,3595.935000000056,response,ISIC_9694867.JPG,8,ISIC_6447681.JPG,ISIC_9694867.JPG,false,1,keypress(m),500,217684.69999999995,217684.30000000005,214071.699,214079.5,214088.365,217688.221,8,400,1,,ISIC_6447681.JPG
break,html.Screen,4_50_1,2023-09-11T19:12:00.267Z,,0,,,NaN,,,,,,false,,,,217685.6000000001,217685.5,,217685,,217688.221,8,400,,,
break_continue,html.Screen,4_50_2,2023-09-11T19:12:00.267Z,,0,,,NaN,,,,,,false,,,,217686,217685.90000000014,,217685.80000000005,,217688.221,8,400,,,
sequence,flow.Sequence,4_50,2023-09-11T19:12:00.267Z,,0,,,3597.535000000149,completion,,,,,false,,,,217686.30000000005,217685.90000000014,214071.699,214079.40000000014,214088.365,217688.221,8,400,,,
trial,html.Screen,4_51_0,2023-09-11T19:12:03.630Z,,0,2,,3360.3790000001027,response,ISIC_0068106.JPG,9,ISIC_0032426.JPG,ISIC_0032426.JPG,false,0,keypress(z),500,221048.90000000014,221048.6000000001,217671.555,217686.40000000014,217688.221,221054.753,8,400,2,,ISIC_0068106.JPG
break,html.Screen,4_51_1,2023-09-11T19:12:03.631Z,,0,,,NaN,,,,,,false,,,,221049.69999999995,221049.6000000001,,221049.19999999995,,221054.753,8,400,,,
break_continue,html.Screen,4_51_2,2023-09-11T19:12:03.631Z,,0,,,NaN,,,,,,false,,,,221050,221049.90000000014,,221049.80000000005,,221054.753,8,400,,,
sequence,flow.Sequence,4_51,2023-09-11T19:12:03.631Z,,0,,,3361.6790000001492,completion,,,,,false,,,,221050.1000000001,221049.90000000014,217671.555,217686.30000000005,217688.221,221054.753,8,400,,,
trial,html.Screen,4_52_0,2023-09-11T19:12:06.413Z,,0,2,,2777.1470000001427,response,ISIC_0005028.JPG,8,ISIC_0029591.JPG,ISIC_0005028.JPG,false,1,keypress(m),500,223832.30000000005,223831.90000000014,221038.087,221050.19999999995,221054.753,223838.439,8,400,3,,ISIC_0029591.JPG
break,html.Screen,4_52_1,2023-09-11T19:12:06.414Z,,0,,,NaN,,,,,,false,,,,223833.30000000005,223833.1000000001,,223832.6000000001,,223838.439,8,400,,,
break_continue,html.Screen,4_52_2,2023-09-11T19:12:06.415Z,,0,,,NaN,,,,,,false,,,,223833.69999999995,223833.6000000001,,223833.5,,223838.439,8,400,,,
sequence,flow.Sequence,4_52,2023-09-11T19:12:06.415Z,,0,,,2778.847000000096,completion,,,,,false,,,,223834,223833.6000000001,221038.087,221050.19999999995,221054.753,223838.439,8,400,,,
trial,html.Screen,4_53_0,2023-09-11T19:12:09.028Z,,0,2,,2608.560999999987,response,ISIC_0011040.JPG,8,ISIC_0062456.JPG,ISIC_0011040.JPG,false,1,keypress(m),500,226447.40000000014,226447,223821.773,223834.1000000001,223838.439,226455.001,8,400,4,,ISIC_0062456.JPG
break,html.Screen,4_53_1,2023-09-11T19:12:09.029Z,,0,,,NaN,,,,,,false,,,,226448.40000000014,226448.19999999995,,226447.6000000001,,226455.001,8,400,,,
break_continue,html.Screen,4_53_2,2023-09-11T19:12:09.030Z,,0,,,NaN,,,,,,false,,,,226448.80000000005,226448.6000000001,,226448.5,,226455.001,8,400,,,
sequence,flow.Sequence,4_53,2023-09-11T19:12:09.030Z,,0,,,2610.16100000008,completion,,,,,false,,,,226448.90000000014,226448.6000000001,223821.773,223834.1000000001,223838.439,226455.001,8,400,,,
trial,html.Screen,4_54_0,2023-09-11T19:12:11.289Z,,0,2,,2252.198999999964,response,ISIC_0057180.JPG,7,ISIC_9876515.JPG,ISIC_9876515.JPG,false,0,keypress(z),500,228707.6000000001,228707.19999999995,226438.335,226449.1000000001,226455.001,228721.577,8,400,5,,ISIC_0057180.JPG
break,html.Screen,4_54_1,2023-09-11T19:12:11.290Z,,0,,,NaN,,,,,,false,,,,228708.6000000001,228708.40000000014,,228707.90000000014,,228721.577,8,400,,,
break_continue,html.Screen,4_54_2,2023-09-11T19:12:11.290Z,,0,,,NaN,,,,,,false,,,,228708.90000000014,228708.80000000005,,228708.6000000001,,228721.577,8,400,,,
sequence,flow.Sequence,4_54,2023-09-11T19:12:11.290Z,,0,,,2253.7990000000573,completion,,,,,false,,,,228709.1000000001,228708.80000000005,226438.335,226449,226455.001,228721.577,8,400,,,
trial,html.Screen,4_55_0,2023-09-11T19:12:14.160Z,,0,2,,2856.7230000000563,response,ISIC_0046917.JPG,6,ISIC_6268546.JPG,ISIC_0046917.JPG,false,1,keypress(m),500,231578.69999999995,231578.30000000005,228704.911,228709.30000000005,228721.577,231588.129,8,400,6,,ISIC_6268546.JPG
break,html.Screen,4_55_1,2023-09-11T19:12:14.161Z,,0,,,NaN,,,,,,false,,,,231579.69999999995,231579.5,,231579.1000000001,,231588.129,8,400,,,
break_continue,html.Screen,4_55_2,2023-09-11T19:12:14.161Z,,0,,,NaN,,,,,,false,,,,231580.1000000001,231580,,231579.90000000014,,231588.129,8,400,,,
sequence,flow.Sequence,4_55,2023-09-11T19:12:14.161Z,,0,,,2858.42300000001,completion,,,,,false,,,,231580.19999999995,231580,228704.911,228709.19999999995,228721.577,231588.129,8,400,,,
trial,html.Screen,4_56_0,2023-09-11T19:12:16.972Z,,0,2,,2802.971000000107,response,ISIC_0034076.JPG,7,ISIC_0523125.JPG,ISIC_0034076.JPG,false,1,keypress(m),500,234391.40000000014,234391.1000000001,231571.463,231580.40000000014,231588.129,234405.141,8,400,7,,ISIC_0523125.JPG
break,html.Screen,4_56_1,2023-09-11T19:12:16.973Z,,0,,,NaN,,,,,,false,,,,234392.30000000005,234392.1000000001,,234391.6000000001,,234405.141,8,400,,,
break_continue,html.Screen,4_56_2,2023-09-11T19:12:16.974Z,,0,,,NaN,,,,,,false,,,,234392.69999999995,234392.6000000001,,234392.40000000014,,234405.141,8,400,,,
sequence,flow.Sequence,4_56,2023-09-11T19:12:16.974Z,,0,,,2804.471000000107,completion,,,,,false,,,,234392.80000000005,234392.6000000001,231571.463,231580.30000000005,231588.129,234405.141,8,400,,,
trial,html.Screen,4_57_0,2023-09-11T19:12:20.387Z,,0,2,,3400.6590000000433,response,ISIC_6469202.JPG,7,ISIC_5578239.JPG,ISIC_5578239.JPG,false,0,keypress(z),500,237806.19999999995,237805.80000000005,234388.475,234393,234405.141,237821.671,8,400,8,,ISIC_6469202.JPG
break,html.Screen,4_57_1,2023-09-11T19:12:20.388Z,,0,,,NaN,,,,,,false,,,,237807.1000000001,237806.90000000014,,237806.40000000014,,237821.671,8,400,,,
break_continue,html.Screen,4_57_2,2023-09-11T19:12:20.388Z,,0,,,NaN,,,,,,false,,,,237807.6000000001,237807.40000000014,,237807.30000000005,,237821.671,8,400,,,
sequence,flow.Sequence,4_57,2023-09-11T19:12:20.389Z,,0,,,3402.2590000001364,completion,,,,,false,,,,237807.69999999995,237807.40000000014,234388.475,234393,234405.141,237821.671,8,400,,,
trial,html.Screen,4_58_0,2023-09-11T19:12:23.208Z,,0,2,,2804.828999999998,response,ISIC_0010797.JPG,9,ISIC_2532544.JPG,ISIC_2532544.JPG,false,0,keypress(z),500,240626.80000000005,240626.5,237805.005,237807.90000000014,237821.671,240638.225,8,400,9,,ISIC_0010797.JPG
break,html.Screen,4_58_1,2023-09-11T19:12:23.209Z,,0,,,NaN,,,,,,false,,,,240627.80000000005,240627.6000000001,,240627.19999999995,,240638.225,8,400,,,
break_continue,html.Screen,4_58_2,2023-09-11T19:12:23.209Z,,0,,,NaN,,,,,,false,,,,240628.19999999995,240628.1000000001,,240627.90000000014,,240638.225,8,400,,,
sequence,flow.Sequence,4_58,2023-09-11T19:12:23.209Z,,0,,,2806.429000000091,completion,,,,,false,,,,240628.40000000014,240628.1000000001,237805.005,237807.80000000005,237821.671,240638.225,8,400,,,
trial,html.Screen,4_59_0,2023-09-11T19:12:25.614Z,,0,2,,2394.774999999994,response,ISIC_7648726.JPG,9,ISIC_4326917.JPG,ISIC_4326917.JPG,false,0,keypress(z),500,243033.5,243033,240621.559,240628.5,240638.225,243038.129,8,400,10,,ISIC_7648726.JPG
break,html.Screen,4_59_1,2023-09-11T19:12:25.615Z,,0,,,NaN,,,,,,false,,,,243034.40000000014,243034.19999999995,,243033.80000000005,,243038.129,8,400,,,
break_continue,html.Screen,4_59_2,2023-09-11T19:12:25.616Z,,0,,,NaN,,,,,,false,,,,243034.80000000005,243034.69999999995,,243034.6000000001,,243038.129,8,400,,,
sequence,flow.Sequence,4_59,2023-09-11T19:12:25.616Z,,0,,,2396.4749999999476,completion,,,,,false,,,,243035.1000000001,243034.69999999995,240621.559,240628.40000000014,240638.225,243038.129,8,400,,,
trial,html.Screen,4_60_0,2023-09-11T19:12:29.189Z,,0,2,,3569.3710000000137,response,ISIC_7798358.JPG,8,ISIC_4064936.JPG,ISIC_7798358.JPG,false,1,keypress(m),500,246608,246607.5,243021.463,243035.19999999995,243038.129,246621.755,8,400,11,,ISIC_4064936.JPG
break,html.Screen,4_60_1,2023-09-11T19:12:29.190Z,,0,,,NaN,,,,,,false,,,,246608.90000000014,246608.69999999995,,246608.19999999995,,246621.755,8,400,,,
break_continue,html.Screen,4_60_2,2023-09-11T19:12:29.190Z,,0,,,NaN,,,,,,false,,,,246609.40000000014,246609.19999999995,,246609.1000000001,,246621.755,8,400,,,
sequence,flow.Sequence,4_60,2023-09-11T19:12:29.190Z,,0,,,3571.070999999967,completion,,,,,false,,,,246609.5,246609.19999999995,243021.463,243035.1000000001,243038.129,246621.755,8,400,,,
trial,html.Screen,4_61_0,2023-09-11T19:12:36.267Z,,0,2,,7063.944999999949,response,ISIC_0063447.JPG,7,ISIC_3655327.JPG,ISIC_0063447.JPG,false,1,keypress(m),500,253686.19999999995,253685.69999999995,246605.089,246609.6000000001,246621.755,253688.383,8,400,12,,ISIC_3655327.JPG
break,html.Screen,4_61_1,2023-09-11T19:12:36.268Z,,0,,,NaN,,,,,,false,,,,253687.1000000001,253686.90000000014,,253686.40000000014,,253688.383,8,400,,,
break_continue,html.Screen,4_61_2,2023-09-11T19:12:36.268Z,,0,,,NaN,,,,,,false,,,,253687.5,253687.30000000005,,253687.30000000005,,253688.383,8,400,,,
sequence,flow.Sequence,4_61,2023-09-11T19:12:36.268Z,,0,,,7065.545000000042,completion,,,,,false,,,,253687.6000000001,253687.30000000005,246605.089,246609.6000000001,246621.755,253688.383,8,400,,,
trial,html.Screen,4_62_0,2023-09-11T19:12:40.148Z,,0,2,,3878.7170000000915,response,ISIC_0032034.JPG,6,ISIC_9709101.JPG,ISIC_9709101.JPG,false,0,keypress(z),500,257567.5,257567.1000000001,253671.717,253687.80000000005,253688.383,257571.561,8,400,13,,ISIC_0032034.JPG
break,html.Screen,4_62_1,2023-09-11T19:12:40.149Z,,0,,,NaN,,,,,,false,,,,257568.5,257568.30000000005,,257567.80000000005,,257571.561,8,400,,,
break_continue,html.Screen,4_62_2,2023-09-11T19:12:40.149Z,,0,,,NaN,,,,,,false,,,,257568.90000000014,257568.80000000005,,257568.6000000001,,257571.561,8,400,,,
sequence,flow.Sequence,4_62,2023-09-11T19:12:40.150Z,,0,,,3880.417000000045,completion,,,,,false,,,,257569.1000000001,257568.80000000005,253671.717,253687.80000000005,253688.383,257571.561,8,400,,,
trial,html.Screen,4_63_0,2023-09-11T19:12:45.080Z,,0,2,,4927.73900000006,response,ISIC_0033800.JPG,7,ISIC_0000516.JPG,ISIC_0033800.JPG,false,1,keypress(m),500,262499.6000000001,262499.30000000005,257554.895,257569.19999999995,257571.561,262504.697,8,400,14,,ISIC_0000516.JPG
break,html.Screen,4_63_1,2023-09-11T19:12:45.081Z,,0,,,NaN,,,,,,false,,,,262500.69999999995,262500.40000000014,,262499.90000000014,,262504.697,8,400,,,
break_continue,html.Screen,4_63_2,2023-09-11T19:12:45.081Z,,0,,,NaN,,,,,,false,,,,262501,262500.90000000014,,262500.80000000005,,262504.697,8,400,,,
sequence,flow.Sequence,4_63,2023-09-11T19:12:45.082Z,,0,,,4929.339000000153,completion,,,,,false,,,,262501.19999999995,262500.90000000014,257554.895,257569.1000000001,257571.561,262504.697,8,400,,,
trial,html.Screen,4_64_0,2023-09-11T19:12:52.575Z,,0,2,,7489.403000000108,response,ISIC_0805941.JPG,8,ISIC_0055727.JPG,ISIC_0055727.JPG,false,0,keypress(z),500,269994.5,269994.1000000001,262488.031,262501.40000000014,262504.697,270005.068,8,400,15,,ISIC_0805941.JPG
break,html.Screen,4_64_1,2023-09-11T19:12:52.576Z,,0,,,NaN,,,,,,false,,,,269995.40000000014,269995.19999999995,,269994.69999999995,,270005.068,8,400,,,
break_continue,html.Screen,4_64_2,2023-09-11T19:12:52.576Z,,0,,,NaN,,,,,,false,,,,269995.69999999995,269995.6000000001,,269995.5,,270005.068,8,400,,,
sequence,flow.Sequence,4_64,2023-09-11T19:12:52.576Z,,0,,,7490.903000000108,completion,,,,,false,,,,269995.90000000014,269995.6000000001,262488.031,262501.30000000005,262504.697,270005.068,8,400,,,
trial,html.Screen,4_65_0,2023-09-11T19:12:58.924Z,,0,2,,6338.131999999925,response,ISIC_8851038.JPG,7,ISIC_0024516.JPG,ISIC_8851038.JPG,false,1,keypress(m),500,276343.6000000001,276343.19999999995,269988.402,269996,270005.068,276355.165,8,400,16,,ISIC_0024516.JPG
break,html.Screen,4_65_1,2023-09-11T19:12:58.925Z,,0,,,NaN,,,,,,false,,,,276344.5,276344.30000000005,,276343.90000000014,,276355.165,8,400,,,
break_continue,html.Screen,4_65_2,2023-09-11T19:12:58.925Z,,0,,,NaN,,,,,,false,,,,276344.90000000014,276344.69999999995,,276344.6000000001,,276355.165,8,400,,,
sequence,flow.Sequence,4_65,2023-09-11T19:12:58.925Z,,0,,,6339.631999999925,completion,,,,,false,,,,276345,276344.69999999995,269988.402,269995.90000000014,270005.068,276355.165,8,400,,,
trial,html.Screen,4_66_0,2023-09-11T19:13:02.018Z,,0,2,,3082.2350000001607,response,ISIC_4789377.JPG,8,ISIC_0000024.JPG,ISIC_0000024.JPG,false,0,keypress(z),500,279437.69999999995,279437.40000000014,276338.499,276345.1000000001,276355.165,279455.041,8,400,17,,ISIC_4789377.JPG
break,html.Screen,4_66_1,2023-09-11T19:13:02.019Z,,0,,,NaN,,,,,,false,,,,279438.6000000001,279438.40000000014,,279437.90000000014,,279455.041,8,400,,,
break_continue,html.Screen,4_66_2,2023-09-11T19:13:02.019Z,,0,,,NaN,,,,,,false,,,,279438.90000000014,279438.80000000005,,279438.69999999995,,279455.041,8,400,,,
sequence,flow.Sequence,4_66,2023-09-11T19:13:02.019Z,,0,,,3083.6350000000675,completion,,,,,false,,,,279439.1000000001,279438.80000000005,276338.499,276345.1000000001,276355.165,279455.041,8,400,,,
trial,html.Screen,4_67_0,2023-09-11T19:13:07.035Z,,0,2,,4999.359000000113,response,ISIC_7898061.JPG,7,ISIC_0068107.JPG,ISIC_7898061.JPG,false,1,keypress(m),500,284454.69999999995,284454.40000000014,279438.375,279439.30000000005,279455.041,284471.507,8,400,18,,ISIC_0068107.JPG
break,html.Screen,4_67_1,2023-09-11T19:13:07.036Z,,0,,,NaN,,,,,,false,,,,284455.6000000001,284455.40000000014,,284454.90000000014,,284471.507,8,400,,,
break_continue,html.Screen,4_67_2,2023-09-11T19:13:07.036Z,,0,,,NaN,,,,,,false,,,,284455.90000000014,284455.80000000005,,284455.69999999995,,284471.507,8,400,,,
sequence,flow.Sequence,4_67,2023-09-11T19:13:07.036Z,,0,,,5000.75900000002,completion,,,,,false,,,,284456.1000000001,284455.80000000005,279438.375,279439.19999999995,279455.041,284471.507,8,400,,,
trial,html.Screen,4_68_0,2023-09-11T19:13:10.177Z,,0,2,,3125.7930000000633,response,ISIC_2124213.JPG,8,ISIC_0014920.JPG,ISIC_2124213.JPG,false,1,keypress(m),500,287597.6000000001,287597.30000000005,284454.841,284456.19999999995,284471.507,287605.323,8,400,19,,ISIC_0014920.JPG
break,html.Screen,4_68_1,2023-09-11T19:13:10.178Z,,0,,,NaN,,,,,,false,,,,287598.5,287598.30000000005,,287597.90000000014,,287605.323,8,400,,,
break_continue,html.Screen,4_68_2,2023-09-11T19:13:10.179Z,,0,,,NaN,,,,,,false,,,,287599,287598.80000000005,,287598.69999999995,,287605.323,8,400,,,
sequence,flow.Sequence,4_68,2023-09-11T19:13:10.179Z,,0,,,3127.2930000000633,completion,,,,,false,,,,287599.1000000001,287598.80000000005,284454.841,284456.19999999995,284471.507,287605.323,8,400,,,
trial,html.Screen,4_69_0,2023-09-11T19:13:12.949Z,,0,2,,2763.8769999999786,response,ISIC_0026915.JPG,7,ISIC_0538042.JPG,ISIC_0026915.JPG,false,1,keypress(m),500,290369.5,290369.19999999995,287588.657,287599.19999999995,287605.323,290371.879,8,400,20,,ISIC_0538042.JPG
break,html.Screen,4_69_1,2023-09-11T19:13:12.950Z,,0,,,NaN,,,,,,false,,,,290370.5,290370.19999999995,,290369.69999999995,,290371.879,8,400,,,
break_continue,html.Screen,4_69_2,2023-09-11T19:13:12.951Z,,0,,,NaN,,,,,,false,,,,290370.80000000005,290370.69999999995,,290370.5,,290371.879,8,400,,,
sequence,flow.Sequence,4_69,2023-09-11T19:13:12.951Z,,0,,,2765.3769999999786,completion,,,,,false,,,,290371,290370.69999999995,287588.657,287599.1000000001,287605.323,290371.879,8,400,,,
trial,html.Screen,4_70_0,2023-09-11T19:13:15.612Z,,0,2,,2660.0210000001243,response,ISIC_7351443.JPG,8,ISIC_0072976.JPG,ISIC_7351443.JPG,false,1,keypress(m),500,293032.30000000005,293031.90000000014,290355.213,290371.1000000001,290371.879,293038.439,8,400,21,,ISIC_0072976.JPG
break,html.Screen,4_70_1,2023-09-11T19:13:15.613Z,,0,,,NaN,,,,,,false,,,,293033.19999999995,293033,,293032.5,,293038.439,8,400,,,
break_continue,html.Screen,4_70_2,2023-09-11T19:13:15.613Z,,0,,,NaN,,,,,,false,,,,293033.5,293033.5,,293033.40000000014,,293038.439,8,400,,,
sequence,flow.Sequence,4_70,2023-09-11T19:13:15.614Z,,0,,,2661.6209999999846,completion,,,,,false,,,,293033.69999999995,293033.5,290355.213,290371.1000000001,290371.879,293038.439,8,400,,,
trial,html.Screen,4_71_0,2023-09-11T19:13:18.466Z,,0,2,,2847.66100000008,response,ISIC_0033500.JPG,8,ISIC_2743014.JPG,ISIC_0033500.JPG,false,1,keypress(m),500,295886.40000000014,295886.1000000001,293021.773,293033.90000000014,293038.439,295888.325,8,400,22,,ISIC_2743014.JPG
break,html.Screen,4_71_1,2023-09-11T19:13:18.467Z,,0,,,NaN,,,,,,false,,,,295887.40000000014,295887.1000000001,,295886.69999999995,,295888.325,8,400,,,
break_continue,html.Screen,4_71_2,2023-09-11T19:13:18.467Z,,0,,,NaN,,,,,,false,,,,295887.69999999995,295887.69999999995,,295887.5,,295888.325,8,400,,,
sequence,flow.Sequence,4_71,2023-09-11T19:13:18.468Z,,0,,,2849.2609999999404,completion,,,,,false,,,,295887.90000000014,295887.69999999995,293021.773,293033.80000000005,293038.439,295888.325,8,400,,,
trial,html.Screen,4_72_0,2023-09-11T19:13:21.289Z,,0,2,,2820.975000000035,response,ISIC_7663476.JPG,8,ISIC_0064247.JPG,ISIC_0064247.JPG,false,0,keypress(z),500,298709.6000000001,298709.30000000005,295871.659,295888,295888.325,298722.002,8,400,23,,ISIC_7663476.JPG
break,html.Screen,4_72_1,2023-09-11T19:13:21.290Z,,0,,,NaN,,,,,,false,,,,298710.6000000001,298710.30000000005,,298709.90000000014,,298722.002,8,400,,,
break_continue,html.Screen,4_72_2,2023-09-11T19:13:21.291Z,,0,,,NaN,,,,,,false,,,,298711,298710.80000000005,,298710.69999999995,,298722.002,8,400,,,
sequence,flow.Sequence,4_72,2023-09-11T19:13:21.291Z,,0,,,2822.475000000035,completion,,,,,false,,,,298711.19999999995,298710.80000000005,295871.659,295887.90000000014,295888.325,298722.002,8,400,,,
trial,html.Screen,4_73_0,2023-09-11T19:13:23.662Z,,0,2,,2360.0980000001146,response,ISIC_8357679.JPG,7,ISIC_7215208.JPG,ISIC_7215208.JPG,false,0,keypress(z),500,301082.5,301082.1000000001,298705.336,298711.30000000005,298722.002,301088.574,8,400,24,,ISIC_8357679.JPG
break,html.Screen,4_73_1,2023-09-11T19:13:23.663Z,,0,,,NaN,,,,,,false,,,,301083.40000000014,301083.19999999995,,301082.6000000001,,301088.574,8,400,,,
break_continue,html.Screen,4_73_2,2023-09-11T19:13:23.663Z,,0,,,NaN,,,,,,false,,,,301083.69999999995,301083.5,,301083.40000000014,,301088.574,8,400,,,
sequence,flow.Sequence,4_73,2023-09-11T19:13:23.663Z,,0,,,2361.4980000000214,completion,,,,,false,,,,301083.80000000005,301083.5,298705.336,298711.30000000005,298722.002,301088.574,8,400,,,
trial,html.Screen,4_74_0,2023-09-11T19:13:26.021Z,,0,2,,2352.526000000071,response,ISIC_2467623.JPG,8,ISIC_0000394.JPG,ISIC_2467623.JPG,false,1,keypress(m),500,303441.40000000014,303441.1000000001,301071.908,301084,301088.574,303455.146,8,400,25,,ISIC_0000394.JPG
break,html.Screen,4_74_1,2023-09-11T19:13:26.022Z,,0,,,NaN,,,,,,false,,,,303442.40000000014,303442.1000000001,,303441.6000000001,,303455.146,8,400,,,
break_continue,html.Screen,4_74_2,2023-09-11T19:13:26.022Z,,0,,,NaN,,,,,,false,,,,303442.6000000001,303442.6000000001,,303442.5,,303455.146,8,400,,,
sequence,flow.Sequence,4_74,2023-09-11T19:13:26.022Z,,0,,,2354.026000000071,completion,,,,,false,,,,303442.90000000014,303442.6000000001,301071.908,301083.90000000014,301088.574,303455.146,8,400,,,
trial,html.Screen,4_75_0,2023-09-11T19:13:29.116Z,,0,2,,3080.754000000132,response,ISIC_3313701.JPG,8,ISIC_0060586.JPG,ISIC_0060586.JPG,false,0,keypress(z),500,306536.19999999995,306535.90000000014,303438.48,303443,303455.146,306538.356,8,400,26,,ISIC_3313701.JPG
break,html.Screen,4_75_1,2023-09-11T19:13:29.117Z,,0,,,NaN,,,,,,false,,,,306537.19999999995,306537,,306536.5,,306538.356,8,400,,,
break_continue,html.Screen,4_75_2,2023-09-11T19:13:29.117Z,,0,,,NaN,,,,,,false,,,,306537.6000000001,306537.5,,306537.30000000005,,306538.356,8,400,,,
sequence,flow.Sequence,4_75,2023-09-11T19:13:29.117Z,,0,,,3082.353999999992,completion,,,,,false,,,,306537.69999999995,306537.5,303438.48,303442.90000000014,303455.146,306538.356,8,400,,,
trial,html.Screen,4_76_0,2023-09-11T19:13:31.746Z,,0,2,,2627.544000000111,response,ISIC_4071825.JPG,8,ISIC_3916064.JPG,ISIC_3916064.JPG,false,0,keypress(z),500,309166.19999999995,309165.90000000014,306521.69,306537.90000000014,306538.356,309172.091,8,400,27,,ISIC_4071825.JPG
break,html.Screen,4_76_1,2023-09-11T19:13:31.747Z,,0,,,NaN,,,,,,false,,,,309167.19999999995,309166.90000000014,,309166.5,,309172.091,8,400,,,
break_continue,html.Screen,4_76_2,2023-09-11T19:13:31.747Z,,0,,,NaN,,,,,,false,,,,309167.5,309167.40000000014,,309167.30000000005,,309172.091,8,400,,,
sequence,flow.Sequence,4_76,2023-09-11T19:13:31.747Z,,0,,,2629.044000000111,completion,,,,,false,,,,309167.69999999995,309167.40000000014,306521.69,306537.80000000005,306538.356,309172.091,8,400,,,
trial,html.Screen,4_77_0,2023-09-11T19:13:38.259Z,,0,2,,6507.6089999999385,response,ISIC_0000145.JPG,8,ISIC_5718805.JPG,ISIC_0000145.JPG,false,1,keypress(m),500,315680,315679.69999999995,309155.425,309167.80000000005,309172.091,315688.497,8,400,28,,ISIC_5718805.JPG
break,html.Screen,4_77_1,2023-09-11T19:13:38.260Z,,0,,,NaN,,,,,,false,,,,315681,315680.69999999995,,315680.30000000005,,315688.497,8,400,,,
break_continue,html.Screen,4_77_2,2023-09-11T19:13:38.261Z,,0,,,NaN,,,,,,false,,,,315681.30000000005,315681.19999999995,,315681,,315688.497,8,400,,,
sequence,flow.Sequence,4_77,2023-09-11T19:13:38.261Z,,0,,,6509.1089999999385,completion,,,,,false,,,,315681.40000000014,315681.19999999995,309155.425,309167.80000000005,309172.091,315688.497,8,400,,,
trial,html.Screen,4_78_0,2023-09-11T19:13:40.346Z,,0,2,,2078.103000000119,response,ISIC_0929517.JPG,8,ISIC_0011694.JPG,ISIC_0011694.JPG,false,0,keypress(z),500,317767,317766.6000000001,315671.831,315681.5,315688.497,317771.747,8,400,29,,ISIC_0929517.JPG
break,html.Screen,4_78_1,2023-09-11T19:13:40.347Z,,0,,,NaN,,,,,,false,,,,317767.90000000014,317767.69999999995,,317767.19999999995,,317771.747,8,400,,,
break_continue,html.Screen,4_78_2,2023-09-11T19:13:40.348Z,,0,,,NaN,,,,,,false,,,,317768.30000000005,317768.19999999995,,317768,,317771.747,8,400,,,
sequence,flow.Sequence,4_78,2023-09-11T19:13:40.348Z,,0,,,2079.7029999999795,completion,,,,,false,,,,317768.40000000014,317768.19999999995,315671.831,315681.5,315688.497,317771.747,8,400,,,
trial,html.Screen,4_79_0,2023-09-11T19:13:42.603Z,,0,2,,2251.653000000166,response,ISIC_9407690.JPG,4,ISIC_5207050.JPG,ISIC_5207050.JPG,false,0,keypress(z),500,320023.80000000005,320023.40000000014,317755.081,317768.5,317771.747,320038.751,8,400,30,,ISIC_9407690.JPG
break,html.Screen,4_79_1,2023-09-11T19:13:42.604Z,,0,,,NaN,,,,,,false,,,,320024.80000000005,320024.6000000001,,320024.1000000001,,320038.751,8,400,,,
break_continue,html.Screen,4_79_2,2023-09-11T19:13:42.604Z,,0,,,NaN,,,,,,false,,,,320025.19999999995,320025,,320025,,320038.751,8,400,,,
sequence,flow.Sequence,4_79,2023-09-11T19:13:42.605Z,,0,,,2253.253000000026,completion,,,,,false,,,,320025.30000000005,320025,317755.081,317768.5,317771.747,320038.751,8,400,,,
trial,html.Screen,4_80_0,2023-09-11T19:13:45.516Z,,0,2,,2897.7490000000107,response,ISIC_4372519.JPG,8,ISIC_5966190.JPG,ISIC_5966190.JPG,false,0,keypress(z),500,322936.90000000014,322936.5,320022.085,320025.40000000014,320038.751,322938.635,8,400,31,,ISIC_4372519.JPG
break,html.Screen,4_80_1,2023-09-11T19:13:45.517Z,,0,,,NaN,,,,,,false,,,,322937.90000000014,322937.6000000001,,322937.19999999995,,322938.635,8,400,,,
break_continue,html.Screen,4_80_2,2023-09-11T19:13:45.518Z,,0,,,NaN,,,,,,false,,,,322938.40000000014,322938.30000000005,,322938.1000000001,,322938.635,8,400,,,
sequence,flow.Sequence,4_80,2023-09-11T19:13:45.518Z,,0,,,2899.5490000000573,completion,,,,,false,,,,322938.6000000001,322938.30000000005,320022.085,320025.40000000014,320038.751,322938.635,8,400,,,
trial,html.Screen,4_81_0,2023-09-11T19:13:48.097Z,,0,2,,2578.465000000084,response,ISIC_0014173.JPG,6,ISIC_0060535.JPG,ISIC_0014173.JPG,false,1,keypress(m),500,325517.5,325517.1000000001,322921.969,322938.69999999995,322938.635,325521.865,8,400,32,,ISIC_0060535.JPG
break,html.Screen,4_81_1,2023-09-11T19:13:48.098Z,,0,,,NaN,,,,,,false,,,,325518.40000000014,325518.19999999995,,325517.80000000005,,325521.865,8,400,,,
break_continue,html.Screen,4_81_2,2023-09-11T19:13:48.098Z,,0,,,NaN,,,,,,false,,,,325518.80000000005,325518.69999999995,,325518.6000000001,,325521.865,8,400,,,
sequence,flow.Sequence,4_81,2023-09-11T19:13:48.098Z,,0,,,2580.064999999944,completion,,,,,false,,,,325519,325518.69999999995,322921.969,322938.69999999995,322938.635,325521.865,8,400,,,
trial,html.Screen,4_82_0,2023-09-11T19:13:51.268Z,,0,2,,3166.1350000000093,response,ISIC_0010664.JPG,8,ISIC_8733345.JPG,ISIC_0010664.JPG,false,1,keypress(m),500,328688.40000000014,328688,325505.199,325519.1000000001,325521.865,328705.531,8,400,33,,ISIC_8733345.JPG
break,html.Screen,4_82_1,2023-09-11T19:13:51.269Z,,0,,,NaN,,,,,,false,,,,328689.5,328689.19999999995,,328688.69999999995,,328705.531,8,400,,,
break_continue,html.Screen,4_82_2,2023-09-11T19:13:51.269Z,,0,,,NaN,,,,,,false,,,,328689.80000000005,328689.69999999995,,328689.6000000001,,328705.531,8,400,,,
sequence,flow.Sequence,4_82,2023-09-11T19:13:51.269Z,,0,,,3167.8349999999627,completion,,,,,false,,,,328690,328689.69999999995,325505.199,325519.1000000001,325521.865,328705.531,8,400,,,
trial,html.Screen,4_83_0,2023-09-11T19:13:54.115Z,,0,2,,2830.4689999999828,response,ISIC_1373468.JPG,8,ISIC_0071778.JPG,ISIC_1373468.JPG,false,1,keypress(m),500,331536.30000000005,331536,328688.865,328690.1000000001,328705.531,331538.751,8,400,34,,ISIC_0071778.JPG
break,html.Screen,4_83_1,2023-09-11T19:13:54.116Z,,0,,,NaN,,,,,,false,,,,331537.40000000014,331537.1000000001,,331536.69999999995,,331538.751,8,400,,,
break_continue,html.Screen,4_83_2,2023-09-11T19:13:54.117Z,,0,,,NaN,,,,,,false,,,,331537.69999999995,331537.6000000001,,331537.40000000014,,331538.751,8,400,,,
sequence,flow.Sequence,4_83,2023-09-11T19:13:54.117Z,,0,,,2832.069000000076,completion,,,,,false,,,,331537.90000000014,331537.6000000001,328688.865,328690.1000000001,328705.531,331538.751,8,400,,,
trial,html.Screen,4_84_0,2023-09-11T19:13:59.272Z,,0,2,,5154.049000000057,response,ISIC_3922580.JPG,7,ISIC_0025897.JPG,ISIC_0025897.JPG,false,0,keypress(z),500,336693.19999999995,336692.80000000005,331522.085,331538.1000000001,331538.751,336705.211,8,400,35,,ISIC_3922580.JPG
break,html.Screen,4_84_1,2023-09-11T19:13:59.273Z,,0,,,NaN,,,,,,false,,,,336694.1000000001,336693.90000000014,,336693.40000000014,,336705.211,8,400,,,
break_continue,html.Screen,4_84_2,2023-09-11T19:13:59.273Z,,0,,,NaN,,,,,,false,,,,336694.5,336694.40000000014,,336694.30000000005,,336705.211,8,400,,,
sequence,flow.Sequence,4_84,2023-09-11T19:13:59.274Z,,0,,,5155.64900000015,completion,,,,,false,,,,336694.69999999995,336694.40000000014,331522.085,331538,331538.751,336705.211,8,400,,,
trial,html.Screen,4_85_0,2023-09-11T19:14:03.868Z,,0,2,,4583.389000000083,response,ISIC_0064307.JPG,7,ISIC_7580408.JPG,ISIC_0064307.JPG,false,1,keypress(m),500,341288.90000000014,341288.6000000001,336688.545,336694.80000000005,336705.211,341305.459,8,400,36,,ISIC_7580408.JPG
break,html.Screen,4_85_1,2023-09-11T19:14:03.869Z,,0,,,NaN,,,,,,false,,,,341289.90000000014,341289.6000000001,,341289.19999999995,,341305.459,8,400,,,
break_continue,html.Screen,4_85_2,2023-09-11T19:14:03.869Z,,0,,,NaN,,,,,,false,,,,341290.30000000005,341290.1000000001,,341290,,341305.459,8,400,,,
sequence,flow.Sequence,4_85,2023-09-11T19:14:03.869Z,,0,,,4584.889000000083,completion,,,,,false,,,,341290.40000000014,341290.1000000001,336688.545,336694.80000000005,336705.211,341305.459,8,400,,,
trial,html.Screen,4_86_0,2023-09-11T19:14:08.881Z,,0,2,,4996.14100000012,response,ISIC_8790198.JPG,8,ISIC_4393521.JPG,ISIC_8790198.JPG,false,1,keypress(m),500,346301.90000000014,346301.6000000001,341288.793,341290.6000000001,341305.459,346305.259,8,400,37,,ISIC_4393521.JPG
break,html.Screen,4_86_1,2023-09-11T19:14:08.882Z,,0,,,NaN,,,,,,false,,,,346302.90000000014,346302.6000000001,,346302.19999999995,,346305.259,8,400,,,
break_continue,html.Screen,4_86_2,2023-09-11T19:14:08.882Z,,0,,,NaN,,,,,,false,,,,346303.19999999995,346303.1000000001,,346303,,346305.259,8,400,,,
sequence,flow.Sequence,4_86,2023-09-11T19:14:08.882Z,,0,,,4997.64100000012,completion,,,,,false,,,,346303.5,346303.1000000001,341288.793,341290.5,341305.459,346305.259,8,400,,,
trial,html.Screen,4_87_0,2023-09-11T19:14:11.977Z,,0,2,,3092.9409999999334,response,ISIC_0066203.JPG,5,ISIC_3446357.JPG,ISIC_3446357.JPG,false,0,keypress(z),500,349398.6000000001,349398.19999999995,346288.593,346303.6000000001,346305.259,349405.625,8,400,38,,ISIC_0066203.JPG
break,html.Screen,4_87_1,2023-09-11T19:14:11.978Z,,0,,,NaN,,,,,,false,,,,349399.6000000001,349399.30000000005,,349398.90000000014,,349405.625,8,400,,,
break_continue,html.Screen,4_87_2,2023-09-11T19:14:11.979Z,,0,,,NaN,,,,,,false,,,,349399.90000000014,349399.80000000005,,349399.69999999995,,349405.625,8,400,,,
sequence,flow.Sequence,4_87,2023-09-11T19:14:11.979Z,,0,,,3094.5410000000265,completion,,,,,false,,,,349400.1000000001,349399.80000000005,346288.593,346303.5,346305.259,349405.625,8,400,,,
trial,html.Screen,4_88_0,2023-09-11T19:14:14.765Z,,0,2,,2780.5749999999534,response,ISIC_0061734.JPG,5,ISIC_9134453.JPG,ISIC_9134453.JPG,false,0,keypress(z),500,352186.6000000001,352186.19999999995,349388.959,349400.19999999995,349405.625,352188.847,8,400,39,,ISIC_0061734.JPG
break,html.Screen,4_88_1,2023-09-11T19:14:14.766Z,,0,,,NaN,,,,,,false,,,,352187.40000000014,352187.30000000005,,352186.80000000005,,352188.847,8,400,,,
break_continue,html.Screen,4_88_2,2023-09-11T19:14:14.766Z,,0,,,NaN,,,,,,false,,,,352187.80000000005,352187.69999999995,,352187.6000000001,,352188.847,8,400,,,
sequence,flow.Sequence,4_88,2023-09-11T19:14:14.767Z,,0,,,2782.0749999999534,completion,,,,,false,,,,352188,352187.69999999995,349388.959,349400.19999999995,349405.625,352188.847,8,400,,,
trial,html.Screen,4_89_0,2023-09-11T19:14:18.482Z,,0,2,,3714.652999999991,response,ISIC_9219692.JPG,8,ISIC_0054941.JPG,ISIC_9219692.JPG,false,1,keypress(m),500,355903.80000000005,355903.5,352172.181,352188.1000000001,352188.847,355905.365,8,400,40,,ISIC_0054941.JPG
break,html.Screen,4_89_1,2023-09-11T19:14:18.483Z,,0,,,NaN,,,,,,false,,,,355904.80000000005,355904.6000000001,,355904.1000000001,,355905.365,8,400,,,
break_continue,html.Screen,4_89_2,2023-09-11T19:14:18.484Z,,0,,,NaN,,,,,,false,,,,355905.19999999995,355905.1000000001,,355904.90000000014,,355905.365,8,400,,,
sequence,flow.Sequence,4_89,2023-09-11T19:14:18.484Z,,0,,,3716.2530000000843,completion,,,,,false,,,,355905.30000000005,355905.1000000001,352172.181,352188.1000000001,352188.847,355905.365,8,400,,,
trial,html.Screen,4_90_0,2023-09-11T19:14:21.106Z,,0,2,,2622.1350000000093,response,ISIC_0067840.JPG,7,ISIC_0010271.JPG,ISIC_0067840.JPG,false,1,keypress(m),500,358527.80000000005,358527.5,355888.699,355905.5,355905.365,358538.593,8,400,41,,ISIC_0010271.JPG
break,html.Screen,4_90_1,2023-09-11T19:14:21.107Z,,0,,,NaN,,,,,,false,,,,358528.69999999995,358528.40000000014,,358528.1000000001,,358538.593,8,400,,,
break_continue,html.Screen,4_90_2,2023-09-11T19:14:21.108Z,,0,,,NaN,,,,,,false,,,,358529.1000000001,358528.90000000014,,358528.80000000005,,358538.593,8,400,,,
sequence,flow.Sequence,4_90,2023-09-11T19:14:21.108Z,,0,,,2623.535000000149,completion,,,,,false,,,,358529.19999999995,358528.90000000014,355888.699,355905.40000000014,355905.365,358538.593,8,400,,,
trial,html.Screen,4_91_0,2023-09-11T19:14:25.111Z,,0,2,,3993.5070000000997,response,ISIC_0066429.JPG,7,ISIC_0012160.JPG,ISIC_0066429.JPG,false,1,keypress(m),500,362532.5,362532.1000000001,358521.927,358529.40000000014,358538.593,362538.852,8,400,42,,ISIC_0012160.JPG
break,html.Screen,4_91_1,2023-09-11T19:14:25.112Z,,0,,,NaN,,,,,,false,,,,362533.40000000014,362533.19999999995,,362532.69999999995,,362538.852,8,400,,,
break_continue,html.Screen,4_91_2,2023-09-11T19:14:25.112Z,,0,,,NaN,,,,,,false,,,,362533.69999999995,362533.6000000001,,362533.6000000001,,362538.852,8,400,,,
sequence,flow.Sequence,4_91,2023-09-11T19:14:25.112Z,,0,,,3995.0070000000997,completion,,,,,false,,,,362533.90000000014,362533.6000000001,358521.927,358529.30000000005,358538.593,362538.852,8,400,,,
trial,html.Screen,4_92_0,2023-09-11T19:14:27.645Z,,0,2,,2527.6479999999865,response,ISIC_0024427.JPG,8,ISIC_0046224.JPG,ISIC_0046224.JPG,false,0,keypress(z),500,365066.90000000014,365066.5,362522.186,362534,362538.852,365072.084,8,400,43,,ISIC_0024427.JPG
break,html.Screen,4_92_1,2023-09-11T19:14:27.646Z,,0,,,NaN,,,,,,false,,,,365067.90000000014,365067.69999999995,,365067.30000000005,,365072.084,8,400,,,
break_continue,html.Screen,4_92_2,2023-09-11T19:14:27.647Z,,0,,,NaN,,,,,,false,,,,365068.30000000005,365068.1000000001,,365068,,365072.084,8,400,,,
sequence,flow.Sequence,4_92,2023-09-11T19:14:27.647Z,,0,,,2529.2480000000796,completion,,,,,false,,,,365068.40000000014,365068.1000000001,362522.186,362534,362538.852,365072.084,8,400,,,
trial,html.Screen,4_93_0,2023-09-11T19:14:31.205Z,,0,2,,3553.8160000001662,response,ISIC_0028773.JPG,7,ISIC_0033655.JPG,ISIC_0028773.JPG,false,1,keypress(m),500,368626.30000000005,368625.90000000014,365055.418,365068.5,365072.084,368638.608,8,400,44,,ISIC_0033655.JPG
break,html.Screen,4_93_1,2023-09-11T19:14:31.205Z,,0,,,NaN,,,,,,false,,,,368627.19999999995,368627,,368626.6000000001,,368638.608,8,400,,,
break_continue,html.Screen,4_93_2,2023-09-11T19:14:31.206Z,,0,,,NaN,,,,,,false,,,,368627.6000000001,368627.40000000014,,368627.30000000005,,368638.608,8,400,,,
sequence,flow.Sequence,4_93,2023-09-11T19:14:31.206Z,,0,,,3555.3160000001662,completion,,,,,false,,,,368627.69999999995,368627.40000000014,365055.418,365068.5,365072.084,368638.608,8,400,,,
trial,html.Screen,4_94_0,2023-09-11T19:14:37.025Z,,0,2,,5808.292000000132,response,ISIC_2051564.JPG,8,ISIC_0001602.JPG,ISIC_2051564.JPG,false,1,keypress(m),500,374447.30000000005,374446.90000000014,368621.942,368627.80000000005,368638.608,374455.529,8,400,45,,ISIC_0001602.JPG
break,html.Screen,4_94_1,2023-09-11T19:14:37.026Z,,0,,,NaN,,,,,,false,,,,374448.19999999995,374448.1000000001,,374447.6000000001,,374455.529,8,400,,,
break_continue,html.Screen,4_94_2,2023-09-11T19:14:37.027Z,,0,,,NaN,,,,,,false,,,,374448.6000000001,374448.40000000014,,374448.40000000014,,374455.529,8,400,,,
sequence,flow.Sequence,4_94,2023-09-11T19:14:37.027Z,,0,,,5809.792000000132,completion,,,,,false,,,,374448.80000000005,374448.40000000014,368621.942,368627.80000000005,368638.608,374455.529,8,400,,,
trial,html.Screen,4_95_0,2023-09-11T19:14:40.339Z,,0,2,,3304.771000000066,response,ISIC_7138875.JPG,8,ISIC_4699066.JPG,ISIC_7138875.JPG,false,1,keypress(m),500,377760.6000000001,377760.30000000005,374438.863,374448.90000000014,374455.529,377772.063,8,400,46,,ISIC_4699066.JPG
break,html.Screen,4_95_1,2023-09-11T19:14:40.340Z,,0,,,NaN,,,,,,false,,,,377761.5,377761.40000000014,,377761,,377772.063,8,400,,,
break_continue,html.Screen,4_95_2,2023-09-11T19:14:40.340Z,,0,,,NaN,,,,,,false,,,,377762,377761.80000000005,,377761.69999999995,,377772.063,8,400,,,
sequence,flow.Sequence,4_95,2023-09-11T19:14:40.340Z,,0,,,3306.271000000066,completion,,,,,false,,,,377762,377761.80000000005,374438.863,374448.80000000005,374455.529,377772.063,8,400,,,
trial,html.Screen,4_96_0,2023-09-11T19:14:43.545Z,,0,2,,3195.0370000000694,response,ISIC_8479104.JPG,5,ISIC_0011269.JPG,ISIC_8479104.JPG,false,1,keypress(m),500,380967.40000000014,380967.1000000001,377755.397,377762.19999999995,377772.063,380972.403,8,400,47,,ISIC_0011269.JPG
break,html.Screen,4_96_1,2023-09-11T19:14:43.546Z,,0,,,NaN,,,,,,false,,,,380968.30000000005,380968.1000000001,,380967.6000000001,,380972.403,8,400,,,
break_continue,html.Screen,4_96_2,2023-09-11T19:14:43.547Z,,0,,,NaN,,,,,,false,,,,380968.69999999995,380968.5,,380968.5,,380972.403,8,400,,,
sequence,flow.Sequence,4_96,2023-09-11T19:14:43.547Z,,0,,,3196.4369999999763,completion,,,,,false,,,,380968.80000000005,380968.5,377755.397,377762.1000000001,377772.063,380972.403,8,400,,,
trial,html.Screen,4_97_0,2023-09-11T19:14:48.144Z,,0,2,,4592.997000000149,response,ISIC_5415761.JPG,8,ISIC_9852341.JPG,ISIC_5415761.JPG,false,1,keypress(m),500,385565.69999999995,385565.40000000014,380955.737,380969,380972.403,385572.219,8,400,48,,ISIC_9852341.JPG
break,html.Screen,4_97_1,2023-09-11T19:14:48.144Z,,0,,,NaN,,,,,,false,,,,385566.30000000005,385566.1000000001,,385565.90000000014,,385572.219,8,400,,,
break_continue,html.Screen,4_97_2,2023-09-11T19:14:48.145Z,,0,,,NaN,,,,,,false,,,,385567.30000000005,385567.30000000005,,385567.19999999995,,385572.219,8,400,,,
sequence,flow.Sequence,4_97,2023-09-11T19:14:48.145Z,,0,,,4594.897000000055,completion,,,,,false,,,,385567.40000000014,385567.30000000005,380955.737,380968.90000000014,380972.403,385572.219,8,400,,,
trial,html.Screen,4_98_0,2023-09-11T19:14:50.551Z,,0,2,,2400.181000000157,response,ISIC_8820668.JPG,4,ISIC_0897526.JPG,ISIC_8820668.JPG,false,1,keypress(m),500,387972.80000000005,387972.40000000014,385555.553,385567.5,385572.219,387988.789,8,400,49,,ISIC_0897526.JPG
break,html.Screen,4_98_1,2023-09-11T19:14:50.552Z,,0,,,NaN,,,,,,false,,,,387973.69999999995,387973.6000000001,,387973,,387988.789,8,400,,,
break_continue,html.Screen,4_98_2,2023-09-11T19:14:50.552Z,,0,,,NaN,,,,,,false,,,,387974.1000000001,387974,,387973.90000000014,,387988.789,8,400,,,
sequence,flow.Sequence,4_98,2023-09-11T19:14:50.552Z,,0,,,2401.7810000000172,completion,,,,,false,,,,387974.19999999995,387974,385555.553,385567.40000000014,385572.219,387988.789,8,400,,,
trial,html.Screen,4_99_0,2023-09-11T19:14:53.133Z,,0,2,,2566.011000000057,response,ISIC_9948815.JPG,7,ISIC_0024235.JPG,ISIC_9948815.JPG,false,1,keypress(m),500,390555.19999999995,390554.80000000005,387972.123,387974.40000000014,387988.789,390572.019,8,400,50,,ISIC_0024235.JPG
break,html.Screen,4_99_1,2023-09-11T19:15:03.138Z,,0,,,10000.044000000053,timeout,,,,,false,,,,400560.6000000001,400555.397,390555.353,390555.5,390572.019,400572.063,8,400,,,
break_continue,html.Screen,4_99_2,2023-09-11T19:15:07.291Z,,0,,,4127.337000000116,response,,,,,false,continue,keypress(Space),,404713.1000000001,404699.40000000014,400555.397,400560.80000000005,400572.063,404722.336,8,400,,,
sequence,flow.Sequence,4_99,2023-09-11T19:15:07.291Z,,0,,,16710.61100000015,completion,,,,,false,,,,404713.30000000005,404699.40000000014,387972.123,387974.30000000005,387988.789,404722.336,8,400,,,
trial,html.Screen,4_100_0,2023-09-11T19:15:09.641Z,,0,3,,2341.1639999999898,response,ISIC_0026360.JPG,8,ISIC_0033812.JPG,ISIC_0033812.JPG,false,0,keypress(z),500,407063.80000000005,407063.5,404705.67,404713.30000000005,404722.336,407072.242,8,400,1,,ISIC_0026360.JPG
break,html.Screen,4_100_1,2023-09-11T19:15:09.642Z,,0,,,NaN,,,,,,false,,,,407064.80000000005,407064.6000000001,,407064.19999999995,,407072.242,8,400,,,
break_continue,html.Screen,4_100_2,2023-09-11T19:15:09.643Z,,0,,,NaN,,,,,,false,,,,407065.1000000001,407065,,407064.90000000014,,407072.242,8,400,,,
sequence,flow.Sequence,4_100,2023-09-11T19:15:09.643Z,,0,,,2342.6639999999898,completion,,,,,false,,,,407065.30000000005,407065,404705.67,404713.30000000005,404722.336,407072.242,8,400,,,
trial,html.Screen,4_101_0,2023-09-11T19:15:18.205Z,,0,3,,8555.457999999926,response,ISIC_9052500.JPG,8,ISIC_5755836.JPG,ISIC_9052500.JPG,false,1,keypress(m),500,415628.1000000001,415627.69999999995,407055.576,407065.5,407072.242,415639.178,8,400,2,,ISIC_5755836.JPG
break,html.Screen,4_101_1,2023-09-11T19:15:18.206Z,,0,,,NaN,,,,,,false,,,,415629,415628.80000000005,,415628.30000000005,,415639.178,8,400,,,
break_continue,html.Screen,4_101_2,2023-09-11T19:15:18.207Z,,0,,,NaN,,,,,,false,,,,415629.40000000014,415629.19999999995,,415629.1000000001,,415639.178,8,400,,,
sequence,flow.Sequence,4_101,2023-09-11T19:15:18.207Z,,0,,,8556.957999999926,completion,,,,,false,,,,415629.5,415629.19999999995,407055.576,407065.30000000005,407072.242,415639.178,8,400,,,
trial,html.Screen,4_102_0,2023-09-11T19:15:23.337Z,,0,3,,5119.722000000125,response,ISIC_0001104.JPG,8,ISIC_0066109.JPG,ISIC_0001104.JPG,false,1,keypress(m),500,420759.19999999995,420758.90000000014,415622.512,415629.6000000001,415639.178,420772.306,8,400,3,,ISIC_0066109.JPG
break,html.Screen,4_102_1,2023-09-11T19:15:23.337Z,,0,,,NaN,,,,,,false,,,,420760.1000000001,420759.90000000014,,420759.40000000014,,420772.306,8,400,,,
break_continue,html.Screen,4_102_2,2023-09-11T19:15:23.338Z,,0,,,NaN,,,,,,false,,,,420760.40000000014,420760.30000000005,,420760.19999999995,,420772.306,8,400,,,
sequence,flow.Sequence,4_102,2023-09-11T19:15:23.338Z,,0,,,5121.122000000032,completion,,,,,false,,,,420760.6000000001,420760.30000000005,415622.512,415629.6000000001,415639.178,420772.306,8,400,,,
trial,html.Screen,4_103_0,2023-09-11T19:15:32.511Z,,0,3,,9160.893999999971,response,ISIC_1132788.JPG,7,ISIC_0207349.JPG,ISIC_1132788.JPG,false,1,keypress(m),500,429933.6000000001,429933.19999999995,420755.64,420760.80000000005,420772.306,429938.94,8,400,4,,ISIC_0207349.JPG
break,html.Screen,4_103_1,2023-09-11T19:15:32.512Z,,0,,,NaN,,,,,,false,,,,429934.6000000001,429934.30000000005,,429933.80000000005,,429938.94,8,400,,,
break_continue,html.Screen,4_103_2,2023-09-11T19:15:32.512Z,,0,,,NaN,,,,,,false,,,,429934.90000000014,429934.80000000005,,429934.6000000001,,429938.94,8,400,,,
sequence,flow.Sequence,4_103,2023-09-11T19:15:32.512Z,,0,,,9162.494000000064,completion,,,,,false,,,,429935.1000000001,429934.80000000005,420755.64,420760.80000000005,420772.306,429938.94,8,400,,,
trial,html.Screen,4_104_0,2023-09-11T19:15:36.296Z,,0,3,,3779.660000000091,response,ISIC_8691327.JPG,8,ISIC_6712342.JPG,ISIC_8691327.JPG,false,1,keypress(m),500,433719,433718.6000000001,429922.274,429935.30000000005,429938.94,433722.122,8,400,5,,ISIC_6712342.JPG
break,html.Screen,4_104_1,2023-09-11T19:15:36.297Z,,0,,,NaN,,,,,,false,,,,433720,433719.69999999995,,433719.19999999995,,433722.122,8,400,,,
break_continue,html.Screen,4_104_2,2023-09-11T19:15:36.297Z,,0,,,NaN,,,,,,false,,,,433720.30000000005,433720.1000000001,,433720.1000000001,,433722.122,8,400,,,
sequence,flow.Sequence,4_104,2023-09-11T19:15:36.297Z,,0,,,3781.160000000091,completion,,,,,false,,,,433720.40000000014,433720.1000000001,429922.274,429935.19999999995,429938.94,433722.122,8,400,,,
trial,html.Screen,4_105_0,2023-09-11T19:15:38.715Z,,0,3,,2415.978000000119,response,ISIC_8140072.JPG,7,ISIC_2784664.JPG,ISIC_8140072.JPG,false,1,keypress(m),500,436138.5,436138.1000000001,433705.456,433720.5,433722.122,436139.275,8,400,6,,ISIC_2784664.JPG
break,html.Screen,4_105_1,2023-09-11T19:15:38.716Z,,0,,,NaN,,,,,,false,,,,436139.5,436139.19999999995,,436138.69999999995,,436139.275,8,400,,,
break_continue,html.Screen,4_105_2,2023-09-11T19:15:38.717Z,,0,,,NaN,,,,,,false,,,,436139.80000000005,436139.69999999995,,436139.5,,436139.275,8,400,,,
sequence,flow.Sequence,4_105,2023-09-11T19:15:38.717Z,,0,,,2417.5779999999795,completion,,,,,false,,,,436139.90000000014,436139.69999999995,433705.456,433720.5,433722.122,436139.275,8,400,,,
trial,html.Screen,4_106_0,2023-09-11T19:15:41.256Z,,0,3,,2539.7249999999767,response,ISIC_0012678.JPG,7,ISIC_4071825.JPG,ISIC_0012678.JPG,false,1,keypress(m),500,438679.40000000014,438679,436122.609,436140.1000000001,436139.275,438689.173,8,400,7,,ISIC_4071825.JPG
break,html.Screen,4_106_1,2023-09-11T19:15:41.257Z,,0,,,NaN,,,,,,false,,,,438680.19999999995,438680,,438679.6000000001,,438689.173,8,400,,,
break_continue,html.Screen,4_106_2,2023-09-11T19:15:41.258Z,,0,,,NaN,,,,,,false,,,,438680.6000000001,438680.5,,438680.40000000014,,438689.173,8,400,,,
sequence,flow.Sequence,4_106,2023-09-11T19:15:41.258Z,,0,,,2541.2249999999767,completion,,,,,false,,,,438680.80000000005,438680.5,436122.609,436140,436139.275,438689.173,8,400,,,
trial,html.Screen,4_107_0,2023-09-11T19:15:46.521Z,,0,3,,5254.72700000013,response,ISIC_6556622.JPG,7,ISIC_0001149.JPG,ISIC_0001149.JPG,false,0,keypress(z),500,443944.19999999995,443943.90000000014,438672.507,438680.90000000014,438689.173,443955.629,8,400,8,,ISIC_6556622.JPG
break,html.Screen,4_107_1,2023-09-11T19:15:46.522Z,,0,,,NaN,,,,,,false,,,,443945.1000000001,443944.90000000014,,443944.5,,443955.629,8,400,,,
break_continue,html.Screen,4_107_2,2023-09-11T19:15:46.522Z,,0,,,NaN,,,,,,false,,,,443945.5,443945.30000000005,,443945.19999999995,,443955.629,8,400,,,
sequence,flow.Sequence,4_107,2023-09-11T19:15:46.522Z,,0,,,5256.127000000037,completion,,,,,false,,,,443945.6000000001,443945.30000000005,438672.507,438680.90000000014,438689.173,443955.629,8,400,,,
trial,html.Screen,4_108_0,2023-09-11T19:15:51.743Z,,0,3,,5210.471000000078,response,ISIC_2937407.JPG,8,ISIC_0025169.JPG,ISIC_2937407.JPG,false,1,keypress(m),500,449166.5,449166.1000000001,443938.963,443945.69999999995,443955.629,449172.515,8,400,9,,ISIC_0025169.JPG
break,html.Screen,4_108_1,2023-09-11T19:15:51.744Z,,0,,,NaN,,,,,,false,,,,449167.40000000014,449167.19999999995,,449166.80000000005,,449172.515,8,400,,,
break_continue,html.Screen,4_108_2,2023-09-11T19:15:51.745Z,,0,,,NaN,,,,,,false,,,,449167.80000000005,449167.6000000001,,449167.6000000001,,449172.515,8,400,,,
sequence,flow.Sequence,4_108,2023-09-11T19:15:51.745Z,,0,,,5211.971000000078,completion,,,,,false,,,,449167.90000000014,449167.6000000001,443938.963,443945.69999999995,443955.629,449172.515,8,400,,,
trial,html.Screen,4_109_0,2023-09-11T19:15:56.643Z,,0,3,,4893.785000000033,response,ISIC_0032780.JPG,7,ISIC_7139908.JPG,ISIC_0032780.JPG,false,1,keypress(m),500,454066.69999999995,454066.30000000005,449155.849,449168.1000000001,449172.515,454072.319,8,400,10,,ISIC_7139908.JPG
break,html.Screen,4_109_1,2023-09-11T19:15:56.644Z,,0,,,NaN,,,,,,false,,,,454067.6000000001,454067.40000000014,,454067,,454072.319,8,400,,,
break_continue,html.Screen,4_109_2,2023-09-11T19:15:56.645Z,,0,,,NaN,,,,,,false,,,,454068,454067.80000000005,,454067.69999999995,,454072.319,8,400,,,
sequence,flow.Sequence,4_109,2023-09-11T19:15:56.645Z,,0,,,4895.285000000033,completion,,,,,false,,,,454068.1000000001,454067.80000000005,449155.849,449168.1000000001,449172.515,454072.319,8,400,,,
trial,html.Screen,4_110_0,2023-09-11T19:15:59.385Z,,0,3,,2736.1809999999823,response,ISIC_7758102.JPG,7,ISIC_0031649.JPG,ISIC_7758102.JPG,false,1,keypress(m),500,456808.80000000005,456808.5,454055.653,454068.30000000005,454072.319,456822.65,8,400,11,,ISIC_0031649.JPG
break,html.Screen,4_110_1,2023-09-11T19:15:59.386Z,,0,,,NaN,,,,,,false,,,,456809.80000000005,456809.6000000001,,456809.1000000001,,456822.65,8,400,,,
break_continue,html.Screen,4_110_2,2023-09-11T19:15:59.387Z,,0,,,NaN,,,,,,false,,,,456810.1000000001,456810,,456809.90000000014,,456822.65,8,400,,,
sequence,flow.Sequence,4_110,2023-09-11T19:15:59.387Z,,0,,,2737.6809999999823,completion,,,,,false,,,,456810.30000000005,456810,454055.653,454068.19999999995,454072.319,456822.65,8,400,,,
trial,html.Screen,4_111_0,2023-09-11T19:16:01.952Z,,0,3,,2552.1500000000233,response,ISIC_0000520.JPG,8,ISIC_0013719.JPG,ISIC_0000520.JPG,false,1,keypress(m),500,459375.1000000001,459374.80000000005,456805.984,456810.5,456822.65,459389.214,8,400,12,,ISIC_0013719.JPG
break,html.Screen,4_111_1,2023-09-11T19:16:01.953Z,,0,,,NaN,,,,,,false,,,,459376,459375.80000000005,,459375.40000000014,,459389.214,8,400,,,
break_continue,html.Screen,4_111_2,2023-09-11T19:16:01.953Z,,0,,,NaN,,,,,,false,,,,459376.40000000014,459376.30000000005,,459376.1000000001,,459389.214,8,400,,,
sequence,flow.Sequence,4_111,2023-09-11T19:16:01.953Z,,0,,,2553.6500000000233,completion,,,,,false,,,,459376.5,459376.30000000005,456805.984,456810.40000000014,456822.65,459389.214,8,400,,,
trial,html.Screen,4_112_0,2023-09-11T19:16:05.076Z,,0,3,,3109.6860000001616,response,ISIC_0066240.JPG,7,ISIC_0070285.JPG,ISIC_0070285.JPG,false,0,keypress(z),500,462499.30000000005,462498.90000000014,459372.548,459376.6000000001,459389.214,462505.756,8,400,13,,ISIC_0066240.JPG
break,html.Screen,4_112_1,2023-09-11T19:16:05.077Z,,0,,,NaN,,,,,,false,,,,462500.19999999995,462500.1000000001,,462499.6000000001,,462505.756,8,400,,,
break_continue,html.Screen,4_112_2,2023-09-11T19:16:05.077Z,,0,,,NaN,,,,,,false,,,,462500.69999999995,462500.5,,462500.40000000014,,462505.756,8,400,,,
sequence,flow.Sequence,4_112,2023-09-11T19:16:05.077Z,,0,,,3111.286000000022,completion,,,,,false,,,,462500.80000000005,462500.5,459372.548,459376.6000000001,459389.214,462505.756,8,400,,,
trial,html.Screen,4_113_0,2023-09-11T19:16:09.675Z,,0,3,,4592.144000000146,response,ISIC_0031363.JPG,8,ISIC_6381197.JPG,ISIC_0031363.JPG,false,1,keypress(m),500,467098.30000000005,467097.90000000014,462489.09,462501,462505.756,467106.046,8,400,14,,ISIC_6381197.JPG
break,html.Screen,4_113_1,2023-09-11T19:16:09.676Z,,0,,,NaN,,,,,,false,,,,467099.19999999995,467098.90000000014,,467098.5,,467106.046,8,400,,,
break_continue,html.Screen,4_113_2,2023-09-11T19:16:09.676Z,,0,,,NaN,,,,,,false,,,,467099.5,467099.40000000014,,467099.30000000005,,467106.046,8,400,,,
sequence,flow.Sequence,4_113,2023-09-11T19:16:09.676Z,,0,,,4593.644000000146,completion,,,,,false,,,,467099.69999999995,467099.40000000014,462489.09,462500.90000000014,462505.756,467106.046,8,400,,,
trial,html.Screen,4_114_0,2023-09-11T19:16:14.529Z,,0,3,,4846.05400000012,response,ISIC_0011497.JPG,7,ISIC_0012066.JPG,ISIC_0011497.JPG,false,1,keypress(m),500,471952.5,471952.1000000001,467089.38,467099.80000000005,467106.046,471955.852,8,400,15,,ISIC_0012066.JPG
break,html.Screen,4_114_1,2023-09-11T19:16:14.530Z,,0,,,NaN,,,,,,false,,,,471953.5,471953.30000000005,,471952.90000000014,,471955.852,8,400,,,
break_continue,html.Screen,4_114_2,2023-09-11T19:16:14.530Z,,0,,,NaN,,,,,,false,,,,471953.90000000014,471953.80000000005,,471953.6000000001,,471955.852,8,400,,,
sequence,flow.Sequence,4_114,2023-09-11T19:16:14.530Z,,0,,,4847.754000000074,completion,,,,,false,,,,471954,471953.80000000005,467089.38,467099.69999999995,467106.046,471955.852,8,400,,,
trial,html.Screen,4_115_0,2023-09-11T19:16:18.069Z,,0,3,,3536.6479999999865,response,ISIC_0033393.JPG,6,ISIC_0011348.JPG,ISIC_0033393.JPG,false,1,keypress(m),500,475493,475492.5,471939.186,471954.19999999995,471955.852,475505.71,8,400,16,,ISIC_0011348.JPG
break,html.Screen,4_115_1,2023-09-11T19:16:18.070Z,,0,,,NaN,,,,,,false,,,,475494.1000000001,475493.90000000014,,475493.30000000005,,475505.71,8,400,,,
break_continue,html.Screen,4_115_2,2023-09-11T19:16:18.071Z,,0,,,NaN,,,,,,false,,,,475494.40000000014,475494.30000000005,,475494.30000000005,,475505.71,8,400,,,
sequence,flow.Sequence,4_115,2023-09-11T19:16:18.071Z,,0,,,3538.448000000033,completion,,,,,false,,,,475494.6000000001,475494.30000000005,471939.186,471954.1000000001,471955.852,475505.71,8,400,,,
trial,html.Screen,4_116_0,2023-09-11T19:16:21.673Z,,0,3,,3590.6900000001187,response,ISIC_8048162.JPG,6,ISIC_0011753.JPG,ISIC_8048162.JPG,false,1,keypress(m),500,479096.80000000005,479096.40000000014,475489.044,475494.80000000005,475505.71,479106.004,8,400,17,,ISIC_0011753.JPG
break,html.Screen,4_116_1,2023-09-11T19:16:21.674Z,,0,,,NaN,,,,,,false,,,,479097.90000000014,479097.6000000001,,479097.1000000001,,479106.004,8,400,,,
break_continue,html.Screen,4_116_2,2023-09-11T19:16:21.674Z,,0,,,NaN,,,,,,false,,,,479098.19999999995,479098,,479098,,479106.004,8,400,,,
sequence,flow.Sequence,4_116,2023-09-11T19:16:21.675Z,,0,,,3592.289999999979,completion,,,,,false,,,,479098.40000000014,479098,475489.044,475494.80000000005,475505.71,479106.004,8,400,,,
trial,html.Screen,4_117_0,2023-09-11T19:16:24.687Z,,0,3,,3004.796000000031,response,ISIC_0068168.JPG,8,ISIC_7320371.JPG,ISIC_7320371.JPG,false,0,keypress(z),500,482111.30000000005,482110.80000000005,479089.338,479098.6000000001,479106.004,482122.55,8,400,18,,ISIC_0068168.JPG
break,html.Screen,4_117_1,2023-09-11T19:16:24.688Z,,0,,,NaN,,,,,,false,,,,482112.19999999995,482112,,482111.5,,482122.55,8,400,,,
break_continue,html.Screen,4_117_2,2023-09-11T19:16:24.689Z,,0,,,NaN,,,,,,false,,,,482112.6000000001,482112.5,,482112.40000000014,,482122.55,8,400,,,
sequence,flow.Sequence,4_117,2023-09-11T19:16:24.689Z,,0,,,3006.4959999999846,completion,,,,,false,,,,482112.69999999995,482112.5,479089.338,479098.40000000014,479106.004,482122.55,8,400,,,
trial,html.Screen,4_118_0,2023-09-11T19:16:27.120Z,,0,3,,2421.550000000105,response,ISIC_9161898.JPG,7,ISIC_1135213.JPG,ISIC_9161898.JPG,false,1,keypress(m),500,484544.5,484544.1000000001,482105.884,482112.90000000014,482122.55,484555.786,8,400,19,,ISIC_1135213.JPG
break,html.Screen,4_118_1,2023-09-11T19:16:27.121Z,,0,,,NaN,,,,,,false,,,,484545.40000000014,484545.30000000005,,484544.80000000005,,484555.786,8,400,,,
break_continue,html.Screen,4_118_2,2023-09-11T19:16:27.122Z,,0,,,NaN,,,,,,false,,,,484545.90000000014,484545.69999999995,,484545.6000000001,,484555.786,8,400,,,
sequence,flow.Sequence,4_118,2023-09-11T19:16:27.122Z,,0,,,2423.149999999965,completion,,,,,false,,,,484546,484545.69999999995,482105.884,482112.80000000005,482122.55,484555.786,8,400,,,
trial,html.Screen,4_119_0,2023-09-11T19:16:29.733Z,,0,3,,2600.713999999978,response,ISIC_3152541.JPG,8,ISIC_0013184.JPG,ISIC_3152541.JPG,false,1,keypress(m),500,487156.80000000005,487156.5,484539.12,484546.1000000001,484555.786,487172.348,8,400,20,,ISIC_0013184.JPG
break,html.Screen,4_119_1,2023-09-11T19:16:29.734Z,,0,,,NaN,,,,,,false,,,,487157.80000000005,487157.6000000001,,487157.19999999995,,487172.348,8,400,,,
break_continue,html.Screen,4_119_2,2023-09-11T19:16:29.734Z,,0,,,NaN,,,,,,false,,,,487158.19999999995,487158,,487157.90000000014,,487172.348,8,400,,,
sequence,flow.Sequence,4_119,2023-09-11T19:16:29.734Z,,0,,,2602.213999999978,completion,,,,,false,,,,487158.30000000005,487158,484539.12,484546.1000000001,484555.786,487172.348,8,400,,,
trial,html.Screen,4_120_0,2023-09-11T19:16:32.890Z,,0,3,,3141.752000000095,response,ISIC_5952650.JPG,8,ISIC_0053854.JPG,ISIC_5952650.JPG,false,1,keypress(m),500,490314.5,490314.1000000001,487155.682,487158.5,487172.348,490322.689,8,400,21,,ISIC_0053854.JPG
break,html.Screen,4_120_1,2023-09-11T19:16:32.891Z,,0,,,NaN,,,,,,false,,,,490315.40000000014,490315.19999999995,,490314.69999999995,,490322.689,8,400,,,
break_continue,html.Screen,4_120_2,2023-09-11T19:16:32.892Z,,0,,,NaN,,,,,,false,,,,490315.80000000005,490315.69999999995,,490315.6000000001,,490322.689,8,400,,,
sequence,flow.Sequence,4_120,2023-09-11T19:16:32.892Z,,0,,,3143.3519999999553,completion,,,,,false,,,,490315.90000000014,490315.69999999995,487155.682,487158.40000000014,487172.348,490322.689,8,400,,,
trial,html.Screen,4_121_0,2023-09-11T19:16:38.887Z,,0,3,,5988.310999999987,response,ISIC_2431690.JPG,8,ISIC_0024296.JPG,ISIC_0024296.JPG,false,0,keypress(z),500,496311.40000000014,496311,490306.023,490316.1000000001,490322.689,496322.449,8,400,22,,ISIC_2431690.JPG
break,html.Screen,4_121_1,2023-09-11T19:16:38.888Z,,0,,,NaN,,,,,,false,,,,496312,496311.80000000005,,496311.5,,496322.449,8,400,,,
break_continue,html.Screen,4_121_2,2023-09-11T19:16:38.888Z,,0,,,NaN,,,,,,false,,,,496312.30000000005,496312.19999999995,,496312.1000000001,,496322.449,8,400,,,
sequence,flow.Sequence,4_121,2023-09-11T19:16:38.888Z,,0,,,5989.51099999994,completion,,,,,false,,,,496312.30000000005,496312.19999999995,490306.023,490316.1000000001,490322.689,496322.449,8,400,,,
trial,html.Screen,4_122_0,2023-09-11T19:16:43.197Z,,0,3,,4298.750999999931,response,ISIC_5971574.JPG,8,ISIC_0066262.JPG,ISIC_5971574.JPG,false,1,keypress(m),500,500621.6000000001,500621.19999999995,496305.783,496312.5,496322.449,500622.676,8,400,23,,ISIC_0066262.JPG
break,html.Screen,4_122_1,2023-09-11T19:16:43.198Z,,0,,,NaN,,,,,,false,,,,500622.6000000001,500622.40000000014,,500621.90000000014,,500622.676,8,400,,,
break_continue,html.Screen,4_122_2,2023-09-11T19:16:43.199Z,,0,,,NaN,,,,,,false,,,,500622.90000000014,500622.80000000005,,500622.69999999995,,500622.676,8,400,,,
sequence,flow.Sequence,4_122,2023-09-11T19:16:43.199Z,,0,,,4300.351000000024,completion,,,,,false,,,,500623.1000000001,500622.80000000005,496305.783,496312.40000000014,496322.449,500622.676,8,400,,,
trial,html.Screen,4_123_0,2023-09-11T19:16:46.625Z,,0,3,,3425.8240000000224,response,ISIC_0011288.JPG,7,ISIC_0056017.JPG,ISIC_0011288.JPG,false,1,keypress(m),500,504048.90000000014,504048.5,500606.01,500623.30000000005,500622.676,504055.872,8,400,24,,ISIC_0056017.JPG
break,html.Screen,4_123_1,2023-09-11T19:16:46.625Z,,0,,,NaN,,,,,,false,,,,504049.80000000005,504049.6000000001,,504049.19999999995,,504055.872,8,400,,,
break_continue,html.Screen,4_123_2,2023-09-11T19:16:46.626Z,,0,,,NaN,,,,,,false,,,,504050.19999999995,504050.1000000001,,504049.90000000014,,504055.872,8,400,,,
sequence,flow.Sequence,4_123,2023-09-11T19:16:46.626Z,,0,,,3427.4240000001155,completion,,,,,false,,,,504050.40000000014,504050.1000000001,500606.01,500623.19999999995,500622.676,504055.872,8,400,,,
trial,html.Screen,4_124_0,2023-09-11T19:16:50.680Z,,0,3,,4047.728000000119,response,ISIC_4253346.JPG,8,ISIC_4876193.JPG,ISIC_4876193.JPG,false,0,keypress(z),500,508104.1000000001,508103.6000000001,504039.206,504050.5,504055.872,508106.197,8,400,25,,ISIC_4253346.JPG
break,html.Screen,4_124_1,2023-09-11T19:16:50.681Z,,0,,,NaN,,,,,,false,,,,508105,508104.80000000005,,508104.30000000005,,508106.197,8,400,,,
break_continue,html.Screen,4_124_2,2023-09-11T19:16:50.681Z,,0,,,NaN,,,,,,false,,,,508105.40000000014,508105.19999999995,,508105.1000000001,,508106.197,8,400,,,
sequence,flow.Sequence,4_124,2023-09-11T19:16:50.681Z,,0,,,4049.3279999999795,completion,,,,,false,,,,508105.5,508105.19999999995,504039.206,504050.5,504055.872,508106.197,8,400,,,
trial,html.Screen,4_125_0,2023-09-11T19:16:53.016Z,,0,3,,2334.103000000061,response,ISIC_9323095.JPG,7,ISIC_0032790.JPG,ISIC_0032790.JPG,false,0,keypress(z),500,510440.69999999995,510440.30000000005,508089.531,508105.69999999995,508106.197,510456.103,8,400,26,,ISIC_9323095.JPG
break,html.Screen,4_125_1,2023-09-11T19:16:53.017Z,,0,,,NaN,,,,,,false,,,,510441.69999999995,510441.5,,510441,,510456.103,8,400,,,
