sender,sender_type,sender_id,timestamp,meta,,blockNo,condition,duration,ended_on,img_left,img_reveal,img_right,loser,practice,response,response_action,selection_duration,time_commit,time_end,time_render,time_run,time_show,time_switch,total_blocks,total_trials,trialNo,url,winner
informed_consent,html.Screen,0,2023-11-02T15:06:46.673Z,"{""labjs_version"":""20.2.4"",""labjs_build"":{""flavor"":""production"",""commit"":""f5b4a49f956347addd546a832a3327688c2c0fef""},""location"":""https://run.pavlovia.org/MurrayBennett/melanoma-2afc/?participant=66911&platform=sona"",""userAgent"":""Mozilla/5.0 (Windows NT 10.0; Win64; x64) AppleWebKit/537.36 (KHTML, like Gecko) Chrome/118.0.0.0 Safari/537.36 Edg/118.0.2088.76"",""platform"":""Win32"",""language"":""en-US"",""locale"":""en-US"",""timeZone"":""America/Chicago"",""timezoneOffset"":300,""screen_width"":1536,""screen_height"":864,""scroll_width"":722,""scroll_height"":644,""window_innerWidth"":722,""window_innerHeight"":692,""devicePixelRatio"":1.25}",,,,2454.081000000003,response,,,,,,consent,click button,,10633,10628.300000000003,8157.596,2629.9000000000087,8174.219,10640.873,,,,"{""participant"":""66911"",""platform"":""sona""}",
Welcome,html.Screen,1,2023-11-02T15:06:47.595Z,,,,colourful,911.2270000000062,response,,,,,,continue,click button,,11555.5,11552.100000000006,10624.028,10633.300000000003,10640.873,11557.393,,,,,
trial,html.Screen,2_0_0,2023-11-02T15:06:51.165Z,,0,0,,3568.407000000003,response,ISIC_0025593.JPG,,ISIC_0063388.JPG,ISIC_0025593.JPG,true,1,keypress(m),500,15125.900000000009,15125.800000000003,11544.773,11555.600000000006,11557.393,15140.469,1,6,1,,ISIC_0063388.JPG
sequence,flow.Sequence,2_0,2023-11-02T15:06:51.166Z,,0,,,3568.407000000003,completion,,,,,true,,,,15126.100000000006,15125.800000000003,11544.773,11555.600000000006,11557.393,15140.469,1,6,,,
trial,html.Screen,2_1_0,2023-11-02T15:06:54.656Z,,0,0,,3475.8310000000038,response,ISIC_0028178.JPG,,ISIC_1309015.JPG,ISIC_0028178.JPG,true,1,keypress(m),500,18616.300000000003,18616.300000000003,15123.875,15126.100000000006,15140.469,18623.565,1,6,2,,ISIC_1309015.JPG
sequence,flow.Sequence,2_1,2023-11-02T15:06:54.656Z,,0,,,3475.8310000000038,completion,,,,,true,,,,18616.70000000001,18616.300000000003,15123.875,15126.100000000006,15140.469,18623.565,1,6,,,
trial,html.Screen,2_2_0,2023-11-02T15:06:59.397Z,,0,0,,4733.235000000004,response,ISIC_3314853.JPG,,ISIC_0031128.JPG,ISIC_0031128.JPG,true,0,keypress(z),500,23357,23356.800000000003,18606.904,18616.70000000001,18623.565,23373.268,1,6,3,,ISIC_3314853.JPG
sequence,flow.Sequence,2_2,2023-11-02T15:06:59.397Z,,0,,,4733.235000000004,completion,,,,,true,,,,23357.300000000003,23356.800000000003,18606.904,18616.70000000001,18623.565,23373.268,1,6,,,
trial,html.Screen,2_3_0,2023-11-02T15:07:03.257Z,,0,0,,3844.332000000006,response,ISIC_8980141.JPG,,ISIC_0031612.JPG,ISIC_8980141.JPG,true,1,keypress(m),500,27217.899999999994,27217.600000000006,23356.673,23357.40000000001,23373.268,27223,1,6,4,,ISIC_0031612.JPG
sequence,flow.Sequence,2_3,2023-11-02T15:07:03.258Z,,0,,,3844.332000000006,completion,,,,,true,,,,27218.20000000001,27217.600000000006,23356.673,23357.300000000003,23373.268,27223,1,6,,,
trial,html.Screen,2_4_0,2023-11-02T15:07:06.637Z,,0,0,,3374.399999999994,response,ISIC_1197737.JPG,,ISIC_9721604.JPG,ISIC_1197737.JPG,true,1,keypress(m),500,30597.600000000006,30597.399999999994,27206.372,27218.399999999994,27223,30606.184,1,6,5,,ISIC_9721604.JPG
sequence,flow.Sequence,2_4,2023-11-02T15:07:06.637Z,,0,,,3374.399999999994,completion,,,,,true,,,,30597.899999999994,30597.399999999994,27206.372,27218.399999999994,27223,30606.184,1,6,,,
trial,html.Screen,2_5_0,2023-11-02T15:07:11.013Z,,0,0,,4367.116000000016,response,ISIC_0025346.JPG,,ISIC_0010681.JPG,ISIC_0025346.JPG,true,1,keypress(m),500,34973.600000000006,34973.30000000002,30589.467,30598.100000000006,30606.184,34989.18,1,6,6,,ISIC_0010681.JPG
sequence,flow.Sequence,2_5,2023-11-02T15:07:11.014Z,,0,,,4367.116000000016,completion,,,,,true,,,,34974.100000000006,34973.30000000002,30589.467,30598.100000000006,30606.184,34989.18,1,6,,,
loop,flow.Loop,2,2023-11-02T15:07:11.014Z,,,,,23415.907000000017,completion,,,,,true,,,,34974.20000000001,34973.30000000002,11544.773,11555.600000000006,11557.393,34989.18,1,6,,,
exp_instructions,html.Screen,3,2023-11-02T15:07:20.479Z,,,,,9449.020000000011,response,,,,,,continue,keypress(Space),,44439.100000000006,44438.20000000001,34972.545,34974.20000000001,34989.18,44455.419,,,,,
trial,html.Screen,4_0_0,2023-11-02T15:07:26.441Z,,0,1,,5946.28100000001,response,ISIC_0033365.JPG,5,ISIC_0032377.JPG,ISIC_0032377.JPG,false,0,keypress(z),500,50401.80000000002,50401.70000000001,44438.741,44439.600000000006,44455.419,50404.932,8,400,1,,ISIC_0033365.JPG
break,html.Screen,4_0_1,2023-11-02T15:07:26.442Z,,0,,,NaN,,,,,,false,,,,50402.5,50402.30000000002,,50401.899999999994,,50404.932,8,400,,,
break_continue,html.Screen,4_0_2,2023-11-02T15:07:26.442Z,,0,,,NaN,,,,,,false,,,,50402.600000000006,50402.600000000006,,50402.5,,50404.932,8,400,,,
sequence,flow.Sequence,4_0,2023-11-02T15:07:26.442Z,,0,,,5947.181000000004,completion,,,,,false,,,,50402.70000000001,50402.600000000006,44438.741,44439.600000000006,44455.419,50404.932,8,400,,,
trial,html.Screen,4_1_0,2023-11-02T15:07:31.069Z,,0,1,,4624.067999999999,response,ISIC_5231145.JPG,8,ISIC_6486856.JPG,ISIC_6486856.JPG,false,0,keypress(z),500,55029.100000000006,55029,50388.242,50402.70000000001,50404.932,55037.889,8,400,2,,ISIC_5231145.JPG
break,html.Screen,4_1_1,2023-11-02T15:07:31.069Z,,0,,,NaN,,,,,,false,,,,55029.600000000006,55029.399999999994,,55029.20000000001,,55037.889,8,400,,,
break_continue,html.Screen,4_1_2,2023-11-02T15:07:31.069Z,,0,,,NaN,,,,,,false,,,,55029.80000000002,55029.70000000001,,55029.70000000001,,55037.889,8,400,,,
sequence,flow.Sequence,4_1,2023-11-02T15:07:31.069Z,,0,,,4624.768000000011,completion,,,,,false,,,,55029.80000000002,55029.70000000001,50388.242,50402.70000000001,50404.932,55037.889,8,400,,,
trial,html.Screen,4_2_0,2023-11-02T15:07:34.513Z,,0,1,,3435.4110000000146,response,ISIC_0357043.JPG,30,ISIC_8184471.JPG,ISIC_0357043.JPG,false,1,keypress(m),500,58473.70000000001,58473.30000000002,55021.247,55029.899999999994,55037.889,58488.095,8,400,3,,ISIC_8184471.JPG
break,html.Screen,4_2_1,2023-11-02T15:07:34.515Z,,0,,,NaN,,,,,,false,,,,58475.20000000001,58474.80000000002,,58474,,58488.095,8,400,,,
break_continue,html.Screen,4_2_2,2023-11-02T15:07:34.516Z,,0,,,NaN,,,,,,false,,,,58476,58475.70000000001,,58475.399999999994,,58488.095,8,400,,,
sequence,flow.Sequence,4_2,2023-11-02T15:07:34.516Z,,0,,,3437.811000000009,completion,,,,,false,,,,58476.399999999994,58475.70000000001,55021.247,55029.899999999994,55037.889,58488.095,8,400,,,
trial,html.Screen,4_3_0,2023-11-02T15:07:37.562Z,,0,1,,3034.1050000000105,response,ISIC_7945429.JPG,10,ISIC_0000168.JPG,ISIC_7945429.JPG,false,1,keypress(m),500,61522.5,61522.20000000001,58471.524,58476.5,58488.095,61537.548,8,400,4,,ISIC_0000168.JPG
break,html.Screen,4_3_1,2023-11-02T15:07:37.563Z,,0,,,NaN,,,,,,false,,,,61523.70000000001,61523.5,,61522.70000000001,,61537.548,8,400,,,
break_continue,html.Screen,4_3_2,2023-11-02T15:07:37.564Z,,0,,,NaN,,,,,,false,,,,61524.100000000006,61524.100000000006,,61523.80000000002,,61537.548,8,400,,,
sequence,flow.Sequence,4_3,2023-11-02T15:07:37.564Z,,0,,,3036.0050000000047,completion,,,,,false,,,,61524.30000000002,61524.100000000006,58471.524,58476.399999999994,58488.095,61537.548,8,400,,,
trial,html.Screen,4_4_0,2023-11-02T15:07:41.569Z,,0,1,,3992.0520000000033,response,ISIC_2753279.JPG,17,ISIC_5442834.JPG,ISIC_2753279.JPG,false,1,keypress(m),500,65529.70000000001,65529.600000000006,61520.99,61524.399999999994,61537.548,65537.249,8,400,5,,ISIC_5442834.JPG
break,html.Screen,4_4_1,2023-11-02T15:07:41.570Z,,0,,,NaN,,,,,,false,,,,65530.30000000002,65530.100000000006,,65529.80000000002,,65537.249,8,400,,,
break_continue,html.Screen,4_4_2,2023-11-02T15:07:41.570Z,,0,,,NaN,,,,,,false,,,,65530.600000000006,65530.5,,65530.5,,65537.249,8,400,,,
sequence,flow.Sequence,4_4,2023-11-02T15:07:41.570Z,,0,,,3992.9519999999975,completion,,,,,false,,,,65530.600000000006,65530.5,61520.99,61524.399999999994,61537.548,65537.249,8,400,,,
trial,html.Screen,4_5_0,2023-11-02T15:07:45.140Z,,0,1,,3563.4510000000155,response,ISIC_3425388.JPG,12,ISIC_6225409.JPG,ISIC_3425388.JPG,false,1,keypress(m),500,69100.9,69100.70000000001,65520.627,65530.600000000006,65537.249,69103.717,8,400,6,,ISIC_6225409.JPG
break,html.Screen,4_5_1,2023-11-02T15:07:45.141Z,,0,,,NaN,,,,,,false,,,,69101.70000000001,69101.5,,69100.9,,69103.717,8,400,,,
break_continue,html.Screen,4_5_2,2023-11-02T15:07:45.142Z,,0,,,NaN,,,,,,false,,,,69102,69101.9,,69101.80000000002,,69103.717,8,400,,,
sequence,flow.Sequence,4_5,2023-11-02T15:07:45.142Z,,0,,,3564.650999999998,completion,,,,,false,,,,69102.1,69101.9,65520.627,65530.600000000006,65537.249,69103.717,8,400,,,
trial,html.Screen,4_6_0,2023-11-02T15:07:49.688Z,,0,1,,4544.68299999999,response,ISIC_0073238.JPG,27,ISIC_4220326.JPG,ISIC_4220326.JPG,false,0,keypress(z),500,73648.5,73648.4,69087.54,69102.20000000001,69103.717,73653.397,8,400,7,,ISIC_0073238.JPG
break,html.Screen,4_6_1,2023-11-02T15:07:49.689Z,,0,,,NaN,,,,,,false,,,,73649.1,73649,,73648.6,,73653.397,8,400,,,
break_continue,html.Screen,4_6_2,2023-11-02T15:07:49.689Z,,0,,,NaN,,,,,,false,,,,73649.4,73649.30000000002,,73649.20000000001,,73653.397,8,400,,,
sequence,flow.Sequence,4_6,2023-11-02T15:07:49.689Z,,0,,,4545.583000000013,completion,,,,,false,,,,73649.5,73649.30000000002,69087.54,69102.20000000001,69103.717,73653.397,8,400,,,
trial,html.Screen,4_7_0,2023-11-02T15:07:53.214Z,,0,1,,3520.3030000000144,response,ISIC_0001142.JPG,8,ISIC_0170101.JPG,ISIC_0001142.JPG,false,1,keypress(m),500,77173.80000000002,77173.70000000001,73636.77,73649.6,73653.397,77186.555,8,400,8,,ISIC_0170101.JPG
break,html.Screen,4_7_1,2023-11-02T15:07:53.214Z,,0,,,NaN,,,,,,false,,,,77174.70000000001,77174.5,,77174,,77186.555,8,400,,,
break_continue,html.Screen,4_7_2,2023-11-02T15:07:53.215Z,,0,,,NaN,,,,,,false,,,,77175,77175,,77174.80000000002,,77186.555,8,400,,,
sequence,flow.Sequence,4_7,2023-11-02T15:07:53.215Z,,0,,,3521.603000000003,completion,,,,,false,,,,77175.1,77175,73636.77,73649.6,73653.397,77186.555,8,400,,,
trial,html.Screen,4_8_0,2023-11-02T15:07:58.019Z,,0,1,,4793.145000000019,response,ISIC_0059170.JPG,23,ISIC_0011350.JPG,ISIC_0059170.JPG,false,1,keypress(m),500,81979.9,81979.70000000001,77169.89,77175.20000000001,77186.555,81986.248,8,400,9,,ISIC_0011350.JPG
break,html.Screen,4_8_1,2023-11-02T15:07:58.020Z,,0,,,NaN,,,,,,false,,,,81980.6,81980.4,,81980,,81986.248,8,400,,,
break_continue,html.Screen,4_8_2,2023-11-02T15:07:58.020Z,,0,,,NaN,,,,,,false,,,,81980.80000000002,81980.70000000001,,81980.6,,81986.248,8,400,,,
sequence,flow.Sequence,4_8,2023-11-02T15:07:58.021Z,,0,,,4794.145000000019,completion,,,,,false,,,,81980.9,81980.70000000001,77169.89,77175.20000000001,77186.555,81986.248,8,400,,,
trial,html.Screen,4_9_0,2023-11-02T15:08:03.143Z,,0,1,,5117.151999999987,response,ISIC_0062323.JPG,8,ISIC_5258657.JPG,ISIC_0062323.JPG,false,1,keypress(m),500,87103.4,87103.4,81970.057,81981.70000000001,81986.248,87135.993,8,400,10,,ISIC_5258657.JPG
break,html.Screen,4_9_1,2023-11-02T15:08:03.144Z,,0,,,NaN,,,,,,false,,,,87104.1,87103.9,,87103.6,,87135.993,8,400,,,
break_continue,html.Screen,4_9_2,2023-11-02T15:08:03.144Z,,0,,,NaN,,,,,,false,,,,87104.4,87104.30000000002,,87104.20000000001,,87135.993,8,400,,,
sequence,flow.Sequence,4_9,2023-11-02T15:08:03.144Z,,0,,,5118.052000000011,completion,,,,,false,,,,87104.5,87104.30000000002,81970.057,81981,81986.248,87135.993,8,400,,,
trial,html.Screen,4_10_0,2023-11-02T15:08:06.417Z,,0,1,,3241.1070000000036,response,ISIC_0032841.JPG,5,ISIC_0068407.JPG,ISIC_0068407.JPG,false,0,keypress(z),500,90377.20000000001,90377.1,87119.334,87104.70000000001,87135.993,90385.666,8,400,11,,ISIC_0032841.JPG
break,html.Screen,4_10_1,2023-11-02T15:08:06.417Z,,0,,,NaN,,,,,,false,,,,90377.70000000001,90377.6,,90377.30000000002,,90385.666,8,400,,,
break_continue,html.Screen,4_10_2,2023-11-02T15:08:06.418Z,,0,,,NaN,,,,,,false,,,,90377.9,90377.80000000002,,90377.80000000002,,90385.666,8,400,,,
sequence,flow.Sequence,4_10,2023-11-02T15:08:06.418Z,,0,,,3241.8070000000153,completion,,,,,false,,,,90378,90377.80000000002,87119.334,87104.6,87135.993,90385.666,8,400,,,
trial,html.Screen,4_11_0,2023-11-02T15:08:09.511Z,,0,1,,3085.63400000002,response,ISIC_5148474.JPG,19,ISIC_8252406.JPG,ISIC_5148474.JPG,false,1,keypress(m),500,93471.5,93471.30000000002,90369.044,90378,90385.666,93485.51,8,400,12,,ISIC_8252406.JPG
break,html.Screen,4_11_1,2023-11-02T15:08:09.512Z,,0,,,NaN,,,,,,false,,,,93472.70000000001,93472.4,,93471.70000000001,,93485.51,8,400,,,
break_continue,html.Screen,4_11_2,2023-11-02T15:08:09.513Z,,0,,,NaN,,,,,,false,,,,93473.30000000002,93473.1,,93472.9,,93485.51,8,400,,,
sequence,flow.Sequence,4_11,2023-11-02T15:08:09.513Z,,0,,,3087.4340000000084,completion,,,,,false,,,,93473.4,93473.1,90369.044,90378,90385.666,93485.51,8,400,,,
trial,html.Screen,4_12_0,2023-11-02T15:08:12.955Z,,0,1,,3430.090000000011,response,ISIC_0056655.JPG,12,ISIC_0069952.JPG,ISIC_0056655.JPG,false,1,keypress(m),500,96915.70000000001,96915.6,93468.849,93473.5,93485.51,96918.594,8,400,13,,ISIC_0069952.JPG
break,html.Screen,4_12_1,2023-11-02T15:08:12.956Z,,0,,,NaN,,,,,,false,,,,96916.30000000002,96916.1,,96915.80000000002,,96918.594,8,400,,,
break_continue,html.Screen,4_12_2,2023-11-02T15:08:12.956Z,,0,,,NaN,,,,,,false,,,,96916.5,96916.5,,96916.30000000002,,96918.594,8,400,,,
sequence,flow.Sequence,4_12,2023-11-02T15:08:12.956Z,,0,,,3430.9900000000052,completion,,,,,false,,,,96916.5,96916.5,93468.849,93473.5,93485.51,96918.594,8,400,,,
trial,html.Screen,4_13_0,2023-11-02T15:08:15.668Z,,0,1,,2709.305999999997,response,ISIC_0005304.JPG,18,ISIC_0197873.JPG,ISIC_0005304.JPG,false,1,keypress(m),500,99628,99627.9,96901.977,96916.6,96918.594,99635.244,8,400,14,,ISIC_0197873.JPG
break,html.Screen,4_13_1,2023-11-02T15:08:15.669Z,,0,,,NaN,,,,,,false,,,,99629.30000000002,99628.6,,99628.20000000001,,99635.244,8,400,,,
break_continue,html.Screen,4_13_2,2023-11-02T15:08:15.669Z,,0,,,NaN,,,,,,false,,,,99629.80000000002,99629.6,,99629.5,,99635.244,8,400,,,
sequence,flow.Sequence,4_13,2023-11-02T15:08:15.670Z,,0,,,2711.0060000000085,completion,,,,,false,,,,99629.9,99629.6,96901.977,96916.6,96918.594,99635.244,8,400,,,
trial,html.Screen,4_14_0,2023-11-02T15:08:18.635Z,,0,1,,2960.155999999988,response,ISIC_4695051.JPG,10,ISIC_0024552.JPG,ISIC_4695051.JPG,false,1,keypress(m),500,102595.5,102595.4,99618.498,99629.9,99635.244,102601.57,8,400,15,,ISIC_0024552.JPG
break,html.Screen,4_14_1,2023-11-02T15:08:18.636Z,,0,,,NaN,,,,,,false,,,,102596,102595.9,,102595.5,,102601.57,8,400,,,
break_continue,html.Screen,4_14_2,2023-11-02T15:08:18.636Z,,0,,,NaN,,,,,,false,,,,102596.20000000001,102596.20000000001,,102596.1,,102601.57,8,400,,,
sequence,flow.Sequence,4_14,2023-11-02T15:08:18.636Z,,0,,,2960.9560000000056,completion,,,,,false,,,,102596.4,102596.20000000001,99618.498,99629.9,99635.244,102601.57,8,400,,,
trial,html.Screen,4_15_0,2023-11-02T15:08:22.208Z,,0,1,,3566.2300000000105,response,ISIC_0062440.JPG,7,ISIC_2948896.JPG,ISIC_2948896.JPG,false,0,keypress(z),500,106167.9,106167.80000000002,102584.907,102596.4,102601.57,106184.701,8,400,16,,ISIC_0062440.JPG
break,html.Screen,4_15_1,2023-11-02T15:08:22.208Z,,0,,,NaN,,,,,,false,,,,106168.5,106168.30000000002,,106168,,106184.701,8,400,,,
break_continue,html.Screen,4_15_2,2023-11-02T15:08:22.208Z,,0,,,NaN,,,,,,false,,,,106168.80000000002,106168.70000000001,,106168.6,,106184.701,8,400,,,
sequence,flow.Sequence,4_15,2023-11-02T15:08:22.209Z,,0,,,3567.1300000000047,completion,,,,,false,,,,106168.9,106168.70000000001,102584.907,102596.4,102601.57,106184.701,8,400,,,
trial,html.Screen,4_16_0,2023-11-02T15:08:25.672Z,,0,1,,3447.6989999999932,response,ISIC_0029550.JPG,8,ISIC_0031499.JPG,ISIC_0029550.JPG,false,1,keypress(m),500,109632.4,109632.4,106168.03,106169,106184.701,109651.167,8,400,17,,ISIC_0031499.JPG
break,html.Screen,4_16_1,2023-11-02T15:08:25.672Z,,0,,,NaN,,,,,,false,,,,109632.80000000002,109632.70000000001,,109632.6,,109651.167,8,400,,,
break_continue,html.Screen,4_16_2,2023-11-02T15:08:25.673Z,,0,,,NaN,,,,,,false,,,,109632.9,109632.9,,109632.9,,109651.167,8,400,,,
sequence,flow.Sequence,4_16,2023-11-02T15:08:25.673Z,,0,,,3448.1989999999932,completion,,,,,false,,,,109633,109632.9,106168.03,106169,106184.701,109651.167,8,400,,,
trial,html.Screen,4_17_0,2023-11-02T15:08:28.832Z,,0,1,,3140.633000000016,response,ISIC_0025653.JPG,22,ISIC_0011615.JPG,ISIC_0025653.JPG,false,1,keypress(m),500,112792,112791.80000000002,109634.485,109633,109651.167,112801.037,8,400,18,,ISIC_0011615.JPG
break,html.Screen,4_17_1,2023-11-02T15:08:28.832Z,,0,,,NaN,,,,,,false,,,,112792.6,112792.5,,112792.20000000001,,112801.037,8,400,,,
break_continue,html.Screen,4_17_2,2023-11-02T15:08:28.833Z,,0,,,NaN,,,,,,false,,,,112792.9,112792.9,,112792.70000000001,,112801.037,8,400,,,
sequence,flow.Sequence,4_17,2023-11-02T15:08:28.833Z,,0,,,3141.732999999993,completion,,,,,false,,,,112793,112792.9,109634.485,109633,109651.167,112801.037,8,400,,,
trial,html.Screen,4_18_0,2023-11-02T15:08:38.946Z,,0,1,,10105.06300000001,response,ISIC_0014434.JPG,6,ISIC_9696846.JPG,ISIC_0014434.JPG,false,1,keypress(m),500,122906.30000000002,122906.1,112784.355,112793.1,112801.037,122917.112,8,400,19,,ISIC_9696846.JPG
break,html.Screen,4_18_1,2023-11-02T15:08:38.947Z,,0,,,NaN,,,,,,false,,,,122907.20000000001,122907,,122906.5,,122917.112,8,400,,,
break_continue,html.Screen,4_18_2,2023-11-02T15:08:38.947Z,,0,,,NaN,,,,,,false,,,,122907.5,122907.4,,122907.30000000002,,122917.112,8,400,,,
sequence,flow.Sequence,4_18,2023-11-02T15:08:38.947Z,,0,,,10106.362999999998,completion,,,,,false,,,,122907.6,122907.4,112784.355,112793.1,112801.037,122917.112,8,400,,,
trial,html.Screen,4_19_0,2023-11-02T15:08:50.441Z,,0,1,,11515.921000000002,timeout,ISIC_0013817.JPG,6,ISIC_0005139.JPG,,false,,,500,134401.2,134401.1,122900.645,122907.6,122917.112,134433.033,8,400,20,,
break,html.Screen,4_19_1,2023-11-02T15:08:50.442Z,,0,,,NaN,,,,,,false,,,,134402,134401.7,,134401.30000000002,,134433.033,8,400,,,
break_continue,html.Screen,4_19_2,2023-11-02T15:08:50.442Z,,0,,,NaN,,,,,,false,,,,134402.30000000002,134402.1,,134402,,134433.033,8,400,,,
sequence,flow.Sequence,4_19,2023-11-02T15:08:50.442Z,,0,,,11484.988000000012,completion,,,,,false,,,,134402.4,134402.1,122900.645,122907.6,122917.112,134433.033,8,400,,,
trial,html.Screen,4_20_0,2023-11-02T15:08:54.894Z,,0,1,,4420.56700000001,response,ISIC_0026544.JPG,4,ISIC_5755836.JPG,ISIC_5755836.JPG,false,0,keypress(z),500,138853.9,138853.6,134416.337,134402.5,134433.033,138866.223,8,400,21,,ISIC_0026544.JPG
break,html.Screen,4_20_1,2023-11-02T15:08:54.895Z,,0,,,NaN,,,,,,false,,,,138855.30000000002,138855.1,,138854.1,,138866.223,8,400,,,
break_continue,html.Screen,4_20_2,2023-11-02T15:08:54.895Z,,0,,,NaN,,,,,,false,,,,138855.80000000002,138855.7,,138855.5,,138866.223,8,400,,,
sequence,flow.Sequence,4_20,2023-11-02T15:08:54.896Z,,0,,,4422.667000000016,completion,,,,,false,,,,138856,138855.7,134416.337,134402.5,134433.033,138866.223,8,400,,,
trial,html.Screen,4_21_0,2023-11-02T15:09:00.931Z,,0,1,,6024.676999999996,response,ISIC_7184722.JPG,9,ISIC_2634356.JPG,ISIC_7184722.JPG,false,1,keypress(m),500,144891.2,144890.9,138849.609,138856,138866.223,144898.996,8,400,22,,ISIC_2634356.JPG
break,html.Screen,4_21_1,2023-11-02T15:09:00.933Z,,0,,,NaN,,,,,,false,,,,144893.5,144892.1,,144891.4,,144898.996,8,400,,,
break_continue,html.Screen,4_21_2,2023-11-02T15:09:00.934Z,,0,,,NaN,,,,,,false,,,,144894.1,144894,,144893.7,,144898.996,8,400,,,
sequence,flow.Sequence,4_21,2023-11-02T15:09:00.934Z,,0,,,6027.777000000002,completion,,,,,false,,,,144894.4,144894,138849.609,138856,138866.223,144898.996,8,400,,,
trial,html.Screen,4_22_0,2023-11-02T15:09:08.732Z,,0,1,,7792.603999999992,response,ISIC_0027031.JPG,11,ISIC_7789452.JPG,ISIC_7789452.JPG,false,0,keypress(z),500,152692.1,152691.6,144882.637,144894.5,144898.996,152699.039,8,400,23,,ISIC_0027031.JPG
break,html.Screen,4_22_1,2023-11-02T15:09:08.734Z,,0,,,NaN,,,,,,false,,,,152693.80000000002,152693.4,,152692.4,,152699.039,8,400,,,
break_continue,html.Screen,4_22_2,2023-11-02T15:09:08.734Z,,0,,,NaN,,,,,,false,,,,152694.30000000002,152694.1,,152694,,152699.039,8,400,,,
sequence,flow.Sequence,4_22,2023-11-02T15:09:08.734Z,,0,,,7795.103999999992,completion,,,,,false,,,,152694.4,152694.1,144882.637,144894.5,144898.996,152699.039,8,400,,,
trial,html.Screen,4_23_0,2023-11-02T15:09:20.227Z,,0,1,,11515.654999999999,timeout,ISIC_0010103.JPG,6,ISIC_0022328.JPG,,false,,,500,164187.00000000003,164186.80000000002,152682.097,152694.6,152699.039,164214.694,8,400,24,,
break,html.Screen,4_23_1,2023-11-02T15:09:20.227Z,,0,,,NaN,,,,,,false,,,,164187.6,164187.4,,164187.19999999998,,164214.694,8,400,,,
break_continue,html.Screen,4_23_2,2023-11-02T15:09:20.228Z,,0,,,NaN,,,,,,false,,,,164187.9,164187.69999999998,,164187.69999999998,,164214.694,8,400,,,
sequence,flow.Sequence,4_23,2023-11-02T15:09:20.228Z,,0,,,11488.660999999993,completion,,,,,false,,,,164187.9,164187.69999999998,152682.097,152694.6,152699.039,164214.694,8,400,,,
trial,html.Screen,4_24_0,2023-11-02T15:09:23.349Z,,0,1,,3094.3060000000405,response,ISIC_0010690.JPG,15,ISIC_3026660.JPG,ISIC_3026660.JPG,false,0,keypress(z),500,167309.30000000002,167309.00000000003,164197.77,164187.9,164214.694,167314.633,8,400,25,,ISIC_0010690.JPG
break,html.Screen,4_24_1,2023-11-02T15:09:23.350Z,,0,,,NaN,,,,,,false,,,,167310.6,167310.4,,167309.50000000003,,167314.633,8,400,,,
break_continue,html.Screen,4_24_2,2023-11-02T15:09:23.351Z,,0,,,NaN,,,,,,false,,,,167311.1,167311.00000000003,,167310.80000000002,,167314.633,8,400,,,
sequence,flow.Sequence,4_24,2023-11-02T15:09:23.351Z,,0,,,3096.3060000000405,completion,,,,,false,,,,167311.30000000002,167311.00000000003,164197.77,164187.9,164214.694,167314.633,8,400,,,
trial,html.Screen,4_25_0,2023-11-02T15:09:26.363Z,,0,1,,3008.066999999981,response,ISIC_0030921.JPG,10,ISIC_0465476.JPG,ISIC_0465476.JPG,false,0,keypress(z),500,170322.80000000002,170322.69999999998,167298.029,167311.50000000003,167314.633,170330.688,8,400,26,,ISIC_0030921.JPG
break,html.Screen,4_25_1,2023-11-02T15:09:26.363Z,,0,,,NaN,,,,,,false,,,,170323.69999999998,170323.50000000003,,170323.00000000003,,170330.688,8,400,,,
break_continue,html.Screen,4_25_2,2023-11-02T15:09:26.364Z,,0,,,NaN,,,,,,false,,,,170324.1,170323.9,,170323.80000000002,,170330.688,8,400,,,
sequence,flow.Sequence,4_25,2023-11-02T15:09:26.364Z,,0,,,3009.2669999999925,completion,,,,,false,,,,170324.19999999998,170323.9,167298.029,167311.4,167314.633,170330.688,8,400,,,
trial,html.Screen,4_26_0,2023-11-02T15:09:28.993Z,,0,1,,2622.3120000000345,response,ISIC_0026185.JPG,22,ISIC_0025841.JPG,ISIC_0026185.JPG,false,1,keypress(m),500,172953.19999999998,172953.00000000003,170314.633,170324.30000000002,170330.688,172964.204,8,400,27,,ISIC_0025841.JPG
break,html.Screen,4_26_1,2023-11-02T15:09:28.994Z,,0,,,NaN,,,,,,false,,,,172954.1,172953.80000000002,,172953.30000000002,,172964.204,8,400,,,
break_continue,html.Screen,4_26_2,2023-11-02T15:09:28.994Z,,0,,,NaN,,,,,,false,,,,172954.4,172954.4,,172954.19999999998,,172964.204,8,400,,,
sequence,flow.Sequence,4_26,2023-11-02T15:09:28.994Z,,0,,,2623.7119999999995,completion,,,,,false,,,,172954.50000000003,172954.4,170314.633,170324.30000000002,170330.688,172964.204,8,400,,,
trial,html.Screen,4_27_0,2023-11-02T15:09:31.884Z,,0,1,,2879.5960000000196,response,ISIC_0000172.JPG,6,ISIC_0054070.JPG,ISIC_0054070.JPG,false,0,keypress(z),500,175844.1,175843.80000000002,172947.525,172954.50000000003,172964.204,175846.967,8,400,28,,ISIC_0000172.JPG
break,html.Screen,4_27_1,2023-11-02T15:09:31.885Z,,0,,,NaN,,,,,,false,,,,175845.30000000002,175845.1,,175844.30000000002,,175846.967,8,400,,,
break_continue,html.Screen,4_27_2,2023-11-02T15:09:31.885Z,,0,,,NaN,,,,,,false,,,,175845.80000000002,175845.6,,175845.4,,175846.967,8,400,,,
sequence,flow.Sequence,4_27,2023-11-02T15:09:31.886Z,,0,,,2881.396000000008,completion,,,,,false,,,,175845.9,175845.6,172947.525,172954.50000000003,172964.204,175846.967,8,400,,,
trial,html.Screen,4_28_0,2023-11-02T15:09:34.370Z,,0,1,,2483.533000000025,response,ISIC_0033229.JPG,6,ISIC_0055549.JPG,ISIC_0033229.JPG,false,1,keypress(m),500,178330.69999999998,178330.50000000003,175830.36,175846.00000000003,175846.967,178347.012,8,400,29,,ISIC_0055549.JPG
break,html.Screen,4_28_1,2023-11-02T15:09:34.372Z,,0,,,NaN,,,,,,false,,,,178331.9,178331.69999999998,,178331.00000000003,,178347.012,8,400,,,
break_continue,html.Screen,4_28_2,2023-11-02T15:09:34.372Z,,0,,,NaN,,,,,,false,,,,178332.4,178332.19999999998,,178332.00000000003,,178347.012,8,400,,,
sequence,flow.Sequence,4_28,2023-11-02T15:09:34.372Z,,0,,,2485.2329999999783,completion,,,,,false,,,,178332.6,178332.19999999998,175830.36,175846.00000000003,175846.967,178347.012,8,400,,,
trial,html.Screen,4_29_0,2023-11-02T15:09:41.928Z,,0,1,,7541.187999999995,response,ISIC_0065133.JPG,8,ISIC_0024455.JPG,ISIC_0065133.JPG,false,1,keypress(m),500,185888.4,185888.19999999998,178330.186,178332.6,178347.012,185896.396,8,400,30,,ISIC_0024455.JPG
break,html.Screen,4_29_1,2023-11-02T15:09:41.929Z,,0,,,NaN,,,,,,false,,,,185889.1,185888.9,,185888.4,,185896.396,8,400,,,
break_continue,html.Screen,4_29_2,2023-11-02T15:09:41.929Z,,0,,,NaN,,,,,,false,,,,185889.4,185889.4,,185889.19999999998,,185896.396,8,400,,,
sequence,flow.Sequence,4_29,2023-11-02T15:09:41.929Z,,0,,,7542.388000000006,completion,,,,,false,,,,185889.4,185889.4,178330.186,178332.6,178347.012,185896.396,8,400,,,
trial,html.Screen,4_30_0,2023-11-02T15:09:48.203Z,,0,1,,6267.003999999986,response,ISIC_7883190.JPG,12,ISIC_0060222.JPG,ISIC_7883190.JPG,false,1,keypress(m),500,192163.69999999998,192163.4,185879.685,185889.50000000003,185896.396,192179.349,8,400,31,,ISIC_0060222.JPG
break,html.Screen,4_30_1,2023-11-02T15:09:48.204Z,,0,,,NaN,,,,,,false,,,,192164.69999999998,192164.50000000003,,192163.9,,192179.349,8,400,,,
break_continue,html.Screen,4_30_2,2023-11-02T15:09:48.205Z,,0,,,NaN,,,,,,false,,,,192165.00000000003,192164.9,,192164.80000000002,,192179.349,8,400,,,
sequence,flow.Sequence,4_30,2023-11-02T15:09:48.205Z,,0,,,6268.503999999986,completion,,,,,false,,,,192165.00000000003,192164.9,185879.685,185889.4,185896.396,192179.349,8,400,,,
trial,html.Screen,4_31_0,2023-11-02T15:09:54.611Z,,0,1,,6391.850999999995,response,ISIC_0063672.JPG,11,ISIC_4846741.JPG,ISIC_0063672.JPG,false,1,keypress(m),500,198571.50000000003,198571.19999999998,192162.843,192165.1,192179.349,198579.115,8,400,32,,ISIC_4846741.JPG
break,html.Screen,4_31_1,2023-11-02T15:09:54.612Z,,0,,,NaN,,,,,,false,,,,198572.6,198572.4,,198571.69999999998,,198579.115,8,400,,,
break_continue,html.Screen,4_31_2,2023-11-02T15:09:54.613Z,,0,,,NaN,,,,,,false,,,,198573.00000000003,198573.00000000003,,198572.69999999998,,198579.115,8,400,,,
sequence,flow.Sequence,4_31,2023-11-02T15:09:54.613Z,,0,,,6393.651000000042,completion,,,,,false,,,,198573.4,198573.00000000003,192162.843,192165.1,192179.349,198579.115,8,400,,,
trial,html.Screen,4_32_0,2023-11-02T15:10:01.820Z,,0,1,,7201.185000000027,response,ISIC_0011895.JPG,11,ISIC_0061583.JPG,ISIC_0011895.JPG,false,1,keypress(m),500,205780.6,205780.30000000002,198562.758,198573.50000000003,198579.115,205795.606,8,400,33,,ISIC_0061583.JPG
break,html.Screen,4_32_1,2023-11-02T15:10:01.821Z,,0,,,NaN,,,,,,false,,,,205781.69999999998,205781.50000000003,,205780.80000000002,,205795.606,8,400,,,
break_continue,html.Screen,4_32_2,2023-11-02T15:10:01.822Z,,0,,,NaN,,,,,,false,,,,205782.1,205782.00000000003,,205781.9,,205795.606,8,400,,,
sequence,flow.Sequence,4_32,2023-11-02T15:10:01.822Z,,0,,,7202.885000000038,completion,,,,,false,,,,205782.19999999998,205782.00000000003,198562.758,198573.4,198579.115,205795.606,8,400,,,
trial,html.Screen,4_33_0,2023-11-02T15:10:05.600Z,,0,1,,3765.0939999999828,response,ISIC_0031546.JPG,12,ISIC_7287303.JPG,ISIC_0031546.JPG,false,1,keypress(m),500,209560.80000000002,209560.69999999998,205778.804,205782.19999999998,205795.606,209561.479,8,400,34,,ISIC_7287303.JPG
break,html.Screen,4_33_1,2023-11-02T15:10:05.601Z,,0,,,NaN,,,,,,false,,,,209561.4,209561.30000000002,,209560.9,,209561.479,8,400,,,
break_continue,html.Screen,4_33_2,2023-11-02T15:10:05.601Z,,0,,,NaN,,,,,,false,,,,209561.69999999998,209561.69999999998,,209561.50000000003,,209561.479,8,400,,,
sequence,flow.Sequence,4_33,2023-11-02T15:10:05.602Z,,0,,,3766.0939999999828,completion,,,,,false,,,,209561.9,209561.69999999998,205778.804,205782.19999999998,205795.606,209561.479,8,400,,,
trial,html.Screen,4_34_0,2023-11-02T15:10:11.495Z,,0,1,,5893.72099999999,response,ISIC_3460125.JPG,30,ISIC_9555580.JPG,ISIC_3460125.JPG,false,1,keypress(m),500,215455.30000000002,215455.19999999998,209544.862,209561.9,209561.479,215461.112,8,400,35,,ISIC_9555580.JPG
break,html.Screen,4_34_1,2023-11-02T15:10:11.496Z,,0,,,NaN,,,,,,false,,,,215455.9,215455.69999999998,,215455.50000000003,,215461.112,8,400,,,
break_continue,html.Screen,4_34_2,2023-11-02T15:10:11.496Z,,0,,,NaN,,,,,,false,,,,215456.00000000003,215456.00000000003,,215455.9,,215461.112,8,400,,,
sequence,flow.Sequence,4_34,2023-11-02T15:10:11.496Z,,0,,,5894.521000000037,completion,,,,,false,,,,215456.1,215456.00000000003,209544.862,209561.9,209561.479,215461.112,8,400,,,
trial,html.Screen,4_35_0,2023-11-02T15:10:16.538Z,,0,1,,5036.688000000024,response,ISIC_0010393.JPG,10,ISIC_0072703.JPG,ISIC_0010393.JPG,false,1,keypress(m),500,220497.9,220497.80000000002,215444.444,215456.19999999998,215461.112,220510.863,8,400,36,,ISIC_0072703.JPG
break,html.Screen,4_35_1,2023-11-02T15:10:16.538Z,,0,,,NaN,,,,,,false,,,,220498.30000000002,220498.19999999998,,220498.00000000003,,220510.863,8,400,,,
break_continue,html.Screen,4_35_2,2023-11-02T15:10:16.538Z,,0,,,NaN,,,,,,false,,,,220498.50000000003,220498.4,,220498.4,,220510.863,8,400,,,
sequence,flow.Sequence,4_35,2023-11-02T15:10:16.538Z,,0,,,5037.2880000000005,completion,,,,,false,,,,220498.50000000003,220498.4,215444.444,215456.1,215461.112,220510.863,8,400,,,
trial,html.Screen,4_36_0,2023-11-02T15:10:20.403Z,,0,1,,3852.2369999999937,response,ISIC_8555379.JPG,9,ISIC_7415335.JPG,ISIC_7415335.JPG,false,0,keypress(z),500,224363.30000000002,224363.1,220494.146,220498.50000000003,220510.863,224377.234,8,400,37,,ISIC_8555379.JPG
break,html.Screen,4_36_1,2023-11-02T15:10:20.403Z,,0,,,NaN,,,,,,false,,,,224363.80000000002,224363.69999999998,,224363.50000000003,,224377.234,8,400,,,
break_continue,html.Screen,4_36_2,2023-11-02T15:10:20.404Z,,0,,,NaN,,,,,,false,,,,224364.00000000003,224364.00000000003,,224363.80000000002,,224377.234,8,400,,,
sequence,flow.Sequence,4_36,2023-11-02T15:10:20.404Z,,0,,,3853.137000000017,completion,,,,,false,,,,224364.00000000003,224364.00000000003,220494.146,220498.50000000003,220510.863,224377.234,8,400,,,
trial,html.Screen,4_37_0,2023-11-02T15:10:24.571Z,,0,1,,4154.165999999997,response,ISIC_4086323.JPG,14,ISIC_0059390.JPG,ISIC_4086323.JPG,false,1,keypress(m),500,228531.69999999998,228531.4,224360.598,224364.1,224377.234,228544.15,8,400,38,,ISIC_0059390.JPG
break,html.Screen,4_37_1,2023-11-02T15:10:24.572Z,,0,,,NaN,,,,,,false,,,,228532.69999999998,228532.50000000003,,228531.9,,228544.15,8,400,,,
break_continue,html.Screen,4_37_2,2023-11-02T15:10:24.573Z,,0,,,NaN,,,,,,false,,,,228533.1,228533.00000000003,,228532.9,,228544.15,8,400,,,
sequence,flow.Sequence,4_37,2023-11-02T15:10:24.573Z,,0,,,4155.766000000032,completion,,,,,false,,,,228533.30000000002,228533.00000000003,224360.598,224364.1,224377.234,228544.15,8,400,,,
trial,html.Screen,4_38_0,2023-11-02T15:10:28.959Z,,0,1,,4375.150000000023,response,ISIC_5239856.JPG,7,ISIC_0033585.JPG,ISIC_5239856.JPG,false,1,keypress(m),500,232919.6,232919.30000000002,228527.316,228533.30000000002,228544.15,232926.804,8,400,39,,ISIC_0033585.JPG
break,html.Screen,4_38_1,2023-11-02T15:10:28.960Z,,0,,,NaN,,,,,,false,,,,232920.6,232920.30000000002,,232919.69999999998,,232926.804,8,400,,,
break_continue,html.Screen,4_38_2,2023-11-02T15:10:28.961Z,,0,,,NaN,,,,,,false,,,,232920.9,232920.80000000002,,232920.69999999998,,232926.804,8,400,,,
sequence,flow.Sequence,4_38,2023-11-02T15:10:28.961Z,,0,,,4376.650000000023,completion,,,,,false,,,,232920.9,232920.80000000002,228527.316,228533.30000000002,228544.15,232926.804,8,400,,,
trial,html.Screen,4_39_0,2023-11-02T15:10:33.512Z,,0,1,,4545.09599999999,response,ISIC_3730327.JPG,7,ISIC_2146346.JPG,ISIC_3730327.JPG,false,1,keypress(m),500,237472.30000000002,237471.9,232910.566,232921.1,232926.804,237476.416,8,400,40,,ISIC_2146346.JPG
break,html.Screen,4_39_1,2023-11-02T15:10:33.513Z,,0,,,NaN,,,,,,false,,,,237473.4,237473.19999999998,,237472.50000000003,,237476.416,8,400,,,
break_continue,html.Screen,4_39_2,2023-11-02T15:10:33.514Z,,0,,,NaN,,,,,,false,,,,237473.9,237473.69999999998,,237473.6,,237476.416,8,400,,,
sequence,flow.Sequence,4_39,2023-11-02T15:10:33.514Z,,0,,,4546.895999999979,completion,,,,,false,,,,237474.00000000003,237473.69999999998,232910.566,232921.1,232926.804,237476.416,8,400,,,
trial,html.Screen,4_40_0,2023-11-02T15:10:36.608Z,,0,1,,3092.0840000000317,response,ISIC_2379908.JPG,8,ISIC_0000700.JPG,ISIC_2379908.JPG,false,1,keypress(m),500,240568.69999999998,240568.50000000003,237459.88,237474.19999999998,237476.416,240576.367,8,400,41,,ISIC_0000700.JPG
break,html.Screen,4_40_1,2023-11-02T15:10:36.609Z,,0,,,NaN,,,,,,false,,,,240569.1,240569.00000000003,,240568.80000000002,,240576.367,8,400,,,
break_continue,html.Screen,4_40_2,2023-11-02T15:10:36.609Z,,0,,,NaN,,,,,,false,,,,240569.4,240569.30000000002,,240569.1,,240576.367,8,400,,,
sequence,flow.Sequence,4_40,2023-11-02T15:10:36.609Z,,0,,,3092.88400000002,completion,,,,,false,,,,240569.50000000003,240569.30000000002,237459.88,237474.1,237476.416,240576.367,8,400,,,
trial,html.Screen,4_41_0,2023-11-02T15:10:41.624Z,,0,1,,5007.933000000019,response,ISIC_0027305.JPG,10,ISIC_2482653.JPG,ISIC_0027305.JPG,false,1,keypress(m),500,245584.50000000003,245584.30000000002,240559.56,240569.50000000003,240576.367,245592.572,8,400,42,,ISIC_2482653.JPG
break,html.Screen,4_41_1,2023-11-02T15:10:41.625Z,,0,,,NaN,,,,,,false,,,,245585.6,245585.19999999998,,245584.69999999998,,245592.572,8,400,,,
break_continue,html.Screen,4_41_2,2023-11-02T15:10:41.626Z,,0,,,NaN,,,,,,false,,,,245585.9,245585.80000000002,,245585.6,,245592.572,8,400,,,
sequence,flow.Sequence,4_41,2023-11-02T15:10:41.626Z,,0,,,5009.433000000019,completion,,,,,false,,,,245585.9,245585.80000000002,240559.56,240569.50000000003,240576.367,245592.572,8,400,,,
trial,html.Screen,4_42_0,2023-11-02T15:10:45.294Z,,0,1,,3661.228000000032,response,ISIC_4533833.JPG,11,ISIC_0027235.JPG,ISIC_4533833.JPG,false,1,keypress(m),500,249254.00000000003,249253.80000000002,245575.96,245586.00000000003,245592.572,249259.158,8,400,43,,ISIC_0027235.JPG
break,html.Screen,4_42_1,2023-11-02T15:10:45.294Z,,0,,,NaN,,,,,,false,,,,249254.80000000002,249254.6,,249254.1,,249259.158,8,400,,,
break_continue,html.Screen,4_42_2,2023-11-02T15:10:45.295Z,,0,,,NaN,,,,,,false,,,,249255.00000000003,249255.00000000003,,249254.9,,249259.158,8,400,,,
sequence,flow.Sequence,4_42,2023-11-02T15:10:45.295Z,,0,,,3662.4280000000435,completion,,,,,false,,,,249255.19999999998,249255.00000000003,245575.96,245586.00000000003,245592.572,249259.158,8,400,,,
trial,html.Screen,4_43_0,2023-11-02T15:10:49.448Z,,0,1,,4148.94200000001,response,ISIC_0001923.JPG,1,ISIC_0002675.JPG,ISIC_0001923.JPG,false,1,keypress(m),500,253408.50000000003,253408.1,249242.703,249255.19999999998,249259.158,253425.709,8,400,44,,ISIC_0002675.JPG
break,html.Screen,4_43_1,2023-11-02T15:10:49.450Z,,0,,,NaN,,,,,,false,,,,253409.80000000002,253409.4,,253408.6,,253425.709,8,400,,,
break_continue,html.Screen,4_43_2,2023-11-02T15:10:49.450Z,,0,,,NaN,,,,,,false,,,,253410.4,253410.30000000002,,253410.00000000003,,253425.709,8,400,,,
sequence,flow.Sequence,4_43,2023-11-02T15:10:49.450Z,,0,,,4151.142000000022,completion,,,,,false,,,,253410.69999999998,253410.30000000002,249242.703,249255.19999999998,249259.158,253425.709,8,400,,,
trial,html.Screen,4_44_0,2023-11-02T15:10:53.889Z,,0,1,,4423.591000000015,response,ISIC_0007884.JPG,12,ISIC_0026699.JPG,ISIC_0007884.JPG,false,1,keypress(m),500,257849.6,257849.30000000002,253408.817,253410.80000000002,253425.709,257858.474,8,400,45,,ISIC_0026699.JPG
break,html.Screen,4_44_1,2023-11-02T15:10:53.891Z,,0,,,NaN,,,,,,false,,,,257850.9,257850.50000000003,,257849.80000000002,,257858.474,8,400,,,
break_continue,html.Screen,4_44_2,2023-11-02T15:10:53.891Z,,0,,,NaN,,,,,,false,,,,257851.4,257851.30000000002,,257851.1,,257858.474,8,400,,,
sequence,flow.Sequence,4_44,2023-11-02T15:10:53.891Z,,0,,,4425.591000000015,completion,,,,,false,,,,257851.50000000003,257851.30000000002,253408.817,253410.80000000002,253425.709,257858.474,8,400,,,
trial,html.Screen,4_45_0,2023-11-02T15:10:57.596Z,,0,1,,3697.225999999995,response,ISIC_8860929.JPG,9,ISIC_6174156.JPG,ISIC_6174156.JPG,false,0,keypress(z),500,261556.00000000003,261555.69999999998,257841.912,257851.6,257858.474,261558.22,8,400,46,,ISIC_8860929.JPG
break,html.Screen,4_45_1,2023-11-02T15:10:57.596Z,,0,,,NaN,,,,,,false,,,,261556.69999999998,261556.6,,261556.19999999998,,261558.22,8,400,,,
break_continue,html.Screen,4_45_2,2023-11-02T15:10:57.597Z,,0,,,NaN,,,,,,false,,,,261557.00000000003,261556.9,,261556.80000000002,,261558.22,8,400,,,
sequence,flow.Sequence,4_45,2023-11-02T15:10:57.597Z,,0,,,3698.4260000000068,completion,,,,,false,,,,261557.1,261556.9,257841.912,257851.6,257858.474,261558.22,8,400,,,
trial,html.Screen,4_46_0,2023-11-02T15:11:00.864Z,,0,1,,3265.779999999999,response,ISIC_5754023.JPG,10,ISIC_0010777.JPG,ISIC_5754023.JPG,false,1,keypress(m),500,264824.4,264824,261541.999,261557.19999999998,261558.22,264841.641,8,400,47,,ISIC_0010777.JPG
break,html.Screen,4_46_1,2023-11-02T15:11:00.866Z,,0,,,NaN,,,,,,false,,,,264826.1,264825.69999999995,,264824.69999999995,,264841.641,8,400,,,
break_continue,html.Screen,4_46_2,2023-11-02T15:11:00.866Z,,0,,,NaN,,,,,,false,,,,264826.6,264826.5,,264826.19999999995,,264841.641,8,400,,,
sequence,flow.Sequence,4_46,2023-11-02T15:11:00.866Z,,0,,,3268.279999999999,completion,,,,,false,,,,264826.9,264826.5,261541.999,261557.1,261558.22,264841.641,8,400,,,
trial,html.Screen,4_47_0,2023-11-02T15:11:03.463Z,,0,1,,2581.6590000000433,response,ISIC_0028135.JPG,27,ISIC_1356715.JPG,ISIC_1356715.JPG,false,0,keypress(z),500,267423.4,267423.30000000005,264824.729,264826.9,264841.641,267424.6,8,400,48,,ISIC_0028135.JPG
break,html.Screen,4_47_1,2023-11-02T15:11:03.464Z,,0,,,NaN,,,,,,false,,,,267424,267423.9,,267423.5,,267424.6,8,400,,,
break_continue,html.Screen,4_47_2,2023-11-02T15:11:03.464Z,,0,,,NaN,,,,,,false,,,,267424.19999999995,267424.19999999995,,267424.1,,267424.6,8,400,,,
sequence,flow.Sequence,4_47,2023-11-02T15:11:03.464Z,,0,,,2582.55899999995,completion,,,,,false,,,,267424.30000000005,267424.19999999995,264824.729,264826.9,264841.641,267424.6,8,400,,,
trial,html.Screen,4_48_0,2023-11-02T15:11:06.513Z,,0,1,,3048.5,response,ISIC_0068246.JPG,8,ISIC_0024864.JPG,ISIC_0068246.JPG,false,1,keypress(m),500,270473.4,270473.1,267407.9,267424.4,267424.6,270491.007,8,400,49,,ISIC_0024864.JPG
break,html.Screen,4_48_1,2023-11-02T15:11:06.514Z,,0,,,NaN,,,,,,false,,,,270474.69999999995,270474.30000000005,,270473.69999999995,,270491.007,8,400,,,
break_continue,html.Screen,4_48_2,2023-11-02T15:11:06.515Z,,0,,,NaN,,,,,,false,,,,270475.6,270475.4,,270475,,270491.007,8,400,,,
sequence,flow.Sequence,4_48,2023-11-02T15:11:06.515Z,,0,,,3050.8000000000466,completion,,,,,false,,,,270475.80000000005,270475.4,267407.9,267424.4,267424.6,270491.007,8,400,,,
trial,html.Screen,4_49_0,2023-11-02T15:11:09.402Z,,0,1,,2870.69299999997,response,ISIC_0029397.JPG,13,ISIC_7800706.JPG,ISIC_7800706.JPG,false,0,keypress(z),500,273361.9,273361.69999999995,270474.357,270475.80000000005,270491.007,273385.358,8,400,50,,ISIC_0029397.JPG
break,html.Screen,4_49_1,2023-11-02T15:11:19.416Z,,0,,,10005.24900000001,timeout,,,,,false,,,,283375.9,283374.018,273357.765,273362.1,273385.358,283390.607,8,400,,,
break_continue,html.Screen,4_49_2,2023-11-02T15:11:20.783Z,,0,,,1342.2930000000051,response,,,,,false,continue,keypress(Space),,284743.30000000005,284732.9,283374.018,283376.19999999995,283390.607,284756.84,8,400,,,
sequence,flow.Sequence,4_49,2023-11-02T15:11:20.783Z,,0,,,14241.89300000004,completion,,,,,false,,,,284743.5,284732.9,270474.357,270475.80000000005,270491.007,284756.84,8,400,,,
trial,html.Screen,4_50_0,2023-11-02T15:11:24.370Z,,0,2,,3573.759999999951,response,ISIC_0062048.JPG,10,ISIC_2276141.JPG,ISIC_2276141.JPG,false,0,keypress(z),500,288330.69999999995,288330.6,284740.189,284743.5,284756.84,288339.869,8,400,1,,ISIC_0062048.JPG
break,html.Screen,4_50_1,2023-11-02T15:11:24.371Z,,0,,,NaN,,,,,,false,,,,288331.19999999995,288331,,288330.80000000005,,288339.869,8,400,,,
break_continue,html.Screen,4_50_2,2023-11-02T15:11:24.371Z,,0,,,NaN,,,,,,false,,,,288331.4,288331.30000000005,,288331.19999999995,,288339.869,8,400,,,
sequence,flow.Sequence,4_50,2023-11-02T15:11:24.371Z,,0,,,3574.460000000021,completion,,,,,false,,,,288331.5,288331.30000000005,284740.189,284743.5,284756.84,288339.869,8,400,,,
trial,html.Screen,4_51_0,2023-11-02T15:11:27.846Z,,0,2,,3466.5310000000172,response,ISIC_0032269.JPG,9,ISIC_9895220.JPG,ISIC_9895220.JPG,false,0,keypress(z),500,291806.80000000005,291806.4,288323.188,288331.5,288339.869,291823.315,8,400,2,,ISIC_0032269.JPG
break,html.Screen,4_51_1,2023-11-02T15:11:27.847Z,,0,,,NaN,,,,,,false,,,,291807.6,291807.5,,291807,,291823.315,8,400,,,
break_continue,html.Screen,4_51_2,2023-11-02T15:11:27.848Z,,0,,,NaN,,,,,,false,,,,291807.9,291807.9,,291807.69999999995,,291823.315,8,400,,,
sequence,flow.Sequence,4_51,2023-11-02T15:11:27.848Z,,0,,,3468.0310000000172,completion,,,,,false,,,,291808,291807.9,288323.188,288331.5,288339.869,291823.315,8,400,,,
trial,html.Screen,4_52_0,2023-11-02T15:11:30.656Z,,0,2,,2793.1849999999977,response,ISIC_0014127.JPG,9,ISIC_0025891.JPG,ISIC_0014127.JPG,false,1,keypress(m),500,294616.69999999995,294616.5,291806.325,291808.1,291823.315,294622.794,8,400,3,,ISIC_0025891.JPG
break,html.Screen,4_52_1,2023-11-02T15:11:30.657Z,,0,,,NaN,,,,,,false,,,,294617.19999999995,294617.1,,294616.69999999995,,294622.794,8,400,,,
break_continue,html.Screen,4_52_2,2023-11-02T15:11:30.657Z,,0,,,NaN,,,,,,false,,,,294617.30000000005,294617.30000000005,,294617.19999999995,,294622.794,8,400,,,
sequence,flow.Sequence,4_52,2023-11-02T15:11:30.657Z,,0,,,2793.9850000000442,completion,,,,,false,,,,294617.5,294617.30000000005,291806.325,291808.1,291823.315,294622.794,8,400,,,
trial,html.Screen,4_53_0,2023-11-02T15:11:33.445Z,,0,2,,2782.106000000029,response,ISIC_0003217.JPG,6,ISIC_0026258.JPG,ISIC_0003217.JPG,false,1,keypress(m),500,297405.1,297404.9,294606.107,294617.5,294622.794,297406.033,8,400,4,,ISIC_0026258.JPG
break,html.Screen,4_53_1,2023-11-02T15:11:33.445Z,,0,,,NaN,,,,,,false,,,,297405.6,297405.5,,297405.30000000005,,297406.033,8,400,,,
break_continue,html.Screen,4_53_2,2023-11-02T15:11:33.445Z,,0,,,NaN,,,,,,false,,,,297405.80000000005,297405.69999999995,,297405.69999999995,,297406.033,8,400,,,
sequence,flow.Sequence,4_53,2023-11-02T15:11:33.446Z,,0,,,2782.905999999959,completion,,,,,false,,,,297405.9,297405.69999999995,294606.107,294617.5,294622.794,297406.033,8,400,,,
trial,html.Screen,4_54_0,2023-11-02T15:11:35.961Z,,0,2,,2514.566999999981,response,ISIC_8106899.JPG,8,ISIC_5732374.JPG,ISIC_8106899.JPG,false,1,keypress(m),500,299920.9,299920.6,297389.376,297405.9,297406.033,299922.493,8,400,5,,ISIC_5732374.JPG
break,html.Screen,4_54_1,2023-11-02T15:11:35.961Z,,0,,,NaN,,,,,,false,,,,299921.80000000005,299921.6,,299921,,299922.493,8,400,,,
break_continue,html.Screen,4_54_2,2023-11-02T15:11:35.962Z,,0,,,NaN,,,,,,false,,,,299922.1,299922.1,,299921.9,,299922.493,8,400,,,
sequence,flow.Sequence,4_54,2023-11-02T15:11:35.962Z,,0,,,2516.066999999981,completion,,,,,false,,,,299922.30000000005,299922.1,297389.376,297405.9,297406.033,299922.493,8,400,,,
trial,html.Screen,4_55_0,2023-11-02T15:11:38.430Z,,0,2,,2467.80700000003,response,ISIC_3343475.JPG,8,ISIC_7599444.JPG,ISIC_3343475.JPG,false,1,keypress(m),500,302390.4,302390.30000000005,299906.334,299922.30000000005,299922.493,302405.68,8,400,6,,ISIC_7599444.JPG
break,html.Screen,4_55_1,2023-11-02T15:11:38.431Z,,0,,,NaN,,,,,,false,,,,302391,302390.9,,302390.5,,302405.68,8,400,,,
break_continue,html.Screen,4_55_2,2023-11-02T15:11:38.431Z,,0,,,NaN,,,,,,false,,,,302391.19999999995,302391.1,,302391.1,,302405.68,8,400,,,
sequence,flow.Sequence,4_55,2023-11-02T15:11:38.431Z,,0,,,2468.60699999996,completion,,,,,false,,,,302391.30000000005,302391.1,299906.334,299922.30000000005,299922.493,302405.68,8,400,,,
trial,html.Screen,4_56_0,2023-11-02T15:11:40.898Z,,0,2,,2452.2200000000303,response,ISIC_0027305.JPG,6,ISIC_0839675.JPG,ISIC_0027305.JPG,false,1,keypress(m),500,304858.1,304857.9,302388.965,302391.5,302405.68,304872.46,8,400,7,,ISIC_0839675.JPG
break,html.Screen,4_56_1,2023-11-02T15:11:40.898Z,,0,,,NaN,,,,,,false,,,,304858.80000000005,304858.6,,304858.19999999995,,304872.46,8,400,,,
break_continue,html.Screen,4_56_2,2023-11-02T15:11:40.899Z,,0,,,NaN,,,,,,false,,,,304859.1,304858.9,,304858.9,,304872.46,8,400,,,
sequence,flow.Sequence,4_56,2023-11-02T15:11:40.899Z,,0,,,2453.2200000000303,completion,,,,,false,,,,304859.1,304858.9,302388.965,302391.5,302405.68,304872.46,8,400,,,
trial,html.Screen,4_57_0,2023-11-02T15:11:43.373Z,,0,2,,2460.7399999999325,response,ISIC_0030428.JPG,10,ISIC_0028031.JPG,ISIC_0030428.JPG,false,1,keypress(m),500,307333.69999999995,307333.19999999995,304855.488,304859.19999999995,304872.46,307355.732,8,400,8,,ISIC_0028031.JPG
break,html.Screen,4_57_1,2023-11-02T15:11:43.374Z,,0,,,NaN,,,,,,false,,,,307334.9,307334.6,,307333.9,,307355.732,8,400,,,
break_continue,html.Screen,4_57_2,2023-11-02T15:11:43.375Z,,0,,,NaN,,,,,,false,,,,307335.19999999995,307335.19999999995,,307334.9,,307355.732,8,400,,,
sequence,flow.Sequence,4_57,2023-11-02T15:11:43.375Z,,0,,,2462.7399999999325,completion,,,,,false,,,,307335.4,307335.19999999995,304855.488,304859.19999999995,304872.46,307355.732,8,400,,,
trial,html.Screen,4_58_0,2023-11-02T15:11:45.924Z,,0,2,,2528.4679999999353,response,ISIC_0063447.JPG,26,ISIC_0068544.JPG,ISIC_0068544.JPG,false,0,keypress(z),500,309884.30000000005,309884.19999999995,307339.196,307335.5,307355.732,309905.477,8,400,9,,ISIC_0063447.JPG
break,html.Screen,4_58_1,2023-11-02T15:11:45.925Z,,0,,,NaN,,,,,,false,,,,309885.19999999995,309885,,309884.5,,309905.477,8,400,,,
break_continue,html.Screen,4_58_2,2023-11-02T15:11:45.925Z,,0,,,NaN,,,,,,false,,,,309885.5,309885.4,,309885.30000000005,,309905.477,8,400,,,
sequence,flow.Sequence,4_58,2023-11-02T15:11:45.925Z,,0,,,2529.668000000005,completion,,,,,false,,,,309885.6,309885.4,307339.196,307335.5,307355.732,309905.477,8,400,,,
trial,html.Screen,4_59_0,2023-11-02T15:11:48.521Z,,0,2,,2575.323000000033,response,ISIC_4086323.JPG,11,ISIC_3203344.JPG,ISIC_4086323.JPG,false,1,keypress(m),500,312481.1,312480.80000000005,309889.027,309885.69999999995,309905.477,312488.322,8,400,10,,ISIC_3203344.JPG
break,html.Screen,4_59_1,2023-11-02T15:11:48.522Z,,0,,,NaN,,,,,,false,,,,312481.9,312481.69999999995,,312481.19999999995,,312488.322,8,400,,,
break_continue,html.Screen,4_59_2,2023-11-02T15:11:48.522Z,,0,,,NaN,,,,,,false,,,,312482.19999999995,312482.19999999995,,312482,,312488.322,8,400,,,
sequence,flow.Sequence,4_59,2023-11-02T15:11:48.522Z,,0,,,2576.72299999994,completion,,,,,false,,,,312482.30000000005,312482.19999999995,309889.027,309885.69999999995,309905.477,312488.322,8,400,,,
trial,html.Screen,4_60_0,2023-11-02T15:11:51.252Z,,0,2,,2723.377999999968,response,ISIC_5527447.JPG,5,ISIC_0033594.JPG,ISIC_0033594.JPG,false,0,keypress(z),500,315211.9,315211.69999999995,312472.21,312482.4,312488.322,315221.806,8,400,11,,ISIC_5527447.JPG
break,html.Screen,4_60_1,2023-11-02T15:11:51.252Z,,0,,,NaN,,,,,,false,,,,315212.80000000005,315212.6,,315212.1,,315221.806,8,400,,,
break_continue,html.Screen,4_60_2,2023-11-02T15:11:51.253Z,,0,,,NaN,,,,,,false,,,,315213,315213,,315212.80000000005,,315221.806,8,400,,,
sequence,flow.Sequence,4_60,2023-11-02T15:11:51.253Z,,0,,,2724.6780000000144,completion,,,,,false,,,,315213.19999999995,315213,312472.21,312482.4,312488.322,315221.806,8,400,,,
trial,html.Screen,4_61_0,2023-11-02T15:11:53.804Z,,0,2,,2542.1940000000177,response,ISIC_0071245.JPG,7,ISIC_0056937.JPG,ISIC_0071245.JPG,false,1,keypress(m),500,317764.1,317764,315205.196,315213.19999999995,315221.806,317771.43,8,400,12,,ISIC_0056937.JPG
break,html.Screen,4_61_1,2023-11-02T15:11:53.805Z,,0,,,NaN,,,,,,false,,,,317765.19999999995,317765,,317764.30000000005,,317771.43,8,400,,,
break_continue,html.Screen,4_61_2,2023-11-02T15:11:53.805Z,,0,,,NaN,,,,,,false,,,,317765.5,317765.4,,317765.30000000005,,317771.43,8,400,,,
sequence,flow.Sequence,4_61,2023-11-02T15:11:53.805Z,,0,,,2543.594000000041,completion,,,,,false,,,,317765.6,317765.4,315205.196,315213.19999999995,315221.806,317771.43,8,400,,,
trial,html.Screen,4_62_0,2023-11-02T15:11:56.948Z,,0,2,,3136.9700000000303,response,ISIC_4052597.JPG,8,ISIC_8837880.JPG,ISIC_4052597.JPG,false,1,keypress(m),500,320908.5,320908.4,317755.238,317765.69999999995,317771.43,320921.532,8,400,13,,ISIC_8837880.JPG
break,html.Screen,4_62_1,2023-11-02T15:11:56.949Z,,0,,,NaN,,,,,,false,,,,320909.5,320909.30000000005,,320908.69999999995,,320921.532,8,400,,,
break_continue,html.Screen,4_62_2,2023-11-02T15:11:56.949Z,,0,,,NaN,,,,,,false,,,,320909.80000000005,320909.69999999995,,320909.6,,320921.532,8,400,,,
sequence,flow.Sequence,4_62,2023-11-02T15:11:56.950Z,,0,,,3138.2699999999604,completion,,,,,false,,,,320909.80000000005,320909.69999999995,317755.238,317765.69999999995,317771.43,320921.532,8,400,,,
trial,html.Screen,4_63_0,2023-11-02T15:11:59.420Z,,0,2,,2458.26800000004,response,ISIC_0027881.JPG,11,ISIC_0006772.JPG,ISIC_0006772.JPG,false,0,keypress(z),500,323380,323379.80000000005,320905.002,320909.9,320921.532,323387.785,8,400,14,,ISIC_0027881.JPG
break,html.Screen,4_63_1,2023-11-02T15:11:59.421Z,,0,,,NaN,,,,,,false,,,,323381.19999999995,323380.9,,323380.30000000005,,323387.785,8,400,,,
break_continue,html.Screen,4_63_2,2023-11-02T15:11:59.421Z,,0,,,NaN,,,,,,false,,,,323381.6,323381.5,,323381.4,,323387.785,8,400,,,
sequence,flow.Sequence,4_63,2023-11-02T15:11:59.421Z,,0,,,2459.9679999999935,completion,,,,,false,,,,323381.80000000005,323381.5,320905.002,320909.9,320921.532,323387.785,8,400,,,
trial,html.Screen,4_64_0,2023-11-02T15:12:01.986Z,,0,2,,2558.3150000000023,response,ISIC_1881133.JPG,5,ISIC_0030296.JPG,ISIC_1881133.JPG,false,1,keypress(m),500,325946.30000000005,325946.1,323371.225,323381.9,323387.785,325954.167,8,400,15,,ISIC_0030296.JPG
break,html.Screen,4_64_1,2023-11-02T15:12:01.987Z,,0,,,NaN,,,,,,false,,,,325947.1,325947,,325946.4,,325954.167,8,400,,,
break_continue,html.Screen,4_64_2,2023-11-02T15:12:01.987Z,,0,,,NaN,,,,,,false,,,,325947.5,325947.4,,325947.19999999995,,325954.167,8,400,,,
sequence,flow.Sequence,4_64,2023-11-02T15:12:01.987Z,,0,,,2559.615000000049,completion,,,,,false,,,,325947.6,325947.4,323371.225,323381.80000000005,323387.785,325954.167,8,400,,,
trial,html.Screen,4_65_0,2023-11-02T15:12:04.726Z,,0,2,,2731.5329999999376,response,ISIC_0027901.JPG,11,ISIC_5049165.JPG,ISIC_0027901.JPG,false,1,keypress(m),500,328685.9,328685.69999999995,325937.771,325947.6,325954.167,328687.326,8,400,16,,ISIC_5049165.JPG
break,html.Screen,4_65_1,2023-11-02T15:12:04.727Z,,0,,,NaN,,,,,,false,,,,328687,328686.69999999995,,328686.19999999995,,328687.326,8,400,,,
break_continue,html.Screen,4_65_2,2023-11-02T15:12:04.727Z,,0,,,NaN,,,,,,false,,,,328687.6,328687.30000000005,,328687,,328687.326,8,400,,,
sequence,flow.Sequence,4_65,2023-11-02T15:12:04.727Z,,0,,,2733.1330000000307,completion,,,,,false,,,,328687.80000000005,328687.30000000005,325937.771,325947.6,325954.167,328687.326,8,400,,,
trial,html.Screen,4_66_0,2023-11-02T15:12:08.255Z,,0,2,,3527.3739999999525,response,ISIC_0046351.JPG,5,ISIC_0014982.JPG,ISIC_0046351.JPG,false,1,keypress(m),500,332215,332214.69999999995,328670.808,328687.9,328687.326,332220.412,8,400,17,,ISIC_0014982.JPG
break,html.Screen,4_66_1,2023-11-02T15:12:08.255Z,,0,,,NaN,,,,,,false,,,,332215.69999999995,332215.6,,332215.1,,332220.412,8,400,,,
break_continue,html.Screen,4_66_2,2023-11-02T15:12:08.256Z,,0,,,NaN,,,,,,false,,,,332216,332216,,332215.80000000005,,332220.412,8,400,,,
sequence,flow.Sequence,4_66,2023-11-02T15:12:08.256Z,,0,,,3528.673999999999,completion,,,,,false,,,,332216.19999999995,332216,328670.808,328687.9,328687.326,332220.412,8,400,,,
trial,html.Screen,4_67_0,2023-11-02T15:12:11.582Z,,0,2,,3321.3880000000354,response,ISIC_0010044.JPG,12,ISIC_6644659.JPG,ISIC_0010044.JPG,false,1,keypress(m),500,335542,335541.80000000005,332203.791,332216.19999999995,332220.412,335554.075,8,400,18,,ISIC_6644659.JPG
break,html.Screen,4_67_1,2023-11-02T15:12:11.583Z,,0,,,NaN,,,,,,false,,,,335543.1,335542.80000000005,,335542.1,,335554.075,8,400,,,
break_continue,html.Screen,4_67_2,2023-11-02T15:12:11.583Z,,0,,,NaN,,,,,,false,,,,335543.5,335543.5,,335543.19999999995,,335554.075,8,400,,,
sequence,flow.Sequence,4_67,2023-11-02T15:12:11.583Z,,0,,,3323.087999999989,completion,,,,,false,,,,335543.69999999995,335543.5,332203.791,332216.19999999995,332220.412,335554.075,8,400,,,
trial,html.Screen,4_68_0,2023-11-02T15:12:14.146Z,,0,2,,2552.3250000000116,response,ISIC_4768512.JPG,11,ISIC_0519386.JPG,ISIC_4768512.JPG,false,1,keypress(m),500,338106.5,338106.4,335537.201,335543.9,335554.075,338120.311,8,400,19,,ISIC_0519386.JPG
break,html.Screen,4_68_1,2023-11-02T15:12:14.147Z,,0,,,NaN,,,,,,false,,,,338107.5,338107.19999999995,,338106.69999999995,,338120.311,8,400,,,
break_continue,html.Screen,4_68_2,2023-11-02T15:12:14.147Z,,0,,,NaN,,,,,,false,,,,338107.69999999995,338107.6,,338107.5,,338120.311,8,400,,,
sequence,flow.Sequence,4_68,2023-11-02T15:12:14.147Z,,0,,,2553.524999999965,completion,,,,,false,,,,338107.80000000005,338107.6,335537.201,335543.80000000005,335554.075,338120.311,8,400,,,
trial,html.Screen,4_69_0,2023-11-02T15:12:16.823Z,,0,2,,2662.4890000000596,response,ISIC_0030296.JPG,8,ISIC_2058516.JPG,ISIC_0030296.JPG,false,1,keypress(m),500,340783.4,340782.80000000005,338103.885,338107.9,338120.311,340786.565,8,400,20,,ISIC_2058516.JPG
break,html.Screen,4_69_1,2023-11-02T15:12:16.824Z,,0,,,NaN,,,,,,false,,,,340784.69999999995,340784.30000000005,,340783.6,,340786.565,8,400,,,
break_continue,html.Screen,4_69_2,2023-11-02T15:12:16.825Z,,0,,,NaN,,,,,,false,,,,340785.30000000005,340785.1,,340784.9,,340786.565,8,400,,,
sequence,flow.Sequence,4_69,2023-11-02T15:12:16.825Z,,0,,,2664.7889999999898,completion,,,,,false,,,,340785.4,340785.1,338103.885,338107.80000000005,338120.311,340786.565,8,400,,,
trial,html.Screen,4_70_0,2023-11-02T15:12:19.326Z,,0,2,,2499.2350000000442,response,ISIC_7973598.JPG,5,ISIC_0064427.JPG,ISIC_7973598.JPG,false,1,keypress(m),500,343286.1,343285.80000000005,340770.435,340785.5,340786.565,343303.434,8,400,21,,ISIC_0064427.JPG
break,html.Screen,4_70_1,2023-11-02T15:12:19.327Z,,0,,,NaN,,,,,,false,,,,343287.5,343287.19999999995,,343286.30000000005,,343303.434,8,400,,,
break_continue,html.Screen,4_70_2,2023-11-02T15:12:19.328Z,,0,,,NaN,,,,,,false,,,,343288.1,343288,,343287.69999999995,,343303.434,8,400,,,
sequence,flow.Sequence,4_70,2023-11-02T15:12:19.328Z,,0,,,2501.4349999999977,completion,,,,,false,,,,343288.30000000005,343288,340770.435,340785.5,340786.565,343303.434,8,400,,,
trial,html.Screen,4_71_0,2023-11-02T15:12:22.308Z,,0,2,,2964.466000000015,response,ISIC_0025081.JPG,6,ISIC_0057593.JPG,ISIC_0025081.JPG,false,1,keypress(m),500,346268.19999999995,346267.9,343286.441,343288.4,343303.434,346269.603,8,400,22,,ISIC_0057593.JPG
break,html.Screen,4_71_1,2023-11-02T15:12:22.310Z,,0,,,NaN,,,,,,false,,,,346269.9,346269.5,,346268.6,,346269.603,8,400,,,
break_continue,html.Screen,4_71_2,2023-11-02T15:12:22.310Z,,0,,,NaN,,,,,,false,,,,346270.6,346270.5,,346270.1,,346269.603,8,400,,,
sequence,flow.Sequence,4_71,2023-11-02T15:12:22.311Z,,0,,,2967.0659999999916,completion,,,,,false,,,,346270.9,346270.5,343286.441,343288.4,343303.434,346269.603,8,400,,,
trial,html.Screen,4_72_0,2023-11-02T15:12:25.547Z,,0,2,,3237.396999999997,response,ISIC_4383671.JPG,4,ISIC_0069481.JPG,ISIC_4383671.JPG,false,1,keypress(m),500,349507.19999999995,349507,346253.249,346271.19999999995,346269.603,349519.872,8,400,23,,ISIC_0069481.JPG
break,html.Screen,4_72_1,2023-11-02T15:12:25.548Z,,0,,,NaN,,,,,,false,,,,349508.19999999995,349507.9,,349507.4,,349519.872,8,400,,,
break_continue,html.Screen,4_72_2,2023-11-02T15:12:25.548Z,,0,,,NaN,,,,,,false,,,,349508.5,349508.4,,349508.30000000005,,349519.872,8,400,,,
sequence,flow.Sequence,4_72,2023-11-02T15:12:25.548Z,,0,,,3238.7970000000205,completion,,,,,false,,,,349508.6,349508.4,346253.249,346271.1,346269.603,349519.872,8,400,,,
trial,html.Screen,4_73_0,2023-11-02T15:12:29.855Z,,0,2,,4295.628000000026,response,ISIC_5703909.JPG,10,ISIC_0032072.JPG,ISIC_5703909.JPG,false,1,keypress(m),500,353815.69999999995,353815.5,349503.194,349508.69999999995,349519.872,353819.153,8,400,24,,ISIC_0032072.JPG
break,html.Screen,4_73_1,2023-11-02T15:12:29.857Z,,0,,,NaN,,,,,,false,,,,353816.80000000005,353816.6,,353816,,353819.153,8,400,,,
break_continue,html.Screen,4_73_2,2023-11-02T15:12:29.857Z,,0,,,NaN,,,,,,false,,,,353817.1,353817.1,,353817,,353819.153,8,400,,,
sequence,flow.Sequence,4_73,2023-11-02T15:12:29.857Z,,0,,,4297.228000000003,completion,,,,,false,,,,353817.19999999995,353817.1,349503.194,349508.6,349519.872,353819.153,8,400,,,
trial,html.Screen,4_74_0,2023-11-02T15:12:36.471Z,,0,2,,6611.747000000032,response,ISIC_8175453.JPG,10,ISIC_0004334.JPG,ISIC_8175453.JPG,false,1,keypress(m),500,360431.1,360430.9,353802.429,353817.30000000005,353819.153,360435.787,8,400,25,,ISIC_0004334.JPG
break,html.Screen,4_74_1,2023-11-02T15:12:36.472Z,,0,,,NaN,,,,,,false,,,,360432.1,360431.9,,360431.30000000005,,360435.787,8,400,,,
break_continue,html.Screen,4_74_2,2023-11-02T15:12:36.472Z,,0,,,NaN,,,,,,false,,,,360432.5,360432.30000000005,,360432.19999999995,,360435.787,8,400,,,
sequence,flow.Sequence,4_74,2023-11-02T15:12:36.472Z,,0,,,6613.147000000055,completion,,,,,false,,,,360432.5,360432.30000000005,353802.429,353817.30000000005,353819.153,360435.787,8,400,,,
trial,html.Screen,4_75_0,2023-11-02T15:12:41.184Z,,0,2,,4708.013000000035,response,ISIC_0068897.JPG,11,ISIC_1109641.JPG,ISIC_1109641.JPG,false,0,keypress(z),500,365144,365143.80000000005,360419.085,360432.6,360435.787,365155.705,8,400,26,,ISIC_0068897.JPG
break,html.Screen,4_75_1,2023-11-02T15:12:41.185Z,,0,,,NaN,,,,,,false,,,,365145,365144.69999999995,,365144.19999999995,,365155.705,8,400,,,
break_continue,html.Screen,4_75_2,2023-11-02T15:12:41.185Z,,0,,,NaN,,,,,,false,,,,365145.30000000005,365145.30000000005,,365145.1,,365155.705,8,400,,,
sequence,flow.Sequence,4_75,2023-11-02T15:12:41.185Z,,0,,,4709.513000000035,completion,,,,,false,,,,365145.4,365145.30000000005,360419.085,360432.5,360435.787,365155.705,8,400,,,
trial,html.Screen,4_76_0,2023-11-02T15:12:44.883Z,,0,2,,3687.0950000000303,response,ISIC_0054480.JPG,23,ISIC_9108776.JPG,ISIC_9108776.JPG,false,0,keypress(z),500,368843.1,368842.80000000005,365135.152,365145.5,365155.705,368851.563,8,400,27,,ISIC_0054480.JPG
break,html.Screen,4_76_1,2023-11-02T15:12:44.884Z,,0,,,NaN,,,,,,false,,,,368844.5,368844.19999999995,,368843.5,,368851.563,8,400,,,
break_continue,html.Screen,4_76_2,2023-11-02T15:12:44.885Z,,0,,,NaN,,,,,,false,,,,368845,368844.9,,368844.69999999995,,368851.563,8,400,,,
sequence,flow.Sequence,4_76,2023-11-02T15:12:44.885Z,,0,,,3689.195000000007,completion,,,,,false,,,,368845.19999999995,368844.9,365135.152,365145.5,365155.705,368851.563,8,400,,,
trial,html.Screen,4_77_0,2023-11-02T15:12:51.799Z,,0,2,,6907.63699999993,response,ISIC_0028405.JPG,6,ISIC_7933945.JPG,ISIC_7933945.JPG,false,0,keypress(z),500,375759.4,375759.19999999995,368835.04,368845.4,368851.563,375768.127,8,400,28,,ISIC_0028405.JPG
break,html.Screen,4_77_1,2023-11-02T15:12:51.800Z,,0,,,NaN,,,,,,false,,,,375760.6,375760.30000000005,,375759.6,,375768.127,8,400,,,
break_continue,html.Screen,4_77_2,2023-11-02T15:12:51.801Z,,0,,,NaN,,,,,,false,,,,375760.9,375760.9,,375760.69999999995,,375768.127,8,400,,,
sequence,flow.Sequence,4_77,2023-11-02T15:12:51.801Z,,0,,,6909.3369999999995,completion,,,,,false,,,,375761,375760.9,368835.04,368845.4,368851.563,375768.127,8,400,,,
trial,html.Screen,4_78_0,2023-11-02T15:12:55.374Z,,0,2,,3565.472999999998,response,ISIC_5491641.JPG,5,ISIC_1054090.JPG,ISIC_5491641.JPG,false,1,keypress(m),500,379334,379333.6,375751.04,375761.19999999995,375768.127,379350.831,8,400,29,,ISIC_1054090.JPG
break,html.Screen,4_78_1,2023-11-02T15:12:55.375Z,,0,,,NaN,,,,,,false,,,,379335.19999999995,379334.9,,379334.30000000005,,379350.831,8,400,,,
break_continue,html.Screen,4_78_2,2023-11-02T15:12:55.375Z,,0,,,NaN,,,,,,false,,,,379335.69999999995,379335.6,,379335.30000000005,,379350.831,8,400,,,
sequence,flow.Sequence,4_78,2023-11-02T15:12:55.376Z,,0,,,3567.472999999998,completion,,,,,false,,,,379335.9,379335.6,375751.04,375761.19999999995,375768.127,379350.831,8,400,,,
trial,html.Screen,4_79_0,2023-11-02T15:12:58.230Z,,0,2,,2838.969000000041,response,ISIC_3039880.JPG,25,ISIC_3814807.JPG,ISIC_3814807.JPG,false,0,keypress(z),500,382190.1,382189.80000000005,379334.154,379336.1,379350.831,382200.734,8,400,30,,ISIC_3039880.JPG
break,html.Screen,4_79_1,2023-11-02T15:12:58.231Z,,0,,,NaN,,,,,,false,,,,382191.1,382190.9,,382190.30000000005,,382200.734,8,400,,,
break_continue,html.Screen,4_79_2,2023-11-02T15:12:58.231Z,,0,,,NaN,,,,,,false,,,,382191.5,382191.4,,382191.19999999995,,382200.734,8,400,,,
sequence,flow.Sequence,4_79,2023-11-02T15:12:58.231Z,,0,,,2840.5690000000177,completion,,,,,false,,,,382191.6,382191.4,379334.154,379336,379350.831,382200.734,8,400,,,
trial,html.Screen,4_80_0,2023-11-02T15:13:00.909Z,,0,2,,2667.2660000000033,response,ISIC_9605122.JPG,7,ISIC_0064125.JPG,ISIC_9605122.JPG,false,1,keypress(m),500,384868.9,384868,382184.458,382191.69999999995,382200.734,384884.173,8,400,31,,ISIC_0064125.JPG
break,html.Screen,4_80_1,2023-11-02T15:13:00.910Z,,0,,,NaN,,,,,,false,,,,384870.1,384869.9,,384869.19999999995,,384884.173,8,400,,,
break_continue,html.Screen,4_80_2,2023-11-02T15:13:00.910Z,,0,,,NaN,,,,,,false,,,,384870.6,384870.6,,384870.30000000005,,384884.173,8,400,,,
sequence,flow.Sequence,4_80,2023-11-02T15:13:00.911Z,,0,,,2669.86599999998,completion,,,,,false,,,,384870.80000000005,384870.6,382184.458,382191.6,382200.734,384884.173,8,400,,,
trial,html.Screen,4_81_0,2023-11-02T15:13:03.412Z,,0,2,,2488.2270000000135,response,ISIC_0013365.JPG,12,ISIC_0072271.JPG,ISIC_0013365.JPG,false,1,keypress(m),500,387372.6,387372.4,384868.376,384870.9,384884.173,387384.128,8,400,32,,ISIC_0072271.JPG
break,html.Screen,4_81_1,2023-11-02T15:13:03.413Z,,0,,,NaN,,,,,,false,,,,387373.5,387373.30000000005,,387372.69999999995,,387384.128,8,400,,,
break_continue,html.Screen,4_81_2,2023-11-02T15:13:03.414Z,,0,,,NaN,,,,,,false,,,,387373.9,387373.69999999995,,387373.69999999995,,387384.128,8,400,,,
sequence,flow.Sequence,4_81,2023-11-02T15:13:03.414Z,,0,,,2489.5269999999437,completion,,,,,false,,,,387373.9,387373.69999999995,384868.376,384870.9,384884.173,387384.128,8,400,,,
trial,html.Screen,4_82_0,2023-11-02T15:13:07.033Z,,0,2,,3608.5719999999274,response,ISIC_0030817.JPG,8,ISIC_0009916.JPG,ISIC_0009916.JPG,false,0,keypress(z),500,390993,390992.69999999995,387367.438,387374,387384.128,391000.068,8,400,33,,ISIC_0030817.JPG
break,html.Screen,4_82_1,2023-11-02T15:13:07.034Z,,0,,,NaN,,,,,,false,,,,390994.30000000005,390994,,390993.30000000005,,391000.068,8,400,,,
break_continue,html.Screen,4_82_2,2023-11-02T15:13:07.034Z,,0,,,NaN,,,,,,false,,,,390994.69999999995,390994.69999999995,,390994.5,,391000.068,8,400,,,
sequence,flow.Sequence,4_82,2023-11-02T15:13:07.035Z,,0,,,3610.5719999999274,completion,,,,,false,,,,390994.9,390994.69999999995,387367.438,387374,387384.128,391000.068,8,400,,,
trial,html.Screen,4_83_0,2023-11-02T15:13:09.807Z,,0,2,,2766.831999999995,response,ISIC_0024398.JPG,4,ISIC_0006772.JPG,ISIC_0006772.JPG,false,0,keypress(z),500,393767.19999999995,393766.9,390983.865,390995,391000.068,393783.312,8,400,34,,ISIC_0024398.JPG
break,html.Screen,4_83_1,2023-11-02T15:13:09.808Z,,0,,,NaN,,,,,,false,,,,393768,393767.80000000005,,393767.30000000005,,393783.312,8,400,,,
break_continue,html.Screen,4_83_2,2023-11-02T15:13:09.808Z,,0,,,NaN,,,,,,false,,,,393768.30000000005,393768.19999999995,,393768.1,,393783.312,8,400,,,
sequence,flow.Sequence,4_83,2023-11-02T15:13:09.808Z,,0,,,2768.131999999925,completion,,,,,false,,,,393768.4,393768.19999999995,390983.865,390995,391000.068,393783.312,8,400,,,
trial,html.Screen,4_84_0,2023-11-02T15:13:12.374Z,,0,2,,2550.9880000000703,response,ISIC_0010597.JPG,12,ISIC_2772066.JPG,ISIC_2772066.JPG,false,0,keypress(z),500,396334.6,396334.30000000005,393766.562,393768.5,393783.312,396350.08,8,400,35,,ISIC_0010597.JPG
break,html.Screen,4_84_1,2023-11-02T15:13:12.376Z,,0,,,NaN,,,,,,false,,,,396336,396335.6,,396335,,396350.08,8,400,,,
break_continue,html.Screen,4_84_2,2023-11-02T15:13:12.376Z,,0,,,NaN,,,,,,false,,,,396336.30000000005,396336.19999999995,,396336.1,,396350.08,8,400,,,
sequence,flow.Sequence,4_84,2023-11-02T15:13:12.376Z,,0,,,2552.887999999977,completion,,,,,false,,,,396336.5,396336.19999999995,393766.562,393768.4,393783.312,396350.08,8,400,,,
trial,html.Screen,4_85_0,2023-11-02T15:13:14.912Z,,0,2,,2521.9199999999837,response,ISIC_0032590.JPG,6,ISIC_7039203.JPG,ISIC_0032590.JPG,false,1,keypress(m),500,398872.30000000005,398872,396333.594,396336.5,396350.08,398882.977,8,400,36,,ISIC_7039203.JPG
break,html.Screen,4_85_1,2023-11-02T15:13:14.913Z,,0,,,NaN,,,,,,false,,,,398872.9,398872.69999999995,,398872.5,,398882.977,8,400,,,
break_continue,html.Screen,4_85_2,2023-11-02T15:13:14.913Z,,0,,,NaN,,,,,,false,,,,398873,398872.9,,398872.9,,398882.977,8,400,,,
sequence,flow.Sequence,4_85,2023-11-02T15:13:14.913Z,,0,,,2522.820000000007,completion,,,,,false,,,,398873,398872.9,396333.594,396336.5,396350.08,398882.977,8,400,,,
trial,html.Screen,4_86_0,2023-11-02T15:13:17.779Z,,0,2,,2856.122999999963,response,ISIC_0501108.JPG,7,ISIC_0031548.JPG,ISIC_0031548.JPG,false,0,keypress(z),500,401739.30000000005,401739.1,398866.212,398873,398882.977,401749.669,8,400,37,,ISIC_0501108.JPG
break,html.Screen,4_86_1,2023-11-02T15:13:17.780Z,,0,,,NaN,,,,,,false,,,,401740.30000000005,401740.1,,401739.4,,401749.669,8,400,,,
break_continue,html.Screen,4_86_2,2023-11-02T15:13:17.780Z,,0,,,NaN,,,,,,false,,,,401740.69999999995,401740.6,,401740.4,,401749.669,8,400,,,
sequence,flow.Sequence,4_86,2023-11-02T15:13:17.781Z,,0,,,2857.622999999963,completion,,,,,false,,,,401740.9,401740.6,398866.212,398873,398882.977,401749.669,8,400,,,
trial,html.Screen,4_87_0,2023-11-02T15:13:20.990Z,,0,2,,3200.3310000000056,response,ISIC_8248922.JPG,5,ISIC_2166957.JPG,ISIC_8248922.JPG,false,1,keypress(m),500,404950.30000000005,404950,401733.238,401741,401749.669,404966.058,8,400,38,,ISIC_2166957.JPG
break,html.Screen,4_87_1,2023-11-02T15:13:20.991Z,,0,,,NaN,,,,,,false,,,,404951.4,404951.19999999995,,404950.5,,404966.058,8,400,,,
break_continue,html.Screen,4_87_2,2023-11-02T15:13:20.992Z,,0,,,NaN,,,,,,false,,,,404951.9,404951.80000000005,,404951.69999999995,,404966.058,8,400,,,
sequence,flow.Sequence,4_87,2023-11-02T15:13:20.992Z,,0,,,3202.131000000052,completion,,,,,false,,,,404952.1,404951.80000000005,401733.238,401740.9,401749.669,404966.058,8,400,,,
trial,html.Screen,4_88_0,2023-11-02T15:13:23.818Z,,0,2,,2811.1419999999343,response,ISIC_2008230.JPG,6,ISIC_0068299.JPG,ISIC_0068299.JPG,false,0,keypress(z),500,407778.19999999995,407777.19999999995,404949.797,404952.19999999995,404966.058,407782.898,8,400,39,,ISIC_2008230.JPG
break,html.Screen,4_88_1,2023-11-02T15:13:23.819Z,,0,,,NaN,,,,,,false,,,,407779.80000000005,407779.6,,407778.6,,407782.898,8,400,,,
break_continue,html.Screen,4_88_2,2023-11-02T15:13:23.820Z,,0,,,NaN,,,,,,false,,,,407780,407780,,407779.80000000005,,407782.898,8,400,,,
sequence,flow.Sequence,4_88,2023-11-02T15:13:23.820Z,,0,,,2813.941999999981,completion,,,,,false,,,,407780.19999999995,407780,404949.797,404952.1,404966.058,407782.898,8,400,,,
trial,html.Screen,4_89_0,2023-11-02T15:13:27.187Z,,0,2,,3363.70199999999,response,ISIC_0034044.JPG,11,ISIC_0058768.JPG,ISIC_0034044.JPG,false,1,keypress(m),500,411147,411146.6,407765.834,407780.30000000005,407782.898,411148.831,8,400,40,,ISIC_0058768.JPG
break,html.Screen,4_89_1,2023-11-02T15:13:27.188Z,,0,,,NaN,,,,,,false,,,,411148.5,411148.1,,411147.30000000005,,411148.831,8,400,,,
break_continue,html.Screen,4_89_2,2023-11-02T15:13:27.189Z,,0,,,NaN,,,,,,false,,,,411149,411148.9,,411148.6,,411148.831,8,400,,,
sequence,flow.Sequence,4_89,2023-11-02T15:13:27.189Z,,0,,,3366.002000000037,completion,,,,,false,,,,411149.19999999995,411148.9,407765.834,407780.19999999995,407782.898,411148.831,8,400,,,
trial,html.Screen,4_90_0,2023-11-02T15:13:30.014Z,,0,2,,2825.268999999971,response,ISIC_9527051.JPG,9,ISIC_0011497.JPG,ISIC_9527051.JPG,false,1,keypress(m),500,413974.30000000005,413974.1,411137.568,411149.30000000005,411148.831,413981.914,8,400,41,,ISIC_0011497.JPG
break,html.Screen,4_90_1,2023-11-02T15:13:30.015Z,,0,,,NaN,,,,,,false,,,,413975.30000000005,413975.1,,413974.5,,413981.914,8,400,,,
break_continue,html.Screen,4_90_2,2023-11-02T15:13:30.015Z,,0,,,NaN,,,,,,false,,,,413975.80000000005,413975.6,,413975.5,,413981.914,8,400,,,
sequence,flow.Sequence,4_90,2023-11-02T15:13:30.016Z,,0,,,2826.768999999971,completion,,,,,false,,,,413976,413975.6,411137.568,411149.30000000005,411148.831,413981.914,8,400,,,
trial,html.Screen,4_91_0,2023-11-02T15:13:32.853Z,,0,2,,2831.4860000000335,response,ISIC_0082704.JPG,6,ISIC_2647643.JPG,ISIC_2647643.JPG,false,0,keypress(z),500,416813.69999999995,416813.4,413965.274,413976.1,413981.914,416815.11,8,400,42,,ISIC_0082704.JPG
break,html.Screen,4_91_1,2023-11-02T15:13:32.855Z,,0,,,NaN,,,,,,false,,,,416814.80000000005,416814.6,,416814,,416815.11,8,400,,,
break_continue,html.Screen,4_91_2,2023-11-02T15:13:32.855Z,,0,,,NaN,,,,,,false,,,,416815.6,416815.4,,416814.9,,416815.11,8,400,,,
sequence,flow.Sequence,4_91,2023-11-02T15:13:32.856Z,,0,,,2833.4860000000335,completion,,,,,false,,,,416815.80000000005,416815.4,413965.274,413976,413981.914,416815.11,8,400,,,
trial,html.Screen,4_92_0,2023-11-02T15:13:36.027Z,,0,2,,3171.7900000000373,response,ISIC_9486917.JPG,5,ISIC_0060351.JPG,ISIC_9486917.JPG,false,1,keypress(m),500,419987.19999999995,419986.9,416798.735,416816,416815.11,419998.23,8,400,43,,ISIC_0060351.JPG
break,html.Screen,4_92_1,2023-11-02T15:13:36.028Z,,0,,,NaN,,,,,,false,,,,419988.19999999995,419988,,419987.29999999993,,419998.23,8,400,,,
break_continue,html.Screen,4_92_2,2023-11-02T15:13:36.028Z,,0,,,NaN,,,,,,false,,,,419988.69999999995,419988.5,,419988.4,,419998.23,8,400,,,
sequence,flow.Sequence,4_92,2023-11-02T15:13:36.028Z,,0,,,3173.390000000014,completion,,,,,false,,,,419988.79999999993,419988.5,416798.735,416816,416815.11,419998.23,8,400,,,
trial,html.Screen,4_93_0,2023-11-02T15:13:38.802Z,,0,2,,2763.469999999972,response,ISIC_0066223.JPG,20,ISIC_5482805.JPG,ISIC_5482805.JPG,false,0,keypress(z),500,422762,422761.69999999995,419982.08,419988.79999999993,419998.23,422764.73,8,400,44,,ISIC_0066223.JPG
break,html.Screen,4_93_1,2023-11-02T15:13:38.803Z,,0,,,NaN,,,,,,false,,,,422763.1,422762.79999999993,,422762.1,,422764.73,8,400,,,
break_continue,html.Screen,4_93_2,2023-11-02T15:13:38.803Z,,0,,,NaN,,,,,,false,,,,422763.4,422763.4,,422763.1,,422764.73,8,400,,,
sequence,flow.Sequence,4_93,2023-11-02T15:13:38.803Z,,0,,,2765.170000000042,completion,,,,,false,,,,422763.6,422763.4,419982.08,419988.79999999993,419998.23,422764.73,8,400,,,
trial,html.Screen,4_94_0,2023-11-02T15:13:41.772Z,,0,2,,2966.569999999949,response,ISIC_0519386.JPG,6,ISIC_5675703.JPG,ISIC_5675703.JPG,false,0,keypress(z),500,425731.9,425731.29999999993,422748.589,422763.69999999995,422764.73,425747.849,8,400,45,,ISIC_0519386.JPG
break,html.Screen,4_94_1,2023-11-02T15:13:41.773Z,,0,,,NaN,,,,,,false,,,,425733,425732.79999999993,,425732.1,,425747.849,8,400,,,
break_continue,html.Screen,4_94_2,2023-11-02T15:13:41.773Z,,0,,,NaN,,,,,,false,,,,425733.4,425733.29999999993,,425733.1,,425747.849,8,400,,,
sequence,flow.Sequence,4_94,2023-11-02T15:13:41.773Z,,0,,,2968.569999999949,completion,,,,,false,,,,425733.5,425733.29999999993,422748.589,422763.6,422764.73,425747.849,8,400,,,
trial,html.Screen,4_95_0,2023-11-02T15:13:44.903Z,,0,2,,3115.551000000036,response,ISIC_7233368.JPG,6,ISIC_4746361.JPG,ISIC_4746361.JPG,false,0,keypress(z),500,428863.79999999993,428863.4,425731.284,425733.69999999995,425747.849,428864.837,8,400,46,,ISIC_7233368.JPG
break,html.Screen,4_95_1,2023-11-02T15:13:44.905Z,,0,,,NaN,,,,,,false,,,,428865.29999999993,428864.79999999993,,428864.1,,428864.837,8,400,,,
break_continue,html.Screen,4_95_2,2023-11-02T15:13:44.906Z,,0,,,NaN,,,,,,false,,,,428866.1,428865.9,,428865.6,,428864.837,8,400,,,
sequence,flow.Sequence,4_95,2023-11-02T15:13:44.906Z,,0,,,3118.051000000036,completion,,,,,false,,,,428866.29999999993,428865.9,425731.284,425733.6,425747.849,428864.837,8,400,,,
trial,html.Screen,4_96_0,2023-11-02T15:13:47.852Z,,0,2,,2947.762999999977,response,ISIC_0060403.JPG,11,ISIC_0061315.JPG,ISIC_0061315.JPG,false,0,keypress(z),500,431812.79999999993,431812.6,428854.391,428866.5,428864.837,431814.158,8,400,47,,ISIC_0060403.JPG
break,html.Screen,4_96_1,2023-11-02T15:13:47.853Z,,0,,,NaN,,,,,,false,,,,431813.69999999995,431813.4,,431812.9,,431814.158,8,400,,,
break_continue,html.Screen,4_96_2,2023-11-02T15:13:47.853Z,,0,,,NaN,,,,,,false,,,,431813.9,431813.79999999993,,431813.69999999995,,431814.158,8,400,,,
sequence,flow.Sequence,4_96,2023-11-02T15:13:47.854Z,,0,,,2948.9629999999306,completion,,,,,false,,,,431813.9,431813.79999999993,428854.391,428866.5,428864.837,431814.158,8,400,,,
trial,html.Screen,4_97_0,2023-11-02T15:13:51.362Z,,0,2,,3507.941999999981,response,ISIC_0055911.JPG,5,ISIC_9900191.JPG,ISIC_0055911.JPG,false,1,keypress(m),500,435322.29999999993,435322.1,431798.003,431814.1,431814.158,435330.608,8,400,48,,ISIC_9900191.JPG
break,html.Screen,4_97_1,2023-11-02T15:13:51.363Z,,0,,,NaN,,,,,,false,,,,435323.1,435322.9,,435322.5,,435330.608,8,400,,,
break_continue,html.Screen,4_97_2,2023-11-02T15:13:51.363Z,,0,,,NaN,,,,,,false,,,,435323.4,435323.4,,435323.19999999995,,435330.608,8,400,,,
sequence,flow.Sequence,4_97,2023-11-02T15:13:51.363Z,,0,,,3509.2420000000275,completion,,,,,false,,,,435323.5,435323.4,431798.003,431814,431814.158,435330.608,8,400,,,
trial,html.Screen,4_98_0,2023-11-02T15:13:55.719Z,,0,2,,4348.691999999923,response,ISIC_0011730.JPG,7,ISIC_9079361.JPG,ISIC_9079361.JPG,false,0,keypress(z),500,439679.6,439679.29999999993,435314.393,435323.69999999995,435330.608,439697.015,8,400,49,,ISIC_0011730.JPG
break,html.Screen,4_98_1,2023-11-02T15:13:55.720Z,,0,,,NaN,,,,,,false,,,,439680.9,439680.5,,439679.9,,439697.015,8,400,,,
break_continue,html.Screen,4_98_2,2023-11-02T15:13:55.721Z,,0,,,NaN,,,,,,false,,,,439681.4,439681.19999999995,,439681.1,,439697.015,8,400,,,
sequence,flow.Sequence,4_98,2023-11-02T15:13:55.721Z,,0,,,4350.591999999946,completion,,,,,false,,,,439681.69999999995,439681.19999999995,435314.393,435323.69999999995,435330.608,439697.015,8,400,,,
trial,html.Screen,4_99_0,2023-11-02T15:13:59.458Z,,0,2,,3721.0849999999627,response,ISIC_0011095.JPG,5,ISIC_0032960.JPG,ISIC_0032960.JPG,false,0,keypress(z),500,443418.29999999993,443418.1,439680.537,439681.79999999993,439697.015,443430.608,8,400,50,,ISIC_0011095.JPG
break,html.Screen,4_99_1,2023-11-02T15:14:09.454Z,,0,,,9999.141000000003,timeout,,,,,false,,,,453414.29999999993,453412.923,443413.943,443418.5,443430.608,453429.749,8,400,,,
break_continue,html.Screen,4_99_2,2023-11-02T15:14:11.612Z,,0,,,2125.7509999999893,response,,,,,false,continue,keypress(Space),,455572.5,455555.5,453412.923,453414.6,453429.749,455579.264,8,400,,,
sequence,flow.Sequence,4_99,2023-11-02T15:14:11.612Z,,0,,,15858.484999999986,completion,,,,,false,,,,455572.6,455555.5,439680.537,439681.79999999993,439697.015,455579.264,8,400,,,
trial,html.Screen,4_100_0,2023-11-02T15:14:14.357Z,,0,3,,2737.835999999952,response,ISIC_0026516.JPG,8,ISIC_0055393.JPG,ISIC_0055393.JPG,false,0,keypress(z),500,458317.29999999993,458317.1,455562.633,455572.6,455579.264,458329.676,8,400,1,,ISIC_0026516.JPG
break,html.Screen,4_100_1,2023-11-02T15:14:14.358Z,,0,,,NaN,,,,,,false,,,,458318.29999999993,458318.1,,458317.5,,458329.676,8,400,,,
break_continue,html.Screen,4_100_2,2023-11-02T15:14:14.358Z,,0,,,NaN,,,,,,false,,,,458318.69999999995,458318.6,,458318.4,,458329.676,8,400,,,
sequence,flow.Sequence,4_100,2023-11-02T15:14:14.358Z,,0,,,2739.335999999952,completion,,,,,false,,,,458318.69999999995,458318.6,455562.633,455572.6,455579.264,458329.676,8,400,,,
trial,html.Screen,4_101_0,2023-11-02T15:14:18.461Z,,0,3,,4091.6239999999525,response,ISIC_0060773.JPG,5,ISIC_4436342.JPG,ISIC_4436342.JPG,false,0,keypress(z),500,462421.5,462421.29999999993,458312.99,458318.9,458329.676,462429.007,8,400,2,,ISIC_0060773.JPG
break,html.Screen,4_101_1,2023-11-02T15:14:18.462Z,,0,,,NaN,,,,,,false,,,,462422.5,462422.19999999995,,462421.6,,462429.007,8,400,,,
break_continue,html.Screen,4_101_2,2023-11-02T15:14:18.462Z,,0,,,NaN,,,,,,false,,,,462422.9,462422.79999999993,,462422.6,,462429.007,8,400,,,
sequence,flow.Sequence,4_101,2023-11-02T15:14:18.463Z,,0,,,4093.1239999999525,completion,,,,,false,,,,462423,462422.79999999993,458312.99,458318.79999999993,458329.676,462429.007,8,400,,,
trial,html.Screen,4_102_0,2023-11-02T15:14:21.168Z,,0,3,,2699.5929999999935,response,ISIC_8855102.JPG,11,ISIC_0014975.JPG,ISIC_0014975.JPG,false,0,keypress(z),500,465128.79999999993,465128.6,462412.778,462423.1,462429.007,465145.669,8,400,3,,ISIC_8855102.JPG
break,html.Screen,4_102_1,2023-11-02T15:14:21.170Z,,0,,,NaN,,,,,,false,,,,465130,465129.79999999993,,465129.1,,465145.669,8,400,,,
break_continue,html.Screen,4_102_2,2023-11-02T15:14:21.170Z,,0,,,NaN,,,,,,false,,,,465130.4,465130.29999999993,,465130.1,,465145.669,8,400,,,
sequence,flow.Sequence,4_102,2023-11-02T15:14:21.170Z,,0,,,2701.292999999947,completion,,,,,false,,,,465130.5,465130.29999999993,462412.778,462423,462429.007,465145.669,8,400,,,
trial,html.Screen,4_103_0,2023-11-02T15:14:23.851Z,,0,3,,2665.6309999999357,response,ISIC_0026398.JPG,6,ISIC_0007740.JPG,ISIC_0007740.JPG,false,0,keypress(z),500,467811.6,467811.29999999993,465128.735,465130.5,465145.669,467828.548,8,400,4,,ISIC_0026398.JPG
break,html.Screen,4_103_1,2023-11-02T15:14:23.852Z,,0,,,NaN,,,,,,false,,,,467812.5,467812.19999999995,,467811.79999999993,,467828.548,8,400,,,
break_continue,html.Screen,4_103_2,2023-11-02T15:14:23.852Z,,0,,,NaN,,,,,,false,,,,467812.9,467812.69999999995,,467812.5,,467828.548,8,400,,,
sequence,flow.Sequence,4_103,2023-11-02T15:14:23.853Z,,0,,,2667.030999999959,completion,,,,,false,,,,467813,467812.69999999995,465128.735,465130.5,465145.669,467828.548,8,400,,,
trial,html.Screen,4_104_0,2023-11-02T15:14:26.543Z,,0,3,,2674.8520000000135,response,ISIC_5308066.JPG,7,ISIC_4119029.JPG,ISIC_4119029.JPG,false,0,keypress(z),500,470503.79999999993,470503.4,467811.878,467813.1,467828.548,470529.059,8,400,5,,ISIC_5308066.JPG
break,html.Screen,4_104_1,2023-11-02T15:14:26.545Z,,0,,,NaN,,,,,,false,,,,470505.19999999995,470505,,470504.19999999995,,470529.059,8,400,,,
break_continue,html.Screen,4_104_2,2023-11-02T15:14:26.545Z,,0,,,NaN,,,,,,false,,,,470505.6,470505.4,,470505.29999999993,,470529.059,8,400,,,
sequence,flow.Sequence,4_104,2023-11-02T15:14:26.545Z,,0,,,2676.8520000000135,completion,,,,,false,,,,470505.69999999995,470505.4,467811.878,467813,467828.548,470529.059,8,400,,,
trial,html.Screen,4_105_0,2023-11-02T15:14:29.702Z,,0,3,,3133.0409999999683,response,ISIC_9947624.JPG,6,ISIC_6707990.JPG,ISIC_9947624.JPG,false,1,keypress(m),500,473662.29999999993,473662.1,470495.129,470505.79999999993,470529.059,473694.844,8,400,6,,ISIC_6707990.JPG
break,html.Screen,4_105_1,2023-11-02T15:14:29.703Z,,0,,,NaN,,,,,,false,,,,473663.5,473663.29999999993,,473662.69999999995,,473694.844,8,400,,,
break_continue,html.Screen,4_105_2,2023-11-02T15:14:29.704Z,,0,,,NaN,,,,,,false,,,,473663.9,473663.79999999993,,473663.6,,473694.844,8,400,,,
sequence,flow.Sequence,4_105,2023-11-02T15:14:29.704Z,,0,,,3134.7409999999218,completion,,,,,false,,,,473664.1,473663.79999999993,470495.129,470505.69999999995,470529.059,473694.844,8,400,,,
trial,html.Screen,4_106_0,2023-11-02T15:14:33.230Z,,0,3,,3495.4559999999474,response,ISIC_1630301.JPG,973,ISIC_8207974.JPG,ISIC_8207974.JPG,false,0,keypress(z),500,477190.5,477190.29999999993,473661.683,473664.1,473694.844,477211.846,8,400,7,,ISIC_1630301.JPG
break,html.Screen,4_106_1,2023-11-02T15:14:33.231Z,,0,,,NaN,,,,,,false,,,,477191.5,477191.29999999993,,477190.69999999995,,477211.846,8,400,,,
break_continue,html.Screen,4_106_2,2023-11-02T15:14:33.231Z,,0,,,NaN,,,,,,false,,,,477191.79999999993,477191.79999999993,,477191.6,,477211.846,8,400,,,
sequence,flow.Sequence,4_106,2023-11-02T15:14:33.232Z,,0,,,3496.9559999999474,completion,,,,,false,,,,477192,477191.79999999993,473661.683,473664.1,473694.844,477211.846,8,400,,,
trial,html.Screen,4_107_0,2023-11-02T15:14:36.419Z,,0,3,,3166.9539999999106,response,ISIC_0011276.JPG,9,ISIC_4643298.JPG,ISIC_4643298.JPG,false,0,keypress(z),500,480379,480378.79999999993,477178.464,477192.1,477211.846,480428.043,8,400,8,,ISIC_0011276.JPG
break,html.Screen,4_107_1,2023-11-02T15:14:36.419Z,,0,,,NaN,,,,,,false,,,,480379.9,480379.69999999995,,480379.29999999993,,480428.043,8,400,,,
break_continue,html.Screen,4_107_2,2023-11-02T15:14:36.420Z,,0,,,NaN,,,,,,false,,,,480380.19999999995,480380.1,,480380,,480428.043,8,400,,,
sequence,flow.Sequence,4_107,2023-11-02T15:14:36.420Z,,0,,,3168.253999999957,completion,,,,,false,,,,480380.29999999993,480380.1,477178.464,477192.1,477211.846,480428.043,8,400,,,
trial,html.Screen,4_108_0,2023-11-02T15:14:39.656Z,,0,3,,3187.857000000018,response,ISIC_2987579.JPG,261,ISIC_0059264.JPG,ISIC_0059264.JPG,false,0,keypress(z),500,483616.19999999995,483615.9,480394.426,480380.4,480428.043,483677.913,8,400,9,,ISIC_2987579.JPG
break,html.Screen,4_108_1,2023-11-02T15:14:39.657Z,,0,,,NaN,,,,,,false,,,,483617.19999999995,483616.9,,483616.4,,483677.913,8,400,,,
break_continue,html.Screen,4_108_2,2023-11-02T15:14:39.657Z,,0,,,NaN,,,,,,false,,,,483617.5,483617.5,,483617.29999999993,,483677.913,8,400,,,
sequence,flow.Sequence,4_108,2023-11-02T15:14:39.657Z,,0,,,3189.456999999995,completion,,,,,false,,,,483617.79999999993,483617.5,480394.426,480380.4,480428.043,483677.913,8,400,,,
trial,html.Screen,4_109_0,2023-11-02T15:14:42.668Z,,0,3,,2950.286999999953,response,ISIC_1210565.JPG,10,ISIC_0082348.JPG,ISIC_0082348.JPG,false,0,keypress(z),500,486628.5,486628.19999999995,483644.216,483617.79999999993,483677.913,486660.849,8,400,10,,ISIC_1210565.JPG
break,html.Screen,4_109_1,2023-11-02T15:14:42.669Z,,0,,,NaN,,,,,,false,,,,486629.69999999995,486629.5,,486628.79999999993,,486660.849,8,400,,,
break_continue,html.Screen,4_109_2,2023-11-02T15:14:42.670Z,,0,,,NaN,,,,,,false,,,,486630.1,486629.9,,486629.9,,486660.849,8,400,,,
sequence,flow.Sequence,4_109,2023-11-02T15:14:42.670Z,,0,,,2951.987000000023,completion,,,,,false,,,,486630.19999999995,486629.9,483644.216,483617.79999999993,483677.913,486660.849,8,400,,,
trial,html.Screen,4_110_0,2023-11-02T15:14:45.687Z,,0,3,,2985.7509999999893,response,ISIC_0029934.JPG,13,ISIC_1554992.JPG,ISIC_1554992.JPG,false,0,keypress(z),500,489646.79999999993,489646.6,486627.801,486630.19999999995,486660.849,489681.023,8,400,11,,ISIC_0029934.JPG
break,html.Screen,4_110_1,2023-11-02T15:14:45.688Z,,0,,,NaN,,,,,,false,,,,489647.9,489647.6,,489647,,489681.023,8,400,,,
break_continue,html.Screen,4_110_2,2023-11-02T15:14:45.688Z,,0,,,NaN,,,,,,false,,,,489648.1,489648.1,,489648,,489681.023,8,400,,,
sequence,flow.Sequence,4_110,2023-11-02T15:14:45.688Z,,0,,,2987.2509999999893,completion,,,,,false,,,,489648.19999999995,489648.1,486627.801,486630.19999999995,486660.849,489681.023,8,400,,,
trial,html.Screen,4_111_0,2023-11-02T15:14:48.417Z,,0,3,,2696.4770000000135,response,ISIC_0034101.JPG,10,ISIC_0655635.JPG,ISIC_0655635.JPG,false,0,keypress(z),500,492377.69999999995,492377.5,489644.338,489648.29999999993,489681.023,492411.712,8,400,12,,ISIC_0034101.JPG
break,html.Screen,4_111_1,2023-11-02T15:14:48.418Z,,0,,,NaN,,,,,,false,,,,492378.6,492378.29999999993,,492377.79999999993,,492411.712,8,400,,,
break_continue,html.Screen,4_111_2,2023-11-02T15:14:48.419Z,,0,,,NaN,,,,,,false,,,,492378.9,492378.79999999993,,492378.69999999995,,492411.712,8,400,,,
sequence,flow.Sequence,4_111,2023-11-02T15:14:48.419Z,,0,,,2697.7769999999437,completion,,,,,false,,,,492379,492378.79999999993,489644.338,489648.29999999993,489681.023,492411.712,8,400,,,
trial,html.Screen,4_112_0,2023-11-02T15:14:52.551Z,,0,3,,4099.387999999977,response,ISIC_0013813.JPG,11,ISIC_0033152.JPG,ISIC_0033152.JPG,false,0,keypress(z),500,496511.5,496511.1,492377.18,492379,492411.712,496546.024,8,400,13,,ISIC_0013813.JPG
break,html.Screen,4_112_1,2023-11-02T15:14:52.552Z,,0,,,NaN,,,,,,false,,,,496512.5,496512.19999999995,,496511.69999999995,,496546.024,8,400,,,
break_continue,html.Screen,4_112_2,2023-11-02T15:14:52.552Z,,0,,,NaN,,,,,,false,,,,496512.69999999995,496512.6,,496512.5,,496546.024,8,400,,,
sequence,flow.Sequence,4_112,2023-11-02T15:14:52.553Z,,0,,,4100.887999999977,completion,,,,,false,,,,496512.79999999993,496512.6,492377.18,492379,492411.712,496546.024,8,400,,,
trial,html.Screen,4_113_0,2023-11-02T15:14:57.822Z,,0,3,,5236.076000000001,response,ISIC_0033998.JPG,13,ISIC_7937065.JPG,ISIC_7937065.JPG,false,0,keypress(z),500,501782.4,501782.1,496510.489,496512.9,496546.024,501814.841,8,400,14,,ISIC_0033998.JPG
break,html.Screen,4_113_1,2023-11-02T15:14:57.823Z,,0,,,NaN,,,,,,false,,,,501783.5,501783.4,,501782.69999999995,,501814.841,8,400,,,
break_continue,html.Screen,4_113_2,2023-11-02T15:14:57.824Z,,0,,,NaN,,,,,,false,,,,501783.9,501783.79999999993,,501783.6,,501814.841,8,400,,,
sequence,flow.Sequence,4_113,2023-11-02T15:14:57.824Z,,0,,,5237.775999999954,completion,,,,,false,,,,501783.9,501783.79999999993,496510.489,496512.9,496546.024,501814.841,8,400,,,
trial,html.Screen,4_114_0,2023-11-02T15:15:02.933Z,,0,3,,5077.958999999915,response,ISIC_7096389.JPG,5,ISIC_4164882.JPG,ISIC_4164882.JPG,false,0,keypress(z),500,506893.19999999995,506892.79999999993,501776.915,501784.1,501814.841,506909.673,8,400,15,,ISIC_7096389.JPG
break,html.Screen,4_114_1,2023-11-02T15:15:02.935Z,,0,,,NaN,,,,,,false,,,,506894.79999999993,506894.5,,506893.5,,506909.673,8,400,,,
break_continue,html.Screen,4_114_2,2023-11-02T15:15:02.935Z,,0,,,NaN,,,,,,false,,,,506895.5,506895.4,,506895,,506909.673,8,400,,,
sequence,flow.Sequence,4_114,2023-11-02T15:15:02.935Z,,0,,,5080.559000000008,completion,,,,,false,,,,506895.69999999995,506895.4,501776.915,501784.1,501814.841,506909.673,8,400,,,
trial,html.Screen,4_115_0,2023-11-02T15:15:10.380Z,,0,3,,7430.926999999967,response,ISIC_8036544.JPG,6,ISIC_2151727.JPG,ISIC_2151727.JPG,false,0,keypress(z),500,514340.69999999995,514340.6,506892.777,506895.79999999993,506909.673,514358.945,8,400,16,,ISIC_8036544.JPG
break,html.Screen,4_115_1,2023-11-02T15:15:10.381Z,,0,,,NaN,,,,,,false,,,,514341.29999999993,514341.1,,514340.79999999993,,514358.945,8,400,,,
break_continue,html.Screen,4_115_2,2023-11-02T15:15:10.381Z,,0,,,NaN,,,,,,false,,,,514341.5,514341.4,,514341.29999999993,,514358.945,8,400,,,
sequence,flow.Sequence,4_115,2023-11-02T15:15:10.381Z,,0,,,7431.7270000000135,completion,,,,,false,,,,514341.5,514341.4,506892.777,506895.79999999993,506909.673,514358.945,8,400,,,
trial,html.Screen,4_116_0,2023-11-02T15:15:13.361Z,,0,3,,2962.554999999993,response,ISIC_0001142.JPG,5,ISIC_4442490.JPG,ISIC_4442490.JPG,false,0,keypress(z),500,517321.69999999995,517321.5,514325.611,514341.5,514358.945,517342.609,8,400,17,,ISIC_0001142.JPG
break,html.Screen,4_116_1,2023-11-02T15:15:13.362Z,,0,,,NaN,,,,,,false,,,,517322.6,517322.4,,517321.79999999993,,517342.609,8,400,,,
break_continue,html.Screen,4_116_2,2023-11-02T15:15:13.363Z,,0,,,NaN,,,,,,false,,,,517322.9,517322.79999999993,,517322.69999999995,,517342.609,8,400,,,
sequence,flow.Sequence,4_116,2023-11-02T15:15:13.363Z,,0,,,2963.854999999923,completion,,,,,false,,,,517323,517322.79999999993,514325.611,514341.5,514358.945,517342.609,8,400,,,
trial,html.Screen,4_117_0,2023-11-02T15:15:16.140Z,,0,3,,2756.99099999998,response,ISIC_9854454.JPG,11,ISIC_2681497.JPG,ISIC_2681497.JPG,false,0,keypress(z),500,520099.9,520099.6,517308.911,517323.1,517342.609,520125.206,8,400,18,,ISIC_9854454.JPG
break,html.Screen,4_117_1,2023-11-02T15:15:16.141Z,,0,,,NaN,,,,,,false,,,,520101.1,520100.79999999993,,520100.1,,520125.206,8,400,,,
break_continue,html.Screen,4_117_2,2023-11-02T15:15:16.141Z,,0,,,NaN,,,,,,false,,,,520101.5,520101.4,,520101.19999999995,,520125.206,8,400,,,
sequence,flow.Sequence,4_117,2023-11-02T15:15:16.141Z,,0,,,2758.7910000000265,completion,,,,,false,,,,520101.69999999995,520101.4,517308.911,517323,517342.609,520125.206,8,400,,,
trial,html.Screen,4_118_0,2023-11-02T15:15:21.729Z,,0,3,,5563.393999999971,response,ISIC_0063845.JPG,12,ISIC_4811593.JPG,ISIC_4811593.JPG,false,0,keypress(z),500,525688.7999999999,525688.6,520091.914,520101.79999999993,520125.206,525708.194,8,400,19,,ISIC_0063845.JPG
break,html.Screen,4_118_1,2023-11-02T15:15:21.729Z,,0,,,NaN,,,,,,false,,,,525689.6,525689.5,,525688.9,,525708.194,8,400,,,
break_continue,html.Screen,4_118_2,2023-11-02T15:15:21.730Z,,0,,,NaN,,,,,,false,,,,525689.7999999999,525689.7,,525689.6,,525708.194,8,400,,,
sequence,flow.Sequence,4_118,2023-11-02T15:15:21.730Z,,0,,,5564.493999999948,completion,,,,,false,,,,525689.9,525689.7,520091.914,520101.79999999993,520125.206,525708.194,8,400,,,
trial,html.Screen,4_119_0,2023-11-02T15:15:27.180Z,,0,3,,5431.305999999982,response,ISIC_0027971.JPG,6,ISIC_6892286.JPG,ISIC_6892286.JPG,false,0,keypress(z),500,531139.9,531139.5,525674.851,525689.9,525708.194,531157.885,8,400,20,,ISIC_0027971.JPG
break,html.Screen,4_119_1,2023-11-02T15:15:27.180Z,,0,,,NaN,,,,,,false,,,,531140.7999999999,531140.6,,531140.1,,531157.885,8,400,,,
break_continue,html.Screen,4_119_2,2023-11-02T15:15:27.181Z,,0,,,NaN,,,,,,false,,,,531141.1,531140.9,,531140.7999999999,,531157.885,8,400,,,
sequence,flow.Sequence,4_119,2023-11-02T15:15:27.181Z,,0,,,5432.706000000006,completion,,,,,false,,,,531141.2,531140.9,525674.851,525689.9,525708.194,531157.885,8,400,,,
trial,html.Screen,4_120_0,2023-11-02T15:15:29.904Z,,0,3,,2706.314999999944,response,ISIC_7959386.JPG,496,ISIC_7295035.JPG,ISIC_7295035.JPG,false,0,keypress(z),500,533864.6,533864.2,531124.554,531141.5,531157.885,533891.067,8,400,21,,ISIC_7959386.JPG
break,html.Screen,4_120_1,2023-11-02T15:15:29.905Z,,0,,,NaN,,,,,,false,,,,533865.7,533865.5,,533864.9,,533891.067,8,400,,,
break_continue,html.Screen,4_120_2,2023-11-02T15:15:29.906Z,,0,,,NaN,,,,,,false,,,,533866,533865.9,,533865.7,,533891.067,8,400,,,
sequence,flow.Sequence,4_120,2023-11-02T15:15:29.906Z,,0,,,2708.015000000014,completion,,,,,false,,,,533866.2,533865.9,531124.554,531141.4,531157.885,533891.067,8,400,,,
trial,html.Screen,4_121_0,2023-11-02T15:15:32.453Z,,0,3,,2522.0329999999376,response,ISIC_4956965.JPG,6,ISIC_0026966.JPG,ISIC_0026966.JPG,false,0,keypress(z),500,536413.4,536413.1,533857.701,533866.2999999999,533891.067,536441.571,8,400,22,,ISIC_4956965.JPG
break,html.Screen,4_121_1,2023-11-02T15:15:32.454Z,,0,,,NaN,,,,,,false,,,,536414.4,536414.2,,536413.6,,536441.571,8,400,,,
break_continue,html.Screen,4_121_2,2023-11-02T15:15:32.454Z,,0,,,NaN,,,,,,false,,,,536414.7,536414.6,,536414.5,,536441.571,8,400,,,
sequence,flow.Sequence,4_121,2023-11-02T15:15:32.455Z,,0,,,2523.5329999999376,completion,,,,,false,,,,536414.7999999999,536414.6,533857.701,533866.2,533891.067,536441.571,8,400,,,
trial,html.Screen,4_122_0,2023-11-02T15:15:35.279Z,,0,3,,2797.128999999957,response,ISIC_8959928.JPG,12,ISIC_0028764.JPG,ISIC_0028764.JPG,false,0,keypress(z),500,539238.9,539238.7,536408.071,536414.9,536441.571,539262.346,8,400,23,,ISIC_8959928.JPG
break,html.Screen,4_122_1,2023-11-02T15:15:35.280Z,,0,,,NaN,,,,,,false,,,,539239.9,539239.7999999999,,539239.1,,539262.346,8,400,,,
break_continue,html.Screen,4_122_2,2023-11-02T15:15:35.280Z,,0,,,NaN,,,,,,false,,,,539240.4,539240.2,,539240.1,,539262.346,8,400,,,
sequence,flow.Sequence,4_122,2023-11-02T15:15:35.280Z,,0,,,2798.628999999957,completion,,,,,false,,,,539240.6,539240.2,536408.071,536414.9,536441.571,539262.346,8,400,,,
trial,html.Screen,4_123_0,2023-11-02T15:15:38.472Z,,0,3,,3169.1539999999804,response,ISIC_0003052.JPG,7,ISIC_7980387.JPG,ISIC_7980387.JPG,false,0,keypress(z),500,542431.7999999999,542431.5,539224.553,539240.7,539262.346,542458.205,8,400,24,,ISIC_0003052.JPG
break,html.Screen,4_123_1,2023-11-02T15:15:38.473Z,,0,,,NaN,,,,,,false,,,,542432.9,542432.6,,542432,,542458.205,8,400,,,
break_continue,html.Screen,4_123_2,2023-11-02T15:15:38.473Z,,0,,,NaN,,,,,,false,,,,542433.2,542433.2,,542433,,542458.205,8,400,,,
sequence,flow.Sequence,4_123,2023-11-02T15:15:38.473Z,,0,,,3170.853999999934,completion,,,,,false,,,,542433.5,542433.2,539224.553,539240.7,539262.346,542458.205,8,400,,,
trial,html.Screen,4_124_0,2023-11-02T15:15:41.187Z,,0,3,,2688.594999999972,response,ISIC_6119830.JPG,204,ISIC_0057188.JPG,ISIC_0057188.JPG,false,0,keypress(z),500,545147.1,545146.7999999999,542424.203,542433.6,542458.205,545173.65,8,400,25,,ISIC_6119830.JPG
break,html.Screen,4_124_1,2023-11-02T15:15:41.188Z,,0,,,NaN,,,,,,false,,,,545148.1,545147.9,,545147.4,,545173.65,8,400,,,
break_continue,html.Screen,4_124_2,2023-11-02T15:15:41.188Z,,0,,,NaN,,,,,,false,,,,545148.5,545148.2999999999,,545148.2,,545173.65,8,400,,,
sequence,flow.Sequence,4_124,2023-11-02T15:15:41.188Z,,0,,,2690.094999999972,completion,,,,,false,,,,545148.7,545148.2999999999,542424.203,542433.6,542458.205,545173.65,8,400,,,
trial,html.Screen,4_125_0,2023-11-02T15:15:45.239Z,,0,3,,4025.149999999907,response,ISIC_1254469.JPG,11,ISIC_0501108.JPG,ISIC_1254469.JPG,false,1,keypress(m),500,549199,549198.7999999999,545141.249,545148.7999999999,545173.65,549240.403,8,400,26,,ISIC_0501108.JPG
break,html.Screen,4_125_1,2023-11-02T15:15:45.239Z,,0,,,NaN,,,,,,false,,,,549199.7,549199.5,,549199.2,,549240.403,8,400,,,
break_continue,html.Screen,4_125_2,2023-11-02T15:15:45.240Z,,0,,,NaN,,,,,,false,,,,549200,549199.9,,549199.7999999999,,549240.403,8,400,,,
sequence,flow.Sequence,4_125,2023-11-02T15:15:45.240Z,,0,,,4026.25,completion,,,,,false,,,,549200.2,549199.9,545141.249,545148.7999999999,545173.65,549240.403,8,400,,,
trial,html.Screen,4_126_0,2023-11-02T15:15:48.409Z,,0,3,,3129.0969999999506,response,ISIC_4226395.JPG,440,ISIC_7413786.JPG,ISIC_7413786.JPG,false,0,keypress(z),500,552369.7,552369.5,549206.756,549200.2,549240.403,552410.302,8,400,27,,ISIC_4226395.JPG
break,html.Screen,4_126_1,2023-11-02T15:15:48.410Z,,0,,,NaN,,,,,,false,,,,552370.2999999999,552370.2,,552369.9,,552410.302,8,400,,,
break_continue,html.Screen,4_126_2,2023-11-02T15:15:48.410Z,,0,,,NaN,,,,,,false,,,,552370.6,552370.5,,552370.4,,552410.302,8,400,,,
sequence,flow.Sequence,4_126,2023-11-02T15:15:48.410Z,,0,,,3130.0969999999506,completion,,,,,false,,,,552370.6,552370.5,549206.756,549200.2,549240.403,552410.302,8,400,,,
trial,html.Screen,4_127_0,2023-11-02T15:15:52.540Z,,0,3,,4089.597999999998,response,ISIC_0058016.JPG,9,ISIC_1685962.JPG,ISIC_1685962.JPG,false,0,keypress(z),500,556500.1,556499.9,552373.713,552370.7999999999,552410.302,556523.495,8,400,28,,ISIC_0058016.JPG
break,html.Screen,4_127_1,2023-11-02T15:15:52.541Z,,0,,,NaN,,,,,,false,,,,556501.2,556501,,556500.2999999999,,556523.495,8,400,,,
break_continue,html.Screen,4_127_2,2023-11-02T15:15:52.541Z,,0,,,NaN,,,,,,false,,,,556501.4,556501.4,,556501.2,,556523.495,8,400,,,
sequence,flow.Sequence,4_127,2023-11-02T15:15:52.541Z,,0,,,4091.097999999998,completion,,,,,false,,,,556501.6,556501.4,552373.713,552370.7,552410.302,556523.495,8,400,,,
trial,html.Screen,4_128_0,2023-11-02T15:15:55.343Z,,0,3,,2780.1049999999814,response,ISIC_4619903.JPG,138,ISIC_3136228.JPG,ISIC_3136228.JPG,false,0,keypress(z),500,559303.9,559303.6,556490.269,556501.7,556523.495,559323.279,8,400,29,,ISIC_4619903.JPG
break,html.Screen,4_128_1,2023-11-02T15:15:55.344Z,,0,,,NaN,,,,,,false,,,,559304.6,559304.5,,559304,,559323.279,8,400,,,
break_continue,html.Screen,4_128_2,2023-11-02T15:15:55.345Z,,0,,,NaN,,,,,,false,,,,559304.9,559304.9,,559304.7999999999,,559323.279,8,400,,,
sequence,flow.Sequence,4_128,2023-11-02T15:15:55.345Z,,0,,,2781.405000000028,completion,,,,,false,,,,559305,559304.9,556490.269,556501.6,556523.495,559323.279,8,400,,,
trial,html.Screen,4_129_0,2023-11-02T15:15:58.405Z,,0,3,,3041.7210000000196,response,ISIC_6119202.JPG,10,ISIC_0198331.JPG,ISIC_0198331.JPG,false,0,keypress(z),500,562365.2999999999,562365,559289.942,559305.1,559323.279,562422.888,8,400,30,,ISIC_6119202.JPG
break,html.Screen,4_129_1,2023-11-02T15:15:58.406Z,,0,,,NaN,,,,,,false,,,,562366.1,562365.9,,562365.5,,562422.888,8,400,,,
break_continue,html.Screen,4_129_2,2023-11-02T15:15:58.406Z,,0,,,NaN,,,,,,false,,,,562366.6,562366.4,,562366.2,,562422.888,8,400,,,
sequence,flow.Sequence,4_129,2023-11-02T15:15:58.406Z,,0,,,3043.121000000043,completion,,,,,false,,,,562366.7,562366.4,559289.942,559305.1,559323.279,562422.888,8,400,,,
trial,html.Screen,4_130_0,2023-11-02T15:16:02.063Z,,0,3,,3600.011999999988,response,ISIC_0031325.JPG,271,ISIC_1390308.JPG,ISIC_1390308.JPG,false,0,keypress(z),500,566023.2,566022.9,562390.756,562366.9,562422.888,566039.06,8,400,31,,ISIC_0031325.JPG
break,html.Screen,4_130_1,2023-11-02T15:16:02.064Z,,0,,,NaN,,,,,,false,,,,566024.4,566024.2,,566023.4,,566039.06,8,400,,,
break_continue,html.Screen,4_130_2,2023-11-02T15:16:02.065Z,,0,,,NaN,,,,,,false,,,,566024.9,566024.7999999999,,566024.6,,566039.06,8,400,,,
sequence,flow.Sequence,4_130,2023-11-02T15:16:02.065Z,,0,,,3601.9119999998948,completion,,,,,false,,,,566025,566024.7999999999,562390.756,562366.7999999999,562422.888,566039.06,8,400,,,
trial,html.Screen,4_131_0,2023-11-02T15:16:05.306Z,,0,3,,3227.039999999921,response,ISIC_8901133.JPG,10,ISIC_2647453.JPG,ISIC_2647453.JPG,false,0,keypress(z),500,569266.4,569266.1,566022.477,566025.2,566039.06,569305.822,8,400,32,,ISIC_8901133.JPG
break,html.Screen,4_131_1,2023-11-02T15:16:05.307Z,,0,,,NaN,,,,,,false,,,,569267.4,569267.2,,569266.7,,569305.822,8,400,,,
break_continue,html.Screen,4_131_2,2023-11-02T15:16:05.307Z,,0,,,NaN,,,,,,false,,,,569267.7999999999,569267.7,,569267.5,,569305.822,8,400,,,
sequence,flow.Sequence,4_131,2023-11-02T15:16:05.308Z,,0,,,3228.6399999998976,completion,,,,,false,,,,569267.7999999999,569267.7,566022.477,566025.1,566039.06,569305.822,8,400,,,
trial,html.Screen,4_132_0,2023-11-02T15:16:08.307Z,,0,3,,2961.277999999933,response,ISIC_7227223.JPG,380,ISIC_4538489.JPG,ISIC_4538489.JPG,false,0,keypress(z),500,572267.4,572267.1,569272.47,569268,569305.822,572288.974,8,400,33,,ISIC_7227223.JPG
break,html.Screen,4_132_1,2023-11-02T15:16:08.308Z,,0,,,NaN,,,,,,false,,,,572268.7,572268.4,,572267.7,,572288.974,8,400,,,
break_continue,html.Screen,4_132_2,2023-11-02T15:16:08.309Z,,0,,,NaN,,,,,,false,,,,572269.1,572269,,572268.7999999999,,572288.974,8,400,,,
sequence,flow.Sequence,4_132,2023-11-02T15:16:08.309Z,,0,,,2963.1779999999562,completion,,,,,false,,,,572269.1,572269,569272.47,569268,569305.822,572288.974,8,400,,,
trial,html.Screen,4_133_0,2023-11-02T15:16:11.623Z,,0,3,,3293.8259999998845,response,ISIC_8163269.JPG,5,ISIC_6274085.JPG,ISIC_8163269.JPG,false,1,keypress(m),500,575583.1,575582.7999999999,572255.567,572269.2999999999,572288.974,575605.084,8,400,34,,ISIC_6274085.JPG
break,html.Screen,4_133_1,2023-11-02T15:16:11.624Z,,0,,,NaN,,,,,,false,,,,575584.2,575583.9,,575583.2999999999,,575605.084,8,400,,,
