sender,sender_type,sender_id,timestamp,meta,,blockNo,condition,duration,ended_on,img_left,img_reveal,img_right,loser,practice,response,response_action,selection_duration,time_commit,time_end,time_render,time_run,time_show,time_switch,total_blocks,total_trials,trialNo,url,winner
informed_consent,html.Screen,0,2023-11-01T16:05:50.279Z,"{""labjs_version"":""20.2.4"",""labjs_build"":{""flavor"":""production"",""commit"":""f5b4a49f956347addd546a832a3327688c2c0fef""},""location"":""https://run.pavlovia.org/MurrayBennett/melanoma-2afc/?participant=66771&platform=sona"",""userAgent"":""Mozilla/5.0 (Windows NT 10.0; Win64; x64; rv:109.0) Gecko/20100101 Firefox/119.0"",""platform"":""Win32"",""language"":""en-US"",""locale"":""en-US"",""timeZone"":""America/Chicago"",""timezoneOffset"":300,""screen_width"":1600,""screen_height"":900,""scroll_width"":1600,""scroll_height"":756,""window_innerWidth"":1600,""window_innerHeight"":804,""devicePixelRatio"":1.2}",,,,2153.76,response,,,,,,consent,click button,,5735,5722,3559.24,3559,3568.24,5748.68,,,,"{""participant"":""66771"",""platform"":""sona""}",
Welcome,html.Screen,1,2023-11-01T16:05:52.747Z,,,,symmetry,2441.3199999999997,response,,,,,,continue,click button,,8202,8190,5734.22,5735,5748.68,8212,,,,,
trial,html.Screen,2_0_0,2023-11-01T16:05:57.937Z,,0,0,,5180,response,ISIC_6997061.JPG,,ISIC_0069348.JPG,ISIC_6997061.JPG,true,1,keypress(m),500,13393,13392,8202.02,8203,8212,13393.14,1,6,1,,ISIC_0069348.JPG
sequence,flow.Sequence,2_0,2023-11-01T16:05:57.937Z,,0,,,5180,completion,,,,,true,,,,13393,13392,8202.02,8203,8212,13393.14,1,6,,,
trial,html.Screen,2_1_0,2023-11-01T16:06:04.645Z,,0,0,,6706.860000000001,response,ISIC_0009529.JPG,,ISIC_0057368.JPG,ISIC_0009529.JPG,true,1,keypress(m),500,20100,20100,13392.98,13393,13393.14,20101.48,1,6,2,,ISIC_0057368.JPG
sequence,flow.Sequence,2_1,2023-11-01T16:06:04.646Z,,0,,,6706.860000000001,completion,,,,,true,,,,20101,20100,13392.98,13393,13393.14,20101.48,1,6,,,
trial,html.Screen,2_2_0,2023-11-01T16:06:08.977Z,,0,0,,4330.52,response,ISIC_0064954.JPG,,ISIC_9758671.JPG,ISIC_9758671.JPG,true,0,keypress(z),500,24433,24432,20101.2,20101,20101.48,24433.5,1,6,3,,ISIC_0064954.JPG
sequence,flow.Sequence,2_2,2023-11-01T16:06:08.978Z,,0,,,4330.52,completion,,,,,true,,,,24433,24432,20101.2,20101,20101.48,24433.5,1,6,,,
trial,html.Screen,2_3_0,2023-11-01T16:06:13.100Z,,0,0,,4121.5,response,ISIC_0000080.JPG,,ISIC_0005785.JPG,ISIC_0005785.JPG,true,0,keypress(z),500,28555,28555,24433.32,24434,24433.5,28556.2,1,6,4,,ISIC_0000080.JPG
sequence,flow.Sequence,2_3,2023-11-01T16:06:13.100Z,,0,,,4121.5,completion,,,,,true,,,,28556,28555,24433.32,24434,24433.5,28556.2,1,6,,,
trial,html.Screen,2_4_0,2023-11-01T16:06:18.209Z,,0,0,,5106.799999999999,response,ISIC_7944028.JPG,,ISIC_5390060.JPG,ISIC_7944028.JPG,true,1,keypress(m),500,33664,33663,28556.04,28556,28556.2,33665.1,1,6,5,,ISIC_5390060.JPG
sequence,flow.Sequence,2_4,2023-11-01T16:06:18.209Z,,0,,,5106.799999999999,completion,,,,,true,,,,33664,33663,28556.04,28556,28556.2,33665.1,1,6,,,
trial,html.Screen,2_5_0,2023-11-01T16:06:22.768Z,,0,0,,4558.9000000000015,response,ISIC_0010188.JPG,,ISIC_0794216.JPG,ISIC_0794216.JPG,true,0,keypress(z),500,38224,38224,33664.96,33665,33665.1,38224.88,1,6,6,,ISIC_0010188.JPG
sequence,flow.Sequence,2_5,2023-11-01T16:06:22.769Z,,0,,,4558.9000000000015,completion,,,,,true,,,,38224,38224,33664.96,33665,33665.1,38224.88,1,6,,,
loop,flow.Loop,2,2023-11-01T16:06:22.769Z,,,,,30012,completion,,,,,true,,,,38224,38224,8202.02,8203,8212,38224.88,1,6,,,
exp_instructions,html.Screen,3,2023-11-01T16:06:29.452Z,,,,,6669.120000000003,response,,,,,,continue,keypress(Space),,44907,44894,38224.72,38224,38224.88,44907.88,,,,,
trial,html.Screen,4_0_0,2023-11-01T16:06:34.844Z,,0,1,,5391.120000000003,response,ISIC_8979275.JPG,14,ISIC_3751172.JPG,ISIC_3751172.JPG,false,0,keypress(z),500,50299,50299,44907.68,44907,44907.88,50299.44,8,400,1,,ISIC_8979275.JPG
break,html.Screen,4_0_1,2023-11-01T16:06:34.845Z,,0,,,NaN,,,,,,false,,,,50300,50299,,50299,,50299.44,8,400,,,
break_continue,html.Screen,4_0_2,2023-11-01T16:06:34.845Z,,0,,,NaN,,,,,,false,,,,50300,50300,,50300,,50299.44,8,400,,,
sequence,flow.Sequence,4_0,2023-11-01T16:06:34.846Z,,0,,,5392.120000000003,completion,,,,,false,,,,50300,50300,44907.68,44907,44907.88,50299.44,8,400,,,
trial,html.Screen,4_1_0,2023-11-01T16:06:45.038Z,,0,1,,10194.559999999998,response,ISIC_5092834.JPG,12,ISIC_0011286.JPG,ISIC_5092834.JPG,false,1,keypress(m),500,60494,60494,50299.28,50301,50299.44,60494.14,8,400,2,,ISIC_0011286.JPG
break,html.Screen,4_1_1,2023-11-01T16:06:45.039Z,,0,,,NaN,,,,,,false,,,,60495,60495,,60494,,60494.14,8,400,,,
break_continue,html.Screen,4_1_2,2023-11-01T16:06:45.040Z,,0,,,NaN,,,,,,false,,,,60496,60495,,60495,,60494.14,8,400,,,
sequence,flow.Sequence,4_1,2023-11-01T16:06:45.040Z,,0,,,10195.559999999998,completion,,,,,false,,,,60496,60495,50299.28,50301,50299.44,60494.14,8,400,,,
trial,html.Screen,4_2_0,2023-11-01T16:06:56.268Z,,0,1,,11228.86,response,ISIC_0031891.JPG,11,ISIC_0027683.JPG,ISIC_0027683.JPG,false,0,keypress(z),500,71723,71723,60493.94,60496,60494.14,71725.78,8,400,3,,ISIC_0031891.JPG
break,html.Screen,4_2_1,2023-11-01T16:06:56.269Z,,0,,,NaN,,,,,,false,,,,71724,71724,,71723,,71725.78,8,400,,,
break_continue,html.Screen,4_2_2,2023-11-01T16:06:56.269Z,,0,,,NaN,,,,,,false,,,,71725,71725,,71724,,71725.78,8,400,,,
sequence,flow.Sequence,4_2,2023-11-01T16:06:56.269Z,,0,,,11230.86,completion,,,,,false,,,,71725,71725,60493.94,60496,60494.14,71725.78,8,400,,,
trial,html.Screen,4_3_0,2023-11-01T16:07:07.169Z,,0,1,,10897.220000000001,response,ISIC_0014132.JPG,1,ISIC_3826102.JPG,ISIC_3826102.JPG,false,0,keypress(z),500,82624,82623,71723.52,71725,71725.78,82627.68,8,400,4,,ISIC_0014132.JPG
break,html.Screen,4_3_1,2023-11-01T16:07:07.171Z,,0,,,NaN,,,,,,false,,,,82626,82625,,82625,,82627.68,8,400,,,
break_continue,html.Screen,4_3_2,2023-11-01T16:07:07.171Z,,0,,,NaN,,,,,,false,,,,82626,82626,,82626,,82627.68,8,400,,,
sequence,flow.Sequence,4_3,2023-11-01T16:07:07.172Z,,0,,,10900.220000000001,completion,,,,,false,,,,82627,82626,71723.52,71725,71725.78,82627.68,8,400,,,
trial,html.Screen,4_4_0,2023-11-01T16:07:10.715Z,,0,1,,3542.320000000007,response,ISIC_0015401.JPG,23,ISIC_0010208.JPG,ISIC_0010208.JPG,false,0,keypress(z),500,86170,86170,82625.34,82628,82627.68,86172.8,8,400,5,,ISIC_0015401.JPG
break,html.Screen,4_4_1,2023-11-01T16:07:10.716Z,,0,,,NaN,,,,,,false,,,,86171,86171,,86170,,86172.8,8,400,,,
break_continue,html.Screen,4_4_2,2023-11-01T16:07:10.716Z,,0,,,NaN,,,,,,false,,,,86172,86172,,86171,,86172.8,8,400,,,
sequence,flow.Sequence,4_4,2023-11-01T16:07:10.717Z,,0,,,3544.320000000007,completion,,,,,false,,,,86172,86172,82625.34,82628,82627.68,86172.8,8,400,,,
trial,html.Screen,4_5_0,2023-11-01T16:07:15.599Z,,0,1,,4881.199999999997,response,ISIC_0055747.JPG,19,ISIC_0527350.JPG,ISIC_0055747.JPG,false,1,keypress(m),500,91054,91054,86170.44,86173,86172.8,91055.2,8,400,6,,ISIC_0527350.JPG
break,html.Screen,4_5_1,2023-11-01T16:07:15.601Z,,0,,,NaN,,,,,,false,,,,91056,91056,,91055,,91055.2,8,400,,,
break_continue,html.Screen,4_5_2,2023-11-01T16:07:15.602Z,,0,,,NaN,,,,,,false,,,,91057,91057,,91057,,91055.2,8,400,,,
sequence,flow.Sequence,4_5,2023-11-01T16:07:15.602Z,,0,,,4884.199999999997,completion,,,,,false,,,,91058,91057,86170.44,86173,86172.8,91055.2,8,400,,,
trial,html.Screen,4_6_0,2023-11-01T16:07:20.600Z,,0,1,,4999.800000000003,response,ISIC_0054663.JPG,25,ISIC_0804420.JPG,ISIC_0804420.JPG,false,0,keypress(z),500,96055,96055,91055.04,91058,91055.2,96075.78,8,400,7,,ISIC_0054663.JPG
break,html.Screen,4_6_1,2023-11-01T16:07:20.601Z,,0,,,NaN,,,,,,false,,,,96056,96056,,96055,,96075.78,8,400,,,
break_continue,html.Screen,4_6_2,2023-11-01T16:07:20.601Z,,0,,,NaN,,,,,,false,,,,96057,96056,,96056,,96075.78,8,400,,,
sequence,flow.Sequence,4_6,2023-11-01T16:07:20.601Z,,0,,,5000.800000000003,completion,,,,,false,,,,96057,96056,91055.04,91058,91055.2,96075.78,8,400,,,
trial,html.Screen,4_7_0,2023-11-01T16:07:27.538Z,,0,1,,6918.220000000001,response,ISIC_1452314.JPG,12,ISIC_7235371.JPG,ISIC_1452314.JPG,false,1,keypress(m),500,102994,102994,96059.12,96057,96075.78,102994,8,400,8,,ISIC_7235371.JPG
break,html.Screen,4_7_1,2023-11-01T16:07:27.539Z,,0,,,NaN,,,,,,false,,,,102995,102995,,102994,,102994,8,400,,,
break_continue,html.Screen,4_7_2,2023-11-01T16:07:27.539Z,,0,,,NaN,,,,,,false,,,,102995,102995,,102995,,102994,8,400,,,
sequence,flow.Sequence,4_7,2023-11-01T16:07:27.539Z,,0,,,6919.220000000001,completion,,,,,false,,,,102996,102995,96059.12,96057,96075.78,102994,8,400,,,
trial,html.Screen,4_8_0,2023-11-01T16:07:34.542Z,,0,1,,7002,response,ISIC_0011434.JPG,11,ISIC_0058647.JPG,ISIC_0058647.JPG,false,0,keypress(z),500,109997,109996,102993.78,102996,102994,109998.2,8,400,9,,ISIC_0011434.JPG
break,html.Screen,4_8_1,2023-11-01T16:07:34.543Z,,0,,,NaN,,,,,,false,,,,109998,109998,,109997,,109998.2,8,400,,,
break_continue,html.Screen,4_8_2,2023-11-01T16:07:34.543Z,,0,,,NaN,,,,,,false,,,,110000,109998,,109998,,109998.2,8,400,,,
sequence,flow.Sequence,4_8,2023-11-01T16:07:34.544Z,,0,,,7004,completion,,,,,false,,,,110000,109998,102993.78,102996,102994,109998.2,8,400,,,
trial,html.Screen,4_9_0,2023-11-01T16:07:44.894Z,,0,1,,10349.800000000003,response,ISIC_6268546.JPG,27,ISIC_4564163.JPG,ISIC_6268546.JPG,false,1,keypress(m),500,120349,120348,109997.64,110000,109998.2,120349.12,8,400,10,,ISIC_4564163.JPG
break,html.Screen,4_9_1,2023-11-01T16:07:44.895Z,,0,,,NaN,,,,,,false,,,,120350,120350,,120349,,120349.12,8,400,,,
break_continue,html.Screen,4_9_2,2023-11-01T16:07:44.895Z,,0,,,NaN,,,,,,false,,,,120351,120351,,120350,,120349.12,8,400,,,
sequence,flow.Sequence,4_9,2023-11-01T16:07:44.896Z,,0,,,10352.800000000003,completion,,,,,false,,,,120351,120351,109997.64,110000,109998.2,120349.12,8,400,,,
trial,html.Screen,4_10_0,2023-11-01T16:07:52.534Z,,0,1,,7639.880000000005,response,ISIC_0028998.JPG,12,ISIC_0061092.JPG,ISIC_0061092.JPG,false,0,keypress(z),500,127989,127989,120348.92,120352,120349.12,127989.52,8,400,11,,ISIC_0028998.JPG
break,html.Screen,4_10_1,2023-11-01T16:07:52.535Z,,0,,,NaN,,,,,,false,,,,127990,127990,,127990,,127989.52,8,400,,,
break_continue,html.Screen,4_10_2,2023-11-01T16:07:52.536Z,,0,,,NaN,,,,,,false,,,,127991,127990,,127990,,127989.52,8,400,,,
sequence,flow.Sequence,4_10,2023-11-01T16:07:52.536Z,,0,,,7640.880000000005,completion,,,,,false,,,,127991,127990,120348.92,120351,120349.12,127989.52,8,400,,,
trial,html.Screen,4_11_0,2023-11-01T16:07:56.608Z,,0,1,,4073.479999999996,response,ISIC_6644659.JPG,5,ISIC_1484659.JPG,ISIC_6644659.JPG,false,1,keypress(m),500,132064,132063,127989.34,127991,127989.52,132064,8,400,12,,ISIC_1484659.JPG
break,html.Screen,4_11_1,2023-11-01T16:07:56.609Z,,0,,,NaN,,,,,,false,,,,132065,132065,,132064,,132064,8,400,,,
break_continue,html.Screen,4_11_2,2023-11-01T16:07:56.609Z,,0,,,NaN,,,,,,false,,,,132065,132065,,132065,,132064,8,400,,,
sequence,flow.Sequence,4_11,2023-11-01T16:07:56.609Z,,0,,,4075.479999999996,completion,,,,,false,,,,132065,132065,127989.34,127991,127989.52,132064,8,400,,,
trial,html.Screen,4_12_0,2023-11-01T16:08:05.562Z,,0,1,,8953,response,ISIC_8133350.JPG,23,ISIC_0030970.JPG,ISIC_8133350.JPG,false,1,keypress(m),500,141018,141017,132063.78,132066,132064,141031.24,8,400,13,,ISIC_0030970.JPG
break,html.Screen,4_12_1,2023-11-01T16:08:05.562Z,,0,,,NaN,,,,,,false,,,,141018,141018,,141018,,141031.24,8,400,,,
break_continue,html.Screen,4_12_2,2023-11-01T16:08:05.563Z,,0,,,NaN,,,,,,false,,,,141018,141018,,141018,,141031.24,8,400,,,
sequence,flow.Sequence,4_12,2023-11-01T16:08:05.564Z,,0,,,8954,completion,,,,,false,,,,141018,141018,132063.78,132066,132064,141031.24,8,400,,,
trial,html.Screen,4_13_0,2023-11-01T16:08:12.101Z,,0,1,,6524.760000000009,response,ISIC_2033237.JPG,8,ISIC_0033428.JPG,ISIC_0033428.JPG,false,0,keypress(z),500,147556,147556,141017.46,141019,141031.24,147556.72,8,400,14,,ISIC_2033237.JPG
break,html.Screen,4_13_1,2023-11-01T16:08:12.102Z,,0,,,NaN,,,,,,false,,,,147557,147557,,147556,,147556.72,8,400,,,
break_continue,html.Screen,4_13_2,2023-11-01T16:08:12.103Z,,0,,,NaN,,,,,,false,,,,147558,147558,,147558,,147556.72,8,400,,,
sequence,flow.Sequence,4_13,2023-11-01T16:08:12.103Z,,0,,,6526.760000000009,completion,,,,,false,,,,147558,147558,141017.46,141019,141031.24,147556.72,8,400,,,
trial,html.Screen,4_14_0,2023-11-01T16:08:15.936Z,,0,1,,3835.279999999999,response,ISIC_0067485.JPG,7,ISIC_0073044.JPG,ISIC_0073044.JPG,false,0,keypress(z),500,151392,151392,147556.58,147559,147556.72,151393.28,8,400,15,,ISIC_0067485.JPG
break,html.Screen,4_14_1,2023-11-01T16:08:15.938Z,,0,,,NaN,,,,,,false,,,,151393,151393,,151393,,151393.28,8,400,,,
break_continue,html.Screen,4_14_2,2023-11-01T16:08:15.939Z,,0,,,NaN,,,,,,false,,,,151394,151393,,151393,,151393.28,8,400,,,
sequence,flow.Sequence,4_14,2023-11-01T16:08:15.939Z,,0,,,3836.279999999999,completion,,,,,false,,,,151394,151393,147556.58,147559,147556.72,151393.28,8,400,,,
trial,html.Screen,4_15_0,2023-11-01T16:08:19.371Z,,0,1,,3432.720000000001,response,ISIC_6036959.JPG,24,ISIC_1650523.JPG,ISIC_6036959.JPG,false,1,keypress(m),500,154826,154826,151392.62,151394,151393.28,154829.28,8,400,16,,ISIC_1650523.JPG
break,html.Screen,4_15_1,2023-11-01T16:08:19.371Z,,0,,,NaN,,,,,,false,,,,154827,154827,,154826,,154829.28,8,400,,,
break_continue,html.Screen,4_15_2,2023-11-01T16:08:19.372Z,,0,,,NaN,,,,,,false,,,,154827,154827,,154827,,154829.28,8,400,,,
sequence,flow.Sequence,4_15,2023-11-01T16:08:19.372Z,,0,,,3433.720000000001,completion,,,,,false,,,,154827,154827,151392.62,151394,151393.28,154829.28,8,400,,,
trial,html.Screen,4_16_0,2023-11-01T16:08:23.208Z,,0,1,,3834.720000000001,response,ISIC_0010433.JPG,0,ISIC_0069105.JPG,ISIC_0069105.JPG,false,0,keypress(z),500,158664,158664,154826.32,154827,154829.28,158664.1,8,400,17,,ISIC_0010433.JPG
break,html.Screen,4_16_1,2023-11-01T16:08:23.209Z,,0,,,NaN,,,,,,false,,,,158665,158665,,158664,,158664.1,8,400,,,
break_continue,html.Screen,4_16_2,2023-11-01T16:08:23.210Z,,0,,,NaN,,,,,,false,,,,158665,158665,,158665,,158664.1,8,400,,,
sequence,flow.Sequence,4_16,2023-11-01T16:08:23.210Z,,0,,,3835.720000000001,completion,,,,,false,,,,158665,158665,154826.32,154827,154829.28,158664.1,8,400,,,
trial,html.Screen,4_17_0,2023-11-01T16:08:26.743Z,,0,1,,3533.899999999994,response,ISIC_2720971.JPG,24,ISIC_8027899.JPG,ISIC_8027899.JPG,false,0,keypress(z),500,162199,162198,158663.94,158665,158664.1,162202.54,8,400,18,,ISIC_2720971.JPG
break,html.Screen,4_17_1,2023-11-01T16:08:26.745Z,,0,,,NaN,,,,,,false,,,,162200,162200,,162199,,162202.54,8,400,,,
break_continue,html.Screen,4_17_2,2023-11-01T16:08:26.745Z,,0,,,NaN,,,,,,false,,,,162201,162201,,162200,,162202.54,8,400,,,
sequence,flow.Sequence,4_17,2023-11-01T16:08:26.746Z,,0,,,3536.899999999994,completion,,,,,false,,,,162201,162201,158663.94,158665,158664.1,162202.54,8,400,,,
trial,html.Screen,4_18_0,2023-11-01T16:08:30.990Z,,0,1,,4243.459999999992,response,ISIC_0069620.JPG,11,ISIC_0610477.JPG,ISIC_0069620.JPG,false,1,keypress(m),500,166446,166446,162198.84,162201,162202.54,166446.9,8,400,19,,ISIC_0610477.JPG
break,html.Screen,4_18_1,2023-11-01T16:08:30.991Z,,0,,,NaN,,,,,,false,,,,166446,166446,,166446,,166446.9,8,400,,,
break_continue,html.Screen,4_18_2,2023-11-01T16:08:30.992Z,,0,,,NaN,,,,,,false,,,,166446,166446,,166446,,166446.9,8,400,,,
sequence,flow.Sequence,4_18,2023-11-01T16:08:30.992Z,,0,,,4243.459999999992,completion,,,,,false,,,,166447,166446,162198.84,162201,162202.54,166446.9,8,400,,,
trial,html.Screen,4_19_0,2023-11-01T16:08:34.270Z,,0,1,,3278.100000000006,response,ISIC_0032019.JPG,1,ISIC_1974281.JPG,ISIC_0032019.JPG,false,1,keypress(m),500,169725,169725,166445.6,166447,166446.9,169725.84,8,400,20,,ISIC_1974281.JPG
break,html.Screen,4_19_1,2023-11-01T16:08:34.271Z,,0,,,NaN,,,,,,false,,,,169727,169726,,169725,,169725.84,8,400,,,
break_continue,html.Screen,4_19_2,2023-11-01T16:08:34.272Z,,0,,,NaN,,,,,,false,,,,169727,169727,,169727,,169725.84,8,400,,,
sequence,flow.Sequence,4_19,2023-11-01T16:08:34.272Z,,0,,,3280.100000000006,completion,,,,,false,,,,169727,169727,166445.6,166447,166446.9,169725.84,8,400,,,
trial,html.Screen,4_20_0,2023-11-01T16:08:40.222Z,,0,1,,5951.1600000000035,response,ISIC_0011626.JPG,21,ISIC_8124900.JPG,ISIC_0011626.JPG,false,1,keypress(m),500,175677,175677,169725.64,169728,169725.84,175678.16,8,400,21,,ISIC_8124900.JPG
break,html.Screen,4_20_1,2023-11-01T16:08:40.223Z,,0,,,NaN,,,,,,false,,,,175679,175678,,175677,,175678.16,8,400,,,
break_continue,html.Screen,4_20_2,2023-11-01T16:08:40.224Z,,0,,,NaN,,,,,,false,,,,175679,175679,,175679,,175678.16,8,400,,,
sequence,flow.Sequence,4_20,2023-11-01T16:08:40.224Z,,0,,,5953.1600000000035,completion,,,,,false,,,,175679,175679,169725.64,169727,169725.84,175678.16,8,400,,,
trial,html.Screen,4_21_0,2023-11-01T16:08:45.471Z,,0,1,,5248.8399999999965,response,ISIC_0024351.JPG,7,ISIC_5287679.JPG,ISIC_5287679.JPG,false,0,keypress(z),500,180927,180927,175677.94,175679,175678.16,180926.88,8,400,22,,ISIC_0024351.JPG
break,html.Screen,4_21_1,2023-11-01T16:08:45.472Z,,0,,,NaN,,,,,,false,,,,180928,180928,,180927,,180926.88,8,400,,,
break_continue,html.Screen,4_21_2,2023-11-01T16:08:45.473Z,,0,,,NaN,,,,,,false,,,,180928,180928,,180928,,180926.88,8,400,,,
sequence,flow.Sequence,4_21,2023-11-01T16:08:45.473Z,,0,,,5249.8399999999965,completion,,,,,false,,,,180929,180928,175677.94,175679,175678.16,180926.88,8,400,,,
trial,html.Screen,4_22_0,2023-11-01T16:08:55.113Z,,0,1,,9641.119999999995,response,ISIC_9744305.JPG,7,ISIC_0034164.JPG,ISIC_9744305.JPG,false,1,keypress(m),500,190568,190568,180926.72,180929,180926.88,190568.44,8,400,23,,ISIC_0034164.JPG
break,html.Screen,4_22_1,2023-11-01T16:08:55.113Z,,0,,,NaN,,,,,,false,,,,190569,190569,,190568,,190568.44,8,400,,,
break_continue,html.Screen,4_22_2,2023-11-01T16:08:55.114Z,,0,,,NaN,,,,,,false,,,,190569,190569,,190569,,190568.44,8,400,,,
sequence,flow.Sequence,4_22,2023-11-01T16:08:55.114Z,,0,,,9642.119999999995,completion,,,,,false,,,,190569,190569,180926.72,180929,180926.88,190568.44,8,400,,,
trial,html.Screen,4_23_0,2023-11-01T16:09:02.638Z,,0,1,,7524.559999999998,response,ISIC_6382207.JPG,26,ISIC_0806140.JPG,ISIC_6382207.JPG,false,1,keypress(m),500,198094,198093,190568.26,190569,190568.44,198093.64,8,400,24,,ISIC_0806140.JPG
break,html.Screen,4_23_1,2023-11-01T16:09:02.638Z,,0,,,NaN,,,,,,false,,,,198094,198094,,198094,,198093.64,8,400,,,
break_continue,html.Screen,4_23_2,2023-11-01T16:09:02.639Z,,0,,,NaN,,,,,,false,,,,198095,198095,,198095,,198093.64,8,400,,,
sequence,flow.Sequence,4_23,2023-11-01T16:09:02.639Z,,0,,,7526.559999999998,completion,,,,,false,,,,198095,198095,190568.26,190569,190568.44,198093.64,8,400,,,
trial,html.Screen,4_24_0,2023-11-01T16:09:08.043Z,,0,1,,5405.359999999986,response,ISIC_0011721.JPG,12,ISIC_1637588.JPG,ISIC_1637588.JPG,false,0,keypress(z),500,203499,203499,198093.44,198095,198093.64,203499.44,8,400,25,,ISIC_0011721.JPG
break,html.Screen,4_24_1,2023-11-01T16:09:08.044Z,,0,,,NaN,,,,,,false,,,,203500,203499,,203499,,203499.44,8,400,,,
break_continue,html.Screen,4_24_2,2023-11-01T16:09:08.045Z,,0,,,NaN,,,,,,false,,,,203500,203500,,203500,,203499.44,8,400,,,
sequence,flow.Sequence,4_24,2023-11-01T16:09:08.045Z,,0,,,5406.359999999986,completion,,,,,false,,,,203500,203500,198093.44,198095,198093.64,203499.44,8,400,,,
trial,html.Screen,4_25_0,2023-11-01T16:09:13.896Z,,0,1,,5850.559999999998,response,ISIC_5835414.JPG,15,ISIC_0011268.JPG,ISIC_0011268.JPG,false,0,keypress(z),500,209351,209350,203499.28,203500,203499.44,209351.54,8,400,26,,ISIC_5835414.JPG
break,html.Screen,4_25_1,2023-11-01T16:09:13.897Z,,0,,,NaN,,,,,,false,,,,209352,209351,,209351,,209351.54,8,400,,,
break_continue,html.Screen,4_25_2,2023-11-01T16:09:13.898Z,,0,,,NaN,,,,,,false,,,,209352,209352,,209352,,209351.54,8,400,,,
sequence,flow.Sequence,4_25,2023-11-01T16:09:13.898Z,,0,,,5852.559999999998,completion,,,,,false,,,,209352,209352,203499.28,203500,203499.44,209351.54,8,400,,,
trial,html.Screen,4_26_0,2023-11-01T16:09:21.462Z,,0,1,,7565.459999999992,response,ISIC_0056364.JPG,15,ISIC_0029013.JPG,ISIC_0029013.JPG,false,0,keypress(z),500,216917,216917,209351.32,209353,209351.54,216917.5,8,400,27,,ISIC_0056364.JPG
break,html.Screen,4_26_1,2023-11-01T16:09:21.463Z,,0,,,NaN,,,,,,false,,,,216918,216918,,216917,,216917.5,8,400,,,
break_continue,html.Screen,4_26_2,2023-11-01T16:09:21.463Z,,0,,,NaN,,,,,,false,,,,216918,216918,,216918,,216917.5,8,400,,,
sequence,flow.Sequence,4_26,2023-11-01T16:09:21.464Z,,0,,,7566.459999999992,completion,,,,,false,,,,216919,216918,209351.32,209353,209351.54,216917.5,8,400,,,
trial,html.Screen,4_27_0,2023-11-01T16:09:26.754Z,,0,1,,5291.5,response,ISIC_0420249.JPG,13,ISIC_0033289.JPG,ISIC_0033289.JPG,false,0,keypress(z),500,222210,222209,216917.22,216919,216917.5,222209.92,8,400,28,,ISIC_0420249.JPG
break,html.Screen,4_27_1,2023-11-01T16:09:26.755Z,,0,,,NaN,,,,,,false,,,,222210,222210,,222210,,222209.92,8,400,,,
break_continue,html.Screen,4_27_2,2023-11-01T16:09:26.755Z,,0,,,NaN,,,,,,false,,,,222211,222211,,222211,,222209.92,8,400,,,
sequence,flow.Sequence,4_27,2023-11-01T16:09:26.755Z,,0,,,5293.5,completion,,,,,false,,,,222211,222211,216917.22,216919,216917.5,222209.92,8,400,,,
trial,html.Screen,4_28_0,2023-11-01T16:09:30.720Z,,0,1,,3965.079999999987,response,ISIC_2614347.JPG,2,ISIC_0057556.JPG,ISIC_0057556.JPG,false,0,keypress(z),500,226175,226175,222209.66,222211,222209.92,226175.68,8,400,29,,ISIC_2614347.JPG
break,html.Screen,4_28_1,2023-11-01T16:09:30.721Z,,0,,,NaN,,,,,,false,,,,226176,226176,,226175,,226175.68,8,400,,,
break_continue,html.Screen,4_28_2,2023-11-01T16:09:30.721Z,,0,,,NaN,,,,,,false,,,,226176,226176,,226176,,226175.68,8,400,,,
sequence,flow.Sequence,4_28,2023-11-01T16:09:30.721Z,,0,,,3966.079999999987,completion,,,,,false,,,,226176,226176,222209.66,222211,222209.92,226175.68,8,400,,,
trial,html.Screen,4_29_0,2023-11-01T16:09:35.302Z,,0,1,,4581.320000000007,response,ISIC_7637597.JPG,30,ISIC_1777398.JPG,ISIC_7637597.JPG,false,1,keypress(m),500,230757,230757,226175.54,226177,226175.68,230759.3,8,400,30,,ISIC_1777398.JPG
break,html.Screen,4_29_1,2023-11-01T16:09:35.303Z,,0,,,NaN,,,,,,false,,,,230758,230758,,230757,,230759.3,8,400,,,
break_continue,html.Screen,4_29_2,2023-11-01T16:09:35.303Z,,0,,,NaN,,,,,,false,,,,230759,230758,,230758,,230759.3,8,400,,,
sequence,flow.Sequence,4_29,2023-11-01T16:09:35.303Z,,0,,,4582.320000000007,completion,,,,,false,,,,230759,230758,226175.54,226177,226175.68,230759.3,8,400,,,
trial,html.Screen,4_30_0,2023-11-01T16:09:39.928Z,,0,1,,4623.700000000012,response,ISIC_0072748.JPG,11,ISIC_0027252.JPG,ISIC_0027252.JPG,false,0,keypress(z),500,235383,235383,230757.48,230759,230759.3,235386.52,8,400,31,,ISIC_0072748.JPG
break,html.Screen,4_30_1,2023-11-01T16:09:39.929Z,,0,,,NaN,,,,,,false,,,,235384,235384,,235383,,235386.52,8,400,,,
break_continue,html.Screen,4_30_2,2023-11-01T16:09:39.929Z,,0,,,NaN,,,,,,false,,,,235384,235384,,235384,,235386.52,8,400,,,
sequence,flow.Sequence,4_30,2023-11-01T16:09:39.930Z,,0,,,4624.700000000012,completion,,,,,false,,,,235385,235384,230757.48,230759,230759.3,235386.52,8,400,,,
trial,html.Screen,4_31_0,2023-11-01T16:09:43.411Z,,0,1,,3479.4800000000105,response,ISIC_0032204.JPG,14,ISIC_6613079.JPG,ISIC_6613079.JPG,false,0,keypress(z),500,238866,238866,235383.18,235385,235386.52,238866.76,8,400,32,,ISIC_0032204.JPG
break,html.Screen,4_31_1,2023-11-01T16:09:43.412Z,,0,,,NaN,,,,,,false,,,,238868,238867,,238866,,238866.76,8,400,,,
break_continue,html.Screen,4_31_2,2023-11-01T16:09:43.412Z,,0,,,NaN,,,,,,false,,,,238868,238868,,238868,,238866.76,8,400,,,
sequence,flow.Sequence,4_31,2023-11-01T16:09:43.412Z,,0,,,3481.4800000000105,completion,,,,,false,,,,238868,238868,235383.18,235385,235386.52,238866.76,8,400,,,
trial,html.Screen,4_32_0,2023-11-01T16:09:49.895Z,,0,1,,6483.239999999991,response,ISIC_0025611.JPG,15,ISIC_0062468.JPG,ISIC_0025611.JPG,false,1,keypress(m),500,245351,245350,238866.6,238868,238866.76,245372.64,8,400,33,,ISIC_0062468.JPG
break,html.Screen,4_32_1,2023-11-01T16:09:49.896Z,,0,,,NaN,,,,,,false,,,,245352,245352,,245351,,245372.64,8,400,,,
break_continue,html.Screen,4_32_2,2023-11-01T16:09:49.896Z,,0,,,NaN,,,,,,false,,,,245352,245352,,245352,,245372.64,8,400,,,
sequence,flow.Sequence,4_32,2023-11-01T16:09:49.896Z,,0,,,6485.239999999991,completion,,,,,false,,,,245352,245352,238866.6,238868,238866.76,245372.64,8,400,,,
trial,html.Screen,4_33_0,2023-11-01T16:09:54.361Z,,0,1,,4443.359999999986,response,ISIC_0979974.JPG,2,ISIC_0011695.JPG,ISIC_0011695.JPG,false,0,keypress(z),500,249816,249816,245356.22,245353,245372.64,249816.16,8,400,34,,ISIC_0979974.JPG
break,html.Screen,4_33_1,2023-11-01T16:09:54.361Z,,0,,,NaN,,,,,,false,,,,249817,249816,,249816,,249816.16,8,400,,,
break_continue,html.Screen,4_33_2,2023-11-01T16:09:54.362Z,,0,,,NaN,,,,,,false,,,,249817,249817,,249817,,249816.16,8,400,,,
sequence,flow.Sequence,4_33,2023-11-01T16:09:54.362Z,,0,,,4444.359999999986,completion,,,,,false,,,,249817,249817,245356.22,245352,245372.64,249816.16,8,400,,,
trial,html.Screen,4_34_0,2023-11-01T16:10:05.846Z,,0,1,,11518.26000000001,timeout,ISIC_3305055.JPG,23,ISIC_0071797.JPG,,false,,,500,261302,261301,249815.96,249817,249816.16,261334.42,8,400,35,,
break,html.Screen,4_34_1,2023-11-01T16:10:05.847Z,,0,,,NaN,,,,,,false,,,,261302,261302,,261302,,261334.42,8,400,,,
break_continue,html.Screen,4_34_2,2023-11-01T16:10:05.847Z,,0,,,NaN,,,,,,false,,,,261302,261302,,261302,,261334.42,8,400,,,
sequence,flow.Sequence,4_34,2023-11-01T16:10:05.848Z,,0,,,11485.839999999997,completion,,,,,false,,,,261303,261302,249815.96,249817,249816.16,261334.42,8,400,,,
trial,html.Screen,4_35_0,2023-11-01T16:10:11.162Z,,0,1,,5282.579999999987,response,ISIC_0056063.JPG,5,ISIC_2693412.JPG,ISIC_2693412.JPG,false,0,keypress(z),500,266617,266617,261317.76,261303,261334.42,266617.8,8,400,36,,ISIC_0056063.JPG
break,html.Screen,4_35_1,2023-11-01T16:10:11.163Z,,0,,,NaN,,,,,,false,,,,266619,266618,,266618,,266617.8,8,400,,,
break_continue,html.Screen,4_35_2,2023-11-01T16:10:11.164Z,,0,,,NaN,,,,,,false,,,,266619,266619,,266619,,266617.8,8,400,,,
sequence,flow.Sequence,4_35,2023-11-01T16:10:11.164Z,,0,,,5284.579999999987,completion,,,,,false,,,,266620,266619,261317.76,261303,261334.42,266617.8,8,400,,,
trial,html.Screen,4_36_0,2023-11-01T16:10:14.703Z,,0,1,,3539.2000000000116,response,ISIC_2215276.JPG,20,ISIC_7075474.JPG,ISIC_7075474.JPG,false,0,keypress(z),500,270157,270157,266617.52,266620,266617.8,270158.2,8,400,37,,ISIC_2215276.JPG
break,html.Screen,4_36_1,2023-11-01T16:10:14.704Z,,0,,,NaN,,,,,,false,,,,270159,270159,,270158,,270158.2,8,400,,,
break_continue,html.Screen,4_36_2,2023-11-01T16:10:14.704Z,,0,,,NaN,,,,,,false,,,,270160,270160,,270159,,270158.2,8,400,,,
sequence,flow.Sequence,4_36,2023-11-01T16:10:14.705Z,,0,,,3542.2000000000116,completion,,,,,false,,,,270160,270160,266617.52,266620,266617.8,270158.2,8,400,,,
trial,html.Screen,4_37_0,2023-11-01T16:10:19.800Z,,0,1,,5096.799999999988,response,ISIC_0015258.JPG,22,ISIC_0055680.JPG,ISIC_0055680.JPG,false,0,keypress(z),500,275255,275255,270157.98,270160,270158.2,275255.72,8,400,38,,ISIC_0015258.JPG
break,html.Screen,4_37_1,2023-11-01T16:10:19.800Z,,0,,,NaN,,,,,,false,,,,275256,275256,,275255,,275255.72,8,400,,,
break_continue,html.Screen,4_37_2,2023-11-01T16:10:19.801Z,,0,,,NaN,,,,,,false,,,,275256,275256,,275256,,275255.72,8,400,,,
sequence,flow.Sequence,4_37,2023-11-01T16:10:19.801Z,,0,,,5097.799999999988,completion,,,,,false,,,,275257,275256,270157.98,270160,270158.2,275255.72,8,400,,,
trial,html.Screen,4_38_0,2023-11-01T16:10:23.051Z,,0,1,,3250.280000000028,response,ISIC_9096302.JPG,30,ISIC_6340564.JPG,ISIC_9096302.JPG,false,1,keypress(m),500,278506,278506,275255.54,275257,275255.72,278506.44,8,400,39,,ISIC_6340564.JPG
break,html.Screen,4_38_1,2023-11-01T16:10:23.052Z,,0,,,NaN,,,,,,false,,,,278507,278507,,278507,,278506.44,8,400,,,
break_continue,html.Screen,4_38_2,2023-11-01T16:10:23.052Z,,0,,,NaN,,,,,,false,,,,278507,278507,,278507,,278506.44,8,400,,,
sequence,flow.Sequence,4_38,2023-11-01T16:10:23.052Z,,0,,,3251.280000000028,completion,,,,,false,,,,278507,278507,275255.54,275257,275255.72,278506.44,8,400,,,
trial,html.Screen,4_39_0,2023-11-01T16:10:26.982Z,,0,1,,3930.5599999999977,response,ISIC_6790780.JPG,23,ISIC_4084359.JPG,ISIC_6790780.JPG,false,1,keypress(m),500,282438,282437,278506.24,278508,278506.44,282439,8,400,40,,ISIC_4084359.JPG
break,html.Screen,4_39_1,2023-11-01T16:10:26.983Z,,0,,,NaN,,,,,,false,,,,282439,282439,,282438,,282439,8,400,,,
break_continue,html.Screen,4_39_2,2023-11-01T16:10:26.984Z,,0,,,NaN,,,,,,false,,,,282439,282439,,282439,,282439,8,400,,,
sequence,flow.Sequence,4_39,2023-11-01T16:10:26.984Z,,0,,,3932.5599999999977,completion,,,,,false,,,,282440,282439,278506.24,278508,278506.44,282439,8,400,,,
trial,html.Screen,4_40_0,2023-11-01T16:10:30.879Z,,0,1,,3896,response,ISIC_5092834.JPG,8,ISIC_0028306.JPG,ISIC_0028306.JPG,false,0,keypress(z),500,286335,286335,282437.96,282440,282439,286335.24,8,400,41,,ISIC_5092834.JPG
break,html.Screen,4_40_1,2023-11-01T16:10:30.880Z,,0,,,NaN,,,,,,false,,,,286335,286335,,286335,,286335.24,8,400,,,
break_continue,html.Screen,4_40_2,2023-11-01T16:10:30.880Z,,0,,,NaN,,,,,,false,,,,286336,286336,,286335,,286335.24,8,400,,,
sequence,flow.Sequence,4_40,2023-11-01T16:10:30.880Z,,0,,,3897,completion,,,,,false,,,,286336,286336,282437.96,282440,282439,286335.24,8,400,,,
trial,html.Screen,4_41_0,2023-11-01T16:10:36.481Z,,0,1,,5601.760000000009,response,ISIC_0033213.JPG,9,ISIC_2476624.JPG,ISIC_0033213.JPG,false,1,keypress(m),500,291937,291937,286335.06,286336,286335.24,291936.78,8,400,42,,ISIC_2476624.JPG
break,html.Screen,4_41_1,2023-11-01T16:10:36.481Z,,0,,,NaN,,,,,,false,,,,291937,291937,,291937,,291936.78,8,400,,,
break_continue,html.Screen,4_41_2,2023-11-01T16:10:36.482Z,,0,,,NaN,,,,,,false,,,,291938,291938,,291937,,291936.78,8,400,,,
sequence,flow.Sequence,4_41,2023-11-01T16:10:36.482Z,,0,,,5602.760000000009,completion,,,,,false,,,,291938,291938,286335.06,286336,286335.24,291936.78,8,400,,,
trial,html.Screen,4_42_0,2023-11-01T16:10:42.872Z,,0,1,,6389.219999999972,response,ISIC_0034089.JPG,16,ISIC_9417173.JPG,ISIC_9417173.JPG,false,0,keypress(z),500,298327,298326,291936.58,291938,291936.78,298328.02,8,400,43,,ISIC_0034089.JPG
break,html.Screen,4_42_1,2023-11-01T16:10:42.873Z,,0,,,NaN,,,,,,false,,,,298328,298328,,298327,,298328.02,8,400,,,
break_continue,html.Screen,4_42_2,2023-11-01T16:10:42.874Z,,0,,,NaN,,,,,,false,,,,298329,298329,,298328,,298328.02,8,400,,,
sequence,flow.Sequence,4_42,2023-11-01T16:10:42.874Z,,0,,,6392.219999999972,completion,,,,,false,,,,298330,298329,291936.58,291938,291936.78,298328.02,8,400,,,
trial,html.Screen,4_43_0,2023-11-01T16:10:46.545Z,,0,1,,3671.9799999999814,response,ISIC_6382207.JPG,15,ISIC_2259861.JPG,ISIC_2259861.JPG,false,0,keypress(z),500,302000,302000,298327.54,298330,298328.02,302001.02,8,400,44,,ISIC_6382207.JPG
break,html.Screen,4_43_1,2023-11-01T16:10:46.546Z,,0,,,NaN,,,,,,false,,,,302001,302001,,302000,,302001.02,8,400,,,
break_continue,html.Screen,4_43_2,2023-11-01T16:10:46.547Z,,0,,,NaN,,,,,,false,,,,302002,302002,,302001,,302001.02,8,400,,,
sequence,flow.Sequence,4_43,2023-11-01T16:10:46.547Z,,0,,,3673.9799999999814,completion,,,,,false,,,,302002,302002,298327.54,298330,298328.02,302001.02,8,400,,,
trial,html.Screen,4_44_0,2023-11-01T16:10:50.352Z,,0,1,,3805.9799999999814,response,ISIC_9462979.JPG,26,ISIC_0006108.JPG,ISIC_0006108.JPG,false,0,keypress(z),500,305807,305807,302000.82,302002,302001.02,305807.54,8,400,45,,ISIC_9462979.JPG
break,html.Screen,4_44_1,2023-11-01T16:10:50.353Z,,0,,,NaN,,,,,,false,,,,305808,305808,,305807,,305807.54,8,400,,,
break_continue,html.Screen,4_44_2,2023-11-01T16:10:50.353Z,,0,,,NaN,,,,,,false,,,,305808,305808,,305808,,305807.54,8,400,,,
sequence,flow.Sequence,4_44,2023-11-01T16:10:50.354Z,,0,,,3806.9799999999814,completion,,,,,false,,,,305808,305808,302000.82,302002,302001.02,305807.54,8,400,,,
trial,html.Screen,4_45_0,2023-11-01T16:10:55.127Z,,0,1,,4775.460000000021,response,ISIC_4156010.JPG,28,ISIC_0011185.JPG,ISIC_0011185.JPG,false,0,keypress(z),500,310583,310583,305807.24,305809,305807.54,310583.6,8,400,46,,ISIC_4156010.JPG
break,html.Screen,4_45_1,2023-11-01T16:10:55.128Z,,0,,,NaN,,,,,,false,,,,310584,310583,,310583,,310583.6,8,400,,,
break_continue,html.Screen,4_45_2,2023-11-01T16:10:55.129Z,,0,,,NaN,,,,,,false,,,,310585,310585,,310584,,310583.6,8,400,,,
sequence,flow.Sequence,4_45,2023-11-01T16:10:55.129Z,,0,,,4777.460000000021,completion,,,,,false,,,,310585,310585,305807.24,305808,305807.54,310583.6,8,400,,,
trial,html.Screen,4_46_0,2023-11-01T16:10:58.839Z,,0,1,,3710.4000000000233,response,ISIC_0025379.JPG,3,ISIC_6678508.JPG,ISIC_6678508.JPG,false,0,keypress(z),500,314295,314294,310583.4,310585,310583.6,314295.48,8,400,47,,ISIC_0025379.JPG
break,html.Screen,4_46_1,2023-11-01T16:10:58.840Z,,0,,,NaN,,,,,,false,,,,314296,314296,,314295,,314295.48,8,400,,,
break_continue,html.Screen,4_46_2,2023-11-01T16:10:58.841Z,,0,,,NaN,,,,,,false,,,,314297,314296,,314296,,314295.48,8,400,,,
sequence,flow.Sequence,4_46,2023-11-01T16:10:58.841Z,,0,,,3712.4000000000233,completion,,,,,false,,,,314297,314296,310583.4,310585,310583.6,314295.48,8,400,,,
trial,html.Screen,4_47_0,2023-11-01T16:11:01.838Z,,0,1,,2997.5200000000186,response,ISIC_9268141.JPG,18,ISIC_0033498.JPG,ISIC_9268141.JPG,false,1,keypress(m),500,317293,317293,314295.26,314297,314295.48,317293.22,8,400,48,,ISIC_0033498.JPG
break,html.Screen,4_47_1,2023-11-01T16:11:01.839Z,,0,,,NaN,,,,,,false,,,,317293,317293,,317293,,317293.22,8,400,,,
break_continue,html.Screen,4_47_2,2023-11-01T16:11:01.839Z,,0,,,NaN,,,,,,false,,,,317295,317294,,317293,,317293.22,8,400,,,
sequence,flow.Sequence,4_47,2023-11-01T16:11:01.839Z,,0,,,2998.5200000000186,completion,,,,,false,,,,317295,317294,314295.26,314297,314295.48,317293.22,8,400,,,
trial,html.Screen,4_48_0,2023-11-01T16:11:07.913Z,,0,1,,6074.780000000028,response,ISIC_0001596.JPG,11,ISIC_0765973.JPG,ISIC_0765973.JPG,false,0,keypress(z),500,323368,323368,317293.04,317295,317293.22,323368.74,8,400,49,,ISIC_0001596.JPG
break,html.Screen,4_48_1,2023-11-01T16:11:07.913Z,,0,,,NaN,,,,,,false,,,,323369,323369,,323369,,323368.74,8,400,,,
break_continue,html.Screen,4_48_2,2023-11-01T16:11:07.914Z,,0,,,NaN,,,,,,false,,,,323370,323369,,323369,,323368.74,8,400,,,
sequence,flow.Sequence,4_48,2023-11-01T16:11:07.914Z,,0,,,6075.780000000028,completion,,,,,false,,,,323370,323369,317293.04,317295,317293.22,323368.74,8,400,,,
trial,html.Screen,4_49_0,2023-11-01T16:11:13.025Z,,0,1,,5111.260000000009,response,ISIC_0005854.JPG,9,ISIC_0032622.JPG,ISIC_0005854.JPG,false,1,keypress(m),500,328481,328480,323368.54,323370,323368.74,328480.54,8,400,50,,ISIC_0032622.JPG
break,html.Screen,4_49_1,2023-11-01T16:11:23.008Z,,0,,,9998.920000000042,timeout,,,,,false,,,,338464,338462.78,328480.32,328481,328480.54,338479.46,8,400,,,
break_continue,html.Screen,4_49_2,2023-11-01T16:11:24.216Z,,0,,,1178.539999999979,response,,,,,false,continue,keypress(Space),,339672,339658,338462.78,338464,338479.46,339672.66,8,400,,,
sequence,flow.Sequence,4_49,2023-11-01T16:11:24.217Z,,0,,,16289.26000000001,completion,,,,,false,,,,339672,339658,323368.54,323370,323368.74,339672.66,8,400,,,
trial,html.Screen,4_50_0,2023-11-01T16:11:28.525Z,,0,2,,4307.340000000026,response,ISIC_0024683.JPG,8,ISIC_0013634.JPG,ISIC_0024683.JPG,false,1,keypress(m),500,343980,343980,339672.48,339673,339672.66,343981,8,400,1,,ISIC_0013634.JPG
break,html.Screen,4_50_1,2023-11-01T16:11:28.526Z,,0,,,NaN,,,,,,false,,,,343981,343981,,343981,,343981,8,400,,,
break_continue,html.Screen,4_50_2,2023-11-01T16:11:28.526Z,,0,,,NaN,,,,,,false,,,,343982,343982,,343981,,343981,8,400,,,
sequence,flow.Sequence,4_50,2023-11-01T16:11:28.527Z,,0,,,4309.340000000026,completion,,,,,false,,,,343982,343982,339672.48,339673,339672.66,343981,8,400,,,
trial,html.Screen,4_51_0,2023-11-01T16:11:33.598Z,,0,2,,5072,response,ISIC_9050608.JPG,1,ISIC_3481133.JPG,ISIC_9050608.JPG,false,1,keypress(m),500,349054,349053,343980.8,343982,343981,349053.84,8,400,2,,ISIC_3481133.JPG
break,html.Screen,4_51_1,2023-11-01T16:11:33.599Z,,0,,,NaN,,,,,,false,,,,349054,349054,,349054,,349053.84,8,400,,,
break_continue,html.Screen,4_51_2,2023-11-01T16:11:33.600Z,,0,,,NaN,,,,,,false,,,,349055,349055,,349054,,349053.84,8,400,,,
sequence,flow.Sequence,4_51,2023-11-01T16:11:33.600Z,,0,,,5074,completion,,,,,false,,,,349055,349055,343980.8,343982,343981,349053.84,8,400,,,
trial,html.Screen,4_52_0,2023-11-01T16:11:38.243Z,,0,2,,4644.159999999974,response,ISIC_4532303.JPG,16,ISIC_0056635.JPG,ISIC_0056635.JPG,false,0,keypress(z),500,353698,353698,349053.62,349055,349053.84,353698.38,8,400,3,,ISIC_4532303.JPG
break,html.Screen,4_52_1,2023-11-01T16:11:38.244Z,,0,,,NaN,,,,,,false,,,,353698,353698,,353698,,353698.38,8,400,,,
break_continue,html.Screen,4_52_2,2023-11-01T16:11:38.244Z,,0,,,NaN,,,,,,false,,,,353699,353699,,353699,,353698.38,8,400,,,
sequence,flow.Sequence,4_52,2023-11-01T16:11:38.244Z,,0,,,4645.159999999974,completion,,,,,false,,,,353699,353699,349053.62,349055,349053.84,353698.38,8,400,,,
trial,html.Screen,4_53_0,2023-11-01T16:11:42.246Z,,0,2,,4002.6199999999953,response,ISIC_6814221.JPG,22,ISIC_0030333.JPG,ISIC_0030333.JPG,false,0,keypress(z),500,357701,357701,353698.16,353699,353698.38,357703.22,8,400,4,,ISIC_6814221.JPG
break,html.Screen,4_53_1,2023-11-01T16:11:42.247Z,,0,,,NaN,,,,,,false,,,,357702,357702,,357701,,357703.22,8,400,,,
break_continue,html.Screen,4_53_2,2023-11-01T16:11:42.247Z,,0,,,NaN,,,,,,false,,,,357703,357702,,357702,,357703.22,8,400,,,
sequence,flow.Sequence,4_53,2023-11-01T16:11:42.247Z,,0,,,4003.6199999999953,completion,,,,,false,,,,357703,357702,353698.16,353699,353698.38,357703.22,8,400,,,
trial,html.Screen,4_54_0,2023-11-01T16:11:47.396Z,,0,2,,5147.780000000028,response,ISIC_7066723.JPG,18,ISIC_0029395.JPG,ISIC_7066723.JPG,false,1,keypress(m),500,362852,362851,357701.56,357703,357703.22,362852.42,8,400,5,,ISIC_0029395.JPG
break,html.Screen,4_54_1,2023-11-01T16:11:47.397Z,,0,,,NaN,,,,,,false,,,,362853,362852,,362852,,362852.42,8,400,,,
break_continue,html.Screen,4_54_2,2023-11-01T16:11:47.397Z,,0,,,NaN,,,,,,false,,,,362853,362853,,362853,,362852.42,8,400,,,
sequence,flow.Sequence,4_54,2023-11-01T16:11:47.398Z,,0,,,5149.780000000028,completion,,,,,false,,,,362853,362853,357701.56,357703,357703.22,362852.42,8,400,,,
trial,html.Screen,4_55_0,2023-11-01T16:11:51.413Z,,0,2,,4015.5800000000163,response,ISIC_0002258.JPG,15,ISIC_0058501.JPG,ISIC_0002258.JPG,false,1,keypress(m),500,366869,366868,362852.22,362853,362852.42,366869,8,400,6,,ISIC_0058501.JPG
break,html.Screen,4_55_1,2023-11-01T16:11:51.414Z,,0,,,NaN,,,,,,false,,,,366869,366869,,366869,,366869,8,400,,,
break_continue,html.Screen,4_55_2,2023-11-01T16:11:51.415Z,,0,,,NaN,,,,,,false,,,,366870,366870,,366870,,366869,8,400,,,
sequence,flow.Sequence,4_55,2023-11-01T16:11:51.415Z,,0,,,4017.5800000000163,completion,,,,,false,,,,366870,366870,362852.22,362853,362852.42,366869,8,400,,,
trial,html.Screen,4_56_0,2023-11-01T16:11:55.749Z,,0,2,,4335,response,ISIC_1608727.JPG,8,ISIC_7833008.JPG,ISIC_1608727.JPG,false,1,keypress(m),500,371205,371204,366868.8,366870,366869,371204.8,8,400,7,,ISIC_7833008.JPG
break,html.Screen,4_56_1,2023-11-01T16:11:55.750Z,,0,,,NaN,,,,,,false,,,,371205,371205,,371205,,371204.8,8,400,,,
break_continue,html.Screen,4_56_2,2023-11-01T16:11:55.751Z,,0,,,NaN,,,,,,false,,,,371205,371205,,371205,,371204.8,8,400,,,
sequence,flow.Sequence,4_56,2023-11-01T16:11:55.751Z,,0,,,4336,completion,,,,,false,,,,371205,371205,366868.8,366870,366869,371204.8,8,400,,,
trial,html.Screen,4_57_0,2023-11-01T16:11:58.967Z,,0,2,,3217.2000000000116,response,ISIC_6557642.JPG,18,ISIC_0645454.JPG,ISIC_6557642.JPG,false,1,keypress(m),500,374422,374422,371204.5,371206,371204.8,374422.82,8,400,8,,ISIC_0645454.JPG
break,html.Screen,4_57_1,2023-11-01T16:11:58.968Z,,0,,,NaN,,,,,,false,,,,374423,374423,,374422,,374422.82,8,400,,,
break_continue,html.Screen,4_57_2,2023-11-01T16:11:58.968Z,,0,,,NaN,,,,,,false,,,,374423,374423,,374423,,374422.82,8,400,,,
sequence,flow.Sequence,4_57,2023-11-01T16:11:58.968Z,,0,,,3218.2000000000116,completion,,,,,false,,,,374424,374423,371204.5,371206,371204.8,374422.82,8,400,,,
trial,html.Screen,4_58_0,2023-11-01T16:12:02.125Z,,0,2,,3158.179999999993,response,ISIC_4153687.JPG,17,ISIC_7797853.JPG,ISIC_7797853.JPG,false,0,keypress(z),500,377581,377581,374422.54,374424,374422.82,377580.94,8,400,9,,ISIC_4153687.JPG
break,html.Screen,4_58_1,2023-11-01T16:12:02.126Z,,0,,,NaN,,,,,,false,,,,377582,377581,,377581,,377580.94,8,400,,,
break_continue,html.Screen,4_58_2,2023-11-01T16:12:02.127Z,,0,,,NaN,,,,,,false,,,,377582,377582,,377582,,377580.94,8,400,,,
sequence,flow.Sequence,4_58,2023-11-01T16:12:02.127Z,,0,,,3159.179999999993,completion,,,,,false,,,,377582,377582,374422.54,374424,374422.82,377580.94,8,400,,,
trial,html.Screen,4_59_0,2023-11-01T16:12:05.100Z,,0,2,,2974.0599999999977,response,ISIC_4494516.JPG,27,ISIC_0034216.JPG,ISIC_4494516.JPG,false,1,keypress(m),500,380555,380555,377580.78,377582,377580.94,380555.46,8,400,10,,ISIC_0034216.JPG
break,html.Screen,4_59_1,2023-11-01T16:12:05.101Z,,0,,,NaN,,,,,,false,,,,380556,380556,,380555,,380555.46,8,400,,,
break_continue,html.Screen,4_59_2,2023-11-01T16:12:05.101Z,,0,,,NaN,,,,,,false,,,,380556,380556,,380556,,380555.46,8,400,,,
sequence,flow.Sequence,4_59,2023-11-01T16:12:05.101Z,,0,,,2975.0599999999977,completion,,,,,false,,,,380557,380556,377580.78,377582,377580.94,380555.46,8,400,,,
trial,html.Screen,4_60_0,2023-11-01T16:12:08.817Z,,0,2,,3716.539999999979,response,ISIC_0065066.JPG,25,ISIC_9052604.JPG,ISIC_9052604.JPG,false,0,keypress(z),500,384272,384272,380555.18,380557,380555.46,384300.46,8,400,11,,ISIC_0065066.JPG
break,html.Screen,4_60_1,2023-11-01T16:12:08.817Z,,0,,,NaN,,,,,,false,,,,384273,384273,,384272,,384300.46,8,400,,,
break_continue,html.Screen,4_60_2,2023-11-01T16:12:08.818Z,,0,,,NaN,,,,,,false,,,,384274,384273,,384273,,384300.46,8,400,,,
sequence,flow.Sequence,4_60,2023-11-01T16:12:08.818Z,,0,,,3717.539999999979,completion,,,,,false,,,,384274,384273,380555.18,380557,380555.46,384300.46,8,400,,,
trial,html.Screen,4_61_0,2023-11-01T16:12:12.238Z,,0,2,,3392.539999999979,response,ISIC_1290821.JPG,3,ISIC_3073339.JPG,ISIC_3073339.JPG,false,0,keypress(z),500,387693,387693,384283.8,384274,384300.46,387695.86,8,400,12,,ISIC_1290821.JPG
break,html.Screen,4_61_1,2023-11-01T16:12:12.239Z,,0,,,NaN,,,,,,false,,,,387694,387694,,387693,,387695.86,8,400,,,
break_continue,html.Screen,4_61_2,2023-11-01T16:12:12.240Z,,0,,,NaN,,,,,,false,,,,387695,387694,,387694,,387695.86,8,400,,,
sequence,flow.Sequence,4_61,2023-11-01T16:12:12.240Z,,0,,,3393.539999999979,completion,,,,,false,,,,387695,387694,384283.8,384274,384300.46,387695.86,8,400,,,
trial,html.Screen,4_62_0,2023-11-01T16:12:19.691Z,,0,2,,7450.140000000014,response,ISIC_0011526.JPG,8,ISIC_0008114.JPG,ISIC_0008114.JPG,false,0,keypress(z),500,395146,395146,387693.16,387695,387695.86,395146.2,8,400,13,,ISIC_0011526.JPG
break,html.Screen,4_62_1,2023-11-01T16:12:19.691Z,,0,,,NaN,,,,,,false,,,,395147,395147,,395146,,395146.2,8,400,,,
break_continue,html.Screen,4_62_2,2023-11-01T16:12:19.692Z,,0,,,NaN,,,,,,false,,,,395147,395147,,395147,,395146.2,8,400,,,
sequence,flow.Sequence,4_62,2023-11-01T16:12:19.692Z,,0,,,7451.140000000014,completion,,,,,false,,,,395147,395147,387693.16,387695,387695.86,395146.2,8,400,,,
trial,html.Screen,4_63_0,2023-11-01T16:12:23.413Z,,0,2,,3720.7999999999884,response,ISIC_0062389.JPG,6,ISIC_7592920.JPG,ISIC_0062389.JPG,false,1,keypress(m),500,398867,398867,395146.02,395147,395146.2,398868.02,8,400,14,,ISIC_7592920.JPG
break,html.Screen,4_63_1,2023-11-01T16:12:23.414Z,,0,,,NaN,,,,,,false,,,,398868,398868,,398867,,398868.02,8,400,,,
break_continue,html.Screen,4_63_2,2023-11-01T16:12:23.414Z,,0,,,NaN,,,,,,false,,,,398869,398869,,398868,,398868.02,8,400,,,
sequence,flow.Sequence,4_63,2023-11-01T16:12:23.414Z,,0,,,3722.7999999999884,completion,,,,,false,,,,398869,398869,395146.02,395147,395146.2,398868.02,8,400,,,
trial,html.Screen,4_64_0,2023-11-01T16:12:28.243Z,,0,2,,4829.979999999981,response,ISIC_0064270.JPG,11,ISIC_9122215.JPG,ISIC_0064270.JPG,false,1,keypress(m),500,403698,403698,398867.78,398869,398868.02,403698.34,8,400,15,,ISIC_9122215.JPG
break,html.Screen,4_64_1,2023-11-01T16:12:28.243Z,,0,,,NaN,,,,,,false,,,,403699,403699,,403698,,403698.34,8,400,,,
break_continue,html.Screen,4_64_2,2023-11-01T16:12:28.244Z,,0,,,NaN,,,,,,false,,,,403699,403699,,403699,,403698.34,8,400,,,
sequence,flow.Sequence,4_64,2023-11-01T16:12:28.244Z,,0,,,4830.979999999981,completion,,,,,false,,,,403699,403699,398867.78,398869,398868.02,403698.34,8,400,,,
trial,html.Screen,4_65_0,2023-11-01T16:12:31.639Z,,0,2,,3395.6599999999744,response,ISIC_6670242.JPG,28,ISIC_4798962.JPG,ISIC_4798962.JPG,false,0,keypress(z),500,407094,407094,403698.16,403700,403698.34,407094.84,8,400,16,,ISIC_6670242.JPG
break,html.Screen,4_65_1,2023-11-01T16:12:31.640Z,,0,,,NaN,,,,,,false,,,,407095,407095,,407095,,407094.84,8,400,,,
break_continue,html.Screen,4_65_2,2023-11-01T16:12:31.640Z,,0,,,NaN,,,,,,false,,,,407096,407096,,407095,,407094.84,8,400,,,
sequence,flow.Sequence,4_65,2023-11-01T16:12:31.641Z,,0,,,3397.6599999999744,completion,,,,,false,,,,407096,407096,403698.16,403700,403698.34,407094.84,8,400,,,
trial,html.Screen,4_66_0,2023-11-01T16:12:34.671Z,,0,2,,3031.1599999999744,response,ISIC_4266533.JPG,0,ISIC_1034397.JPG,ISIC_4266533.JPG,false,1,keypress(m),500,410126,410126,407094.66,407096,407094.84,410126.72,8,400,17,,ISIC_1034397.JPG
break,html.Screen,4_66_1,2023-11-01T16:12:34.672Z,,0,,,NaN,,,,,,false,,,,410127,410127,,410126,,410126.72,8,400,,,
break_continue,html.Screen,4_66_2,2023-11-01T16:12:34.673Z,,0,,,NaN,,,,,,false,,,,410127,410127,,410127,,410126.72,8,400,,,
sequence,flow.Sequence,4_66,2023-11-01T16:12:34.673Z,,0,,,3032.1599999999744,completion,,,,,false,,,,410128,410127,407094.66,407096,407094.84,410126.72,8,400,,,
trial,html.Screen,4_67_0,2023-11-01T16:12:37.850Z,,0,2,,3178.280000000028,response,ISIC_0032248.JPG,7,ISIC_8135400.JPG,ISIC_8135400.JPG,false,0,keypress(z),500,413305,413305,410126.48,410128,410126.72,413305.88,8,400,18,,ISIC_0032248.JPG
break,html.Screen,4_67_1,2023-11-01T16:12:37.851Z,,0,,,NaN,,,,,,false,,,,413306,413306,,413305,,413305.88,8,400,,,
break_continue,html.Screen,4_67_2,2023-11-01T16:12:37.851Z,,0,,,NaN,,,,,,false,,,,413307,413306,,413306,,413305.88,8,400,,,
sequence,flow.Sequence,4_67,2023-11-01T16:12:37.852Z,,0,,,3179.280000000028,completion,,,,,false,,,,413307,413306,410126.48,410128,410126.72,413305.88,8,400,,,
trial,html.Screen,4_68_0,2023-11-01T16:12:41.736Z,,0,2,,3885.1199999999953,response,ISIC_0430356.JPG,20,ISIC_0007084.JPG,ISIC_0007084.JPG,false,0,keypress(z),500,417191,417191,413305.66,413307,413305.88,417191.52,8,400,19,,ISIC_0430356.JPG
break,html.Screen,4_68_1,2023-11-01T16:12:41.737Z,,0,,,NaN,,,,,,false,,,,417192,417192,,417191,,417191.52,8,400,,,
break_continue,html.Screen,4_68_2,2023-11-01T16:12:41.737Z,,0,,,NaN,,,,,,false,,,,417193,417193,,417192,,417191.52,8,400,,,
sequence,flow.Sequence,4_68,2023-11-01T16:12:41.737Z,,0,,,3887.1199999999953,completion,,,,,false,,,,417193,417193,413305.66,413307,413305.88,417191.52,8,400,,,
trial,html.Screen,4_69_0,2023-11-01T16:12:46.376Z,,0,2,,4639.479999999981,response,ISIC_6828587.JPG,20,ISIC_5955057.JPG,ISIC_5955057.JPG,false,0,keypress(z),500,421831,421831,417191.38,417193,417191.52,421831.84,8,400,20,,ISIC_6828587.JPG
break,html.Screen,4_69_1,2023-11-01T16:12:46.376Z,,0,,,NaN,,,,,,false,,,,421832,421832,,421831,,421831.84,8,400,,,
break_continue,html.Screen,4_69_2,2023-11-01T16:12:46.378Z,,0,,,NaN,,,,,,false,,,,421833,421833,,421832,,421831.84,8,400,,,
sequence,flow.Sequence,4_69,2023-11-01T16:12:46.378Z,,0,,,4641.479999999981,completion,,,,,false,,,,421833,421833,417191.38,417193,417191.52,421831.84,8,400,,,
trial,html.Screen,4_70_0,2023-11-01T16:12:50.461Z,,0,2,,4084.1599999999744,response,ISIC_8041550.JPG,13,ISIC_0032509.JPG,ISIC_8041550.JPG,false,1,keypress(m),500,425916,425916,421831.62,421833,421831.84,425916.92,8,400,21,,ISIC_0032509.JPG
break,html.Screen,4_70_1,2023-11-01T16:12:50.462Z,,0,,,NaN,,,,,,false,,,,425917,425917,,425916,,425916.92,8,400,,,
break_continue,html.Screen,4_70_2,2023-11-01T16:12:50.463Z,,0,,,NaN,,,,,,false,,,,425918,425918,,425917,,425916.92,8,400,,,
sequence,flow.Sequence,4_70,2023-11-01T16:12:50.463Z,,0,,,4086.1599999999744,completion,,,,,false,,,,425918,425918,421831.62,421833,421831.84,425916.92,8,400,,,
trial,html.Screen,4_71_0,2023-11-01T16:12:54.669Z,,0,2,,4207.080000000016,response,ISIC_8284685.JPG,16,ISIC_6400714.JPG,ISIC_6400714.JPG,false,0,keypress(z),500,430125,430124,425916.64,425918,425916.92,430125.14,8,400,22,,ISIC_8284685.JPG
break,html.Screen,4_71_1,2023-11-01T16:12:54.670Z,,0,,,NaN,,,,,,false,,,,430126,430125,,430125,,430125.14,8,400,,,
break_continue,html.Screen,4_71_2,2023-11-01T16:12:54.671Z,,0,,,NaN,,,,,,false,,,,430126,430126,,430126,,430125.14,8,400,,,
sequence,flow.Sequence,4_71,2023-11-01T16:12:54.671Z,,0,,,4209.080000000016,completion,,,,,false,,,,430127,430126,425916.64,425918,425916.92,430125.14,8,400,,,
trial,html.Screen,4_72_0,2023-11-01T16:12:57.370Z,,0,2,,2700.859999999986,response,ISIC_1152559.JPG,7,ISIC_0394140.JPG,ISIC_1152559.JPG,false,1,keypress(m),500,432826,432826,430124.96,430127,430125.14,432826.4,8,400,23,,ISIC_0394140.JPG
break,html.Screen,4_72_1,2023-11-01T16:12:57.372Z,,0,,,NaN,,,,,,false,,,,432827,432827,,432827,,432826.4,8,400,,,
break_continue,html.Screen,4_72_2,2023-11-01T16:12:57.372Z,,0,,,NaN,,,,,,false,,,,432828,432828,,432827,,432826.4,8,400,,,
sequence,flow.Sequence,4_72,2023-11-01T16:12:57.372Z,,0,,,2702.859999999986,completion,,,,,false,,,,432828,432828,430124.96,430127,430125.14,432826.4,8,400,,,
trial,html.Screen,4_73_0,2023-11-01T16:13:01.210Z,,0,2,,3838.5999999999767,response,ISIC_4643298.JPG,17,ISIC_0010797.JPG,ISIC_0010797.JPG,false,0,keypress(z),500,436665,436665,432826.22,432828,432826.4,436665.72,8,400,24,,ISIC_4643298.JPG
break,html.Screen,4_73_1,2023-11-01T16:13:01.210Z,,0,,,NaN,,,,,,false,,,,436666,436666,,436665,,436665.72,8,400,,,
break_continue,html.Screen,4_73_2,2023-11-01T16:13:01.211Z,,0,,,NaN,,,,,,false,,,,436666,436666,,436666,,436665.72,8,400,,,
sequence,flow.Sequence,4_73,2023-11-01T16:13:01.211Z,,0,,,3839.5999999999767,completion,,,,,false,,,,436666,436666,432826.22,432828,432826.4,436665.72,8,400,,,
trial,html.Screen,4_74_0,2023-11-01T16:13:06.619Z,,0,2,,5408.280000000028,response,ISIC_7013005.JPG,17,ISIC_0010861.JPG,ISIC_7013005.JPG,false,1,keypress(m),500,442075,442074,436665.54,436667,436665.72,442075.36,8,400,25,,ISIC_0010861.JPG
break,html.Screen,4_74_1,2023-11-01T16:13:06.620Z,,0,,,NaN,,,,,,false,,,,442076,442075,,442075,,442075.36,8,400,,,
break_continue,html.Screen,4_74_2,2023-11-01T16:13:06.621Z,,0,,,NaN,,,,,,false,,,,442076,442076,,442076,,442075.36,8,400,,,
sequence,flow.Sequence,4_74,2023-11-01T16:13:06.621Z,,0,,,5410.280000000028,completion,,,,,false,,,,442076,442076,436665.54,436666,436665.72,442075.36,8,400,,,
trial,html.Screen,4_75_0,2023-11-01T16:13:12.217Z,,0,2,,5596.640000000014,response,ISIC_0024792.JPG,6,ISIC_3213469.JPG,ISIC_3213469.JPG,false,0,keypress(z),500,447672,447672,442075.04,442077,442075.36,447673.2,8,400,26,,ISIC_0024792.JPG
break,html.Screen,4_75_1,2023-11-01T16:13:12.218Z,,0,,,NaN,,,,,,false,,,,447674,447674,,447673,,447673.2,8,400,,,
break_continue,html.Screen,4_75_2,2023-11-01T16:13:12.219Z,,0,,,NaN,,,,,,false,,,,447675,447675,,447674,,447673.2,8,400,,,
sequence,flow.Sequence,4_75,2023-11-01T16:13:12.219Z,,0,,,5599.640000000014,completion,,,,,false,,,,447675,447675,442075.04,442077,442075.36,447673.2,8,400,,,
trial,html.Screen,4_76_0,2023-11-01T16:13:15.020Z,,0,2,,2801.7999999999884,response,ISIC_5325805.JPG,11,ISIC_8306983.JPG,ISIC_8306983.JPG,false,0,keypress(z),500,450476,450475,447673.02,447675,447673.2,450477.06,8,400,27,,ISIC_5325805.JPG
break,html.Screen,4_76_1,2023-11-01T16:13:15.021Z,,0,,,NaN,,,,,,false,,,,450477,450476,,450476,,450477.06,8,400,,,
break_continue,html.Screen,4_76_2,2023-11-01T16:13:15.022Z,,0,,,NaN,,,,,,false,,,,450477,450477,,450477,,450477.06,8,400,,,
sequence,flow.Sequence,4_76,2023-11-01T16:13:15.022Z,,0,,,2803.7999999999884,completion,,,,,false,,,,450477,450477,447673.02,447675,447673.2,450477.06,8,400,,,
trial,html.Screen,4_77_0,2023-11-01T16:13:18.510Z,,0,2,,3487.9400000000023,response,ISIC_0027941.JPG,26,ISIC_9510497.JPG,ISIC_9510497.JPG,false,0,keypress(z),500,453966,453965,450475.8,450477,450477.06,453965.74,8,400,28,,ISIC_0027941.JPG
break,html.Screen,4_77_1,2023-11-01T16:13:18.511Z,,0,,,NaN,,,,,,false,,,,453966,453966,,453966,,453965.74,8,400,,,
break_continue,html.Screen,4_77_2,2023-11-01T16:13:18.511Z,,0,,,NaN,,,,,,false,,,,453967,453967,,453967,,453965.74,8,400,,,
sequence,flow.Sequence,4_77,2023-11-01T16:13:18.512Z,,0,,,3489.9400000000023,completion,,,,,false,,,,453967,453967,450475.8,450477,450477.06,453965.74,8,400,,,
trial,html.Screen,4_78_0,2023-11-01T16:13:21.520Z,,0,2,,3010.2600000000093,response,ISIC_0010023.JPG,24,ISIC_0064120.JPG,ISIC_0010023.JPG,false,1,keypress(m),500,456976,456976,453965.56,453967,453965.74,456976.18,8,400,29,,ISIC_0064120.JPG
break,html.Screen,4_78_1,2023-11-01T16:13:21.522Z,,0,,,NaN,,,,,,false,,,,456977,456977,,456976,,456976.18,8,400,,,
break_continue,html.Screen,4_78_2,2023-11-01T16:13:21.522Z,,0,,,NaN,,,,,,false,,,,456978,456977,,456977,,456976.18,8,400,,,
sequence,flow.Sequence,4_78,2023-11-01T16:13:21.522Z,,0,,,3011.2600000000093,completion,,,,,false,,,,456978,456977,453965.56,453967,453965.74,456976.18,8,400,,,
trial,html.Screen,4_79_0,2023-11-01T16:13:24.644Z,,0,2,,3123.820000000007,response,ISIC_0008636.JPG,6,ISIC_9152137.JPG,ISIC_0008636.JPG,false,1,keypress(m),500,460100,460100,456976,456978,456976.18,460100.52,8,400,30,,ISIC_9152137.JPG
break,html.Screen,4_79_1,2023-11-01T16:13:24.645Z,,0,,,NaN,,,,,,false,,,,460101,460100,,460100,,460100.52,8,400,,,
break_continue,html.Screen,4_79_2,2023-11-01T16:13:24.646Z,,0,,,NaN,,,,,,false,,,,460101,460101,,460101,,460100.52,8,400,,,
sequence,flow.Sequence,4_79,2023-11-01T16:13:24.646Z,,0,,,3124.820000000007,completion,,,,,false,,,,460101,460101,456976,456978,456976.18,460100.52,8,400,,,
trial,html.Screen,4_80_0,2023-11-01T16:13:31.416Z,,0,2,,6770.479999999981,response,ISIC_0030774.JPG,21,ISIC_0072976.JPG,ISIC_0030774.JPG,false,1,keypress(m),500,466872,466871,460100.36,460101,460100.52,466888.1,8,400,31,,ISIC_0072976.JPG
break,html.Screen,4_80_1,2023-11-01T16:13:31.418Z,,0,,,NaN,,,,,,false,,,,466872,466872,,466872,,466888.1,8,400,,,
break_continue,html.Screen,4_80_2,2023-11-01T16:13:31.418Z,,0,,,NaN,,,,,,false,,,,466873,466873,,466873,,466888.1,8,400,,,
sequence,flow.Sequence,4_80,2023-11-01T16:13:31.418Z,,0,,,6772.479999999981,completion,,,,,false,,,,466873,466873,460100.36,460101,460100.52,466888.1,8,400,,,
trial,html.Screen,4_81_0,2023-11-01T16:13:35.127Z,,0,2,,3692.9000000000233,response,ISIC_5546806.JPG,13,ISIC_0056201.JPG,ISIC_0056201.JPG,false,0,keypress(z),500,470583,470581,466871.44,466873,466888.1,470582.6,8,400,32,,ISIC_5546806.JPG
break,html.Screen,4_81_1,2023-11-01T16:13:35.128Z,,0,,,NaN,,,,,,false,,,,470583,470583,,470583,,470582.6,8,400,,,
break_continue,html.Screen,4_81_2,2023-11-01T16:13:35.128Z,,0,,,NaN,,,,,,false,,,,470584,470584,,470584,,470582.6,8,400,,,
sequence,flow.Sequence,4_81,2023-11-01T16:13:35.129Z,,0,,,3695.9000000000233,completion,,,,,false,,,,470584,470584,466871.44,466873,466888.1,470582.6,8,400,,,
trial,html.Screen,4_82_0,2023-11-01T16:13:38.840Z,,0,2,,3713.4000000000233,response,ISIC_6892561.JPG,10,ISIC_1396767.JPG,ISIC_1396767.JPG,false,0,keypress(z),500,474296,474296,470582.34,470584,470582.6,474296.44,8,400,33,,ISIC_6892561.JPG
break,html.Screen,4_82_1,2023-11-01T16:13:38.842Z,,0,,,NaN,,,,,,false,,,,474297,474297,,474297,,474296.44,8,400,,,
break_continue,html.Screen,4_82_2,2023-11-01T16:13:38.842Z,,0,,,NaN,,,,,,false,,,,474297,474297,,474297,,474296.44,8,400,,,
sequence,flow.Sequence,4_82,2023-11-01T16:13:38.842Z,,0,,,3714.4000000000233,completion,,,,,false,,,,474298,474297,470582.34,470584,470582.6,474296.44,8,400,,,
trial,html.Screen,4_83_0,2023-11-01T16:13:43.081Z,,0,2,,4239.559999999998,response,ISIC_0024268.JPG,25,ISIC_0055282.JPG,ISIC_0024268.JPG,false,1,keypress(m),500,478536,478536,474296.16,474298,474296.44,478538.88,8,400,34,,ISIC_0055282.JPG
break,html.Screen,4_83_1,2023-11-01T16:13:43.082Z,,0,,,NaN,,,,,,false,,,,478537,478537,,478537,,478538.88,8,400,,,
break_continue,html.Screen,4_83_2,2023-11-01T16:13:43.082Z,,0,,,NaN,,,,,,false,,,,478538,478537,,478537,,478538.88,8,400,,,
sequence,flow.Sequence,4_83,2023-11-01T16:13:43.082Z,,0,,,4240.559999999998,completion,,,,,false,,,,478538,478537,474296.16,474298,474296.44,478538.88,8,400,,,
trial,html.Screen,4_84_0,2023-11-01T16:13:47.728Z,,0,2,,4644.119999999995,response,ISIC_0031674.JPG,19,ISIC_0056201.JPG,ISIC_0056201.JPG,false,0,keypress(z),500,483184,483183,478536.7,478538,478538.88,483183.84,8,400,35,,ISIC_0031674.JPG
break,html.Screen,4_84_1,2023-11-01T16:13:47.729Z,,0,,,NaN,,,,,,false,,,,483185,483185,,483184,,483183.84,8,400,,,
break_continue,html.Screen,4_84_2,2023-11-01T16:13:47.730Z,,0,,,NaN,,,,,,false,,,,483186,483185,,483185,,483183.84,8,400,,,
sequence,flow.Sequence,4_84,2023-11-01T16:13:47.730Z,,0,,,4646.119999999995,completion,,,,,false,,,,483186,483185,478536.7,478538,478538.88,483183.84,8,400,,,
trial,html.Screen,4_85_0,2023-11-01T16:13:51.168Z,,0,2,,3440.1599999999744,response,ISIC_0060233.JPG,12,ISIC_0026120.JPG,ISIC_0026120.JPG,false,0,keypress(z),500,486624,486624,483183.66,483186,483183.84,486623.72,8,400,36,,ISIC_0060233.JPG
break,html.Screen,4_85_1,2023-11-01T16:13:51.169Z,,0,,,NaN,,,,,,false,,,,486625,486624,,486624,,486623.72,8,400,,,
break_continue,html.Screen,4_85_2,2023-11-01T16:13:51.170Z,,0,,,NaN,,,,,,false,,,,486625,486625,,486625,,486623.72,8,400,,,
sequence,flow.Sequence,4_85,2023-11-01T16:13:51.170Z,,0,,,3441.1599999999744,completion,,,,,false,,,,486625,486625,483183.66,483186,483183.84,486623.72,8,400,,,
trial,html.Screen,4_86_0,2023-11-01T16:13:55.227Z,,0,2,,4058.280000000028,response,ISIC_8325260.JPG,4,ISIC_0072997.JPG,ISIC_8325260.JPG,false,1,keypress(m),500,490682,490682,486623.54,486625,486623.72,490682.5,8,400,37,,ISIC_0072997.JPG
break,html.Screen,4_86_1,2023-11-01T16:13:55.227Z,,0,,,NaN,,,,,,false,,,,490683,490683,,490682,,490682.5,8,400,,,
break_continue,html.Screen,4_86_2,2023-11-01T16:13:55.228Z,,0,,,NaN,,,,,,false,,,,490683,490683,,490683,,490682.5,8,400,,,
sequence,flow.Sequence,4_86,2023-11-01T16:13:55.228Z,,0,,,4059.280000000028,completion,,,,,false,,,,490684,490683,486623.54,486625,486623.72,490682.5,8,400,,,
trial,html.Screen,4_87_0,2023-11-01T16:13:59.839Z,,0,2,,4611.5,response,ISIC_0015412.JPG,20,ISIC_0013651.JPG,ISIC_0013651.JPG,false,0,keypress(z),500,495294,495294,490682.32,490684,490682.5,495294.34,8,400,38,,ISIC_0015412.JPG
break,html.Screen,4_87_1,2023-11-01T16:13:59.840Z,,0,,,NaN,,,,,,false,,,,495294,495294,,495294,,495294.34,8,400,,,
break_continue,html.Screen,4_87_2,2023-11-01T16:13:59.840Z,,0,,,NaN,,,,,,false,,,,495295,495295,,495295,,495294.34,8,400,,,
sequence,flow.Sequence,4_87,2023-11-01T16:13:59.840Z,,0,,,4612.5,completion,,,,,false,,,,495295,495295,490682.32,490684,490682.5,495294.34,8,400,,,
trial,html.Screen,4_88_0,2023-11-01T16:14:03.154Z,,0,2,,3314.6599999999744,response,ISIC_4099428.JPG,13,ISIC_0066588.JPG,ISIC_4099428.JPG,false,1,keypress(m),500,498609,498609,495294.16,495295,495294.34,498611.62,8,400,39,,ISIC_0066588.JPG
break,html.Screen,4_88_1,2023-11-01T16:14:03.155Z,,0,,,NaN,,,,,,false,,,,498610,498610,,498610,,498611.62,8,400,,,
break_continue,html.Screen,4_88_2,2023-11-01T16:14:03.155Z,,0,,,NaN,,,,,,false,,,,498611,498611,,498610,,498611.62,8,400,,,
sequence,flow.Sequence,4_88,2023-11-01T16:14:03.155Z,,0,,,3316.6599999999744,completion,,,,,false,,,,498611,498611,495294.16,495295,495294.34,498611.62,8,400,,,
trial,html.Screen,4_89_0,2023-11-01T16:14:07.054Z,,0,2,,3896.3800000000047,response,ISIC_7755875.JPG,10,ISIC_9324486.JPG,ISIC_9324486.JPG,false,0,keypress(z),500,502509,502508,498609.58,498611,498611.62,502509.64,8,400,40,,ISIC_7755875.JPG
break,html.Screen,4_89_1,2023-11-01T16:14:07.055Z,,0,,,NaN,,,,,,false,,,,502510,502509,,502509,,502509.64,8,400,,,
break_continue,html.Screen,4_89_2,2023-11-01T16:14:07.055Z,,0,,,NaN,,,,,,false,,,,502511,502511,,502511,,502509.64,8,400,,,
sequence,flow.Sequence,4_89,2023-11-01T16:14:07.055Z,,0,,,3899.3800000000047,completion,,,,,false,,,,502511,502511,498609.58,498611,498611.62,502509.64,8,400,,,
trial,html.Screen,4_90_0,2023-11-01T16:14:10.436Z,,0,2,,3381.359999999986,response,ISIC_0027993.JPG,28,ISIC_1658623.JPG,ISIC_0027993.JPG,false,1,keypress(m),500,505891,505891,502509.4,502511,502509.64,505891.8,8,400,41,,ISIC_1658623.JPG
break,html.Screen,4_90_1,2023-11-01T16:14:10.437Z,,0,,,NaN,,,,,,false,,,,505892,505892,,505891,,505891.8,8,400,,,
break_continue,html.Screen,4_90_2,2023-11-01T16:14:10.438Z,,0,,,NaN,,,,,,false,,,,505893,505892,,505892,,505891.8,8,400,,,
sequence,flow.Sequence,4_90,2023-11-01T16:14:10.438Z,,0,,,3382.359999999986,completion,,,,,false,,,,505893,505892,502509.4,502511,502509.64,505891.8,8,400,,,
trial,html.Screen,4_91_0,2023-11-01T16:14:13.536Z,,0,2,,3099.2000000000116,response,ISIC_9293491.JPG,13,ISIC_0000291.JPG,ISIC_0000291.JPG,false,0,keypress(z),500,508992,508991,505891.62,505893,505891.8,508992.42,8,400,42,,ISIC_9293491.JPG
break,html.Screen,4_91_1,2023-11-01T16:14:13.538Z,,0,,,NaN,,,,,,false,,,,508993,508992,,508992,,508992.42,8,400,,,
break_continue,html.Screen,4_91_2,2023-11-01T16:14:13.538Z,,0,,,NaN,,,,,,false,,,,508994,508993,,508993,,508992.42,8,400,,,
sequence,flow.Sequence,4_91,2023-11-01T16:14:13.538Z,,0,,,3101.2000000000116,completion,,,,,false,,,,508994,508993,505891.62,505893,505891.8,508992.42,8,400,,,
trial,html.Screen,4_92_0,2023-11-01T16:14:16.656Z,,0,2,,3117.5800000000163,response,ISIC_0026730.JPG,23,ISIC_3571523.JPG,ISIC_3571523.JPG,false,0,keypress(z),500,512111,512110,508992.18,508994,508992.42,512111.36,8,400,43,,ISIC_0026730.JPG
break,html.Screen,4_92_1,2023-11-01T16:14:16.657Z,,0,,,NaN,,,,,,false,,,,512111,512111,,512111,,512111.36,8,400,,,
break_continue,html.Screen,4_92_2,2023-11-01T16:14:16.657Z,,0,,,NaN,,,,,,false,,,,512112,512112,,512112,,512111.36,8,400,,,
sequence,flow.Sequence,4_92,2023-11-01T16:14:16.657Z,,0,,,3119.5800000000163,completion,,,,,false,,,,512112,512112,508992.18,508994,508992.42,512111.36,8,400,,,
trial,html.Screen,4_93_0,2023-11-01T16:14:19.981Z,,0,2,,3323.640000000014,response,ISIC_0031045.JPG,3,ISIC_0061825.JPG,ISIC_0061825.JPG,false,0,keypress(z),500,515436,515435,512111.14,512112,512111.36,515438.66,8,400,44,,ISIC_0031045.JPG
break,html.Screen,4_93_1,2023-11-01T16:14:19.982Z,,0,,,NaN,,,,,,false,,,,515437,515436,,515436,,515438.66,8,400,,,
break_continue,html.Screen,4_93_2,2023-11-01T16:14:19.982Z,,0,,,NaN,,,,,,false,,,,515437,515437,,515437,,515438.66,8,400,,,
sequence,flow.Sequence,4_93,2023-11-01T16:14:19.982Z,,0,,,3325.640000000014,completion,,,,,false,,,,515437,515437,512111.14,512112,512111.36,515438.66,8,400,,,
trial,html.Screen,4_94_0,2023-11-01T16:14:22.962Z,,0,2,,2978.3400000000256,response,ISIC_0061320.JPG,6,ISIC_4263521.JPG,ISIC_0061320.JPG,false,1,keypress(m),500,518417,518417,515436.04,515438,515438.66,518417.6,8,400,45,,ISIC_4263521.JPG
break,html.Screen,4_94_1,2023-11-01T16:14:22.963Z,,0,,,NaN,,,,,,false,,,,518418,518418,,518417,,518417.6,8,400,,,
break_continue,html.Screen,4_94_2,2023-11-01T16:14:22.963Z,,0,,,NaN,,,,,,false,,,,518419,518418,,518418,,518417.6,8,400,,,
sequence,flow.Sequence,4_94,2023-11-01T16:14:22.963Z,,0,,,2979.3400000000256,completion,,,,,false,,,,518419,518418,515436.04,515437,515438.66,518417.6,8,400,,,
trial,html.Screen,4_95_0,2023-11-01T16:14:26.981Z,,0,2,,4018.4000000000233,response,ISIC_3474681.JPG,7,ISIC_5732487.JPG,ISIC_5732487.JPG,false,0,keypress(z),500,522436,522436,518417.4,518419,518417.6,522437.14,8,400,46,,ISIC_3474681.JPG
break,html.Screen,4_95_1,2023-11-01T16:14:26.983Z,,0,,,NaN,,,,,,false,,,,522438,522437,,522436,,522437.14,8,400,,,
break_continue,html.Screen,4_95_2,2023-11-01T16:14:26.983Z,,0,,,NaN,,,,,,false,,,,522438,522438,,522438,,522437.14,8,400,,,
sequence,flow.Sequence,4_95,2023-11-01T16:14:26.983Z,,0,,,4020.4000000000233,completion,,,,,false,,,,522438,522438,518417.4,518419,518417.6,522437.14,8,400,,,
trial,html.Screen,4_96_0,2023-11-01T16:14:30.454Z,,0,2,,3471.859999999986,response,ISIC_0054329.JPG,18,ISIC_4645995.JPG,ISIC_4645995.JPG,false,0,keypress(z),500,525909,525909,522436.9,522438,522437.14,525909.3,8,400,47,,ISIC_0054329.JPG
break,html.Screen,4_96_1,2023-11-01T16:14:30.454Z,,0,,,NaN,,,,,,false,,,,525910,525910,,525909,,525909.3,8,400,,,
break_continue,html.Screen,4_96_2,2023-11-01T16:14:30.454Z,,0,,,NaN,,,,,,false,,,,525910,525910,,525910,,525909.3,8,400,,,
sequence,flow.Sequence,4_96,2023-11-01T16:14:30.455Z,,0,,,3472.859999999986,completion,,,,,false,,,,525910,525910,522436.9,522438,522437.14,525909.3,8,400,,,
trial,html.Screen,4_97_0,2023-11-01T16:14:34.109Z,,0,2,,3654.6999999999534,response,ISIC_0029478.JPG,3,ISIC_6517852.JPG,ISIC_6517852.JPG,false,0,keypress(z),500,529565,529564,525909.12,525910,525909.3,529564.78,8,400,48,,ISIC_0029478.JPG
break,html.Screen,4_97_1,2023-11-01T16:14:34.110Z,,0,,,NaN,,,,,,false,,,,529565,529565,,529565,,529564.78,8,400,,,
break_continue,html.Screen,4_97_2,2023-11-01T16:14:34.110Z,,0,,,NaN,,,,,,false,,,,529566,529566,,529566,,529564.78,8,400,,,
sequence,flow.Sequence,4_97,2023-11-01T16:14:34.111Z,,0,,,3656.6999999999534,completion,,,,,false,,,,529566,529566,525909.12,525910,525909.3,529564.78,8,400,,,
trial,html.Screen,4_98_0,2023-11-01T16:14:38.251Z,,0,2,,4140.219999999972,response,ISIC_0061441.JPG,24,ISIC_3492490.JPG,ISIC_0061441.JPG,false,1,keypress(m),500,533705,533705,529564.6,529566,529564.78,533706.86,8,400,49,,ISIC_3492490.JPG
break,html.Screen,4_98_1,2023-11-01T16:14:38.251Z,,0,,,NaN,,,,,,false,,,,533706,533706,,533705,,533706.86,8,400,,,
break_continue,html.Screen,4_98_2,2023-11-01T16:14:38.252Z,,0,,,NaN,,,,,,false,,,,533707,533707,,533706,,533706.86,8,400,,,
sequence,flow.Sequence,4_98,2023-11-01T16:14:38.252Z,,0,,,4142.219999999972,completion,,,,,false,,,,533708,533707,529564.6,529566,529564.78,533706.86,8,400,,,
trial,html.Screen,4_99_0,2023-11-01T16:14:43.469Z,,0,2,,5217.140000000014,response,ISIC_0033697.JPG,3,ISIC_9727132.JPG,ISIC_9727132.JPG,false,0,keypress(z),500,538925,538924,533705.68,533708,533706.86,538925.34,8,400,50,,ISIC_0033697.JPG
break,html.Screen,4_99_1,2023-11-01T16:14:53.455Z,,0,,,10001.040000000037,timeout,,,,,false,,,,548911,548909.76,538925.18,538925,538925.34,548926.38,8,400,,,
break_continue,html.Screen,4_99_2,2023-11-01T16:15:01.781Z,,0,,,8295.619999999995,response,,,,,false,continue,keypress(Space),,557237,557222,548909.76,548911,548926.38,557237.22,8,400,,,
sequence,flow.Sequence,4_99,2023-11-01T16:15:01.782Z,,0,,,23515.140000000014,completion,,,,,false,,,,557237,557222,533705.68,533708,533706.86,557237.22,8,400,,,
trial,html.Screen,4_100_0,2023-11-01T16:15:05.328Z,,0,3,,3545.780000000028,response,ISIC_0773096.JPG,9,ISIC_0001110.JPG,ISIC_0001110.JPG,false,0,keypress(z),500,560784,560783,557237.06,557237,557237.22,560784.12,8,400,1,,ISIC_0773096.JPG
break,html.Screen,4_100_1,2023-11-01T16:15:05.329Z,,0,,,NaN,,,,,,false,,,,560785,560785,,560784,,560784.12,8,400,,,
break_continue,html.Screen,4_100_2,2023-11-01T16:15:05.330Z,,0,,,NaN,,,,,,false,,,,560785,560785,,560785,,560784.12,8,400,,,
sequence,flow.Sequence,4_100,2023-11-01T16:15:05.330Z,,0,,,3547.780000000028,completion,,,,,false,,,,560786,560785,557237.06,557237,557237.22,560784.12,8,400,,,
trial,html.Screen,4_101_0,2023-11-01T16:15:08.561Z,,0,3,,3231.8800000000047,response,ISIC_9119549.JPG,17,ISIC_6008974.JPG,ISIC_6008974.JPG,false,0,keypress(z),500,564016,564016,560783.94,560786,560784.12,564016.82,8,400,2,,ISIC_9119549.JPG
break,html.Screen,4_101_1,2023-11-01T16:15:08.562Z,,0,,,NaN,,,,,,false,,,,564017,564017,,564016,,564016.82,8,400,,,
break_continue,html.Screen,4_101_2,2023-11-01T16:15:08.563Z,,0,,,NaN,,,,,,false,,,,564018,564017,,564017,,564016.82,8,400,,,
sequence,flow.Sequence,4_101,2023-11-01T16:15:08.563Z,,0,,,3232.8800000000047,completion,,,,,false,,,,564018,564017,560783.94,560786,560784.12,564016.82,8,400,,,
trial,html.Screen,4_102_0,2023-11-01T16:15:11.206Z,,0,3,,2645.180000000051,response,ISIC_2639144.JPG,10,ISIC_0026008.JPG,ISIC_0026008.JPG,false,0,keypress(z),500,566662,566662,564016.62,564018,564016.82,566661.76,8,400,3,,ISIC_2639144.JPG
break,html.Screen,4_102_1,2023-11-01T16:15:11.207Z,,0,,,NaN,,,,,,false,,,,566662,566662,,566662,,566661.76,8,400,,,
break_continue,html.Screen,4_102_2,2023-11-01T16:15:11.208Z,,0,,,NaN,,,,,,false,,,,566662,566662,,566662,,566661.76,8,400,,,
sequence,flow.Sequence,4_102,2023-11-01T16:15:11.208Z,,0,,,2645.180000000051,completion,,,,,false,,,,566662,566662,564016.62,564018,564016.82,566661.76,8,400,,,
trial,html.Screen,4_103_0,2023-11-01T16:15:13.962Z,,0,3,,2755.2399999999907,response,ISIC_6668197.JPG,7,ISIC_0064879.JPG,ISIC_6668197.JPG,false,1,keypress(m),500,569418,569417,566661.6,566662,566661.76,569417.74,8,400,4,,ISIC_0064879.JPG
break,html.Screen,4_103_1,2023-11-01T16:15:13.963Z,,0,,,NaN,,,,,,false,,,,569418,569418,,569418,,569417.74,8,400,,,
break_continue,html.Screen,4_103_2,2023-11-01T16:15:13.963Z,,0,,,NaN,,,,,,false,,,,569418,569418,,569418,,569417.74,8,400,,,
sequence,flow.Sequence,4_103,2023-11-01T16:15:13.963Z,,0,,,2756.2399999999907,completion,,,,,false,,,,569419,569418,566661.6,566662,566661.76,569417.74,8,400,,,
trial,html.Screen,4_104_0,2023-11-01T16:15:16.600Z,,0,3,,2636.2600000000093,response,ISIC_0064822.JPG,23,ISIC_9109361.JPG,ISIC_9109361.JPG,false,0,keypress(z),500,572055,572054,569417.5,569419,569417.74,572055.06,8,400,5,,ISIC_0064822.JPG
break,html.Screen,4_104_1,2023-11-01T16:15:16.601Z,,0,,,NaN,,,,,,false,,,,572055,572055,,572055,,572055.06,8,400,,,
break_continue,html.Screen,4_104_2,2023-11-01T16:15:16.601Z,,0,,,NaN,,,,,,false,,,,572056,572056,,572056,,572055.06,8,400,,,
sequence,flow.Sequence,4_104,2023-11-01T16:15:16.601Z,,0,,,2638.2600000000093,completion,,,,,false,,,,572056,572056,569417.5,569419,569417.74,572055.06,8,400,,,
trial,html.Screen,4_105_0,2023-11-01T16:15:19.865Z,,0,3,,3265.939999999944,response,ISIC_0027663.JPG,11,ISIC_0027420.JPG,ISIC_0027663.JPG,false,1,keypress(m),500,575321,575321,572054.9,572056,572055.06,575323.88,8,400,6,,ISIC_0027420.JPG
break,html.Screen,4_105_1,2023-11-01T16:15:19.866Z,,0,,,NaN,,,,,,false,,,,575322,575322,,575321,,575323.88,8,400,,,
break_continue,html.Screen,4_105_2,2023-11-01T16:15:19.866Z,,0,,,NaN,,,,,,false,,,,575322,575322,,575322,,575323.88,8,400,,,
sequence,flow.Sequence,4_105,2023-11-01T16:15:19.867Z,,0,,,3266.939999999944,completion,,,,,false,,,,575323,575322,572054.9,572056,572055.06,575323.88,8,400,,,
trial,html.Screen,4_106_0,2023-11-01T16:15:22.813Z,,0,3,,2944.1199999999953,response,ISIC_0025458.JPG,11,ISIC_0003132.JPG,ISIC_0025458.JPG,false,1,keypress(m),500,578269,578268,575321.16,575323,575323.88,578270.24,8,400,7,,ISIC_0003132.JPG
break,html.Screen,4_106_1,2023-11-01T16:15:22.814Z,,0,,,NaN,,,,,,false,,,,578270,578269,,578269,,578270.24,8,400,,,
break_continue,html.Screen,4_106_2,2023-11-01T16:15:22.815Z,,0,,,NaN,,,,,,false,,,,578270,578270,,578270,,578270.24,8,400,,,
sequence,flow.Sequence,4_106,2023-11-01T16:15:22.815Z,,0,,,2946.1199999999953,completion,,,,,false,,,,578270,578270,575321.16,575323,575323.88,578270.24,8,400,,,
trial,html.Screen,4_107_0,2023-11-01T16:15:25.511Z,,0,3,,2694.7600000000093,response,ISIC_6739241.JPG,20,ISIC_8535943.JPG,ISIC_8535943.JPG,false,0,keypress(z),500,580966,580965,578268.94,578270,578270.24,580966.16,8,400,8,,ISIC_6739241.JPG
break,html.Screen,4_107_1,2023-11-01T16:15:25.512Z,,0,,,NaN,,,,,,false,,,,580967,580967,,580966,,580966.16,8,400,,,
break_continue,html.Screen,4_107_2,2023-11-01T16:15:25.513Z,,0,,,NaN,,,,,,false,,,,580968,580967,,580967,,580966.16,8,400,,,
sequence,flow.Sequence,4_107,2023-11-01T16:15:25.513Z,,0,,,2696.7600000000093,completion,,,,,false,,,,580968,580967,578268.94,578270,578270.24,580966.16,8,400,,,
trial,html.Screen,4_108_0,2023-11-01T16:15:29.198Z,,0,3,,3686.8399999999674,response,ISIC_0068633.JPG,11,ISIC_8634334.JPG,ISIC_0068633.JPG,false,1,keypress(m),500,584654,584653,580965.94,580968,580966.16,584654.08,8,400,9,,ISIC_8634334.JPG
break,html.Screen,4_108_1,2023-11-01T16:15:29.199Z,,0,,,NaN,,,,,,false,,,,584654,584654,,584654,,584654.08,8,400,,,
break_continue,html.Screen,4_108_2,2023-11-01T16:15:29.200Z,,0,,,NaN,,,,,,false,,,,584655,584655,,584654,,584654.08,8,400,,,
sequence,flow.Sequence,4_108,2023-11-01T16:15:29.200Z,,0,,,3688.8399999999674,completion,,,,,false,,,,584655,584655,580965.94,580968,580966.16,584654.08,8,400,,,
trial,html.Screen,4_109_0,2023-11-01T16:15:32.940Z,,0,3,,3740.920000000042,response,ISIC_7826557.JPG,14,ISIC_8048668.JPG,ISIC_8048668.JPG,false,0,keypress(z),500,588395,588395,584653.88,584655,584654.08,588395.72,8,400,10,,ISIC_7826557.JPG
break,html.Screen,4_109_1,2023-11-01T16:15:32.941Z,,0,,,NaN,,,,,,false,,,,588396,588396,,588395,,588395.72,8,400,,,
break_continue,html.Screen,4_109_2,2023-11-01T16:15:32.941Z,,0,,,NaN,,,,,,false,,,,588396,588396,,588396,,588395.72,8,400,,,
sequence,flow.Sequence,4_109,2023-11-01T16:15:32.941Z,,0,,,3741.920000000042,completion,,,,,false,,,,588396,588396,584653.88,584655,584654.08,588395.72,8,400,,,
trial,html.Screen,4_110_0,2023-11-01T16:15:36.368Z,,0,3,,3428.280000000028,response,ISIC_6366631.JPG,24,ISIC_0032604.JPG,ISIC_6366631.JPG,false,1,keypress(m),500,591824,591824,588395.54,588397,588395.72,591823.94,8,400,11,,ISIC_0032604.JPG
break,html.Screen,4_110_1,2023-11-01T16:15:36.369Z,,0,,,NaN,,,,,,false,,,,591825,591824,,591824,,591823.94,8,400,,,
break_continue,html.Screen,4_110_2,2023-11-01T16:15:36.369Z,,0,,,NaN,,,,,,false,,,,591825,591825,,591825,,591823.94,8,400,,,
sequence,flow.Sequence,4_110,2023-11-01T16:15:36.369Z,,0,,,3429.280000000028,completion,,,,,false,,,,591825,591825,588395.54,588397,588395.72,591823.94,8,400,,,
trial,html.Screen,4_111_0,2023-11-01T16:15:39.014Z,,0,3,,2645.060000000056,response,ISIC_6938608.JPG,24,ISIC_0003910.JPG,ISIC_0003910.JPG,false,0,keypress(z),500,594470,594469,591823.72,591825,591823.94,594469.54,8,400,12,,ISIC_6938608.JPG
break,html.Screen,4_111_1,2023-11-01T16:15:39.015Z,,0,,,NaN,,,,,,false,,,,594470,594470,,594470,,594469.54,8,400,,,
break_continue,html.Screen,4_111_2,2023-11-01T16:15:39.015Z,,0,,,NaN,,,,,,false,,,,594470,594470,,594470,,594469.54,8,400,,,
sequence,flow.Sequence,4_111,2023-11-01T16:15:39.015Z,,0,,,2646.060000000056,completion,,,,,false,,,,594470,594470,591823.72,591825,591823.94,594469.54,8,400,,,
trial,html.Screen,4_112_0,2023-11-01T16:15:42.212Z,,0,3,,3196.4599999999627,response,ISIC_0033074.JPG,5,ISIC_6937905.JPG,ISIC_6937905.JPG,false,0,keypress(z),500,597666,597666,594469.38,594470,594469.54,597667.12,8,400,13,,ISIC_0033074.JPG
break,html.Screen,4_112_1,2023-11-01T16:15:42.213Z,,0,,,NaN,,,,,,false,,,,597667,597667,,597667,,597667.12,8,400,,,
break_continue,html.Screen,4_112_2,2023-11-01T16:15:42.213Z,,0,,,NaN,,,,,,false,,,,597668,597667,,597667,,597667.12,8,400,,,
sequence,flow.Sequence,4_112,2023-11-01T16:15:42.213Z,,0,,,3197.4599999999627,completion,,,,,false,,,,597668,597667,594469.38,594470,594469.54,597667.12,8,400,,,
trial,html.Screen,4_113_0,2023-11-01T16:15:48.453Z,,0,3,,6240.880000000005,response,ISIC_0065260.JPG,27,ISIC_0009984.JPG,ISIC_0009984.JPG,false,0,keypress(z),500,603909,603908,597666.98,597668,597667.12,603909.2,8,400,14,,ISIC_0065260.JPG
break,html.Screen,4_113_1,2023-11-01T16:15:48.455Z,,0,,,NaN,,,,,,false,,,,603909,603909,,603909,,603909.2,8,400,,,
break_continue,html.Screen,4_113_2,2023-11-01T16:15:48.455Z,,0,,,NaN,,,,,,false,,,,603910,603910,,603910,,603909.2,8,400,,,
sequence,flow.Sequence,4_113,2023-11-01T16:15:48.455Z,,0,,,6242.880000000005,completion,,,,,false,,,,603910,603910,597666.98,597668,597667.12,603909.2,8,400,,,
trial,html.Screen,4_114_0,2023-11-01T16:15:51.368Z,,0,3,,2913.8000000000466,response,ISIC_9204678.JPG,0,ISIC_6020636.JPG,ISIC_6020636.JPG,false,0,keypress(z),500,606823,606823,603909,603910,603909.2,606823.66,8,400,15,,ISIC_9204678.JPG
break,html.Screen,4_114_1,2023-11-01T16:15:51.368Z,,0,,,NaN,,,,,,false,,,,606824,606824,,606823,,606823.66,8,400,,,
break_continue,html.Screen,4_114_2,2023-11-01T16:15:51.370Z,,0,,,NaN,,,,,,false,,,,606825,606825,,606824,,606823.66,8,400,,,
sequence,flow.Sequence,4_114,2023-11-01T16:15:51.370Z,,0,,,2915.8000000000466,completion,,,,,false,,,,606825,606825,603909,603910,603909.2,606823.66,8,400,,,
trial,html.Screen,4_115_0,2023-11-01T16:15:54.809Z,,0,3,,3440.3399999999674,response,ISIC_0061606.JPG,3,ISIC_0028129.JPG,ISIC_0028129.JPG,false,0,keypress(z),500,610264,610264,606823.48,606825,606823.66,610265.24,8,400,16,,ISIC_0061606.JPG
break,html.Screen,4_115_1,2023-11-01T16:15:54.810Z,,0,,,NaN,,,,,,false,,,,610266,610266,,610265,,610265.24,8,400,,,
break_continue,html.Screen,4_115_2,2023-11-01T16:15:54.811Z,,0,,,NaN,,,,,,false,,,,610266,610266,,610266,,610265.24,8,400,,,
sequence,flow.Sequence,4_115,2023-11-01T16:15:54.811Z,,0,,,3442.3399999999674,completion,,,,,false,,,,610267,610266,606823.48,606825,606823.66,610265.24,8,400,,,
trial,html.Screen,4_116_0,2023-11-01T16:15:59.235Z,,0,3,,4423.760000000009,response,ISIC_6813359.JPG,18,ISIC_0070009.JPG,ISIC_0070009.JPG,false,0,keypress(z),500,614690,614689,610265.04,610267,610265.24,614690.14,8,400,17,,ISIC_6813359.JPG
break,html.Screen,4_116_1,2023-11-01T16:15:59.235Z,,0,,,NaN,,,,,,false,,,,614690,614690,,614690,,614690.14,8,400,,,
break_continue,html.Screen,4_116_2,2023-11-01T16:15:59.235Z,,0,,,NaN,,,,,,false,,,,614691,614691,,614690,,614690.14,8,400,,,
sequence,flow.Sequence,4_116,2023-11-01T16:15:59.236Z,,0,,,4425.760000000009,completion,,,,,false,,,,614691,614691,610265.04,610267,610265.24,614690.14,8,400,,,
trial,html.Screen,4_117_0,2023-11-01T16:16:03.615Z,,0,3,,4379.859999999986,response,ISIC_6952773.JPG,12,ISIC_0055412.JPG,ISIC_6952773.JPG,false,1,keypress(m),500,619070,619070,614689.9,614691,614690.14,619070.9,8,400,18,,ISIC_0055412.JPG
break,html.Screen,4_117_1,2023-11-01T16:16:03.616Z,,0,,,NaN,,,,,,false,,,,619071,619071,,619070,,619070.9,8,400,,,
break_continue,html.Screen,4_117_2,2023-11-01T16:16:03.616Z,,0,,,NaN,,,,,,false,,,,619071,619071,,619071,,619070.9,8,400,,,
sequence,flow.Sequence,4_117,2023-11-01T16:16:03.617Z,,0,,,4380.859999999986,completion,,,,,false,,,,619072,619071,614689.9,614691,614690.14,619070.9,8,400,,,
trial,html.Screen,4_118_0,2023-11-01T16:16:07.519Z,,0,3,,3902.0999999999767,response,ISIC_0025015.JPG,4,ISIC_0055996.JPG,ISIC_0025015.JPG,false,1,keypress(m),500,622973,622973,619070.7,619072,619070.9,622975.5,8,400,19,,ISIC_0055996.JPG
break,html.Screen,4_118_1,2023-11-01T16:16:07.520Z,,0,,,NaN,,,,,,false,,,,622974,622974,,622974,,622975.5,8,400,,,
break_continue,html.Screen,4_118_2,2023-11-01T16:16:07.520Z,,0,,,NaN,,,,,,false,,,,622975,622975,,622974,,622975.5,8,400,,,
sequence,flow.Sequence,4_118,2023-11-01T16:16:07.520Z,,0,,,3904.0999999999767,completion,,,,,false,,,,622975,622975,619070.7,619072,619070.9,622975.5,8,400,,,
trial,html.Screen,4_119_0,2023-11-01T16:16:10.844Z,,0,3,,3323.5,response,ISIC_0008393.JPG,12,ISIC_3663705.JPG,ISIC_0008393.JPG,false,1,keypress(m),500,626300,626299,622973.92,622975,622975.5,626299.78,8,400,20,,ISIC_3663705.JPG
break,html.Screen,4_119_1,2023-11-01T16:16:10.845Z,,0,,,NaN,,,,,,false,,,,626301,626300,,626300,,626299.78,8,400,,,
break_continue,html.Screen,4_119_2,2023-11-01T16:16:10.845Z,,0,,,NaN,,,,,,false,,,,626301,626301,,626301,,626299.78,8,400,,,
sequence,flow.Sequence,4_119,2023-11-01T16:16:10.846Z,,0,,,3325.5,completion,,,,,false,,,,626301,626301,622973.92,622975,622975.5,626299.78,8,400,,,
trial,html.Screen,4_120_0,2023-11-01T16:16:14.882Z,,0,3,,4037.219999999972,response,ISIC_6003500.JPG,5,ISIC_1314502.JPG,ISIC_1314502.JPG,false,0,keypress(z),500,630338,630337,626299.36,626301,626299.78,630337.64,8,400,21,,ISIC_6003500.JPG
break,html.Screen,4_120_1,2023-11-01T16:16:14.883Z,,0,,,NaN,,,,,,false,,,,630338,630338,,630338,,630337.64,8,400,,,
break_continue,html.Screen,4_120_2,2023-11-01T16:16:14.883Z,,0,,,NaN,,,,,,false,,,,630339,630339,,630338,,630337.64,8,400,,,
sequence,flow.Sequence,4_120,2023-11-01T16:16:14.883Z,,0,,,4039.219999999972,completion,,,,,false,,,,630339,630339,626299.36,626301,626299.78,630337.64,8,400,,,
trial,html.Screen,4_121_0,2023-11-01T16:16:18.328Z,,0,3,,3445.359999999986,response,ISIC_3430953.JPG,3,ISIC_7210119.JPG,ISIC_7210119.JPG,false,0,keypress(z),500,633783,633783,630337.46,630339,630337.64,633783.6,8,400,22,,ISIC_3430953.JPG
break,html.Screen,4_121_1,2023-11-01T16:16:18.329Z,,0,,,NaN,,,,,,false,,,,633784,633784,,633783,,633783.6,8,400,,,
break_continue,html.Screen,4_121_2,2023-11-01T16:16:18.329Z,,0,,,NaN,,,,,,false,,,,633784,633784,,633784,,633783.6,8,400,,,
sequence,flow.Sequence,4_121,2023-11-01T16:16:18.329Z,,0,,,3446.359999999986,completion,,,,,false,,,,633784,633784,630337.46,630339,630337.64,633783.6,8,400,,,
trial,html.Screen,4_122_0,2023-11-01T16:16:22.264Z,,0,3,,3934.4000000000233,response,ISIC_0069505.JPG,14,ISIC_8969855.JPG,ISIC_8969855.JPG,false,0,keypress(z),500,637719,637718,633783.38,633785,633783.6,637722.4,8,400,23,,ISIC_0069505.JPG
break,html.Screen,4_122_1,2023-11-01T16:16:22.265Z,,0,,,NaN,,,,,,false,,,,637719,637719,,637719,,637722.4,8,400,,,
break_continue,html.Screen,4_122_2,2023-11-01T16:16:22.265Z,,0,,,NaN,,,,,,false,,,,637720,637720,,637720,,637722.4,8,400,,,
sequence,flow.Sequence,4_122,2023-11-01T16:16:22.265Z,,0,,,3936.4000000000233,completion,,,,,false,,,,637720,637720,633783.38,633785,633783.6,637722.4,8,400,,,
trial,html.Screen,4_123_0,2023-11-01T16:16:25.013Z,,0,3,,2746.5999999999767,response,ISIC_0026664.JPG,29,ISIC_7535412.JPG,ISIC_7535412.JPG,false,0,keypress(z),500,640469,640469,637719,637720,637722.4,640468.84,8,400,24,,ISIC_0026664.JPG
break,html.Screen,4_123_1,2023-11-01T16:16:25.014Z,,0,,,NaN,,,,,,false,,,,640470,640470,,640469,,640468.84,8,400,,,
break_continue,html.Screen,4_123_2,2023-11-01T16:16:25.015Z,,0,,,NaN,,,,,,false,,,,640470,640470,,640470,,640468.84,8,400,,,
sequence,flow.Sequence,4_123,2023-11-01T16:16:25.015Z,,0,,,2747.5999999999767,completion,,,,,false,,,,640470,640470,637719,637720,637722.4,640468.84,8,400,,,
trial,html.Screen,4_124_0,2023-11-01T16:16:27.796Z,,0,3,,2782.1600000000326,response,ISIC_6023518.JPG,10,ISIC_1366765.JPG,ISIC_1366765.JPG,false,0,keypress(z),500,643252,643251,640468.7,640470,640468.84,643251.92,8,400,25,,ISIC_6023518.JPG
break,html.Screen,4_124_1,2023-11-01T16:16:27.797Z,,0,,,NaN,,,,,,false,,,,643253,643252,,643252,,643251.92,8,400,,,
break_continue,html.Screen,4_124_2,2023-11-01T16:16:27.797Z,,0,,,NaN,,,,,,false,,,,643253,643253,,643253,,643251.92,8,400,,,
sequence,flow.Sequence,4_124,2023-11-01T16:16:27.797Z,,0,,,2784.1600000000326,completion,,,,,false,,,,643253,643253,640468.7,640470,640468.84,643251.92,8,400,,,
trial,html.Screen,4_125_0,2023-11-01T16:16:34.832Z,,0,3,,7035.079999999958,response,ISIC_5610222.JPG,17,ISIC_0002184.JPG,ISIC_5610222.JPG,false,1,keypress(m),500,650287,650287,643251.7,643253,643251.92,650288.12,8,400,26,,ISIC_0002184.JPG
break,html.Screen,4_125_1,2023-11-01T16:16:34.833Z,,0,,,NaN,,,,,,false,,,,650288,650288,,650288,,650288.12,8,400,,,
break_continue,html.Screen,4_125_2,2023-11-01T16:16:34.833Z,,0,,,NaN,,,,,,false,,,,650289,650289,,650289,,650288.12,8,400,,,
sequence,flow.Sequence,4_125,2023-11-01T16:16:34.834Z,,0,,,7037.079999999958,completion,,,,,false,,,,650289,650289,643251.7,643253,643251.92,650288.12,8,400,,,
trial,html.Screen,4_126_0,2023-11-01T16:16:40.451Z,,0,3,,5617.880000000005,response,ISIC_1496194.JPG,21,ISIC_3571523.JPG,ISIC_1496194.JPG,false,1,keypress(m),500,655906,655906,650287.92,650289,650288.12,655907.56,8,400,27,,ISIC_3571523.JPG
break,html.Screen,4_126_1,2023-11-01T16:16:40.452Z,,0,,,NaN,,,,,,false,,,,655908,655907,,655906,,655907.56,8,400,,,
break_continue,html.Screen,4_126_2,2023-11-01T16:16:40.453Z,,0,,,NaN,,,,,,false,,,,655908,655908,,655908,,655907.56,8,400,,,
sequence,flow.Sequence,4_126,2023-11-01T16:16:40.453Z,,0,,,5619.880000000005,completion,,,,,false,,,,655909,655908,650287.92,650289,650288.12,655907.56,8,400,,,
trial,html.Screen,4_127_0,2023-11-01T16:16:43.390Z,,0,3,,2937.439999999944,response,ISIC_0430356.JPG,17,ISIC_5318217.JPG,ISIC_5318217.JPG,false,0,keypress(z),500,658845,658845,655906.66,655909,655907.56,658845.48,8,400,28,,ISIC_0430356.JPG
break,html.Screen,4_127_1,2023-11-01T16:16:43.390Z,,0,,,NaN,,,,,,false,,,,658846,658846,,658845,,658845.48,8,400,,,
break_continue,html.Screen,4_127_2,2023-11-01T16:16:43.391Z,,0,,,NaN,,,,,,false,,,,658846,658846,,658846,,658845.48,8,400,,,
sequence,flow.Sequence,4_127,2023-11-01T16:16:43.391Z,,0,,,2938.439999999944,completion,,,,,false,,,,658846,658846,655906.66,655909,655907.56,658845.48,8,400,,,
trial,html.Screen,4_128_0,2023-11-01T16:16:46.203Z,,0,3,,2813.5200000000186,response,ISIC_0014088.JPG,8,ISIC_0027149.JPG,ISIC_0014088.JPG,false,1,keypress(m),500,661659,661659,658845.3,658846,658845.48,661659.32,8,400,29,,ISIC_0027149.JPG
break,html.Screen,4_128_1,2023-11-01T16:16:46.204Z,,0,,,NaN,,,,,,false,,,,661660,661660,,661659,,661659.32,8,400,,,
break_continue,html.Screen,4_128_2,2023-11-01T16:16:46.204Z,,0,,,NaN,,,,,,false,,,,661660,661660,,661660,,661659.32,8,400,,,
sequence,flow.Sequence,4_128,2023-11-01T16:16:46.205Z,,0,,,2814.5200000000186,completion,,,,,false,,,,661660,661660,658845.3,658846,658845.48,661659.32,8,400,,,
trial,html.Screen,4_129_0,2023-11-01T16:16:48.938Z,,0,3,,2733.680000000051,response,ISIC_8301536.JPG,17,ISIC_0028075.JPG,ISIC_0028075.JPG,false,0,keypress(z),500,664393,664393,661659.14,661660,661659.32,664393.38,8,400,30,,ISIC_8301536.JPG
break,html.Screen,4_129_1,2023-11-01T16:16:48.939Z,,0,,,NaN,,,,,,false,,,,664394,664394,,664393,,664393.38,8,400,,,
break_continue,html.Screen,4_129_2,2023-11-01T16:16:48.939Z,,0,,,NaN,,,,,,false,,,,664394,664394,,664394,,664393.38,8,400,,,
sequence,flow.Sequence,4_129,2023-11-01T16:16:48.939Z,,0,,,2734.680000000051,completion,,,,,false,,,,664394,664394,661659.14,661660,661659.32,664393.38,8,400,,,
trial,html.Screen,4_130_0,2023-11-01T16:16:51.477Z,,0,3,,2539.6199999999953,response,ISIC_0060679.JPG,23,ISIC_0268187.JPG,ISIC_0268187.JPG,false,0,keypress(z),500,666933,666933,664393.04,664395,664393.38,666932.78,8,400,31,,ISIC_0060679.JPG
break,html.Screen,4_130_1,2023-11-01T16:16:51.478Z,,0,,,NaN,,,,,,false,,,,666934,666933,,666933,,666932.78,8,400,,,
break_continue,html.Screen,4_130_2,2023-11-01T16:16:51.479Z,,0,,,NaN,,,,,,false,,,,666934,666934,,666934,,666932.78,8,400,,,
sequence,flow.Sequence,4_130,2023-11-01T16:16:51.479Z,,0,,,2540.6199999999953,completion,,,,,false,,,,666934,666934,664393.04,664395,664393.38,666932.78,8,400,,,
trial,html.Screen,4_131_0,2023-11-01T16:16:54.676Z,,0,3,,3198.219999999972,response,ISIC_0065133.JPG,2,ISIC_0033181.JPG,ISIC_0065133.JPG,false,1,keypress(m),500,670131,670131,666932.62,666934,666932.78,670131.74,8,400,32,,ISIC_0033181.JPG
break,html.Screen,4_131_1,2023-11-01T16:16:54.677Z,,0,,,NaN,,,,,,false,,,,670132,670132,,670132,,670131.74,8,400,,,
break_continue,html.Screen,4_131_2,2023-11-01T16:16:54.677Z,,0,,,NaN,,,,,,false,,,,670133,670133,,670133,,670131.74,8,400,,,
sequence,flow.Sequence,4_131,2023-11-01T16:16:54.677Z,,0,,,3200.219999999972,completion,,,,,false,,,,670133,670133,666932.62,666934,666932.78,670131.74,8,400,,,
trial,html.Screen,4_132_0,2023-11-01T16:16:57.519Z,,0,3,,2843.2600000000093,response,ISIC_0029693.JPG,21,ISIC_5754070.JPG,ISIC_5754070.JPG,false,0,keypress(z),500,672976,672975,670131.58,670133,670131.74,672975.5,8,400,33,,ISIC_0029693.JPG
break,html.Screen,4_132_1,2023-11-01T16:16:57.520Z,,0,,,NaN,,,,,,false,,,,672976,672976,,672976,,672975.5,8,400,,,
break_continue,html.Screen,4_132_2,2023-11-01T16:16:57.520Z,,0,,,NaN,,,,,,false,,,,672977,672977,,672977,,672975.5,8,400,,,
sequence,flow.Sequence,4_132,2023-11-01T16:16:57.521Z,,0,,,2845.2600000000093,completion,,,,,false,,,,672977,672977,670131.58,670133,670131.74,672975.5,8,400,,,
trial,html.Screen,4_133_0,2023-11-01T16:17:00.781Z,,0,3,,3260.5,response,ISIC_6445453.JPG,18,ISIC_1868816.JPG,ISIC_6445453.JPG,false,1,keypress(m),500,676236,676236,672975.34,672977,672975.5,676236.58,8,400,34,,ISIC_1868816.JPG
break,html.Screen,4_133_1,2023-11-01T16:17:00.781Z,,0,,,NaN,,,,,,false,,,,676237,676236,,676236,,676236.58,8,400,,,
break_continue,html.Screen,4_133_2,2023-11-01T16:17:00.783Z,,0,,,NaN,,,,,,false,,,,676237,676237,,676237,,676236.58,8,400,,,
sequence,flow.Sequence,4_133,2023-11-01T16:17:00.783Z,,0,,,3261.5,completion,,,,,false,,,,676237,676237,672975.34,672977,672975.5,676236.58,8,400,,,
trial,html.Screen,4_134_0,2023-11-01T16:17:04.186Z,,0,3,,3405.420000000042,response,ISIC_0015206.JPG,17,ISIC_0056749.JPG,ISIC_0056749.JPG,false,0,keypress(z),500,679642,679642,676236.38,676237,676236.58,679641.9,8,400,35,,ISIC_0015206.JPG
break,html.Screen,4_134_1,2023-11-01T16:17:04.186Z,,0,,,NaN,,,,,,false,,,,679642,679642,,679642,,679641.9,8,400,,,
break_continue,html.Screen,4_134_2,2023-11-01T16:17:04.187Z,,0,,,NaN,,,,,,false,,,,679642,679642,,679642,,679641.9,8,400,,,
sequence,flow.Sequence,4_134,2023-11-01T16:17:04.187Z,,0,,,3405.420000000042,completion,,,,,false,,,,679642,679642,676236.38,676237,676236.58,679641.9,8,400,,,
trial,html.Screen,4_135_0,2023-11-01T16:17:07.054Z,,0,3,,2867.0999999999767,response,ISIC_5082596.JPG,27,ISIC_6808543.JPG,ISIC_5082596.JPG,false,1,keypress(m),500,682510,682509,679641.72,679642,679641.9,682511.44,8,400,36,,ISIC_6808543.JPG
break,html.Screen,4_135_1,2023-11-01T16:17:07.055Z,,0,,,NaN,,,,,,false,,,,682510,682510,,682510,,682511.44,8,400,,,
break_continue,html.Screen,4_135_2,2023-11-01T16:17:07.055Z,,0,,,NaN,,,,,,false,,,,682511,682511,,682510,,682511.44,8,400,,,
sequence,flow.Sequence,4_135,2023-11-01T16:17:07.056Z,,0,,,2869.0999999999767,completion,,,,,false,,,,682511,682511,679641.72,679642,679641.9,682511.44,8,400,,,
trial,html.Screen,4_136_0,2023-11-01T16:17:10.136Z,,0,3,,3079.560000000056,response,ISIC_0000026.JPG,17,ISIC_0024853.JPG,ISIC_0000026.JPG,false,1,keypress(m),500,685592,685591,682510.08,682511,682511.44,685591.7,8,400,37,,ISIC_0024853.JPG
break,html.Screen,4_136_1,2023-11-01T16:17:10.137Z,,0,,,NaN,,,,,,false,,,,685593,685592,,685592,,685591.7,8,400,,,
break_continue,html.Screen,4_136_2,2023-11-01T16:17:10.137Z,,0,,,NaN,,,,,,false,,,,685593,685593,,685593,,685591.7,8,400,,,
sequence,flow.Sequence,4_136,2023-11-01T16:17:10.137Z,,0,,,3081.560000000056,completion,,,,,false,,,,685593,685593,682510.08,682511,682511.44,685591.7,8,400,,,
trial,html.Screen,4_137_0,2023-11-01T16:17:13.126Z,,0,3,,2990.3000000000466,response,ISIC_0033122.JPG,24,ISIC_0002613.JPG,ISIC_0002613.JPG,false,0,keypress(z),500,688582,688582,685591.5,685593,685591.7,688582.26,8,400,38,,ISIC_0033122.JPG
break,html.Screen,4_137_1,2023-11-01T16:17:13.127Z,,0,,,NaN,,,,,,false,,,,688582,688582,,688582,,688582.26,8,400,,,
break_continue,html.Screen,4_137_2,2023-11-01T16:17:13.127Z,,0,,,NaN,,,,,,false,,,,688583,688582,,688582,,688582.26,8,400,,,
sequence,flow.Sequence,4_137,2023-11-01T16:17:13.128Z,,0,,,2990.3000000000466,completion,,,,,false,,,,688583,688582,685591.5,685593,685591.7,688582.26,8,400,,,
trial,html.Screen,4_138_0,2023-11-01T16:17:17.655Z,,0,3,,4527.739999999991,response,ISIC_0067798.JPG,19,ISIC_0056409.JPG,ISIC_0067798.JPG,false,1,keypress(m),500,693110,693110,688582.02,688583,688582.26,693113.66,8,400,39,,ISIC_0056409.JPG
break,html.Screen,4_138_1,2023-11-01T16:17:17.656Z,,0,,,NaN,,,,,,false,,,,693111,693111,,693110,,693113.66,8,400,,,
break_continue,html.Screen,4_138_2,2023-11-01T16:17:17.656Z,,0,,,NaN,,,,,,false,,,,693111,693111,,693111,,693113.66,8,400,,,
sequence,flow.Sequence,4_138,2023-11-01T16:17:17.656Z,,0,,,4528.739999999991,completion,,,,,false,,,,693111,693111,688582.02,688583,688582.26,693113.66,8,400,,,
trial,html.Screen,4_139_0,2023-11-01T16:17:21.764Z,,0,3,,4105.339999999967,response,ISIC_0010175.JPG,5,ISIC_6732560.JPG,ISIC_6732560.JPG,false,0,keypress(z),500,697219,697219,693110.52,693112,693113.66,697219.94,8,400,40,,ISIC_0010175.JPG
break,html.Screen,4_139_1,2023-11-01T16:17:21.765Z,,0,,,NaN,,,,,,false,,,,697220,697220,,697220,,697219.94,8,400,,,
break_continue,html.Screen,4_139_2,2023-11-01T16:17:21.765Z,,0,,,NaN,,,,,,false,,,,697221,697220,,697220,,697219.94,8,400,,,
sequence,flow.Sequence,4_139,2023-11-01T16:17:21.765Z,,0,,,4106.339999999967,completion,,,,,false,,,,697221,697220,693110.52,693112,693113.66,697219.94,8,400,,,
trial,html.Screen,4_140_0,2023-11-01T16:17:25.320Z,,0,3,,3555.060000000056,response,ISIC_7128007.JPG,23,ISIC_1081430.JPG,ISIC_1081430.JPG,false,0,keypress(z),500,700776,700775,697219.76,697221,697219.94,700775.92,8,400,41,,ISIC_7128007.JPG
break,html.Screen,4_140_1,2023-11-01T16:17:25.322Z,,0,,,NaN,,,,,,false,,,,700777,700776,,700776,,700775.92,8,400,,,
break_continue,html.Screen,4_140_2,2023-11-01T16:17:25.322Z,,0,,,NaN,,,,,,false,,,,700778,700777,,700777,,700775.92,8,400,,,
sequence,flow.Sequence,4_140,2023-11-01T16:17:25.322Z,,0,,,3557.060000000056,completion,,,,,false,,,,700778,700777,697219.76,697221,697219.94,700775.92,8,400,,,
trial,html.Screen,4_141_0,2023-11-01T16:17:28.370Z,,0,3,,3049.079999999958,response,ISIC_4425604.JPG,4,ISIC_7336383.JPG,ISIC_7336383.JPG,false,0,keypress(z),500,703825,703825,700775.74,700778,700775.92,703825.88,8,400,42,,ISIC_4425604.JPG
break,html.Screen,4_141_1,2023-11-01T16:17:28.371Z,,0,,,NaN,,,,,,false,,,,703826,703826,,703826,,703825.88,8,400,,,
break_continue,html.Screen,4_141_2,2023-11-01T16:17:28.371Z,,0,,,NaN,,,,,,false,,,,703827,703826,,703826,,703825.88,8,400,,,
sequence,flow.Sequence,4_141,2023-11-01T16:17:28.371Z,,0,,,3050.079999999958,completion,,,,,false,,,,703827,703826,700775.74,700778,700775.92,703825.88,8,400,,,
trial,html.Screen,4_142_0,2023-11-01T16:17:31.963Z,,0,3,,3593.1199999999953,response,ISIC_0027742.JPG,22,ISIC_9090822.JPG,ISIC_9090822.JPG,false,0,keypress(z),500,707419,707419,703825.68,703827,703825.88,707419.06,8,400,43,,ISIC_0027742.JPG
break,html.Screen,4_142_1,2023-11-01T16:17:31.964Z,,0,,,NaN,,,,,,false,,,,707420,707420,,707419,,707419.06,8,400,,,
break_continue,html.Screen,4_142_2,2023-11-01T16:17:31.964Z,,0,,,NaN,,,,,,false,,,,707420,707420,,707420,,707419.06,8,400,,,
sequence,flow.Sequence,4_142,2023-11-01T16:17:31.964Z,,0,,,3594.1199999999953,completion,,,,,false,,,,707420,707420,703825.68,703827,703825.88,707419.06,8,400,,,
trial,html.Screen,4_143_0,2023-11-01T16:17:38.373Z,,0,3,,6408.939999999944,response,ISIC_0485996.JPG,22,ISIC_5929687.JPG,ISIC_0485996.JPG,false,1,keypress(m),500,713829,713828,707418.84,707420,707419.06,713835.44,8,400,44,,ISIC_5929687.JPG
break,html.Screen,4_143_1,2023-11-01T16:17:38.374Z,,0,,,NaN,,,,,,false,,,,713830,713829,,713829,,713835.44,8,400,,,
break_continue,html.Screen,4_143_2,2023-11-01T16:17:38.374Z,,0,,,NaN,,,,,,false,,,,713830,713830,,713830,,713835.44,8,400,,,
sequence,flow.Sequence,4_143,2023-11-01T16:17:38.374Z,,0,,,6410.939999999944,completion,,,,,false,,,,713830,713830,707418.84,707420,707419.06,713835.44,8,400,,,
trial,html.Screen,4_144_0,2023-11-01T16:17:41.786Z,,0,3,,3405.560000000056,response,ISIC_0061152.JPG,17,ISIC_1350519.JPG,ISIC_1350519.JPG,false,0,keypress(z),500,717241,717241,713828.52,713830,713835.44,717241.14,8,400,45,,ISIC_0061152.JPG
break,html.Screen,4_144_1,2023-11-01T16:17:41.787Z,,0,,,NaN,,,,,,false,,,,717242,717242,,717241,,717241.14,8,400,,,
break_continue,html.Screen,4_144_2,2023-11-01T16:17:41.787Z,,0,,,NaN,,,,,,false,,,,717242,717242,,717242,,717241.14,8,400,,,
sequence,flow.Sequence,4_144,2023-11-01T16:17:41.787Z,,0,,,3406.560000000056,completion,,,,,false,,,,717242,717242,713828.52,713830,713835.44,717241.14,8,400,,,
trial,html.Screen,4_145_0,2023-11-01T16:17:45.454Z,,0,3,,3667.859999999986,response,ISIC_0011459.JPG,29,ISIC_3764173.JPG,ISIC_3764173.JPG,false,0,keypress(z),500,720910,720909,717240.98,717243,717241.14,720909.68,8,400,46,,ISIC_0011459.JPG
break,html.Screen,4_145_1,2023-11-01T16:17:45.455Z,,0,,,NaN,,,,,,false,,,,720910,720910,,720910,,720909.68,8,400,,,
break_continue,html.Screen,4_145_2,2023-11-01T16:17:45.455Z,,0,,,NaN,,,,,,false,,,,720911,720911,,720911,,720909.68,8,400,,,
sequence,flow.Sequence,4_145,2023-11-01T16:17:45.455Z,,0,,,3669.859999999986,completion,,,,,false,,,,720911,720911,717240.98,717243,717241.14,720909.68,8,400,,,
trial,html.Screen,4_146_0,2023-11-01T16:17:48.352Z,,0,3,,2898.319999999949,response,ISIC_0031377.JPG,3,ISIC_0026700.JPG,ISIC_0031377.JPG,false,1,keypress(m),500,723808,723808,720909.44,720911,720909.68,723838.58,8,400,47,,ISIC_0026700.JPG
break,html.Screen,4_146_1,2023-11-01T16:17:48.353Z,,0,,,NaN,,,,,,false,,,,723809,723808,,723808,,723838.58,8,400,,,
break_continue,html.Screen,4_146_2,2023-11-01T16:17:48.353Z,,0,,,NaN,,,,,,false,,,,723809,723809,,723809,,723838.58,8,400,,,
sequence,flow.Sequence,4_146,2023-11-01T16:17:48.354Z,,0,,,2899.319999999949,completion,,,,,false,,,,723809,723809,720909.44,720911,720909.68,723838.58,8,400,,,
trial,html.Screen,4_147_0,2023-11-01T16:17:52.793Z,,0,3,,4409.420000000042,response,ISIC_5709247.JPG,7,ISIC_0061581.JPG,ISIC_0061581.JPG,false,0,keypress(z),500,728248,728248,723821.94,723809,723838.58,728248.78,8,400,48,,ISIC_5709247.JPG
break,html.Screen,4_147_1,2023-11-01T16:17:52.794Z,,0,,,NaN,,,,,,false,,,,728249,728249,,728249,,728248.78,8,400,,,
break_continue,html.Screen,4_147_2,2023-11-01T16:17:52.794Z,,0,,,NaN,,,,,,false,,,,728250,728250,,728250,,728248.78,8,400,,,
sequence,flow.Sequence,4_147,2023-11-01T16:17:52.795Z,,0,,,4411.420000000042,completion,,,,,false,,,,728250,728250,723821.94,723809,723838.58,728248.78,8,400,,,
trial,html.Screen,4_148_0,2023-11-01T16:17:55.859Z,,0,3,,3065.219999999972,response,ISIC_3520709.JPG,17,ISIC_2494956.JPG,ISIC_2494956.JPG,false,0,keypress(z),500,731314,731314,728248.58,728250,728248.78,731314.56,8,400,49,,ISIC_3520709.JPG
break,html.Screen,4_148_1,2023-11-01T16:17:55.859Z,,0,,,NaN,,,,,,false,,,,731315,731315,,731314,,731314.56,8,400,,,
break_continue,html.Screen,4_148_2,2023-11-01T16:17:55.860Z,,0,,,NaN,,,,,,false,,,,731315,731315,,731315,,731314.56,8,400,,,
sequence,flow.Sequence,4_148,2023-11-01T16:17:55.860Z,,0,,,3066.219999999972,completion,,,,,false,,,,731315,731315,728248.58,728250,728248.78,731314.56,8,400,,,
trial,html.Screen,4_149_0,2023-11-01T16:17:59.395Z,,0,3,,3534.439999999944,response,ISIC_4035599.JPG,30,ISIC_2320481.JPG,ISIC_2320481.JPG,false,0,keypress(z),500,734850,734849,731314.38,731316,731314.56,734850.32,8,400,50,,ISIC_4035599.JPG
break,html.Screen,4_149_1,2023-11-01T16:18:09.372Z,,0,,,9992.96000000008,timeout,,,,,false,,,,744827,744826.62,734850.06,734850,734850.32,744843.28,8,400,,,
break_continue,html.Screen,4_149_2,2023-11-01T16:18:09.687Z,,0,,,267.71999999997206,response,,,,,false,continue,keypress(Space),,745142,745111,744826.62,744827,744843.28,745143.76,8,400,,,
sequence,flow.Sequence,4_149,2023-11-01T16:18:09.688Z,,0,,,13796.439999999944,completion,,,,,false,,,,745142,745111,731314.38,731316,731314.56,745143.76,8,400,,,
trial,html.Screen,4_150_0,2023-11-01T16:18:12.554Z,,0,4,,2865.2399999999907,response,ISIC_0033696.JPG,23,ISIC_2772217.JPG,ISIC_2772217.JPG,false,0,keypress(z),500,748010,748009,745143.62,745143,745143.76,748010.22,8,400,1,,ISIC_0033696.JPG
break,html.Screen,4_150_1,2023-11-01T16:18:12.555Z,,0,,,NaN,,,,,,false,,,,748011,748010,,748010,,748010.22,8,400,,,
break_continue,html.Screen,4_150_2,2023-11-01T16:18:12.556Z,,0,,,NaN,,,,,,false,,,,748012,748011,,748011,,748010.22,8,400,,,
sequence,flow.Sequence,4_150,2023-11-01T16:18:12.556Z,,0,,,2867.2399999999907,completion,,,,,false,,,,748012,748011,745143.62,745143,745143.76,748010.22,8,400,,,
