sender,sender_type,sender_id,timestamp,meta,,blockNo,condition,duration,ended_on,img_left,img_reveal,img_right,loser,practice,response,response_action,selection_duration,time_commit,time_end,time_render,time_run,time_show,time_switch,total_blocks,total_trials,trialNo,url,winner
informed_consent,html.Screen,0,2023-10-31T21:03:41.358Z,"{""labjs_version"":""20.2.4"",""labjs_build"":{""flavor"":""production"",""commit"":""f5b4a49f956347addd546a832a3327688c2c0fef""},""location"":""https://run.pavlovia.org/MurrayBennett/melanoma-2afc/?participant=67360&platform=sona"",""userAgent"":""Mozilla/5.0 (Macintosh; Intel Mac OS X 10_15_7) AppleWebKit/537.36 (KHTML, like Gecko) Chrome/118.0.0.0 Safari/537.36"",""platform"":""MacIntel"",""language"":""en-US"",""locale"":""en-US"",""timeZone"":""America/Chicago"",""timezoneOffset"":300,""screen_width"":1440,""screen_height"":900,""scroll_width"":1200,""scroll_height"":590,""window_innerWidth"":1200,""window_innerHeight"":638,""devicePixelRatio"":1}",,,,6568.275999994039,response,,,,,,consent,click button,,8761.39999999106,8736.59999999404,1733.838,2157.5999999940395,2168.324,8785.88,,,,"{""participant"":""67360"",""platform"":""sona""}",
Welcome,html.Screen,1,2023-10-31T21:04:17.770Z,,,,asymmetry,36375.01999999106,response,,,,,,continue,click button,,45172.19999998808,45160.89999999106,8752.458,8762.09999999404,8785.88,45183.095,,,,,
trial,html.Screen,2_0_0,2023-10-31T21:04:25.857Z,,0,0,,8075.504999994038,response,ISIC_0069348.JPG,,ISIC_6997061.JPG,ISIC_6997061.JPG,true,0,keypress(z),500,53259,53258.59999999404,45166.384,45172.39999999106,45183.095,53271.468,1,6,1,,ISIC_0069348.JPG
sequence,flow.Sequence,2_0,2023-10-31T21:04:25.857Z,,0,,,8075.504999994038,completion,,,,,true,,,,53259.39999999106,53258.59999999404,45166.384,45172.29999999702,45183.095,53271.468,1,6,,,
trial,html.Screen,2_1_0,2023-10-31T21:04:31.690Z,,0,0,,5820.431999991059,response,ISIC_0009529.JPG,,ISIC_0057368.JPG,ISIC_0009529.JPG,true,1,keypress(m),500,59092.19999998808,59091.89999999106,53254.757,53259.69999998808,53271.468,59103.607,1,6,2,,ISIC_0057368.JPG
sequence,flow.Sequence,2_1,2023-10-31T21:04:31.691Z,,0,,,5820.431999991059,completion,,,,,true,,,,59092.5,59091.89999999106,53254.757,53259.59999999404,53271.468,59103.607,1,6,,,
trial,html.Screen,2_2_0,2023-10-31T21:04:38.148Z,,0,0,,6445.492999994036,response,ISIC_9758671.JPG,,ISIC_0064954.JPG,ISIC_0064954.JPG,true,0,keypress(z),500,65549.39999999106,65549.09999999404,59086.896,59092.79999999702,59103.607,65554.287,1,6,3,,ISIC_9758671.JPG
sequence,flow.Sequence,2_2,2023-10-31T21:04:38.148Z,,0,,,6445.492999994036,completion,,,,,true,,,,65549.59999999404,65549.09999999404,59086.896,59092.69999998808,59103.607,65554.287,1,6,,,
trial,html.Screen,2_3_0,2023-10-31T21:04:45.257Z,,0,0,,7103.812999994043,response,ISIC_0000080.JPG,,ISIC_0005785.JPG,ISIC_0000080.JPG,true,1,keypress(m),500,72658.39999999106,72658.09999999404,65537.576,65549.79999999702,65554.287,72673.173,1,6,4,,ISIC_0005785.JPG
sequence,flow.Sequence,2_3,2023-10-31T21:04:45.257Z,,0,,,7103.812999994043,completion,,,,,true,,,,72658.59999999404,72658.09999999404,65537.576,65549.69999998808,65554.287,72673.173,1,6,,,
trial,html.Screen,2_4_0,2023-10-31T21:04:50.159Z,,0,0,,4886.426999994044,response,ISIC_7944028.JPG,,ISIC_5390060.JPG,ISIC_7944028.JPG,true,1,keypress(m),500,77559.89999999106,77559.59999999404,72656.462,72658.69999998808,72673.173,77569.708,1,6,5,,ISIC_5390060.JPG
sequence,flow.Sequence,2_4,2023-10-31T21:04:50.159Z,,0,,,4886.426999994044,completion,,,,,true,,,,77560.29999999702,77559.59999999404,72656.462,72658.69999998808,72673.173,77569.708,1,6,,,
trial,html.Screen,2_5_0,2023-10-31T21:04:53.625Z,,0,0,,3455.891999994041,response,ISIC_0010188.JPG,,ISIC_0794216.JPG,ISIC_0010188.JPG,true,1,keypress(m),500,81025.79999999702,81025.59999999404,77552.997,77560.5,77569.708,81028.885,1,6,6,,ISIC_0794216.JPG
sequence,flow.Sequence,2_5,2023-10-31T21:04:53.625Z,,0,,,3455.891999994041,completion,,,,,true,,,,81026.19999998808,81025.59999999404,77552.997,77560.39999999106,77569.708,81028.885,1,6,,,
loop,flow.Loop,2,2023-10-31T21:04:53.625Z,,,,,35842.50499999404,completion,,,,,true,,,,81026.5,81025.59999999404,45166.384,45172.29999999702,45183.095,81028.885,1,6,,,
exp_instructions,html.Screen,3,2023-10-31T21:05:08.714Z,,,,,15078.014999991065,response,,,,,,continue,keypress(Space),,96115.19999998808,96106.89999999106,81012.174,81026.59999999404,81028.885,96119.096,,,,,
trial,html.Screen,4_0_0,2023-10-31T21:05:16.053Z,,0,1,,7334.203999997015,response,ISIC_0059773.JPG,5,ISIC_0014366.JPG,ISIC_0059773.JPG,false,1,keypress(m),500,103453.59999999404,103453.29999999702,96102.385,96116,96119.096,103455.41,8,400,1,,ISIC_0014366.JPG
break,html.Screen,4_0_1,2023-10-31T21:05:16.054Z,,0,,,NaN,,,,,,false,,,,103454.5,103454.29999999702,,103453.69999998808,,103455.41,8,400,,,
break_continue,html.Screen,4_0_2,2023-10-31T21:05:16.055Z,,0,,,NaN,,,,,,false,,,,103455.09999999404,103454.89999999106,,103454.69999998808,,103455.41,8,400,,,
sequence,flow.Sequence,4_0,2023-10-31T21:05:16.055Z,,0,,,7335.803999991054,completion,,,,,false,,,,103455.29999999702,103454.89999999106,96102.385,96115.5,96119.096,103455.41,8,400,,,
trial,html.Screen,4_1_0,2023-10-31T21:05:24.221Z,,0,1,,8165.189999994036,response,ISIC_0009883.JPG,8,ISIC_3817292.JPG,ISIC_3817292.JPG,false,0,keypress(z),500,111620.89999999106,111620.59999999404,103438.699,103455.5,103455.41,111627.327,8,400,2,,ISIC_0009883.JPG
break,html.Screen,4_1_1,2023-10-31T21:05:24.221Z,,0,,,NaN,,,,,,false,,,,111621.69999998808,111621.5,,111621,,111627.327,8,400,,,
break_continue,html.Screen,4_1_2,2023-10-31T21:05:24.222Z,,0,,,NaN,,,,,,false,,,,111622,111621.89999999106,,111621.69999998808,,111627.327,8,400,,,
sequence,flow.Sequence,4_1,2023-10-31T21:05:24.222Z,,0,,,8166.489999991056,completion,,,,,false,,,,111622.19999998808,111621.89999999106,103438.699,103455.39999999106,103455.41,111627.327,8,400,,,
trial,html.Screen,4_2_0,2023-10-31T21:05:28.978Z,,0,1,,4750.672999999995,response,ISIC_4850678.JPG,7,ISIC_9014786.JPG,ISIC_9014786.JPG,false,0,keypress(z),500,116378.19999998808,116378,111610.616,111622.39999999106,111627.327,116389.962,8,400,3,,ISIC_4850678.JPG
break,html.Screen,4_2_1,2023-10-31T21:05:28.979Z,,0,,,NaN,,,,,,false,,,,116378.89999999106,116378.79999999702,,116378.39999999106,,116389.962,8,400,,,
break_continue,html.Screen,4_2_2,2023-10-31T21:05:28.979Z,,0,,,NaN,,,,,,false,,,,116379.29999999702,116379.19999998808,,116379.09999999404,,116389.962,8,400,,,
sequence,flow.Sequence,4_2,2023-10-31T21:05:28.979Z,,0,,,4751.872999988074,completion,,,,,false,,,,116379.59999999404,116379.19999998808,111610.616,111622.39999999106,111627.327,116389.962,8,400,,,
trial,html.Screen,4_3_0,2023-10-31T21:05:34.520Z,,0,1,,5530.2379999880795,response,ISIC_4691689.JPG,7,ISIC_0031202.JPG,ISIC_4691689.JPG,false,1,keypress(m),500,121920.39999999106,121920.19999998808,116373.251,116379.69999998808,116389.962,121921.485,8,400,4,,ISIC_0031202.JPG
break,html.Screen,4_3_1,2023-10-31T21:05:34.521Z,,0,,,NaN,,,,,,false,,,,121921.09999999404,121921,,121920.59999999404,,121921.485,8,400,,,
break_continue,html.Screen,4_3_2,2023-10-31T21:05:34.522Z,,0,,,NaN,,,,,,false,,,,121921.59999999404,121921.39999999106,,121921.29999999702,,121921.485,8,400,,,
sequence,flow.Sequence,4_3,2023-10-31T21:05:34.522Z,,0,,,5531.43799999106,completion,,,,,false,,,,121921.79999999702,121921.39999999106,116373.251,116379.59999999404,116389.962,121921.485,8,400,,,
trial,html.Screen,4_4_0,2023-10-31T21:05:40.223Z,,0,1,,5700.814999997019,response,ISIC_0057015.JPG,5,ISIC_8159779.JPG,ISIC_8159779.JPG,false,0,keypress(z),500,127622.5,127622.29999999702,121904.774,121922,121921.485,127636.647,8,400,5,,ISIC_0057015.JPG
break,html.Screen,4_4_1,2023-10-31T21:05:40.223Z,,0,,,NaN,,,,,,false,,,,127623.19999998808,127623.09999999404,,127622.69999998808,,127636.647,8,400,,,
break_continue,html.Screen,4_4_2,2023-10-31T21:05:40.224Z,,0,,,NaN,,,,,,false,,,,127623.69999998808,127623.59999999404,,127623.39999999106,,127636.647,8,400,,,
sequence,flow.Sequence,4_4,2023-10-31T21:05:40.224Z,,0,,,5702.114999994039,completion,,,,,false,,,,127623.89999999106,127623.59999999404,121904.774,121921.89999999106,121921.485,127636.647,8,400,,,
trial,html.Screen,4_5_0,2023-10-31T21:05:48.646Z,,0,1,,8408.652999997023,response,ISIC_5537876.JPG,6,ISIC_9509757.JPG,ISIC_5537876.JPG,false,1,keypress(m),500,136045.39999999106,136045.29999999702,127619.936,127624.09999999404,127636.647,136059.174,8,400,6,,ISIC_9509757.JPG
break,html.Screen,4_5_1,2023-10-31T21:05:48.647Z,,0,,,NaN,,,,,,false,,,,136046.19999998808,136046,,136045.69999998808,,136059.174,8,400,,,
break_continue,html.Screen,4_5_2,2023-10-31T21:05:48.647Z,,0,,,NaN,,,,,,false,,,,136046.5,136046.39999999106,,136046.29999999702,,136059.174,8,400,,,
sequence,flow.Sequence,4_5,2023-10-31T21:05:48.647Z,,0,,,8409.752999991062,completion,,,,,false,,,,136046.79999999702,136046.39999999106,127619.936,127624,127636.647,136059.174,8,400,,,
trial,html.Screen,4_6_0,2023-10-31T21:05:55.212Z,,0,1,,6551.52599998808,response,ISIC_3436033.JPG,6,ISIC_5634573.JPG,ISIC_3436033.JPG,false,1,keypress(m),500,142611,142610.69999998808,136042.463,136046.79999999702,136059.174,142626.779,8,400,7,,ISIC_5634573.JPG
break,html.Screen,4_6_1,2023-10-31T21:05:55.212Z,,0,,,NaN,,,,,,false,,,,142611.79999999702,142611.59999999404,,142611.19999998808,,142626.779,8,400,,,
break_continue,html.Screen,4_6_2,2023-10-31T21:05:55.213Z,,0,,,NaN,,,,,,false,,,,142612.09999999404,142612,,142611.79999999702,,142626.779,8,400,,,
sequence,flow.Sequence,4_6,2023-10-31T21:05:55.213Z,,0,,,6552.826000000001,completion,,,,,false,,,,142612.29999999702,142612,136042.463,136046.79999999702,136059.174,142626.779,8,400,,,
trial,html.Screen,4_7_0,2023-10-31T21:06:02.978Z,,0,1,,7750.4209999880695,response,ISIC_0073156.JPG,7,ISIC_0033055.JPG,ISIC_0073156.JPG,false,1,keypress(m),500,150377.39999999106,150377.19999998808,142610.068,142612.5,142626.779,150380.683,8,400,8,,ISIC_0033055.JPG
break,html.Screen,4_7_1,2023-10-31T21:06:02.979Z,,0,,,NaN,,,,,,false,,,,150378.09999999404,150378,,150377.59999999404,,150380.683,8,400,,,
break_continue,html.Screen,4_7_2,2023-10-31T21:06:02.979Z,,0,,,NaN,,,,,,false,,,,150378.5,150378.39999999106,,150378.19999998808,,150380.683,8,400,,,
sequence,flow.Sequence,4_7,2023-10-31T21:06:02.980Z,,0,,,7751.62099999105,completion,,,,,false,,,,150378.69999998808,150378.39999999106,142610.068,142612.39999999106,142626.779,150380.683,8,400,,,
trial,html.Screen,4_8_0,2023-10-31T21:06:11.898Z,,0,1,,8916.21699999107,response,ISIC_0030828.JPG,7,ISIC_7519627.JPG,ISIC_7519627.JPG,false,0,keypress(z),500,159297.19999998808,159296.89999999106,150363.972,150378.79999999702,150380.683,159304.54,8,400,9,,ISIC_0030828.JPG
break,html.Screen,4_8_1,2023-10-31T21:06:11.899Z,,0,,,NaN,,,,,,false,,,,159298,159297.69999998808,,159297.39999999106,,159304.54,8,400,,,
break_continue,html.Screen,4_8_2,2023-10-31T21:06:11.899Z,,0,,,NaN,,,,,,false,,,,159298.29999999702,159298.19999998808,,159298.09999999404,,159304.54,8,400,,,
sequence,flow.Sequence,4_8,2023-10-31T21:06:11.900Z,,0,,,8917.516999988089,completion,,,,,false,,,,159298.5,159298.19999998808,150363.972,150378.79999999702,150380.683,159304.54,8,400,,,
trial,html.Screen,4_9_0,2023-10-31T21:06:15.810Z,,0,1,,3903.7599999970116,response,ISIC_0519719.JPG,8,ISIC_5369000.JPG,ISIC_0519719.JPG,false,1,keypress(m),500,163208.59999999404,163208.29999999702,159287.829,159298.69999998808,159304.54,163215.095,8,400,10,,ISIC_5369000.JPG
break,html.Screen,4_9_1,2023-10-31T21:06:15.811Z,,0,,,NaN,,,,,,false,,,,163209.29999999702,163209.09999999404,,163208.89999999106,,163215.095,8,400,,,
break_continue,html.Screen,4_9_2,2023-10-31T21:06:15.811Z,,0,,,NaN,,,,,,false,,,,163209.79999999702,163209.69999998808,,163209.5,,163215.095,8,400,,,
sequence,flow.Sequence,4_9,2023-10-31T21:06:15.811Z,,0,,,3905.159999988071,completion,,,,,false,,,,163210,163209.69999998808,159287.829,159298.59999999404,159304.54,163215.095,8,400,,,
trial,html.Screen,4_10_0,2023-10-31T21:06:27.302Z,,0,1,,11514.062000000005,timeout,ISIC_0000375.JPG,8,ISIC_0032413.JPG,,false,,,500,174700.29999999702,174700.09999999404,163198.384,163210.09999999404,163215.095,174729.157,8,400,11,,
break,html.Screen,4_10_1,2023-10-31T21:06:27.303Z,,0,,,NaN,,,,,,false,,,,174700.89999999106,174700.69999998808,,174700.5,,174729.157,8,400,,,
break_continue,html.Screen,4_10_2,2023-10-31T21:06:27.303Z,,0,,,NaN,,,,,,false,,,,174701.29999999702,174701.19999998808,,174701.09999999404,,174729.157,8,400,,,
sequence,flow.Sequence,4_10,2023-10-31T21:06:27.303Z,,0,,,11486.104999988078,completion,,,,,false,,,,174701.5,174701.19999998808,163198.384,163210.09999999404,163215.095,174729.157,8,400,,,
trial,html.Screen,4_11_0,2023-10-31T21:06:32.445Z,,0,1,,5113.942999994033,response,ISIC_8563961.JPG,7,ISIC_4523382.JPG,ISIC_8563961.JPG,false,1,keypress(m),500,179843.39999999106,179843.09999999404,174712.446,174701.69999998808,174729.157,179859.434,8,400,12,,ISIC_4523382.JPG
break,html.Screen,4_11_1,2023-10-31T21:06:32.446Z,,0,,,NaN,,,,,,false,,,,179844.09999999404,179843.89999999106,,179843.59999999404,,179859.434,8,400,,,
break_continue,html.Screen,4_11_2,2023-10-31T21:06:32.446Z,,0,,,NaN,,,,,,false,,,,179844.5,179844.39999999106,,179844.19999998808,,179859.434,8,400,,,
sequence,flow.Sequence,4_11,2023-10-31T21:06:32.446Z,,0,,,5115.242999991053,completion,,,,,false,,,,179844.69999998808,179844.39999999106,174712.446,174701.69999998808,174729.157,179859.434,8,400,,,
trial,html.Screen,4_12_0,2023-10-31T21:06:35.986Z,,0,1,,3524.5659999999916,response,ISIC_5483119.JPG,8,ISIC_0032887.JPG,ISIC_0032887.JPG,false,0,keypress(z),500,183384.19999998808,183384,179842.723,179844.89999999106,179859.434,183402.166,8,400,13,,ISIC_5483119.JPG
break,html.Screen,4_12_1,2023-10-31T21:06:35.987Z,,0,,,NaN,,,,,,false,,,,183385,183384.79999999702,,183384.5,,183402.166,8,400,,,
break_continue,html.Screen,4_12_2,2023-10-31T21:06:35.987Z,,0,,,NaN,,,,,,false,,,,183385.39999999106,183385.19999998808,,183385,,183402.166,8,400,,,
sequence,flow.Sequence,4_12,2023-10-31T21:06:35.987Z,,0,,,3525.7659999880707,completion,,,,,false,,,,183385.59999999404,183385.19999998808,179842.723,179844.79999999702,179859.434,183402.166,8,400,,,
trial,html.Screen,4_13_0,2023-10-31T21:06:39.609Z,,0,1,,3604.233999991062,response,ISIC_0026166.JPG,8,ISIC_6733338.JPG,ISIC_0026166.JPG,false,1,keypress(m),500,187006.69999998808,187006.39999999106,183385.455,183385.69999998808,183402.166,187011.924,8,400,14,,ISIC_6733338.JPG
break,html.Screen,4_13_1,2023-10-31T21:06:39.609Z,,0,,,NaN,,,,,,false,,,,187007.5,187007.19999998808,,187006.89999999106,,187011.924,8,400,,,
break_continue,html.Screen,4_13_2,2023-10-31T21:06:39.610Z,,0,,,NaN,,,,,,false,,,,187007.79999999702,187007.69999998808,,187007.59999999404,,187011.924,8,400,,,
sequence,flow.Sequence,4_13,2023-10-31T21:06:39.610Z,,0,,,3605.5339999880816,completion,,,,,false,,,,187008.09999999404,187007.69999998808,183385.455,183385.59999999404,183402.166,187011.924,8,400,,,
trial,html.Screen,4_14_0,2023-10-31T21:06:43.362Z,,0,1,,3748.076000000001,response,ISIC_0732375.JPG,7,ISIC_0011697.JPG,ISIC_0011697.JPG,false,0,keypress(z),500,190760.29999999702,190760,186995.213,187008.19999998808,187011.924,190771.899,8,400,15,,ISIC_0732375.JPG
break,html.Screen,4_14_1,2023-10-31T21:06:43.363Z,,0,,,NaN,,,,,,false,,,,190761,190760.79999999702,,190760.5,,190771.899,8,400,,,
break_continue,html.Screen,4_14_2,2023-10-31T21:06:43.363Z,,0,,,NaN,,,,,,false,,,,190761.39999999106,190761.29999999702,,190761.09999999404,,190771.899,8,400,,,
sequence,flow.Sequence,4_14,2023-10-31T21:06:43.364Z,,0,,,3749.3759999970207,completion,,,,,false,,,,190761.59999999404,190761.29999999702,186995.213,187008.19999998808,187011.924,190771.899,8,400,,,
trial,html.Screen,4_15_0,2023-10-31T21:06:48.553Z,,0,1,,5178.400999997015,response,ISIC_5100319.JPG,8,ISIC_0679553.JPG,ISIC_5100319.JPG,false,1,keypress(m),500,195950.5,195950.29999999702,190755.188,190761.79999999702,190771.899,195952.522,8,400,16,,ISIC_0679553.JPG
break,html.Screen,4_15_1,2023-10-31T21:06:48.553Z,,0,,,NaN,,,,,,false,,,,195951.29999999702,195951.09999999404,,195950.69999998808,,195952.522,8,400,,,
break_continue,html.Screen,4_15_2,2023-10-31T21:06:48.554Z,,0,,,NaN,,,,,,false,,,,195951.69999998808,195951.5,,195951.39999999106,,195952.522,8,400,,,
sequence,flow.Sequence,4_15,2023-10-31T21:06:48.554Z,,0,,,5179.600999999995,completion,,,,,false,,,,195951.89999999106,195951.5,190755.188,190761.69999998808,190771.899,195952.522,8,400,,,
trial,html.Screen,4_16_0,2023-10-31T21:06:52.240Z,,0,1,,3684.677999988082,response,ISIC_0032783.JPG,8,ISIC_8167374.JPG,ISIC_0032783.JPG,false,1,keypress(m),500,199637.39999999106,199637.19999998808,195935.811,195952,195952.522,199645.653,8,400,17,,ISIC_8167374.JPG
break,html.Screen,4_16_1,2023-10-31T21:06:52.240Z,,0,,,NaN,,,,,,false,,,,199638.19999998808,199637.89999999106,,199637.59999999404,,199645.653,8,400,,,
break_continue,html.Screen,4_16_2,2023-10-31T21:06:52.241Z,,0,,,NaN,,,,,,false,,,,199638.5,199638.39999999106,,199638.19999998808,,199645.653,8,400,,,
sequence,flow.Sequence,4_16,2023-10-31T21:06:52.241Z,,0,,,3685.877999991062,completion,,,,,false,,,,199638.69999998808,199638.39999999106,195935.811,195952,195952.522,199645.653,8,400,,,
trial,html.Screen,4_17_0,2023-10-31T21:06:56.470Z,,0,1,,4222.046999988088,response,ISIC_0057032.JPG,8,ISIC_4969996.JPG,ISIC_0057032.JPG,false,1,keypress(m),500,203867.89999999106,203867.69999998808,199628.942,199638.79999999702,199645.653,203873.536,8,400,18,,ISIC_4969996.JPG
break,html.Screen,4_17_1,2023-10-31T21:06:56.471Z,,0,,,NaN,,,,,,false,,,,203868.59999999404,203868.39999999106,,203868.09999999404,,203873.536,8,400,,,
break_continue,html.Screen,4_17_2,2023-10-31T21:06:56.471Z,,0,,,NaN,,,,,,false,,,,203869,203868.89999999106,,203868.79999999702,,203873.536,8,400,,,
sequence,flow.Sequence,4_17,2023-10-31T21:06:56.472Z,,0,,,4223.246999991068,completion,,,,,false,,,,203869.09999999404,203868.89999999106,199628.942,199638.79999999702,199645.653,203873.536,8,400,,,
trial,html.Screen,4_18_0,2023-10-31T21:06:59.980Z,,0,1,,3503.464000000007,response,ISIC_4348994.JPG,9,ISIC_7724764.JPG,ISIC_7724764.JPG,false,0,keypress(z),500,207377.19999998808,207377,203856.825,203869.39999999106,203873.536,207383.029,8,400,19,,ISIC_4348994.JPG
break,html.Screen,4_18_1,2023-10-31T21:06:59.980Z,,0,,,NaN,,,,,,false,,,,207377.89999999106,207377.79999999702,,207377.39999999106,,207383.029,8,400,,,
break_continue,html.Screen,4_18_2,2023-10-31T21:06:59.981Z,,0,,,NaN,,,,,,false,,,,207378.29999999702,207378.19999998808,,207378,,207383.029,8,400,,,
sequence,flow.Sequence,4_18,2023-10-31T21:06:59.981Z,,0,,,3504.6639999880863,completion,,,,,false,,,,207378.5,207378.19999998808,203856.825,203869.29999999702,203873.536,207383.029,8,400,,,
trial,html.Screen,4_19_0,2023-10-31T21:07:03.619Z,,0,1,,3632.77099999701,response,ISIC_0071289.JPG,7,ISIC_1597566.JPG,ISIC_0071289.JPG,false,1,keypress(m),500,211016.09999999404,211015.79999999702,207366.318,207378.59999999404,207383.029,211026.027,8,400,20,,ISIC_1597566.JPG
break,html.Screen,4_19_1,2023-10-31T21:07:03.619Z,,0,,,NaN,,,,,,false,,,,211016.69999998808,211016.5,,211016.29999999702,,211026.027,8,400,,,
break_continue,html.Screen,4_19_2,2023-10-31T21:07:03.620Z,,0,,,NaN,,,,,,false,,,,211017.19999998808,211017,,211016.89999999106,,211026.027,8,400,,,
sequence,flow.Sequence,4_19,2023-10-31T21:07:03.620Z,,0,,,3633.9709999999905,completion,,,,,false,,,,211017.39999999106,211017,207366.318,207378.59999999404,207383.029,211026.027,8,400,,,
trial,html.Screen,4_20_0,2023-10-31T21:07:07.782Z,,0,1,,4152.872999991057,response,ISIC_0758797.JPG,8,ISIC_1233104.JPG,ISIC_0758797.JPG,false,1,keypress(m),500,215179.19999998808,215178.89999999106,211009.316,211017.5,211026.027,215187.066,8,400,21,,ISIC_1233104.JPG
break,html.Screen,4_20_1,2023-10-31T21:07:07.783Z,,0,,,NaN,,,,,,false,,,,215179.79999999702,215179.69999998808,,215179.29999999702,,215187.066,8,400,,,
break_continue,html.Screen,4_20_2,2023-10-31T21:07:07.783Z,,0,,,NaN,,,,,,false,,,,215180.19999998808,215180.09999999404,,215179.89999999106,,215187.066,8,400,,,
sequence,flow.Sequence,4_20,2023-10-31T21:07:07.783Z,,0,,,4154.072999994038,completion,,,,,false,,,,215180.39999999106,215180.09999999404,211009.316,211017.5,211026.027,215187.066,8,400,,,
trial,html.Screen,4_21_0,2023-10-31T21:07:12.191Z,,0,1,,4400.533999994048,response,ISIC_3651451.JPG,7,ISIC_0014703.JPG,ISIC_0014703.JPG,false,0,keypress(z),500,219587.79999999702,219587.59999999404,215170.355,215180.59999999404,215187.066,219598.953,8,400,22,,ISIC_3651451.JPG
break,html.Screen,4_21_1,2023-10-31T21:07:12.191Z,,0,,,NaN,,,,,,false,,,,219588.5,219588.29999999702,,219588,,219598.953,8,400,,,
break_continue,html.Screen,4_21_2,2023-10-31T21:07:12.192Z,,0,,,NaN,,,,,,false,,,,219588.89999999106,219588.79999999702,,219588.59999999404,,219598.953,8,400,,,
sequence,flow.Sequence,4_21,2023-10-31T21:07:12.192Z,,0,,,4401.733999997028,completion,,,,,false,,,,219589.19999998808,219588.79999999702,215170.355,215180.5,215187.066,219598.953,8,400,,,
trial,html.Screen,4_22_0,2023-10-31T21:07:16.696Z,,0,1,,4493.346999997011,response,ISIC_0068166.JPG,8,ISIC_2059085.JPG,ISIC_2059085.JPG,false,0,keypress(z),500,224092.59999999404,224092.29999999702,219582.242,219589.39999999106,219598.953,224094.212,8,400,23,,ISIC_0068166.JPG
break,html.Screen,4_22_1,2023-10-31T21:07:16.696Z,,0,,,NaN,,,,,,false,,,,224093.29999999702,224093.09999999404,,224092.69999998808,,224094.212,8,400,,,
break_continue,html.Screen,4_22_2,2023-10-31T21:07:16.697Z,,0,,,NaN,,,,,,false,,,,224093.59999999404,224093.5,,224093.39999999106,,224094.212,8,400,,,
sequence,flow.Sequence,4_22,2023-10-31T21:07:16.697Z,,0,,,4494.546999999991,completion,,,,,false,,,,224093.79999999702,224093.5,219582.242,219589.29999999702,219598.953,224094.212,8,400,,,
trial,html.Screen,4_23_0,2023-10-31T21:07:20.494Z,,0,1,,3796.6879999910598,response,ISIC_0046626.JPG,8,ISIC_7666224.JPG,ISIC_7666224.JPG,false,0,keypress(z),500,227891.19999998808,227890.89999999106,224077.501,224094,224094.212,227904.518,8,400,24,,ISIC_0046626.JPG
break,html.Screen,4_23_1,2023-10-31T21:07:20.495Z,,0,,,NaN,,,,,,false,,,,227891.89999999106,227891.69999998808,,227891.29999999702,,227904.518,8,400,,,
break_continue,html.Screen,4_23_2,2023-10-31T21:07:20.495Z,,0,,,NaN,,,,,,false,,,,227892.19999998808,227892.09999999404,,227891.89999999106,,227904.518,8,400,,,
sequence,flow.Sequence,4_23,2023-10-31T21:07:20.496Z,,0,,,3797.88799999404,completion,,,,,false,,,,227892.39999999106,227892.09999999404,224077.501,224094,224094.212,227904.518,8,400,,,
trial,html.Screen,4_24_0,2023-10-31T21:07:24.948Z,,0,1,,4439.581999994029,response,ISIC_0911264.JPG,8,ISIC_7806612.JPG,ISIC_7806612.JPG,false,0,keypress(z),500,232344.39999999106,232344.09999999404,227887.807,227892.59999999404,227904.518,232349.644,8,400,25,,ISIC_0911264.JPG
break,html.Screen,4_24_1,2023-10-31T21:07:24.948Z,,0,,,NaN,,,,,,false,,,,232345.09999999404,232344.89999999106,,232344.69999998808,,232349.644,8,400,,,
break_continue,html.Screen,4_24_2,2023-10-31T21:07:24.949Z,,0,,,NaN,,,,,,false,,,,232345.5,232345.29999999702,,232345.19999998808,,232349.644,8,400,,,
sequence,flow.Sequence,4_24,2023-10-31T21:07:24.949Z,,0,,,4440.781999997009,completion,,,,,false,,,,232345.69999998808,232345.29999999702,227887.807,227892.5,227904.518,232349.644,8,400,,,
trial,html.Screen,4_25_0,2023-10-31T21:07:30.954Z,,0,1,,6000.6559999970195,response,ISIC_5867911.JPG,7,ISIC_0032565.JPG,ISIC_0032565.JPG,false,0,keypress(z),500,238350.59999999404,238350.29999999702,232332.933,232345.89999999106,232349.644,238365.787,8,400,26,,ISIC_5867911.JPG
break,html.Screen,4_25_1,2023-10-31T21:07:30.955Z,,0,,,NaN,,,,,,false,,,,238351.29999999702,238351.09999999404,,238350.79999999702,,238365.787,8,400,,,
break_continue,html.Screen,4_25_2,2023-10-31T21:07:30.955Z,,0,,,NaN,,,,,,false,,,,238351.69999998808,238351.5,,238351.39999999106,,238365.787,8,400,,,
sequence,flow.Sequence,4_25,2023-10-31T21:07:30.955Z,,0,,,6001.856,completion,,,,,false,,,,238351.89999999106,238351.5,232332.933,232345.79999999702,232349.644,238365.787,8,400,,,
trial,html.Screen,4_26_0,2023-10-31T21:07:34.943Z,,0,1,,3973.5129999970086,response,ISIC_0026082.JPG,8,ISIC_0064694.JPG,ISIC_0064694.JPG,false,0,keypress(z),500,242339.5,242339.29999999702,238349.076,238352.09999999404,238365.787,242359.716,8,400,27,,ISIC_0026082.JPG
break,html.Screen,4_26_1,2023-10-31T21:07:34.944Z,,0,,,NaN,,,,,,false,,,,242340.19999998808,242340,,242339.69999998808,,242359.716,8,400,,,
break_continue,html.Screen,4_26_2,2023-10-31T21:07:34.944Z,,0,,,NaN,,,,,,false,,,,242340.59999999404,242340.39999999106,,242340.29999999702,,242359.716,8,400,,,
sequence,flow.Sequence,4_26,2023-10-31T21:07:34.944Z,,0,,,3974.612999991048,completion,,,,,false,,,,242340.79999999702,242340.39999999106,238349.076,238351.89999999106,238365.787,242359.716,8,400,,,
trial,html.Screen,4_27_0,2023-10-31T21:07:38.723Z,,0,1,,3759.784000000014,response,ISIC_5971574.JPG,8,ISIC_0029026.JPG,ISIC_5971574.JPG,false,1,keypress(m),500,246119.69999998808,246119.5,242343.005,242340.89999999106,242359.716,246136.402,8,400,28,,ISIC_0029026.JPG
break,html.Screen,4_27_1,2023-10-31T21:07:38.724Z,,0,,,NaN,,,,,,false,,,,246120.39999999106,246120.19999998808,,246119.89999999106,,246136.402,8,400,,,
break_continue,html.Screen,4_27_2,2023-10-31T21:07:38.725Z,,0,,,NaN,,,,,,false,,,,246120.79999999702,246120.69999998808,,246120.5,,246136.402,8,400,,,
sequence,flow.Sequence,4_27,2023-10-31T21:07:38.725Z,,0,,,3760.9839999880933,completion,,,,,false,,,,246121,246120.69999998808,242343.005,242340.89999999106,242359.716,246136.402,8,400,,,
trial,html.Screen,4_28_0,2023-10-31T21:07:42.984Z,,0,1,,4243.897999997018,response,ISIC_8436666.JPG,6,ISIC_0061829.JPG,ISIC_8436666.JPG,false,1,keypress(m),500,250380.59999999404,250380.29999999702,246119.691,246121.09999999404,246136.402,250397.891,8,400,29,,ISIC_0061829.JPG
break,html.Screen,4_28_1,2023-10-31T21:07:42.985Z,,0,,,NaN,,,,,,false,,,,250381.29999999702,250381.09999999404,,250380.79999999702,,250397.891,8,400,,,
break_continue,html.Screen,4_28_2,2023-10-31T21:07:42.985Z,,0,,,NaN,,,,,,false,,,,250381.59999999404,250381.5,,250381.39999999106,,250397.891,8,400,,,
sequence,flow.Sequence,4_28,2023-10-31T21:07:42.986Z,,0,,,4245.097999999998,completion,,,,,false,,,,250381.89999999106,250381.5,246119.691,246121.09999999404,246136.402,250397.891,8,400,,,
trial,html.Screen,4_29_0,2023-10-31T21:07:46.466Z,,0,1,,3463.6089999999967,response,ISIC_0072893.JPG,7,ISIC_5642824.JPG,ISIC_5642824.JPG,false,0,keypress(z),500,253861.79999999702,253861.5,250381.18,250382,250397.891,253873.779,8,400,30,,ISIC_0072893.JPG
break,html.Screen,4_29_1,2023-10-31T21:07:46.466Z,,0,,,NaN,,,,,,false,,,,253862.5,253862.29999999702,,253861.89999999106,,253873.779,8,400,,,
break_continue,html.Screen,4_29_2,2023-10-31T21:07:46.467Z,,0,,,NaN,,,,,,false,,,,253862.89999999106,253862.79999999702,,253862.69999998808,,253873.779,8,400,,,
sequence,flow.Sequence,4_29,2023-10-31T21:07:46.467Z,,0,,,3464.9089999970165,completion,,,,,false,,,,253863,253862.79999999702,250381.18,250382,250397.891,253873.779,8,400,,,
trial,html.Screen,4_30_0,2023-10-31T21:07:50.502Z,,0,1,,4024.02099999701,response,ISIC_9052604.JPG,8,ISIC_0010690.JPG,ISIC_0010690.JPG,false,0,keypress(z),500,257898,257897.79999999702,253857.068,253863.19999998808,253873.779,257901.13,8,400,31,,ISIC_9052604.JPG
break,html.Screen,4_30_1,2023-10-31T21:07:50.503Z,,0,,,NaN,,,,,,false,,,,257898.69999998808,257898.5,,257898.19999998808,,257901.13,8,400,,,
break_continue,html.Screen,4_30_2,2023-10-31T21:07:50.503Z,,0,,,NaN,,,,,,false,,,,257899.09999999404,257899,,257898.89999999106,,257901.13,8,400,,,
sequence,flow.Sequence,4_30,2023-10-31T21:07:50.503Z,,0,,,4025.2209999999905,completion,,,,,false,,,,257899.29999999702,257899,253857.068,253863.09999999404,253873.779,257901.13,8,400,,,
trial,html.Screen,4_31_0,2023-10-31T21:07:54.862Z,,0,1,,4356.869999999995,response,ISIC_4208361.JPG,7,ISIC_2202486.JPG,ISIC_4208361.JPG,false,1,keypress(m),500,262258.1999999881,262258,257884.419,257899.39999999106,257901.13,262262.89,8,400,32,,ISIC_2202486.JPG
break,html.Screen,4_31_1,2023-10-31T21:07:54.863Z,,0,,,NaN,,,,,,false,,,,262258.89999999106,262258.6999999881,,262258.39999999106,,262262.89,8,400,,,
break_continue,html.Screen,4_31_2,2023-10-31T21:07:54.863Z,,0,,,NaN,,,,,,false,,,,262259.1999999881,262259.09999999404,,262259,,262262.89,8,400,,,
sequence,flow.Sequence,4_31,2023-10-31T21:07:54.864Z,,0,,,4357.969999994035,completion,,,,,false,,,,262259.39999999106,262259.09999999404,257884.419,257899.39999999106,257901.13,262262.89,8,400,,,
trial,html.Screen,4_32_0,2023-10-31T21:07:59.476Z,,0,1,,4608.909999997006,response,ISIC_0000277.JPG,7,ISIC_0024688.JPG,ISIC_0000277.JPG,false,1,keypress(m),500,266872.09999999404,266871.799999997,262246.179,262259.59999999404,262262.89,266875.126,8,400,33,,ISIC_0024688.JPG
break,html.Screen,4_32_1,2023-10-31T21:07:59.477Z,,0,,,NaN,,,,,,false,,,,266872.799999997,266872.59999999404,,266872.299999997,,266875.126,8,400,,,
break_continue,html.Screen,4_32_2,2023-10-31T21:07:59.477Z,,0,,,NaN,,,,,,false,,,,266873.1999999881,266873.09999999404,,266872.89999999106,,266875.126,8,400,,,
sequence,flow.Sequence,4_32,2023-10-31T21:07:59.478Z,,0,,,4610.209999994026,completion,,,,,false,,,,266873.299999997,266873.09999999404,262246.179,262259.59999999404,262262.89,266875.126,8,400,,,
trial,html.Screen,4_33_0,2023-10-31T21:08:03.848Z,,0,1,,4368.27399999107,response,ISIC_5320483.JPG,8,ISIC_9986760.JPG,ISIC_5320483.JPG,false,1,keypress(m),500,271243.6999999881,271243.39999999106,266858.415,266873.5,266875.126,271253.617,8,400,34,,ISIC_9986760.JPG
break,html.Screen,4_33_1,2023-10-31T21:08:03.849Z,,0,,,NaN,,,,,,false,,,,271244.39999999106,271244.1999999881,,271243.89999999106,,271253.617,8,400,,,
break_continue,html.Screen,4_33_2,2023-10-31T21:08:03.849Z,,0,,,NaN,,,,,,false,,,,271244.6999999881,271244.59999999404,,271244.5,,271253.617,8,400,,,
sequence,flow.Sequence,4_33,2023-10-31T21:08:03.849Z,,0,,,4369.47399999405,completion,,,,,false,,,,271245,271244.59999999404,266858.415,266873.5,266875.126,271253.617,8,400,,,
trial,html.Screen,4_34_0,2023-10-31T21:08:08.415Z,,0,1,,4556.582999988052,response,ISIC_2328829.JPG,7,ISIC_0071208.JPG,ISIC_2328829.JPG,false,1,keypress(m),500,275810.39999999106,275810.1999999881,271236.906,271245.09999999404,271253.617,275815.72,8,400,35,,ISIC_0071208.JPG
break,html.Screen,4_34_1,2023-10-31T21:08:08.416Z,,0,,,NaN,,,,,,false,,,,275811.09999999404,275811,,275810.6999999881,,275815.72,8,400,,,
break_continue,html.Screen,4_34_2,2023-10-31T21:08:08.416Z,,0,,,NaN,,,,,,false,,,,275811.59999999404,275811.39999999106,,275811.1999999881,,275815.72,8,400,,,
sequence,flow.Sequence,4_34,2023-10-31T21:08:08.416Z,,0,,,4557.782999991032,completion,,,,,false,,,,275811.799999997,275811.39999999106,271236.906,271245,271253.617,275815.72,8,400,,,
trial,html.Screen,4_35_0,2023-10-31T21:08:13.429Z,,0,1,,5008.579999997048,response,ISIC_3289651.JPG,8,ISIC_0054220.JPG,ISIC_0054220.JPG,false,0,keypress(z),500,280824.59999999404,280824.299999997,275799.009,275811.89999999106,275815.72,280829.02,8,400,36,,ISIC_3289651.JPG
break,html.Screen,4_35_1,2023-10-31T21:08:13.430Z,,0,,,NaN,,,,,,false,,,,280825.299999997,280825.09999999404,,280824.6999999881,,280829.02,8,400,,,
break_continue,html.Screen,4_35_2,2023-10-31T21:08:13.430Z,,0,,,NaN,,,,,,false,,,,280825.59999999404,280825.5,,280825.39999999106,,280829.02,8,400,,,
sequence,flow.Sequence,4_35,2023-10-31T21:08:13.431Z,,0,,,5009.780000000028,completion,,,,,false,,,,280825.799999997,280825.5,275799.009,275811.89999999106,275815.72,280829.02,8,400,,,
trial,html.Screen,4_36_0,2023-10-31T21:08:17.838Z,,0,1,,4403.779999997001,response,ISIC_7454679.JPG,9,ISIC_0034039.JPG,ISIC_0034039.JPG,false,0,keypress(z),500,285233.09999999404,285232.799999997,280812.309,280826,280829.02,285240.902,8,400,37,,ISIC_7454679.JPG
break,html.Screen,4_36_1,2023-10-31T21:08:17.839Z,,0,,,NaN,,,,,,false,,,,285233.799999997,285233.59999999404,,285233.299999997,,285240.902,8,400,,,
break_continue,html.Screen,4_36_2,2023-10-31T21:08:17.839Z,,0,,,NaN,,,,,,false,,,,285234.09999999404,285234.09999999404,,285233.89999999106,,285240.902,8,400,,,
sequence,flow.Sequence,4_36,2023-10-31T21:08:17.839Z,,0,,,4405.079999994021,completion,,,,,false,,,,285234.39999999106,285234.09999999404,280812.309,280826,280829.02,285240.902,8,400,,,
trial,html.Screen,4_37_0,2023-10-31T21:08:22.390Z,,0,1,,4544.297999988077,response,ISIC_4808298.JPG,8,ISIC_1292607.JPG,ISIC_1292607.JPG,false,0,keypress(z),500,289785.39999999106,289785.1999999881,285224.191,285234.5,285240.902,289786.294,8,400,38,,ISIC_4808298.JPG
break,html.Screen,4_37_1,2023-10-31T21:08:22.391Z,,0,,,NaN,,,,,,false,,,,289786.1999999881,289786,,289785.6999999881,,289786.294,8,400,,,
break_continue,html.Screen,4_37_2,2023-10-31T21:08:22.392Z,,0,,,NaN,,,,,,false,,,,289786.5,289786.39999999106,,289786.299999997,,289786.294,8,400,,,
sequence,flow.Sequence,4_37,2023-10-31T21:08:22.392Z,,0,,,4545.497999991057,completion,,,,,false,,,,289786.6999999881,289786.39999999106,285224.191,285234.39999999106,285240.902,289786.294,8,400,,,
trial,html.Screen,4_38_0,2023-10-31T21:08:26.493Z,,0,1,,4101.605999991065,response,ISIC_4969996.JPG,6,ISIC_5552381.JPG,ISIC_4969996.JPG,false,1,keypress(m),500,293888,293887.89999999106,289769.583,289786.89999999106,289786.294,293897.385,8,400,39,,ISIC_5552381.JPG
break,html.Screen,4_38_1,2023-10-31T21:08:26.494Z,,0,,,NaN,,,,,,false,,,,293888.6999999881,293888.5,,293888.299999997,,293897.385,8,400,,,
break_continue,html.Screen,4_38_2,2023-10-31T21:08:26.494Z,,0,,,NaN,,,,,,false,,,,293889.09999999404,293889,,293888.799999997,,293897.385,8,400,,,
sequence,flow.Sequence,4_38,2023-10-31T21:08:26.494Z,,0,,,4102.706000000006,completion,,,,,false,,,,293889.299999997,293889,289769.583,289786.89999999106,289786.294,293897.385,8,400,,,
trial,html.Screen,4_39_0,2023-10-31T21:08:31.492Z,,0,1,,4989.51499999105,response,ISIC_8917755.JPG,8,ISIC_0066053.JPG,ISIC_0066053.JPG,false,0,keypress(z),500,298887,298886.89999999106,293880.674,293889.59999999404,293897.385,298893.974,8,400,40,,ISIC_8917755.JPG
break,html.Screen,4_39_1,2023-10-31T21:08:31.493Z,,0,,,NaN,,,,,,false,,,,298887.6999999881,298887.59999999404,,298887.1999999881,,298893.974,8,400,,,
break_continue,html.Screen,4_39_2,2023-10-31T21:08:31.493Z,,0,,,NaN,,,,,,false,,,,298888.09999999404,298888,,298887.89999999106,,298893.974,8,400,,,
sequence,flow.Sequence,4_39,2023-10-31T21:08:31.494Z,,0,,,4990.614999999991,completion,,,,,false,,,,298888.39999999106,298888,293880.674,293889.59999999404,293897.385,298893.974,8,400,,,
trial,html.Screen,4_40_0,2023-10-31T21:08:37.964Z,,0,1,,6464.125999994052,response,ISIC_0254517.JPG,9,ISIC_0058594.JPG,ISIC_0254517.JPG,false,1,keypress(m),500,305358.299999997,305358.09999999404,298877.263,298888.5,298893.974,305361.351,8,400,41,,ISIC_0058594.JPG
break,html.Screen,4_40_1,2023-10-31T21:08:37.964Z,,0,,,NaN,,,,,,false,,,,305359,305358.799999997,,305358.5,,305361.351,8,400,,,
break_continue,html.Screen,4_40_2,2023-10-31T21:08:37.965Z,,0,,,NaN,,,,,,false,,,,305359.299999997,305359.1999999881,,305359.09999999404,,305361.351,8,400,,,
sequence,flow.Sequence,4_40,2023-10-31T21:08:37.965Z,,0,,,6465.225999988092,completion,,,,,false,,,,305359.5,305359.1999999881,298877.263,298888.39999999106,298893.974,305361.351,8,400,,,
trial,html.Screen,4_41_0,2023-10-31T21:08:42.520Z,,0,1,,4552.948999996996,response,ISIC_0072703.JPG,8,ISIC_0063680.JPG,ISIC_0072703.JPG,false,1,keypress(m),500,309914.59999999404,309914.299999997,305344.64,305359.6999999881,305361.351,309923.454,8,400,42,,ISIC_0063680.JPG
break,html.Screen,4_41_1,2023-10-31T21:08:42.521Z,,0,,,NaN,,,,,,false,,,,309915.1999999881,309915.09999999404,,309914.799999997,,309923.454,8,400,,,
break_continue,html.Screen,4_41_2,2023-10-31T21:08:42.521Z,,0,,,NaN,,,,,,false,,,,309915.6999999881,309915.59999999404,,309915.39999999106,,309923.454,8,400,,,
sequence,flow.Sequence,4_41,2023-10-31T21:08:42.521Z,,0,,,4554.248999994015,completion,,,,,false,,,,309915.89999999106,309915.59999999404,305344.64,305359.6999999881,305361.351,309923.454,8,400,,,
trial,html.Screen,4_42_0,2023-10-31T21:08:49.517Z,,0,1,,6987.845999996993,response,ISIC_2768787.JPG,6,ISIC_0070308.JPG,ISIC_2768787.JPG,false,1,keypress(m),500,316911.59999999404,316911.299999997,309906.743,309916.09999999404,309923.454,316925.565,8,400,43,,ISIC_0070308.JPG
break,html.Screen,4_42_1,2023-10-31T21:08:49.518Z,,0,,,NaN,,,,,,false,,,,316912.299999997,316912.09999999404,,316911.799999997,,316925.565,8,400,,,
break_continue,html.Screen,4_42_2,2023-10-31T21:08:49.518Z,,0,,,NaN,,,,,,false,,,,316912.59999999404,316912.5,,316912.39999999106,,316925.565,8,400,,,
sequence,flow.Sequence,4_42,2023-10-31T21:08:49.519Z,,0,,,6989.045999999973,completion,,,,,false,,,,316912.89999999106,316912.5,309906.743,309916,309923.454,316925.565,8,400,,,
trial,html.Screen,4_43_0,2023-10-31T21:08:53.492Z,,0,1,,3960.4349999999977,response,ISIC_0060621.JPG,7,ISIC_0026921.JPG,ISIC_0026921.JPG,false,0,keypress(z),500,320886.299999997,320886,316908.854,316913,316925.565,320902.783,8,400,44,,ISIC_0060621.JPG
break,html.Screen,4_43_1,2023-10-31T21:08:53.493Z,,0,,,NaN,,,,,,false,,,,320886.89999999106,320886.799999997,,320886.39999999106,,320902.783,8,400,,,
break_continue,html.Screen,4_43_2,2023-10-31T21:08:53.493Z,,0,,,NaN,,,,,,false,,,,320887.39999999106,320887.1999999881,,320887.09999999404,,320902.783,8,400,,,
sequence,flow.Sequence,4_43,2023-10-31T21:08:53.494Z,,0,,,3961.6349999880767,completion,,,,,false,,,,320887.59999999404,320887.1999999881,316908.854,316912.89999999106,316925.565,320902.783,8,400,,,
trial,html.Screen,4_44_0,2023-10-31T21:09:00.089Z,,0,1,,6579.416999988083,response,ISIC_0063715.JPG,9,ISIC_1344537.JPG,ISIC_0063715.JPG,false,1,keypress(m),500,327482.39999999106,327482.1999999881,320886.072,320887.799999997,320902.783,327487.121,8,400,45,,ISIC_1344537.JPG
break,html.Screen,4_44_1,2023-10-31T21:09:00.089Z,,0,,,NaN,,,,,,false,,,,327483.09999999404,327482.89999999106,,327482.6999999881,,327487.121,8,400,,,
break_continue,html.Screen,4_44_2,2023-10-31T21:09:00.090Z,,0,,,NaN,,,,,,false,,,,327483.59999999404,327483.39999999106,,327483.299999997,,327487.121,8,400,,,
sequence,flow.Sequence,4_44,2023-10-31T21:09:00.090Z,,0,,,6580.6169999910635,completion,,,,,false,,,,327483.6999999881,327483.39999999106,320886.072,320887.6999999881,320902.783,327487.121,8,400,,,
trial,html.Screen,4_45_0,2023-10-31T21:09:04.834Z,,0,1,,4740.478999994055,response,ISIC_0071906.JPG,7,ISIC_0027498.JPG,ISIC_0071906.JPG,false,1,keypress(m),500,332227.799999997,332227.59999999404,327470.41,327483.89999999106,327487.121,332233.045,8,400,46,,ISIC_0027498.JPG
break,html.Screen,4_45_1,2023-10-31T21:09:04.835Z,,0,,,NaN,,,,,,false,,,,332228.59999999404,332228.299999997,,332228,,332233.045,8,400,,,
break_continue,html.Screen,4_45_2,2023-10-31T21:09:04.835Z,,0,,,NaN,,,,,,false,,,,332228.89999999106,332228.799999997,,332228.59999999404,,332233.045,8,400,,,
sequence,flow.Sequence,4_45,2023-10-31T21:09:04.835Z,,0,,,4741.678999997035,completion,,,,,false,,,,332229.09999999404,332228.799999997,327470.41,327483.89999999106,327487.121,332233.045,8,400,,,
trial,html.Screen,4_46_0,2023-10-31T21:09:09.383Z,,0,1,,4542.955000000016,response,ISIC_3368468.JPG,9,ISIC_0056247.JPG,ISIC_3368468.JPG,false,1,keypress(m),500,336776.1999999881,336776,332216.334,332229.1999999881,332233.045,336778.437,8,400,47,,ISIC_0056247.JPG
break,html.Screen,4_46_1,2023-10-31T21:09:09.383Z,,0,,,NaN,,,,,,false,,,,336776.89999999106,336776.799999997,,336776.5,,336778.437,8,400,,,
break_continue,html.Screen,4_46_2,2023-10-31T21:09:09.384Z,,0,,,NaN,,,,,,false,,,,336777.39999999106,336777.1999999881,,336777.09999999404,,336778.437,8,400,,,
sequence,flow.Sequence,4_46,2023-10-31T21:09:09.384Z,,0,,,4544.154999988095,completion,,,,,false,,,,336777.5,336777.1999999881,332216.334,332229.1999999881,332233.045,336778.437,8,400,,,
trial,html.Screen,4_47_0,2023-10-31T21:09:12.988Z,,0,1,,3602.3629999970435,response,ISIC_5287748.JPG,7,ISIC_6590303.JPG,ISIC_6590303.JPG,false,0,keypress(z),500,340381.1999999881,340380.799999997,336761.726,336777.59999999404,336778.437,340388.19,8,400,48,,ISIC_5287748.JPG
break,html.Screen,4_47_1,2023-10-31T21:09:12.989Z,,0,,,NaN,,,,,,false,,,,340382,340381.799999997,,340381.5,,340388.19,8,400,,,
break_continue,html.Screen,4_47_2,2023-10-31T21:09:12.989Z,,0,,,NaN,,,,,,false,,,,340382.39999999106,340382.1999999881,,340382.1999999881,,340388.19,8,400,,,
sequence,flow.Sequence,4_47,2023-10-31T21:09:12.989Z,,0,,,3603.762999988103,completion,,,,,false,,,,340382.59999999404,340382.1999999881,336761.726,336777.59999999404,336778.437,340388.19,8,400,,,
trial,html.Screen,4_48_0,2023-10-31T21:09:18.871Z,,0,1,,5876.209999991057,response,ISIC_0026812.JPG,7,ISIC_0055024.JPG,ISIC_0026812.JPG,false,1,keypress(m),500,346264.59999999404,346264.39999999106,340371.479,340382.799999997,340388.19,346270.462,8,400,49,,ISIC_0055024.JPG
break,html.Screen,4_48_1,2023-10-31T21:09:18.872Z,,0,,,NaN,,,,,,false,,,,346265.39999999106,346265.1999999881,,346264.89999999106,,346270.462,8,400,,,
break_continue,html.Screen,4_48_2,2023-10-31T21:09:18.872Z,,0,,,NaN,,,,,,false,,,,346265.799999997,346265.59999999404,,346265.5,,346270.462,8,400,,,
sequence,flow.Sequence,4_48,2023-10-31T21:09:18.873Z,,0,,,5877.409999994037,completion,,,,,false,,,,346265.89999999106,346265.59999999404,340371.479,340382.6999999881,340388.19,346270.462,8,400,,,
trial,html.Screen,4_49_0,2023-10-31T21:09:22.589Z,,0,1,,3711.9379999910598,response,ISIC_0000406.JPG,8,ISIC_1067985.JPG,ISIC_1067985.JPG,false,0,keypress(z),500,349982.59999999404,349982.39999999106,346253.751,346266.09999999404,346270.462,349997.2,8,400,50,,ISIC_0000406.JPG
break,html.Screen,4_49_1,2023-10-31T21:09:32.583Z,,0,,,9993.354999999981,timeout,,,,,false,,,,359976.299999997,359973.844,349980.489,349982.89999999106,349997.2,359990.555,8,400,,,
break_continue,html.Screen,4_49_2,2023-10-31T21:09:33.661Z,,0,,,1047.2449999970268,response,,,,,false,continue,keypress(Space),,361053.5,361037.799999997,359973.844,359976.5,359990.555,361060.059,8,400,,,
sequence,flow.Sequence,4_49,2023-10-31T21:09:33.661Z,,0,,,14767.33799999702,completion,,,,,false,,,,361053.59999999404,361037.799999997,346253.751,346266,346270.462,361060.059,8,400,,,
trial,html.Screen,4_50_0,2023-10-31T21:09:38.159Z,,0,2,,4491.340999991051,response,ISIC_1605629.JPG,8,ISIC_3597812.JPG,ISIC_3597812.JPG,false,0,keypress(z),500,365551.6999999881,365551.39999999106,361043.348,361053.59999999404,361060.059,365555.318,8,400,1,,ISIC_1605629.JPG
break,html.Screen,4_50_1,2023-10-31T21:09:38.160Z,,0,,,NaN,,,,,,false,,,,365552.5,365552.1999999881,,365551.89999999106,,365555.318,8,400,,,
break_continue,html.Screen,4_50_2,2023-10-31T21:09:38.160Z,,0,,,NaN,,,,,,false,,,,365552.799999997,365552.6999999881,,365552.59999999404,,365555.318,8,400,,,
sequence,flow.Sequence,4_50,2023-10-31T21:09:38.160Z,,0,,,4492.640999988071,completion,,,,,false,,,,365553,365552.6999999881,361043.348,361053.59999999404,361060.059,365555.318,8,400,,,
trial,html.Screen,4_51_0,2023-10-31T21:09:42.212Z,,0,2,,4049.281999994011,response,ISIC_0069986.JPG,7,ISIC_8374889.JPG,ISIC_8374889.JPG,false,0,keypress(z),500,369604.89999999106,369604.59999999404,365538.607,365553.1999999881,365555.318,369616.3,8,400,2,,ISIC_0069986.JPG
break,html.Screen,4_51_1,2023-10-31T21:09:42.213Z,,0,,,NaN,,,,,,false,,,,369605.5,369605.299999997,,369605,,369616.3,8,400,,,
break_continue,html.Screen,4_51_2,2023-10-31T21:09:42.213Z,,0,,,NaN,,,,,,false,,,,369605.89999999106,369605.799999997,,369605.59999999404,,369616.3,8,400,,,
sequence,flow.Sequence,4_51,2023-10-31T21:09:42.213Z,,0,,,4050.4819999969914,completion,,,,,false,,,,369606.09999999404,369605.799999997,365538.607,365553.09999999404,365555.318,369616.3,8,400,,,
trial,html.Screen,4_52_0,2023-10-31T21:09:46.239Z,,0,2,,4014.9999999970314,response,ISIC_0399220.JPG,6,ISIC_1560455.JPG,ISIC_1560455.JPG,false,0,keypress(z),500,373631.5,373631.299999997,369599.589,369606.1999999881,369616.3,373643.651,8,400,3,,ISIC_0399220.JPG
break,html.Screen,4_52_1,2023-10-31T21:09:46.240Z,,0,,,NaN,,,,,,false,,,,373632.09999999404,373632,,373631.6999999881,,373643.651,8,400,,,
break_continue,html.Screen,4_52_2,2023-10-31T21:09:46.240Z,,0,,,NaN,,,,,,false,,,,373632.5,373632.39999999106,,373632.1999999881,,373643.651,8,400,,,
sequence,flow.Sequence,4_52,2023-10-31T21:09:46.240Z,,0,,,4016.099999991071,completion,,,,,false,,,,373632.6999999881,373632.39999999106,369599.589,369606.1999999881,369616.3,373643.651,8,400,,,
trial,html.Screen,4_53_0,2023-10-31T21:09:49.540Z,,0,2,,3288.0489999880665,response,ISIC_0003333.JPG,8,ISIC_9936773.JPG,ISIC_0003333.JPG,false,1,keypress(m),500,376931.89999999106,376931.6999999881,373626.94,373632.799999997,373643.651,376935.718,8,400,4,,ISIC_9936773.JPG
break,html.Screen,4_53_1,2023-10-31T21:09:49.540Z,,0,,,NaN,,,,,,false,,,,376932.5,376932.39999999106,,376932.09999999404,,376935.718,8,400,,,
break_continue,html.Screen,4_53_2,2023-10-31T21:09:49.541Z,,0,,,NaN,,,,,,false,,,,376932.89999999106,376932.6999999881,,376932.6999999881,,376935.718,8,400,,,
sequence,flow.Sequence,4_53,2023-10-31T21:09:49.541Z,,0,,,3289.0489999880665,completion,,,,,false,,,,376933.09999999404,376932.6999999881,373626.94,373632.6999999881,373643.651,376935.718,8,400,,,
trial,html.Screen,4_54_0,2023-10-31T21:09:52.696Z,,0,2,,3152.7820000000065,response,ISIC_0032637.JPG,9,ISIC_1356715.JPG,ISIC_0032637.JPG,false,1,keypress(m),500,380088.6999999881,380088.5,376919.007,376933.1999999881,376935.718,380094.279,8,400,5,,ISIC_1356715.JPG
break,html.Screen,4_54_1,2023-10-31T21:09:52.697Z,,0,,,NaN,,,,,,false,,,,380089.39999999106,380089.1999999881,,380088.89999999106,,380094.279,8,400,,,
break_continue,html.Screen,4_54_2,2023-10-31T21:09:52.698Z,,0,,,NaN,,,,,,false,,,,380089.799999997,380089.59999999404,,380089.59999999404,,380094.279,8,400,,,
sequence,flow.Sequence,4_54,2023-10-31T21:09:52.698Z,,0,,,3153.881999994046,completion,,,,,false,,,,380090,380089.59999999404,376919.007,376933.09999999404,376935.718,380094.279,8,400,,,
trial,html.Screen,4_55_0,2023-10-31T21:09:55.792Z,,0,2,,3089.5209999970393,response,ISIC_3568801.JPG,6,ISIC_3190566.JPG,ISIC_3190566.JPG,false,0,keypress(z),500,383184,383183.799999997,380077.568,380090.1999999881,380094.279,383185.814,8,400,6,,ISIC_3568801.JPG
break,html.Screen,4_55_1,2023-10-31T21:09:55.793Z,,0,,,NaN,,,,,,false,,,,383184.799999997,383184.5,,383184.1999999881,,383185.814,8,400,,,
break_continue,html.Screen,4_55_2,2023-10-31T21:09:55.793Z,,0,,,NaN,,,,,,false,,,,383185.09999999404,383185,,383184.799999997,,383185.814,8,400,,,
sequence,flow.Sequence,4_55,2023-10-31T21:09:55.793Z,,0,,,3090.7210000000196,completion,,,,,false,,,,383185.299999997,383185,380077.568,380090.09999999404,380094.279,383185.814,8,400,,,
trial,html.Screen,4_56_0,2023-10-31T21:09:59.129Z,,0,2,,3335.185999999987,response,ISIC_0065278.JPG,8,ISIC_0015109.JPG,ISIC_0015109.JPG,false,0,keypress(z),500,386521.1999999881,386521,383169.103,383185.5,383185.814,386528.014,8,400,7,,ISIC_0065278.JPG
break,html.Screen,4_56_1,2023-10-31T21:09:59.130Z,,0,,,NaN,,,,,,false,,,,386521.89999999106,386521.799999997,,386521.39999999106,,386528.014,8,400,,,
break_continue,html.Screen,4_56_2,2023-10-31T21:09:59.130Z,,0,,,NaN,,,,,,false,,,,386522.1999999881,386522.09999999404,,386522.09999999404,,386528.014,8,400,,,
sequence,flow.Sequence,4_56,2023-10-31T21:09:59.130Z,,0,,,3336.2859999940265,completion,,,,,false,,,,386522.39999999106,386522.09999999404,383169.103,383185.5,383185.814,386528.014,8,400,,,
trial,html.Screen,4_57_0,2023-10-31T21:10:03.457Z,,0,2,,4321.185999988054,response,ISIC_9545819.JPG,5,ISIC_1962845.JPG,ISIC_9545819.JPG,false,1,keypress(m),500,390849.5,390849.1999999881,386511.303,386522.59999999404,386528.014,390856.348,8,400,8,,ISIC_1962845.JPG
break,html.Screen,4_57_1,2023-10-31T21:10:03.458Z,,0,,,NaN,,,,,,false,,,,390850.09999999404,390849.89999999106,,390849.6999999881,,390856.348,8,400,,,
break_continue,html.Screen,4_57_2,2023-10-31T21:10:03.459Z,,0,,,NaN,,,,,,false,,,,390850.5,390850.299999997,,390850.1999999881,,390856.348,8,400,,,
sequence,flow.Sequence,4_57,2023-10-31T21:10:03.459Z,,0,,,4322.285999996995,completion,,,,,false,,,,390850.6999999881,390850.299999997,386511.303,386522.59999999404,386528.014,390856.348,8,400,,,
trial,html.Screen,4_58_0,2023-10-31T21:10:07.272Z,,0,2,,3807.051999991061,response,ISIC_0011073.JPG,8,ISIC_1676261.JPG,ISIC_1676261.JPG,false,0,keypress(z),500,394663.59999999404,394663.39999999106,390839.637,390850.799999997,390856.348,394666.456,8,400,9,,ISIC_0011073.JPG
break,html.Screen,4_58_1,2023-10-31T21:10:07.272Z,,0,,,NaN,,,,,,false,,,,394664.299999997,394664.09999999404,,394663.799999997,,394666.456,8,400,,,
break_continue,html.Screen,4_58_2,2023-10-31T21:10:07.273Z,,0,,,NaN,,,,,,false,,,,394664.6999999881,394664.5,,394664.39999999106,,394666.456,8,400,,,
sequence,flow.Sequence,4_58,2023-10-31T21:10:07.273Z,,0,,,3808.152000000002,completion,,,,,false,,,,394664.89999999106,394664.5,390839.637,390850.799999997,390856.348,394666.456,8,400,,,
trial,html.Screen,4_59_0,2023-10-31T21:10:11.651Z,,0,2,,4375.7439999880735,response,ISIC_8618835.JPG,7,ISIC_0029914.JPG,ISIC_8618835.JPG,false,1,keypress(m),500,399042.5,399042.1999999881,394649.745,394665.09999999404,394666.456,399044.738,8,400,10,,ISIC_0029914.JPG
break,html.Screen,4_59_1,2023-10-31T21:10:11.651Z,,0,,,NaN,,,,,,false,,,,399043.1999999881,399043,,399042.59999999404,,399044.738,8,400,,,
break_continue,html.Screen,4_59_2,2023-10-31T21:10:11.652Z,,0,,,NaN,,,,,,false,,,,399043.5,399043.39999999106,,399043.1999999881,,399044.738,8,400,,,
sequence,flow.Sequence,4_59,2023-10-31T21:10:11.652Z,,0,,,4376.943999991054,completion,,,,,false,,,,399043.6999999881,399043.39999999106,394649.745,394665,394666.456,399044.738,8,400,,,
trial,html.Screen,4_60_0,2023-10-31T21:10:14.666Z,,0,2,,3012.3619999940274,response,ISIC_3013569.JPG,5,ISIC_7761711.JPG,ISIC_7761711.JPG,false,0,keypress(z),500,402057.299999997,402057.09999999404,399028.027,399043.89999999106,399044.738,402069.608,8,400,11,,ISIC_3013569.JPG
break,html.Screen,4_60_1,2023-10-31T21:10:14.666Z,,0,,,NaN,,,,,,false,,,,402058,402057.799999997,,402057.59999999404,,402069.608,8,400,,,
break_continue,html.Screen,4_60_2,2023-10-31T21:10:14.667Z,,0,,,NaN,,,,,,false,,,,402058.299999997,402058.299999997,,402058.1999999881,,402069.608,8,400,,,
sequence,flow.Sequence,4_60,2023-10-31T21:10:14.667Z,,0,,,3013.5619999970077,completion,,,,,false,,,,402058.59999999404,402058.299999997,399028.027,399043.89999999106,399044.738,402069.608,8,400,,,
trial,html.Screen,4_61_0,2023-10-31T21:10:17.761Z,,0,2,,3082.3919999999925,response,ISIC_9560298.JPG,8,ISIC_8109460.JPG,ISIC_8109460.JPG,false,0,keypress(z),500,405152.299999997,405152,402052.897,402058.799999997,402069.608,405161.143,8,400,12,,ISIC_9560298.JPG
break,html.Screen,4_61_1,2023-10-31T21:10:17.761Z,,0,,,NaN,,,,,,false,,,,405152.89999999106,405152.799999997,,405152.5,,405161.143,8,400,,,
break_continue,html.Screen,4_61_2,2023-10-31T21:10:17.762Z,,0,,,NaN,,,,,,false,,,,405153.299999997,405153.1999999881,,405153.09999999404,,405161.143,8,400,,,
sequence,flow.Sequence,4_61,2023-10-31T21:10:17.762Z,,0,,,3083.5919999880716,completion,,,,,false,,,,405153.5,405153.1999999881,402052.897,402058.6999999881,402069.608,405161.143,8,400,,,
trial,html.Screen,4_62_0,2023-10-31T21:10:21.367Z,,0,2,,3596.656999997038,response,ISIC_0253516.JPG,8,ISIC_0005239.JPG,ISIC_0005239.JPG,false,0,keypress(z),500,408758.09999999404,408757.799999997,405144.432,405153.59999999404,405161.143,408770.719,8,400,13,,ISIC_0253516.JPG
break,html.Screen,4_62_1,2023-10-31T21:10:21.367Z,,0,,,NaN,,,,,,false,,,,408758.6999999881,408758.5,,408758.1999999881,,408770.719,8,400,,,
break_continue,html.Screen,4_62_2,2023-10-31T21:10:21.368Z,,0,,,NaN,,,,,,false,,,,408759.09999999404,408759,,408758.89999999106,,408770.719,8,400,,,
sequence,flow.Sequence,4_62,2023-10-31T21:10:21.368Z,,0,,,3597.857000000018,completion,,,,,false,,,,408759.1999999881,408759,405144.432,405153.59999999404,405161.143,408770.719,8,400,,,
trial,html.Screen,4_63_0,2023-10-31T21:10:25.793Z,,0,2,,4413.580999997037,response,ISIC_9024529.JPG,7,ISIC_2945891.JPG,ISIC_2945891.JPG,false,0,keypress(z),500,413184.59999999404,413184.299999997,408754.008,408759.39999999106,408770.719,413199.314,8,400,14,,ISIC_9024529.JPG
break,html.Screen,4_63_1,2023-10-31T21:10:25.794Z,,0,,,NaN,,,,,,false,,,,413185.299999997,413185.09999999404,,413184.799999997,,413199.314,8,400,,,
break_continue,html.Screen,4_63_2,2023-10-31T21:10:25.794Z,,0,,,NaN,,,,,,false,,,,413185.6999999881,413185.59999999404,,413185.39999999106,,413199.314,8,400,,,
sequence,flow.Sequence,4_63,2023-10-31T21:10:25.795Z,,0,,,4414.880999994057,completion,,,,,false,,,,413185.799999997,413185.59999999404,408754.008,408759.39999999106,408770.719,413199.314,8,400,,,
trial,html.Screen,4_64_0,2023-10-31T21:10:30.904Z,,0,2,,5095.2859999940265,response,ISIC_0062389.JPG,8,ISIC_1330008.JPG,ISIC_1330008.JPG,false,0,keypress(z),500,418294.799999997,418294.59999999404,413182.603,413186,413199.314,418296.169,8,400,15,,ISIC_0062389.JPG
break,html.Screen,4_64_1,2023-10-31T21:10:30.904Z,,0,,,NaN,,,,,,false,,,,418295.5,418295.299999997,,418295,,418296.169,8,400,,,
break_continue,html.Screen,4_64_2,2023-10-31T21:10:30.905Z,,0,,,NaN,,,,,,false,,,,418295.89999999106,418295.6999999881,,418295.59999999404,,418296.169,8,400,,,
sequence,flow.Sequence,4_64,2023-10-31T21:10:30.905Z,,0,,,5096.385999988066,completion,,,,,false,,,,418296.09999999404,418295.6999999881,413182.603,413185.89999999106,413199.314,418296.169,8,400,,,
trial,html.Screen,4_65_0,2023-10-31T21:10:35.595Z,,0,2,,4689.730999991065,response,ISIC_3737487.JPG,8,ISIC_0010400.JPG,ISIC_3737487.JPG,false,1,keypress(m),500,422986.09999999404,422985.89999999106,418279.458,418296.1999999881,418296.169,422992.176,8,400,16,,ISIC_0010400.JPG
break,html.Screen,4_65_1,2023-10-31T21:10:35.596Z,,0,,,NaN,,,,,,false,,,,422986.799999997,422986.59999999404,,422986.299999997,,422992.176,8,400,,,
break_continue,html.Screen,4_65_2,2023-10-31T21:10:35.596Z,,0,,,NaN,,,,,,false,,,,422987.1999999881,422987,,422986.89999999106,,422992.176,8,400,,,
sequence,flow.Sequence,4_65,2023-10-31T21:10:35.596Z,,0,,,4690.831000000006,completion,,,,,false,,,,422987.299999997,422987,418279.458,418296.1999999881,418296.169,422992.176,8,400,,,
trial,html.Screen,4_66_0,2023-10-31T21:10:39.392Z,,0,2,,3790.123999997042,response,ISIC_4352700.JPG,7,ISIC_5772938.JPG,ISIC_5772938.JPG,false,0,keypress(z),500,426782.59999999404,426782.299999997,422975.465,422987.5,422992.176,426785.573,8,400,17,,ISIC_4352700.JPG
break,html.Screen,4_66_1,2023-10-31T21:10:39.392Z,,0,,,NaN,,,,,,false,,,,426783.1999999881,426783.09999999404,,426782.799999997,,426785.573,8,400,,,
break_continue,html.Screen,4_66_2,2023-10-31T21:10:39.393Z,,0,,,NaN,,,,,,false,,,,426783.6999999881,426783.39999999106,,426783.39999999106,,426785.573,8,400,,,
sequence,flow.Sequence,4_66,2023-10-31T21:10:39.393Z,,0,,,3791.2239999910817,completion,,,,,false,,,,426783.799999997,426783.39999999106,422975.465,422987.39999999106,422992.176,426785.573,8,400,,,
trial,html.Screen,4_67_0,2023-10-31T21:10:42.804Z,,0,2,,3408.726999997045,response,ISIC_0003113.JPG,7,ISIC_0068215.JPG,ISIC_0003113.JPG,false,1,keypress(m),500,430194.59999999404,430194.299999997,426768.862,426784,426785.573,430211.328,8,400,18,,ISIC_0068215.JPG
break,html.Screen,4_67_1,2023-10-31T21:10:42.805Z,,0,,,NaN,,,,,,false,,,,430195.299999997,430195.09999999404,,430194.6999999881,,430211.328,8,400,,,
break_continue,html.Screen,4_67_2,2023-10-31T21:10:42.805Z,,0,,,NaN,,,,,,false,,,,430195.799999997,430195.59999999404,,430195.39999999106,,430211.328,8,400,,,
sequence,flow.Sequence,4_67,2023-10-31T21:10:42.805Z,,0,,,3410.0269999940647,completion,,,,,false,,,,430196,430195.59999999404,426768.862,426783.89999999106,426785.573,430211.328,8,400,,,
trial,html.Screen,4_68_0,2023-10-31T21:10:45.772Z,,0,2,,2951.27199999406,response,ISIC_8199467.JPG,8,ISIC_8786606.JPG,ISIC_8786606.JPG,false,0,keypress(z),500,433162.89999999106,433162.59999999404,430194.617,430196.1999999881,430211.328,433169.355,8,400,19,,ISIC_8199467.JPG
break,html.Screen,4_68_1,2023-10-31T21:10:45.773Z,,0,,,NaN,,,,,,false,,,,433163.59999999404,433163.299999997,,433163.09999999404,,433169.355,8,400,,,
break_continue,html.Screen,4_68_2,2023-10-31T21:10:45.773Z,,0,,,NaN,,,,,,false,,,,433163.89999999106,433163.799999997,,433163.59999999404,,433169.355,8,400,,,
sequence,flow.Sequence,4_68,2023-10-31T21:10:45.773Z,,0,,,2952.4719999970403,completion,,,,,false,,,,433164.09999999404,433163.799999997,430194.617,430196.09999999404,430211.328,433169.355,8,400,,,
trial,html.Screen,4_69_0,2023-10-31T21:10:49.943Z,,0,2,,4163.744999994058,response,ISIC_0009958.JPG,7,ISIC_3746471.JPG,ISIC_3746471.JPG,false,0,keypress(z),500,437333.299999997,437333.09999999404,433152.644,433164.1999999881,433169.355,437347.105,8,400,20,,ISIC_0009958.JPG
break,html.Screen,4_69_1,2023-10-31T21:10:49.943Z,,0,,,NaN,,,,,,false,,,,437333.89999999106,437333.799999997,,437333.5,,437347.105,8,400,,,
break_continue,html.Screen,4_69_2,2023-10-31T21:10:49.944Z,,0,,,NaN,,,,,,false,,,,437334.299999997,437334.299999997,,437334.09999999404,,437347.105,8,400,,,
sequence,flow.Sequence,4_69,2023-10-31T21:10:49.944Z,,0,,,4164.944999997038,completion,,,,,false,,,,437334.59999999404,437334.299999997,433152.644,433164.1999999881,433169.355,437347.105,8,400,,,
trial,html.Screen,4_70_0,2023-10-31T21:10:53.754Z,,0,2,,3796.794999991078,response,ISIC_6673506.JPG,7,ISIC_7351939.JPG,ISIC_6673506.JPG,false,1,keypress(m),500,441144.1999999881,441143.89999999106,437330.394,437334.6999999881,437347.105,441157.213,8,400,21,,ISIC_7351939.JPG
break,html.Screen,4_70_1,2023-10-31T21:10:53.754Z,,0,,,NaN,,,,,,false,,,,441144.89999999106,441144.6999999881,,441144.5,,441157.213,8,400,,,
break_continue,html.Screen,4_70_2,2023-10-31T21:10:53.755Z,,0,,,NaN,,,,,,false,,,,441145.1999999881,441145.09999999404,,441145,,441157.213,8,400,,,
sequence,flow.Sequence,4_70,2023-10-31T21:10:53.755Z,,0,,,3797.994999994058,completion,,,,,false,,,,441145.39999999106,441145.09999999404,437330.394,437334.59999999404,437347.105,441157.213,8,400,,,
trial,html.Screen,4_71_0,2023-10-31T21:10:56.913Z,,0,2,,3145.9869999880902,response,ISIC_0032152.JPG,7,ISIC_8659639.JPG,ISIC_8659639.JPG,false,0,keypress(z),500,444303.39999999106,444303.1999999881,441140.502,441145.59999999404,441157.213,444315.774,8,400,22,,ISIC_0032152.JPG
break,html.Screen,4_71_1,2023-10-31T21:10:56.914Z,,0,,,NaN,,,,,,false,,,,444304.1999999881,444303.89999999106,,444303.59999999404,,444315.774,8,400,,,
break_continue,html.Screen,4_71_2,2023-10-31T21:10:56.914Z,,0,,,NaN,,,,,,false,,,,444304.5,444304.299999997,,444304.1999999881,,444315.774,8,400,,,
sequence,flow.Sequence,4_71,2023-10-31T21:10:56.914Z,,0,,,3147.086999997031,completion,,,,,false,,,,444304.6999999881,444304.299999997,441140.502,441145.5,441157.213,444315.774,8,400,,,
trial,html.Screen,4_72_0,2023-10-31T21:11:00.952Z,,0,2,,4026.3259999940637,response,ISIC_9660528.JPG,6,ISIC_0062702.JPG,ISIC_9660528.JPG,false,1,keypress(m),500,448342.299999997,448342.09999999404,444299.063,444304.799999997,444315.774,448343.125,8,400,23,,ISIC_0062702.JPG
break,html.Screen,4_72_1,2023-10-31T21:11:00.953Z,,0,,,NaN,,,,,,false,,,,448342.89999999106,448342.6999999881,,448342.5,,448343.125,8,400,,,
break_continue,html.Screen,4_72_2,2023-10-31T21:11:00.953Z,,0,,,NaN,,,,,,false,,,,448343.299999997,448343.1999999881,,448343.09999999404,,448343.125,8,400,,,
sequence,flow.Sequence,4_72,2023-10-31T21:11:00.953Z,,0,,,4027.4259999881033,completion,,,,,false,,,,448343.5,448343.1999999881,444299.063,444304.799999997,444315.774,448343.125,8,400,,,
trial,html.Screen,4_73_0,2023-10-31T21:11:06.844Z,,0,2,,5890.875,response,ISIC_8909545.JPG,7,ISIC_0055024.JPG,ISIC_8909545.JPG,false,1,keypress(m),500,454234.299999997,454234,448326.414,448343.59999999404,448343.125,454259.009,8,400,24,,ISIC_0055024.JPG
break,html.Screen,4_73_1,2023-10-31T21:11:06.845Z,,0,,,NaN,,,,,,false,,,,454234.799999997,454234.6999999881,,454234.39999999106,,454259.009,8,400,,,
break_continue,html.Screen,4_73_2,2023-10-31T21:11:06.845Z,,0,,,NaN,,,,,,false,,,,454235.1999999881,454235.09999999404,,454234.89999999106,,454259.009,8,400,,,
sequence,flow.Sequence,4_73,2023-10-31T21:11:06.845Z,,0,,,5891.9749999940395,completion,,,,,false,,,,454235.39999999106,454235.09999999404,448326.414,448343.59999999404,448343.125,454259.009,8,400,,,
trial,html.Screen,4_74_0,2023-10-31T21:11:12.690Z,,0,2,,5820.790999997,response,ISIC_0071869.JPG,6,ISIC_8635849.JPG,ISIC_8635849.JPG,false,0,keypress(z),500,460079.89999999106,460079.799999997,454242.298,454235.59999999404,454259.009,460091.148,8,400,25,,ISIC_0071869.JPG
break,html.Screen,4_74_1,2023-10-31T21:11:12.691Z,,0,,,NaN,,,,,,false,,,,460080.59999999404,460080.5,,460080.1999999881,,460091.148,8,400,,,
break_continue,html.Screen,4_74_2,2023-10-31T21:11:12.691Z,,0,,,NaN,,,,,,false,,,,460081,460080.89999999106,,460080.799999997,,460091.148,8,400,,,
sequence,flow.Sequence,4_74,2023-10-31T21:11:12.691Z,,0,,,5821.890999991039,completion,,,,,false,,,,460081.1999999881,460080.89999999106,454242.298,454235.5,454259.009,460091.148,8,400,,,
trial,html.Screen,4_75_0,2023-10-31T21:11:17.512Z,,0,2,,4810.551999988093,response,ISIC_0026924.JPG,7,ISIC_5833015.JPG,ISIC_0026924.JPG,false,1,keypress(m),500,464901.89999999106,464901.6999999881,460074.437,460081.39999999106,460091.148,464904.098,8,400,26,,ISIC_5833015.JPG
break,html.Screen,4_75_1,2023-10-31T21:11:17.513Z,,0,,,NaN,,,,,,false,,,,464902.59999999404,464902.299999997,,464902,,464904.098,8,400,,,
break_continue,html.Screen,4_75_2,2023-10-31T21:11:17.513Z,,0,,,NaN,,,,,,false,,,,464902.89999999106,464902.799999997,,464902.59999999404,,464904.098,8,400,,,
sequence,flow.Sequence,4_75,2023-10-31T21:11:17.513Z,,0,,,4811.651999997033,completion,,,,,false,,,,464903.09999999404,464902.799999997,460074.437,460081.299999997,460091.148,464904.098,8,400,,,
trial,html.Screen,4_76_0,2023-10-31T21:11:20.382Z,,0,2,,2867.301999991061,response,ISIC_0027590.JPG,6,ISIC_2670619.JPG,ISIC_0027590.JPG,false,1,keypress(m),500,467771.59999999404,467771.39999999106,464887.387,464903.1999999881,464904.098,467778.39,8,400,27,,ISIC_2670619.JPG
break,html.Screen,4_76_1,2023-10-31T21:11:20.383Z,,0,,,NaN,,,,,,false,,,,467772.299999997,467772.09999999404,,467771.799999997,,467778.39,8,400,,,
break_continue,html.Screen,4_76_2,2023-10-31T21:11:20.383Z,,0,,,NaN,,,,,,false,,,,467772.59999999404,467772.5,,467772.39999999106,,467778.39,8,400,,,
sequence,flow.Sequence,4_76,2023-10-31T21:11:20.383Z,,0,,,2868.402000000002,completion,,,,,false,,,,467772.799999997,467772.5,464887.387,464903.1999999881,464904.098,467778.39,8,400,,,
trial,html.Screen,4_77_0,2023-10-31T21:11:23.572Z,,0,2,,3182.609999999986,response,ISIC_0348633.JPG,7,ISIC_5459256.JPG,ISIC_5459256.JPG,false,0,keypress(z),500,470961.1999999881,470961,467761.679,467773,467778.39,470970.191,8,400,28,,ISIC_0348633.JPG
break,html.Screen,4_77_1,2023-10-31T21:11:23.572Z,,0,,,NaN,,,,,,false,,,,470962,470961.799999997,,470961.39999999106,,470970.191,8,400,,,
break_continue,html.Screen,4_77_2,2023-10-31T21:11:23.573Z,,0,,,NaN,,,,,,false,,,,470962.299999997,470962.09999999404,,470962.09999999404,,470970.191,8,400,,,
sequence,flow.Sequence,4_77,2023-10-31T21:11:23.573Z,,0,,,3183.7099999940256,completion,,,,,false,,,,470962.5,470962.09999999404,467761.679,467773,467778.39,470970.191,8,400,,,
trial,html.Screen,4_78_0,2023-10-31T21:11:27.242Z,,0,2,,3660.5089999880875,response,ISIC_0012099.JPG,8,ISIC_0027863.JPG,ISIC_0027863.JPG,false,0,keypress(z),500,474631,474630.6999999881,470953.48,470962.59999999404,470970.191,474646.788,8,400,29,,ISIC_0012099.JPG
break,html.Screen,4_78_1,2023-10-31T21:11:27.242Z,,0,,,NaN,,,,,,false,,,,474631.6999999881,474631.5,,474631.1999999881,,474646.788,8,400,,,
break_continue,html.Screen,4_78_2,2023-10-31T21:11:27.243Z,,0,,,NaN,,,,,,false,,,,474632.09999999404,474632,,474631.799999997,,474646.788,8,400,,,
sequence,flow.Sequence,4_78,2023-10-31T21:11:27.243Z,,0,,,3661.8090000000084,completion,,,,,false,,,,474632.1999999881,474632,470953.48,470962.59999999404,470970.191,474646.788,8,400,,,
trial,html.Screen,4_79_0,2023-10-31T21:11:30.801Z,,0,2,,3542.811999994039,response,ISIC_0000420.JPG,8,ISIC_0055282.JPG,ISIC_0055282.JPG,false,0,keypress(z),500,478189.89999999106,478189.59999999404,474630.077,474632.39999999106,474646.788,478206.231,8,400,30,,ISIC_0000420.JPG
break,html.Screen,4_79_1,2023-10-31T21:11:30.801Z,,0,,,NaN,,,,,,false,,,,478190.59999999404,478190.299999997,,478190.09999999404,,478206.231,8,400,,,
break_continue,html.Screen,4_79_2,2023-10-31T21:11:30.802Z,,0,,,NaN,,,,,,false,,,,478190.89999999106,478190.799999997,,478190.6999999881,,478206.231,8,400,,,
sequence,flow.Sequence,4_79,2023-10-31T21:11:30.802Z,,0,,,3544.0119999970193,completion,,,,,false,,,,478191.09999999404,478190.799999997,474630.077,474632.39999999106,474646.788,478206.231,8,400,,,
trial,html.Screen,4_80_0,2023-10-31T21:11:33.556Z,,0,2,,2738.3689999940107,response,ISIC_7231192.JPG,7,ISIC_0062463.JPG,ISIC_7231192.JPG,false,1,keypress(m),500,480945.09999999404,480944.59999999404,478189.52,478191.299999997,478206.231,480963.546,8,400,31,,ISIC_0062463.JPG
break,html.Screen,4_80_1,2023-10-31T21:11:33.557Z,,0,,,NaN,,,,,,false,,,,480946.09999999404,480945.59999999404,,480945.299999997,,480963.546,8,400,,,
break_continue,html.Screen,4_80_2,2023-10-31T21:11:33.558Z,,0,,,NaN,,,,,,false,,,,480946.6999999881,480946.59999999404,,480946.5,,480963.546,8,400,,,
sequence,flow.Sequence,4_80,2023-10-31T21:11:33.558Z,,0,,,2740.3689999940107,completion,,,,,false,,,,480947,480946.59999999404,478189.52,478191.1999999881,478206.231,480963.546,8,400,,,
trial,html.Screen,4_81_0,2023-10-31T21:11:36.699Z,,0,2,,3124.653999988106,response,ISIC_0065206.JPG,9,ISIC_3556980.JPG,ISIC_0065206.JPG,false,1,keypress(m),500,484088.39999999106,484088.1999999881,480946.835,480947.09999999404,480963.546,484105.214,8,400,32,,ISIC_3556980.JPG
break,html.Screen,4_81_1,2023-10-31T21:11:36.700Z,,0,,,NaN,,,,,,false,,,,484089.1999999881,484089,,484088.59999999404,,484105.214,8,400,,,
break_continue,html.Screen,4_81_2,2023-10-31T21:11:36.700Z,,0,,,NaN,,,,,,false,,,,484089.5,484089.39999999106,,484089.299999997,,484105.214,8,400,,,
sequence,flow.Sequence,4_81,2023-10-31T21:11:36.701Z,,0,,,3125.8539999910863,completion,,,,,false,,,,484089.799999997,484089.39999999106,480946.835,480947.09999999404,480963.546,484105.214,8,400,,,
trial,html.Screen,4_82_0,2023-10-31T21:11:40.079Z,,0,2,,3362.485999988101,response,ISIC_7912183.JPG,8,ISIC_0065883.JPG,ISIC_0065883.JPG,false,0,keypress(z),500,487467.89999999106,487467.6999999881,484088.503,484089.799999997,484105.214,487481.019,8,400,33,,ISIC_7912183.JPG
break,html.Screen,4_82_1,2023-10-31T21:11:40.080Z,,0,,,NaN,,,,,,false,,,,487468.59999999404,487468.5,,487468.1999999881,,487481.019,8,400,,,
break_continue,html.Screen,4_82_2,2023-10-31T21:11:40.080Z,,0,,,NaN,,,,,,false,,,,487469,487468.89999999106,,487468.6999999881,,487481.019,8,400,,,
sequence,flow.Sequence,4_82,2023-10-31T21:11:40.080Z,,0,,,3363.685999991081,completion,,,,,false,,,,487469.1999999881,487468.89999999106,484088.503,484089.799999997,484105.214,487481.019,8,400,,,
trial,html.Screen,4_83_0,2023-10-31T21:11:44.567Z,,0,2,,4474.481000000029,response,ISIC_0013141.JPG,7,ISIC_0056201.JPG,ISIC_0013141.JPG,false,1,keypress(m),500,491955.799999997,491955.5,487464.308,487469.299999997,487481.019,491959.567,8,400,34,,ISIC_0056201.JPG
break,html.Screen,4_83_1,2023-10-31T21:11:44.568Z,,0,,,NaN,,,,,,false,,,,491956.5,491956.299999997,,491956,,491959.567,8,400,,,
break_continue,html.Screen,4_83_2,2023-10-31T21:11:44.568Z,,0,,,NaN,,,,,,false,,,,491956.89999999106,491956.6999999881,,491956.59999999404,,491959.567,8,400,,,
sequence,flow.Sequence,4_83,2023-10-31T21:11:44.568Z,,0,,,4475.680999988108,completion,,,,,false,,,,491957.09999999404,491956.6999999881,487464.308,487469.299999997,487481.019,491959.567,8,400,,,
trial,html.Screen,4_84_0,2023-10-31T21:11:47.948Z,,0,2,,3376.5329999940586,response,ISIC_5813642.JPG,6,ISIC_0030656.JPG,ISIC_0030656.JPG,false,0,keypress(z),500,495336.39999999106,495336.09999999404,491942.856,491957.1999999881,491959.567,495352.083,8,400,35,,ISIC_5813642.JPG
break,html.Screen,4_84_1,2023-10-31T21:11:47.948Z,,0,,,NaN,,,,,,false,,,,495337,495336.89999999106,,495336.59999999404,,495352.083,8,400,,,
break_continue,html.Screen,4_84_2,2023-10-31T21:11:47.949Z,,0,,,NaN,,,,,,false,,,,495337.39999999106,495337.299999997,,495337.1999999881,,495352.083,8,400,,,
sequence,flow.Sequence,4_84,2023-10-31T21:11:47.949Z,,0,,,3377.732999997039,completion,,,,,false,,,,495337.59999999404,495337.299999997,491942.856,491957.1999999881,491959.567,495352.083,8,400,,,
trial,html.Screen,4_85_0,2023-10-31T21:11:50.965Z,,0,2,,3001.7169999970356,response,ISIC_0014423.JPG,8,ISIC_0011126.JPG,ISIC_0011126.JPG,false,0,keypress(z),500,498354.09999999404,498353.799999997,495335.372,495337.799999997,495352.083,498360.063,8,400,36,,ISIC_0014423.JPG
break,html.Screen,4_85_1,2023-10-31T21:11:50.966Z,,0,,,NaN,,,,,,false,,,,498354.89999999106,498354.799999997,,498354.39999999106,,498360.063,8,400,,,
break_continue,html.Screen,4_85_2,2023-10-31T21:11:50.967Z,,0,,,NaN,,,,,,false,,,,498355.299999997,498355.1999999881,,498355,,498360.063,8,400,,,
sequence,flow.Sequence,4_85,2023-10-31T21:11:50.967Z,,0,,,3003.116999988095,completion,,,,,false,,,,498355.5,498355.1999999881,495335.372,495337.799999997,495352.083,498360.063,8,400,,,
trial,html.Screen,4_86_0,2023-10-31T21:11:55.596Z,,0,2,,4624.336999991036,response,ISIC_0031406.JPG,5,ISIC_3892947.JPG,ISIC_3892947.JPG,false,0,keypress(z),500,502984.59999999404,502984.39999999106,498343.352,498355.6999999881,498360.063,502989.01,8,400,37,,ISIC_0031406.JPG
break,html.Screen,4_86_1,2023-10-31T21:11:55.597Z,,0,,,NaN,,,,,,false,,,,502985.299999997,502985.1999999881,,502984.799999997,,502989.01,8,400,,,
break_continue,html.Screen,4_86_2,2023-10-31T21:11:55.597Z,,0,,,NaN,,,,,,false,,,,502985.6999999881,502985.5,,502985.39999999106,,502989.01,8,400,,,
sequence,flow.Sequence,4_86,2023-10-31T21:11:55.597Z,,0,,,4625.436999999976,completion,,,,,false,,,,502985.799999997,502985.5,498343.352,498355.59999999404,498360.063,502989.01,8,400,,,
trial,html.Screen,4_87_0,2023-10-31T21:11:59.073Z,,0,2,,3472.58999999403,response,ISIC_0009975.JPG,7,ISIC_5514594.JPG,ISIC_0009975.JPG,false,1,keypress(m),500,506461.799999997,506461.59999999404,502972.299,502986,502989.01,506465.081,8,400,38,,ISIC_5514594.JPG
break,html.Screen,4_87_1,2023-10-31T21:11:59.074Z,,0,,,NaN,,,,,,false,,,,506462.5,506462.1999999881,,506462,,506465.081,8,400,,,
break_continue,html.Screen,4_87_2,2023-10-31T21:11:59.074Z,,0,,,NaN,,,,,,false,,,,506462.799999997,506462.6999999881,,506462.59999999404,,506465.081,8,400,,,
sequence,flow.Sequence,4_87,2023-10-31T21:11:59.074Z,,0,,,3473.6899999880698,completion,,,,,false,,,,506462.89999999106,506462.6999999881,502972.299,502986,502989.01,506465.081,8,400,,,
trial,html.Screen,4_88_0,2023-10-31T21:12:04.475Z,,0,2,,5397.918999999994,response,ISIC_7416587.JPG,7,ISIC_8692218.JPG,ISIC_7416587.JPG,false,1,keypress(m),500,511863.1999999881,511863,506448.37,506463,506465.081,511879.445,8,400,39,,ISIC_8692218.JPG
break,html.Screen,4_88_1,2023-10-31T21:12:04.476Z,,0,,,NaN,,,,,,false,,,,511864,511863.799999997,,511863.5,,511879.445,8,400,,,
break_continue,html.Screen,4_88_2,2023-10-31T21:12:04.476Z,,0,,,NaN,,,,,,false,,,,511864.5,511864.299999997,,511864.1999999881,,511879.445,8,400,,,
sequence,flow.Sequence,4_88,2023-10-31T21:12:04.476Z,,0,,,5399.218999997014,completion,,,,,false,,,,511864.59999999404,511864.299999997,506448.37,506463,506465.081,511879.445,8,400,,,
trial,html.Screen,4_89_0,2023-10-31T21:12:08.896Z,,0,2,,4404.154999994033,response,ISIC_0007148.JPG,7,ISIC_4782878.JPG,ISIC_4782878.JPG,false,0,keypress(z),500,516283.799999997,516283.59999999404,511862.734,511864.6999999881,511879.445,516291.336,8,400,40,,ISIC_0007148.JPG
break,html.Screen,4_89_1,2023-10-31T21:12:08.896Z,,0,,,NaN,,,,,,false,,,,516284.39999999106,516284.1999999881,,516284,,516291.336,8,400,,,
break_continue,html.Screen,4_89_2,2023-10-31T21:12:08.897Z,,0,,,NaN,,,,,,false,,,,516284.799999997,516284.6999999881,,516284.59999999404,,516291.336,8,400,,,
sequence,flow.Sequence,4_89,2023-10-31T21:12:08.897Z,,0,,,4405.254999988072,completion,,,,,false,,,,516285,516284.6999999881,511862.734,511864.6999999881,511879.445,516291.336,8,400,,,
trial,html.Screen,4_90_0,2023-10-31T21:12:14.712Z,,0,2,,5808.763999994029,response,ISIC_5272837.JPG,7,ISIC_2159510.JPG,ISIC_2159510.JPG,false,0,keypress(z),500,522100.299999997,522100.09999999404,516274.625,516285.1999999881,516291.336,522106.764,8,400,41,,ISIC_5272837.JPG
break,html.Screen,4_90_1,2023-10-31T21:12:14.713Z,,0,,,NaN,,,,,,false,,,,522101,522100.799999997,,522100.5,,522106.764,8,400,,,
break_continue,html.Screen,4_90_2,2023-10-31T21:12:14.713Z,,0,,,NaN,,,,,,false,,,,522101.39999999106,522101.299999997,,522101.1999999881,,522106.764,8,400,,,
sequence,flow.Sequence,4_90,2023-10-31T21:12:14.714Z,,0,,,5809.9639999970095,completion,,,,,false,,,,522101.59999999404,522101.299999997,516274.625,516285.09999999404,516291.336,522106.764,8,400,,,
trial,html.Screen,4_91_0,2023-10-31T21:12:18.032Z,,0,2,,3313.035999996995,response,ISIC_9768421.JPG,5,ISIC_0026049.JPG,ISIC_0026049.JPG,false,0,keypress(z),500,525420,525419.799999997,522090.053,522101.6999999881,522106.764,525432.253,8,400,42,,ISIC_9768421.JPG
break,html.Screen,4_91_1,2023-10-31T21:12:18.033Z,,0,,,NaN,,,,,,false,,,,525420.799999997,525420.599999994,,525420.1999999881,,525432.253,8,400,,,
break_continue,html.Screen,4_91_2,2023-10-31T21:12:18.033Z,,0,,,NaN,,,,,,false,,,,525421.099999994,525421,,525420.799999997,,525432.253,8,400,,,
sequence,flow.Sequence,4_91,2023-10-31T21:12:18.033Z,,0,,,3314.2359999999753,completion,,,,,false,,,,525421.299999997,525421,522090.053,522101.6999999881,522106.764,525432.253,8,400,,,
trial,html.Screen,4_92_0,2023-10-31T21:12:21.594Z,,0,2,,3548.8469999940135,response,ISIC_2266715.JPG,8,ISIC_9354965.JPG,ISIC_9354965.JPG,false,0,keypress(z),500,528981.3999999911,528981.099999994,525415.542,525421.5,525432.253,528991.878,8,400,43,,ISIC_2266715.JPG
break,html.Screen,4_92_1,2023-10-31T21:12:21.594Z,,0,,,NaN,,,,,,false,,,,528982.099999994,528982,,528981.6999999881,,528991.878,8,400,,,
break_continue,html.Screen,4_92_2,2023-10-31T21:12:21.595Z,,0,,,NaN,,,,,,false,,,,528982.5,528982.3999999911,,528982.1999999881,,528991.878,8,400,,,
sequence,flow.Sequence,4_92,2023-10-31T21:12:21.595Z,,0,,,3550.146999991033,completion,,,,,false,,,,528982.6999999881,528982.3999999911,525415.542,525421.3999999911,525432.253,528991.878,8,400,,,
trial,html.Screen,4_93_0,2023-10-31T21:12:25.074Z,,0,2,,3469.121999999974,response,ISIC_0027253.JPG,5,ISIC_8609756.JPG,ISIC_8609756.JPG,false,0,keypress(z),500,532461.299999997,532461,528975.167,528982.799999997,528991.878,532467.766,8,400,44,,ISIC_0027253.JPG
break,html.Screen,4_93_1,2023-10-31T21:12:25.074Z,,0,,,NaN,,,,,,false,,,,532461.8999999911,532461.6999999881,,532461.5,,532467.766,8,400,,,
break_continue,html.Screen,4_93_2,2023-10-31T21:12:25.075Z,,0,,,NaN,,,,,,false,,,,532462.3999999911,532462.1999999881,,532462.099999994,,532467.766,8,400,,,
sequence,flow.Sequence,4_93,2023-10-31T21:12:25.075Z,,0,,,3470.321999988053,completion,,,,,false,,,,532462.5,532462.1999999881,528975.167,528982.799999997,528991.878,532467.766,8,400,,,
trial,html.Screen,4_94_0,2023-10-31T21:12:29.146Z,,0,2,,4065.1339999911143,response,ISIC_0033211.JPG,8,ISIC_1945381.JPG,ISIC_1945381.JPG,false,0,keypress(z),500,536533.099999994,536532.8999999911,532451.055,532462.6999999881,532467.766,536545.25,8,400,45,,ISIC_0033211.JPG
break,html.Screen,4_94_1,2023-10-31T21:12:29.146Z,,0,,,NaN,,,,,,false,,,,536533.8999999911,536533.599999994,,536533.299999997,,536545.25,8,400,,,
break_continue,html.Screen,4_94_2,2023-10-31T21:12:29.147Z,,0,,,NaN,,,,,,false,,,,536534.1999999881,536534.099999994,,536534,,536545.25,8,400,,,
sequence,flow.Sequence,4_94,2023-10-31T21:12:29.147Z,,0,,,4066.3339999940945,completion,,,,,false,,,,536534.3999999911,536534.099999994,532451.055,532462.6999999881,532467.766,536545.25,8,400,,,
trial,html.Screen,4_95_0,2023-10-31T21:12:33.009Z,,0,2,,3850.5499999970198,response,ISIC_5787312.JPG,5,ISIC_1885174.JPG,ISIC_5787312.JPG,false,1,keypress(m),500,540396,540395.799999997,536528.539,536534.599999994,536545.25,540405.675,8,400,46,,ISIC_1885174.JPG
break,html.Screen,4_95_1,2023-10-31T21:12:33.009Z,,0,,,NaN,,,,,,false,,,,540396.799999997,540396.599999994,,540396.1999999881,,540405.675,8,400,,,
break_continue,html.Screen,4_95_2,2023-10-31T21:12:33.010Z,,0,,,NaN,,,,,,false,,,,540397.1999999881,540397.099999994,,540397,,540405.675,8,400,,,
sequence,flow.Sequence,4_95,2023-10-31T21:12:33.010Z,,0,,,3851.8499999940395,completion,,,,,false,,,,540397.3999999911,540397.099999994,536528.539,536534.599999994,536545.25,540405.675,8,400,,,
trial,html.Screen,4_96_0,2023-10-31T21:12:35.669Z,,0,2,,2650.7249999910127,response,ISIC_8211214.JPG,7,ISIC_0000002.JPG,ISIC_8211214.JPG,false,1,keypress(m),500,543056.6999999881,543056.3999999911,540388.964,540397.599999994,540405.675,543062.724,8,400,47,,ISIC_0000002.JPG
break,html.Screen,4_96_1,2023-10-31T21:12:35.670Z,,0,,,NaN,,,,,,false,,,,543057.3999999911,543057.099999994,,543056.799999997,,543062.724,8,400,,,
break_continue,html.Screen,4_96_2,2023-10-31T21:12:35.670Z,,0,,,NaN,,,,,,false,,,,543057.6999999881,543057.599999994,,543057.5,,543062.724,8,400,,,
sequence,flow.Sequence,4_96,2023-10-31T21:12:35.671Z,,0,,,2651.924999993993,completion,,,,,false,,,,543057.8999999911,543057.599999994,540388.964,540397.599999994,540405.675,543062.724,8,400,,,
trial,html.Screen,4_97_0,2023-10-31T21:12:38.937Z,,0,2,,3261.6759999910137,response,ISIC_9337870.JPG,7,ISIC_2136533.JPG,ISIC_2136533.JPG,false,0,keypress(z),500,546324.6999999881,546324.3999999911,543046.013,543058.099999994,543062.724,546338.08,8,400,48,,ISIC_9337870.JPG
break,html.Screen,4_97_1,2023-10-31T21:12:38.938Z,,0,,,NaN,,,,,,false,,,,546325.3999999911,546325.1999999881,,546324.8999999911,,546338.08,8,400,,,
break_continue,html.Screen,4_97_2,2023-10-31T21:12:38.939Z,,0,,,NaN,,,,,,false,,,,546325.799999997,546325.6999999881,,546325.5,,546338.08,8,400,,,
sequence,flow.Sequence,4_97,2023-10-31T21:12:38.939Z,,0,,,3262.9759999880334,completion,,,,,false,,,,546326,546325.6999999881,543046.013,543058,543062.724,546338.08,8,400,,,
trial,html.Screen,4_98_0,2023-10-31T21:12:42.341Z,,0,2,,3389.420000000042,response,ISIC_3009877.JPG,6,ISIC_0025603.JPG,ISIC_3009877.JPG,false,1,keypress(m),500,549727.799999997,549727.5,546321.369,546326.1999999881,546338.08,549730.604,8,400,49,,ISIC_0025603.JPG
break,html.Screen,4_98_1,2023-10-31T21:12:42.341Z,,0,,,NaN,,,,,,false,,,,549728.599999994,549728.3999999911,,549728.099999994,,549730.604,8,400,,,
break_continue,html.Screen,4_98_2,2023-10-31T21:12:42.342Z,,0,,,NaN,,,,,,false,,,,549729.099999994,549728.8999999911,,549728.6999999881,,549730.604,8,400,,,
sequence,flow.Sequence,4_98,2023-10-31T21:12:42.342Z,,0,,,3390.819999991101,completion,,,,,false,,,,549729.299999997,549728.8999999911,546321.369,546326.099999994,546338.08,549730.604,8,400,,,
trial,html.Screen,4_99_0,2023-10-31T21:12:45.323Z,,0,2,,2979.295999991009,response,ISIC_8566006.JPG,5,ISIC_0033779.JPG,ISIC_8566006.JPG,false,1,keypress(m),500,552710,552709.8999999911,549713.893,549729.3999999911,549730.604,552721.873,8,400,50,,ISIC_0033779.JPG
break,html.Screen,4_99_1,2023-10-31T21:12:55.314Z,,0,,,9993.354999999981,timeout,,,,,false,,,,562701.1999999881,562698.517,552705.162,552710.299999997,552721.873,562715.228,8,400,,,
break_continue,html.Screen,4_99_2,2023-10-31T21:12:56.640Z,,0,,,1292.071999997017,response,,,,,false,continue,keypress(Space),,564027,564007.299999997,562698.517,562701.299999997,562715.228,564035.397,8,400,,,
sequence,flow.Sequence,4_99,2023-10-31T21:12:56.640Z,,0,,,14276.69599999697,completion,,,,,false,,,,564027.099999994,564007.299999997,549713.893,549729.3999999911,549730.604,564035.397,8,400,,,
trial,html.Screen,4_100_0,2023-10-31T21:13:01.060Z,,0,3,,4411.202999994042,response,ISIC_5536710.JPG,5,ISIC_0010684.JPG,ISIC_0010684.JPG,false,0,keypress(z),500,568446.8999999911,568446.599999994,564018.686,564027.1999999881,564035.397,568463.999,8,400,1,,ISIC_5536710.JPG
break,html.Screen,4_100_1,2023-10-31T21:13:01.061Z,,0,,,NaN,,,,,,false,,,,568447.599999994,568447.5,,568447.1999999881,,568463.999,8,400,,,
break_continue,html.Screen,4_100_2,2023-10-31T21:13:01.061Z,,0,,,NaN,,,,,,false,,,,568448,568447.8999999911,,568447.799999997,,568463.999,8,400,,,
sequence,flow.Sequence,4_100,2023-10-31T21:13:01.062Z,,0,,,4412.502999991062,completion,,,,,false,,,,568448.1999999881,568447.8999999911,564018.686,564027.099999994,564035.397,568463.999,8,400,,,
trial,html.Screen,4_101_0,2023-10-31T21:13:05.407Z,,0,3,,4328.800999997067,response,ISIC_0011128.JPG,8,ISIC_6917681.JPG,ISIC_6917681.JPG,false,0,keypress(z),500,572793.099999994,572792.799999997,568447.288,568448.3999999911,568463.999,572808.859,8,400,2,,ISIC_0011128.JPG
break,html.Screen,4_101_1,2023-10-31T21:13:05.407Z,,0,,,NaN,,,,,,false,,,,572793.799999997,572793.599999994,,572793.299999997,,572808.859,8,400,,,
break_continue,html.Screen,4_101_2,2023-10-31T21:13:05.408Z,,0,,,NaN,,,,,,false,,,,572794.099999994,572794.099999994,,572793.8999999911,,572808.859,8,400,,,
sequence,flow.Sequence,4_101,2023-10-31T21:13:05.408Z,,0,,,4330.100999994087,completion,,,,,false,,,,572794.3999999911,572794.099999994,568447.288,568448.299999997,568463.999,572808.859,8,400,,,
trial,html.Screen,4_102_0,2023-10-31T21:13:09.682Z,,0,3,,4258.840999988024,response,ISIC_5998926.JPG,8,ISIC_4032636.JPG,ISIC_4032636.JPG,false,0,keypress(z),500,577068,577067.6999999881,572792.148,572794.599999994,572808.859,577070.164,8,400,3,,ISIC_5998926.JPG
break,html.Screen,4_102_1,2023-10-31T21:13:09.682Z,,0,,,NaN,,,,,,false,,,,577068.6999999881,577068.3999999911,,577068.099999994,,577070.164,8,400,,,
break_continue,html.Screen,4_102_2,2023-10-31T21:13:09.683Z,,0,,,NaN,,,,,,false,,,,577069.099999994,577069,,577068.8999999911,,577070.164,8,400,,,
sequence,flow.Sequence,4_102,2023-10-31T21:13:09.683Z,,0,,,4260.140999999945,completion,,,,,false,,,,577069.1999999881,577069,572792.148,572794.5,572808.859,577070.164,8,400,,,
trial,html.Screen,4_103_0,2023-10-31T21:13:12.663Z,,0,3,,2979.3360000000102,response,ISIC_8121679.JPG,6,ISIC_0032685.JPG,ISIC_8121679.JPG,false,1,keypress(m),500,580049.799999997,580049.5,577053.453,577069.3999999911,577070.164,580061.612,8,400,4,,ISIC_0032685.JPG
break,html.Screen,4_103_1,2023-10-31T21:13:12.664Z,,0,,,NaN,,,,,,false,,,,580050.3999999911,580050.299999997,,580049.8999999911,,580061.612,8,400,,,
break_continue,html.Screen,4_103_2,2023-10-31T21:13:12.665Z,,0,,,NaN,,,,,,false,,,,580050.799999997,580050.6999999881,,580050.599999994,,580061.612,8,400,,,
sequence,flow.Sequence,4_103,2023-10-31T21:13:12.665Z,,0,,,2980.5359999880893,completion,,,,,false,,,,580051.099999994,580050.6999999881,577053.453,577069.3999999911,577070.164,580061.612,8,400,,,
trial,html.Screen,4_104_0,2023-10-31T21:13:16.193Z,,0,3,,3517.487999994075,response,ISIC_7759913.JPG,8,ISIC_4308751.JPG,ISIC_4308751.JPG,false,0,keypress(z),500,583579.299999997,583579.099999994,580044.901,580051.1999999881,580061.612,583587.633,8,400,5,,ISIC_7759913.JPG
break,html.Screen,4_104_1,2023-10-31T21:13:16.194Z,,0,,,NaN,,,,,,false,,,,583579.8999999911,583579.799999997,,583579.5,,583587.633,8,400,,,
break_continue,html.Screen,4_104_2,2023-10-31T21:13:16.194Z,,0,,,NaN,,,,,,false,,,,583580.3999999911,583580.299999997,,583580.099999994,,583587.633,8,400,,,
sequence,flow.Sequence,4_104,2023-10-31T21:13:16.194Z,,0,,,3518.687999997055,completion,,,,,false,,,,583580.599999994,583580.299999997,580044.901,580051.099999994,580061.612,583587.633,8,400,,,
trial,html.Screen,4_105_0,2023-10-31T21:13:19.223Z,,0,3,,3021.3669999999693,response,ISIC_0028477.JPG,8,ISIC_0028320.JPG,ISIC_0028477.JPG,false,1,keypress(m),500,586609.299999997,586609,583570.922,583580.6999999881,583587.633,586612.324,8,400,6,,ISIC_0028320.JPG
break,html.Screen,4_105_1,2023-10-31T21:13:19.224Z,,0,,,NaN,,,,,,false,,,,586610.099999994,586609.8999999911,,586609.599999994,,586612.324,8,400,,,
break_continue,html.Screen,4_105_2,2023-10-31T21:13:19.224Z,,0,,,NaN,,,,,,false,,,,586610.5,586610.3999999911,,586610.1999999881,,586612.324,8,400,,,
sequence,flow.Sequence,4_105,2023-10-31T21:13:19.225Z,,0,,,3022.7669999910286,completion,,,,,false,,,,586610.799999997,586610.3999999911,583570.922,583580.6999999881,583587.633,586612.324,8,400,,,
trial,html.Screen,4_106_0,2023-10-31T21:13:22.190Z,,0,3,,2962.8759999880567,response,ISIC_8041078.JPG,7,ISIC_9301346.JPG,ISIC_9301346.JPG,false,0,keypress(z),500,589575.5,589575.1999999881,586595.613,586610.799999997,586612.324,589587.059,8,400,7,,ISIC_8041078.JPG
break,html.Screen,4_106_1,2023-10-31T21:13:22.190Z,,0,,,NaN,,,,,,false,,,,589576.3999999911,589576.099999994,,589575.799999997,,589587.059,8,400,,,
break_continue,html.Screen,4_106_2,2023-10-31T21:13:22.191Z,,0,,,NaN,,,,,,false,,,,589576.799999997,589576.599999994,,589576.5,,589587.059,8,400,,,
sequence,flow.Sequence,4_106,2023-10-31T21:13:22.191Z,,0,,,2964.275999994017,completion,,,,,false,,,,589577,589576.599999994,586595.613,586610.799999997,586612.324,589587.059,8,400,,,
trial,html.Screen,4_107_0,2023-10-31T21:13:26.184Z,,0,3,,3982.4409999999916,response,ISIC_0024826.JPG,8,ISIC_0062031.JPG,ISIC_0062031.JPG,false,0,keypress(z),500,593569.799999997,593569.5,589570.348,589577.099999994,589587.059,593597.699,8,400,8,,ISIC_0024826.JPG
break,html.Screen,4_107_1,2023-10-31T21:13:26.185Z,,0,,,NaN,,,,,,false,,,,593570.5,593570.299999997,,593570,,593597.699,8,400,,,
break_continue,html.Screen,4_107_2,2023-10-31T21:13:26.185Z,,0,,,NaN,,,,,,false,,,,593570.799999997,593570.6999999881,,593570.599999994,,593597.699,8,400,,,
sequence,flow.Sequence,4_107,2023-10-31T21:13:26.185Z,,0,,,3983.6409999880707,completion,,,,,false,,,,593571,593570.6999999881,589570.348,589577,589587.059,593597.699,8,400,,,
trial,html.Screen,4_108_0,2023-10-31T21:13:30.113Z,,0,3,,3900.700999991037,response,ISIC_0071797.JPG,8,ISIC_9350507.JPG,ISIC_0071797.JPG,false,1,keypress(m),500,597498.599999994,597498.3999999911,593580.988,593571.1999999881,593597.699,597508.073,8,400,9,,ISIC_9350507.JPG
break,html.Screen,4_108_1,2023-10-31T21:13:30.114Z,,0,,,NaN,,,,,,false,,,,597499.299999997,597499.099999994,,597498.799999997,,597508.073,8,400,,,
break_continue,html.Screen,4_108_2,2023-10-31T21:13:30.114Z,,0,,,NaN,,,,,,false,,,,597499.6999999881,597499.5,,597499.5,,597508.073,8,400,,,
sequence,flow.Sequence,4_108,2023-10-31T21:13:30.114Z,,0,,,3901.8009999999776,completion,,,,,false,,,,597499.8999999911,597499.5,593580.988,593571.1999999881,593597.699,597508.073,8,400,,,
trial,html.Screen,4_109_0,2023-10-31T21:13:35.928Z,,0,3,,5805.427000000025,response,ISIC_0033843.JPG,8,ISIC_5508076.JPG,ISIC_5508076.JPG,false,0,keypress(z),500,603313.799999997,603313.5,597491.362,597500,597508.073,603323.684,8,400,10,,ISIC_0033843.JPG
break,html.Screen,4_109_1,2023-10-31T21:13:35.929Z,,0,,,NaN,,,,,,false,,,,603314.5,603314.299999997,,603314,,603323.684,8,400,,,
break_continue,html.Screen,4_109_2,2023-10-31T21:13:35.929Z,,0,,,NaN,,,,,,false,,,,603314.799999997,603314.599999994,,603314.599999994,,603323.684,8,400,,,
sequence,flow.Sequence,4_109,2023-10-31T21:13:35.929Z,,0,,,5806.526999994065,completion,,,,,false,,,,603315,603314.599999994,597491.362,597500,597508.073,603323.684,8,400,,,
trial,html.Screen,4_110_0,2023-10-31T21:13:41.407Z,,0,3,,5468.215999991051,response,ISIC_6496765.JPG,5,ISIC_0870751.JPG,ISIC_0870751.JPG,false,0,keypress(z),500,608792.099999994,608791.8999999911,603306.973,603315.099999994,603323.684,608804.892,8,400,11,,ISIC_6496765.JPG
break,html.Screen,4_110_1,2023-10-31T21:13:41.407Z,,0,,,NaN,,,,,,false,,,,608792.6999999881,608792.599999994,,608792.1999999881,,608804.892,8,400,,,
break_continue,html.Screen,4_110_2,2023-10-31T21:13:41.408Z,,0,,,NaN,,,,,,false,,,,608793,608792.8999999911,,608792.799999997,,608804.892,8,400,,,
sequence,flow.Sequence,4_110,2023-10-31T21:13:41.408Z,,0,,,5469.215999991051,completion,,,,,false,,,,608793.299999997,608792.8999999911,603306.973,603315.099999994,603323.684,608804.892,8,400,,,
trial,html.Screen,4_111_0,2023-10-31T21:13:48.645Z,,0,3,,7225.007999991067,response,ISIC_1932064.JPG,7,ISIC_6442221.JPG,ISIC_1932064.JPG,false,1,keypress(m),500,616030.099999994,616029.8999999911,608788.181,608793.3999999911,608804.892,616040.937,8,400,12,,ISIC_6442221.JPG
break,html.Screen,4_111_1,2023-10-31T21:13:48.646Z,,0,,,NaN,,,,,,false,,,,616030.799999997,616030.599999994,,616030.299999997,,616040.937,8,400,,,
break_continue,html.Screen,4_111_2,2023-10-31T21:13:48.646Z,,0,,,NaN,,,,,,false,,,,616031.099999994,616031,,616030.8999999911,,616040.937,8,400,,,
sequence,flow.Sequence,4_111,2023-10-31T21:13:48.646Z,,0,,,7226.108000000007,completion,,,,,false,,,,616031.1999999881,616031,608788.181,608793.3999999911,608804.892,616040.937,8,400,,,
trial,html.Screen,4_112_0,2023-10-31T21:13:57.195Z,,0,3,,8539.062999999966,response,ISIC_4648593.JPG,6,ISIC_0070009.JPG,ISIC_4648593.JPG,false,1,keypress(m),500,624580.1999999881,624580,616024.226,616031.3999999911,616040.937,624597.238,8,400,13,,ISIC_0070009.JPG
break,html.Screen,4_112_1,2023-10-31T21:13:57.196Z,,0,,,NaN,,,,,,false,,,,624580.8999999911,624580.6999999881,,624580.3999999911,,624597.238,8,400,,,
break_continue,html.Screen,4_112_2,2023-10-31T21:13:57.196Z,,0,,,NaN,,,,,,false,,,,624581.1999999881,624581.099999994,,624581,,624597.238,8,400,,,
sequence,flow.Sequence,4_112,2023-10-31T21:13:57.196Z,,0,,,8540.162999994005,completion,,,,,false,,,,624581.3999999911,624581.099999994,616024.226,616031.299999997,616040.937,624597.238,8,400,,,
trial,html.Screen,4_113_0,2023-10-31T21:14:00.384Z,,0,3,,3171.261999999988,response,ISIC_4897852.JPG,6,ISIC_9690263.JPG,ISIC_4897852.JPG,false,1,keypress(m),500,627768.599999994,627768.5,624580.527,624581.599999994,624597.238,627772.328,8,400,14,,ISIC_9690263.JPG
break,html.Screen,4_113_1,2023-10-31T21:14:00.385Z,,0,,,NaN,,,,,,false,,,,627769.3999999911,627769.1999999881,,627768.8999999911,,627772.328,8,400,,,
break_continue,html.Screen,4_113_2,2023-10-31T21:14:00.385Z,,0,,,NaN,,,,,,false,,,,627769.799999997,627769.599999994,,627769.5,,627772.328,8,400,,,
sequence,flow.Sequence,4_113,2023-10-31T21:14:00.385Z,,0,,,3172.3619999940274,completion,,,,,false,,,,627769.8999999911,627769.599999994,624580.527,624581.599999994,624597.238,627772.328,8,400,,,
trial,html.Screen,4_114_0,2023-10-31T21:14:04.229Z,,0,3,,3840.77199999406,response,ISIC_0013141.JPG,7,ISIC_0011114.JPG,ISIC_0013141.JPG,false,1,keypress(m),500,631613.3999999911,631613.099999994,627755.617,627770.099999994,627772.328,631615.858,8,400,15,,ISIC_0011114.JPG
break,html.Screen,4_114_1,2023-10-31T21:14:04.229Z,,0,,,NaN,,,,,,false,,,,631614,631613.799999997,,631613.599999994,,631615.858,8,400,,,
break_continue,html.Screen,4_114_2,2023-10-31T21:14:04.230Z,,0,,,NaN,,,,,,false,,,,631614.3999999911,631614.299999997,,631614.1999999881,,631615.858,8,400,,,
sequence,flow.Sequence,4_114,2023-10-31T21:14:04.230Z,,0,,,3841.9719999970403,completion,,,,,false,,,,631614.6999999881,631614.299999997,627755.617,627770,627772.328,631615.858,8,400,,,
trial,html.Screen,4_115_0,2023-10-31T21:14:07.179Z,,0,3,,2947.3419999880716,response,ISIC_5147292.JPG,8,ISIC_1440063.JPG,ISIC_5147292.JPG,false,1,keypress(m),500,634563.5,634563.1999999881,631599.147,631614.799999997,631615.858,634590.599,8,400,16,,ISIC_1440063.JPG
break,html.Screen,4_115_1,2023-10-31T21:14:07.180Z,,0,,,NaN,,,,,,false,,,,634564.099999994,634564,,634563.6999999881,,634590.599,8,400,,,
break_continue,html.Screen,4_115_2,2023-10-31T21:14:07.180Z,,0,,,NaN,,,,,,false,,,,634564.5,634564.3999999911,,634564.299999997,,634590.599,8,400,,,
sequence,flow.Sequence,4_115,2023-10-31T21:14:07.180Z,,0,,,2948.541999991052,completion,,,,,false,,,,634564.6999999881,634564.3999999911,631599.147,631614.799999997,631615.858,634590.599,8,400,,,
trial,html.Screen,4_116_0,2023-10-31T21:14:10.351Z,,0,3,,3145.200999996974,response,ISIC_0061244.JPG,8,ISIC_7233368.JPG,ISIC_0061244.JPG,false,1,keypress(m),500,637736,637735.799999997,634573.888,634564.799999997,634590.599,637748.978,8,400,17,,ISIC_7233368.JPG
break,html.Screen,4_116_1,2023-10-31T21:14:10.352Z,,0,,,NaN,,,,,,false,,,,637736.599999994,637736.5,,637736.1999999881,,637748.978,8,400,,,
break_continue,html.Screen,4_116_2,2023-10-31T21:14:10.353Z,,0,,,NaN,,,,,,false,,,,637737,637736.8999999911,,637736.799999997,,637748.978,8,400,,,
sequence,flow.Sequence,4_116,2023-10-31T21:14:10.353Z,,0,,,3146.3009999910137,completion,,,,,false,,,,637737.1999999881,637736.8999999911,634573.888,634564.799999997,634590.599,637748.978,8,400,,,
trial,html.Screen,4_117_0,2023-10-31T21:14:13.765Z,,0,3,,3400.1219999940367,response,ISIC_5238111.JPG,7,ISIC_9547089.JPG,ISIC_5238111.JPG,false,1,keypress(m),500,641149.299999997,641149.099999994,637732.267,637737.3999999911,637748.978,641158.022,8,400,18,,ISIC_9547089.JPG
break,html.Screen,4_117_1,2023-10-31T21:14:13.765Z,,0,,,NaN,,,,,,false,,,,641149.799999997,641149.599999994,,641149.3999999911,,641158.022,8,400,,,
break_continue,html.Screen,4_117_2,2023-10-31T21:14:13.766Z,,0,,,NaN,,,,,,false,,,,641150,641149.8999999911,,641149.8999999911,,641158.022,8,400,,,
sequence,flow.Sequence,4_117,2023-10-31T21:14:13.766Z,,0,,,3400.9219999910565,completion,,,,,false,,,,641150.099999994,641149.8999999911,637732.267,637737.3999999911,637748.978,641158.022,8,400,,,
trial,html.Screen,4_118_0,2023-10-31T21:14:16.569Z,,0,3,,2794.978000000003,response,ISIC_0001142.JPG,8,ISIC_0193456.JPG,ISIC_0001142.JPG,false,1,keypress(m),500,643953.299999997,643953,641141.311,641150.1999999881,641158.022,643965.47,8,400,19,,ISIC_0193456.JPG
break,html.Screen,4_118_1,2023-10-31T21:14:16.570Z,,0,,,NaN,,,,,,false,,,,643954,643953.799999997,,643953.5,,643965.47,8,400,,,
break_continue,html.Screen,4_118_2,2023-10-31T21:14:16.570Z,,0,,,NaN,,,,,,false,,,,643954.3999999911,643954.1999999881,,643954,,643965.47,8,400,,,
sequence,flow.Sequence,4_118,2023-10-31T21:14:16.570Z,,0,,,2796.177999988082,completion,,,,,false,,,,643954.599999994,643954.1999999881,641141.311,641150.1999999881,641158.022,643965.47,8,400,,,
trial,html.Screen,4_119_0,2023-10-31T21:14:20.592Z,,0,3,,4010.1299999940675,response,ISIC_6828587.JPG,7,ISIC_0068993.JPG,ISIC_6828587.JPG,false,1,keypress(m),500,647975.8999999911,647975.599999994,643948.759,643954.6999999881,643965.47,647992.998,8,400,20,,ISIC_0068993.JPG
break,html.Screen,4_119_1,2023-10-31T21:14:20.592Z,,0,,,NaN,,,,,,false,,,,647976.599999994,647976.299999997,,647976.099999994,,647992.998,8,400,,,
break_continue,html.Screen,4_119_2,2023-10-31T21:14:20.593Z,,0,,,NaN,,,,,,false,,,,647976.8999999911,647976.799999997,,647976.6999999881,,647992.998,8,400,,,
sequence,flow.Sequence,4_119,2023-10-31T21:14:20.593Z,,0,,,4011.3299999970477,completion,,,,,false,,,,647977.099999994,647976.799999997,643948.759,643954.6999999881,643965.47,647992.998,8,400,,,
trial,html.Screen,4_120_0,2023-10-31T21:14:24.297Z,,0,3,,3688.2019999880577,response,ISIC_0056201.JPG,7,ISIC_0028219.JPG,ISIC_0056201.JPG,false,1,keypress(m),500,651681.5,651681.1999999881,647976.287,647977.299999997,647992.998,651686.129,8,400,21,,ISIC_0028219.JPG
break,html.Screen,4_120_1,2023-10-31T21:14:24.298Z,,0,,,NaN,,,,,,false,,,,651682.1999999881,651682,,651681.6999999881,,651686.129,8,400,,,
break_continue,html.Screen,4_120_2,2023-10-31T21:14:24.298Z,,0,,,NaN,,,,,,false,,,,651682.5,651682.3999999911,,651682.3999999911,,651686.129,8,400,,,
sequence,flow.Sequence,4_120,2023-10-31T21:14:24.299Z,,0,,,3689.401999991038,completion,,,,,false,,,,651682.799999997,651682.3999999911,647976.287,647977.299999997,647992.998,651686.129,8,400,,,
trial,html.Screen,4_121_0,2023-10-31T21:14:27.407Z,,0,3,,3104.570999988122,response,ISIC_0010262.JPG,7,ISIC_0032187.JPG,ISIC_0032187.JPG,false,0,keypress(z),500,654790.8999999911,654790.6999999881,651669.418,651683,651686.129,654794.375,8,400,22,,ISIC_0010262.JPG
break,html.Screen,4_121_1,2023-10-31T21:14:27.408Z,,0,,,NaN,,,,,,false,,,,654791.599999994,654791.3999999911,,654791.1999999881,,654794.375,8,400,,,
break_continue,html.Screen,4_121_2,2023-10-31T21:14:27.408Z,,0,,,NaN,,,,,,false,,,,654792,654791.8999999911,,654791.799999997,,654794.375,8,400,,,
sequence,flow.Sequence,4_121,2023-10-31T21:14:27.408Z,,0,,,3105.770999991102,completion,,,,,false,,,,654792.299999997,654791.8999999911,651669.418,651683,651686.129,654794.375,8,400,,,
trial,html.Screen,4_122_0,2023-10-31T21:14:30.931Z,,0,3,,3519.9249999970198,response,ISIC_0024244.JPG,7,ISIC_0066532.JPG,ISIC_0066532.JPG,false,0,keypress(z),500,658314.5,658314.299999997,654777.664,654792.3999999911,654794.375,658320.579,8,400,23,,ISIC_0024244.JPG
break,html.Screen,4_122_1,2023-10-31T21:14:30.931Z,,0,,,NaN,,,,,,false,,,,658315.299999997,658315.099999994,,658314.799999997,,658320.579,8,400,,,
break_continue,html.Screen,4_122_2,2023-10-31T21:14:30.932Z,,0,,,NaN,,,,,,false,,,,658315.799999997,658315.6999999881,,658315.5,,658320.579,8,400,,,
sequence,flow.Sequence,4_122,2023-10-31T21:14:30.932Z,,0,,,3521.324999988079,completion,,,,,false,,,,658316.099999994,658315.6999999881,654777.664,654792.3999999911,654794.375,658320.579,8,400,,,
trial,html.Screen,4_123_0,2023-10-31T21:14:33.725Z,,0,3,,2788.120999988052,response,ISIC_9940466.JPG,7,ISIC_9109361.JPG,ISIC_9940466.JPG,false,1,keypress(m),500,661108.8999999911,661108.6999999881,658303.868,658316.1999999881,658320.579,661111.316,8,400,24,,ISIC_9109361.JPG
break,html.Screen,4_123_1,2023-10-31T21:14:33.726Z,,0,,,NaN,,,,,,false,,,,661109.6999999881,661109.5,,661109.1999999881,,661111.316,8,400,,,
break_continue,html.Screen,4_123_2,2023-10-31T21:14:33.726Z,,0,,,NaN,,,,,,false,,,,661110.099999994,661110,,661109.8999999911,,661111.316,8,400,,,
sequence,flow.Sequence,4_123,2023-10-31T21:14:33.727Z,,0,,,2789.420999999973,completion,,,,,false,,,,661110.3999999911,661110,658303.868,658316.099999994,658320.579,661111.316,8,400,,,
trial,html.Screen,4_124_0,2023-10-31T21:14:36.515Z,,0,3,,2787.283999994048,response,ISIC_0033679.JPG,9,ISIC_0066882.JPG,ISIC_0033679.JPG,false,1,keypress(m),500,663898.799999997,663898.599999994,661094.605,661110.5,661111.316,663902.053,8,400,25,,ISIC_0066882.JPG
break,html.Screen,4_124_1,2023-10-31T21:14:36.516Z,,0,,,NaN,,,,,,false,,,,663899.5,663899.299999997,,663899,,663902.053,8,400,,,
break_continue,html.Screen,4_124_2,2023-10-31T21:14:36.516Z,,0,,,NaN,,,,,,false,,,,663900,663899.799999997,,663899.6999999881,,663902.053,8,400,,,
sequence,flow.Sequence,4_124,2023-10-31T21:14:36.517Z,,0,,,2788.483999997028,completion,,,,,false,,,,663900.1999999881,663899.799999997,661094.605,661110.5,661111.316,663902.053,8,400,,,
trial,html.Screen,4_125_0,2023-10-31T21:14:39.546Z,,0,3,,3027.346999991103,response,ISIC_7004652.JPG,7,ISIC_0821520.JPG,ISIC_0821520.JPG,false,0,keypress(z),500,666929.599999994,666929.3999999911,663885.342,663900.5,663902.053,666943.633,8,400,26,,ISIC_7004652.JPG
break,html.Screen,4_125_1,2023-10-31T21:14:39.547Z,,0,,,NaN,,,,,,false,,,,666930.299999997,666930.099999994,,666929.8999999911,,666943.633,8,400,,,
break_continue,html.Screen,4_125_2,2023-10-31T21:14:39.547Z,,0,,,NaN,,,,,,false,,,,666930.6999999881,666930.599999994,,666930.3999999911,,666943.633,8,400,,,
sequence,flow.Sequence,4_125,2023-10-31T21:14:39.547Z,,0,,,3028.5469999940833,completion,,,,,false,,,,666931,666930.599999994,663885.342,663900.299999997,663902.053,666943.633,8,400,,,
