sender,sender_type,sender_id,timestamp,meta,,blockNo,condition,duration,ended_on,img_left,img_reveal,img_right,loser,practice,response,response_action,selection_duration,time_commit,time_end,time_render,time_run,time_show,time_switch,total_blocks,total_trials,trialNo,url,winner
informed_consent,html.Screen,0,2023-09-15T18:36:01.029Z,"{""labjs_version"":""20.2.4"",""labjs_build"":{""flavor"":""production"",""commit"":""f5b4a49f956347addd546a832a3327688c2c0fef""},""location"":""https://run.pavlovia.org/MurrayBennett/melanoma-2afc/?participant=64767&platform=sona"",""userAgent"":""Mozilla/5.0 (Windows NT 10.0; Win64; x64) AppleWebKit/537.36 (KHTML, like Gecko) Chrome/116.0.0.0 Safari/537.36"",""platform"":""Win32"",""language"":""en-US"",""locale"":""en-US"",""timeZone"":""America/Chicago"",""timezoneOffset"":300,""screen_width"":1536,""screen_height"":864,""scroll_width"":1536,""scroll_height"":691,""window_innerWidth"":1536,""window_innerHeight"":739,""devicePixelRatio"":1.25}",,,,4950.771000005961,response,,,,,,consent,click button,,7871.4000000059605,7868.4000000059605,2900.926,2893,2917.629,7896.915,,,,"{""participant"":""64767"",""platform"":""sona""}",
Welcome,html.Screen,1,2023-09-15T18:36:03.102Z,,,,symmetry,2045.9850000059605,response,,,,,,continue,click button,,9944.5,9942.90000000596,7880.265,7871.9000000059605,7896.915,9945.239,,,,,
trial,html.Screen,2_0_0,2023-09-15T18:36:13.831Z,,0,0,,10728.060999982119,response,ISIC_0069348.JPG,,ISIC_6997061.JPG,ISIC_0069348.JPG,true,1,keypress(m),500,20673.5,20673.29999998212,9928.529,9944.699999988079,9945.239,20686.395,1,6,1,,ISIC_6997061.JPG
sequence,flow.Sequence,2_0,2023-09-15T18:36:13.832Z,,0,,,10728.060999982119,completion,,,,,true,,,,20673.90000000596,20673.29999998212,9928.529,9944.699999988079,9945.239,20686.395,1,6,,,
trial,html.Screen,2_1_0,2023-09-15T18:36:20.626Z,,0,0,,6781.204999994039,response,ISIC_0009529.JPG,,ISIC_0057368.JPG,ISIC_0057368.JPG,true,0,keypress(z),500,27467.90000000596,27467.59999999404,20669.566,20674.09999999404,20686.395,27480.904,1,6,2,,ISIC_0009529.JPG
sequence,flow.Sequence,2_1,2023-09-15T18:36:20.626Z,,0,,,6781.204999994039,completion,,,,,true,,,,27468.09999999404,27467.59999999404,20669.566,20674.09999999404,20686.395,27480.904,1,6,,,
trial,html.Screen,2_2_0,2023-09-15T18:36:25.227Z,,0,0,,4587.29599998808,response,ISIC_9758671.JPG,,ISIC_0064954.JPG,ISIC_9758671.JPG,true,1,keypress(m),500,32068.59999999404,32068.19999998808,27464.291,27468.29999998212,27480.904,32077.296,1,6,3,,ISIC_0064954.JPG
sequence,flow.Sequence,2_2,2023-09-15T18:36:25.227Z,,0,,,4587.29599998808,completion,,,,,true,,,,32068.90000000596,32068.19999998808,27464.291,27468.29999998212,27480.904,32077.296,1,6,,,
trial,html.Screen,2_3_0,2023-09-15T18:36:28.718Z,,0,0,,3482.303999994041,response,ISIC_0005785.JPG,,ISIC_0000080.JPG,ISIC_0005785.JPG,true,1,keypress(m),500,35559.90000000596,35559.59999999404,32066.001,32069.09999999404,32077.296,35574.127,1,6,4,,ISIC_0000080.JPG
sequence,flow.Sequence,2_3,2023-09-15T18:36:28.718Z,,0,,,3482.303999994041,completion,,,,,true,,,,35560.40000000596,35559.59999999404,32066.001,32069,32077.296,35574.127,1,6,,,
trial,html.Screen,2_4_0,2023-09-15T18:36:31.631Z,,0,0,,2899.0729999880787,response,ISIC_5390060.JPG,,ISIC_7944028.JPG,ISIC_5390060.JPG,true,1,keypress(m),500,38473.5,38473.19999998808,35557.533,35560.5,35574.127,38488.396,1,6,5,,ISIC_7944028.JPG
sequence,flow.Sequence,2_4,2023-09-15T18:36:31.632Z,,0,,,2899.0729999880787,completion,,,,,true,,,,38473.79999998212,38473.19999998808,35557.533,35560.5,35574.127,38488.396,1,6,,,
trial,html.Screen,2_5_0,2023-09-15T18:36:34.553Z,,0,0,,2904.203999994039,response,ISIC_0010188.JPG,,ISIC_0794216.JPG,ISIC_0010188.JPG,true,1,keypress(m),500,41392.90000000596,41392.59999999404,38471.592,38474,38488.396,41402.673,1,6,6,,ISIC_0794216.JPG
sequence,flow.Sequence,2_5,2023-09-15T18:36:34.554Z,,0,,,2904.203999994039,completion,,,,,true,,,,41393.09999999404,41392.59999999404,38471.592,38474,38488.396,41402.673,1,6,,,
loop,flow.Loop,2,2023-09-15T18:36:34.554Z,,,,,31447.360999994038,completion,,,,,true,,,,41393.40000000596,41392.59999999404,9928.529,9944.59999999404,9945.239,41402.673,1,6,,,
exp_instructions,html.Screen,3,2023-09-15T18:36:39.586Z,,,,,5022.227000005958,response,,,,,,continue,keypress(Space),,46425.59999999404,46424.90000000596,41386.132,41393.5,41402.673,46431.892,,,,,
trial,html.Screen,4_0_0,2023-09-15T18:36:47.754Z,,0,1,,8161.20799999404,response,ISIC_0000213.JPG,7,ISIC_0013898.JPG,ISIC_0000213.JPG,false,1,keypress(m),500,54593.40000000596,54593.09999999404,46420.535,46425.90000000596,46431.892,54608.725,8,400,1,,ISIC_0013898.JPG
break,html.Screen,4_0_1,2023-09-15T18:36:47.755Z,,0,,,NaN,,,,,,false,,,,54595,54594.5,,54593.69999998808,,54608.725,8,400,,,
break_continue,html.Screen,4_0_2,2023-09-15T18:36:47.756Z,,0,,,NaN,,,,,,false,,,,54595.69999998808,54595.5,,54595.29999998212,,54608.725,8,400,,,
sequence,flow.Sequence,4_0,2023-09-15T18:36:47.757Z,,0,,,8163.608,completion,,,,,false,,,,54596.09999999404,54595.5,46420.535,46425.79999998212,46431.892,54608.725,8,400,,,
trial,html.Screen,4_1_0,2023-09-15T18:36:51.203Z,,0,1,,3433.57499998212,response,ISIC_0773096.JPG,6,ISIC_0067667.JPG,ISIC_0067667.JPG,false,0,keypress(z),500,58042.59999999404,58042.29999998212,54592.323,54596.29999998212,54608.725,58055.884,8,400,2,,ISIC_0773096.JPG
break,html.Screen,4_1_1,2023-09-15T18:36:51.204Z,,0,,,NaN,,,,,,false,,,,58043.90000000596,58043.5,,58043,,58055.884,8,400,,,
break_continue,html.Screen,4_1_2,2023-09-15T18:36:51.205Z,,0,,,NaN,,,,,,false,,,,58044.5,58044.29999998212,,58044.09999999404,,58055.884,8,400,,,
sequence,flow.Sequence,4_1,2023-09-15T18:36:51.205Z,,0,,,3435.57499998212,completion,,,,,false,,,,58044.79999998212,58044.29999998212,54592.323,54596.19999998808,54608.725,58055.884,8,400,,,
trial,html.Screen,4_2_0,2023-09-15T18:36:55.819Z,,0,1,,4602.715999994041,response,ISIC_0061183.JPG,4,ISIC_1988058.JPG,ISIC_0061183.JPG,false,1,keypress(m),500,62658.90000000596,62658.59999999404,58039.902,58045,58055.884,62668.624,8,400,3,,ISIC_1988058.JPG
break,html.Screen,4_2_1,2023-09-15T18:36:55.821Z,,0,,,NaN,,,,,,false,,,,62660.19999998808,62659.79999998212,,62659.19999998808,,62668.624,8,400,,,
break_continue,html.Screen,4_2_2,2023-09-15T18:36:55.821Z,,0,,,NaN,,,,,,false,,,,62660.79999998212,62660.59999999404,,62660.29999998212,,62668.624,8,400,,,
sequence,flow.Sequence,4_2,2023-09-15T18:36:55.822Z,,0,,,4604.715999994041,completion,,,,,false,,,,62661,62660.59999999404,58039.902,58045,58055.884,62668.624,8,400,,,
trial,html.Screen,4_3_0,2023-09-15T18:36:59.154Z,,0,1,,3324.276000005957,response,ISIC_8363485.JPG,11,ISIC_2916677.JPG,ISIC_2916677.JPG,false,0,keypress(z),500,65993.19999998808,65992.90000000596,62652.726,62661.29999998212,62668.624,65999.218,8,400,4,,ISIC_8363485.JPG
break,html.Screen,4_3_1,2023-09-15T18:36:59.155Z,,0,,,NaN,,,,,,false,,,,65994.5,65994.09999999404,,65993.59999999404,,65999.218,8,400,,,
break_continue,html.Screen,4_3_2,2023-09-15T18:36:59.156Z,,0,,,NaN,,,,,,false,,,,65995,65994.90000000596,,65994.69999998808,,65999.218,8,400,,,
sequence,flow.Sequence,4_3,2023-09-15T18:36:59.156Z,,0,,,3326.276000005957,completion,,,,,false,,,,65995.29999998212,65994.90000000596,62652.726,62661.29999998212,62668.624,65999.218,8,400,,,
trial,html.Screen,4_4_0,2023-09-15T18:37:02.383Z,,0,1,,3223.182000005967,response,ISIC_3901421.JPG,5,ISIC_8995044.JPG,ISIC_8995044.JPG,false,0,keypress(z),500,69222.69999998808,69222.40000000596,65980.609,65995.59999999404,65999.218,69229.801,8,400,5,,ISIC_3901421.JPG
break,html.Screen,4_4_1,2023-09-15T18:37:02.385Z,,0,,,NaN,,,,,,false,,,,69224,69223.69999998808,,69223.09999999404,,69229.801,8,400,,,
break_continue,html.Screen,4_4_2,2023-09-15T18:37:02.385Z,,0,,,NaN,,,,,,false,,,,69224.59999999404,69224.5,,69224.09999999404,,69229.801,8,400,,,
sequence,flow.Sequence,4_4,2023-09-15T18:37:02.385Z,,0,,,3225.2820000000065,completion,,,,,false,,,,69225,69224.5,65980.609,65995.5,65999.218,69229.801,8,400,,,
trial,html.Screen,4_5_0,2023-09-15T18:37:05.369Z,,0,1,,2978.8989999880723,response,ISIC_0024423.JPG,5,ISIC_7407847.JPG,ISIC_0024423.JPG,false,1,keypress(m),500,72208.90000000596,72208.69999998808,69213.506,69225.09999999404,69229.801,72232.486,8,400,6,,ISIC_7407847.JPG
break,html.Screen,4_5_1,2023-09-15T18:37:05.371Z,,0,,,NaN,,,,,,false,,,,72210.29999998212,72210,,72209.5,,72232.486,8,400,,,
break_continue,html.Screen,4_5_2,2023-09-15T18:37:05.372Z,,0,,,NaN,,,,,,false,,,,72211,72210.79999998212,,72210.5,,72232.486,8,400,,,
sequence,flow.Sequence,4_5,2023-09-15T18:37:05.372Z,,0,,,2980.998999982112,completion,,,,,false,,,,72211.19999998808,72210.79999998212,69213.506,69225.09999999404,69229.801,72232.486,8,400,,,
trial,html.Screen,4_6_0,2023-09-15T18:37:08.231Z,,0,1,,2837.313999982114,response,ISIC_4408559.JPG,8,ISIC_0060403.JPG,ISIC_4408559.JPG,false,1,keypress(m),500,75070.09999999404,75069.79999998212,72194.316,72211.5,72232.486,75075.054,8,400,7,,ISIC_0060403.JPG
break,html.Screen,4_6_1,2023-09-15T18:37:08.232Z,,0,,,NaN,,,,,,false,,,,75071.29999998212,75070.90000000596,,75070.40000000596,,75075.054,8,400,,,
break_continue,html.Screen,4_6_2,2023-09-15T18:37:08.232Z,,0,,,NaN,,,,,,false,,,,75071.90000000596,75071.69999998808,,75071.5,,75075.054,8,400,,,
sequence,flow.Sequence,4_6,2023-09-15T18:37:08.233Z,,0,,,2839.2139999880746,completion,,,,,false,,,,75072.19999998808,75071.69999998808,72194.316,72211.5,72232.486,75075.054,8,400,,,
trial,html.Screen,4_7_0,2023-09-15T18:37:11.627Z,,0,1,,3391.4459999999963,response,ISIC_0032033.JPG,10,ISIC_6566042.JPG,ISIC_6566042.JPG,false,0,keypress(z),500,78466.69999998808,78466.5,75058.873,75072.40000000596,75075.054,78472.196,8,400,8,,ISIC_0032033.JPG
break,html.Screen,4_7_1,2023-09-15T18:37:11.628Z,,0,,,NaN,,,,,,false,,,,78467.5,78467.29999998212,,78466.90000000596,,78472.196,8,400,,,
break_continue,html.Screen,4_7_2,2023-09-15T18:37:11.628Z,,0,,,NaN,,,,,,false,,,,78467.69999998808,78467.69999998808,,78467.59999999404,,78472.196,8,400,,,
sequence,flow.Sequence,4_7,2023-09-15T18:37:11.628Z,,0,,,3392.6459999880753,completion,,,,,false,,,,78467.79999998212,78467.69999998808,75058.873,75072.40000000596,75075.054,78472.196,8,400,,,
trial,html.Screen,4_8_0,2023-09-15T18:37:14.718Z,,0,1,,3085.003999988083,response,ISIC_0028239.JPG,6,ISIC_0014061.JPG,ISIC_0014061.JPG,false,0,keypress(z),500,81557.5,81557.19999998808,78460.796,78467.79999998212,78472.196,81570.019,8,400,9,,ISIC_0028239.JPG
break,html.Screen,4_8_1,2023-09-15T18:37:14.719Z,,0,,,NaN,,,,,,false,,,,81558.79999998212,81558.29999998212,,81557.79999998212,,81570.019,8,400,,,
break_continue,html.Screen,4_8_2,2023-09-15T18:37:14.720Z,,0,,,NaN,,,,,,false,,,,81559.40000000596,81559.19999998808,,81559,,81570.019,8,400,,,
sequence,flow.Sequence,4_8,2023-09-15T18:37:14.720Z,,0,,,3087.003999988083,completion,,,,,false,,,,81559.59999999404,81559.19999998808,78460.796,78467.79999998212,78472.196,81570.019,8,400,,,
trial,html.Screen,4_9_0,2023-09-15T18:37:18.072Z,,0,1,,3341.3810000059602,response,ISIC_0568867.JPG,5,ISIC_4296456.JPG,ISIC_4296456.JPG,false,0,keypress(z),500,84911.79999998212,84911.40000000596,81553.446,81559.90000000596,81570.019,84917.016,8,400,10,,ISIC_0568867.JPG
break,html.Screen,4_9_1,2023-09-15T18:37:18.074Z,,0,,,NaN,,,,,,false,,,,84913,84912.69999998808,,84912.09999999404,,84917.016,8,400,,,
break_continue,html.Screen,4_9_2,2023-09-15T18:37:18.074Z,,0,,,NaN,,,,,,false,,,,84913.59999999404,84913.5,,84913.19999998808,,84917.016,8,400,,,
sequence,flow.Sequence,4_9,2023-09-15T18:37:18.074Z,,0,,,3343.4809999999998,completion,,,,,false,,,,84913.90000000596,84913.5,81553.446,81559.79999998212,81570.019,84917.016,8,400,,,
trial,html.Screen,4_10_0,2023-09-15T18:37:20.949Z,,0,1,,2871.2839999821153,response,ISIC_0014255.JPG,10,ISIC_3560519.JPG,ISIC_0014255.JPG,false,1,keypress(m),500,87788.79999998212,87788.29999998212,84900.485,84914.09999999404,84917.016,87798.179,8,400,11,,ISIC_3560519.JPG
break,html.Screen,4_10_1,2023-09-15T18:37:20.951Z,,0,,,NaN,,,,,,false,,,,87790.5,87790.09999999404,,87789.29999998212,,87798.179,8,400,,,
break_continue,html.Screen,4_10_2,2023-09-15T18:37:20.952Z,,0,,,NaN,,,,,,false,,,,87791.19999998808,87791,,87790.69999998808,,87798.179,8,400,,,
sequence,flow.Sequence,4_10,2023-09-15T18:37:20.952Z,,0,,,2873.9839999999967,completion,,,,,false,,,,87791.40000000596,87791,84900.485,84914,84917.016,87798.179,8,400,,,
trial,html.Screen,4_11_0,2023-09-15T18:37:26.769Z,,0,1,,5810.320999999996,response,ISIC_0010266.JPG,14,ISIC_0010024.JPG,ISIC_0010024.JPG,false,0,keypress(z),500,93608.79999998212,93608.5,87781.727,87791.69999998808,87798.179,93626.783,8,400,12,,ISIC_0010266.JPG
break,html.Screen,4_11_1,2023-09-15T18:37:26.771Z,,0,,,NaN,,,,,,false,,,,93610,93609.69999998808,,93609.19999998808,,93626.783,8,400,,,
break_continue,html.Screen,4_11_2,2023-09-15T18:37:26.771Z,,0,,,NaN,,,,,,false,,,,93610.69999998808,93610.5,,93610.19999998808,,93626.783,8,400,,,
sequence,flow.Sequence,4_11,2023-09-15T18:37:26.771Z,,0,,,5812.320999999996,completion,,,,,false,,,,93610.90000000596,93610.5,87781.727,87791.59999999404,87798.179,93626.783,8,400,,,
trial,html.Screen,4_12_0,2023-09-15T18:37:29.516Z,,0,1,,2728.016999982123,response,ISIC_0033175.JPG,7,ISIC_3430953.JPG,ISIC_3430953.JPG,false,0,keypress(z),500,96355.09999999404,96354.79999998212,93598.409,93611.09999999404,93626.783,96357.606,8,400,13,,ISIC_0033175.JPG
break,html.Screen,4_12_1,2023-09-15T18:37:29.517Z,,0,,,NaN,,,,,,false,,,,96356.19999998808,96356,,96355.40000000596,,96357.606,8,400,,,
break_continue,html.Screen,4_12_2,2023-09-15T18:37:29.517Z,,0,,,NaN,,,,,,false,,,,96356.90000000596,96356.59999999404,,96356.40000000596,,96357.606,8,400,,,
sequence,flow.Sequence,4_12,2023-09-15T18:37:29.518Z,,0,,,2729.8169999940437,completion,,,,,false,,,,96357.09999999404,96356.59999999404,93598.409,93611.09999999404,93626.783,96357.606,8,400,,,
trial,html.Screen,4_13_0,2023-09-15T18:37:32.342Z,,0,1,,2823.5939999880793,response,ISIC_5065245.JPG,5,ISIC_0069189.JPG,ISIC_0069189.JPG,false,0,keypress(z),500,99181.59999999404,99181.19999998808,96340.926,96357.40000000596,96357.606,99188.598,8,400,14,,ISIC_5065245.JPG
break,html.Screen,4_13_1,2023-09-15T18:37:32.343Z,,0,,,NaN,,,,,,false,,,,99182.69999998808,99182.40000000596,,99181.79999998212,,99188.598,8,400,,,
break_continue,html.Screen,4_13_2,2023-09-15T18:37:32.344Z,,0,,,NaN,,,,,,false,,,,99183.40000000596,99183.19999998808,,99182.90000000596,,99188.598,8,400,,,
sequence,flow.Sequence,4_13,2023-09-15T18:37:32.344Z,,0,,,2825.5939999880793,completion,,,,,false,,,,99183.59999999404,99183.19999998808,96340.926,96357.40000000596,96357.606,99188.598,8,400,,,
trial,html.Screen,4_14_0,2023-09-15T18:37:35.330Z,,0,1,,2980.3020000059623,response,ISIC_0071133.JPG,8,ISIC_0027277.JPG,ISIC_0071133.JPG,false,1,keypress(m),500,102169.19999998808,102168.90000000596,99172.12,99183.90000000596,99188.598,102186.28,8,400,15,,ISIC_0027277.JPG
break,html.Screen,4_14_1,2023-09-15T18:37:35.331Z,,0,,,NaN,,,,,,false,,,,102170.40000000596,102170.09999999404,,102169.59999999404,,102186.28,8,400,,,
break_continue,html.Screen,4_14_2,2023-09-15T18:37:35.331Z,,0,,,NaN,,,,,,false,,,,102171.09999999404,102170.79999998212,,102170.59999999404,,102186.28,8,400,,,
sequence,flow.Sequence,4_14,2023-09-15T18:37:35.332Z,,0,,,2982.2019999821205,completion,,,,,false,,,,102171.29999998212,102170.79999998212,99172.12,99183.69999998808,99188.598,102186.28,8,400,,,
trial,html.Screen,4_15_0,2023-09-15T18:37:39.088Z,,0,1,,3741.1200000059616,response,ISIC_3541663.JPG,11,ISIC_0879097.JPG,ISIC_3541663.JPG,false,1,keypress(m),500,105927.79999998212,105927.40000000596,102167.531,102171.5,102186.28,105933.066,8,400,16,,ISIC_0879097.JPG
break,html.Screen,4_15_1,2023-09-15T18:37:39.089Z,,0,,,NaN,,,,,,false,,,,105929,105928.59999999404,,105928.09999999404,,105933.066,8,400,,,
break_continue,html.Screen,4_15_2,2023-09-15T18:37:39.090Z,,0,,,NaN,,,,,,false,,,,105929.59999999404,105929.40000000596,,105929.09999999404,,105933.066,8,400,,,
sequence,flow.Sequence,4_15,2023-09-15T18:37:39.090Z,,0,,,3743.1200000059616,completion,,,,,false,,,,105929.79999998212,105929.40000000596,102167.531,102171.40000000596,102186.28,105933.066,8,400,,,
trial,html.Screen,4_16_0,2023-09-15T18:37:41.781Z,,0,1,,2687.3340000059543,response,ISIC_0013908.JPG,9,ISIC_0000421.JPG,ISIC_0013908.JPG,false,1,keypress(m),500,108620.79999998212,108620.40000000596,105916.709,105930.09999999404,105933.066,108630.907,8,400,17,,ISIC_0000421.JPG
break,html.Screen,4_16_1,2023-09-15T18:37:41.782Z,,0,,,NaN,,,,,,false,,,,108621.90000000596,108621.59999999404,,108621,,108630.907,8,400,,,
break_continue,html.Screen,4_16_2,2023-09-15T18:37:41.783Z,,0,,,NaN,,,,,,false,,,,108622.5,108622.29999998212,,108622.09999999404,,108630.907,8,400,,,
sequence,flow.Sequence,4_16,2023-09-15T18:37:41.783Z,,0,,,2689.2339999821124,completion,,,,,false,,,,108622.69999998808,108622.29999998212,105916.709,105930,105933.066,108630.907,8,400,,,
trial,html.Screen,4_17_0,2023-09-15T18:37:45.431Z,,0,1,,3639.7929999880726,response,ISIC_0070948.JPG,6,ISIC_0031422.JPG,ISIC_0031422.JPG,false,0,keypress(z),500,112271,112270.69999998808,108614.631,108623,108630.907,112277.853,8,400,18,,ISIC_0070948.JPG
break,html.Screen,4_17_1,2023-09-15T18:37:45.433Z,,0,,,NaN,,,,,,false,,,,112272.29999998212,112271.90000000596,,112271.40000000596,,112277.853,8,400,,,
break_continue,html.Screen,4_17_2,2023-09-15T18:37:45.433Z,,0,,,NaN,,,,,,false,,,,112272.90000000596,112272.69999998808,,112272.5,,112277.853,8,400,,,
sequence,flow.Sequence,4_17,2023-09-15T18:37:45.434Z,,0,,,3641.7929999880726,completion,,,,,false,,,,112273.19999998808,112272.69999998808,108614.631,108622.90000000596,108630.907,112277.853,8,400,,,
trial,html.Screen,4_18_0,2023-09-15T18:37:48.589Z,,0,1,,3150.2469999940367,response,ISIC_1514401.JPG,7,ISIC_0011198.JPG,ISIC_1514401.JPG,false,1,keypress(m),500,115428.40000000596,115428.09999999404,112261.558,112273.40000000596,112277.853,115441.92,8,400,19,,ISIC_0011198.JPG
break,html.Screen,4_18_1,2023-09-15T18:37:48.590Z,,0,,,NaN,,,,,,false,,,,115429.59999999404,115429.29999998212,,115428.79999998212,,115441.92,8,400,,,
break_continue,html.Screen,4_18_2,2023-09-15T18:37:48.591Z,,0,,,NaN,,,,,,false,,,,115430.09999999404,115430,,115429.69999998808,,115441.92,8,400,,,
sequence,flow.Sequence,4_18,2023-09-15T18:37:48.591Z,,0,,,3152.146999999997,completion,,,,,false,,,,115430.40000000596,115430,112261.558,112273.29999998212,112277.853,115441.92,8,400,,,
trial,html.Screen,4_19_0,2023-09-15T18:37:51.927Z,,0,1,,3324.480000005962,response,ISIC_7928137.JPG,12,ISIC_8796769.JPG,ISIC_7928137.JPG,false,1,keypress(m),500,118766.79999998212,118766.40000000596,115423.29,115430.59999999404,115441.92,118772.514,8,400,20,,ISIC_8796769.JPG
break,html.Screen,4_19_1,2023-09-15T18:37:51.929Z,,0,,,NaN,,,,,,false,,,,118768.19999998808,118767.79999998212,,118767.19999998808,,118772.514,8,400,,,
break_continue,html.Screen,4_19_2,2023-09-15T18:37:51.929Z,,0,,,NaN,,,,,,false,,,,118768.69999998808,118768.5,,118768.40000000596,,118772.514,8,400,,,
sequence,flow.Sequence,4_19,2023-09-15T18:37:51.929Z,,0,,,3326.5800000000017,completion,,,,,false,,,,118769,118768.5,115423.29,115430.59999999404,115441.92,118772.514,8,400,,,
trial,html.Screen,4_20_0,2023-09-15T18:37:54.883Z,,0,1,,2949.9860000000044,response,ISIC_0034217.JPG,7,ISIC_8357679.JPG,ISIC_8357679.JPG,false,0,keypress(z),500,121722.79999998212,121722.5,118756.157,118769.29999998212,118772.514,121736.888,8,400,21,,ISIC_0034217.JPG
break,html.Screen,4_20_1,2023-09-15T18:37:54.884Z,,0,,,NaN,,,,,,false,,,,121724,121723.69999998808,,121723.09999999404,,121736.888,8,400,,,
break_continue,html.Screen,4_20_2,2023-09-15T18:37:54.885Z,,0,,,NaN,,,,,,false,,,,121724.59999999404,121724.40000000596,,121724.19999998808,,121736.888,8,400,,,
sequence,flow.Sequence,4_20,2023-09-15T18:37:54.885Z,,0,,,2951.886000005965,completion,,,,,false,,,,121724.90000000596,121724.40000000596,118756.157,118769.19999998808,118772.514,121736.888,8,400,,,
trial,html.Screen,4_21_0,2023-09-15T18:37:57.997Z,,0,1,,3099.012000005954,response,ISIC_5490257.JPG,4,ISIC_0031368.JPG,ISIC_0031368.JPG,false,0,keypress(z),500,124836.29999998212,124835.90000000596,121720.851,121725.09999999404,121736.888,124851.112,8,400,22,,ISIC_5490257.JPG
break,html.Screen,4_21_1,2023-09-15T18:37:57.998Z,,0,,,NaN,,,,,,false,,,,124837.59999999404,124837.29999998212,,124836.69999998808,,124851.112,8,400,,,
break_continue,html.Screen,4_21_2,2023-09-15T18:37:57.999Z,,0,,,NaN,,,,,,false,,,,124838.19999998808,124838.09999999404,,124837.79999998212,,124851.112,8,400,,,
sequence,flow.Sequence,4_21,2023-09-15T18:37:57.999Z,,0,,,3101.2119999940332,completion,,,,,false,,,,124838.5,124838.09999999404,121720.851,121725.09999999404,121736.888,124851.112,8,400,,,
trial,html.Screen,4_22_0,2023-09-15T18:38:01.382Z,,0,1,,3370.687999982125,response,ISIC_0014171.JPG,7,ISIC_9822801.JPG,ISIC_0014171.JPG,false,1,keypress(m),500,128222.09999999404,128221.79999998212,124834.81,124838.69999998808,124851.112,128231.477,8,400,23,,ISIC_9822801.JPG
break,html.Screen,4_22_1,2023-09-15T18:38:01.384Z,,0,,,NaN,,,,,,false,,,,128223.29999998212,128222.90000000596,,128222.40000000596,,128231.477,8,400,,,
break_continue,html.Screen,4_22_2,2023-09-15T18:38:01.384Z,,0,,,NaN,,,,,,false,,,,128223.90000000596,128223.69999998808,,128223.5,,128231.477,8,400,,,
sequence,flow.Sequence,4_22,2023-09-15T18:38:01.385Z,,0,,,3372.5879999880854,completion,,,,,false,,,,128224.09999999404,128223.69999998808,124834.81,124838.59999999404,124851.112,128231.477,8,400,,,
trial,html.Screen,4_23_0,2023-09-15T18:38:05.025Z,,0,1,,3633.1229999940406,response,ISIC_8263741.JPG,12,ISIC_0032812.JPG,ISIC_0032812.JPG,false,0,keypress(z),500,131864.90000000596,131864.59999999404,128214.924,128224.40000000596,128231.477,131878.401,8,400,24,,ISIC_8263741.JPG
break,html.Screen,4_23_1,2023-09-15T18:38:05.026Z,,0,,,NaN,,,,,,false,,,,131866.09999999404,131865.69999998808,,131865.19999998808,,131878.401,8,400,,,
break_continue,html.Screen,4_23_2,2023-09-15T18:38:05.027Z,,0,,,NaN,,,,,,false,,,,131866.59999999404,131866.5,,131866.19999998808,,131878.401,8,400,,,
sequence,flow.Sequence,4_23,2023-09-15T18:38:05.027Z,,0,,,3635.023000000001,completion,,,,,false,,,,131866.90000000596,131866.5,128214.924,128224.29999998212,128231.477,131878.401,8,400,,,
trial,html.Screen,4_24_0,2023-09-15T18:38:07.835Z,,0,1,,2795.499000005948,response,ISIC_0015132.JPG,6,ISIC_0014211.JPG,ISIC_0015132.JPG,false,1,keypress(m),500,134674.29999998212,134673.90000000596,131861.729,131867.09999999404,131878.401,134698.565,8,400,25,,ISIC_0014211.JPG
break,html.Screen,4_24_1,2023-09-15T18:38:07.836Z,,0,,,NaN,,,,,,false,,,,134675.5,134675.19999998808,,134674.69999998808,,134698.565,8,400,,,
break_continue,html.Screen,4_24_2,2023-09-15T18:38:07.837Z,,0,,,NaN,,,,,,false,,,,134676.19999998808,134676,,134675.69999998808,,134698.565,8,400,,,
sequence,flow.Sequence,4_24,2023-09-15T18:38:07.837Z,,0,,,2797.5989999999874,completion,,,,,false,,,,134676.40000000596,134676,131861.729,131867,131878.401,134698.565,8,400,,,
trial,html.Screen,4_25_0,2023-09-15T18:38:10.794Z,,0,1,,2934.6349999880767,response,ISIC_1476361.JPG,9,ISIC_9694911.JPG,ISIC_9694911.JPG,false,0,keypress(z),500,137633.5,137633.19999998808,134659.542,134676.59999999404,134698.565,137640.346,8,400,26,,ISIC_1476361.JPG
break,html.Screen,4_25_1,2023-09-15T18:38:10.795Z,,0,,,NaN,,,,,,false,,,,137634.5,137634.19999998808,,137633.69999998808,,137640.346,8,400,,,
break_continue,html.Screen,4_25_2,2023-09-15T18:38:10.795Z,,0,,,NaN,,,,,,false,,,,137634.90000000596,137634.79999998212,,137634.59999999404,,137640.346,8,400,,,
sequence,flow.Sequence,4_25,2023-09-15T18:38:10.796Z,,0,,,2936.2349999821163,completion,,,,,false,,,,137635.09999999404,137634.79999998212,134659.542,134676.59999999404,134698.565,137640.346,8,400,,,
trial,html.Screen,4_26_0,2023-09-15T18:38:13.701Z,,0,1,,2900.05400000597,response,ISIC_7711947.JPG,10,ISIC_2805634.JPG,ISIC_2805634.JPG,false,0,keypress(z),500,140540.79999998212,140540.40000000596,137623.972,137635.29999998212,137640.346,140555.005,8,400,27,,ISIC_7711947.JPG
break,html.Screen,4_26_1,2023-09-15T18:38:13.702Z,,0,,,NaN,,,,,,false,,,,140541.90000000596,140541.59999999404,,140541.09999999404,,140555.005,8,400,,,
break_continue,html.Screen,4_26_2,2023-09-15T18:38:13.703Z,,0,,,NaN,,,,,,false,,,,140542.59999999404,140542.40000000596,,140542.09999999404,,140555.005,8,400,,,
sequence,flow.Sequence,4_26,2023-09-15T18:38:13.703Z,,0,,,2902.05400000597,completion,,,,,false,,,,140542.79999998212,140542.40000000596,137623.972,137635.29999998212,137640.346,140555.005,8,400,,,
trial,html.Screen,4_27_0,2023-09-15T18:38:16.419Z,,0,1,,2703.6949999880744,response,ISIC_0000168.JPG,6,ISIC_7047780.JPG,ISIC_0000168.JPG,false,1,keypress(m),500,143259.09999999404,143258.69999998808,140526.061,140543,140555.005,143269.174,8,400,28,,ISIC_7047780.JPG
break,html.Screen,4_27_1,2023-09-15T18:38:16.421Z,,0,,,NaN,,,,,,false,,,,143260.29999998212,143259.90000000596,,143259.40000000596,,143269.174,8,400,,,
break_continue,html.Screen,4_27_2,2023-09-15T18:38:16.421Z,,0,,,NaN,,,,,,false,,,,143260.90000000596,143260.79999998212,,143260.5,,143269.174,8,400,,,
sequence,flow.Sequence,4_27,2023-09-15T18:38:16.422Z,,0,,,2705.794999982114,completion,,,,,false,,,,143261.29999998212,143260.79999998212,140526.061,140542.90000000596,140555.005,143269.174,8,400,,,
trial,html.Screen,4_28_0,2023-09-15T18:38:20.066Z,,0,1,,3636.2260000059614,response,ISIC_0071826.JPG,10,ISIC_1601784.JPG,ISIC_0071826.JPG,false,1,keypress(m),500,146905.79999998212,146905.40000000596,143252.668,143261.40000000596,143269.174,146916.266,8,400,29,,ISIC_1601784.JPG
break,html.Screen,4_28_1,2023-09-15T18:38:20.067Z,,0,,,NaN,,,,,,false,,,,146907,146906.69999998808,,146906.09999999404,,146916.266,8,400,,,
break_continue,html.Screen,4_28_2,2023-09-15T18:38:20.068Z,,0,,,NaN,,,,,,false,,,,146907.59999999404,146907.40000000596,,146907.09999999404,,146916.266,8,400,,,
sequence,flow.Sequence,4_28,2023-09-15T18:38:20.068Z,,0,,,3638.2260000059614,completion,,,,,false,,,,146907.90000000596,146907.40000000596,143252.668,143261.40000000596,143269.174,146916.266,8,400,,,
trial,html.Screen,4_29_0,2023-09-15T18:38:23.321Z,,0,1,,3243.933999988076,response,ISIC_5610222.JPG,7,ISIC_7870290.JPG,ISIC_5610222.JPG,false,1,keypress(m),500,150160.5,150160.19999998808,146899.304,146908,146916.266,150163.343,8,400,30,,ISIC_7870290.JPG
break,html.Screen,4_29_1,2023-09-15T18:38:23.322Z,,0,,,NaN,,,,,,false,,,,150161.69999998808,150161.40000000596,,150160.79999998212,,150163.343,8,400,,,
break_continue,html.Screen,4_29_2,2023-09-15T18:38:23.323Z,,0,,,NaN,,,,,,false,,,,150162.40000000596,150162.19999998808,,150162,,150163.343,8,400,,,
sequence,flow.Sequence,4_29,2023-09-15T18:38:23.323Z,,0,,,3245.933999988076,completion,,,,,false,,,,150162.69999998808,150162.19999998808,146899.304,146908,146916.266,150163.343,8,400,,,
trial,html.Screen,4_30_0,2023-09-15T18:38:28.068Z,,0,1,,4743.856999988086,response,ISIC_0024294.JPG,10,ISIC_0059707.JPG,ISIC_0059707.JPG,false,0,keypress(z),500,154907.5,154907.19999998808,150147.113,150162.90000000596,150163.343,154931.471,8,400,31,,ISIC_0024294.JPG
break,html.Screen,4_30_1,2023-09-15T18:38:28.069Z,,0,,,NaN,,,,,,false,,,,154908.79999998212,154908.40000000596,,154907.79999998212,,154931.471,8,400,,,
break_continue,html.Screen,4_30_2,2023-09-15T18:38:28.070Z,,0,,,NaN,,,,,,false,,,,154909.29999998212,154909.19999998808,,154909,,154931.471,8,400,,,
sequence,flow.Sequence,4_30,2023-09-15T18:38:28.070Z,,0,,,4745.856999988086,completion,,,,,false,,,,154909.69999998808,154909.19999998808,150147.113,150162.79999998212,150163.343,154931.471,8,400,,,
trial,html.Screen,4_31_0,2023-09-15T18:38:30.850Z,,0,1,,2757.92900000597,response,ISIC_6590303.JPG,10,ISIC_4393704.JPG,ISIC_4393704.JPG,false,0,keypress(z),500,157689.69999998808,157689.40000000596,154897.469,154909.90000000596,154931.471,157707.438,8,400,32,,ISIC_6590303.JPG
break,html.Screen,4_31_1,2023-09-15T18:38:30.851Z,,0,,,NaN,,,,,,false,,,,157690.90000000596,157690.59999999404,,157690.09999999404,,157707.438,8,400,,,
break_continue,html.Screen,4_31_2,2023-09-15T18:38:30.852Z,,0,,,NaN,,,,,,false,,,,157691.59999999404,157691.40000000596,,157691.19999998808,,157707.438,8,400,,,
sequence,flow.Sequence,4_31,2023-09-15T18:38:30.852Z,,0,,,2759.92900000597,completion,,,,,false,,,,157691.90000000596,157691.40000000596,154897.469,154909.79999998212,154931.471,157707.438,8,400,,,
trial,html.Screen,4_32_0,2023-09-15T18:38:33.578Z,,0,1,,2709.5620000000054,response,ISIC_8959410.JPG,6,ISIC_4734950.JPG,ISIC_8959410.JPG,false,1,keypress(m),500,160417.40000000596,160417,157690.642,157692.09999999404,157707.438,160421.61,8,400,33,,ISIC_4734950.JPG
break,html.Screen,4_32_1,2023-09-15T18:38:33.579Z,,0,,,NaN,,,,,,false,,,,160418.59999999404,160418.29999998212,,160417.69999998808,,160421.61,8,400,,,
break_continue,html.Screen,4_32_2,2023-09-15T18:38:33.580Z,,0,,,NaN,,,,,,false,,,,160419.29999998212,160419.19999998808,,160418.90000000596,,160421.61,8,400,,,
sequence,flow.Sequence,4_32,2023-09-15T18:38:33.580Z,,0,,,2711.7619999880844,completion,,,,,false,,,,160419.59999999404,160419.19999998808,157690.642,157691.90000000596,157707.438,160421.61,8,400,,,
trial,html.Screen,4_33_0,2023-09-15T18:38:36.613Z,,0,1,,3030.6899999821326,response,ISIC_0029163.JPG,8,ISIC_0066674.JPG,ISIC_0066674.JPG,false,0,keypress(z),500,163452.59999999404,163452.29999998212,160404.963,160419.79999998212,160421.61,163469.076,8,400,34,,ISIC_0029163.JPG
break,html.Screen,4_33_1,2023-09-15T18:38:36.614Z,,0,,,NaN,,,,,,false,,,,163453.79999998212,163453.5,,163452.90000000596,,163469.076,8,400,,,
break_continue,html.Screen,4_33_2,2023-09-15T18:38:36.615Z,,0,,,NaN,,,,,,false,,,,163454.40000000596,163454.29999998212,,163454,,163469.076,8,400,,,
sequence,flow.Sequence,4_33,2023-09-15T18:38:36.615Z,,0,,,3032.6899999821326,completion,,,,,false,,,,163454.69999998808,163454.29999998212,160404.963,160419.79999998212,160421.61,163469.076,8,400,,,
trial,html.Screen,4_34_0,2023-09-15T18:38:39.524Z,,0,1,,2893.7239999821177,response,ISIC_7218890.JPG,13,ISIC_0061751.JPG,ISIC_0061751.JPG,false,0,keypress(z),500,166363.19999998808,166362.79999998212,163452.823,163455,163469.076,166366.755,8,400,35,,ISIC_7218890.JPG
break,html.Screen,4_34_1,2023-09-15T18:38:39.525Z,,0,,,NaN,,,,,,false,,,,166364.5,166364.09999999404,,166363.5,,166366.755,8,400,,,
break_continue,html.Screen,4_34_2,2023-09-15T18:38:39.525Z,,0,,,NaN,,,,,,false,,,,166365,166364.79999998212,,166364.59999999404,,166366.755,8,400,,,
sequence,flow.Sequence,4_34,2023-09-15T18:38:39.526Z,,0,,,2895.7239999821177,completion,,,,,false,,,,166365.40000000596,166364.79999998212,163452.823,163454.90000000596,163469.076,166366.755,8,400,,,
trial,html.Screen,4_35_0,2023-09-15T18:38:42.093Z,,0,1,,2565.344999994035,response,ISIC_0066109.JPG,8,ISIC_7131973.JPG,ISIC_7131973.JPG,false,0,keypress(z),500,168932.5,168932.09999999404,166354.611,166365.59999999404,166366.755,168948.122,8,400,36,,ISIC_0066109.JPG
break,html.Screen,4_35_1,2023-09-15T18:38:42.094Z,,0,,,NaN,,,,,,false,,,,168933.79999998212,168933.5,,168932.90000000596,,168948.122,8,400,,,
break_continue,html.Screen,4_35_2,2023-09-15T18:38:42.095Z,,0,,,NaN,,,,,,false,,,,168934.5,168934.19999998808,,168934,,168948.122,8,400,,,
sequence,flow.Sequence,4_35,2023-09-15T18:38:42.095Z,,0,,,2567.4449999880744,completion,,,,,false,,,,168934.79999998212,168934.19999998808,166354.611,166365.5,166366.755,168948.122,8,400,,,
trial,html.Screen,4_36_0,2023-09-15T18:38:44.902Z,,0,1,,2793.377999999997,response,ISIC_4226975.JPG,7,ISIC_0031422.JPG,ISIC_0031422.JPG,false,0,keypress(z),500,171741.79999998212,171741.5,168931.525,168935,168948.122,171745.662,8,400,37,,ISIC_4226975.JPG
break,html.Screen,4_36_1,2023-09-15T18:38:44.903Z,,0,,,NaN,,,,,,false,,,,171742.90000000596,171742.69999998808,,171742.09999999404,,171745.662,8,400,,,
break_continue,html.Screen,4_36_2,2023-09-15T18:38:44.904Z,,0,,,NaN,,,,,,false,,,,171743.59999999404,171743.40000000596,,171743.19999998808,,171745.662,8,400,,,
sequence,flow.Sequence,4_36,2023-09-15T18:38:44.904Z,,0,,,2795.2780000059574,completion,,,,,false,,,,171743.90000000596,171743.40000000596,168931.525,168934.90000000596,168948.122,171745.662,8,400,,,
trial,html.Screen,4_37_0,2023-09-15T18:38:47.726Z,,0,1,,2819.4379999940284,response,ISIC_0031368.JPG,4,ISIC_4548632.JPG,ISIC_0031368.JPG,false,1,keypress(m),500,174565.5,174565.09999999404,171729.135,171744.09999999404,171745.662,174576.91,8,400,38,,ISIC_4548632.JPG
break,html.Screen,4_37_1,2023-09-15T18:38:47.727Z,,0,,,NaN,,,,,,false,,,,174566.69999998808,174566.40000000596,,174565.79999998212,,174576.91,8,400,,,
break_continue,html.Screen,4_37_2,2023-09-15T18:38:47.728Z,,0,,,NaN,,,,,,false,,,,174567.29999998212,174567.09999999404,,174566.90000000596,,174576.91,8,400,,,
sequence,flow.Sequence,4_37,2023-09-15T18:38:47.728Z,,0,,,2821.4379999940284,completion,,,,,false,,,,174567.59999999404,174567.09999999404,171729.135,171744,171745.662,174576.91,8,400,,,
trial,html.Screen,4_38_0,2023-09-15T18:38:50.618Z,,0,1,,2880.2899999880756,response,ISIC_6581765.JPG,13,ISIC_0787229.JPG,ISIC_0787229.JPG,false,0,keypress(z),500,177457.5,177457.19999998808,174560.456,174567.69999998808,174576.91,177474.535,8,400,39,,ISIC_6581765.JPG
break,html.Screen,4_38_1,2023-09-15T18:38:50.619Z,,0,,,NaN,,,,,,false,,,,177458.59999999404,177458.29999998212,,177457.90000000596,,177474.535,8,400,,,
break_continue,html.Screen,4_38_2,2023-09-15T18:38:50.620Z,,0,,,NaN,,,,,,false,,,,177459.29999998212,177459.09999999404,,177458.90000000596,,177474.535,8,400,,,
sequence,flow.Sequence,4_38,2023-09-15T18:38:50.620Z,,0,,,2882.189999994036,completion,,,,,false,,,,177459.59999999404,177459.09999999404,174560.456,174567.69999998808,174576.91,177474.535,8,400,,,
trial,html.Screen,4_39_0,2023-09-15T18:38:53.216Z,,0,1,,2580.865000005957,response,ISIC_6443700.JPG,11,ISIC_7266604.JPG,ISIC_7266604.JPG,false,0,keypress(z),500,180055.79999998212,180055.40000000596,177445.245,177459.79999998212,177474.535,180072.155,8,400,40,,ISIC_6443700.JPG
break,html.Screen,4_39_1,2023-09-15T18:38:53.218Z,,0,,,NaN,,,,,,false,,,,180057.19999998808,180056.79999998212,,180056.19999998808,,180072.155,8,400,,,
break_continue,html.Screen,4_39_2,2023-09-15T18:38:53.218Z,,0,,,NaN,,,,,,false,,,,180057.79999998212,180057.59999999404,,180057.29999998212,,180072.155,8,400,,,
sequence,flow.Sequence,4_39,2023-09-15T18:38:53.218Z,,0,,,2583.064999994036,completion,,,,,false,,,,180058.09999999404,180057.59999999404,177445.245,177459.69999998808,177474.535,180072.155,8,400,,,
trial,html.Screen,4_40_0,2023-09-15T18:38:56.161Z,,0,1,,2927.845000000001,response,ISIC_6620748.JPG,5,ISIC_6384906.JPG,ISIC_6620748.JPG,false,1,keypress(m),500,183000.40000000596,183000,180055.721,180058.19999998808,180072.155,183003.084,8,400,41,,ISIC_6384906.JPG
break,html.Screen,4_40_1,2023-09-15T18:38:56.162Z,,0,,,NaN,,,,,,false,,,,183001.59999999404,183001.19999998808,,183000.59999999404,,183003.084,8,400,,,
break_continue,html.Screen,4_40_2,2023-09-15T18:38:56.163Z,,0,,,NaN,,,,,,false,,,,183002.19999998808,183001.90000000596,,183001.69999998808,,183003.084,8,400,,,
sequence,flow.Sequence,4_40,2023-09-15T18:38:56.163Z,,0,,,2929.7450000059616,completion,,,,,false,,,,183002.40000000596,183001.90000000596,180055.721,180058.19999998808,180072.155,183003.084,8,400,,,
trial,html.Screen,4_41_0,2023-09-15T18:38:58.808Z,,0,1,,2644.4159999999974,response,ISIC_0063852.JPG,13,ISIC_0071168.JPG,ISIC_0063852.JPG,false,1,keypress(m),500,185647.69999998808,185647.5,182986.549,183002.59999999404,183003.084,185650.858,8,400,42,,ISIC_0071168.JPG
break,html.Screen,4_41_1,2023-09-15T18:38:58.809Z,,0,,,NaN,,,,,,false,,,,185648.5,185648.19999998808,,185647.90000000596,,185650.858,8,400,,,
break_continue,html.Screen,4_41_2,2023-09-15T18:38:58.810Z,,0,,,NaN,,,,,,false,,,,185649.09999999404,185648.90000000596,,185648.69999998808,,185650.858,8,400,,,
sequence,flow.Sequence,4_41,2023-09-15T18:38:58.810Z,,0,,,2645.816000005958,completion,,,,,false,,,,185649.40000000596,185648.90000000596,182986.549,183002.59999999404,183003.084,185650.858,8,400,,,
trial,html.Screen,4_42_0,2023-09-15T18:39:01.625Z,,0,1,,2814.042000005953,response,ISIC_1440377.JPG,8,ISIC_8409262.JPG,ISIC_1440377.JPG,false,1,keypress(m),500,188465,188464.90000000596,185634.391,185649.69999998808,185650.858,188482.017,8,400,43,,ISIC_8409262.JPG
break,html.Screen,4_42_1,2023-09-15T18:39:01.626Z,,0,,,NaN,,,,,,false,,,,188465.59999999404,188465.5,,188465.29999998212,,188482.017,8,400,,,
break_continue,html.Screen,4_42_2,2023-09-15T18:39:01.626Z,,0,,,NaN,,,,,,false,,,,188466,188466,,188465.90000000596,,188482.017,8,400,,,
sequence,flow.Sequence,4_42,2023-09-15T18:39:01.627Z,,0,,,2815.1419999999925,completion,,,,,false,,,,188466.19999998808,188466,185634.391,185649.59999999404,185650.858,188482.017,8,400,,,
trial,html.Screen,4_43_0,2023-09-15T18:39:05.011Z,,0,1,,3367.883000005968,response,ISIC_7235128.JPG,8,ISIC_0013499.JPG,ISIC_0013499.JPG,false,0,keypress(z),500,191850.29999998212,191849.90000000596,188465.045,188466.19999998808,188482.017,191862.497,8,400,44,,ISIC_7235128.JPG
break,html.Screen,4_43_1,2023-09-15T18:39:05.012Z,,0,,,NaN,,,,,,false,,,,191851.40000000596,191851.09999999404,,191850.59999999404,,191862.497,8,400,,,
break_continue,html.Screen,4_43_2,2023-09-15T18:39:05.012Z,,0,,,NaN,,,,,,false,,,,191852,191851.79999998212,,191851.59999999404,,191862.497,8,400,,,
sequence,flow.Sequence,4_43,2023-09-15T18:39:05.013Z,,0,,,3369.782999982126,completion,,,,,false,,,,191852.29999998212,191851.79999998212,188465.045,188466.19999998808,188482.017,191862.497,8,400,,,
trial,html.Screen,4_44_0,2023-09-15T18:39:07.901Z,,0,1,,2878.002999999997,response,ISIC_8621568.JPG,12,ISIC_0012260.JPG,ISIC_8621568.JPG,false,1,keypress(m),500,194740.90000000596,194740.5,191846.246,191852.59999999404,191862.497,194743.434,8,400,45,,ISIC_0012260.JPG
break,html.Screen,4_44_1,2023-09-15T18:39:07.902Z,,0,,,NaN,,,,,,false,,,,194742,194741.69999998808,,194741.19999998808,,194743.434,8,400,,,
break_continue,html.Screen,4_44_2,2023-09-15T18:39:07.903Z,,0,,,NaN,,,,,,false,,,,194742.69999998808,194742.5,,194742.29999998212,,194743.434,8,400,,,
sequence,flow.Sequence,4_44,2023-09-15T18:39:07.903Z,,0,,,2880.002999999997,completion,,,,,false,,,,194742.90000000596,194742.5,191846.246,191852.5,191862.497,194743.434,8,400,,,
trial,html.Screen,4_45_0,2023-09-15T18:39:12.245Z,,0,1,,4340.565999999992,response,ISIC_0068950.JPG,7,ISIC_0056793.JPG,ISIC_0056793.JPG,false,0,keypress(z),500,199084.29999998212,199084,194726.764,194743.09999999404,194743.434,199089.818,8,400,46,,ISIC_0068950.JPG
break,html.Screen,4_45_1,2023-09-15T18:39:12.246Z,,0,,,NaN,,,,,,false,,,,199085.5,199085.19999998808,,199084.59999999404,,199089.818,8,400,,,
break_continue,html.Screen,4_45_2,2023-09-15T18:39:12.247Z,,0,,,NaN,,,,,,false,,,,199086.09999999404,199085.90000000596,,199085.69999998808,,199089.818,8,400,,,
sequence,flow.Sequence,4_45,2023-09-15T18:39:12.247Z,,0,,,4342.466000005952,completion,,,,,false,,,,199086.40000000596,199085.90000000596,194726.764,194743.09999999404,194743.434,199089.818,8,400,,,
trial,html.Screen,4_46_0,2023-09-15T18:39:14.879Z,,0,1,,2627.9819999821193,response,ISIC_0030291.JPG,13,ISIC_0064010.JPG,ISIC_0064010.JPG,false,0,keypress(z),500,201718.19999998808,201717.79999998212,199073.317,199086.69999998808,199089.818,201737.722,8,400,47,,ISIC_0030291.JPG
break,html.Screen,4_46_1,2023-09-15T18:39:14.880Z,,0,,,NaN,,,,,,false,,,,201719.29999998212,201719.09999999404,,201718.40000000596,,201737.722,8,400,,,
break_continue,html.Screen,4_46_2,2023-09-15T18:39:14.880Z,,0,,,NaN,,,,,,false,,,,201720,201719.69999998808,,201719.5,,201737.722,8,400,,,
sequence,flow.Sequence,4_46,2023-09-15T18:39:14.881Z,,0,,,2629.8819999880798,completion,,,,,false,,,,201720.19999998808,201719.69999998808,199073.317,199086.59999999404,199089.818,201737.722,8,400,,,
trial,html.Screen,4_47_0,2023-09-15T18:39:17.929Z,,0,1,,3030.3779999940307,response,ISIC_5258657.JPG,9,ISIC_7865214.JPG,ISIC_7865214.JPG,false,0,keypress(z),500,204768.5,204768.09999999404,201721.059,201720.5,201737.722,204785.131,8,400,48,,ISIC_5258657.JPG
break,html.Screen,4_47_1,2023-09-15T18:39:17.930Z,,0,,,NaN,,,,,,false,,,,204769.69999998808,204769.40000000596,,204768.79999998212,,204785.131,8,400,,,
break_continue,html.Screen,4_47_2,2023-09-15T18:39:17.931Z,,0,,,NaN,,,,,,false,,,,204770.29999998212,204770.19999998808,,204769.90000000596,,204785.131,8,400,,,
sequence,flow.Sequence,4_47,2023-09-15T18:39:17.931Z,,0,,,3032.47799998807,completion,,,,,false,,,,204770.69999998808,204770.19999998808,201721.059,201720.29999998212,201737.722,204785.131,8,400,,,
trial,html.Screen,4_48_0,2023-09-15T18:39:20.835Z,,0,1,,2889.1689999821247,response,ISIC_0025139.JPG,5,ISIC_4102922.JPG,ISIC_0025139.JPG,false,1,keypress(m),500,207674.69999998808,207674.29999998212,204768.506,204770.79999998212,204785.131,207682.974,8,400,49,,ISIC_4102922.JPG
break,html.Screen,4_48_1,2023-09-15T18:39:20.836Z,,0,,,NaN,,,,,,false,,,,207675.90000000596,207675.59999999404,,207675,,207682.974,8,400,,,
break_continue,html.Screen,4_48_2,2023-09-15T18:39:20.837Z,,0,,,NaN,,,,,,false,,,,207676.5,207676.29999998212,,207676,,207682.974,8,400,,,
sequence,flow.Sequence,4_48,2023-09-15T18:39:20.837Z,,0,,,2891.1689999821247,completion,,,,,false,,,,207676.79999998212,207676.29999998212,204768.506,204770.79999998212,204785.131,207682.974,8,400,,,
trial,html.Screen,4_49_0,2023-09-15T18:39:23.983Z,,0,1,,3139.426000005973,response,ISIC_3251486.JPG,9,ISIC_5363229.JPG,ISIC_3251486.JPG,false,1,keypress(m),500,210822.69999998808,210822.40000000596,207665.929,207677,207682.974,210830.156,8,400,50,,ISIC_5363229.JPG
break,html.Screen,4_49_1,2023-09-15T18:39:33.967Z,,0,,,9991.859000000026,timeout,,,,,false,,,,220807,220805.66,210813.656,210823.09999999404,210830.156,220822.015,8,400,,,
break_continue,html.Screen,4_49_2,2023-09-15T18:39:35.294Z,,0,,,1303.8850000059465,response,,,,,false,continue,keypress(Space),,222134.29999998212,222125.90000000596,220805.66,220807.29999998212,220822.015,222137.455,8,400,,,
sequence,flow.Sequence,4_49,2023-09-15T18:39:35.294Z,,0,,,14442.926000005973,completion,,,,,false,,,,222134.5,222125.90000000596,207665.929,207676.90000000596,207682.974,222137.455,8,400,,,
trial,html.Screen,4_50_0,2023-09-15T18:39:38.406Z,,0,2,,3107.9450000059733,response,ISIC_7260977.JPG,12,ISIC_0069986.JPG,ISIC_7260977.JPG,false,1,keypress(m),500,225245.79999998212,225245.40000000596,222120.844,222134.5,222137.455,225251.577,8,400,1,,ISIC_0069986.JPG
break,html.Screen,4_50_1,2023-09-15T18:39:38.407Z,,0,,,NaN,,,,,,false,,,,225247,225246.69999998808,,225246.09999999404,,225251.577,8,400,,,
break_continue,html.Screen,4_50_2,2023-09-15T18:39:38.407Z,,0,,,NaN,,,,,,false,,,,225247.59999999404,225247.5,,225247.09999999404,,225251.577,8,400,,,
sequence,flow.Sequence,4_50,2023-09-15T18:39:38.408Z,,0,,,3110.045000000013,completion,,,,,false,,,,225247.90000000596,225247.5,222120.844,222134.5,222137.455,225251.577,8,400,,,
trial,html.Screen,4_51_0,2023-09-15T18:39:41.102Z,,0,2,,2689.92300000001,response,ISIC_0011463.JPG,5,ISIC_3552318.JPG,ISIC_0011463.JPG,false,1,keypress(m),500,227941.79999998212,227941.5,225235.254,225248.09999999404,225251.577,227949.397,8,400,2,,ISIC_3552318.JPG
break,html.Screen,4_51_1,2023-09-15T18:39:41.103Z,,0,,,NaN,,,,,,false,,,,227943,227942.69999998808,,227942.09999999404,,227949.397,8,400,,,
break_continue,html.Screen,4_51_2,2023-09-15T18:39:41.103Z,,0,,,NaN,,,,,,false,,,,227943.69999998808,227943.40000000596,,227943.19999998808,,227949.397,8,400,,,
sequence,flow.Sequence,4_51,2023-09-15T18:39:41.104Z,,0,,,2691.8230000059702,completion,,,,,false,,,,227943.90000000596,227943.40000000596,225235.254,225248,225251.577,227949.397,8,400,,,
trial,html.Screen,4_52_0,2023-09-15T18:39:44.067Z,,0,2,,2957.5030000059633,response,ISIC_0806140.JPG,9,ISIC_7296463.JPG,ISIC_0806140.JPG,false,1,keypress(m),500,230907.19999998808,230906.90000000596,227933.336,227944.09999999404,227949.397,230913.66,8,400,3,,ISIC_7296463.JPG
break,html.Screen,4_52_1,2023-09-15T18:39:44.068Z,,0,,,NaN,,,,,,false,,,,230908.5,230908.09999999404,,230907.59999999404,,230913.66,8,400,,,
break_continue,html.Screen,4_52_2,2023-09-15T18:39:44.069Z,,0,,,NaN,,,,,,false,,,,230909.19999998808,230909,,230908.59999999404,,230913.66,8,400,,,
sequence,flow.Sequence,4_52,2023-09-15T18:39:44.069Z,,0,,,2959.603000000003,completion,,,,,false,,,,230909.59999999404,230909,227933.336,227944,227949.397,230913.66,8,400,,,
trial,html.Screen,4_53_0,2023-09-15T18:39:47.166Z,,0,2,,3091.939999994036,response,ISIC_0027302.JPG,7,ISIC_0032762.JPG,ISIC_0027302.JPG,false,1,keypress(m),500,234005.79999998212,234005.59999999404,230897.1,230909.69999998808,230913.66,234011.424,8,400,4,,ISIC_0032762.JPG
break,html.Screen,4_53_1,2023-09-15T18:39:47.166Z,,0,,,NaN,,,,,,false,,,,234006.40000000596,234006.09999999404,,234006,,234011.424,8,400,,,
break_continue,html.Screen,4_53_2,2023-09-15T18:39:47.167Z,,0,,,NaN,,,,,,false,,,,234006.79999998212,234006.59999999404,,234006.5,,234011.424,8,400,,,
sequence,flow.Sequence,4_53,2023-09-15T18:39:47.167Z,,0,,,3092.939999994036,completion,,,,,false,,,,234006.90000000596,234006.59999999404,230897.1,230909.69999998808,230913.66,234011.424,8,400,,,
trial,html.Screen,4_54_0,2023-09-15T18:39:49.995Z,,0,2,,2823.6759999940405,response,ISIC_7212271.JPG,7,ISIC_0013610.JPG,ISIC_0013610.JPG,false,0,keypress(z),500,236835.40000000596,236835.09999999404,233994.724,234006.90000000596,234011.424,236842.077,8,400,5,,ISIC_7212271.JPG
break,html.Screen,4_54_1,2023-09-15T18:39:49.996Z,,0,,,NaN,,,,,,false,,,,236836.59999999404,236836.19999998808,,236835.69999998808,,236842.077,8,400,,,
break_continue,html.Screen,4_54_2,2023-09-15T18:39:49.997Z,,0,,,NaN,,,,,,false,,,,236837.09999999404,236837,,236836.79999998212,,236842.077,8,400,,,
sequence,flow.Sequence,4_54,2023-09-15T18:39:49.997Z,,0,,,2825.576000000001,completion,,,,,false,,,,236837.40000000596,236837,233994.724,234006.90000000596,234011.424,236842.077,8,400,,,
trial,html.Screen,4_55_0,2023-09-15T18:39:52.865Z,,0,2,,2862.622999988089,response,ISIC_0027325.JPG,7,ISIC_5718805.JPG,ISIC_5718805.JPG,false,0,keypress(z),500,239705.19999998808,239704.69999998808,236825.76,236837.59999999404,236842.077,239723.407,8,400,6,,ISIC_0027325.JPG
break,html.Screen,4_55_1,2023-09-15T18:39:52.866Z,,0,,,NaN,,,,,,false,,,,239706.5,239706.19999998808,,239705.59999999404,,239723.407,8,400,,,
break_continue,html.Screen,4_55_2,2023-09-15T18:39:52.867Z,,0,,,NaN,,,,,,false,,,,239707.09999999404,239706.79999998212,,239706.69999998808,,239723.407,8,400,,,
sequence,flow.Sequence,4_55,2023-09-15T18:39:52.867Z,,0,,,2864.7229999821284,completion,,,,,false,,,,239707.29999998212,239706.79999998212,236825.76,236837.5,236842.077,239723.407,8,400,,,
trial,html.Screen,4_56_0,2023-09-15T18:39:55.847Z,,0,2,,2963.892999982112,response,ISIC_0031711.JPG,11,ISIC_0070246.JPG,ISIC_0031711.JPG,false,1,keypress(m),500,242687.59999999404,242687.29999998212,239690.082,239707.59999999404,239723.407,242704.244,8,400,7,,ISIC_0070246.JPG
break,html.Screen,4_56_1,2023-09-15T18:39:55.849Z,,0,,,NaN,,,,,,false,,,,242688.79999998212,242688.5,,242687.90000000596,,242704.244,8,400,,,
break_continue,html.Screen,4_56_2,2023-09-15T18:39:55.849Z,,0,,,NaN,,,,,,false,,,,242689.40000000596,242689.09999999404,,242688.90000000596,,242704.244,8,400,,,
sequence,flow.Sequence,4_56,2023-09-15T18:39:55.850Z,,0,,,2965.692999994033,completion,,,,,false,,,,242689.59999999404,242689.09999999404,239690.082,239707.5,239723.407,242704.244,8,400,,,
trial,html.Screen,4_57_0,2023-09-15T18:39:58.544Z,,0,2,,2679.755999999994,response,ISIC_1831600.JPG,7,ISIC_0014108.JPG,ISIC_0014108.JPG,false,0,keypress(z),500,245384.40000000596,245384,242687.301,242689.90000000596,242704.244,245402.007,8,400,8,,ISIC_1831600.JPG
break,html.Screen,4_57_1,2023-09-15T18:39:58.545Z,,0,,,NaN,,,,,,false,,,,245385.5,245385.19999998808,,245384.59999999404,,245402.007,8,400,,,
break_continue,html.Screen,4_57_2,2023-09-15T18:39:58.546Z,,0,,,NaN,,,,,,false,,,,245386.09999999404,245386,,245385.69999998808,,245402.007,8,400,,,
sequence,flow.Sequence,4_57,2023-09-15T18:39:58.546Z,,0,,,2681.755999999994,completion,,,,,false,,,,245386.40000000596,245386,242687.301,242689.79999998212,242704.244,245402.007,8,400,,,
trial,html.Screen,4_58_0,2023-09-15T18:40:01.515Z,,0,2,,2952.4929999999877,response,ISIC_0014308.JPG,12,ISIC_0032490.JPG,ISIC_0014308.JPG,false,1,keypress(m),500,248354.90000000596,248354.5,245385.137,245386.59999999404,245402.007,248365.946,8,400,9,,ISIC_0032490.JPG
break,html.Screen,4_58_1,2023-09-15T18:40:01.516Z,,0,,,NaN,,,,,,false,,,,248356.19999998808,248355.90000000596,,248355.29999998212,,248365.946,8,400,,,
break_continue,html.Screen,4_58_2,2023-09-15T18:40:01.517Z,,0,,,NaN,,,,,,false,,,,248356.90000000596,248356.59999999404,,248356.5,,248365.946,8,400,,,
sequence,flow.Sequence,4_58,2023-09-15T18:40:01.517Z,,0,,,2954.592999994027,completion,,,,,false,,,,248357.09999999404,248356.59999999404,245385.137,245386.59999999404,245402.007,248365.946,8,400,,,
trial,html.Screen,4_59_0,2023-09-15T18:40:04.450Z,,0,2,,2923.753999988083,response,ISIC_0063551.JPG,6,ISIC_6008974.JPG,ISIC_0063551.JPG,false,1,keypress(m),500,251290,251289.69999998808,248349.591,248357.29999998212,248365.946,251296.876,8,400,10,,ISIC_6008974.JPG
break,html.Screen,4_59_1,2023-09-15T18:40:04.451Z,,0,,,NaN,,,,,,false,,,,251291.09999999404,251290.79999998212,,251290.29999998212,,251296.876,8,400,,,
break_continue,html.Screen,4_59_2,2023-09-15T18:40:04.452Z,,0,,,NaN,,,,,,false,,,,251291.69999998808,251291.5,,251291.29999998212,,251296.876,8,400,,,
sequence,flow.Sequence,4_59,2023-09-15T18:40:04.452Z,,0,,,2925.5540000000037,completion,,,,,false,,,,251292.09999999404,251291.5,248349.591,248357.29999998212,248365.946,251296.876,8,400,,,
trial,html.Screen,4_60_0,2023-09-15T18:40:07.290Z,,0,2,,2832.7239999940502,response,ISIC_3663705.JPG,13,ISIC_6145261.JPG,ISIC_3663705.JPG,false,1,keypress(m),500,254130,254129.59999999404,251280.493,251292.40000000596,251296.876,254144.585,8,400,11,,ISIC_6145261.JPG
break,html.Screen,4_60_1,2023-09-15T18:40:07.291Z,,0,,,NaN,,,,,,false,,,,254131.09999999404,254130.79999998212,,254130.19999998808,,254144.585,8,400,,,
break_continue,html.Screen,4_60_2,2023-09-15T18:40:07.292Z,,0,,,NaN,,,,,,false,,,,254131.69999998808,254131.5,,254131.29999998212,,254144.585,8,400,,,
sequence,flow.Sequence,4_60,2023-09-15T18:40:07.292Z,,0,,,2834.6240000000107,completion,,,,,false,,,,254132,254131.5,251280.493,251292.29999998212,251296.876,254144.585,8,400,,,
trial,html.Screen,4_61_0,2023-09-15T18:40:09.926Z,,0,2,,2621.0149999940477,response,ISIC_3734674.JPG,13,ISIC_0046773.JPG,ISIC_0046773.JPG,false,0,keypress(z),500,256765.79999998212,256765.59999999404,254128.274,254132.09999999404,254144.585,256775.695,8,400,12,,ISIC_3734674.JPG
break,html.Screen,4_61_1,2023-09-15T18:40:09.926Z,,0,,,NaN,,,,,,false,,,,256766.5,256766.29999998212,,256766,,256775.695,8,400,,,
break_continue,html.Screen,4_61_2,2023-09-15T18:40:09.927Z,,0,,,NaN,,,,,,false,,,,256766.90000000596,256766.79999998212,,256766.69999998808,,256775.695,8,400,,,
sequence,flow.Sequence,4_61,2023-09-15T18:40:09.927Z,,0,,,2622.2149999821268,completion,,,,,false,,,,256767,256766.79999998212,254128.274,254132.09999999404,254144.585,256775.695,8,400,,,
trial,html.Screen,4_62_0,2023-09-15T18:40:12.665Z,,0,2,,2729.504999988072,response,ISIC_0012059.JPG,8,ISIC_0058836.JPG,ISIC_0058836.JPG,false,0,keypress(z),500,259505.59999999404,259505.19999998808,256759.384,256767.09999999404,256775.695,259523.839,8,400,13,,ISIC_0012059.JPG
break,html.Screen,4_62_1,2023-09-15T18:40:12.667Z,,0,,,NaN,,,,,,false,,,,259506.79999998212,259506.5,,259505.79999998212,,259523.839,8,400,,,
break_continue,html.Screen,4_62_2,2023-09-15T18:40:12.667Z,,0,,,NaN,,,,,,false,,,,259507.5,259507.29999998212,,259507.09999999404,,259523.839,8,400,,,
sequence,flow.Sequence,4_62,2023-09-15T18:40:12.668Z,,0,,,2731.6049999821116,completion,,,,,false,,,,259507.79999998212,259507.29999998212,256759.384,256767.09999999404,256775.695,259523.839,8,400,,,
trial,html.Screen,4_63_0,2023-09-15T18:40:15.731Z,,0,2,,3046.7609999940323,response,ISIC_0033464.JPG,5,ISIC_0056326.JPG,ISIC_0056326.JPG,false,0,keypress(z),500,262571,262570.59999999404,259490.478,259508,259523.839,262587.907,8,400,14,,ISIC_0033464.JPG
break,html.Screen,4_63_1,2023-09-15T18:40:15.732Z,,0,,,NaN,,,,,,false,,,,262572.1999999881,262571.7999999821,,262571.2999999821,,262587.907,8,400,,,
break_continue,html.Screen,4_63_2,2023-09-15T18:40:15.733Z,,0,,,NaN,,,,,,false,,,,262572.6999999881,262572.59999999404,,262572.2999999821,,262587.907,8,400,,,
sequence,flow.Sequence,4_63,2023-09-15T18:40:15.733Z,,0,,,3048.7609999940323,completion,,,,,false,,,,262573,262572.59999999404,259490.478,259508,259523.839,262587.907,8,400,,,
trial,html.Screen,4_64_0,2023-09-15T18:40:18.345Z,,0,2,,2596.7929999880726,response,ISIC_0030128.JPG,8,ISIC_4811165.JPG,ISIC_4811165.JPG,false,0,keypress(z),500,265185.09999999404,265184.6999999881,262571.265,262573.2999999821,262587.907,265202.227,8,400,15,,ISIC_0030128.JPG
break,html.Screen,4_64_1,2023-09-15T18:40:18.346Z,,0,,,NaN,,,,,,false,,,,265186.1999999881,265186,,265185.40000000596,,265202.227,8,400,,,
break_continue,html.Screen,4_64_2,2023-09-15T18:40:18.347Z,,0,,,NaN,,,,,,false,,,,265186.90000000596,265186.6999999881,,265186.40000000596,,265202.227,8,400,,,
sequence,flow.Sequence,4_64,2023-09-15T18:40:18.347Z,,0,,,2598.7929999880726,completion,,,,,false,,,,265187.09999999404,265186.6999999881,262571.265,262573.2999999821,262587.907,265202.227,8,400,,,
trial,html.Screen,4_65_0,2023-09-15T18:40:21.622Z,,0,2,,3259.4729999880656,response,ISIC_0030435.JPG,8,ISIC_0058021.JPG,ISIC_0058021.JPG,false,0,keypress(z),500,268462.09999999404,268461.6999999881,265185.735,265187.2999999821,265202.227,268466.186,8,400,16,,ISIC_0030435.JPG
break,html.Screen,4_65_1,2023-09-15T18:40:21.623Z,,0,,,NaN,,,,,,false,,,,268463.2999999821,268463,,268462.5,,268466.186,8,400,,,
break_continue,html.Screen,4_65_2,2023-09-15T18:40:21.624Z,,0,,,NaN,,,,,,false,,,,268463.90000000596,268463.6999999881,,268463.5,,268466.186,8,400,,,
sequence,flow.Sequence,4_65,2023-09-15T18:40:21.624Z,,0,,,3261.4729999880656,completion,,,,,false,,,,268464.09999999404,268463.6999999881,265185.735,265187.2999999821,265202.227,268466.186,8,400,,,
trial,html.Screen,4_66_0,2023-09-15T18:40:24.594Z,,0,2,,2967.6139999821316,response,ISIC_0033392.JPG,12,ISIC_0055440.JPG,ISIC_0033392.JPG,false,1,keypress(m),500,271434.1999999881,271433.7999999821,268449.735,268464.40000000596,268466.186,271447.076,8,400,17,,ISIC_0055440.JPG
break,html.Screen,4_66_1,2023-09-15T18:40:24.595Z,,0,,,NaN,,,,,,false,,,,271435.2999999821,271435,,271434.59999999404,,271447.076,8,400,,,
break_continue,html.Screen,4_66_2,2023-09-15T18:40:24.596Z,,0,,,NaN,,,,,,false,,,,271436,271435.6999999881,,271435.59999999404,,271447.076,8,400,,,
sequence,flow.Sequence,4_66,2023-09-15T18:40:24.596Z,,0,,,2969.513999988092,completion,,,,,false,,,,271436.2999999821,271435.6999999881,268449.735,268464.2999999821,268466.186,271447.076,8,400,,,
trial,html.Screen,4_67_0,2023-09-15T18:40:27.470Z,,0,2,,2862.923999999999,response,ISIC_0028484.JPG,9,ISIC_0054206.JPG,ISIC_0028484.JPG,false,1,keypress(m),500,274310.40000000596,274310,271430.637,271436.5,271447.076,274344.727,8,400,18,,ISIC_0054206.JPG
break,html.Screen,4_67_1,2023-09-15T18:40:27.471Z,,0,,,NaN,,,,,,false,,,,274311.59999999404,274311.2999999821,,274310.6999999881,,274344.727,8,400,,,
break_continue,html.Screen,4_67_2,2023-09-15T18:40:27.472Z,,0,,,NaN,,,,,,false,,,,274312.2999999821,274312,,274311.7999999821,,274344.727,8,400,,,
sequence,flow.Sequence,4_67,2023-09-15T18:40:27.472Z,,0,,,2864.923999999999,completion,,,,,false,,,,274312.5,274312,271430.637,271436.2999999821,271447.076,274344.727,8,400,,,
trial,html.Screen,4_68_0,2023-09-15T18:40:31.285Z,,0,2,,3779.872999994026,response,ISIC_0062223.JPG,8,ISIC_0034006.JPG,ISIC_0062223.JPG,false,1,keypress(m),500,278125,278124.59999999404,274328.23,274312.6999999881,274344.727,278141.645,8,400,19,,ISIC_0034006.JPG
break,html.Screen,4_68_1,2023-09-15T18:40:31.286Z,,0,,,NaN,,,,,,false,,,,278126.09999999404,278125.90000000596,,278125.2999999821,,278141.645,8,400,,,
break_continue,html.Screen,4_68_2,2023-09-15T18:40:31.287Z,,0,,,NaN,,,,,,false,,,,278126.6999999881,278126.59999999404,,278126.2999999821,,278141.645,8,400,,,
sequence,flow.Sequence,4_68,2023-09-15T18:40:31.287Z,,0,,,3781.872999994026,completion,,,,,false,,,,278127,278126.59999999404,274328.23,274312.59999999404,274344.727,278141.645,8,400,,,
trial,html.Screen,4_69_0,2023-09-15T18:40:34.061Z,,0,2,,2759.1549999821,response,ISIC_7580408.JPG,11,ISIC_5971574.JPG,ISIC_7580408.JPG,false,1,keypress(m),500,280901.09999999404,280900.7999999821,278125.2,278127.1999999881,278141.645,280905.958,8,400,20,,ISIC_5971574.JPG
break,html.Screen,4_69_1,2023-09-15T18:40:34.062Z,,0,,,NaN,,,,,,false,,,,280902.2999999821,280902,,280901.40000000596,,280905.958,8,400,,,
break_continue,html.Screen,4_69_2,2023-09-15T18:40:34.063Z,,0,,,NaN,,,,,,false,,,,280902.7999999821,280902.7999999821,,280902.5,,280905.958,8,400,,,
sequence,flow.Sequence,4_69,2023-09-15T18:40:34.063Z,,0,,,2761.1549999821,completion,,,,,false,,,,280903.09999999404,280902.7999999821,278125.2,278127.1999999881,278141.645,280905.958,8,400,,,
trial,html.Screen,4_70_0,2023-09-15T18:40:36.692Z,,0,2,,2625.042000000016,response,ISIC_1441260.JPG,8,ISIC_0064822.JPG,ISIC_0064822.JPG,false,0,keypress(z),500,283531.40000000596,283531,280889.479,280903.40000000596,280905.958,283537.149,8,400,21,,ISIC_1441260.JPG
break,html.Screen,4_70_1,2023-09-15T18:40:36.693Z,,0,,,NaN,,,,,,false,,,,283532.5,283532.1999999881,,283531.6999999881,,283537.149,8,400,,,
break_continue,html.Screen,4_70_2,2023-09-15T18:40:36.694Z,,0,,,NaN,,,,,,false,,,,283533.09999999404,283532.90000000596,,283532.6999999881,,283537.149,8,400,,,
sequence,flow.Sequence,4_70,2023-09-15T18:40:36.694Z,,0,,,2626.9420000059763,completion,,,,,false,,,,283533.40000000596,283532.90000000596,280889.479,280903.40000000596,280905.958,283537.149,8,400,,,
trial,html.Screen,4_71_0,2023-09-15T18:40:39.740Z,,0,2,,3042.0509999881033,response,ISIC_9386509.JPG,6,ISIC_0032012.JPG,ISIC_9386509.JPG,false,1,keypress(m),500,286579.5,286579.1999999881,283520.613,283533.59999999404,283537.149,286584.556,8,400,22,,ISIC_0032012.JPG
break,html.Screen,4_71_1,2023-09-15T18:40:39.741Z,,0,,,NaN,,,,,,false,,,,286580.6999999881,286580.2999999821,,286579.7999999821,,286584.556,8,400,,,
break_continue,html.Screen,4_71_2,2023-09-15T18:40:39.742Z,,0,,,NaN,,,,,,false,,,,286581.2999999821,286581.09999999404,,286580.7999999821,,286584.556,8,400,,,
sequence,flow.Sequence,4_71,2023-09-15T18:40:39.742Z,,0,,,3043.9509999940637,completion,,,,,false,,,,286581.5,286581.09999999404,283520.613,283533.59999999404,283537.149,286584.556,8,400,,,
trial,html.Screen,4_72_0,2023-09-15T18:40:42.681Z,,0,2,,2935.1439999880968,response,ISIC_5239607.JPG,9,ISIC_0027408.JPG,ISIC_5239607.JPG,false,1,keypress(m),500,289520,289519.6999999881,286568.168,286581.7999999821,286584.556,289532.302,8,400,23,,ISIC_0027408.JPG
break,html.Screen,4_72_1,2023-09-15T18:40:42.682Z,,0,,,NaN,,,,,,false,,,,289521.1999999881,289520.90000000596,,289520.40000000596,,289532.302,8,400,,,
break_continue,html.Screen,4_72_2,2023-09-15T18:40:42.682Z,,0,,,NaN,,,,,,false,,,,289521.90000000596,289521.6999999881,,289521.40000000596,,289532.302,8,400,,,
sequence,flow.Sequence,4_72,2023-09-15T18:40:42.683Z,,0,,,2937.1439999880968,completion,,,,,false,,,,289522,289521.6999999881,286568.168,286581.6999999881,286584.556,289532.302,8,400,,,
trial,html.Screen,4_73_0,2023-09-15T18:40:45.505Z,,0,2,,2811.5980000059353,response,ISIC_0032987.JPG,12,ISIC_0053791.JPG,ISIC_0032987.JPG,false,1,keypress(m),500,292344.1999999881,292343.90000000596,289515.797,289522.2999999821,289532.302,292346.48,8,400,24,,ISIC_0053791.JPG
break,html.Screen,4_73_1,2023-09-15T18:40:45.506Z,,0,,,NaN,,,,,,false,,,,292345.40000000596,292345.09999999404,,292344.5,,292346.48,8,400,,,
break_continue,html.Screen,4_73_2,2023-09-15T18:40:45.506Z,,0,,,NaN,,,,,,false,,,,292345.90000000596,292345.7999999821,,292345.59999999404,,292346.48,8,400,,,
sequence,flow.Sequence,4_73,2023-09-15T18:40:45.507Z,,0,,,2813.4979999820935,completion,,,,,false,,,,292346.1999999881,292345.7999999821,289515.797,289522.1999999881,289532.302,292346.48,8,400,,,
trial,html.Screen,4_74_0,2023-09-15T18:40:48.384Z,,0,2,,2876.920000005979,response,ISIC_9760652.JPG,8,ISIC_9905633.JPG,ISIC_9760652.JPG,false,1,keypress(m),500,295223.6999999881,295223.40000000596,292330.102,292346.5,292346.48,295227.524,8,400,25,,ISIC_9905633.JPG
break,html.Screen,4_74_1,2023-09-15T18:40:48.385Z,,0,,,NaN,,,,,,false,,,,295224.90000000596,295224.59999999404,,295224.09999999404,,295227.524,8,400,,,
break_continue,html.Screen,4_74_2,2023-09-15T18:40:48.386Z,,0,,,NaN,,,,,,false,,,,295225.5,295225.2999999821,,295225,,295227.524,8,400,,,
sequence,flow.Sequence,4_74,2023-09-15T18:40:48.386Z,,0,,,2878.8199999821372,completion,,,,,false,,,,295225.7999999821,295225.2999999821,292330.102,292346.40000000596,292346.48,295227.524,8,400,,,
trial,html.Screen,4_75_0,2023-09-15T18:40:50.976Z,,0,2,,2587.775999982143,response,ISIC_4314089.JPG,11,ISIC_0010382.JPG,ISIC_0010382.JPG,false,0,keypress(z),500,297815.59999999404,297815.2999999821,295211.022,295226,295227.524,297825.372,8,400,26,,ISIC_4314089.JPG
break,html.Screen,4_75_1,2023-09-15T18:40:50.977Z,,0,,,NaN,,,,,,false,,,,297816.90000000596,297816.5,,297816,,297825.372,8,400,,,
break_continue,html.Screen,4_75_2,2023-09-15T18:40:50.978Z,,0,,,NaN,,,,,,false,,,,297817.5,297817.1999999881,,297817.09999999404,,297825.372,8,400,,,
sequence,flow.Sequence,4_75,2023-09-15T18:40:50.978Z,,0,,,2589.6759999881033,completion,,,,,false,,,,297817.6999999881,297817.1999999881,295211.022,295225.90000000596,295227.524,297825.372,8,400,,,
trial,html.Screen,4_76_0,2023-09-15T18:40:53.802Z,,0,2,,2815.9279999821447,response,ISIC_0058206.JPG,8,ISIC_0009883.JPG,ISIC_0058206.JPG,false,1,keypress(m),500,300641.59999999404,300641.2999999821,297808.905,297817.90000000596,297825.372,300656.649,8,400,27,,ISIC_0009883.JPG
break,html.Screen,4_76_1,2023-09-15T18:40:53.803Z,,0,,,NaN,,,,,,false,,,,300642.6999999881,300642.40000000596,,300641.90000000596,,300656.649,8,400,,,
break_continue,html.Screen,4_76_2,2023-09-15T18:40:53.804Z,,0,,,NaN,,,,,,false,,,,300643.40000000596,300643.09999999404,,300642.90000000596,,300656.649,8,400,,,
sequence,flow.Sequence,4_76,2023-09-15T18:40:53.804Z,,0,,,2817.7279999940656,completion,,,,,false,,,,300643.59999999404,300643.09999999404,297808.905,297817.90000000596,297825.372,300656.649,8,400,,,
trial,html.Screen,4_77_0,2023-09-15T18:40:56.692Z,,0,2,,2874.7510000059847,response,ISIC_5983500.JPG,7,ISIC_1601784.JPG,ISIC_1601784.JPG,false,0,keypress(z),500,303531.7999999821,303531.40000000596,300640.031,300643.7999999821,300656.649,303537.369,8,400,28,,ISIC_5983500.JPG
break,html.Screen,4_77_1,2023-09-15T18:40:56.693Z,,0,,,NaN,,,,,,false,,,,303532.90000000596,303532.59999999404,,303532,,303537.369,8,400,,,
break_continue,html.Screen,4_77_2,2023-09-15T18:40:56.694Z,,0,,,NaN,,,,,,false,,,,303533.59999999404,303533.2999999821,,303533.09999999404,,303537.369,8,400,,,
sequence,flow.Sequence,4_77,2023-09-15T18:40:56.694Z,,0,,,2876.650999982143,completion,,,,,false,,,,303533.6999999881,303533.2999999821,300640.031,300643.6999999881,300656.649,303537.369,8,400,,,
trial,html.Screen,4_78_0,2023-09-15T18:40:59.483Z,,0,2,,2784.4309999821126,response,ISIC_4322723.JPG,11,ISIC_6617618.JPG,ISIC_4322723.JPG,false,1,keypress(m),500,306322.09999999404,306321.7999999821,303520.851,303534,303537.369,306335.101,8,400,29,,ISIC_6617618.JPG
break,html.Screen,4_78_1,2023-09-15T18:40:59.484Z,,0,,,NaN,,,,,,false,,,,306323.2999999821,306323,,306322.5,,306335.101,8,400,,,
break_continue,html.Screen,4_78_2,2023-09-15T18:40:59.484Z,,0,,,NaN,,,,,,false,,,,306323.90000000596,306323.6999999881,,306323.5,,306335.101,8,400,,,
sequence,flow.Sequence,4_78,2023-09-15T18:40:59.485Z,,0,,,2786.330999988073,completion,,,,,false,,,,306324.1999999881,306323.6999999881,303520.851,303533.90000000596,303537.369,306335.101,8,400,,,
trial,html.Screen,4_79_0,2023-09-15T18:41:02.425Z,,0,2,,2929.098999988055,response,ISIC_6285076.JPG,11,ISIC_0031501.JPG,ISIC_6285076.JPG,false,1,keypress(m),500,309264.59999999404,309264.1999999881,306318.556,306324.40000000596,306335.101,309282.798,8,400,30,,ISIC_0031501.JPG
break,html.Screen,4_79_1,2023-09-15T18:41:02.426Z,,0,,,NaN,,,,,,false,,,,309265.90000000596,309265.59999999404,,309265,,309282.798,8,400,,,
break_continue,html.Screen,4_79_2,2023-09-15T18:41:02.427Z,,0,,,NaN,,,,,,false,,,,309266.5,309266.2999999821,,309266.09999999404,,309282.798,8,400,,,
sequence,flow.Sequence,4_79,2023-09-15T18:41:02.427Z,,0,,,2931.1989999820944,completion,,,,,false,,,,309266.90000000596,309266.2999999821,306318.556,306324.40000000596,306335.101,309282.798,8,400,,,
trial,html.Screen,4_80_0,2023-09-15T18:41:05.066Z,,0,2,,2622.6020000059507,response,ISIC_0062463.JPG,9,ISIC_4151356.JPG,ISIC_0062463.JPG,false,1,keypress(m),500,311905.7999999821,311905.40000000596,309249.458,309267.09999999404,309282.798,311914.109,8,400,31,,ISIC_4151356.JPG
break,html.Screen,4_80_1,2023-09-15T18:41:05.067Z,,0,,,NaN,,,,,,false,,,,311906.90000000596,311906.5,,311906.09999999404,,311914.109,8,400,,,
break_continue,html.Screen,4_80_2,2023-09-15T18:41:05.068Z,,0,,,NaN,,,,,,false,,,,311907.5,311907.2999999821,,311907.09999999404,,311914.109,8,400,,,
sequence,flow.Sequence,4_80,2023-09-15T18:41:05.068Z,,0,,,2624.501999982109,completion,,,,,false,,,,311907.7999999821,311907.2999999821,309249.458,309267.09999999404,309282.798,311914.109,8,400,,,
trial,html.Screen,4_81_0,2023-09-15T18:41:07.846Z,,0,2,,2771.3910000000033,response,ISIC_0009913.JPG,5,ISIC_6404049.JPG,ISIC_6404049.JPG,false,0,keypress(z),500,314685.7999999821,314685.5,311897.412,311908,311914.109,314694.875,8,400,32,,ISIC_0009913.JPG
break,html.Screen,4_81_1,2023-09-15T18:41:07.847Z,,0,,,NaN,,,,,,false,,,,314687,314686.59999999404,,314686.09999999404,,314694.875,8,400,,,
break_continue,html.Screen,4_81_2,2023-09-15T18:41:07.848Z,,0,,,NaN,,,,,,false,,,,314687.5,314687.2999999821,,314687.09999999404,,314694.875,8,400,,,
sequence,flow.Sequence,4_81,2023-09-15T18:41:07.848Z,,0,,,2773.190999982122,completion,,,,,false,,,,314687.7999999821,314687.2999999821,311897.412,311907.90000000596,311914.109,314694.875,8,400,,,
trial,html.Screen,4_82_0,2023-09-15T18:41:11.500Z,,0,2,,3643.824999988079,response,ISIC_0011136.JPG,6,ISIC_0004794.JPG,ISIC_0011136.JPG,false,1,keypress(m),500,318339.09999999404,318338.6999999881,314678.394,314688,314694.875,318342.027,8,400,33,,ISIC_0004794.JPG
break,html.Screen,4_82_1,2023-09-15T18:41:11.501Z,,0,,,NaN,,,,,,false,,,,318340.5,318340.09999999404,,318339.40000000596,,318342.027,8,400,,,
break_continue,html.Screen,4_82_2,2023-09-15T18:41:11.502Z,,0,,,NaN,,,,,,false,,,,318341.09999999404,318340.90000000596,,318340.6999999881,,318342.027,8,400,,,
sequence,flow.Sequence,4_82,2023-09-15T18:41:11.502Z,,0,,,3646.0250000059605,completion,,,,,false,,,,318341.40000000596,318340.90000000596,314678.394,314688,314694.875,318342.027,8,400,,,
trial,html.Screen,4_83_0,2023-09-15T18:41:14.227Z,,0,2,,2723.7729999821167,response,ISIC_0054043.JPG,10,ISIC_8357420.JPG,ISIC_0054043.JPG,false,1,keypress(m),500,321066.1999999881,321065.7999999821,318325.328,318341.6999999881,318342.027,321072.887,8,400,34,,ISIC_8357420.JPG
break,html.Screen,4_83_1,2023-09-15T18:41:14.228Z,,0,,,NaN,,,,,,false,,,,321067.2999999821,321067,,321066.40000000596,,321072.887,8,400,,,
break_continue,html.Screen,4_83_2,2023-09-15T18:41:14.228Z,,0,,,NaN,,,,,,false,,,,321067.90000000596,321067.6999999881,,321067.40000000596,,321072.887,8,400,,,
sequence,flow.Sequence,4_83,2023-09-15T18:41:14.229Z,,0,,,2725.672999988077,completion,,,,,false,,,,321068.1999999881,321067.6999999881,318325.328,318341.59999999404,318342.027,321072.887,8,400,,,
trial,html.Screen,4_84_0,2023-09-15T18:41:17.033Z,,0,2,,2799.5130000059726,response,ISIC_0071647.JPG,9,ISIC_5181177.JPG,ISIC_0071647.JPG,false,1,keypress(m),500,323872.7999999821,323872.40000000596,321056.494,321068.2999999821,321072.887,323887.573,8,400,35,,ISIC_5181177.JPG
break,html.Screen,4_84_1,2023-09-15T18:41:17.035Z,,0,,,NaN,,,,,,false,,,,323874.40000000596,323874,,323873.2999999821,,323887.573,8,400,,,
break_continue,html.Screen,4_84_2,2023-09-15T18:41:17.035Z,,0,,,NaN,,,,,,false,,,,323875,323874.90000000596,,323874.59999999404,,323887.573,8,400,,,
sequence,flow.Sequence,4_84,2023-09-15T18:41:17.036Z,,0,,,2802.0130000059726,completion,,,,,false,,,,323875.2999999821,323874.90000000596,321056.494,321068.2999999821,321072.887,323887.573,8,400,,,
trial,html.Screen,4_85_0,2023-09-15T18:41:19.778Z,,0,2,,2729.626999988104,response,ISIC_0068580.JPG,5,ISIC_4128129.JPG,ISIC_0068580.JPG,false,1,keypress(m),500,326617.5,326617.1999999881,323870.812,323875.5,323887.573,326652.075,8,400,36,,ISIC_4128129.JPG
break,html.Screen,4_85_1,2023-09-15T18:41:19.779Z,,0,,,NaN,,,,,,false,,,,326618.6999999881,326618.2999999821,,326617.7999999821,,326652.075,8,400,,,
break_continue,html.Screen,4_85_2,2023-09-15T18:41:19.780Z,,0,,,NaN,,,,,,false,,,,326619.2999999821,326619.09999999404,,326618.90000000596,,326652.075,8,400,,,
sequence,flow.Sequence,4_85,2023-09-15T18:41:19.780Z,,0,,,2731.5269999940647,completion,,,,,false,,,,326619.59999999404,326619.09999999404,323870.812,323875.40000000596,323887.573,326652.075,8,400,,,
trial,html.Screen,4_86_0,2023-09-15T18:41:23.073Z,,0,2,,3260.325000005949,response,ISIC_9688119.JPG,8,ISIC_0005139.JPG,ISIC_0005139.JPG,false,0,keypress(z),500,329912.7999999821,329912.40000000596,326635.081,326619.7999999821,326652.075,329915.683,8,400,37,,ISIC_9688119.JPG
break,html.Screen,4_86_1,2023-09-15T18:41:23.074Z,,0,,,NaN,,,,,,false,,,,329914,329913.6999999881,,329913.1999999881,,329915.683,8,400,,,
break_continue,html.Screen,4_86_2,2023-09-15T18:41:23.075Z,,0,,,NaN,,,,,,false,,,,329914.6999999881,329914.5,,329914.1999999881,,329915.683,8,400,,,
sequence,flow.Sequence,4_86,2023-09-15T18:41:23.075Z,,0,,,3262.4249999999884,completion,,,,,false,,,,329915,329914.5,326635.081,326619.7999999821,326652.075,329915.683,8,400,,,
trial,html.Screen,4_87_0,2023-09-15T18:41:26.652Z,,0,2,,3575.1169999820995,response,ISIC_0032988.JPG,11,ISIC_2513481.JPG,ISIC_0032988.JPG,false,1,keypress(m),500,333491,333490.7999999821,329899.215,329915.1999999881,329915.683,333496.05,8,400,38,,ISIC_2513481.JPG
break,html.Screen,4_87_1,2023-09-15T18:41:26.653Z,,0,,,NaN,,,,,,false,,,,333492.1999999881,333492,,333491.40000000596,,333496.05,8,400,,,
break_continue,html.Screen,4_87_2,2023-09-15T18:41:26.653Z,,0,,,NaN,,,,,,false,,,,333492.90000000596,333492.59999999404,,333492.40000000596,,333496.05,8,400,,,
sequence,flow.Sequence,4_87,2023-09-15T18:41:26.654Z,,0,,,3576.9169999940204,completion,,,,,false,,,,333493.09999999404,333492.59999999404,329899.215,329915.1999999881,329915.683,333496.05,8,400,,,
trial,html.Screen,4_88_0,2023-09-15T18:41:30.518Z,,0,2,,3861.049999994051,response,ISIC_0013831.JPG,9,ISIC_5966190.JPG,ISIC_5966190.JPG,false,0,keypress(z),500,337357.40000000596,337357.09999999404,333479.676,333493.2999999821,333496.05,337384.111,8,400,39,,ISIC_0013831.JPG
break,html.Screen,4_88_1,2023-09-15T18:41:30.519Z,,0,,,NaN,,,,,,false,,,,337358.5,337358.2999999821,,337357.7999999821,,337384.111,8,400,,,
break_continue,html.Screen,4_88_2,2023-09-15T18:41:30.520Z,,0,,,NaN,,,,,,false,,,,337359.1999999881,337358.90000000596,,337358.6999999881,,337384.111,8,400,,,
sequence,flow.Sequence,4_88,2023-09-15T18:41:30.520Z,,0,,,3862.850000005972,completion,,,,,false,,,,337359.40000000596,337358.90000000596,333479.676,333493.1999999881,333496.05,337384.111,8,400,,,
trial,html.Screen,4_89_0,2023-09-15T18:41:35.568Z,,0,2,,5023.188999982143,response,ISIC_0011247.JPG,9,ISIC_0011752.JPG,ISIC_0011752.JPG,false,0,keypress(z),500,342407.6999999881,342407.2999999821,337343.147,337359.59999999404,337384.111,342422.116,8,400,40,,ISIC_0011247.JPG
break,html.Screen,4_89_1,2023-09-15T18:41:35.569Z,,0,,,NaN,,,,,,false,,,,342408.7999999821,342408.5,,342408,,342422.116,8,400,,,
break_continue,html.Screen,4_89_2,2023-09-15T18:41:35.570Z,,0,,,NaN,,,,,,false,,,,342409.40000000596,342409.1999999881,,342409,,342422.116,8,400,,,
sequence,flow.Sequence,4_89,2023-09-15T18:41:35.570Z,,0,,,5025.088999988104,completion,,,,,false,,,,342409.6999999881,342409.1999999881,337343.147,337359.59999999404,337384.111,342422.116,8,400,,,
trial,html.Screen,4_90_0,2023-09-15T18:41:38.679Z,,0,2,,3096.4839999940596,response,ISIC_5559730.JPG,6,ISIC_3313701.JPG,ISIC_3313701.JPG,false,0,keypress(z),500,345518.90000000596,345518.59999999404,342405.666,342409.90000000596,342422.116,345536.462,8,400,41,,ISIC_5559730.JPG
break,html.Screen,4_90_1,2023-09-15T18:41:38.680Z,,0,,,NaN,,,,,,false,,,,345520,345519.6999999881,,345519.09999999404,,345536.462,8,400,,,
break_continue,html.Screen,4_90_2,2023-09-15T18:41:38.681Z,,0,,,NaN,,,,,,false,,,,345520.59999999404,345520.40000000596,,345520.1999999881,,345536.462,8,400,,,
sequence,flow.Sequence,4_90,2023-09-15T18:41:38.681Z,,0,,,3098.2840000059805,completion,,,,,false,,,,345520.90000000596,345520.40000000596,342405.666,342409.7999999821,342422.116,345536.462,8,400,,,
trial,html.Screen,4_91_0,2023-09-15T18:41:41.234Z,,0,2,,2536.837999982119,response,ISIC_0030116.JPG,9,ISIC_4521222.JPG,ISIC_4521222.JPG,false,0,keypress(z),500,348073.6999999881,348073.2999999821,345519.701,345521.09999999404,345536.462,348084.005,8,400,42,,ISIC_0030116.JPG
break,html.Screen,4_91_1,2023-09-15T18:41:41.235Z,,0,,,NaN,,,,,,false,,,,348074.90000000596,348074.59999999404,,348074.09999999404,,348084.005,8,400,,,
break_continue,html.Screen,4_91_2,2023-09-15T18:41:41.236Z,,0,,,NaN,,,,,,false,,,,348075.5,348075.2999999821,,348075,,348084.005,8,400,,,
sequence,flow.Sequence,4_91,2023-09-15T18:41:41.236Z,,0,,,2538.837999982119,completion,,,,,false,,,,348075.6999999881,348075.2999999821,345519.701,345521,345536.462,348084.005,8,400,,,
trial,html.Screen,4_92_0,2023-09-15T18:41:45.010Z,,0,2,,3764.6949999880744,response,ISIC_0033530.JPG,10,ISIC_0706692.JPG,ISIC_0033530.JPG,false,1,keypress(m),500,351849.09999999404,351848.6999999881,348067.694,348075.90000000596,348084.005,351864.352,8,400,43,,ISIC_0706692.JPG
break,html.Screen,4_92_1,2023-09-15T18:41:45.011Z,,0,,,NaN,,,,,,false,,,,351850.1999999881,351850,,351849.40000000596,,351864.352,8,400,,,
break_continue,html.Screen,4_92_2,2023-09-15T18:41:45.011Z,,0,,,NaN,,,,,,false,,,,351850.7999999821,351850.6999999881,,351850.5,,351864.352,8,400,,,
sequence,flow.Sequence,4_92,2023-09-15T18:41:45.012Z,,0,,,3766.6949999880744,completion,,,,,false,,,,351851.09999999404,351850.6999999881,348067.694,348075.90000000596,348084.005,351864.352,8,400,,,
trial,html.Screen,4_93_0,2023-09-15T18:41:51.095Z,,0,2,,6069.6479999999865,response,ISIC_0062914.JPG,4,ISIC_0033368.JPG,ISIC_0062914.JPG,false,1,keypress(m),500,357934.40000000596,357934,351847.818,351851.2999999821,351864.352,357959.348,8,400,44,,ISIC_0033368.JPG
break,html.Screen,4_93_1,2023-09-15T18:41:51.096Z,,0,,,NaN,,,,,,false,,,,357935.5,357935.1999999881,,357934.6999999881,,357959.348,8,400,,,
break_continue,html.Screen,4_93_2,2023-09-15T18:41:51.096Z,,0,,,NaN,,,,,,false,,,,357936.09999999404,357935.90000000596,,357935.6999999881,,357959.348,8,400,,,
sequence,flow.Sequence,4_93,2023-09-15T18:41:51.097Z,,0,,,6071.548000005947,completion,,,,,false,,,,357936.1999999881,357935.90000000596,351847.818,351851.1999999881,351864.352,357959.348,8,400,,,
trial,html.Screen,4_94_0,2023-09-15T18:41:54.877Z,,0,2,,3757.4519999821205,response,ISIC_3213469.JPG,11,ISIC_0056849.JPG,ISIC_0056849.JPG,false,0,keypress(z),500,361717,361716.7999999821,357942.714,357936.2999999821,357959.348,361739.754,8,400,45,,ISIC_3213469.JPG
break,html.Screen,4_94_1,2023-09-15T18:41:54.879Z,,0,,,NaN,,,,,,false,,,,361718.1999999881,361717.90000000596,,361717.40000000596,,361739.754,8,400,,,
break_continue,html.Screen,4_94_2,2023-09-15T18:41:54.879Z,,0,,,NaN,,,,,,false,,,,361718.7999999821,361718.6999999881,,361718.40000000596,,361739.754,8,400,,,
sequence,flow.Sequence,4_94,2023-09-15T18:41:54.879Z,,0,,,3759.351999988081,completion,,,,,false,,,,361719.09999999404,361718.6999999881,357942.714,357936.2999999821,357959.348,361739.754,8,400,,,
trial,html.Screen,4_95_0,2023-09-15T18:41:58.338Z,,0,2,,3437.9459999880637,response,ISIC_8561963.JPG,7,ISIC_0053763.JPG,ISIC_0053763.JPG,false,0,keypress(z),500,365178,365177.6999999881,361723.054,361719.2999999821,361739.754,365186.923,8,400,46,,ISIC_8561963.JPG
break,html.Screen,4_95_1,2023-09-15T18:41:58.340Z,,0,,,NaN,,,,,,false,,,,365179.1999999881,365178.90000000596,,365178.40000000596,,365186.923,8,400,,,
break_continue,html.Screen,4_95_2,2023-09-15T18:41:58.340Z,,0,,,NaN,,,,,,false,,,,365179.7999999821,365179.59999999404,,365179.2999999821,,365186.923,8,400,,,
sequence,flow.Sequence,4_95,2023-09-15T18:41:58.340Z,,0,,,3439.845999994024,completion,,,,,false,,,,365180,365179.59999999404,361723.054,361719.2999999821,361739.754,365186.923,8,400,,,
trial,html.Screen,4_96_0,2023-09-15T18:42:01.246Z,,0,2,,2898.57699999999,response,ISIC_3313317.JPG,6,ISIC_0029639.JPG,ISIC_0029639.JPG,false,0,keypress(z),500,368085.90000000596,368085.5,365170.235,365180.1999999881,365186.923,368100.992,8,400,47,,ISIC_3313317.JPG
break,html.Screen,4_96_1,2023-09-15T18:42:01.247Z,,0,,,NaN,,,,,,false,,,,368087,368086.7999999821,,368086.1999999881,,368100.992,8,400,,,
break_continue,html.Screen,4_96_2,2023-09-15T18:42:01.248Z,,0,,,NaN,,,,,,false,,,,368087.7999999821,368087.59999999404,,368087.2999999821,,368100.992,8,400,,,
sequence,flow.Sequence,4_96,2023-09-15T18:42:01.248Z,,0,,,2900.6769999940298,completion,,,,,false,,,,368088,368087.59999999404,365170.235,365180.1999999881,365186.923,368100.992,8,400,,,
trial,html.Screen,4_97_0,2023-09-15T18:42:04.467Z,,0,2,,3205.607999994012,response,ISIC_0000502.JPG,10,ISIC_7740744.JPG,ISIC_0000502.JPG,false,1,keypress(m),500,371307,371306.59999999404,368084.605,368088.1999999881,368100.992,371314.948,8,400,48,,ISIC_7740744.JPG
break,html.Screen,4_97_1,2023-09-15T18:42:04.469Z,,0,,,NaN,,,,,,false,,,,371308.09999999404,371307.7999999821,,371307.2999999821,,371314.948,8,400,,,
break_continue,html.Screen,4_97_2,2023-09-15T18:42:04.469Z,,0,,,NaN,,,,,,false,,,,371308.6999999881,371308.5,,371308.2999999821,,371314.948,8,400,,,
sequence,flow.Sequence,4_97,2023-09-15T18:42:04.469Z,,0,,,3207.5079999999725,completion,,,,,false,,,,371309,371308.5,368084.605,368088.09999999404,368100.992,371314.948,8,400,,,
trial,html.Screen,4_98_0,2023-09-15T18:42:07.164Z,,0,2,,2688.3519999821438,response,ISIC_0000484.JPG,8,ISIC_0011135.JPG,ISIC_0000484.JPG,false,1,keypress(m),500,374003.5,374003.2999999821,371298.608,371309.1999999881,371314.948,374012.934,8,400,49,,ISIC_0011135.JPG
break,html.Screen,4_98_1,2023-09-15T18:42:07.165Z,,0,,,NaN,,,,,,false,,,,374004.90000000596,374004.5,,374004,,374012.934,8,400,,,
break_continue,html.Screen,4_98_2,2023-09-15T18:42:07.166Z,,0,,,NaN,,,,,,false,,,,374005.40000000596,374005.2999999821,,374005,,374012.934,8,400,,,
sequence,flow.Sequence,4_98,2023-09-15T18:42:07.166Z,,0,,,2690.3519999821438,completion,,,,,false,,,,374005.6999999881,374005.2999999821,371298.608,371309.09999999404,371314.948,374012.934,8,400,,,
trial,html.Screen,4_99_0,2023-09-15T18:42:10.296Z,,0,2,,3122.165999994031,response,ISIC_5126638.JPG,5,ISIC_0034164.JPG,ISIC_5126638.JPG,false,1,keypress(m),500,377135.2999999821,377135.09999999404,373996.162,374006,374012.934,377143.538,8,400,50,,ISIC_0034164.JPG
break,html.Screen,4_99_1,2023-09-15T18:42:20.280Z,,0,,,9992.119999999995,timeout,,,,,false,,,,387120,387118.868,377127.288,377135.59999999404,377143.538,387135.658,8,400,,,
break_continue,html.Screen,4_99_2,2023-09-15T18:43:21.202Z,,0,,,60892.842000000004,response,,,,,false,continue,keypress(Space),,448041.5,448028.5,387118.868,387120.1999999881,387135.658,448051.864,8,400,,,
sequence,flow.Sequence,4_99,2023-09-15T18:43:21.202Z,,0,,,74015.56599999999,completion,,,,,false,,,,448041.5,448028.5,373996.162,374005.90000000596,374012.934,448051.864,8,400,,,
trial,html.Screen,4_100_0,2023-09-15T18:43:24.742Z,,0,3,,3529.235999994038,response,ISIC_7658276.JPG,8,ISIC_6828587.JPG,ISIC_6828587.JPG,false,0,keypress(z),500,451581.5,451581.09999999404,448035.593,448041.59999999404,448051.864,451599.217,8,400,1,,ISIC_7658276.JPG
break,html.Screen,4_100_1,2023-09-15T18:43:24.743Z,,0,,,NaN,,,,,,false,,,,451582.6999999881,451582.40000000596,,451581.7999999821,,451599.217,8,400,,,
break_continue,html.Screen,4_100_2,2023-09-15T18:43:24.744Z,,0,,,NaN,,,,,,false,,,,451583.2999999821,451583.09999999404,,451582.7999999821,,451599.217,8,400,,,
sequence,flow.Sequence,4_100,2023-09-15T18:43:24.744Z,,0,,,3531.235999994038,completion,,,,,false,,,,451583.59999999404,451583.09999999404,448035.593,448041.59999999404,448051.864,451599.217,8,400,,,
trial,html.Screen,4_101_0,2023-09-15T18:43:27.584Z,,0,3,,2824.3829999940353,response,ISIC_0055048.JPG,12,ISIC_0024757.JPG,ISIC_0055048.JPG,false,1,keypress(m),500,454423.90000000596,454423.59999999404,451566.046,451585.5,451599.217,454429.964,8,400,2,,ISIC_0024757.JPG
break,html.Screen,4_101_1,2023-09-15T18:43:27.586Z,,0,,,NaN,,,,,,false,,,,454425.09999999404,454424.7999999821,,454424.2999999821,,454429.964,8,400,,,
break_continue,html.Screen,4_101_2,2023-09-15T18:43:27.586Z,,0,,,NaN,,,,,,false,,,,454425.6999999881,454425.5,,454425.2999999821,,454429.964,8,400,,,
sequence,flow.Sequence,4_101,2023-09-15T18:43:27.586Z,,0,,,2826.282999999996,completion,,,,,false,,,,454426,454425.5,451566.046,451585.40000000596,451599.217,454429.964,8,400,,,
trial,html.Screen,4_102_0,2023-09-15T18:43:30.262Z,,0,3,,2671.536000000022,response,ISIC_2151727.JPG,6,ISIC_8181142.JPG,ISIC_8181142.JPG,false,0,keypress(z),500,457101.7999999821,457101.5,454413.615,454426.09999999404,454429.964,457111.17,8,400,3,,ISIC_2151727.JPG
break,html.Screen,4_102_1,2023-09-15T18:43:30.263Z,,0,,,NaN,,,,,,false,,,,457103,457102.59999999404,,457102.09999999404,,457111.17,8,400,,,
break_continue,html.Screen,4_102_2,2023-09-15T18:43:30.264Z,,0,,,NaN,,,,,,false,,,,457103.59999999404,457103.2999999821,,457103.09999999404,,457111.17,8,400,,,
sequence,flow.Sequence,4_102,2023-09-15T18:43:30.264Z,,0,,,2673.3359999821405,completion,,,,,false,,,,457103.7999999821,457103.2999999821,454413.615,454426.09999999404,454429.964,457111.17,8,400,,,
trial,html.Screen,4_103_0,2023-09-15T18:43:32.866Z,,0,3,,2594.2300000059768,response,ISIC_2208006.JPG,5,ISIC_0010162.JPG,ISIC_0010162.JPG,false,0,keypress(z),500,459705.7999999821,459705.40000000596,457094.711,457104,457111.17,459709.031,8,400,4,,ISIC_2208006.JPG
break,html.Screen,4_103_1,2023-09-15T18:43:32.868Z,,0,,,NaN,,,,,,false,,,,459707,459706.6999999881,,459706.09999999404,,459709.031,8,400,,,
break_continue,html.Screen,4_103_2,2023-09-15T18:43:32.868Z,,0,,,NaN,,,,,,false,,,,459707.59999999404,459707.40000000596,,459707.1999999881,,459709.031,8,400,,,
sequence,flow.Sequence,4_103,2023-09-15T18:43:32.868Z,,0,,,2596.2300000059768,completion,,,,,false,,,,459707.90000000596,459707.40000000596,457094.711,457103.90000000596,457111.17,459709.031,8,400,,,
trial,html.Screen,4_104_0,2023-09-15T18:43:36.030Z,,0,3,,3159.668999988062,response,ISIC_0069504.JPG,5,ISIC_0063521.JPG,ISIC_0069504.JPG,false,1,keypress(m),500,462869.09999999404,462868.6999999881,459692.681,459708.09999999404,459709.031,462873.045,8,400,5,,ISIC_0063521.JPG
break,html.Screen,4_104_1,2023-09-15T18:43:36.031Z,,0,,,NaN,,,,,,false,,,,462870.2999999821,462870,,462869.40000000596,,462873.045,8,400,,,
break_continue,html.Screen,4_104_2,2023-09-15T18:43:36.031Z,,0,,,NaN,,,,,,false,,,,462870.90000000596,462870.6999999881,,462870.5,,462873.045,8,400,,,
sequence,flow.Sequence,4_104,2023-09-15T18:43:36.032Z,,0,,,3161.668999988062,completion,,,,,false,,,,462871.1999999881,462870.6999999881,459692.681,459708,459709.031,462873.045,8,400,,,
trial,html.Screen,4_105_0,2023-09-15T18:43:39.166Z,,0,3,,3132.3550000059768,response,ISIC_0000375.JPG,12,ISIC_0030002.JPG,ISIC_0000375.JPG,false,1,keypress(m),500,466005.90000000596,466005.40000000596,462856.677,462871.40000000596,462873.045,466020.496,8,400,6,,ISIC_0030002.JPG
break,html.Screen,4_105_1,2023-09-15T18:43:39.167Z,,0,,,NaN,,,,,,false,,,,466006.90000000596,466006.6999999881,,466006.09999999404,,466020.496,8,400,,,
break_continue,html.Screen,4_105_2,2023-09-15T18:43:39.168Z,,0,,,NaN,,,,,,false,,,,466007.59999999404,466007.40000000596,,466007.1999999881,,466020.496,8,400,,,
sequence,flow.Sequence,4_105,2023-09-15T18:43:39.168Z,,0,,,3134.3550000059768,completion,,,,,false,,,,466007.90000000596,466007.40000000596,462856.677,462871.40000000596,462873.045,466020.496,8,400,,,
trial,html.Screen,4_106_0,2023-09-15T18:43:42.984Z,,0,3,,3803.0040000000154,response,ISIC_9470020.JPG,7,ISIC_5281908.JPG,ISIC_5281908.JPG,false,0,keypress(z),500,469823.90000000596,469823.5,466004.043,466008,466020.496,469834.015,8,400,7,,ISIC_9470020.JPG
break,html.Screen,4_106_1,2023-09-15T18:43:42.985Z,,0,,,NaN,,,,,,false,,,,469825,469824.59999999404,,469824.09999999404,,469834.015,8,400,,,
break_continue,html.Screen,4_106_2,2023-09-15T18:43:42.986Z,,0,,,NaN,,,,,,false,,,,469825.59999999404,469825.40000000596,,469825.1999999881,,469834.015,8,400,,,
sequence,flow.Sequence,4_106,2023-09-15T18:43:42.986Z,,0,,,3804.904000005976,completion,,,,,false,,,,469825.7999999821,469825.40000000596,466004.043,466008,466020.496,469834.015,8,400,,,
trial,html.Screen,4_107_0,2023-09-15T18:43:46.114Z,,0,3,,3119.184999988065,response,ISIC_3395488.JPG,6,ISIC_0024268.JPG,ISIC_0024268.JPG,false,0,keypress(z),500,472953.5,472953.1999999881,469817.675,469826,469834.015,472965.065,8,400,8,,ISIC_3395488.JPG
break,html.Screen,4_107_1,2023-09-15T18:43:46.115Z,,0,,,NaN,,,,,,false,,,,472954.6999999881,472954.2999999821,,472953.7999999821,,472965.065,8,400,,,
break_continue,html.Screen,4_107_2,2023-09-15T18:43:46.116Z,,0,,,NaN,,,,,,false,,,,472955.2999999821,472955.09999999404,,472954.90000000596,,472965.065,8,400,,,
sequence,flow.Sequence,4_107,2023-09-15T18:43:46.116Z,,0,,,3121.0849999940256,completion,,,,,false,,,,472955.59999999404,472955.09999999404,469817.675,469826,469834.015,472965.065,8,400,,,
trial,html.Screen,4_108_0,2023-09-15T18:43:49.282Z,,0,3,,3155.9349999999977,response,ISIC_0301568.JPG,7,ISIC_7460111.JPG,ISIC_0301568.JPG,false,1,keypress(m),500,476121.40000000596,476121,472948.345,472955.6999999881,472965.065,476128.819,8,400,9,,ISIC_7460111.JPG
break,html.Screen,4_108_1,2023-09-15T18:43:49.283Z,,0,,,NaN,,,,,,false,,,,476122.5,476122.1999999881,,476121.59999999404,,476128.819,8,400,,,
break_continue,html.Screen,4_108_2,2023-09-15T18:43:49.284Z,,0,,,NaN,,,,,,false,,,,476123.1999999881,476123,,476122.6999999881,,476128.819,8,400,,,
sequence,flow.Sequence,4_108,2023-09-15T18:43:49.284Z,,0,,,3157.9349999999977,completion,,,,,false,,,,476123.40000000596,476123,472948.345,472955.6999999881,472965.065,476128.819,8,400,,,
trial,html.Screen,4_109_0,2023-09-15T18:43:52.154Z,,0,3,,2864.0810000059428,response,ISIC_8452205.JPG,8,ISIC_4850678.JPG,ISIC_4850678.JPG,false,0,keypress(z),500,478993.2999999821,478992.90000000596,476112.505,476123.59999999404,476128.819,479009.742,8,400,10,,ISIC_8452205.JPG
break,html.Screen,4_109_1,2023-09-15T18:43:52.155Z,,0,,,NaN,,,,,,false,,,,478994.5,478994.09999999404,,478993.59999999404,,479009.742,8,400,,,
break_continue,html.Screen,4_109_2,2023-09-15T18:43:52.156Z,,0,,,NaN,,,,,,false,,,,478995.09999999404,478994.90000000596,,478994.59999999404,,479009.742,8,400,,,
sequence,flow.Sequence,4_109,2023-09-15T18:43:52.156Z,,0,,,2866.0810000059428,completion,,,,,false,,,,478995.2999999821,478994.90000000596,476112.505,476123.5,476128.819,479009.742,8,400,,,
trial,html.Screen,4_110_0,2023-09-15T18:43:55.647Z,,0,3,,3476.2579999999725,response,ISIC_3463156.JPG,5,ISIC_0010789.JPG,ISIC_0010789.JPG,false,0,keypress(z),500,482486.5,482486,478993.217,478995.5,479009.742,482490.304,8,400,11,,ISIC_3463156.JPG
break,html.Screen,4_110_1,2023-09-15T18:43:55.648Z,,0,,,NaN,,,,,,false,,,,482487.7999999821,482487.40000000596,,482486.7999999821,,482490.304,8,400,,,
break_continue,html.Screen,4_110_2,2023-09-15T18:43:55.649Z,,0,,,NaN,,,,,,false,,,,482488.40000000596,482488.09999999404,,482487.90000000596,,482490.304,8,400,,,
sequence,flow.Sequence,4_110,2023-09-15T18:43:55.649Z,,0,,,3478.357999994012,completion,,,,,false,,,,482488.6999999881,482488.09999999404,478993.217,478995.5,479009.742,482490.304,8,400,,,
trial,html.Screen,4_111_0,2023-09-15T18:43:58.318Z,,0,3,,2666.6959999999963,response,ISIC_2914160.JPG,11,ISIC_0024244.JPG,ISIC_0024244.JPG,false,0,keypress(z),500,485157.40000000596,485157,482474.031,482488.7999999821,482490.304,485171.738,8,400,12,,ISIC_2914160.JPG
break,html.Screen,4_111_1,2023-09-15T18:43:58.319Z,,0,,,NaN,,,,,,false,,,,485158.59999999404,485158.1999999881,,485157.59999999404,,485171.738,8,400,,,
break_continue,html.Screen,4_111_2,2023-09-15T18:43:58.320Z,,0,,,NaN,,,,,,false,,,,485159.09999999404,485158.90000000596,,485158.7999999821,,485171.738,8,400,,,
sequence,flow.Sequence,4_111,2023-09-15T18:43:58.320Z,,0,,,2668.5960000059567,completion,,,,,false,,,,485159.5,485158.90000000596,482474.031,482488.7999999821,482490.304,485171.738,8,400,,,
trial,html.Screen,4_112_0,2023-09-15T18:44:01.004Z,,0,3,,2671.3619999940274,response,ISIC_0058224.JPG,9,ISIC_0082348.JPG,ISIC_0058224.JPG,false,1,keypress(m),500,487843.5,487843.09999999404,485155.127,485159.59999999404,485171.738,487852.596,8,400,13,,ISIC_0082348.JPG
break,html.Screen,4_112_1,2023-09-15T18:44:01.005Z,,0,,,NaN,,,,,,false,,,,487844.6999999881,487844.2999999821,,487843.7999999821,,487852.596,8,400,,,
break_continue,html.Screen,4_112_2,2023-09-15T18:44:01.006Z,,0,,,NaN,,,,,,false,,,,487845.1999999881,487845.09999999404,,487844.7999999821,,487852.596,8,400,,,
sequence,flow.Sequence,4_112,2023-09-15T18:44:01.006Z,,0,,,2673.3619999940274,completion,,,,,false,,,,487845.5,487845.09999999404,485155.127,485159.5,485171.738,487852.596,8,400,,,
trial,html.Screen,4_113_0,2023-09-15T18:44:04.091Z,,0,3,,3077.804000005941,response,ISIC_4589609.JPG,9,ISIC_0053659.JPG,ISIC_4589609.JPG,false,1,keypress(m),500,490930.7999999821,490930.40000000596,487836.113,487845.59999999404,487852.596,490933.363,8,400,14,,ISIC_0053659.JPG
break,html.Screen,4_113_1,2023-09-15T18:44:04.092Z,,0,,,NaN,,,,,,false,,,,490932,490931.6999999881,,490931.09999999404,,490933.363,8,400,,,
break_continue,html.Screen,4_113_2,2023-09-15T18:44:04.093Z,,0,,,NaN,,,,,,false,,,,490932.59999999404,490932.40000000596,,490932.1999999881,,490933.363,8,400,,,
sequence,flow.Sequence,4_113,2023-09-15T18:44:04.093Z,,0,,,3079.804000005941,completion,,,,,false,,,,490932.7999999821,490932.40000000596,487836.113,487845.59999999404,487852.596,490933.363,8,400,,,
trial,html.Screen,4_114_0,2023-09-15T18:44:07.234Z,,0,3,,3140.136999999988,response,ISIC_0064080.JPG,11,ISIC_0010934.JPG,ISIC_0010934.JPG,false,0,keypress(z),500,494073.7999999821,494073.5,490916.673,490933,490933.363,494080.701,8,400,15,,ISIC_0064080.JPG
break,html.Screen,4_114_1,2023-09-15T18:44:07.235Z,,0,,,NaN,,,,,,false,,,,494075,494074.6999999881,,494074.09999999404,,494080.701,8,400,,,
break_continue,html.Screen,4_114_2,2023-09-15T18:44:07.236Z,,0,,,NaN,,,,,,false,,,,494075.59999999404,494075.40000000596,,494075.1999999881,,494080.701,8,400,,,
sequence,flow.Sequence,4_114,2023-09-15T18:44:07.236Z,,0,,,3142.0370000059484,completion,,,,,false,,,,494075.7999999821,494075.40000000596,490916.673,490933,490933.363,494080.701,8,400,,,
trial,html.Screen,4_115_0,2023-09-15T18:44:09.929Z,,0,3,,2687.8989999940386,response,ISIC_4343552.JPG,6,ISIC_0014541.JPG,ISIC_0014541.JPG,false,0,keypress(z),500,496768.90000000596,496768.59999999404,494064.317,494076,494080.701,496778.649,8,400,16,,ISIC_4343552.JPG
break,html.Screen,4_115_1,2023-09-15T18:44:09.931Z,,0,,,NaN,,,,,,false,,,,496770.1999999881,496769.90000000596,,496769.2999999821,,496778.649,8,400,,,
break_continue,html.Screen,4_115_2,2023-09-15T18:44:09.931Z,,0,,,NaN,,,,,,false,,,,496770.7999999821,496770.59999999404,,496770.2999999821,,496778.649,8,400,,,
sequence,flow.Sequence,4_115,2023-09-15T18:44:09.931Z,,0,,,2689.8989999940386,completion,,,,,false,,,,496771,496770.59999999404,494064.317,494076,494080.701,496778.649,8,400,,,
trial,html.Screen,4_116_0,2023-09-15T18:44:12.532Z,,0,3,,2592.351000000024,response,ISIC_0061300.JPG,10,ISIC_0002041.JPG,ISIC_0061300.JPG,false,1,keypress(m),500,499371.2999999821,499371,496761.878,496771.1999999881,496778.649,499376.436,8,400,17,,ISIC_0002041.JPG
break,html.Screen,4_116_1,2023-09-15T18:44:12.533Z,,0,,,NaN,,,,,,false,,,,499372.5,499372.1999999881,,499371.59999999404,,499376.436,8,400,,,
break_continue,html.Screen,4_116_2,2023-09-15T18:44:12.534Z,,0,,,NaN,,,,,,false,,,,499373,499372.7999999821,,499372.59999999404,,499376.436,8,400,,,
sequence,flow.Sequence,4_116,2023-09-15T18:44:12.534Z,,0,,,2594.150999982143,completion,,,,,false,,,,499373.2999999821,499372.7999999821,496761.878,496771.09999999404,496778.649,499376.436,8,400,,,
trial,html.Screen,4_117_0,2023-09-15T18:44:15.282Z,,0,3,,2744.564000000013,response,ISIC_0010912.JPG,11,ISIC_0026666.JPG,ISIC_0010912.JPG,false,1,keypress(m),500,502121.40000000596,502121,499360.229,499373.5,499376.436,502124.177,8,400,18,,ISIC_0026666.JPG
break,html.Screen,4_117_1,2023-09-15T18:44:15.283Z,,0,,,NaN,,,,,,false,,,,502122.59999999404,502122.1999999881,,502121.6999999881,,502124.177,8,400,,,
break_continue,html.Screen,4_117_2,2023-09-15T18:44:15.284Z,,0,,,NaN,,,,,,false,,,,502123.09999999404,502122.90000000596,,502122.7999999821,,502124.177,8,400,,,
sequence,flow.Sequence,4_117,2023-09-15T18:44:15.284Z,,0,,,2746.4640000059735,completion,,,,,false,,,,502123.2999999821,502122.90000000596,499360.229,499373.40000000596,499376.436,502124.177,8,400,,,
trial,html.Screen,4_118_0,2023-09-15T18:44:18.104Z,,0,3,,2818.7230000059353,response,ISIC_0033405.JPG,5,ISIC_0061164.JPG,ISIC_0061164.JPG,false,0,keypress(z),500,504943.2999999821,504942.90000000596,502107.708,502123.59999999404,502124.177,504955.106,8,400,19,,ISIC_0033405.JPG
break,html.Screen,4_118_1,2023-09-15T18:44:18.105Z,,0,,,NaN,,,,,,false,,,,504944.40000000596,504944,,504943.5,,504955.106,8,400,,,
break_continue,html.Screen,4_118_2,2023-09-15T18:44:18.105Z,,0,,,NaN,,,,,,false,,,,504945,504944.7999999821,,504944.5,,504955.106,8,400,,,
sequence,flow.Sequence,4_118,2023-09-15T18:44:18.106Z,,0,,,2820.6229999820935,completion,,,,,false,,,,504945.1999999881,504944.7999999821,502107.708,502123.59999999404,502124.177,504955.106,8,400,,,
trial,html.Screen,4_119_0,2023-09-15T18:44:20.903Z,,0,3,,2786.9939999940107,response,ISIC_4009870.JPG,8,ISIC_0031074.JPG,ISIC_4009870.JPG,false,1,keypress(m),500,507742.40000000596,507742.09999999404,504938.759,504945.5,504955.106,507753.095,8,400,20,,ISIC_0031074.JPG
break,html.Screen,4_119_1,2023-09-15T18:44:20.904Z,,0,,,NaN,,,,,,false,,,,507743.59999999404,507743.1999999881,,507742.6999999881,,507753.095,8,400,,,
break_continue,html.Screen,4_119_2,2023-09-15T18:44:20.905Z,,0,,,NaN,,,,,,false,,,,507744.09999999404,507744,,507743.7999999821,,507753.095,8,400,,,
sequence,flow.Sequence,4_119,2023-09-15T18:44:20.905Z,,0,,,2788.893999999971,completion,,,,,false,,,,507744.40000000596,507744,504938.759,504945.40000000596,504955.106,507753.095,8,400,,,
trial,html.Screen,4_120_0,2023-09-15T18:44:23.662Z,,0,3,,2747.8050000059884,response,ISIC_7620514.JPG,7,ISIC_8796456.JPG,ISIC_7620514.JPG,false,1,keypress(m),500,510501.1999999881,510500.90000000596,507736.464,507744.59999999404,507753.095,510517.408,8,400,21,,ISIC_8796456.JPG
break,html.Screen,4_120_1,2023-09-15T18:44:23.663Z,,0,,,NaN,,,,,,false,,,,510502.2999999821,510502,,510501.5,,510517.408,8,400,,,
break_continue,html.Screen,4_120_2,2023-09-15T18:44:23.663Z,,0,,,NaN,,,,,,false,,,,510503.09999999404,510502.90000000596,,510502.59999999404,,510517.408,8,400,,,
sequence,flow.Sequence,4_120,2023-09-15T18:44:23.664Z,,0,,,2749.8050000059884,completion,,,,,false,,,,510503.40000000596,510502.90000000596,507736.464,507744.5,507753.095,510517.408,8,400,,,
trial,html.Screen,4_121_0,2023-09-15T18:44:26.568Z,,0,3,,2889.9920000059647,response,ISIC_7685920.JPG,6,ISIC_0032046.JPG,ISIC_7685920.JPG,false,1,keypress(m),500,513407.59999999404,513407.40000000596,510501.071,510503.59999999404,510517.408,513414.882,8,400,22,,ISIC_0032046.JPG
break,html.Screen,4_121_1,2023-09-15T18:44:26.569Z,,0,,,NaN,,,,,,false,,,,513408.7999999821,513408.40000000596,,513407.90000000596,,513414.882,8,400,,,
break_continue,html.Screen,4_121_2,2023-09-15T18:44:26.570Z,,0,,,NaN,,,,,,false,,,,513409.40000000596,513409.1999999881,,513409,,513414.882,8,400,,,
sequence,flow.Sequence,4_121,2023-09-15T18:44:26.570Z,,0,,,2891.7919999880833,completion,,,,,false,,,,513409.6999999881,513409.1999999881,510501.071,510503.5,510517.408,513414.882,8,400,,,
trial,html.Screen,4_122_0,2023-09-15T18:44:29.262Z,,0,3,,2685.9179999821354,response,ISIC_0062935.JPG,8,ISIC_3096949.JPG,ISIC_0062935.JPG,false,1,keypress(m),500,516101.1999999881,516100.7999999821,513398.24,513409.90000000596,513414.882,516112.863,8,400,23,,ISIC_3096949.JPG
break,html.Screen,4_122_1,2023-09-15T18:44:29.263Z,,0,,,NaN,,,,,,false,,,,516102.40000000596,516102.09999999404,,516101.59999999404,,516112.863,8,400,,,
break_continue,html.Screen,4_122_2,2023-09-15T18:44:29.263Z,,0,,,NaN,,,,,,false,,,,516103.09999999404,516102.7999999821,,516102.59999999404,,516112.863,8,400,,,
sequence,flow.Sequence,4_122,2023-09-15T18:44:29.264Z,,0,,,2687.9179999821354,completion,,,,,false,,,,516103.2999999821,516102.7999999821,513398.24,513409.90000000596,513414.882,516112.863,8,400,,,
trial,html.Screen,4_123_0,2023-09-15T18:44:32.089Z,,0,3,,2814.9369999821065,response,ISIC_1472731.JPG,8,ISIC_6811363.JPG,ISIC_6811363.JPG,false,0,keypress(z),500,518928.2999999821,518927.7999999821,516096.203,516103.5,516112.863,518943.568,8,400,24,,ISIC_1472731.JPG
break,html.Screen,4_123_1,2023-09-15T18:44:32.090Z,,0,,,NaN,,,,,,false,,,,518929.5,518929.09999999404,,518928.59999999404,,518943.568,8,400,,,
break_continue,html.Screen,4_123_2,2023-09-15T18:44:32.090Z,,0,,,NaN,,,,,,false,,,,518930.09999999404,518929.90000000596,,518929.59999999404,,518943.568,8,400,,,
sequence,flow.Sequence,4_123,2023-09-15T18:44:32.091Z,,0,,,2817.0370000059484,completion,,,,,false,,,,518930.40000000596,518929.90000000596,516096.203,516103.40000000596,516112.863,518943.568,8,400,,,
trial,html.Screen,4_124_0,2023-09-15T18:44:34.648Z,,0,3,,2543.832000005932,response,ISIC_7724764.JPG,7,ISIC_4978697.JPG,ISIC_4978697.JPG,false,0,keypress(z),500,521487.6999999881,521487.40000000596,518927.051,518930.5,518943.568,521491.616,8,400,25,,ISIC_7724764.JPG
break,html.Screen,4_124_1,2023-09-15T18:44:34.649Z,,0,,,NaN,,,,,,false,,,,521488.90000000596,521488.59999999404,,521488,,521491.616,8,400,,,
break_continue,html.Screen,4_124_2,2023-09-15T18:44:34.650Z,,0,,,NaN,,,,,,false,,,,521489.5,521489.2999999821,,521489.09999999404,,521491.616,8,400,,,
sequence,flow.Sequence,4_124,2023-09-15T18:44:34.650Z,,0,,,2545.73199998209,completion,,,,,false,,,,521489.7999999821,521489.2999999821,518927.051,518930.5,518943.568,521491.616,8,400,,,
trial,html.Screen,4_125_0,2023-09-15T18:44:37.764Z,,0,3,,3111.88400000002,response,ISIC_6285076.JPG,9,ISIC_0000155.JPG,ISIC_0000155.JPG,false,0,keypress(z),500,524603.900000006,524603.5,521475.336,521490,521491.616,524628.461,8,400,26,,ISIC_6285076.JPG
break,html.Screen,4_125_1,2023-09-15T18:44:37.766Z,,0,,,NaN,,,,,,false,,,,524605.1999999881,524604.7999999821,,524604.2999999821,,524628.461,8,400,,,
break_continue,html.Screen,4_125_2,2023-09-15T18:44:37.766Z,,0,,,NaN,,,,,,false,,,,524605.7999999821,524605.599999994,,524605.2999999821,,524628.461,8,400,,,
