sender,sender_type,sender_id,timestamp,meta,,blockNo,condition,duration,ended_on,img_left,img_reveal,img_right,loser,practice,response,response_action,selection_duration,time_commit,time_end,time_render,time_run,time_show,time_switch,total_blocks,total_trials,trialNo,url,winner
informed_consent,html.Screen,0,2023-11-02T20:46:18.258Z,"{""labjs_version"":""20.2.4"",""labjs_build"":{""flavor"":""production"",""commit"":""f5b4a49f956347addd546a832a3327688c2c0fef""},""location"":""https://run.pavlovia.org/MurrayBennett/melanoma-2afc/?participant=67670&platform=sona"",""userAgent"":""Mozilla/5.0 (Macintosh; Intel Mac OS X 10_15_7) AppleWebKit/537.36 (KHTML, like Gecko) Chrome/114.0.0.0 Safari/537.36"",""platform"":""MacIntel"",""language"":""en-US"",""locale"":""en-US"",""timeZone"":""America/Chicago"",""timezoneOffset"":300,""screen_width"":1470,""screen_height"":956,""scroll_width"":1470,""scroll_height"":761,""window_innerWidth"":1470,""window_innerHeight"":809,""devicePixelRatio"":2}",,,,4439.845000011921,response,,,,,,consent,click button,,6424.899999976158,6423.800000011921,1967.289,1971.5,1983.955,6433.777,,,,"{""participant"":""67670"",""platform"":""sona""}",
Welcome,html.Screen,1,2023-11-02T20:46:47.804Z,,,,colourful,29533.722999999998,response,,,,,,continue,click button,,35970.80000001192,35967.5,6417.111,6425,6433.777,35983.942,,,,,
trial,html.Screen,2_0_0,2023-11-02T20:46:52.662Z,,0,0,,4844.757999988076,response,ISIC_0063388.JPG,,ISIC_0025593.JPG,ISIC_0063388.JPG,true,1,keypress(m),500,40829.5,40828.69999998808,35967.276,35971.30000001192,35983.942,40833.748,1,6,1,,ISIC_0025593.JPG
sequence,flow.Sequence,2_0,2023-11-02T20:46:52.663Z,,0,,,4844.757999988076,completion,,,,,true,,,,40830.10000002384,40828.69999998808,35967.276,35971.19999998808,35983.942,40833.748,1,6,,,
trial,html.Screen,2_1_0,2023-11-02T20:46:58.709Z,,0,0,,6041.852000023842,response,ISIC_0028178.JPG,,ISIC_1309015.JPG,ISIC_1309015.JPG,true,0,keypress(z),500,46876.19999998808,46875.60000002384,40817.082,40830.19999998808,40833.748,46883.8,1,6,2,,ISIC_0028178.JPG
sequence,flow.Sequence,2_1,2023-11-02T20:46:58.710Z,,0,,,6041.852000023842,completion,,,,,true,,,,46876.60000002384,46875.60000002384,40817.082,40830.19999998808,40833.748,46883.8,1,6,,,
trial,html.Screen,2_2_0,2023-11-02T20:47:02.660Z,,0,0,,3942.500000011918,response,ISIC_0031128.JPG,,ISIC_3314853.JPG,ISIC_3314853.JPG,true,0,keypress(z),500,50826.80000001192,50826.30000001192,46867.134,46876.89999997616,46883.8,50833.642,1,6,3,,ISIC_0031128.JPG
sequence,flow.Sequence,2_2,2023-11-02T20:47:02.660Z,,0,,,3942.500000011918,completion,,,,,true,,,,50827.19999998808,50826.30000001192,46867.134,46876.69999998808,46883.8,50833.642,1,6,,,
trial,html.Screen,2_3_0,2023-11-02T20:47:06.174Z,,0,0,,3506.458000023842,response,ISIC_0031612.JPG,,ISIC_8980141.JPG,ISIC_8980141.JPG,true,0,keypress(z),500,54340.69999998808,54340.10000002384,50816.976,50827.5,50833.642,54350.168,1,6,4,,ISIC_0031612.JPG
sequence,flow.Sequence,2_3,2023-11-02T20:47:06.174Z,,0,,,3506.458000023842,completion,,,,,true,,,,54341.30000001192,54340.10000002384,50816.976,50827.39999997616,50833.642,54350.168,1,6,,,
trial,html.Screen,2_4_0,2023-11-02T20:47:09.309Z,,0,0,,3124.7319999761603,response,ISIC_1197737.JPG,,ISIC_9721604.JPG,ISIC_9721604.JPG,true,0,keypress(z),500,57475.5,57474.89999997616,54333.502,54341.5,54350.168,57483.896,1,6,5,,ISIC_1197737.JPG
sequence,flow.Sequence,2_4,2023-11-02T20:47:09.309Z,,0,,,3124.7319999761603,completion,,,,,true,,,,57476,57474.89999997616,54333.502,54341.39999997616,54350.168,57483.896,1,6,,,
trial,html.Screen,2_5_0,2023-11-02T20:47:15.859Z,,0,0,,6541.704000023841,response,ISIC_0025346.JPG,,ISIC_0010681.JPG,ISIC_0010681.JPG,true,0,keypress(z),500,64026,64025.60000002384,57467.23,57476.19999998808,57483.896,64033.634,1,6,6,,ISIC_0025346.JPG
sequence,flow.Sequence,2_5,2023-11-02T20:47:15.859Z,,0,,,6541.704000023841,completion,,,,,true,,,,64026.30000001192,64025.60000002384,57467.23,57476.19999998808,57483.896,64033.634,1,6,,,
loop,flow.Loop,2,2023-11-02T20:47:15.859Z,,,,,28041.65800002384,completion,,,,,true,,,,64026.5,64025.60000002384,35967.276,35971.19999998808,35983.942,64033.634,1,6,,,
exp_instructions,html.Screen,3,2023-11-02T20:47:26.937Z,,,,,11060.26599997616,response,,,,,,continue,keypress(Space),,75103.69999998808,75093.89999997616,64016.968,64026.60000002384,64033.634,75116.524,,,,,
trial,html.Screen,4_0_0,2023-11-02T20:47:30.982Z,,0,1,,4031.8759999761533,response,ISIC_0061164.JPG,14,ISIC_0027842.JPG,ISIC_0061164.JPG,false,1,keypress(m),500,79148.89999997616,79148.39999997616,75099.858,75104,75116.524,79150.011,8,400,1,,ISIC_0027842.JPG
break,html.Screen,4_0_1,2023-11-02T20:47:30.984Z,,0,,,NaN,,,,,,false,,,,79150.5,79150.19999998808,,79149.19999998808,,79150.011,8,400,,,
break_continue,html.Screen,4_0_2,2023-11-02T20:47:30.984Z,,0,,,NaN,,,,,,false,,,,79151.10000002384,79151,,79150.80000001192,,79150.011,8,400,,,
sequence,flow.Sequence,4_0,2023-11-02T20:47:30.984Z,,0,,,4034.475999999995,completion,,,,,false,,,,79151.30000001192,79151,75099.858,75104,75116.524,79150.011,8,400,,,
trial,html.Screen,4_1_0,2023-11-02T20:47:37.038Z,,0,1,,6054.1889999880805,response,ISIC_5813642.JPG,8,ISIC_6258744.JPG,ISIC_5813642.JPG,false,1,keypress(m),500,85204.69999998808,85204.19999998808,79133.345,79151.5,79150.011,85216.435,8,400,2,,ISIC_6258744.JPG
break,html.Screen,4_1_1,2023-11-02T20:47:37.039Z,,0,,,NaN,,,,,,false,,,,85206.19999998808,85205.80000001192,,85205,,85216.435,8,400,,,
break_continue,html.Screen,4_1_2,2023-11-02T20:47:37.040Z,,0,,,NaN,,,,,,false,,,,85206.60000002384,85206.5,,85206.39999997616,,85216.435,8,400,,,
sequence,flow.Sequence,4_1,2023-11-02T20:47:37.040Z,,0,,,6056.489000000001,completion,,,,,false,,,,85206.80000001192,85206.5,79133.345,79151.39999997616,79150.011,85216.435,8,400,,,
trial,html.Screen,4_2_0,2023-11-02T20:47:40.299Z,,0,1,,3249.5650000000023,response,ISIC_5754070.JPG,9,ISIC_3328295.JPG,ISIC_3328295.JPG,false,0,keypress(z),500,88466.39999997616,88466,85199.769,85206.89999997616,85216.435,88483.764,8,400,3,,ISIC_5754070.JPG
break,html.Screen,4_2_1,2023-11-02T20:47:40.301Z,,0,,,NaN,,,,,,false,,,,88467.69999998808,88467.39999997616,,88466.60000002384,,88483.764,8,400,,,
break_continue,html.Screen,4_2_2,2023-11-02T20:47:40.301Z,,0,,,NaN,,,,,,false,,,,88468.19999998808,88468,,88467.80000001192,,88483.764,8,400,,,
sequence,flow.Sequence,4_2,2023-11-02T20:47:40.301Z,,0,,,3251.5650000000023,completion,,,,,false,,,,88468.39999997616,88468,85199.769,85206.89999997616,85216.435,88483.764,8,400,,,
trial,html.Screen,4_3_0,2023-11-02T20:47:43.302Z,,0,1,,2985.1359999761626,response,ISIC_9256438.JPG,11,ISIC_1858989.JPG,ISIC_9256438.JPG,false,1,keypress(m),500,91469.30000001192,91468.89999997616,88467.098,88468.60000002384,88483.764,91483.644,8,400,4,,ISIC_1858989.JPG
break,html.Screen,4_3_1,2023-11-02T20:47:43.304Z,,0,,,NaN,,,,,,false,,,,91470.60000002384,91470.30000001192,,91469.5,,91483.644,8,400,,,
break_continue,html.Screen,4_3_2,2023-11-02T20:47:43.304Z,,0,,,NaN,,,,,,false,,,,91471.10000002384,91471,,91470.80000001192,,91483.644,8,400,,,
sequence,flow.Sequence,4_3,2023-11-02T20:47:43.304Z,,0,,,2987.2360000000044,completion,,,,,false,,,,91471.30000001192,91471,88467.098,88468.5,88483.764,91483.644,8,400,,,
trial,html.Screen,4_4_0,2023-11-02T20:47:49.005Z,,0,1,,5688.055999988079,response,ISIC_3343475.JPG,8,ISIC_0062468.JPG,ISIC_0062468.JPG,false,0,keypress(z),500,97172.10000002384,97171.69999998808,91466.978,91471.39999997616,91483.644,97183.843,8,400,5,,ISIC_3343475.JPG
break,html.Screen,4_4_1,2023-11-02T20:47:49.006Z,,0,,,NaN,,,,,,false,,,,97173.39999997616,97173.10000002384,,97172.39999997616,,97183.843,8,400,,,
break_continue,html.Screen,4_4_2,2023-11-02T20:47:49.007Z,,0,,,NaN,,,,,,false,,,,97173.89999997616,97173.80000001192,,97173.60000002384,,97183.843,8,400,,,
sequence,flow.Sequence,4_4,2023-11-02T20:47:49.007Z,,0,,,5690.156000011921,completion,,,,,false,,,,97174.10000002384,97173.80000001192,91466.978,91471.39999997616,91483.644,97183.843,8,400,,,
trial,html.Screen,4_5_0,2023-11-02T20:47:52.731Z,,0,1,,3714.0569999761647,response,ISIC_0067395.JPG,9,ISIC_2876073.JPG,ISIC_2876073.JPG,false,0,keypress(z),500,100898.30000001192,100897.89999997616,97167.177,97174.30000001192,97183.843,100900.361,8,400,6,,ISIC_0067395.JPG
break,html.Screen,4_5_1,2023-11-02T20:47:52.733Z,,0,,,NaN,,,,,,false,,,,100899.60000002384,100899.30000001192,,100898.60000002384,,100900.361,8,400,,,
break_continue,html.Screen,4_5_2,2023-11-02T20:47:52.733Z,,0,,,NaN,,,,,,false,,,,100899.89999997616,100899.89999997616,,100899.69999998808,,100900.361,8,400,,,
sequence,flow.Sequence,4_5,2023-11-02T20:47:52.733Z,,0,,,3716.0569999761647,completion,,,,,false,,,,100900.10000002384,100899.89999997616,97167.177,97174.19999998808,97183.843,100900.361,8,400,,,
trial,html.Screen,4_6_0,2023-11-02T20:47:56.492Z,,0,1,,3758.0389999761537,response,ISIC_5651106.JPG,11,ISIC_0058022.JPG,ISIC_5651106.JPG,false,1,keypress(m),500,104658.80000001192,104658.39999997616,100883.695,100900.30000001192,100900.361,104666.877,8,400,7,,ISIC_0058022.JPG
break,html.Screen,4_6_1,2023-11-02T20:47:56.493Z,,0,,,NaN,,,,,,false,,,,104660.10000002384,104659.80000001192,,104659.10000002384,,104666.877,8,400,,,
break_continue,html.Screen,4_6_2,2023-11-02T20:47:56.494Z,,0,,,NaN,,,,,,false,,,,104660.60000002384,104660.39999997616,,104660.19999998808,,104666.877,8,400,,,
sequence,flow.Sequence,4_6,2023-11-02T20:47:56.494Z,,0,,,3760.0389999761537,completion,,,,,false,,,,104660.69999998808,104660.39999997616,100883.695,100900.19999998808,100900.361,104666.877,8,400,,,
trial,html.Screen,4_7_0,2023-11-02T20:48:01.019Z,,0,1,,4519.022999976165,response,ISIC_8246858.JPG,10,ISIC_0060999.JPG,ISIC_8246858.JPG,false,1,keypress(m),500,109186.30000001192,109185.89999997616,104650.211,104660.89999997616,104666.877,109200.512,8,400,8,,ISIC_0060999.JPG
break,html.Screen,4_7_1,2023-11-02T20:48:01.021Z,,0,,,NaN,,,,,,false,,,,109187.69999998808,109187.30000001192,,109186.69999998808,,109200.512,8,400,,,
break_continue,html.Screen,4_7_2,2023-11-02T20:48:01.021Z,,0,,,NaN,,,,,,false,,,,109188,109188,,109187.89999997616,,109200.512,8,400,,,
sequence,flow.Sequence,4_7,2023-11-02T20:48:01.021Z,,0,,,4521.123000000007,completion,,,,,false,,,,109188.10000002384,109188,104650.211,104660.80000001192,104666.877,109200.512,8,400,,,
trial,html.Screen,4_8_0,2023-11-02T20:48:08.998Z,,0,1,,7963.687999988077,response,ISIC_0567814.JPG,11,ISIC_7912104.JPG,ISIC_0567814.JPG,false,1,keypress(m),500,117164.69999998808,117164.19999998808,109183.846,109188.10000002384,109200.512,117166.86,8,400,9,,ISIC_7912104.JPG
break,html.Screen,4_8_1,2023-11-02T20:48:08.999Z,,0,,,NaN,,,,,,false,,,,117166,117165.69999998808,,117164.89999997616,,117166.86,8,400,,,
break_continue,html.Screen,4_8_2,2023-11-02T20:48:08.999Z,,0,,,NaN,,,,,,false,,,,117166.39999997616,117166.30000001192,,117166.10000002384,,117166.86,8,400,,,
sequence,flow.Sequence,4_8,2023-11-02T20:48:08.999Z,,0,,,7965.7880000119185,completion,,,,,false,,,,117166.39999997616,117166.30000001192,109183.846,109188.10000002384,109200.512,117166.86,8,400,,,
trial,html.Screen,4_9_0,2023-11-02T20:48:12.126Z,,0,1,,3126.0399999761576,response,ISIC_5787517.JPG,6,ISIC_4673648.JPG,ISIC_4673648.JPG,false,0,keypress(z),500,120293.39999997616,120292.89999997616,117150.194,117166.60000002384,117166.86,120300.471,8,400,10,,ISIC_5787517.JPG
break,html.Screen,4_9_1,2023-11-02T20:48:12.128Z,,0,,,NaN,,,,,,false,,,,120294.80000001192,120294.5,,120293.69999998808,,120300.471,8,400,,,
break_continue,html.Screen,4_9_2,2023-11-02T20:48:12.129Z,,0,,,NaN,,,,,,false,,,,120296.30000001192,120295,,120294.89999997616,,120300.471,8,400,,,
sequence,flow.Sequence,4_9,2023-11-02T20:48:12.129Z,,0,,,3128.1399999999994,completion,,,,,false,,,,120296.39999997616,120295,117150.194,117166.5,117166.86,120300.471,8,400,,,
trial,html.Screen,4_10_0,2023-11-02T20:48:16.445Z,,0,1,,4311.428999976153,response,ISIC_2752919.JPG,0,ISIC_7008969.JPG,ISIC_7008969.JPG,false,0,keypress(z),500,124612.19999998808,124611.89999997616,120283.805,120296.5,120300.471,124616.965,8,400,11,,ISIC_2752919.JPG
break,html.Screen,4_10_1,2023-11-02T20:48:16.446Z,,0,,,NaN,,,,,,false,,,,124613.5,124613.30000001192,,124612.5,,124616.965,8,400,,,
break_continue,html.Screen,4_10_2,2023-11-02T20:48:16.447Z,,0,,,NaN,,,,,,false,,,,124614,124613.80000001192,,124613.60000002384,,124616.965,8,400,,,
sequence,flow.Sequence,4_10,2023-11-02T20:48:16.447Z,,0,,,4313.329000011916,completion,,,,,false,,,,124614.19999998808,124613.80000001192,120283.805,120296.39999997616,120300.471,124616.965,8,400,,,
trial,html.Screen,4_11_0,2023-11-02T20:48:19.445Z,,0,1,,2994.8350000119244,response,ISIC_1108178.JPG,6,ISIC_6339509.JPG,ISIC_1108178.JPG,false,1,keypress(m),500,127612.19999998808,127611.80000001192,124600.299,124614.30000001192,124616.965,127616.845,8,400,12,,ISIC_6339509.JPG
break,html.Screen,4_11_1,2023-11-02T20:48:19.446Z,,0,,,NaN,,,,,,false,,,,127613.39999997616,127613.19999998808,,127612.39999997616,,127616.845,8,400,,,
break_continue,html.Screen,4_11_2,2023-11-02T20:48:19.447Z,,0,,,NaN,,,,,,false,,,,127613.80000001192,127613.80000001192,,127613.5,,127616.845,8,400,,,
sequence,flow.Sequence,4_11,2023-11-02T20:48:19.447Z,,0,,,2996.8350000119244,completion,,,,,false,,,,127614.10000002384,127613.80000001192,124600.299,124614.19999998808,124616.965,127616.845,8,400,,,
trial,html.Screen,4_12_0,2023-11-02T20:48:22.693Z,,0,1,,3242.4550000119198,response,ISIC_0024808.JPG,9,ISIC_7837503.JPG,ISIC_7837503.JPG,false,0,keypress(z),500,130859.69999998808,130859.30000001192,127600.179,127614.19999998808,127616.845,130867.117,8,400,13,,ISIC_0024808.JPG
break,html.Screen,4_12_1,2023-11-02T20:48:22.694Z,,0,,,NaN,,,,,,false,,,,130860.89999997616,130860.60000002384,,130860,,130867.117,8,400,,,
break_continue,html.Screen,4_12_2,2023-11-02T20:48:22.694Z,,0,,,NaN,,,,,,false,,,,130861.39999997616,130861.30000001192,,130861,,130867.117,8,400,,,
sequence,flow.Sequence,4_12,2023-11-02T20:48:22.695Z,,0,,,3244.4550000119198,completion,,,,,false,,,,130861.5,130861.30000001192,127600.179,127614.10000002384,127616.845,130867.117,8,400,,,
trial,html.Screen,4_13_0,2023-11-02T20:48:25.636Z,,0,1,,2935.2829999761598,response,ISIC_9210255.JPG,9,ISIC_3799267.JPG,ISIC_9210255.JPG,false,1,keypress(m),500,133802.80000001192,133802.39999997616,130850.451,130861.69999998808,130867.117,133816.999,8,400,14,,ISIC_3799267.JPG
break,html.Screen,4_13_1,2023-11-02T20:48:25.637Z,,0,,,NaN,,,,,,false,,,,133804,133803.80000001192,,133803.10000002384,,133816.999,8,400,,,
break_continue,html.Screen,4_13_2,2023-11-02T20:48:25.638Z,,0,,,NaN,,,,,,false,,,,133804.60000002384,133804.39999997616,,133804.10000002384,,133816.999,8,400,,,
sequence,flow.Sequence,4_13,2023-11-02T20:48:25.638Z,,0,,,2937.2829999761598,completion,,,,,false,,,,133804.69999998808,133804.39999997616,130850.451,130861.5,130867.117,133816.999,8,400,,,
trial,html.Screen,4_14_0,2023-11-02T20:48:32.508Z,,0,1,,6857.400999976147,response,ISIC_4699989.JPG,10,ISIC_1530981.JPG,ISIC_4699989.JPG,false,1,keypress(m),500,140674.80000001192,140674.39999997616,133800.333,133804.89999997616,133816.999,140683.391,8,400,15,,ISIC_1530981.JPG
break,html.Screen,4_14_1,2023-11-02T20:48:32.509Z,,0,,,NaN,,,,,,false,,,,140676,140675.80000001192,,140675,,140683.391,8,400,,,
break_continue,html.Screen,4_14_2,2023-11-02T20:48:32.510Z,,0,,,NaN,,,,,,false,,,,140676.5,140676.30000001192,,140676.19999998808,,140683.391,8,400,,,
sequence,flow.Sequence,4_14,2023-11-02T20:48:32.510Z,,0,,,6859.30100001191,completion,,,,,false,,,,140676.69999998808,140676.30000001192,133800.333,133804.89999997616,133816.999,140683.391,8,400,,,
trial,html.Screen,4_15_0,2023-11-02T20:48:35.973Z,,0,1,,3456.308999988076,response,ISIC_0069995.JPG,11,ISIC_4679971.JPG,ISIC_4679971.JPG,false,0,keypress(z),500,144140,144139.69999998808,140666.725,140676.69999998808,140683.391,144150.341,8,400,16,,ISIC_0069995.JPG
break,html.Screen,4_15_1,2023-11-02T20:48:35.974Z,,0,,,NaN,,,,,,false,,,,144141.30000001192,144141.10000002384,,144140.39999997616,,144150.341,8,400,,,
break_continue,html.Screen,4_15_2,2023-11-02T20:48:35.975Z,,0,,,NaN,,,,,,false,,,,144141.69999998808,144141.69999998808,,144141.5,,144150.341,8,400,,,
sequence,flow.Sequence,4_15,2023-11-02T20:48:35.975Z,,0,,,3458.308999988076,completion,,,,,false,,,,144141.80000001192,144141.69999998808,140666.725,140676.69999998808,140683.391,144150.341,8,400,,,
trial,html.Screen,4_16_0,2023-11-02T20:48:39.380Z,,0,1,,3396.459000011935,response,ISIC_9337870.JPG,11,ISIC_0294687.JPG,ISIC_0294687.JPG,false,0,keypress(z),500,147547.19999998808,147546.80000001192,144133.675,144141.89999997616,144150.341,147550.205,8,400,17,,ISIC_9337870.JPG
break,html.Screen,4_16_1,2023-11-02T20:48:39.381Z,,0,,,NaN,,,,,,false,,,,147548.39999997616,147548.19999998808,,147547.60000002384,,147550.205,8,400,,,
break_continue,html.Screen,4_16_2,2023-11-02T20:48:39.382Z,,0,,,NaN,,,,,,false,,,,147548.89999997616,147548.80000001192,,147548.60000002384,,147550.205,8,400,,,
sequence,flow.Sequence,4_16,2023-11-02T20:48:39.382Z,,0,,,3398.459000011935,completion,,,,,false,,,,147549.10000002384,147548.80000001192,144133.675,144141.89999997616,144150.341,147550.205,8,400,,,
trial,html.Screen,4_17_0,2023-11-02T20:48:43.550Z,,0,1,,4166.295000000013,response,ISIC_0025093.JPG,8,ISIC_2337786.JPG,ISIC_2337786.JPG,false,0,keypress(z),500,151716.89999997616,151716.5,147533.539,147549.19999998808,147550.205,151733.718,8,400,18,,ISIC_0025093.JPG
break,html.Screen,4_17_1,2023-11-02T20:48:43.551Z,,0,,,NaN,,,,,,false,,,,151718.10000002384,151717.89999997616,,151717.19999998808,,151733.718,8,400,,,
break_continue,html.Screen,4_17_2,2023-11-02T20:48:43.552Z,,0,,,NaN,,,,,,false,,,,151718.60000002384,151718.39999997616,,151718.30000001192,,151733.718,8,400,,,
sequence,flow.Sequence,4_17,2023-11-02T20:48:43.552Z,,0,,,4168.194999976171,completion,,,,,false,,,,151718.69999998808,151718.39999997616,147533.539,147549.19999998808,147550.205,151733.718,8,400,,,
trial,html.Screen,4_18_0,2023-11-02T20:48:47.318Z,,0,1,,3750.6819999761647,response,ISIC_0005028.JPG,8,ISIC_0010023.JPG,ISIC_0005028.JPG,false,1,keypress(m),500,155484.89999997616,155484.39999997616,151717.052,151718.80000001192,151733.718,155500.234,8,400,19,,ISIC_0010023.JPG
break,html.Screen,4_18_1,2023-11-02T20:48:47.319Z,,0,,,NaN,,,,,,false,,,,155486.10000002384,155485.89999997616,,155485.19999998808,,155500.234,8,400,,,
break_continue,html.Screen,4_18_2,2023-11-02T20:48:47.320Z,,0,,,NaN,,,,,,false,,,,155486.60000002384,155486.39999997616,,155486.19999998808,,155500.234,8,400,,,
sequence,flow.Sequence,4_18,2023-11-02T20:48:47.320Z,,0,,,3752.6819999761647,completion,,,,,false,,,,155486.69999998808,155486.39999997616,151717.052,151718.80000001192,151733.718,155500.234,8,400,,,
trial,html.Screen,4_19_0,2023-11-02T20:48:50.556Z,,0,1,,3222.566000011924,response,ISIC_0059336.JPG,8,ISIC_0067743.JPG,ISIC_0067743.JPG,false,0,keypress(z),500,158723.19999998808,158722.80000001192,155483.568,155486.89999997616,155500.234,158733.438,8,400,20,,ISIC_0059336.JPG
break,html.Screen,4_19_1,2023-11-02T20:48:50.557Z,,0,,,NaN,,,,,,false,,,,158724.30000001192,158724.10000002384,,158723.5,,158733.438,8,400,,,
break_continue,html.Screen,4_19_2,2023-11-02T20:48:50.558Z,,0,,,NaN,,,,,,false,,,,158724.60000002384,158724.60000002384,,158724.39999997616,,158733.438,8,400,,,
sequence,flow.Sequence,4_19,2023-11-02T20:48:50.558Z,,0,,,3224.366000023845,completion,,,,,false,,,,158724.69999998808,158724.60000002384,155483.568,155486.80000001192,155500.234,158733.438,8,400,,,
trial,html.Screen,4_20_0,2023-11-02T20:48:53.862Z,,0,1,,3294.9619999761635,response,ISIC_2410736.JPG,12,ISIC_8724944.JPG,ISIC_2410736.JPG,false,1,keypress(m),500,162028.69999998808,162028.39999997616,158716.772,158724.80000001192,158733.438,162033.737,8,400,21,,ISIC_8724944.JPG
break,html.Screen,4_20_1,2023-11-02T20:48:53.863Z,,0,,,NaN,,,,,,false,,,,162029.5,162029.39999997616,,162028.89999997616,,162033.737,8,400,,,
break_continue,html.Screen,4_20_2,2023-11-02T20:48:53.863Z,,0,,,NaN,,,,,,false,,,,162029.80000001192,162029.69999998808,,162029.60000002384,,162033.737,8,400,,,
sequence,flow.Sequence,4_20,2023-11-02T20:48:53.863Z,,0,,,3296.2619999880844,completion,,,,,false,,,,162029.80000001192,162029.69999998808,158716.772,158724.80000001192,158733.438,162033.737,8,400,,,
trial,html.Screen,4_21_0,2023-11-02T20:48:58.877Z,,0,1,,5010.263000000006,response,ISIC_0012160.JPG,10,ISIC_5370803.JPG,ISIC_0012160.JPG,false,1,keypress(m),500,167044.30000001192,167044,162017.071,162029.89999997616,162033.737,167050.203,8,400,22,,ISIC_5370803.JPG
break,html.Screen,4_21_1,2023-11-02T20:48:58.879Z,,0,,,NaN,,,,,,false,,,,167045.69999998808,167045.39999997616,,167044.69999998808,,167050.203,8,400,,,
break_continue,html.Screen,4_21_2,2023-11-02T20:48:58.879Z,,0,,,NaN,,,,,,false,,,,167046.10000002384,167045.89999997616,,167045.80000001192,,167050.203,8,400,,,
sequence,flow.Sequence,4_21,2023-11-02T20:48:58.879Z,,0,,,5012.162999976164,completion,,,,,false,,,,167046.19999998808,167045.89999997616,162017.071,162029.89999997616,162033.737,167050.203,8,400,,,
trial,html.Screen,4_22_0,2023-11-02T20:49:02.203Z,,0,1,,3319.4969999880705,response,ISIC_3900049.JPG,7,ISIC_5405889.JPG,ISIC_5405889.JPG,false,0,keypress(z),500,170370,170369.69999998808,167033.537,167046.30000001192,167050.203,170383.403,8,400,23,,ISIC_3900049.JPG
break,html.Screen,4_22_1,2023-11-02T20:49:02.204Z,,0,,,NaN,,,,,,false,,,,170371.39999997616,170371.10000002384,,170370.39999997616,,170383.403,8,400,,,
break_continue,html.Screen,4_22_2,2023-11-02T20:49:02.205Z,,0,,,NaN,,,,,,false,,,,170371.89999997616,170371.80000001192,,170371.60000002384,,170383.403,8,400,,,
sequence,flow.Sequence,4_22,2023-11-02T20:49:02.205Z,,0,,,3321.5970000119123,completion,,,,,false,,,,170372,170371.80000001192,167033.537,167046.30000001192,167050.203,170383.403,8,400,,,
trial,html.Screen,4_23_0,2023-11-02T20:49:06.118Z,,0,1,,3901.296999988088,response,ISIC_0061077.JPG,11,ISIC_9022005.JPG,ISIC_0061077.JPG,false,1,keypress(m),500,174285.10000002384,174284.69999998808,170366.737,170372.10000002384,170383.403,174300.342,8,400,24,,ISIC_9022005.JPG
break,html.Screen,4_23_1,2023-11-02T20:49:06.119Z,,0,,,NaN,,,,,,false,,,,174286.39999997616,174286.10000002384,,174285.39999997616,,174300.342,8,400,,,
break_continue,html.Screen,4_23_2,2023-11-02T20:49:06.120Z,,0,,,NaN,,,,,,false,,,,174286.80000001192,174286.69999998808,,174286.60000002384,,174300.342,8,400,,,
sequence,flow.Sequence,4_23,2023-11-02T20:49:06.120Z,,0,,,3903.296999988088,completion,,,,,false,,,,174287,174286.69999998808,170366.737,170372.10000002384,170383.403,174300.342,8,400,,,
trial,html.Screen,4_24_0,2023-11-02T20:49:10.980Z,,0,1,,4846.458000011917,response,ISIC_4212044.JPG,6,ISIC_8278688.JPG,ISIC_4212044.JPG,false,1,keypress(m),500,179147.19999998808,179146.80000001192,174283.676,174287.19999998808,174300.342,179150.148,8,400,25,,ISIC_8278688.JPG
break,html.Screen,4_24_1,2023-11-02T20:49:10.982Z,,0,,,NaN,,,,,,false,,,,179148.39999997616,179148.19999998808,,179147.39999997616,,179150.148,8,400,,,
break_continue,html.Screen,4_24_2,2023-11-02T20:49:10.982Z,,0,,,NaN,,,,,,false,,,,179148.89999997616,179148.80000001192,,179148.60000002384,,179150.148,8,400,,,
sequence,flow.Sequence,4_24,2023-11-02T20:49:10.982Z,,0,,,4848.458000011917,completion,,,,,false,,,,179149,179148.80000001192,174283.676,174287.19999998808,174300.342,179150.148,8,400,,,
trial,html.Screen,4_25_0,2023-11-02T20:49:16.670Z,,0,1,,5686.452000023855,response,ISIC_0011057.JPG,10,ISIC_0027561.JPG,ISIC_0011057.JPG,false,1,keypress(m),500,184837,184836.60000002384,179133.482,179149.19999998808,179150.148,184850.278,8,400,26,,ISIC_0027561.JPG
break,html.Screen,4_25_1,2023-11-02T20:49:16.671Z,,0,,,NaN,,,,,,false,,,,184838.19999998808,184838,,184837.30000001192,,184850.278,8,400,,,
break_continue,html.Screen,4_25_2,2023-11-02T20:49:16.672Z,,0,,,NaN,,,,,,false,,,,184838.5,184838.39999997616,,184838.30000001192,,184850.278,8,400,,,
sequence,flow.Sequence,4_25,2023-11-02T20:49:16.672Z,,0,,,5688.251999976172,completion,,,,,false,,,,184838.69999998808,184838.39999997616,179133.482,179149.19999998808,179150.148,184850.278,8,400,,,
trial,html.Screen,4_26_0,2023-11-02T20:49:20.358Z,,0,1,,3674.722000000009,response,ISIC_4728968.JPG,9,ISIC_7242312.JPG,ISIC_7242312.JPG,false,0,keypress(z),500,188525.39999997616,188525,184833.612,184838.80000001192,184850.278,188533.464,8,400,27,,ISIC_4728968.JPG
break,html.Screen,4_26_1,2023-11-02T20:49:20.360Z,,0,,,NaN,,,,,,false,,,,188526.60000002384,188526.39999997616,,188525.69999998808,,188533.464,8,400,,,
break_continue,html.Screen,4_26_2,2023-11-02T20:49:20.360Z,,0,,,NaN,,,,,,false,,,,188527.10000002384,188527,,188526.80000001192,,188533.464,8,400,,,
sequence,flow.Sequence,4_26,2023-11-02T20:49:20.360Z,,0,,,3676.722000000009,completion,,,,,false,,,,188527.19999998808,188527,184833.612,184838.80000001192,184850.278,188533.464,8,400,,,
trial,html.Screen,4_27_0,2023-11-02T20:49:31.854Z,,0,1,,11516.56699999998,timeout,ISIC_6105084.JPG,6,ISIC_0070731.JPG,ISIC_6105084.JPG,false,,,500,200021.19999998808,200020.60000002384,188516.798,188527.39999997616,188533.464,200050.031,8,400,28,,ISIC_0070731.JPG
break,html.Screen,4_27_1,2023-11-02T20:49:31.856Z,,0,,,NaN,,,,,,false,,,,200022.39999997616,200022.19999998808,,200021.5,,200050.031,8,400,,,
break_continue,html.Screen,4_27_2,2023-11-02T20:49:31.856Z,,0,,,NaN,,,,,,false,,,,200023,200022.89999997616,,200022.60000002384,,200050.031,8,400,,,
sequence,flow.Sequence,4_27,2023-11-02T20:49:31.856Z,,0,,,11489.435999976151,completion,,,,,false,,,,200023.10000002384,200022.89999997616,188516.798,188527.30000001192,188533.464,200050.031,8,400,,,
trial,html.Screen,4_28_0,2023-11-02T20:49:35.164Z,,0,1,,3280.36899997617,response,ISIC_6089318.JPG,9,ISIC_0012391.JPG,ISIC_0012391.JPG,false,0,keypress(z),500,203330.80000001192,203330.39999997616,200033.365,200023.19999998808,200050.031,203333.233,8,400,29,,ISIC_6089318.JPG
break,html.Screen,4_28_1,2023-11-02T20:49:35.165Z,,0,,,NaN,,,,,,false,,,,203332.10000002384,203331.89999997616,,203331.10000002384,,203333.233,8,400,,,
break_continue,html.Screen,4_28_2,2023-11-02T20:49:35.166Z,,0,,,NaN,,,,,,false,,,,203332.5,203332.39999997616,,203332.19999998808,,203333.233,8,400,,,
sequence,flow.Sequence,4_28,2023-11-02T20:49:35.166Z,,0,,,3282.36899997617,completion,,,,,false,,,,203332.69999998808,203332.39999997616,200033.365,200023.19999998808,200050.031,203333.233,8,400,,,
trial,html.Screen,4_29_0,2023-11-02T20:49:37.915Z,,0,1,,2748.2669999999925,response,ISIC_0003703.JPG,11,ISIC_0071289.JPG,ISIC_0003703.JPG,false,1,keypress(m),500,206081.89999997616,206081.5,203316.567,203332.89999997616,203333.233,206083.123,8,400,30,,ISIC_0071289.JPG
break,html.Screen,4_29_1,2023-11-02T20:49:37.916Z,,0,,,NaN,,,,,,false,,,,206083.19999998808,206082.89999997616,,206082.19999998808,,206083.123,8,400,,,
break_continue,html.Screen,4_29_2,2023-11-02T20:49:37.917Z,,0,,,NaN,,,,,,false,,,,206083.69999998808,206083.5,,206083.39999997616,,206083.123,8,400,,,
sequence,flow.Sequence,4_29,2023-11-02T20:49:37.917Z,,0,,,2750.2669999999925,completion,,,,,false,,,,206083.80000001192,206083.5,203316.567,203332.80000001192,203333.233,206083.123,8,400,,,
trial,html.Screen,4_30_0,2023-11-02T20:49:43.286Z,,0,1,,5369.4770000238495,response,ISIC_8866896.JPG,12,ISIC_6062536.JPG,ISIC_6062536.JPG,false,0,keypress(z),500,211453.10000002384,211452.60000002384,206066.457,206083.80000001192,206083.123,211466.918,8,400,31,,ISIC_8866896.JPG
break,html.Screen,4_30_1,2023-11-02T20:49:43.287Z,,0,,,NaN,,,,,,false,,,,211454.39999997616,211454.10000002384,,211453.39999997616,,211466.918,8,400,,,
break_continue,html.Screen,4_30_2,2023-11-02T20:49:43.288Z,,0,,,NaN,,,,,,false,,,,211454.80000001192,211454.69999998808,,211454.60000002384,,211466.918,8,400,,,
sequence,flow.Sequence,4_30,2023-11-02T20:49:43.288Z,,0,,,5371.576999988087,completion,,,,,false,,,,211455.10000002384,211454.69999998808,206066.457,206083.80000001192,206083.123,211466.918,8,400,,,
trial,html.Screen,4_31_0,2023-11-02T20:49:46.639Z,,0,1,,3338.281999988074,response,ISIC_0027928.JPG,8,ISIC_3424207.JPG,ISIC_3424207.JPG,false,0,keypress(z),500,214805.5,214805.19999998808,211450.252,211455.10000002384,211466.918,214816.784,8,400,32,,ISIC_0027928.JPG
break,html.Screen,4_31_1,2023-11-02T20:49:46.640Z,,0,,,NaN,,,,,,false,,,,214806.80000001192,214806.5,,214805.80000001192,,214816.784,8,400,,,
break_continue,html.Screen,4_31_2,2023-11-02T20:49:46.640Z,,0,,,NaN,,,,,,false,,,,214807.30000001192,214807.10000002384,,214806.89999997616,,214816.784,8,400,,,
sequence,flow.Sequence,4_31,2023-11-02T20:49:46.640Z,,0,,,3340.1820000238367,completion,,,,,false,,,,214807.39999997616,214807.10000002384,211450.252,211455.10000002384,211466.918,214816.784,8,400,,,
trial,html.Screen,4_32_0,2023-11-02T20:49:49.878Z,,0,1,,3227.615999976144,response,ISIC_0033122.JPG,8,ISIC_0032975.JPG,ISIC_0033122.JPG,false,1,keypress(m),500,218044.80000001192,218044.39999997616,214800.118,214807.5,214816.784,218049.988,8,400,33,,ISIC_0032975.JPG
break,html.Screen,4_32_1,2023-11-02T20:49:49.879Z,,0,,,NaN,,,,,,false,,,,218046,218045.80000001192,,218045.10000002384,,218049.988,8,400,,,
break_continue,html.Screen,4_32_2,2023-11-02T20:49:49.880Z,,0,,,NaN,,,,,,false,,,,218046.5,218046.39999997616,,218046.19999998808,,218049.988,8,400,,,
sequence,flow.Sequence,4_32,2023-11-02T20:49:49.880Z,,0,,,3229.615999976144,completion,,,,,false,,,,218046.69999998808,218046.39999997616,214800.118,214807.5,214816.784,218049.988,8,400,,,
trial,html.Screen,4_33_0,2023-11-02T20:49:54.573Z,,0,1,,4689.812000011909,response,ISIC_0008447.JPG,8,ISIC_0031550.JPG,ISIC_0008447.JPG,false,1,keypress(m),500,222740.19999998808,222739.80000001192,218033.322,218046.80000001192,218049.988,222750.26,8,400,34,,ISIC_0031550.JPG
break,html.Screen,4_33_1,2023-11-02T20:49:54.575Z,,0,,,NaN,,,,,,false,,,,222741.60000002384,222741.39999997616,,222740.60000002384,,222750.26,8,400,,,
break_continue,html.Screen,4_33_2,2023-11-02T20:49:54.575Z,,0,,,NaN,,,,,,false,,,,222742.10000002384,222742,,222741.80000001192,,222750.26,8,400,,,
sequence,flow.Sequence,4_33,2023-11-02T20:49:54.575Z,,0,,,4692.011999999988,completion,,,,,false,,,,222742.39999997616,222742,218033.322,218046.80000001192,218049.988,222750.26,8,400,,,
trial,html.Screen,4_34_0,2023-11-02T20:49:57.638Z,,0,1,,3054.3400000238325,response,ISIC_9436034.JPG,10,ISIC_8918703.JPG,ISIC_9436034.JPG,false,1,keypress(m),500,225805,225804.60000002384,222733.594,222742.39999997616,222750.26,225816.804,8,400,35,,ISIC_8918703.JPG
break,html.Screen,4_34_1,2023-11-02T20:49:57.639Z,,0,,,NaN,,,,,,false,,,,225806.19999998808,225806,,225805.19999998808,,225816.804,8,400,,,
break_continue,html.Screen,4_34_2,2023-11-02T20:49:57.640Z,,0,,,NaN,,,,,,false,,,,225806.69999998808,225806.60000002384,,225806.39999997616,,225816.804,8,400,,,
sequence,flow.Sequence,4_34,2023-11-02T20:49:57.640Z,,0,,,3056.3400000238325,completion,,,,,false,,,,225806.89999997616,225806.60000002384,222733.594,222742.39999997616,222750.26,225816.804,8,400,,,
trial,html.Screen,4_35_0,2023-11-02T20:50:01.379Z,,0,1,,3729.0959999761544,response,ISIC_0026627.JPG,8,ISIC_0030356.JPG,ISIC_0026627.JPG,false,1,keypress(m),500,229546.19999998808,229545.89999997616,225800.138,225807.10000002384,225816.804,229549.988,8,400,36,,ISIC_0030356.JPG
break,html.Screen,4_35_1,2023-11-02T20:50:01.381Z,,0,,,NaN,,,,,,false,,,,229547.60000002384,229547.30000001192,,229546.5,,229549.988,8,400,,,
break_continue,html.Screen,4_35_2,2023-11-02T20:50:01.381Z,,0,,,NaN,,,,,,false,,,,229548,229547.80000001192,,229547.60000002384,,229549.988,8,400,,,
sequence,flow.Sequence,4_35,2023-11-02T20:50:01.381Z,,0,,,3730.996000011917,completion,,,,,false,,,,229548.10000002384,229547.80000001192,225800.138,225807,225816.804,229549.988,8,400,,,
trial,html.Screen,4_36_0,2023-11-02T20:50:06.356Z,,0,1,,4972.911999976146,response,ISIC_9171071.JPG,11,ISIC_7242542.JPG,ISIC_9171071.JPG,false,1,keypress(m),500,234523.39999997616,234522.89999997616,229533.322,229548.30000001192,229549.988,234533.658,8,400,37,,ISIC_7242542.JPG
break,html.Screen,4_36_1,2023-11-02T20:50:06.358Z,,0,,,NaN,,,,,,false,,,,234524.69999998808,234524.39999997616,,234523.69999998808,,234533.658,8,400,,,
break_continue,html.Screen,4_36_2,2023-11-02T20:50:06.358Z,,0,,,NaN,,,,,,false,,,,234525.19999998808,234525.10000002384,,234524.80000001192,,234533.658,8,400,,,
sequence,flow.Sequence,4_36,2023-11-02T20:50:06.358Z,,0,,,4975.11200002383,completion,,,,,false,,,,234525.30000001192,234525.10000002384,229533.322,229548.19999998808,229549.988,234533.658,8,400,,,
trial,html.Screen,4_37_0,2023-11-02T20:50:10.708Z,,0,1,,4340.642000011925,response,ISIC_9099430.JPG,10,ISIC_5360921.JPG,ISIC_5360921.JPG,false,0,keypress(z),500,238874.80000001192,238874.30000001192,234516.992,234525.39999997616,234533.658,238883.484,8,400,38,,ISIC_9099430.JPG
break,html.Screen,4_37_1,2023-11-02T20:50:10.709Z,,0,,,NaN,,,,,,false,,,,238876.10000002384,238875.89999997616,,238875,,238883.484,8,400,,,
break_continue,html.Screen,4_37_2,2023-11-02T20:50:10.710Z,,0,,,NaN,,,,,,false,,,,238876.60000002384,238876.5,,238876.19999998808,,238883.484,8,400,,,
sequence,flow.Sequence,4_37,2023-11-02T20:50:10.710Z,,0,,,4342.842000000004,completion,,,,,false,,,,238876.80000001192,238876.5,234516.992,234525.39999997616,234533.658,238883.484,8,400,,,
trial,html.Screen,4_38_0,2023-11-02T20:50:17.173Z,,0,1,,6455.915999976161,response,ISIC_0013766.JPG,12,ISIC_8268025.JPG,ISIC_0013766.JPG,false,1,keypress(m),500,245339.89999997616,245339.39999997616,238866.818,238876.89999997616,238883.484,245350.164,8,400,39,,ISIC_8268025.JPG
break,html.Screen,4_38_1,2023-11-02T20:50:17.174Z,,0,,,NaN,,,,,,false,,,,245341.10000002384,245340.89999997616,,245340.10000002384,,245350.164,8,400,,,
break_continue,html.Screen,4_38_2,2023-11-02T20:50:17.175Z,,0,,,NaN,,,,,,false,,,,245341.60000002384,245341.60000002384,,245341.30000001192,,245350.164,8,400,,,
sequence,flow.Sequence,4_38,2023-11-02T20:50:17.175Z,,0,,,6458.116000023845,completion,,,,,false,,,,245341.80000001192,245341.60000002384,238866.818,238876.80000001192,238883.484,245350.164,8,400,,,
trial,html.Screen,4_39_0,2023-11-02T20:50:20.670Z,,0,1,,3486.136000011931,response,ISIC_0027407.JPG,7,ISIC_0055841.JPG,ISIC_0027407.JPG,false,1,keypress(m),500,248836.69999998808,248836.30000001192,245333.498,245342,245350.164,248850.024,8,400,40,,ISIC_0055841.JPG
break,html.Screen,4_39_1,2023-11-02T20:50:20.671Z,,0,,,NaN,,,,,,false,,,,248838,248837.69999998808,,248837.10000002384,,248850.024,8,400,,,
break_continue,html.Screen,4_39_2,2023-11-02T20:50:20.672Z,,0,,,NaN,,,,,,false,,,,248838.5,248838.39999997616,,248838.19999998808,,248850.024,8,400,,,
sequence,flow.Sequence,4_39,2023-11-02T20:50:20.672Z,,0,,,3488.2359999761684,completion,,,,,false,,,,248838.69999998808,248838.39999997616,245333.498,245341.89999997616,245350.164,248850.024,8,400,,,
trial,html.Screen,4_40_0,2023-11-02T20:50:23.812Z,,0,1,,3128.975999999995,response,ISIC_0030017.JPG,8,ISIC_3188062.JPG,ISIC_3188062.JPG,false,0,keypress(z),500,251979.30000001192,251979,248833.358,248838.80000001192,248850.024,251983.232,8,400,41,,ISIC_0030017.JPG
break,html.Screen,4_40_1,2023-11-02T20:50:23.814Z,,0,,,NaN,,,,,,false,,,,251980.69999998808,251980.39999997616,,251979.60000002384,,251983.232,8,400,,,
break_continue,html.Screen,4_40_2,2023-11-02T20:50:23.814Z,,0,,,NaN,,,,,,false,,,,251981.10000002384,251980.89999997616,,251980.80000001192,,251983.232,8,400,,,
sequence,flow.Sequence,4_40,2023-11-02T20:50:23.814Z,,0,,,3130.8759999761533,completion,,,,,false,,,,251981.30000001192,251980.89999997616,248833.358,248838.80000001192,248850.024,251983.232,8,400,,,
trial,html.Screen,4_41_0,2023-11-02T20:50:27.246Z,,0,1,,3428.96799998809,response,ISIC_0032723.JPG,10,ISIC_0010360.JPG,ISIC_0010360.JPG,false,0,keypress(z),500,255412.80000001192,255412.19999998808,251966.566,251981.39999997616,251983.232,255416.965,8,400,42,,ISIC_0032723.JPG
break,html.Screen,4_41_1,2023-11-02T20:50:27.247Z,,0,,,NaN,,,,,,false,,,,255414.19999998808,255413.89999997616,,255413,,255416.965,8,400,,,
break_continue,html.Screen,4_41_2,2023-11-02T20:50:27.249Z,,0,,,NaN,,,,,,false,,,,255415.80000001192,255415.69999998808,,255415.5,,255416.965,8,400,,,
sequence,flow.Sequence,4_41,2023-11-02T20:50:27.249Z,,0,,,3432.46799998809,completion,,,,,false,,,,255415.89999997616,255415.69999998808,251966.566,251981.39999997616,251983.232,255416.965,8,400,,,
trial,html.Screen,4_42_0,2023-11-02T20:50:30.674Z,,0,1,,3423.9349999761616,response,ISIC_7806926.JPG,14,ISIC_2507845.JPG,ISIC_2507845.JPG,false,0,keypress(z),500,258841.19999998808,258840.89999997616,255400.299,255415.89999997616,255416.965,258866.827,8,400,43,,ISIC_7806926.JPG
break,html.Screen,4_42_1,2023-11-02T20:50:30.675Z,,0,,,NaN,,,,,,false,,,,258842,258841.89999997616,,258841.30000001192,,258866.827,8,400,,,
break_continue,html.Screen,4_42_2,2023-11-02T20:50:30.675Z,,0,,,NaN,,,,,,false,,,,258842.30000001192,258842.19999998808,,258842.10000002384,,258866.827,8,400,,,
sequence,flow.Sequence,4_42,2023-11-02T20:50:30.675Z,,0,,,3425.2349999880826,completion,,,,,false,,,,258842.39999997616,258842.19999998808,255400.299,255415.89999997616,255416.965,258866.827,8,400,,,
trial,html.Screen,4_43_0,2023-11-02T20:50:34.099Z,,0,1,,3399.17300000001,response,ISIC_0031953.JPG,13,ISIC_0066798.JPG,ISIC_0031953.JPG,false,1,keypress(m),500,262266.3000000119,262266,258850.161,258842.39999997616,258866.827,262283.357,8,400,44,,ISIC_0066798.JPG
break,html.Screen,4_43_1,2023-11-02T20:50:34.101Z,,0,,,NaN,,,,,,false,,,,262267.60000002384,262267.3000000119,,262266.60000002384,,262283.357,8,400,,,
break_continue,html.Screen,4_43_2,2023-11-02T20:50:34.101Z,,0,,,NaN,,,,,,false,,,,262268,262267.8000000119,,262267.6999999881,,262283.357,8,400,,,
sequence,flow.Sequence,4_43,2023-11-02T20:50:34.101Z,,0,,,3400.9730000119307,completion,,,,,false,,,,262268.10000002384,262267.8000000119,258850.161,258842.39999997616,258866.827,262283.357,8,400,,,
trial,html.Screen,4_44_0,2023-11-02T20:50:40.127Z,,0,1,,6009.842999988061,response,ISIC_0000535.JPG,12,ISIC_0058950.JPG,ISIC_0058950.JPG,false,0,keypress(z),500,268293.60000002384,268293.1999999881,262266.691,262268.1999999881,262283.357,268300.142,8,400,45,,ISIC_0000535.JPG
break,html.Screen,4_44_1,2023-11-02T20:50:40.128Z,,0,,,NaN,,,,,,false,,,,268294.8000000119,268294.60000002384,,268293.89999997616,,268300.142,8,400,,,
break_continue,html.Screen,4_44_2,2023-11-02T20:50:40.128Z,,0,,,NaN,,,,,,false,,,,268295.3000000119,268295.1999999881,,268295,,268300.142,8,400,,,
sequence,flow.Sequence,4_44,2023-11-02T20:50:40.129Z,,0,,,6011.842999988061,completion,,,,,false,,,,268295.39999997616,268295.1999999881,262266.691,262268.1999999881,262283.357,268300.142,8,400,,,
trial,html.Screen,4_45_0,2023-11-02T20:50:43.636Z,,0,1,,3502.3580000000075,response,ISIC_0944273.JPG,0,ISIC_7833178.JPG,ISIC_7833178.JPG,false,0,keypress(z),500,271802.89999997616,271802.5,268283.476,268295.60000002384,268300.142,271816.668,8,400,46,,ISIC_0944273.JPG
break,html.Screen,4_45_1,2023-11-02T20:50:43.637Z,,0,,,NaN,,,,,,false,,,,271804.3000000119,271804,,271803.1999999881,,271816.668,8,400,,,
break_continue,html.Screen,4_45_2,2023-11-02T20:50:43.638Z,,0,,,NaN,,,,,,false,,,,271804.6999999881,271804.60000002384,,271804.3000000119,,271816.668,8,400,,,
sequence,flow.Sequence,4_45,2023-11-02T20:50:43.638Z,,0,,,3504.4580000238493,completion,,,,,false,,,,271804.89999997616,271804.60000002384,268283.476,268295.5,268300.142,271816.668,8,400,,,
trial,html.Screen,4_46_0,2023-11-02T20:50:46.436Z,,0,1,,2785.731999976153,response,ISIC_0010162.JPG,10,ISIC_8128335.JPG,ISIC_8128335.JPG,false,0,keypress(z),500,274602.8000000119,274602.39999997616,271800.002,271805.10000002384,271816.668,274616.556,8,400,47,,ISIC_0010162.JPG
break,html.Screen,4_46_1,2023-11-02T20:50:46.437Z,,0,,,NaN,,,,,,false,,,,274604,274603.6999999881,,274603.10000002384,,274616.556,8,400,,,
break_continue,html.Screen,4_46_2,2023-11-02T20:50:46.438Z,,0,,,NaN,,,,,,false,,,,274604.39999997616,274604.3000000119,,274604.10000002384,,274616.556,8,400,,,
sequence,flow.Sequence,4_46,2023-11-02T20:50:46.438Z,,0,,,2787.632000011916,completion,,,,,false,,,,274604.60000002384,274604.3000000119,271800.002,271805,271816.668,274616.556,8,400,,,
trial,html.Screen,4_47_0,2023-11-02T20:50:49.517Z,,0,1,,3067.0440000238596,response,ISIC_0029189.JPG,10,ISIC_0058198.JPG,ISIC_0058198.JPG,false,0,keypress(z),500,277684,277683.60000002384,274599.89,274604.8000000119,274616.556,277699.766,8,400,48,,ISIC_0029189.JPG
break,html.Screen,4_47_1,2023-11-02T20:50:49.518Z,,0,,,NaN,,,,,,false,,,,277685.3000000119,277685,,277684.1999999881,,277699.766,8,400,,,
break_continue,html.Screen,4_47_2,2023-11-02T20:50:49.519Z,,0,,,NaN,,,,,,false,,,,277685.6999999881,277685.60000002384,,277685.39999997616,,277699.766,8,400,,,
sequence,flow.Sequence,4_47,2023-11-02T20:50:49.519Z,,0,,,3069.0440000238596,completion,,,,,false,,,,277685.89999997616,277685.60000002384,274599.89,274604.6999999881,274616.556,277699.766,8,400,,,
trial,html.Screen,4_48_0,2023-11-02T20:50:52.997Z,,0,1,,3464.0340000119177,response,ISIC_0029815.JPG,10,ISIC_9263990.JPG,ISIC_0029815.JPG,false,1,keypress(m),500,281164.3000000119,281163.8000000119,277683.1,277686,277699.766,281166.83,8,400,49,,ISIC_9263990.JPG
break,html.Screen,4_48_1,2023-11-02T20:50:52.999Z,,0,,,NaN,,,,,,false,,,,281165.60000002384,281165.39999997616,,281164.60000002384,,281166.83,8,400,,,
break_continue,html.Screen,4_48_2,2023-11-02T20:50:52.999Z,,0,,,NaN,,,,,,false,,,,281166,281165.89999997616,,281165.6999999881,,281166.83,8,400,,,
sequence,flow.Sequence,4_48,2023-11-02T20:50:52.999Z,,0,,,3466.133999976155,completion,,,,,false,,,,281166.1999999881,281165.89999997616,277683.1,277686,277699.766,281166.83,8,400,,,
trial,html.Screen,4_49_0,2023-11-02T20:50:56.110Z,,0,1,,3109.9700000119046,response,ISIC_0032993.JPG,9,ISIC_0013671.JPG,ISIC_0013671.JPG,false,0,keypress(z),500,284277.39999997616,284276.8000000119,281150.164,281166.3000000119,281166.83,284283.372,8,400,50,,ISIC_0032993.JPG
break,html.Screen,4_49_1,2023-11-02T20:51:06.103Z,,0,,,9999.600000000035,timeout,,,,,false,,,,294270.1999999881,294266.306,284266.706,284277.6999999881,284283.372,294282.972,8,400,,,
break_continue,html.Screen,4_49_2,2023-11-02T20:51:07.945Z,,0,,,1816.328000011912,response,,,,,false,continue,keypress(Space),,296111.60000002384,296099.3000000119,294266.306,294270.39999997616,294282.972,296116.232,8,400,,,
sequence,flow.Sequence,4_49,2023-11-02T20:51:07.945Z,,0,,,14932.470000011905,completion,,,,,false,,,,296111.6999999881,296099.3000000119,281150.164,281166.3000000119,281166.83,296116.232,8,400,,,
trial,html.Screen,4_50_0,2023-11-02T20:51:11.349Z,,0,2,,3399.5680000119028,response,ISIC_8806357.JPG,15,ISIC_3989526.JPG,ISIC_3989526.JPG,false,0,keypress(z),500,299516.10000002384,299515.8000000119,296099.566,296111.8000000119,296116.232,299533.53,8,400,1,,ISIC_8806357.JPG
break,html.Screen,4_50_1,2023-11-02T20:51:11.350Z,,0,,,NaN,,,,,,false,,,,299517.1999999881,299516.89999997616,,299516.39999997616,,299533.53,8,400,,,
break_continue,html.Screen,4_50_2,2023-11-02T20:51:11.351Z,,0,,,NaN,,,,,,false,,,,299517.5,299517.39999997616,,299517.3000000119,,299533.53,8,400,,,
sequence,flow.Sequence,4_50,2023-11-02T20:51:11.351Z,,0,,,3401.16799997614,completion,,,,,false,,,,299517.6999999881,299517.39999997616,296099.566,296111.8000000119,296116.232,299533.53,8,400,,,
trial,html.Screen,4_51_0,2023-11-02T20:51:14.261Z,,0,2,,2893.570000023814,response,ISIC_7680333.JPG,10,ISIC_5111521.JPG,ISIC_7680333.JPG,false,1,keypress(m),500,302427.60000002384,302427.10000002384,299516.864,299517.89999997616,299533.53,302433.414,8,400,2,,ISIC_5111521.JPG
break,html.Screen,4_51_1,2023-11-02T20:51:14.262Z,,0,,,NaN,,,,,,false,,,,302429,302428.6999999881,,302427.8000000119,,302433.414,8,400,,,
break_continue,html.Screen,4_51_2,2023-11-02T20:51:14.263Z,,0,,,NaN,,,,,,false,,,,302429.60000002384,302429.39999997616,,302429.1999999881,,302433.414,8,400,,,
sequence,flow.Sequence,4_51,2023-11-02T20:51:14.263Z,,0,,,2895.86999997613,completion,,,,,false,,,,302429.6999999881,302429.39999997616,299516.864,299517.8000000119,299533.53,302433.414,8,400,,,
trial,html.Screen,4_52_0,2023-11-02T20:51:18.094Z,,0,2,,3826.886000011931,response,ISIC_2757370.JPG,10,ISIC_2396791.JPG,ISIC_2396791.JPG,false,0,keypress(z),500,306260.6999999881,306260.3000000119,302416.748,302429.89999997616,302433.414,306266.594,8,400,3,,ISIC_2757370.JPG
break,html.Screen,4_52_1,2023-11-02T20:51:18.095Z,,0,,,NaN,,,,,,false,,,,306262.10000002384,306261.8000000119,,306261,,306266.594,8,400,,,
break_continue,html.Screen,4_52_2,2023-11-02T20:51:18.096Z,,0,,,NaN,,,,,,false,,,,306262.60000002384,306262.5,,306262.3000000119,,306266.594,8,400,,,
sequence,flow.Sequence,4_52,2023-11-02T20:51:18.096Z,,0,,,3829.0860000000102,completion,,,,,false,,,,306262.6999999881,306262.5,302416.748,302429.8000000119,302433.414,306266.594,8,400,,,
trial,html.Screen,4_53_0,2023-11-02T20:51:21.558Z,,0,2,,3458.206000011938,response,ISIC_0057089.JPG,8,ISIC_1081051.JPG,ISIC_0057089.JPG,false,1,keypress(m),500,309724.89999997616,309724.8000000119,306249.928,306262.8000000119,306266.594,309733.547,8,400,4,,ISIC_1081051.JPG
break,html.Screen,4_53_1,2023-11-02T20:51:21.559Z,,0,,,NaN,,,,,,false,,,,309725.5,309725.39999997616,,309725,,309733.547,8,400,,,
break_continue,html.Screen,4_53_2,2023-11-02T20:51:21.559Z,,0,,,NaN,,,,,,false,,,,309725.60000002384,309725.60000002384,,309725.60000002384,,309733.547,8,400,,,
sequence,flow.Sequence,4_53,2023-11-02T20:51:21.559Z,,0,,,3459.006000023859,completion,,,,,false,,,,309725.6999999881,309725.60000002384,306249.928,306262.8000000119,306266.594,309733.547,8,400,,,
trial,html.Screen,4_54_0,2023-11-02T20:51:24.605Z,,0,2,,3038.4529999999795,response,ISIC_2203247.JPG,10,ISIC_0011374.JPG,ISIC_2203247.JPG,false,1,keypress(m),500,312772.3000000119,312772,309716.881,309725.6999999881,309733.547,312783.425,8,400,5,,ISIC_0011374.JPG
break,html.Screen,4_54_1,2023-11-02T20:51:24.607Z,,0,,,NaN,,,,,,false,,,,312773.39999997616,312773.1999999881,,312772.60000002384,,312783.425,8,400,,,
break_continue,html.Screen,4_54_2,2023-11-02T20:51:24.607Z,,0,,,NaN,,,,,,false,,,,312773.8000000119,312773.8000000119,,312773.60000002384,,312783.425,8,400,,,
sequence,flow.Sequence,4_54,2023-11-02T20:51:24.607Z,,0,,,3040.2530000119004,completion,,,,,false,,,,312774,312773.8000000119,309716.881,309725.6999999881,309733.547,312783.425,8,400,,,
trial,html.Screen,4_55_0,2023-11-02T20:51:28.246Z,,0,2,,3628.7749999880907,response,ISIC_1930598.JPG,9,ISIC_0054936.JPG,ISIC_1930598.JPG,false,1,keypress(m),500,316412.60000002384,316412.1999999881,312766.759,312774.10000002384,312783.425,316416.613,8,400,6,,ISIC_0054936.JPG
break,html.Screen,4_55_1,2023-11-02T20:51:28.247Z,,0,,,NaN,,,,,,false,,,,316413.6999999881,316413.39999997616,,316412.89999997616,,316416.613,8,400,,,
break_continue,html.Screen,4_55_2,2023-11-02T20:51:28.247Z,,0,,,NaN,,,,,,false,,,,316414.1999999881,316414.10000002384,,316413.89999997616,,316416.613,8,400,,,
sequence,flow.Sequence,4_55,2023-11-02T20:51:28.247Z,,0,,,3630.6750000238535,completion,,,,,false,,,,316414.3000000119,316414.10000002384,312766.759,312774.10000002384,312783.425,316416.613,8,400,,,
trial,html.Screen,4_56_0,2023-11-02T20:51:32.046Z,,0,2,,3795.386999999988,response,ISIC_9709594.JPG,10,ISIC_8423248.JPG,ISIC_8423248.JPG,false,0,keypress(z),500,320212.39999997616,320212,316399.947,316414.39999997616,316416.613,320216.827,8,400,7,,ISIC_9709594.JPG
break,html.Screen,4_56_1,2023-11-02T20:51:32.047Z,,0,,,NaN,,,,,,false,,,,320213.60000002384,320213.39999997616,,320212.6999999881,,320216.827,8,400,,,
break_continue,html.Screen,4_56_2,2023-11-02T20:51:32.047Z,,0,,,NaN,,,,,,false,,,,320214.10000002384,320214,,320213.8000000119,,320216.827,8,400,,,
sequence,flow.Sequence,4_56,2023-11-02T20:51:32.047Z,,0,,,3797.386999999988,completion,,,,,false,,,,320214.3000000119,320214,316399.947,316414.39999997616,316416.613,320216.827,8,400,,,
trial,html.Screen,4_57_0,2023-11-02T20:51:36.230Z,,0,2,,4179.572999976168,response,ISIC_7677876.JPG,9,ISIC_4407580.JPG,ISIC_7677876.JPG,false,1,keypress(m),500,324396.89999997616,324396.39999997616,320200.161,320214.39999997616,320216.827,324399.993,8,400,8,,ISIC_4407580.JPG
break,html.Screen,4_57_1,2023-11-02T20:51:36.231Z,,0,,,NaN,,,,,,false,,,,324398.10000002384,324397.8000000119,,324397.10000002384,,324399.993,8,400,,,
break_continue,html.Screen,4_57_2,2023-11-02T20:51:36.232Z,,0,,,NaN,,,,,,false,,,,324398.60000002384,324398.39999997616,,324398.1999999881,,324399.993,8,400,,,
sequence,flow.Sequence,4_57,2023-11-02T20:51:36.232Z,,0,,,4181.572999976168,completion,,,,,false,,,,324398.6999999881,324398.39999997616,320200.161,320214.39999997616,320216.827,324399.993,8,400,,,
trial,html.Screen,4_58_0,2023-11-02T20:51:39.653Z,,0,2,,3419.607000023825,response,ISIC_0028944.JPG,9,ISIC_0032690.JPG,ISIC_0028944.JPG,false,1,keypress(m),500,327820,327819.60000002384,324383.327,324399,324399.993,327833.189,8,400,9,,ISIC_0032690.JPG
break,html.Screen,4_58_1,2023-11-02T20:51:39.654Z,,0,,,NaN,,,,,,false,,,,327821.1999999881,327821,,327820.3000000119,,327833.189,8,400,,,
break_continue,html.Screen,4_58_2,2023-11-02T20:51:39.655Z,,0,,,NaN,,,,,,false,,,,327821.6999999881,327821.5,,327821.39999997616,,327833.189,8,400,,,
sequence,flow.Sequence,4_58,2023-11-02T20:51:39.655Z,,0,,,3421.5069999999832,completion,,,,,false,,,,327821.8000000119,327821.5,324383.327,324398.89999997616,324399.993,327833.189,8,400,,,
trial,html.Screen,4_59_0,2023-11-02T20:51:42.382Z,,0,2,,2715.411000023829,response,ISIC_7035368.JPG,8,ISIC_0766328.JPG,ISIC_0766328.JPG,false,0,keypress(z),500,330549,330548.60000002384,327816.523,327822,327833.189,330550.177,8,400,10,,ISIC_7035368.JPG
break,html.Screen,4_59_1,2023-11-02T20:51:42.383Z,,0,,,NaN,,,,,,false,,,,330550.10000002384,330549.8000000119,,330549.1999999881,,330550.177,8,400,,,
break_continue,html.Screen,4_59_2,2023-11-02T20:51:42.384Z,,0,,,NaN,,,,,,false,,,,330550.60000002384,330550.39999997616,,330550.3000000119,,330550.177,8,400,,,
sequence,flow.Sequence,4_59,2023-11-02T20:51:42.384Z,,0,,,2717.210999976145,completion,,,,,false,,,,330550.89999997616,330550.39999997616,327816.523,327821.89999997616,327833.189,330550.177,8,400,,,
trial,html.Screen,4_60_0,2023-11-02T20:51:45.500Z,,0,2,,3116.522999988054,response,ISIC_7333928.JPG,9,ISIC_1858989.JPG,ISIC_1858989.JPG,false,0,keypress(z),500,333667.1999999881,333666.6999999881,330533.511,330551,330550.177,333683.385,8,400,11,,ISIC_7333928.JPG
break,html.Screen,4_60_1,2023-11-02T20:51:45.502Z,,0,,,NaN,,,,,,false,,,,333668.60000002384,333668.3000000119,,333667.60000002384,,333683.385,8,400,,,
break_continue,html.Screen,4_60_2,2023-11-02T20:51:45.502Z,,0,,,NaN,,,,,,false,,,,333669,333668.89999997616,,333668.6999999881,,333683.385,8,400,,,
sequence,flow.Sequence,4_60,2023-11-02T20:51:45.502Z,,0,,,3118.722999976133,completion,,,,,false,,,,333669.3000000119,333668.89999997616,330533.511,330550.89999997616,330550.177,333683.385,8,400,,,
trial,html.Screen,4_61_0,2023-11-02T20:51:48.294Z,,0,2,,2777.2150000238325,response,ISIC_0047031.JPG,10,ISIC_0028641.JPG,ISIC_0047031.JPG,false,1,keypress(m),500,336461,336460.60000002384,333666.719,333669.3000000119,333683.385,336466.607,8,400,12,,ISIC_0028641.JPG
break,html.Screen,4_61_1,2023-11-02T20:51:48.295Z,,0,,,NaN,,,,,,false,,,,336462.1999999881,336462,,336461.3000000119,,336466.607,8,400,,,
break_continue,html.Screen,4_61_2,2023-11-02T20:51:48.296Z,,0,,,NaN,,,,,,false,,,,336462.6999999881,336462.5,,336462.3000000119,,336466.607,8,400,,,
sequence,flow.Sequence,4_61,2023-11-02T20:51:48.296Z,,0,,,2779.1149999999907,completion,,,,,false,,,,336462.8000000119,336462.5,333666.719,333669.3000000119,333683.385,336466.607,8,400,,,
trial,html.Screen,4_62_0,2023-11-02T20:51:51.614Z,,0,2,,3314.1930000119028,response,ISIC_0068144.JPG,8,ISIC_0059597.JPG,ISIC_0068144.JPG,false,1,keypress(m),500,339781.1999999881,339780.8000000119,336449.941,336462.89999997616,336466.607,339783.141,8,400,13,,ISIC_0059597.JPG
break,html.Screen,4_62_1,2023-11-02T20:51:51.616Z,,0,,,NaN,,,,,,false,,,,339782.5,339782.1999999881,,339781.5,,339783.141,8,400,,,
break_continue,html.Screen,4_62_2,2023-11-02T20:51:51.616Z,,0,,,NaN,,,,,,false,,,,339783,339782.89999997616,,339782.6999999881,,339783.141,8,400,,,
sequence,flow.Sequence,4_62,2023-11-02T20:51:51.616Z,,0,,,3316.29299997614,completion,,,,,false,,,,339783.1999999881,339782.89999997616,336449.941,336462.89999997616,336466.607,339783.141,8,400,,,
trial,html.Screen,4_63_0,2023-11-02T20:51:54.604Z,,0,2,,2987.558999988076,response,ISIC_4131353.JPG,9,ISIC_7633960.JPG,ISIC_4131353.JPG,false,1,keypress(m),500,342771.1999999881,342770.6999999881,339766.475,339783.3000000119,339783.141,342783.424,8,400,14,,ISIC_7633960.JPG
break,html.Screen,4_63_1,2023-11-02T20:51:54.606Z,,0,,,NaN,,,,,,false,,,,342772.60000002384,342772.1999999881,,342771.5,,342783.424,8,400,,,
break_continue,html.Screen,4_63_2,2023-11-02T20:51:54.606Z,,0,,,NaN,,,,,,false,,,,342773,342772.89999997616,,342772.6999999881,,342783.424,8,400,,,
sequence,flow.Sequence,4_63,2023-11-02T20:51:54.606Z,,0,,,2989.758999976155,completion,,,,,false,,,,342773.10000002384,342772.89999997616,339766.475,339783.3000000119,339783.141,342783.424,8,400,,,
trial,html.Screen,4_64_0,2023-11-02T20:51:57.250Z,,0,2,,2633.475999976159,response,ISIC_0012260.JPG,10,ISIC_9280171.JPG,ISIC_9280171.JPG,false,0,keypress(z),500,345417.1999999881,345416.89999997616,342766.758,342773.3000000119,342783.424,345433.318,8,400,15,,ISIC_0012260.JPG
break,html.Screen,4_64_1,2023-11-02T20:51:57.252Z,,0,,,NaN,,,,,,false,,,,345418.60000002384,345418.3000000119,,345417.5,,345433.318,8,400,,,
break_continue,html.Screen,4_64_2,2023-11-02T20:51:57.252Z,,0,,,NaN,,,,,,false,,,,345419,345418.89999997616,,345418.8000000119,,345433.318,8,400,,,
sequence,flow.Sequence,4_64,2023-11-02T20:51:57.252Z,,0,,,2635.475999976159,completion,,,,,false,,,,345419.1999999881,345418.89999997616,342766.758,342773.1999999881,342783.424,345433.318,8,400,,,
trial,html.Screen,4_65_0,2023-11-02T20:51:59.886Z,,0,2,,2618.8819999880507,response,ISIC_6577767.JPG,13,ISIC_2447578.JPG,ISIC_2447578.JPG,false,0,keypress(z),500,348052.5,348052.1999999881,345416.652,345419.39999997616,345433.318,348066.546,8,400,16,,ISIC_6577767.JPG
break,html.Screen,4_65_1,2023-11-02T20:51:59.887Z,,0,,,NaN,,,,,,false,,,,348053.89999997616,348053.60000002384,,348052.8000000119,,348066.546,8,400,,,
break_continue,html.Screen,4_65_2,2023-11-02T20:51:59.888Z,,0,,,NaN,,,,,,false,,,,348054.3000000119,348054.1999999881,,348054.10000002384,,348066.546,8,400,,,
sequence,flow.Sequence,4_65,2023-11-02T20:51:59.888Z,,0,,,2620.8819999880507,completion,,,,,false,,,,348054.5,348054.1999999881,345416.652,345419.3000000119,345433.318,348066.546,8,400,,,
trial,html.Screen,4_66_0,2023-11-02T20:52:02.662Z,,0,2,,2762.153999988106,response,ISIC_5247383.JPG,9,ISIC_0064393.JPG,ISIC_5247383.JPG,false,1,keypress(m),500,350828.89999997616,350828.6999999881,348049.88,348054.6999999881,348066.546,350833.102,8,400,17,,ISIC_0064393.JPG
break,html.Screen,4_66_1,2023-11-02T20:52:02.663Z,,0,,,NaN,,,,,,false,,,,350829.5,350829.3000000119,,350829,,350833.102,8,400,,,
break_continue,html.Screen,4_66_2,2023-11-02T20:52:02.663Z,,0,,,NaN,,,,,,false,,,,350829.6999999881,350829.6999999881,,350829.60000002384,,350833.102,8,400,,,
sequence,flow.Sequence,4_66,2023-11-02T20:52:02.663Z,,0,,,2763.153999988106,completion,,,,,false,,,,350829.8000000119,350829.6999999881,348049.88,348054.60000002384,348066.546,350833.102,8,400,,,
trial,html.Screen,4_67_0,2023-11-02T20:52:06.031Z,,0,2,,3364.1980000119074,response,ISIC_9879693.JPG,10,ISIC_0032656.JPG,ISIC_9879693.JPG,false,1,keypress(m),500,354197.60000002384,354197.3000000119,350816.436,350829.8000000119,350833.102,354200.039,8,400,18,,ISIC_0032656.JPG
break,html.Screen,4_67_1,2023-11-02T20:52:06.032Z,,0,,,NaN,,,,,,false,,,,354199,354198.60000002384,,354197.89999997616,,354200.039,8,400,,,
break_continue,html.Screen,4_67_2,2023-11-02T20:52:06.033Z,,0,,,NaN,,,,,,false,,,,354199.3000000119,354199.3000000119,,354199.10000002384,,354200.039,8,400,,,
sequence,flow.Sequence,4_67,2023-11-02T20:52:06.033Z,,0,,,3366.1980000119074,completion,,,,,false,,,,354199.60000002384,354199.3000000119,350816.436,350829.8000000119,350833.102,354200.039,8,400,,,
trial,html.Screen,4_68_0,2023-11-02T20:52:09.413Z,,0,2,,3379.4610000000102,response,ISIC_0031203.JPG,9,ISIC_0071904.JPG,ISIC_0071904.JPG,false,0,keypress(z),500,357579.6999999881,357579.5,354183.373,354199.6999999881,354200.039,357583.237,8,400,19,,ISIC_0031203.JPG
break,html.Screen,4_68_1,2023-11-02T20:52:09.413Z,,0,,,NaN,,,,,,false,,,,357580.3000000119,357580.1999999881,,357579.8000000119,,357583.237,8,400,,,
break_continue,html.Screen,4_68_2,2023-11-02T20:52:09.414Z,,0,,,NaN,,,,,,false,,,,357580.5,357580.5,,357580.39999997616,,357583.237,8,400,,,
sequence,flow.Sequence,4_68,2023-11-02T20:52:09.414Z,,0,,,3380.4610000000102,completion,,,,,false,,,,357580.5,357580.5,354183.373,354199.60000002384,354200.039,357583.237,8,400,,,
trial,html.Screen,4_69_0,2023-11-02T20:52:12.604Z,,0,2,,3186.762999999977,response,ISIC_3942075.JPG,11,ISIC_8993666.JPG,ISIC_8993666.JPG,false,0,keypress(z),500,360770.39999997616,360770,357566.571,357580.6999999881,357583.237,360799.775,8,400,20,,ISIC_3942075.JPG
break,html.Screen,4_69_1,2023-11-02T20:52:12.605Z,,0,,,NaN,,,,,,false,,,,360771.60000002384,360771.3000000119,,360770.6999999881,,360799.775,8,400,,,
break_continue,html.Screen,4_69_2,2023-11-02T20:52:12.605Z,,0,,,NaN,,,,,,false,,,,360772,360771.89999997616,,360771.6999999881,,360799.775,8,400,,,
sequence,flow.Sequence,4_69,2023-11-02T20:52:12.605Z,,0,,,3188.6629999761353,completion,,,,,false,,,,360772.1999999881,360771.89999997616,357566.571,357580.60000002384,357583.237,360799.775,8,400,,,
trial,html.Screen,4_70_0,2023-11-02T20:52:15.557Z,,0,2,,2924.0250000118976,response,ISIC_2598575.JPG,12,ISIC_0015046.JPG,ISIC_2598575.JPG,false,1,keypress(m),500,363724.3000000119,363723.8000000119,360783.109,360772.3000000119,360799.775,363733.394,8,400,21,,ISIC_0015046.JPG
break,html.Screen,4_70_1,2023-11-02T20:52:15.559Z,,0,,,NaN,,,,,,false,,,,363725.39999997616,363725.10000002384,,363724.60000002384,,363733.394,8,400,,,
break_continue,html.Screen,4_70_2,2023-11-02T20:52:15.559Z,,0,,,NaN,,,,,,false,,,,363725.89999997616,363725.6999999881,,363725.60000002384,,363733.394,8,400,,,
sequence,flow.Sequence,4_70,2023-11-02T20:52:15.559Z,,0,,,2925.924999988056,completion,,,,,false,,,,363726.10000002384,363725.6999999881,360783.109,360772.3000000119,360799.775,363733.394,8,400,,,
trial,html.Screen,4_71_0,2023-11-02T20:52:18.884Z,,0,2,,3317.40600001195,response,ISIC_9059311.JPG,10,ISIC_7397447.JPG,ISIC_9059311.JPG,false,1,keypress(m),500,367051.10000002384,367050.8000000119,363716.728,363726.1999999881,363733.394,367066.594,8,400,22,,ISIC_7397447.JPG
break,html.Screen,4_71_1,2023-11-02T20:52:18.885Z,,0,,,NaN,,,,,,false,,,,367052.3000000119,367052,,367051.39999997616,,367066.594,8,400,,,
break_continue,html.Screen,4_71_2,2023-11-02T20:52:18.886Z,,0,,,NaN,,,,,,false,,,,367052.6999999881,367052.60000002384,,367052.39999997616,,367066.594,8,400,,,
sequence,flow.Sequence,4_71,2023-11-02T20:52:18.886Z,,0,,,3319.2060000238707,completion,,,,,false,,,,367052.8000000119,367052.60000002384,363716.728,363726.1999999881,363733.394,367066.594,8,400,,,
trial,html.Screen,4_72_0,2023-11-02T20:52:22.612Z,,0,2,,3711.9060000000172,response,ISIC_5510604.JPG,10,ISIC_0012756.JPG,ISIC_0012756.JPG,false,0,keypress(z),500,370778.89999997616,370778.5,367049.928,367053,367066.594,370799.778,8,400,23,,ISIC_5510604.JPG
break,html.Screen,4_72_1,2023-11-02T20:52:22.613Z,,0,,,NaN,,,,,,false,,,,370780,370779.8000000119,,370779.1999999881,,370799.778,8,400,,,
break_continue,html.Screen,4_72_2,2023-11-02T20:52:22.614Z,,0,,,NaN,,,,,,false,,,,370780.39999997616,370780.39999997616,,370780.1999999881,,370799.778,8,400,,,
sequence,flow.Sequence,4_72,2023-11-02T20:52:22.614Z,,0,,,3713.8059999761754,completion,,,,,false,,,,370780.6999999881,370780.39999997616,367049.928,367052.89999997616,367066.594,370799.778,8,400,,,
trial,html.Screen,4_73_0,2023-11-02T20:52:25.549Z,,0,2,,2915.621999976167,response,ISIC_0011185.JPG,11,ISIC_0030943.JPG,ISIC_0011185.JPG,false,1,keypress(m),500,373715.6999999881,373715.39999997616,370783.112,370780.8000000119,370799.778,373733.38,8,400,24,,ISIC_0030943.JPG
break,html.Screen,4_73_1,2023-11-02T20:52:25.550Z,,0,,,NaN,,,,,,false,,,,373716.8000000119,373716.60000002384,,373716,,373733.38,8,400,,,
break_continue,html.Screen,4_73_2,2023-11-02T20:52:25.550Z,,0,,,NaN,,,,,,false,,,,373717.3000000119,373717.1999999881,,373717,,373733.38,8,400,,,
sequence,flow.Sequence,4_73,2023-11-02T20:52:25.551Z,,0,,,2917.421999988088,completion,,,,,false,,,,373717.5,373717.1999999881,370783.112,370780.6999999881,370799.778,373733.38,8,400,,,
trial,html.Screen,4_74_0,2023-11-02T20:52:28.684Z,,0,2,,3116.720000023837,response,ISIC_7365615.JPG,9,ISIC_0067159.JPG,ISIC_0067159.JPG,false,0,keypress(z),500,376850.39999997616,376850.10000002384,373716.714,373717.60000002384,373733.38,376866.588,8,400,25,,ISIC_7365615.JPG
break,html.Screen,4_74_1,2023-11-02T20:52:28.685Z,,0,,,NaN,,,,,,false,,,,376851.60000002384,376851.3000000119,,376850.6999999881,,376866.588,8,400,,,
break_continue,html.Screen,4_74_2,2023-11-02T20:52:28.685Z,,0,,,NaN,,,,,,false,,,,376852.10000002384,376852,,376851.8000000119,,376866.588,8,400,,,
sequence,flow.Sequence,4_74,2023-11-02T20:52:28.685Z,,0,,,3118.6199999999953,completion,,,,,false,,,,376852.3000000119,376852,373716.714,373717.5,373733.38,376866.588,8,400,,,
trial,html.Screen,4_75_0,2023-11-02T20:52:31.908Z,,0,2,,3207.8119999761693,response,ISIC_0254447.JPG,11,ISIC_2007034.JPG,ISIC_2007034.JPG,false,0,keypress(z),500,380074.6999999881,380074.39999997616,376849.922,376852.5,376866.588,380083.126,8,400,26,,ISIC_0254447.JPG
break,html.Screen,4_75_1,2023-11-02T20:52:31.909Z,,0,,,NaN,,,,,,false,,,,380075.89999997616,380075.60000002384,,380075,,380083.126,8,400,,,
break_continue,html.Screen,4_75_2,2023-11-02T20:52:31.910Z,,0,,,NaN,,,,,,false,,,,380076.39999997616,380076.3000000119,,380076.10000002384,,380083.126,8,400,,,
sequence,flow.Sequence,4_75,2023-11-02T20:52:31.910Z,,0,,,3209.712000011932,completion,,,,,false,,,,380076.60000002384,380076.3000000119,376849.922,376852.39999997616,376866.588,380083.126,8,400,,,
trial,html.Screen,4_76_0,2023-11-02T20:52:34.740Z,,0,2,,2823.57399998809,response,ISIC_0026244.JPG,9,ISIC_0024565.JPG,ISIC_0026244.JPG,false,1,keypress(m),500,382907.10000002384,382906.6999999881,380066.46,380076.6999999881,380083.126,382916.761,8,400,27,,ISIC_0024565.JPG
break,html.Screen,4_76_1,2023-11-02T20:52:34.741Z,,0,,,NaN,,,,,,false,,,,382908.3000000119,382908,,382907.39999997616,,382916.761,8,400,,,
break_continue,html.Screen,4_76_2,2023-11-02T20:52:34.742Z,,0,,,NaN,,,,,,false,,,,382908.6999999881,382908.60000002384,,382908.39999997616,,382916.761,8,400,,,
sequence,flow.Sequence,4_76,2023-11-02T20:52:34.742Z,,0,,,2825.4740000238526,completion,,,,,false,,,,382908.89999997616,382908.60000002384,380066.46,380076.60000002384,380083.126,382916.761,8,400,,,
trial,html.Screen,4_77_0,2023-11-02T20:52:38.148Z,,0,2,,3397.9389999880805,response,ISIC_0061077.JPG,10,ISIC_0010631.JPG,ISIC_0010631.JPG,false,0,keypress(z),500,386315.1999999881,386314.6999999881,382900.095,382909,382916.761,386316.625,8,400,28,,ISIC_0061077.JPG
break,html.Screen,4_77_1,2023-11-02T20:52:38.150Z,,0,,,NaN,,,,,,false,,,,386316.3000000119,386316,,386315.39999997616,,386316.625,8,400,,,
break_continue,html.Screen,4_77_2,2023-11-02T20:52:38.150Z,,0,,,NaN,,,,,,false,,,,386316.6999999881,386316.60000002384,,386316.5,,386316.625,8,400,,,
sequence,flow.Sequence,4_77,2023-11-02T20:52:38.150Z,,0,,,3399.8390000238433,completion,,,,,false,,,,386316.89999997616,386316.60000002384,382900.095,382908.89999997616,382916.761,386316.625,8,400,,,
trial,html.Screen,4_78_0,2023-11-02T20:52:41.437Z,,0,2,,3287.274999976158,response,ISIC_0071778.JPG,11,ISIC_5059476.JPG,ISIC_5059476.JPG,false,0,keypress(z),500,389604.3000000119,389603.89999997616,386299.959,386317,386316.625,389616.493,8,400,29,,ISIC_0071778.JPG
break,html.Screen,4_78_1,2023-11-02T20:52:41.439Z,,0,,,NaN,,,,,,false,,,,389605.5,389605.1999999881,,389604.5,,389616.493,8,400,,,
break_continue,html.Screen,4_78_2,2023-11-02T20:52:41.439Z,,0,,,NaN,,,,,,false,,,,389605.89999997616,389605.8000000119,,389605.60000002384,,389616.493,8,400,,,
sequence,flow.Sequence,4_78,2023-11-02T20:52:41.439Z,,0,,,3289.175000011921,completion,,,,,false,,,,389606.10000002384,389605.8000000119,386299.959,386317,386316.625,389616.493,8,400,,,
trial,html.Screen,4_79_0,2023-11-02T20:52:44.230Z,,0,2,,2779.607000023825,response,ISIC_1046678.JPG,10,ISIC_0058891.JPG,ISIC_1046678.JPG,false,1,keypress(m),500,392396.5,392396.10000002384,389599.827,389606.3000000119,389616.493,392399.715,8,400,30,,ISIC_0058891.JPG
break,html.Screen,4_79_1,2023-11-02T20:52:44.231Z,,0,,,NaN,,,,,,false,,,,392397.8000000119,392397.60000002384,,392396.8000000119,,392399.715,8,400,,,
break_continue,html.Screen,4_79_2,2023-11-02T20:52:44.231Z,,0,,,NaN,,,,,,false,,,,392398.3000000119,392398.1999999881,,392398,,392399.715,8,400,,,
sequence,flow.Sequence,4_79,2023-11-02T20:52:44.232Z,,0,,,2781.7069999880623,completion,,,,,false,,,,392398.39999997616,392398.1999999881,389599.827,389606.10000002384,389616.493,392399.715,8,400,,,
trial,html.Screen,4_80_0,2023-11-02T20:52:46.884Z,,0,2,,2650.8850000238162,response,ISIC_6814221.JPG,7,ISIC_0032187.JPG,ISIC_6814221.JPG,false,1,keypress(m),500,395051,395050.60000002384,392383.049,392398.60000002384,392399.715,395066.691,8,400,31,,ISIC_0032187.JPG
break,html.Screen,4_80_1,2023-11-02T20:52:46.885Z,,0,,,NaN,,,,,,false,,,,395052.10000002384,395051.8000000119,,395051.1999999881,,395066.691,8,400,,,
break_continue,html.Screen,4_80_2,2023-11-02T20:52:46.886Z,,0,,,NaN,,,,,,false,,,,395052.60000002384,395052.5,,395052.3000000119,,395066.691,8,400,,,
sequence,flow.Sequence,4_80,2023-11-02T20:52:46.886Z,,0,,,2652.7849999999744,completion,,,,,false,,,,395052.8000000119,395052.5,392383.049,392398.60000002384,392399.715,395066.691,8,400,,,
trial,html.Screen,4_81_0,2023-11-02T20:52:50.548Z,,0,2,,3647.9090000238502,response,ISIC_0005304.JPG,10,ISIC_0067476.JPG,ISIC_0005304.JPG,false,1,keypress(m),500,398714.89999997616,398714.60000002384,395050.025,395053,395066.691,398716.545,8,400,32,,ISIC_0067476.JPG
break,html.Screen,4_81_1,2023-11-02T20:52:50.549Z,,0,,,NaN,,,,,,false,,,,398716.1999999881,398716,,398715.3000000119,,398716.545,8,400,,,
break_continue,html.Screen,4_81_2,2023-11-02T20:52:50.550Z,,0,,,NaN,,,,,,false,,,,398716.6999999881,398716.60000002384,,398716.3000000119,,398716.545,8,400,,,
sequence,flow.Sequence,4_81,2023-11-02T20:52:50.550Z,,0,,,3649.9090000238502,completion,,,,,false,,,,398716.8000000119,398716.60000002384,395050.025,395052.89999997616,395066.691,398716.545,8,400,,,
trial,html.Screen,4_82_0,2023-11-02T20:52:53.214Z,,0,2,,2663.3549999761744,response,ISIC_8960223.JPG,10,ISIC_2596574.JPG,ISIC_8960223.JPG,false,1,keypress(m),500,401380.3000000119,401379.89999997616,398699.879,398716.89999997616,398716.545,401383.105,8,400,33,,ISIC_2596574.JPG
break,html.Screen,4_82_1,2023-11-02T20:52:53.215Z,,0,,,NaN,,,,,,false,,,,401381.60000002384,401381.3000000119,,401380.60000002384,,401383.105,8,400,,,
break_continue,html.Screen,4_82_2,2023-11-02T20:52:53.215Z,,0,,,NaN,,,,,,false,,,,401382,401381.89999997616,,401381.6999999881,,401383.105,8,400,,,
sequence,flow.Sequence,4_82,2023-11-02T20:52:53.215Z,,0,,,2665.3549999761744,completion,,,,,false,,,,401382.10000002384,401381.89999997616,398699.879,398716.89999997616,398716.545,401383.105,8,400,,,
trial,html.Screen,4_83_0,2023-11-02T20:52:58.086Z,,0,2,,4869.19500001194,response,ISIC_0030435.JPG,9,ISIC_0260316.JPG,ISIC_0260316.JPG,false,0,keypress(z),500,406252.89999997616,406252.3000000119,401366.439,401382.1999999881,401383.105,406266.648,8,400,34,,ISIC_0030435.JPG
break,html.Screen,4_83_1,2023-11-02T20:52:58.087Z,,0,,,NaN,,,,,,false,,,,406254.1999999881,406253.89999997616,,406253.10000002384,,406266.648,8,400,,,
break_continue,html.Screen,4_83_2,2023-11-02T20:52:58.088Z,,0,,,NaN,,,,,,false,,,,406254.6999999881,406254.5,,406254.3000000119,,406266.648,8,400,,,
sequence,flow.Sequence,4_83,2023-11-02T20:52:58.088Z,,0,,,4871.395000000019,completion,,,,,false,,,,406254.8000000119,406254.5,401366.439,401382.1999999881,401383.105,406266.648,8,400,,,
trial,html.Screen,4_84_0,2023-11-02T20:53:01.070Z,,0,2,,2969.4520000238554,response,ISIC_5797404.JPG,6,ISIC_0010209.JPG,ISIC_5797404.JPG,false,1,keypress(m),500,409236.5,409236.10000002384,406249.982,406254.89999997616,406266.648,409249.862,8,400,35,,ISIC_0010209.JPG
break,html.Screen,4_84_1,2023-11-02T20:53:01.071Z,,0,,,NaN,,,,,,false,,,,409237.6999999881,409237.39999997616,,409236.8000000119,,409249.862,8,400,,,
break_continue,html.Screen,4_84_2,2023-11-02T20:53:01.071Z,,0,,,NaN,,,,,,false,,,,409238.10000002384,409238,,409237.89999997616,,409249.862,8,400,,,
sequence,flow.Sequence,4_84,2023-11-02T20:53:01.072Z,,0,,,2971.3520000000135,completion,,,,,false,,,,409238.3000000119,409238,406249.982,406254.89999997616,406266.648,409249.862,8,400,,,
trial,html.Screen,4_85_0,2023-11-02T20:53:04.134Z,,0,2,,3050.238000023819,response,ISIC_7416587.JPG,7,ISIC_0032121.JPG,ISIC_7416587.JPG,false,1,keypress(m),500,412300.5,412300.10000002384,409233.196,409238.5,409249.862,412316.406,8,400,36,,ISIC_0032121.JPG
break,html.Screen,4_85_1,2023-11-02T20:53:04.135Z,,0,,,NaN,,,,,,false,,,,412301.89999997616,412301.5,,412300.89999997616,,412316.406,8,400,,,
break_continue,html.Screen,4_85_2,2023-11-02T20:53:04.135Z,,0,,,NaN,,,,,,false,,,,412302.3000000119,412302.1999999881,,412302,,412316.406,8,400,,,
sequence,flow.Sequence,4_85,2023-11-02T20:53:04.136Z,,0,,,3052.3379999880563,completion,,,,,false,,,,412302.39999997616,412302.1999999881,409233.196,409238.5,409249.862,412316.406,8,400,,,
trial,html.Screen,4_86_0,2023-11-02T20:53:07.460Z,,0,2,,3309.8940000119037,response,ISIC_0006821.JPG,8,ISIC_0033268.JPG,ISIC_0006821.JPG,false,1,keypress(m),500,415626.60000002384,415626.3000000119,412299.74,412302.60000002384,412316.406,415632.94,8,400,37,,ISIC_0033268.JPG
break,html.Screen,4_86_1,2023-11-02T20:53:07.461Z,,0,,,NaN,,,,,,false,,,,415627.89999997616,415627.5,,415626.89999997616,,415632.94,8,400,,,
break_continue,html.Screen,4_86_2,2023-11-02T20:53:07.461Z,,0,,,NaN,,,,,,false,,,,415628.1999999881,415628.10000002384,,415628,,415632.94,8,400,,,
sequence,flow.Sequence,4_86,2023-11-02T20:53:07.462Z,,0,,,3311.6940000238246,completion,,,,,false,,,,415628.39999997616,415628.10000002384,412299.74,412302.5,412316.406,415632.94,8,400,,,
trial,html.Screen,4_87_0,2023-11-02T20:53:12.494Z,,0,2,,5027.959999976156,response,ISIC_4462476.JPG,8,ISIC_0056246.JPG,ISIC_0056246.JPG,false,0,keypress(z),500,420661.3000000119,420660.89999997616,415616.274,415628.60000002384,415632.94,420666.562,8,400,38,,ISIC_4462476.JPG
break,html.Screen,4_87_1,2023-11-02T20:53:12.496Z,,0,,,NaN,,,,,,false,,,,420662.6999999881,420662.39999997616,,420661.60000002384,,420666.562,8,400,,,
break_continue,html.Screen,4_87_2,2023-11-02T20:53:12.496Z,,0,,,NaN,,,,,,false,,,,420663.10000002384,420663,,420662.89999997616,,420666.562,8,400,,,
sequence,flow.Sequence,4_87,2023-11-02T20:53:12.496Z,,0,,,5030.059999999998,completion,,,,,false,,,,420663.3000000119,420663,415616.274,415628.5,415632.94,420666.562,8,400,,,
trial,html.Screen,4_88_0,2023-11-02T20:53:15.253Z,,0,2,,2753.137999988103,response,ISIC_4728167.JPG,6,ISIC_0023162.JPG,ISIC_4728167.JPG,false,1,keypress(m),500,423420.1999999881,423419.6999999881,420649.896,420663.5,420666.562,423433.118,8,400,39,,ISIC_0023162.JPG
break,html.Screen,4_88_1,2023-11-02T20:53:15.255Z,,0,,,NaN,,,,,,false,,,,423421.6999999881,423421.3000000119,,423420.5,,423433.118,8,400,,,
break_continue,html.Screen,4_88_2,2023-11-02T20:53:15.255Z,,0,,,NaN,,,,,,false,,,,423422.10000002384,423422,,423421.8000000119,,423433.118,8,400,,,
sequence,flow.Sequence,4_88,2023-11-02T20:53:15.255Z,,0,,,2755.4380000000237,completion,,,,,false,,,,423422.1999999881,423422,420649.896,420663.3000000119,420666.562,423433.118,8,400,,,
trial,html.Screen,4_89_0,2023-11-02T20:53:19.806Z,,0,2,,4539.581999988062,response,ISIC_4307626.JPG,10,ISIC_0000413.JPG,ISIC_4307626.JPG,false,1,keypress(m),500,427973.10000002384,427972.6999999881,423416.452,423422.39999997616,423433.118,427983.294,8,400,40,,ISIC_0000413.JPG
break,html.Screen,4_89_1,2023-11-02T20:53:19.808Z,,0,,,NaN,,,,,,false,,,,427974.5,427974.10000002384,,427973.39999997616,,427983.294,8,400,,,
break_continue,html.Screen,4_89_2,2023-11-02T20:53:19.808Z,,0,,,NaN,,,,,,false,,,,427974.8000000119,427974.6999999881,,427974.60000002384,,427983.294,8,400,,,
sequence,flow.Sequence,4_89,2023-11-02T20:53:19.808Z,,0,,,4541.581999988062,completion,,,,,false,,,,427974.89999997616,427974.6999999881,423416.452,423422.3000000119,423433.118,427983.294,8,400,,,
trial,html.Screen,4_90_0,2023-11-02T20:53:22.675Z,,0,2,,2857.5060000119265,response,ISIC_0026509.JPG,8,ISIC_0010866.JPG,ISIC_0010866.JPG,false,0,keypress(z),500,430841.3000000119,430840.8000000119,427966.628,427975,427983.294,430849.846,8,400,41,,ISIC_0026509.JPG
break,html.Screen,4_90_1,2023-11-02T20:53:22.676Z,,0,,,NaN,,,,,,false,,,,430842.60000002384,430842.3000000119,,430841.60000002384,,430849.846,8,400,,,
break_continue,html.Screen,4_90_2,2023-11-02T20:53:22.676Z,,0,,,NaN,,,,,,false,,,,430843.10000002384,430843,,430842.8000000119,,430849.846,8,400,,,
sequence,flow.Sequence,4_90,2023-11-02T20:53:22.676Z,,0,,,2859.7060000000056,completion,,,,,false,,,,430843.3000000119,430843,427966.628,427975,427983.294,430849.846,8,400,,,
trial,html.Screen,4_91_0,2023-11-02T20:53:26.325Z,,0,2,,3641.0539999761386,response,ISIC_6000407.JPG,13,ISIC_0031356.JPG,ISIC_6000407.JPG,false,1,keypress(m),500,434491.3000000119,434490.89999997616,430833.18,430843.39999997616,430849.846,434499.7,8,400,42,,ISIC_0031356.JPG
break,html.Screen,4_91_1,2023-11-02T20:53:26.326Z,,0,,,NaN,,,,,,false,,,,434492.60000002384,434492.3000000119,,434491.6999999881,,434499.7,8,400,,,
break_continue,html.Screen,4_91_2,2023-11-02T20:53:26.326Z,,0,,,NaN,,,,,,false,,,,434493.10000002384,434493,,434492.8000000119,,434499.7,8,400,,,
sequence,flow.Sequence,4_91,2023-11-02T20:53:26.326Z,,0,,,3643.1539999999804,completion,,,,,false,,,,434493.3000000119,434493,430833.18,430843.39999997616,430849.846,434499.7,8,400,,,
trial,html.Screen,4_92_0,2023-11-02T20:53:28.893Z,,0,2,,2559.6999999761465,response,ISIC_0034162.JPG,9,ISIC_4038618.JPG,ISIC_4038618.JPG,false,0,keypress(z),500,437059.89999997616,437059.39999997616,434483.034,434493.5,434499.7,437066.264,8,400,43,,ISIC_0034162.JPG
break,html.Screen,4_92_1,2023-11-02T20:53:28.894Z,,0,,,NaN,,,,,,false,,,,437061.10000002384,437060.8000000119,,437060.1999999881,,437066.264,8,400,,,
break_continue,html.Screen,4_92_2,2023-11-02T20:53:28.895Z,,0,,,NaN,,,,,,false,,,,437061.60000002384,437061.39999997616,,437061.3000000119,,437066.264,8,400,,,
sequence,flow.Sequence,4_92,2023-11-02T20:53:28.895Z,,0,,,2561.6999999761465,completion,,,,,false,,,,437061.8000000119,437061.39999997616,434483.034,434493.39999997616,434499.7,437066.264,8,400,,,
trial,html.Screen,4_93_0,2023-11-02T20:53:31.446Z,,0,2,,2546.336000023817,response,ISIC_0055498.JPG,11,ISIC_0028415.JPG,ISIC_0055498.JPG,false,1,keypress(m),500,439613,439612.60000002384,437049.598,437061.89999997616,437066.264,439616.629,8,400,44,,ISIC_0028415.JPG
break,html.Screen,4_93_1,2023-11-02T20:53:31.447Z,,0,,,NaN,,,,,,false,,,,439614.1999999881,439614,,439613.3000000119,,439616.629,8,400,,,
break_continue,html.Screen,4_93_2,2023-11-02T20:53:31.448Z,,0,,,NaN,,,,,,false,,,,439614.6999999881,439614.60000002384,,439614.3000000119,,439616.629,8,400,,,
sequence,flow.Sequence,4_93,2023-11-02T20:53:31.448Z,,0,,,2548.336000023817,completion,,,,,false,,,,439614.89999997616,439614.60000002384,437049.598,437061.89999997616,437066.264,439616.629,8,400,,,
trial,html.Screen,4_94_0,2023-11-02T20:53:35.261Z,,0,2,,3810.8709999999846,response,ISIC_8433608.JPG,7,ISIC_0000553.JPG,ISIC_8433608.JPG,false,1,keypress(m),500,443427.89999997616,443427.5,439599.963,439615,439616.629,443433.143,8,400,45,,ISIC_0000553.JPG
break,html.Screen,4_94_1,2023-11-02T20:53:35.262Z,,0,,,NaN,,,,,,false,,,,443429.3000000119,443429,,443428.3000000119,,443433.143,8,400,,,
break_continue,html.Screen,4_94_2,2023-11-02T20:53:35.263Z,,0,,,NaN,,,,,,false,,,,443429.6999999881,443429.5,,443429.39999997616,,443433.143,8,400,,,
sequence,flow.Sequence,4_94,2023-11-02T20:53:35.263Z,,0,,,3812.8709999999846,completion,,,,,false,,,,443429.89999997616,443429.5,439599.963,439614.89999997616,439616.629,443433.143,8,400,,,
trial,html.Screen,4_95_0,2023-11-02T20:53:38.243Z,,0,2,,2976.657000011939,response,ISIC_9017110.JPG,10,ISIC_0027411.JPG,ISIC_9017110.JPG,false,1,keypress(m),500,446410.10000002384,446409.8000000119,443416.477,443430.10000002384,443433.143,446416.357,8,400,46,,ISIC_0027411.JPG
break,html.Screen,4_95_1,2023-11-02T20:53:38.245Z,,0,,,NaN,,,,,,false,,,,446411.39999997616,446411.10000002384,,446410.39999997616,,446416.357,8,400,,,
break_continue,html.Screen,4_95_2,2023-11-02T20:53:38.245Z,,0,,,NaN,,,,,,false,,,,446411.8000000119,446411.6999999881,,446411.39999997616,,446416.357,8,400,,,
sequence,flow.Sequence,4_95,2023-11-02T20:53:38.245Z,,0,,,2978.5569999880972,completion,,,,,false,,,,446412,446411.6999999881,443416.477,443430,443433.143,446416.357,8,400,,,
trial,html.Screen,4_96_0,2023-11-02T20:53:41.646Z,,0,2,,3396.4430000119028,response,ISIC_2379908.JPG,11,ISIC_3246746.JPG,ISIC_3246746.JPG,false,0,keypress(z),500,449813.1999999881,449812.8000000119,446399.691,446412.10000002384,446416.357,449816.638,8,400,47,,ISIC_2379908.JPG
break,html.Screen,4_96_1,2023-11-02T20:53:41.648Z,,0,,,NaN,,,,,,false,,,,449814.39999997616,449814.1999999881,,449813.5,,449816.638,8,400,,,
break_continue,html.Screen,4_96_2,2023-11-02T20:53:41.648Z,,0,,,NaN,,,,,,false,,,,449814.89999997616,449814.6999999881,,449814.60000002384,,449816.638,8,400,,,
sequence,flow.Sequence,4_96,2023-11-02T20:53:41.648Z,,0,,,3398.342999988061,completion,,,,,false,,,,449815.10000002384,449814.6999999881,446399.691,446412.10000002384,446416.357,449816.638,8,400,,,
trial,html.Screen,4_97_0,2023-11-02T20:53:44.334Z,,0,2,,2683.362000000023,response,ISIC_0072691.JPG,16,ISIC_0053572.JPG,ISIC_0053572.JPG,false,0,keypress(z),500,452500.39999997616,452500,449799.972,449815.3000000119,449816.638,452516.53,8,400,48,,ISIC_0072691.JPG
break,html.Screen,4_97_1,2023-11-02T20:53:44.335Z,,0,,,NaN,,,,,,false,,,,452501.8000000119,452501.5,,452500.8000000119,,452516.53,8,400,,,
break_continue,html.Screen,4_97_2,2023-11-02T20:53:44.335Z,,0,,,NaN,,,,,,false,,,,452502.1999999881,452502.10000002384,,452501.89999997616,,452516.53,8,400,,,
sequence,flow.Sequence,4_97,2023-11-02T20:53:44.336Z,,0,,,2685.4620000238647,completion,,,,,false,,,,452502.39999997616,452502.10000002384,449799.972,449815.1999999881,449816.638,452516.53,8,400,,,
trial,html.Screen,4_98_0,2023-11-02T20:53:51.540Z,,0,2,,7189.469999999972,response,ISIC_8613657.JPG,8,ISIC_0032600.JPG,ISIC_0032600.JPG,false,0,keypress(z),500,459706.5,459706,452499.864,452502.5,452516.53,459732.908,8,400,49,,ISIC_8613657.JPG
break,html.Screen,4_98_1,2023-11-02T20:53:51.541Z,,0,,,NaN,,,,,,false,,,,459707.8000000119,459707.5,,459706.8000000119,,459732.908,8,400,,,
break_continue,html.Screen,4_98_2,2023-11-02T20:53:51.542Z,,0,,,NaN,,,,,,false,,,,459708.3000000119,459708.1999999881,,459708,,459732.908,8,400,,,
sequence,flow.Sequence,4_98,2023-11-02T20:53:51.542Z,,0,,,7191.669999988051,completion,,,,,false,,,,459708.39999997616,459708.1999999881,452499.864,452502.39999997616,452516.53,459732.908,8,400,,,
trial,html.Screen,4_99_0,2023-11-02T20:53:55.780Z,,0,2,,4213.791999988083,response,ISIC_9171071.JPG,10,ISIC_0062505.JPG,ISIC_0062505.JPG,false,0,keypress(z),500,463947.1999999881,463946.6999999881,459716.242,459708.5,459732.908,463949.836,8,400,50,,ISIC_9171071.JPG
break,html.Screen,4_99_1,2023-11-02T20:54:05.768Z,,0,,,9999.599999999977,timeout,,,,,false,,,,473934.5,473932.77,463933.17,463947.5,463949.836,473949.436,8,400,,,
break_continue,html.Screen,4_99_2,2023-11-02T20:54:07.660Z,,0,,,1861.763999988092,response,,,,,false,continue,keypress(Space),,475826.6999999881,475811.1999999881,473932.77,473934.6999999881,473949.436,475832.694,8,400,,,
sequence,flow.Sequence,4_99,2023-11-02T20:54:07.660Z,,0,,,16078.291999988083,completion,,,,,false,,,,475827,475811.1999999881,459716.242,459708.5,459732.908,475832.694,8,400,,,
trial,html.Screen,4_100_0,2023-11-02T20:54:11.014Z,,0,3,,3348.0059999880614,response,ISIC_0072569.JPG,13,ISIC_0072703.JPG,ISIC_0072569.JPG,false,1,keypress(m),500,479181,479180.6999999881,475816.028,475827.10000002384,475832.694,479182.56,8,400,1,,ISIC_0072703.JPG
break,html.Screen,4_100_1,2023-11-02T20:54:11.015Z,,0,,,NaN,,,,,,false,,,,479182.1999999881,479181.89999997616,,479181.3000000119,,479182.56,8,400,,,
break_continue,html.Screen,4_100_2,2023-11-02T20:54:11.016Z,,0,,,NaN,,,,,,false,,,,479182.60000002384,479182.5,,479182.3000000119,,479182.56,8,400,,,
sequence,flow.Sequence,4_100,2023-11-02T20:54:11.016Z,,0,,,3349.8059999999823,completion,,,,,false,,,,479182.8000000119,479182.5,475816.028,475827,475832.694,479182.56,8,400,,,
trial,html.Screen,4_101_0,2023-11-02T20:54:14.847Z,,0,3,,3830.540000023844,response,ISIC_7412559.JPG,8,ISIC_0024537.JPG,ISIC_7412559.JPG,false,1,keypress(m),500,483013.60000002384,483013.10000002384,479165.894,479183,479182.56,483016.514,8,400,2,,ISIC_0024537.JPG
break,html.Screen,4_101_1,2023-11-02T20:54:14.848Z,,0,,,NaN,,,,,,false,,,,483015,483014.6999999881,,483013.89999997616,,483016.514,8,400,,,
break_continue,html.Screen,4_101_2,2023-11-02T20:54:14.849Z,,0,,,NaN,,,,,,false,,,,483015.5,483015.39999997616,,483015.10000002384,,483016.514,8,400,,,
sequence,flow.Sequence,4_101,2023-11-02T20:54:14.849Z,,0,,,3832.8399999761605,completion,,,,,false,,,,483015.6999999881,483015.39999997616,479165.894,479182.89999997616,479182.56,483016.514,8,400,,,
trial,html.Screen,4_102_0,2023-11-02T20:54:18.317Z,,0,3,,3467.1859999880544,response,ISIC_0010278.JPG,16,ISIC_3133127.JPG,ISIC_3133127.JPG,false,0,keypress(z),500,486484,486483.6999999881,482999.848,483015.8000000119,483016.514,486499.708,8,400,3,,ISIC_0010278.JPG
break,html.Screen,4_102_1,2023-11-02T20:54:18.318Z,,0,,,NaN,,,,,,false,,,,486485,486484.8000000119,,486484.1999999881,,486499.708,8,400,,,
break_continue,html.Screen,4_102_2,2023-11-02T20:54:18.319Z,,0,,,NaN,,,,,,false,,,,486485.3000000119,486485.1999999881,,486485,,486499.708,8,400,,,
sequence,flow.Sequence,4_102,2023-11-02T20:54:18.319Z,,0,,,3468.6859999880544,completion,,,,,false,,,,486485.3000000119,486485.1999999881,482999.848,483015.8000000119,483016.514,486499.708,8,400,,,
trial,html.Screen,4_103_0,2023-11-02T20:54:21.079Z,,0,3,,2745.5920000119368,response,ISIC_0011994.JPG,11,ISIC_3485583.JPG,ISIC_0011994.JPG,false,1,keypress(m),500,489245.60000002384,489245.3000000119,486483.042,486485.39999997616,486499.708,489249.598,8,400,4,,ISIC_3485583.JPG
break,html.Screen,4_103_1,2023-11-02T20:54:21.080Z,,0,,,NaN,,,,,,false,,,,489246.39999997616,489246.3000000119,,489245.8000000119,,489249.598,8,400,,,
break_continue,html.Screen,4_103_2,2023-11-02T20:54:21.080Z,,0,,,NaN,,,,,,false,,,,489246.6999999881,489246.6999999881,,489246.5,,489249.598,8,400,,,
sequence,flow.Sequence,4_103,2023-11-02T20:54:21.080Z,,0,,,2746.991999988095,completion,,,,,false,,,,489246.8000000119,489246.6999999881,486483.042,486485.39999997616,486499.708,489249.598,8,400,,,
trial,html.Screen,4_104_0,2023-11-02T20:54:24.068Z,,0,3,,2984.30199997616,response,ISIC_0057556.JPG,8,ISIC_0027109.JPG,ISIC_0027109.JPG,false,0,keypress(z),500,492234.3000000119,492233.89999997616,489232.932,489246.89999997616,489249.598,492249.865,8,400,5,,ISIC_0057556.JPG
break,html.Screen,4_104_1,2023-11-02T20:54:24.069Z,,0,,,NaN,,,,,,false,,,,492235.60000002384,492235.39999997616,,492234.6999999881,,492249.865,8,400,,,
break_continue,html.Screen,4_104_2,2023-11-02T20:54:24.069Z,,0,,,NaN,,,,,,false,,,,492236.1999999881,492236,,492235.8000000119,,492249.865,8,400,,,
sequence,flow.Sequence,4_104,2023-11-02T20:54:24.070Z,,0,,,2986.402000000002,completion,,,,,false,,,,492236.3000000119,492236,489232.932,489246.8000000119,489249.598,492249.865,8,400,,,
trial,html.Screen,4_105_0,2023-11-02T20:54:26.734Z,,0,3,,2650.1350000000093,response,ISIC_0064472.JPG,12,ISIC_0028508.JPG,ISIC_0064472.JPG,false,1,keypress(m),500,494900.39999997616,494900,492233.199,492236.39999997616,492249.865,494916.425,8,400,6,,ISIC_0028508.JPG
break,html.Screen,4_105_1,2023-11-02T20:54:26.735Z,,0,,,NaN,,,,,,false,,,,494901.8000000119,494901.5,,494900.8000000119,,494916.425,8,400,,,
break_continue,html.Screen,4_105_2,2023-11-02T20:54:26.735Z,,0,,,NaN,,,,,,false,,,,494902.1999999881,494902.10000002384,,494901.89999997616,,494916.425,8,400,,,
sequence,flow.Sequence,4_105,2023-11-02T20:54:26.736Z,,0,,,2652.235000023851,completion,,,,,false,,,,494902.5,494902.10000002384,492233.199,492236.39999997616,492249.865,494916.425,8,400,,,
trial,html.Screen,4_106_0,2023-11-02T20:54:34.348Z,,0,3,,7597.575000000012,response,ISIC_0010426.JPG,6,ISIC_0015969.JPG,ISIC_0010426.JPG,false,1,keypress(m),500,502514.39999997616,502514,494899.759,494902.60000002384,494916.425,502516.397,8,400,7,,ISIC_0015969.JPG
break,html.Screen,4_106_1,2023-11-02T20:54:34.349Z,,0,,,NaN,,,,,,false,,,,502515.6999999881,502515.39999997616,,502514.6999999881,,502516.397,8,400,,,
break_continue,html.Screen,4_106_2,2023-11-02T20:54:34.349Z,,0,,,NaN,,,,,,false,,,,502516.10000002384,502516,,502515.8000000119,,502516.397,8,400,,,
sequence,flow.Sequence,4_106,2023-11-02T20:54:34.350Z,,0,,,7599.575000000012,completion,,,,,false,,,,502516.1999999881,502516,494899.759,494902.5,494916.425,502516.397,8,400,,,
trial,html.Screen,4_107_0,2023-11-02T20:54:37.222Z,,0,3,,2871.502999976161,response,ISIC_0031752.JPG,12,ISIC_4357596.JPG,ISIC_4357596.JPG,false,0,keypress(z),500,505388.1999999881,505387.89999997616,502499.731,502516.39999997616,502516.397,505399.615,8,400,8,,ISIC_0031752.JPG
break,html.Screen,4_107_1,2023-11-02T20:54:37.223Z,,0,,,NaN,,,,,,false,,,,505389.60000002384,505389.3000000119,,505388.5,,505399.615,8,400,,,
break_continue,html.Screen,4_107_2,2023-11-02T20:54:37.223Z,,0,,,NaN,,,,,,false,,,,505390,505389.89999997616,,505389.6999999881,,505399.615,8,400,,,
sequence,flow.Sequence,4_107,2023-11-02T20:54:37.223Z,,0,,,2873.502999976161,completion,,,,,false,,,,505390.10000002384,505389.89999997616,502499.731,502516.3000000119,502516.397,505399.615,8,400,,,
trial,html.Screen,4_108_0,2023-11-02T20:54:40.756Z,,0,3,,3522.7849999761675,response,ISIC_0024292.JPG,10,ISIC_0234248.JPG,ISIC_0234248.JPG,false,0,keypress(z),500,508922.8000000119,508922.39999997616,505382.949,505390.1999999881,505399.615,508932.807,8,400,9,,ISIC_0024292.JPG
break,html.Screen,4_108_1,2023-11-02T20:54:40.757Z,,0,,,NaN,,,,,,false,,,,508924.10000002384,508923.8000000119,,508923.10000002384,,508932.807,8,400,,,
break_continue,html.Screen,4_108_2,2023-11-02T20:54:40.758Z,,0,,,NaN,,,,,,false,,,,508924.60000002384,508924.5,,508924.3000000119,,508932.807,8,400,,,
sequence,flow.Sequence,4_108,2023-11-02T20:54:40.758Z,,0,,,3524.8850000000093,completion,,,,,false,,,,508924.8000000119,508924.5,505382.949,505390.1999999881,505399.615,508932.807,8,400,,,
trial,html.Screen,4_109_0,2023-11-02T20:54:44.132Z,,0,3,,3365.5929999761865,response,ISIC_0000129.JPG,9,ISIC_0058508.JPG,ISIC_0000129.JPG,false,1,keypress(m),500,512298.89999997616,512298.39999997616,508916.141,508924.89999997616,508932.807,512316.005,8,400,10,,ISIC_0058508.JPG
break,html.Screen,4_109_1,2023-11-02T20:54:44.134Z,,0,,,NaN,,,,,,false,,,,512300.39999997616,512300.10000002384,,512299.3000000119,,512316.005,8,400,,,
break_continue,html.Screen,4_109_2,2023-11-02T20:54:44.134Z,,0,,,NaN,,,,,,false,,,,512300.89999997616,512300.6999999881,,512300.60000002384,,512316.005,8,400,,,
sequence,flow.Sequence,4_109,2023-11-02T20:54:44.134Z,,0,,,3367.8929999881075,completion,,,,,false,,,,512301.10000002384,512300.6999999881,508916.141,508924.8000000119,508932.807,512316.005,8,400,,,
trial,html.Screen,4_110_0,2023-11-02T20:54:48.500Z,,0,3,,4350.095000023837,response,ISIC_0014221.JPG,11,ISIC_0054677.JPG,ISIC_0014221.JPG,false,1,keypress(m),500,516666.39999997616,516666.10000002384,512299.339,512301.1999999881,512316.005,516683.087,8,400,11,,ISIC_0054677.JPG
break,html.Screen,4_110_1,2023-11-02T20:54:48.501Z,,0,,,NaN,,,,,,false,,,,516667.8000000119,516667.5,,516666.6999999881,,516683.087,8,400,,,
break_continue,html.Screen,4_110_2,2023-11-02T20:54:48.502Z,,0,,,NaN,,,,,,false,,,,516668.3000000119,516668.10000002384,,516667.89999997616,,516683.087,8,400,,,
sequence,flow.Sequence,4_110,2023-11-02T20:54:48.502Z,,0,,,4352.095000023837,completion,,,,,false,,,,516668.39999997616,516668.10000002384,512299.339,512301.1999999881,512316.005,516683.087,8,400,,,
trial,html.Screen,4_111_0,2023-11-02T20:54:53.454Z,,0,3,,4936.812999976159,response,ISIC_9860255.JPG,9,ISIC_0007148.JPG,ISIC_0007148.JPG,false,0,keypress(z),500,521620.3000000119,521619.89999997616,516666.421,516668.60000002384,516683.087,521632.889,8,400,12,,ISIC_9860255.JPG
break,html.Screen,4_111_1,2023-11-02T20:54:53.455Z,,0,,,NaN,,,,,,false,,,,521621.60000002384,521621.3000000119,,521620.60000002384,,521632.889,8,400,,,
break_continue,html.Screen,4_111_2,2023-11-02T20:54:53.455Z,,0,,,NaN,,,,,,false,,,,521622.10000002384,521622,,521621.8000000119,,521632.889,8,400,,,
sequence,flow.Sequence,4_111,2023-11-02T20:54:53.455Z,,0,,,4938.9130000000005,completion,,,,,false,,,,521622.1999999881,521622,516666.421,516668.5,516683.087,521632.889,8,400,,,
trial,html.Screen,4_112_0,2023-11-02T20:54:56.534Z,,0,3,,3067.0109999761335,response,ISIC_0029572.JPG,10,ISIC_3737487.JPG,ISIC_3737487.JPG,false,0,keypress(z),500,524700.3000000119,524699.8999999762,521616.223,521622.39999997616,521632.889,524716.478,8,400,13,,ISIC_0029572.JPG
break,html.Screen,4_112_1,2023-11-02T20:54:56.535Z,,0,,,NaN,,,,,,false,,,,524701.5,524701.1999999881,,524700.5,,524716.478,8,400,,,
break_continue,html.Screen,4_112_2,2023-11-02T20:54:56.535Z,,0,,,NaN,,,,,,false,,,,524701.8999999762,524701.8000000119,,524701.6999999881,,524716.478,8,400,,,
sequence,flow.Sequence,4_112,2023-11-02T20:54:56.535Z,,0,,,3068.9110000118962,completion,,,,,false,,,,524702.1000000238,524701.8000000119,521616.223,521622.3000000119,521632.889,524716.478,8,400,,,
trial,html.Screen,4_113_0,2023-11-02T20:54:59.534Z,,0,3,,2983.521999999997,response,ISIC_0033640.JPG,10,ISIC_0030833.JPG,ISIC_0033640.JPG,false,1,keypress(m),500,527700.3999999762,527700,524699.812,524702.1999999881,524716.478,527716.358,8,400,14,,ISIC_0030833.JPG
break,html.Screen,4_113_1,2023-11-02T20:54:59.535Z,,0,,,NaN,,,,,,false,,,,527701.6999999881,527701.3999999762,,527700.6999999881,,527716.358,8,400,,,
break_continue,html.Screen,4_113_2,2023-11-02T20:54:59.535Z,,0,,,NaN,,,,,,false,,,,527702.1000000238,527702,,527701.8000000119,,527716.358,8,400,,,
sequence,flow.Sequence,4_113,2023-11-02T20:54:59.536Z,,0,,,2985.521999999997,completion,,,,,false,,,,527702.3000000119,527702,524699.812,524702.1999999881,524716.478,527716.358,8,400,,,
trial,html.Screen,4_114_0,2023-11-02T20:55:02.278Z,,0,3,,2728.0419999761507,response,ISIC_6882080.JPG,9,ISIC_0004789.JPG,ISIC_0004789.JPG,false,0,keypress(z),500,530444.8999999762,530444.3999999762,527699.692,527702.3999999762,527716.358,530449.582,8,400,15,,ISIC_6882080.JPG
break,html.Screen,4_114_1,2023-11-02T20:55:02.279Z,,0,,,NaN,,,,,,false,,,,530446.1000000238,530445.8000000119,,530445.1000000238,,530449.582,8,400,,,
break_continue,html.Screen,4_114_2,2023-11-02T20:55:02.280Z,,0,,,NaN,,,,,,false,,,,530446.6000000238,530446.3999999762,,530446.1999999881,,530449.582,8,400,,,
sequence,flow.Sequence,4_114,2023-11-02T20:55:02.280Z,,0,,,2730.0419999761507,completion,,,,,false,,,,530446.6999999881,530446.3999999762,527699.692,527702.3999999762,527716.358,530449.582,8,400,,,
trial,html.Screen,4_115_0,2023-11-02T20:55:05.981Z,,0,3,,3698.0180000237888,response,ISIC_5377693.JPG,7,ISIC_2758999.JPG,ISIC_2758999.JPG,false,0,keypress(z),500,534148,534147.6000000238,530432.916,530446.8999999762,530449.582,534149.832,8,400,16,,ISIC_5377693.JPG
break,html.Screen,4_115_1,2023-11-02T20:55:05.983Z,,0,,,NaN,,,,,,false,,,,534149.3000000119,534148.8999999762,,534148.3000000119,,534149.832,8,400,,,
break_continue,html.Screen,4_115_2,2023-11-02T20:55:05.983Z,,0,,,NaN,,,,,,false,,,,534149.6000000238,534149.6000000238,,534149.3999999762,,534149.832,8,400,,,
sequence,flow.Sequence,4_115,2023-11-02T20:55:05.983Z,,0,,,3700.0180000237888,completion,,,,,false,,,,534149.8000000119,534149.6000000238,530432.916,530446.8000000119,530449.582,534149.832,8,400,,,
trial,html.Screen,4_116_0,2023-11-02T20:55:08.614Z,,0,3,,2630.7680000237888,response,ISIC_7936755.JPG,10,ISIC_0726170.JPG,ISIC_0726170.JPG,false,0,keypress(z),500,536781.1000000238,536780.6000000238,534133.166,534149.8999999762,534149.832,536783.06,8,400,17,,ISIC_7936755.JPG
break,html.Screen,4_116_1,2023-11-02T20:55:08.616Z,,0,,,NaN,,,,,,false,,,,536782.3999999762,536782.1000000238,,536781.3999999762,,536783.06,8,400,,,
break_continue,html.Screen,4_116_2,2023-11-02T20:55:08.616Z,,0,,,NaN,,,,,,false,,,,536782.8000000119,536782.8000000119,,536782.5,,536783.06,8,400,,,
sequence,flow.Sequence,4_116,2023-11-02T20:55:08.616Z,,0,,,2632.968000011868,completion,,,,,false,,,,536783,536782.8000000119,534133.166,534149.8000000119,534149.832,536783.06,8,400,,,
trial,html.Screen,4_117_0,2023-11-02T20:55:12.284Z,,0,3,,3666.8399999761023,response,ISIC_3181358.JPG,9,ISIC_7988794.JPG,ISIC_3181358.JPG,false,1,keypress(m),500,540450.3999999762,540449.8999999762,536766.394,536783.1999999881,536783.06,540466.246,8,400,18,,ISIC_7988794.JPG
break,html.Screen,4_117_1,2023-11-02T20:55:12.285Z,,0,,,NaN,,,,,,false,,,,540451.6999999881,540451.3999999762,,540450.6000000238,,540466.246,8,400,,,
break_continue,html.Screen,4_117_2,2023-11-02T20:55:12.285Z,,0,,,NaN,,,,,,false,,,,540452.1000000238,540452,,540451.8000000119,,540466.246,8,400,,,
sequence,flow.Sequence,4_117,2023-11-02T20:55:12.285Z,,0,,,3668.939999999944,completion,,,,,false,,,,540452.1999999881,540452,536766.394,536783.1000000238,536783.06,540466.246,8,400,,,
trial,html.Screen,4_118_0,2023-11-02T20:55:16.411Z,,0,3,,4111.354000023799,response,ISIC_0030470.JPG,9,ISIC_3392433.JPG,ISIC_3392433.JPG,false,0,keypress(z),500,544578,544577.6000000238,540449.58,540452.3000000119,540466.246,544583.133,8,400,19,,ISIC_0030470.JPG
break,html.Screen,4_118_1,2023-11-02T20:55:16.413Z,,0,,,NaN,,,,,,false,,,,544579.3999999762,544579,,544578.3000000119,,544583.133,8,400,,,
break_continue,html.Screen,4_118_2,2023-11-02T20:55:16.413Z,,0,,,NaN,,,,,,false,,,,544579.8000000119,544579.6999999881,,544579.5,,544583.133,8,400,,,
sequence,flow.Sequence,4_118,2023-11-02T20:55:16.413Z,,0,,,4113.453999988036,completion,,,,,false,,,,544579.8999999762,544579.6999999881,540449.58,540452.1999999881,540466.246,544583.133,8,400,,,
trial,html.Screen,4_119_0,2023-11-02T20:55:19.046Z,,0,3,,2629.5669999880483,response,ISIC_6763221.JPG,12,ISIC_7844565.JPG,ISIC_7844565.JPG,false,0,keypress(z),500,547213,547212.6999999881,544566.467,544580,544583.133,547216.361,8,400,20,,ISIC_6763221.JPG
break,html.Screen,4_119_1,2023-11-02T20:55:19.048Z,,0,,,NaN,,,,,,false,,,,547214.1999999881,547214,,547213.3000000119,,547216.361,8,400,,,
break_continue,html.Screen,4_119_2,2023-11-02T20:55:19.048Z,,0,,,NaN,,,,,,false,,,,547214.6999999881,547214.6000000238,,547214.3999999762,,547216.361,8,400,,,
sequence,flow.Sequence,4_119,2023-11-02T20:55:19.048Z,,0,,,2631.467000023811,completion,,,,,false,,,,547214.8999999762,547214.6000000238,544566.467,544580,544583.133,547216.361,8,400,,,
trial,html.Screen,4_120_0,2023-11-02T20:55:21.614Z,,0,3,,2564.3389999880455,response,ISIC_3397174.JPG,8,ISIC_0059411.JPG,ISIC_3397174.JPG,false,1,keypress(m),500,549780.8999999762,549780.6999999881,547199.695,547215,547216.361,549782.925,8,400,21,,ISIC_0059411.JPG
break,html.Screen,4_120_1,2023-11-02T20:55:21.615Z,,0,,,NaN,,,,,,false,,,,549781.1999999881,549781.1999999881,,549780.8999999762,,549782.925,8,400,,,
break_continue,html.Screen,4_120_2,2023-11-02T20:55:21.615Z,,0,,,NaN,,,,,,false,,,,549781.3999999762,549781.3999999762,,549781.3000000119,,549782.925,8,400,,,
sequence,flow.Sequence,4_120,2023-11-02T20:55:21.615Z,,0,,,2565.0389999761246,completion,,,,,false,,,,549781.5,549781.3999999762,547199.695,547215,547216.361,549782.925,8,400,,,
trial,html.Screen,4_121_0,2023-11-02T20:55:24.764Z,,0,3,,3147.5749999999534,response,ISIC_0069638.JPG,11,ISIC_0753491.JPG,ISIC_0753491.JPG,false,0,keypress(z),500,552930.8999999762,552930.5,549766.259,549781.5,549782.925,552932.799,8,400,22,,ISIC_0069638.JPG
break,html.Screen,4_121_1,2023-11-02T20:55:24.765Z,,0,,,NaN,,,,,,false,,,,552932.1000000238,552931.8000000119,,552931.1999999881,,552932.799,8,400,,,
break_continue,html.Screen,4_121_2,2023-11-02T20:55:24.766Z,,0,,,NaN,,,,,,false,,,,552932.5,552932.3999999762,,552932.1999999881,,552932.799,8,400,,,
sequence,flow.Sequence,4_121,2023-11-02T20:55:24.766Z,,0,,,3149.4749999761116,completion,,,,,false,,,,552932.6999999881,552932.3999999762,549766.259,549781.5,549782.925,552932.799,8,400,,,
trial,html.Screen,4_122_0,2023-11-02T20:55:29.446Z,,0,3,,4679.501000011922,response,ISIC_0028543.JPG,5,ISIC_0028018.JPG,ISIC_0028543.JPG,false,1,keypress(m),500,557612.8000000119,557612.3000000119,552916.133,552932.8000000119,552932.799,557616.406,8,400,23,,ISIC_0028018.JPG
break,html.Screen,4_122_1,2023-11-02T20:55:29.447Z,,0,,,NaN,,,,,,false,,,,557614.1000000238,557613.8000000119,,557613.1000000238,,557616.406,8,400,,,
break_continue,html.Screen,4_122_2,2023-11-02T20:55:29.448Z,,0,,,NaN,,,,,,false,,,,557614.5,557614.3999999762,,557614.3000000119,,557616.406,8,400,,,
sequence,flow.Sequence,4_122,2023-11-02T20:55:29.448Z,,0,,,4681.600999976159,completion,,,,,false,,,,557614.8000000119,557614.3999999762,552916.133,552932.8000000119,552932.799,557616.406,8,400,,,
trial,html.Screen,4_123_0,2023-11-02T20:55:33.518Z,,0,3,,4068.194000023883,response,ISIC_9590080.JPG,9,ISIC_0054043.JPG,ISIC_9590080.JPG,false,1,keypress(m),500,561685,561684.6000000238,557599.74,557614.8999999762,557616.406,561699.576,8,400,24,,ISIC_0054043.JPG
break,html.Screen,4_123_1,2023-11-02T20:55:33.520Z,,0,,,NaN,,,,,,false,,,,561686.3000000119,561686,,561685.3000000119,,561699.576,8,400,,,
break_continue,html.Screen,4_123_2,2023-11-02T20:55:33.520Z,,0,,,NaN,,,,,,false,,,,561686.6999999881,561686.6000000238,,561686.5,,561699.576,8,400,,,
sequence,flow.Sequence,4_123,2023-11-02T20:55:33.520Z,,0,,,4070.194000023883,completion,,,,,false,,,,561687,561686.6000000238,557599.74,557614.8000000119,557616.406,561699.576,8,400,,,
trial,html.Screen,4_124_0,2023-11-02T20:55:36.117Z,,0,3,,2583.623999988078,response,ISIC_0027095.JPG,10,ISIC_2287083.JPG,ISIC_2287083.JPG,false,0,keypress(z),500,564283.6999999881,564283.1999999881,561682.91,561687,561699.576,564299.472,8,400,25,,ISIC_0027095.JPG
break,html.Screen,4_124_1,2023-11-02T20:55:36.118Z,,0,,,NaN,,,,,,false,,,,564284.8999999762,564284.6000000238,,564283.8999999762,,564299.472,8,400,,,
break_continue,html.Screen,4_124_2,2023-11-02T20:55:36.119Z,,0,,,NaN,,,,,,false,,,,564285.3000000119,564285.1999999881,,564285,,564299.472,8,400,,,
sequence,flow.Sequence,4_124,2023-11-02T20:55:36.119Z,,0,,,2585.623999988078,completion,,,,,false,,,,564285.5,564285.1999999881,561682.91,561687,561699.576,564299.472,8,400,,,
trial,html.Screen,4_125_0,2023-11-02T20:55:39.075Z,,0,3,,2942.2279999881284,response,ISIC_2143002.JPG,9,ISIC_0009510.JPG,ISIC_2143002.JPG,false,1,keypress(m),500,567242.1999999881,567241.6999999881,564282.806,564285.6000000238,564299.472,567249.752,8,400,26,,ISIC_0009510.JPG
