sender,sender_type,sender_id,timestamp,meta,,blockNo,condition,duration,ended_on,img_left,img_reveal,img_right,loser,practice,response,response_action,selection_duration,time_commit,time_end,time_render,time_run,time_show,time_switch,total_blocks,total_trials,trialNo,url,winner
informed_consent,html.Screen,0,2023-09-11T17:18:19.940Z,"{""labjs_version"":""20.2.4"",""labjs_build"":{""flavor"":""production"",""commit"":""f5b4a49f956347addd546a832a3327688c2c0fef""},""location"":""https://run.pavlovia.org/MurrayBennett/melanoma-2afc/?participant=67702&platform=sona"",""userAgent"":""Mozilla/5.0 (Macintosh; Intel Mac OS X 10_15_7) AppleWebKit/537.36 (KHTML, like Gecko) Chrome/116.0.0.0 Safari/537.36"",""platform"":""MacIntel"",""language"":""en-US"",""locale"":""en-US"",""timeZone"":""America/Chicago"",""timezoneOffset"":300,""screen_width"":1470,""screen_height"":956,""scroll_width"":1470,""scroll_height"":695,""window_innerWidth"":1470,""window_innerHeight"":743,""devicePixelRatio"":2}",,,,4703.614,response,,,,,,consent,click button,,7044.0999999940395,7041,2320.72,2341.9000000059605,2337.386,7054.193,,,,"{""participant"":""67702"",""platform"":""sona""}",
Welcome,html.Screen,1,2023-09-11T17:19:05.341Z,,,,regular,45389.00700000298,response,,,,,,continue,click button,,52445.79999999702,52443.20000000298,7037.527,7044.4000000059605,7054.193,52453.751,,,,,
trial,html.Screen,2_0_0,2023-09-11T17:19:14.070Z,,0,0,,8720.249000000003,response,ISIC_0061792.JPG,,ISIC_4679428.JPG,ISIC_4679428.JPG,true,0,keypress(z),500,61174.59999999404,61174,52437.085,52446.09999999404,52453.751,61187.184,1,6,1,,ISIC_0061792.JPG
sequence,flow.Sequence,2_0,2023-09-11T17:19:14.071Z,,0,,,8720.249000000003,completion,,,,,true,,,,61175.20000000298,61174,52437.085,52446.09999999404,52453.751,61187.184,1,6,,,
trial,html.Screen,2_1_0,2023-09-11T17:19:17.788Z,,0,0,,3705.315999999999,response,ISIC_0776486.JPG,,ISIC_5199497.JPG,ISIC_5199497.JPG,true,0,keypress(z),500,64893,64892.5,61170.518,61175.5,61187.184,64903.702,1,6,2,,ISIC_0776486.JPG
sequence,flow.Sequence,2_1,2023-09-11T17:19:17.789Z,,0,,,3705.315999999999,completion,,,,,true,,,,64893.20000000298,64892.5,61170.518,61175.29999999702,61187.184,64903.702,1,6,,,
trial,html.Screen,2_2_0,2023-09-11T17:19:21.632Z,,0,0,,3832.897999994042,response,ISIC_2556187.JPG,,ISIC_8575776.JPG,ISIC_2556187.JPG,true,1,keypress(m),500,68737,68736.59999999404,64887.036,64893.40000000596,64903.702,68753.548,1,6,3,,ISIC_8575776.JPG
sequence,flow.Sequence,2_2,2023-09-11T17:19:21.633Z,,0,,,3832.897999994042,completion,,,,,true,,,,68737.20000000298,68736.59999999404,64887.036,64893.29999999702,64903.702,68753.548,1,6,,,
trial,html.Screen,2_3_0,2023-09-11T17:19:25.553Z,,0,0,,3904.0519999940443,response,ISIC_9238366.JPG,,ISIC_8141769.JPG,ISIC_9238366.JPG,true,1,keypress(m),500,72658,72657.59999999404,68736.882,68737.40000000596,68753.548,72670.377,1,6,4,,ISIC_8141769.JPG
sequence,flow.Sequence,2_3,2023-09-11T17:19:25.554Z,,0,,,3904.0519999940443,completion,,,,,true,,,,72658.59999999404,72657.59999999404,68736.882,68737.40000000596,68753.548,72670.377,1,6,,,
trial,html.Screen,2_4_0,2023-09-11T17:19:29.013Z,,0,0,,3447.123000000007,response,ISIC_8949026.JPG,,ISIC_9959593.JPG,ISIC_9959593.JPG,true,0,keypress(z),500,76118,76117.5,72653.711,72658.79999999702,72670.377,76120.239,1,6,5,,ISIC_8949026.JPG
sequence,flow.Sequence,2_4,2023-09-11T17:19:29.014Z,,0,,,3447.123000000007,completion,,,,,true,,,,76118.40000000596,76117.5,72653.711,72658.70000000298,72670.377,76120.239,1,6,,,
trial,html.Screen,2_5_0,2023-09-11T17:19:32.896Z,,0,0,,3880.161000005959,response,ISIC_0460240.JPG,,ISIC_0010479.JPG,ISIC_0010479.JPG,true,0,keypress(z),500,80000.90000000596,80000.40000000596,76103.573,76118.70000000298,76120.239,80003.417,1,6,6,,ISIC_0460240.JPG
sequence,flow.Sequence,2_5,2023-09-11T17:19:32.897Z,,0,,,3880.161000005959,completion,,,,,true,,,,80001.40000000596,80000.40000000596,76103.573,76118.59999999404,76120.239,80003.417,1,6,,,
loop,flow.Loop,2,2023-09-11T17:19:32.897Z,,,,,27546.649000005964,completion,,,,,true,,,,80001.59999999404,80000.40000000596,52437.085,52446,52453.751,80003.417,1,6,,,
exp_instructions,html.Screen,3,2023-09-11T17:19:37.024Z,,,,,4121.682999994038,response,,,,,,continue,keypress(Space),,84128.59999999404,84125.09999999404,79986.751,80001.79999999702,80003.417,84153.573,,,,,
trial,html.Screen,4_0_0,2023-09-11T17:19:41.284Z,,0,1,,4234.226999997016,response,ISIC_0009721.JPG,8,ISIC_1046678.JPG,ISIC_1046678.JPG,false,0,keypress(z),500,88388.29999999702,88387.79999999702,84136.907,84128.70000000298,84153.573,88403.403,8,400,1,,ISIC_0009721.JPG
break,html.Screen,4_0_1,2023-09-11T17:19:41.285Z,,0,,,NaN,,,,,,false,,,,88390.20000000298,88389.79999999702,,88388.59999999404,,88403.403,8,400,,,
break_continue,html.Screen,4_0_2,2023-09-11T17:19:41.286Z,,0,,,NaN,,,,,,false,,,,88390.79999999702,88390.59999999404,,88390.29999999702,,88403.403,8,400,,,
sequence,flow.Sequence,4_0,2023-09-11T17:19:41.286Z,,0,,,4237.026999994036,completion,,,,,false,,,,88391,88390.59999999404,84136.907,84128.70000000298,84153.573,88403.403,8,400,,,
trial,html.Screen,4_1_0,2023-09-11T17:19:44.317Z,,0,1,,3017.5969999999943,response,ISIC_5336548.JPG,9,ISIC_8479913.JPG,ISIC_8479913.JPG,false,0,keypress(z),500,91421.40000000596,91421,88386.737,88391.09999999404,88403.403,91436.615,8,400,2,,ISIC_5336548.JPG
break,html.Screen,4_1_1,2023-09-11T17:19:44.318Z,,0,,,NaN,,,,,,false,,,,91422.79999999702,91422.40000000596,,91421.59999999404,,91436.615,8,400,,,
break_continue,html.Screen,4_1_2,2023-09-11T17:19:44.318Z,,0,,,NaN,,,,,,false,,,,91423.20000000298,91423.09999999404,,91422.79999999702,,91436.615,8,400,,,
sequence,flow.Sequence,4_1,2023-09-11T17:19:44.319Z,,0,,,3019.696999994034,completion,,,,,false,,,,91423.40000000596,91423.09999999404,88386.737,88391,88403.403,91436.615,8,400,,,
trial,html.Screen,4_2_0,2023-09-11T17:19:48.116Z,,0,1,,3783.9849999940343,response,ISIC_0046441.JPG,9,ISIC_1962845.JPG,ISIC_0046441.JPG,false,1,keypress(m),500,95220.90000000596,95220.59999999404,91419.949,91423.59999999404,91436.615,95236.948,8,400,3,,ISIC_1962845.JPG
break,html.Screen,4_2_1,2023-09-11T17:19:48.118Z,,0,,,NaN,,,,,,false,,,,95222.29999999702,95222,,95221.20000000298,,95236.948,8,400,,,
break_continue,html.Screen,4_2_2,2023-09-11T17:19:48.118Z,,0,,,NaN,,,,,,false,,,,95222.90000000596,95222.70000000298,,95222.5,,95236.948,8,400,,,
sequence,flow.Sequence,4_2,2023-09-11T17:19:48.118Z,,0,,,3786.085000002975,completion,,,,,false,,,,95223.09999999404,95222.70000000298,91419.949,91423.5,91436.615,95236.948,8,400,,,
trial,html.Screen,4_3_0,2023-09-11T17:19:51.376Z,,0,1,,3243.9520000059565,response,ISIC_7519627.JPG,8,ISIC_0071043.JPG,ISIC_0071043.JPG,false,0,keypress(z),500,98481.20000000298,98480.90000000596,95220.282,95223.20000000298,95236.948,98486.818,8,400,4,,ISIC_7519627.JPG
break,html.Screen,4_3_1,2023-09-11T17:19:51.378Z,,0,,,NaN,,,,,,false,,,,98482.59999999404,98482.20000000298,,98481.5,,98486.818,8,400,,,
break_continue,html.Screen,4_3_2,2023-09-11T17:19:51.378Z,,0,,,NaN,,,,,,false,,,,98483,98482.90000000596,,98482.59999999404,,98486.818,8,400,,,
sequence,flow.Sequence,4_3,2023-09-11T17:19:51.378Z,,0,,,3245.9520000059565,completion,,,,,false,,,,98483.20000000298,98482.90000000596,95220.282,95223.20000000298,95236.948,98486.818,8,400,,,
trial,html.Screen,4_4_0,2023-09-11T17:19:55.536Z,,0,1,,4154.082000005961,response,ISIC_1479949.JPG,8,ISIC_0058823.JPG,ISIC_1479949.JPG,false,1,keypress(m),500,102641.20000000298,102640.90000000596,98470.152,98483.29999999702,98486.818,102653.318,8,400,5,,ISIC_0058823.JPG
break,html.Screen,4_4_1,2023-09-11T17:19:55.538Z,,0,,,NaN,,,,,,false,,,,102642.5,102642.20000000298,,102641.5,,102653.318,8,400,,,
break_continue,html.Screen,4_4_2,2023-09-11T17:19:55.538Z,,0,,,NaN,,,,,,false,,,,102643,102642.79999999702,,102642.70000000298,,102653.318,8,400,,,
sequence,flow.Sequence,4_4,2023-09-11T17:19:55.538Z,,0,,,4155.9819999970205,completion,,,,,false,,,,102643.09999999404,102642.79999999702,98470.152,98483.29999999702,98486.818,102653.318,8,400,,,
trial,html.Screen,4_5_0,2023-09-11T17:19:58.312Z,,0,1,,2763.082000005961,response,ISIC_4374944.JPG,8,ISIC_0011013.JPG,ISIC_0011013.JPG,false,0,keypress(z),500,105416.70000000298,105416.40000000596,102636.652,102643.29999999702,102653.318,105420.211,8,400,6,,ISIC_4374944.JPG
break,html.Screen,4_5_1,2023-09-11T17:19:58.313Z,,0,,,NaN,,,,,,false,,,,105418.09999999404,105417.79999999702,,105417,,105420.211,8,400,,,
break_continue,html.Screen,4_5_2,2023-09-11T17:19:58.314Z,,0,,,NaN,,,,,,false,,,,105418.59999999404,105418.40000000596,,105418.29999999702,,105420.211,8,400,,,
sequence,flow.Sequence,4_5,2023-09-11T17:19:58.314Z,,0,,,2765.082000005961,completion,,,,,false,,,,105418.79999999702,105418.40000000596,102636.652,102643.29999999702,102653.318,105420.211,8,400,,,
trial,html.Screen,4_6_0,2023-09-11T17:20:01.224Z,,0,1,,2907.9890000029845,response,ISIC_4916704.JPG,8,ISIC_0033318.JPG,ISIC_0033318.JPG,false,0,keypress(z),500,108328.59999999404,108328.20000000298,105403.545,105418.90000000596,105420.211,108353.427,8,400,7,,ISIC_4916704.JPG
break,html.Screen,4_6_1,2023-09-11T17:20:01.225Z,,0,,,NaN,,,,,,false,,,,108329.79999999702,108329.5,,108328.79999999702,,108353.427,8,400,,,
break_continue,html.Screen,4_6_2,2023-09-11T17:20:01.225Z,,0,,,NaN,,,,,,false,,,,108330.29999999702,108330.09999999404,,108329.90000000596,,108353.427,8,400,,,
sequence,flow.Sequence,4_6,2023-09-11T17:20:01.225Z,,0,,,2909.888999994044,completion,,,,,false,,,,108330.40000000596,108330.09999999404,105403.545,105418.90000000596,105420.211,108353.427,8,400,,,
trial,html.Screen,4_7_0,2023-09-11T17:20:05.485Z,,0,1,,4235.773000002984,response,ISIC_1738738.JPG,5,ISIC_7663476.JPG,ISIC_1738738.JPG,false,1,keypress(m),500,112589.5,112589.20000000298,108336.761,108330.59999999404,108353.427,112603.257,8,400,8,,ISIC_7663476.JPG
break,html.Screen,4_7_1,2023-09-11T17:20:05.486Z,,0,,,NaN,,,,,,false,,,,112590.79999999702,112590.59999999404,,112589.79999999702,,112603.257,8,400,,,
break_continue,html.Screen,4_7_2,2023-09-11T17:20:05.486Z,,0,,,NaN,,,,,,false,,,,112591.20000000298,112591.20000000298,,112591,,112603.257,8,400,,,
sequence,flow.Sequence,4_7,2023-09-11T17:20:05.486Z,,0,,,4237.773000002984,completion,,,,,false,,,,112591.40000000596,112591.20000000298,108336.761,108330.59999999404,108353.427,112603.257,8,400,,,
trial,html.Screen,4_8_0,2023-09-11T17:20:08.852Z,,0,1,,3353.4430000029824,response,ISIC_0000814.JPG,6,ISIC_0929517.JPG,ISIC_0929517.JPG,false,0,keypress(z),500,115957,115956.70000000298,112586.591,112591.59999999404,112603.257,115970.092,8,400,9,,ISIC_0000814.JPG
break,html.Screen,4_8_1,2023-09-11T17:20:08.853Z,,0,,,NaN,,,,,,false,,,,115958.29999999702,115958,,115957.29999999702,,115970.092,8,400,,,
break_continue,html.Screen,4_8_2,2023-09-11T17:20:08.854Z,,0,,,NaN,,,,,,false,,,,115958.79999999702,115958.70000000298,,115958.5,,115970.092,8,400,,,
sequence,flow.Sequence,4_8,2023-09-11T17:20:08.854Z,,0,,,3355.4430000029824,completion,,,,,false,,,,115959,115958.70000000298,112586.591,112591.5,112603.257,115970.092,8,400,,,
trial,html.Screen,4_9_0,2023-09-11T17:20:11.739Z,,0,1,,2873.7079999970156,response,ISIC_8433108.JPG,8,ISIC_0030296.JPG,ISIC_0030296.JPG,false,0,keypress(z),500,118844,118843.79999999702,115953.426,115959.20000000298,115970.092,118853.31,8,400,10,,ISIC_8433108.JPG
break,html.Screen,4_9_1,2023-09-11T17:20:11.740Z,,0,,,NaN,,,,,,false,,,,118845.40000000596,118845,,118844.40000000596,,118853.31,8,400,,,
break_continue,html.Screen,4_9_2,2023-09-11T17:20:11.741Z,,0,,,NaN,,,,,,false,,,,118845.79999999702,118845.70000000298,,118845.40000000596,,118853.31,8,400,,,
sequence,flow.Sequence,4_9,2023-09-11T17:20:11.741Z,,0,,,2875.608000002976,completion,,,,,false,,,,118846,118845.70000000298,115953.426,115959.09999999404,115970.092,118853.31,8,400,,,
trial,html.Screen,4_10_0,2023-09-11T17:20:17.575Z,,0,1,,5826.789999994042,response,ISIC_5778927.JPG,8,ISIC_4139260.JPG,ISIC_4139260.JPG,false,0,keypress(z),500,124680.40000000596,124680.09999999404,118836.644,118847.40000000596,118853.31,124686.41,8,400,11,,ISIC_5778927.JPG
break,html.Screen,4_10_1,2023-09-11T17:20:17.577Z,,0,,,NaN,,,,,,false,,,,124681.90000000596,124681.59999999404,,124680.70000000298,,124686.41,8,400,,,
break_continue,html.Screen,4_10_2,2023-09-11T17:20:17.577Z,,0,,,NaN,,,,,,false,,,,124682.29999999702,124682.20000000298,,124682,,124686.41,8,400,,,
sequence,flow.Sequence,4_10,2023-09-11T17:20:17.577Z,,0,,,5828.890000002983,completion,,,,,false,,,,124682.5,124682.20000000298,118836.644,118847.40000000596,118853.31,124686.41,8,400,,,
trial,html.Screen,4_11_0,2023-09-11T17:20:22.495Z,,0,1,,4913.889999997016,response,ISIC_2970409.JPG,6,ISIC_0010783.JPG,ISIC_0010783.JPG,false,0,keypress(z),500,129600.59999999404,129600.29999999702,124669.744,124682.59999999404,124686.41,129603.263,8,400,12,,ISIC_2970409.JPG
break,html.Screen,4_11_1,2023-09-11T17:20:22.497Z,,0,,,NaN,,,,,,false,,,,129601.90000000596,129601.5,,129600.90000000596,,129603.263,8,400,,,
break_continue,html.Screen,4_11_2,2023-09-11T17:20:22.497Z,,0,,,NaN,,,,,,false,,,,129602.40000000596,129602.29999999702,,129602,,129603.263,8,400,,,
sequence,flow.Sequence,4_11,2023-09-11T17:20:22.497Z,,0,,,4915.889999997016,completion,,,,,false,,,,129602.59999999404,129602.29999999702,124669.744,124682.59999999404,124686.41,129603.263,8,400,,,
trial,html.Screen,4_12_0,2023-09-11T17:20:25.639Z,,0,1,,3140.137000005954,response,ISIC_0007884.JPG,6,ISIC_0013618.JPG,ISIC_0007884.JPG,false,1,keypress(m),500,132743.70000000298,132743.40000000596,129586.597,129602.70000000298,129603.263,132753.137,8,400,13,,ISIC_0013618.JPG
break,html.Screen,4_12_1,2023-09-11T17:20:25.640Z,,0,,,NaN,,,,,,false,,,,132745,132744.70000000298,,132744.09999999404,,132753.137,8,400,,,
break_continue,html.Screen,4_12_2,2023-09-11T17:20:25.640Z,,0,,,NaN,,,,,,false,,,,132745.5,132745.40000000596,,132745.09999999404,,132753.137,8,400,,,
sequence,flow.Sequence,4_12,2023-09-11T17:20:25.641Z,,0,,,3142.137000005954,completion,,,,,false,,,,132745.70000000298,132745.40000000596,129586.597,129602.70000000298,129603.263,132753.137,8,400,,,
trial,html.Screen,4_13_0,2023-09-11T17:20:28.495Z,,0,1,,2846.363000000012,response,ISIC_0016128.JPG,8,ISIC_1949126.JPG,ISIC_0016128.JPG,false,1,keypress(m),500,135599.79999999702,135599.5,132736.471,132745.90000000596,132753.137,135603.023,8,400,14,,ISIC_1949126.JPG
break,html.Screen,4_13_1,2023-09-11T17:20:28.496Z,,0,,,NaN,,,,,,false,,,,135601.09999999404,135600.90000000596,,135600.09999999404,,135603.023,8,400,,,
break_continue,html.Screen,4_13_2,2023-09-11T17:20:28.496Z,,0,,,NaN,,,,,,false,,,,135601.59999999404,135601.5,,135601.20000000298,,135603.023,8,400,,,
sequence,flow.Sequence,4_13,2023-09-11T17:20:28.497Z,,0,,,2848.363000000012,completion,,,,,false,,,,135601.79999999702,135601.5,132736.471,132745.79999999702,132753.137,135603.023,8,400,,,
trial,html.Screen,4_14_0,2023-09-11T17:20:31.333Z,,0,1,,2835.2769999970333,response,ISIC_8181142.JPG,8,ISIC_3094758.JPG,ISIC_3094758.JPG,false,0,keypress(z),500,138438.70000000298,138438.29999999702,135586.357,135601.90000000596,135603.023,138453.269,8,400,15,,ISIC_8181142.JPG
break,html.Screen,4_14_1,2023-09-11T17:20:31.335Z,,0,,,NaN,,,,,,false,,,,138439.79999999702,138439.59999999404,,138438.90000000596,,138453.269,8,400,,,
break_continue,html.Screen,4_14_2,2023-09-11T17:20:31.335Z,,0,,,NaN,,,,,,false,,,,138440.29999999702,138440.20000000298,,138439.90000000596,,138453.269,8,400,,,
sequence,flow.Sequence,4_14,2023-09-11T17:20:31.335Z,,0,,,2837.1770000029937,completion,,,,,false,,,,138440.29999999702,138440.20000000298,135586.357,135601.79999999702,135603.023,138453.269,8,400,,,
trial,html.Screen,4_15_0,2023-09-11T17:20:34.058Z,,0,1,,2709.93100000298,response,ISIC_5422940.JPG,9,ISIC_0067127.JPG,ISIC_0067127.JPG,false,0,keypress(z),500,141163.5,141163.20000000298,138436.603,138440.40000000596,138453.269,141169.827,8,400,16,,ISIC_5422940.JPG
break,html.Screen,4_15_1,2023-09-11T17:20:34.060Z,,0,,,NaN,,,,,,false,,,,141164.79999999702,141164.59999999404,,141163.90000000596,,141169.827,8,400,,,
break_continue,html.Screen,4_15_2,2023-09-11T17:20:34.060Z,,0,,,NaN,,,,,,false,,,,141165.29999999702,141165.20000000298,,141164.90000000596,,141169.827,8,400,,,
sequence,flow.Sequence,4_15,2023-09-11T17:20:34.060Z,,0,,,2711.93100000298,completion,,,,,false,,,,141165.5,141165.20000000298,138436.603,138440.40000000596,138453.269,141169.827,8,400,,,
trial,html.Screen,4_16_0,2023-09-11T17:20:37.138Z,,0,1,,3072.7729999940493,response,ISIC_0697953.JPG,7,ISIC_2884038.JPG,ISIC_2884038.JPG,false,0,keypress(z),500,144242.90000000596,144242.59999999404,141153.161,141165.5,141169.827,144253.037,8,400,17,,ISIC_0697953.JPG
break,html.Screen,4_16_1,2023-09-11T17:20:37.139Z,,0,,,NaN,,,,,,false,,,,144244.09999999404,144243.90000000596,,144243.20000000298,,144253.037,8,400,,,
break_continue,html.Screen,4_16_2,2023-09-11T17:20:37.139Z,,0,,,NaN,,,,,,false,,,,144244.59999999404,144244.5,,144244.29999999702,,144253.037,8,400,,,
sequence,flow.Sequence,4_16,2023-09-11T17:20:37.140Z,,0,,,3074.67300000001,completion,,,,,false,,,,144244.79999999702,144244.5,141153.161,141165.5,141169.827,144253.037,8,400,,,
trial,html.Screen,4_17_0,2023-09-11T17:20:40.089Z,,0,1,,2940.8630000059493,response,ISIC_0007416.JPG,6,ISIC_5910595.JPG,ISIC_5910595.JPG,false,0,keypress(z),500,147194.29999999702,147193.90000000596,144236.371,144245,144253.037,147203.252,8,400,18,,ISIC_0007416.JPG
break,html.Screen,4_17_1,2023-09-11T17:20:40.090Z,,0,,,NaN,,,,,,false,,,,147195.5,147195.29999999702,,147194.59999999404,,147203.252,8,400,,,
break_continue,html.Screen,4_17_2,2023-09-11T17:20:40.091Z,,0,,,NaN,,,,,,false,,,,147196,147195.90000000596,,147195.70000000298,,147203.252,8,400,,,
sequence,flow.Sequence,4_17,2023-09-11T17:20:40.091Z,,0,,,2942.8630000059493,completion,,,,,false,,,,147196.20000000298,147195.90000000596,144236.371,144244.90000000596,144253.037,147203.252,8,400,,,
trial,html.Screen,4_18_0,2023-09-11T17:20:44.191Z,,0,1,,4092.347999994032,response,ISIC_5356775.JPG,7,ISIC_0027056.JPG,ISIC_5356775.JPG,false,1,keypress(m),500,151295.90000000596,151295.59999999404,147186.586,147196.29999999702,147203.252,151303.088,8,400,19,,ISIC_0027056.JPG
break,html.Screen,4_18_1,2023-09-11T17:20:44.192Z,,0,,,NaN,,,,,,false,,,,151297.20000000298,151297,,151296.20000000298,,151303.088,8,400,,,
break_continue,html.Screen,4_18_2,2023-09-11T17:20:44.192Z,,0,,,NaN,,,,,,false,,,,151297.59999999404,151297.5,,151297.20000000298,,151303.088,8,400,,,
sequence,flow.Sequence,4_18,2023-09-11T17:20:44.192Z,,0,,,4094.2479999999923,completion,,,,,false,,,,151297.79999999702,151297.5,147186.586,147196.29999999702,147203.252,151303.088,8,400,,,
trial,html.Screen,4_19_0,2023-09-11T17:20:46.815Z,,0,1,,2616.711999997031,response,ISIC_0070814.JPG,9,ISIC_4344870.JPG,ISIC_0070814.JPG,false,1,keypress(m),500,153920.20000000298,153919.79999999702,151286.422,151297.90000000596,151303.088,153936.316,8,400,20,,ISIC_4344870.JPG
break,html.Screen,4_19_1,2023-09-11T17:20:46.816Z,,0,,,NaN,,,,,,false,,,,153921.40000000596,153921.20000000298,,153920.40000000596,,153936.316,8,400,,,
break_continue,html.Screen,4_19_2,2023-09-11T17:20:46.816Z,,0,,,NaN,,,,,,false,,,,153921.79999999702,153921.79999999702,,153921.59999999404,,153936.316,8,400,,,
sequence,flow.Sequence,4_19,2023-09-11T17:20:46.817Z,,0,,,2618.711999997031,completion,,,,,false,,,,153922,153921.79999999702,151286.422,151297.79999999702,151303.088,153936.316,8,400,,,
trial,html.Screen,4_20_0,2023-09-11T17:20:49.619Z,,0,1,,2788.084000005969,response,ISIC_1234463.JPG,10,ISIC_0028082.JPG,ISIC_0028082.JPG,false,0,keypress(z),500,156724.70000000298,156724.40000000596,153919.65,153922.09999999404,153936.316,156736.204,8,400,21,,ISIC_1234463.JPG
break,html.Screen,4_20_1,2023-09-11T17:20:49.621Z,,0,,,NaN,,,,,,false,,,,156726,156725.79999999702,,156725.09999999404,,156736.204,8,400,,,
break_continue,html.Screen,4_20_2,2023-09-11T17:20:49.621Z,,0,,,NaN,,,,,,false,,,,156726.5,156726.40000000596,,156726.20000000298,,156736.204,8,400,,,
sequence,flow.Sequence,4_20,2023-09-11T17:20:49.621Z,,0,,,2790.084000005969,completion,,,,,false,,,,156726.59999999404,156726.40000000596,153919.65,153922.09999999404,153936.316,156736.204,8,400,,,
trial,html.Screen,4_21_0,2023-09-11T17:20:52.426Z,,0,1,,2794.296000000002,response,ISIC_0033668.JPG,9,ISIC_0064427.JPG,ISIC_0064427.JPG,false,0,keypress(z),500,159530.90000000596,159530.5,156719.538,156726.79999999702,156736.204,159536.423,8,400,22,,ISIC_0033668.JPG
break,html.Screen,4_21_1,2023-09-11T17:20:52.427Z,,0,,,NaN,,,,,,false,,,,159532.29999999702,159532.09999999404,,159531.20000000298,,159536.423,8,400,,,
break_continue,html.Screen,4_21_2,2023-09-11T17:20:52.427Z,,0,,,NaN,,,,,,false,,,,159532.79999999702,159532.70000000298,,159532.5,,159536.423,8,400,,,
sequence,flow.Sequence,4_21,2023-09-11T17:20:52.428Z,,0,,,2796.4960000029823,completion,,,,,false,,,,159533,159532.70000000298,156719.538,156726.79999999702,156736.204,159536.423,8,400,,,
trial,html.Screen,4_22_0,2023-09-11T17:20:58.305Z,,0,1,,5873.477000005951,response,ISIC_0026369.JPG,6,ISIC_0053594.JPG,ISIC_0026369.JPG,false,1,keypress(m),500,165410.20000000298,165409.90000000596,159519.757,159533.20000000298,159536.423,165419.521,8,400,23,,ISIC_0053594.JPG
break,html.Screen,4_22_1,2023-09-11T17:20:58.306Z,,0,,,NaN,,,,,,false,,,,165411.59999999404,165411.29999999702,,165410.59999999404,,165419.521,8,400,,,
break_continue,html.Screen,4_22_2,2023-09-11T17:20:58.307Z,,0,,,NaN,,,,,,false,,,,165412.09999999404,165412,,165411.79999999702,,165419.521,8,400,,,
sequence,flow.Sequence,4_22,2023-09-11T17:20:58.307Z,,0,,,5875.57699999999,completion,,,,,false,,,,165412.29999999702,165412,159519.757,159533,159536.423,165419.521,8,400,,,
trial,html.Screen,4_23_0,2023-09-11T17:21:01.302Z,,0,1,,2987.3790000059525,response,ISIC_0024315.JPG,8,ISIC_0057531.JPG,ISIC_0024315.JPG,false,1,keypress(m),500,168407.29999999702,168406.90000000596,165402.855,165412.40000000596,165419.521,168419.738,8,400,24,,ISIC_0057531.JPG
break,html.Screen,4_23_1,2023-09-11T17:21:01.303Z,,0,,,NaN,,,,,,false,,,,168408.59999999404,168408.29999999702,,168407.59999999404,,168419.738,8,400,,,
break_continue,html.Screen,4_23_2,2023-09-11T17:21:01.304Z,,0,,,NaN,,,,,,false,,,,168409.09999999404,168408.90000000596,,168408.79999999702,,168419.738,8,400,,,
sequence,flow.Sequence,4_23,2023-09-11T17:21:01.304Z,,0,,,2989.3790000059525,completion,,,,,false,,,,168409.20000000298,168408.90000000596,165402.855,165412.40000000596,165419.521,168419.738,8,400,,,
trial,html.Screen,4_24_0,2023-09-11T17:21:04.271Z,,0,1,,2955.962000002968,response,ISIC_0031900.JPG,8,ISIC_9064823.JPG,ISIC_0031900.JPG,false,1,keypress(m),500,171376,171375.70000000298,168403.072,168409.40000000596,168419.738,171386.286,8,400,25,,ISIC_9064823.JPG
break,html.Screen,4_24_1,2023-09-11T17:21:04.272Z,,0,,,NaN,,,,,,false,,,,171377.29999999702,171377,,171376.29999999702,,171386.286,8,400,,,
break_continue,html.Screen,4_24_2,2023-09-11T17:21:04.272Z,,0,,,NaN,,,,,,false,,,,171377.79999999702,171377.59999999404,,171377.5,,171386.286,8,400,,,
sequence,flow.Sequence,4_24,2023-09-11T17:21:04.272Z,,0,,,2957.8619999940274,completion,,,,,false,,,,171377.90000000596,171377.59999999404,168403.072,168409.29999999702,168419.738,171386.286,8,400,,,
trial,html.Screen,4_25_0,2023-09-11T17:21:09.951Z,,0,1,,5670.013999997027,response,ISIC_3012778.JPG,8,ISIC_3763984.JPG,ISIC_3012778.JPG,false,1,keypress(m),500,177056.70000000298,177056.29999999702,171369.62,171378.09999999404,171386.286,177069.392,8,400,26,,ISIC_3763984.JPG
break,html.Screen,4_25_1,2023-09-11T17:21:09.953Z,,0,,,NaN,,,,,,false,,,,177058.09999999404,177057.79999999702,,177057,,177069.392,8,400,,,
break_continue,html.Screen,4_25_2,2023-09-11T17:21:09.953Z,,0,,,NaN,,,,,,false,,,,177058.79999999702,177058.59999999404,,177058.40000000596,,177069.392,8,400,,,
sequence,flow.Sequence,4_25,2023-09-11T17:21:09.953Z,,0,,,5672.313999994047,completion,,,,,false,,,,177059,177058.59999999404,171369.62,171378.09999999404,171386.286,177069.392,8,400,,,
trial,html.Screen,4_26_0,2023-09-11T17:21:13.095Z,,0,1,,3130.707999994047,response,ISIC_0567814.JPG,8,ISIC_1740912.JPG,ISIC_1740912.JPG,false,0,keypress(z),500,180200.59999999404,180200.09999999404,177052.726,177059.09999999404,177069.392,180202.934,8,400,27,,ISIC_0567814.JPG
break,html.Screen,4_26_1,2023-09-11T17:21:13.096Z,,0,,,NaN,,,,,,false,,,,180201.90000000596,180201.70000000298,,180200.79999999702,,180202.934,8,400,,,
break_continue,html.Screen,4_26_2,2023-09-11T17:21:13.097Z,,0,,,NaN,,,,,,false,,,,180202.29999999702,180202.20000000298,,180202,,180202.934,8,400,,,
sequence,flow.Sequence,4_26,2023-09-11T17:21:13.097Z,,0,,,3132.8080000029877,completion,,,,,false,,,,180202.5,180202.20000000298,177052.726,177059,177069.392,180202.934,8,400,,,
trial,html.Screen,4_27_0,2023-09-11T17:21:16.430Z,,0,1,,3331.8659999970114,response,ISIC_1496194.JPG,6,ISIC_0060297.JPG,ISIC_0060297.JPG,false,0,keypress(z),500,183535.20000000298,183534.79999999702,180186.268,180202.70000000298,180202.934,183536.134,8,400,28,,ISIC_1496194.JPG
break,html.Screen,4_27_1,2023-09-11T17:21:16.431Z,,0,,,NaN,,,,,,false,,,,183536.40000000596,183536.09999999404,,183535.5,,183536.134,8,400,,,
break_continue,html.Screen,4_27_2,2023-09-11T17:21:16.431Z,,0,,,NaN,,,,,,false,,,,183536.90000000596,183536.79999999702,,183536.59999999404,,183536.134,8,400,,,
sequence,flow.Sequence,4_27,2023-09-11T17:21:16.431Z,,0,,,3333.8659999970114,completion,,,,,false,,,,183537,183536.79999999702,180186.268,180202.59999999404,180202.934,183536.134,8,400,,,
trial,html.Screen,4_28_0,2023-09-11T17:21:19.250Z,,0,1,,2818.866000000009,response,ISIC_4624973.JPG,6,ISIC_3249783.JPG,ISIC_4624973.JPG,false,1,keypress(m),500,186355.29999999702,186355,183519.468,183537.20000000298,183536.134,186369.354,8,400,29,,ISIC_3249783.JPG
break,html.Screen,4_28_1,2023-09-11T17:21:19.251Z,,0,,,NaN,,,,,,false,,,,186356.5,186356.20000000298,,186355.5,,186369.354,8,400,,,
break_continue,html.Screen,4_28_2,2023-09-11T17:21:19.251Z,,0,,,NaN,,,,,,false,,,,186357,186356.79999999702,,186356.59999999404,,186369.354,8,400,,,
sequence,flow.Sequence,4_28,2023-09-11T17:21:19.251Z,,0,,,2820.665999997029,completion,,,,,false,,,,186357.09999999404,186356.79999999702,183519.468,183537.09999999404,183536.134,186369.354,8,400,,,
trial,html.Screen,4_29_0,2023-09-11T17:21:26.255Z,,0,1,,6991.245999994047,response,ISIC_0064026.JPG,8,ISIC_0006672.JPG,ISIC_0006672.JPG,false,0,keypress(z),500,193361.09999999404,193360.59999999404,186352.688,186357.29999999702,186369.354,193369.415,8,400,30,,ISIC_0064026.JPG
break,html.Screen,4_29_1,2023-09-11T17:21:26.257Z,,0,,,NaN,,,,,,false,,,,193362.5,193362.09999999404,,193361.29999999702,,193369.415,8,400,,,
break_continue,html.Screen,4_29_2,2023-09-11T17:21:26.257Z,,0,,,NaN,,,,,,false,,,,193363,193362.79999999702,,193362.59999999404,,193369.415,8,400,,,
sequence,flow.Sequence,4_29,2023-09-11T17:21:26.257Z,,0,,,6993.445999997028,completion,,,,,false,,,,193363.09999999404,193362.79999999702,186352.688,186357.29999999702,186369.354,193369.415,8,400,,,
trial,html.Screen,4_30_0,2023-09-11T17:21:29.831Z,,0,1,,3566.785000002972,response,ISIC_5926550.JPG,8,ISIC_0068012.JPG,ISIC_5926550.JPG,false,1,keypress(m),500,196936.59999999404,196936.20000000298,193352.749,193363.20000000298,193369.415,196952.605,8,400,31,,ISIC_0068012.JPG
break,html.Screen,4_30_1,2023-09-11T17:21:29.832Z,,0,,,NaN,,,,,,false,,,,196937.90000000596,196937.59999999404,,196936.79999999702,,196952.605,8,400,,,
break_continue,html.Screen,4_30_2,2023-09-11T17:21:29.833Z,,0,,,NaN,,,,,,false,,,,196938.29999999702,196938.29999999702,,196938,,196952.605,8,400,,,
sequence,flow.Sequence,4_30,2023-09-11T17:21:29.833Z,,0,,,3568.8849999970116,completion,,,,,false,,,,196938.5,196938.29999999702,193352.749,193363.20000000298,193369.415,196952.605,8,400,,,
trial,html.Screen,4_31_0,2023-09-11T17:21:32.713Z,,0,1,,2865.29500000595,response,ISIC_0006727.JPG,10,ISIC_8363485.JPG,ISIC_8363485.JPG,false,0,keypress(z),500,199818.29999999702,199817.90000000596,196935.939,196938.59999999404,196952.605,199819.473,8,400,32,,ISIC_0006727.JPG
break,html.Screen,4_31_1,2023-09-11T17:21:32.714Z,,0,,,NaN,,,,,,false,,,,199819.59999999404,199819.40000000596,,199818.5,,199819.473,8,400,,,
break_continue,html.Screen,4_31_2,2023-09-11T17:21:32.714Z,,0,,,NaN,,,,,,false,,,,199820.09999999404,199820,,199819.79999999702,,199819.473,8,400,,,
sequence,flow.Sequence,4_31,2023-09-11T17:21:32.714Z,,0,,,2867.3949999999895,completion,,,,,false,,,,199820.29999999702,199820,196935.939,196938.5,196952.605,199819.473,8,400,,,
trial,html.Screen,4_32_0,2023-09-11T17:21:35.768Z,,0,1,,3053.527000000002,response,ISIC_4938994.JPG,7,ISIC_0000569.JPG,ISIC_4938994.JPG,false,1,keypress(m),500,202873.29999999702,202873,199802.807,199820.40000000596,199819.473,202886.017,8,400,33,,ISIC_0000569.JPG
break,html.Screen,4_32_1,2023-09-11T17:21:35.769Z,,0,,,NaN,,,,,,false,,,,202874.70000000298,202874.40000000596,,202873.59999999404,,202886.017,8,400,,,
break_continue,html.Screen,4_32_2,2023-09-11T17:21:35.769Z,,0,,,NaN,,,,,,false,,,,202875.20000000298,202875,,202874.79999999702,,202886.017,8,400,,,
sequence,flow.Sequence,4_32,2023-09-11T17:21:35.769Z,,0,,,3055.527000000002,completion,,,,,false,,,,202875.29999999702,202875,199802.807,199820.40000000596,199819.473,202886.017,8,400,,,
trial,html.Screen,4_33_0,2023-09-11T17:21:38.519Z,,0,1,,2738.1830000029877,response,ISIC_7489564.JPG,8,ISIC_0069620.JPG,ISIC_0069620.JPG,false,0,keypress(z),500,205624.59999999404,205624.20000000298,202869.351,202875.40000000596,202886.017,205635.907,8,400,34,,ISIC_7489564.JPG
break,html.Screen,4_33_1,2023-09-11T17:21:38.520Z,,0,,,NaN,,,,,,false,,,,205626.09999999404,205625.70000000298,,205624.90000000596,,205635.907,8,400,,,
break_continue,html.Screen,4_33_2,2023-09-11T17:21:38.521Z,,0,,,NaN,,,,,,false,,,,205626.5,205626.40000000596,,205626.20000000298,,205635.907,8,400,,,
sequence,flow.Sequence,4_33,2023-09-11T17:21:38.521Z,,0,,,2740.383000005968,completion,,,,,false,,,,205626.70000000298,205626.40000000596,202869.351,202875.40000000596,202886.017,205635.907,8,400,,,
trial,html.Screen,4_34_0,2023-09-11T17:21:42.222Z,,0,1,,3691.7930000029737,response,ISIC_6247668.JPG,5,ISIC_8863344.JPG,ISIC_8863344.JPG,false,0,keypress(z),500,209328,209327.70000000298,205619.241,205626.79999999702,205635.907,209336.15,8,400,35,,ISIC_6247668.JPG
break,html.Screen,4_34_1,2023-09-11T17:21:42.223Z,,0,,,NaN,,,,,,false,,,,209329.29999999702,209329,,209328.29999999702,,209336.15,8,400,,,
break_continue,html.Screen,4_34_2,2023-09-11T17:21:42.224Z,,0,,,NaN,,,,,,false,,,,209329.70000000298,209329.59999999404,,209329.40000000596,,209336.15,8,400,,,
sequence,flow.Sequence,4_34,2023-09-11T17:21:42.224Z,,0,,,3693.692999994033,completion,,,,,false,,,,209329.90000000596,209329.59999999404,205619.241,205626.70000000298,205635.907,209336.15,8,400,,,
trial,html.Screen,4_35_0,2023-09-11T17:21:45.141Z,,0,1,,2910.350000000006,response,ISIC_0012865.JPG,7,ISIC_0058954.JPG,ISIC_0058954.JPG,false,0,keypress(z),500,212246.90000000596,212246.5,209319.484,209330.09999999404,209336.15,212252.7,8,400,36,,ISIC_0012865.JPG
break,html.Screen,4_35_1,2023-09-11T17:21:45.142Z,,0,,,NaN,,,,,,false,,,,212248.29999999702,212248,,212247.20000000298,,212252.7,8,400,,,
break_continue,html.Screen,4_35_2,2023-09-11T17:21:45.143Z,,0,,,NaN,,,,,,false,,,,212248.70000000298,212248.59999999404,,212248.40000000596,,212252.7,8,400,,,
sequence,flow.Sequence,4_35,2023-09-11T17:21:45.143Z,,0,,,2912.4499999940454,completion,,,,,false,,,,212249,212248.59999999404,209319.484,209330,209336.15,212252.7,8,400,,,
trial,html.Screen,4_36_0,2023-09-11T17:21:48.664Z,,0,1,,3517.0000000029686,response,ISIC_0054087.JPG,7,ISIC_0011763.JPG,ISIC_0054087.JPG,false,1,keypress(m),500,215770.09999999404,215769.70000000298,212236.034,212249.09999999404,212252.7,215785.892,8,400,37,,ISIC_0011763.JPG
break,html.Screen,4_36_1,2023-09-11T17:21:48.666Z,,0,,,NaN,,,,,,false,,,,215771.59999999404,215771.29999999702,,215770.40000000596,,215785.892,8,400,,,
break_continue,html.Screen,4_36_2,2023-09-11T17:21:48.666Z,,0,,,NaN,,,,,,false,,,,215772.09999999404,215771.90000000596,,215771.70000000298,,215785.892,8,400,,,
sequence,flow.Sequence,4_36,2023-09-11T17:21:48.666Z,,0,,,3519.200000005949,completion,,,,,false,,,,215772.20000000298,215771.90000000596,212236.034,212249.09999999404,212252.7,215785.892,8,400,,,
trial,html.Screen,4_37_0,2023-09-11T17:21:51.799Z,,0,1,,3118.207999994047,response,ISIC_7972996.JPG,7,ISIC_0001572.JPG,ISIC_0001572.JPG,false,0,keypress(z),500,218904.5,218904.09999999404,215769.226,215772.40000000596,215785.892,218919.1,8,400,38,,ISIC_7972996.JPG
break,html.Screen,4_37_1,2023-09-11T17:21:51.800Z,,0,,,NaN,,,,,,false,,,,218905.79999999702,218905.59999999404,,218904.70000000298,,218919.1,8,400,,,
break_continue,html.Screen,4_37_2,2023-09-11T17:21:51.800Z,,0,,,NaN,,,,,,false,,,,218906.29999999702,218906.20000000298,,218905.90000000596,,218919.1,8,400,,,
sequence,flow.Sequence,4_37,2023-09-11T17:21:51.800Z,,0,,,3120.3080000029877,completion,,,,,false,,,,218906.40000000596,218906.20000000298,215769.226,215772.29999999702,215785.892,218919.1,8,400,,,
trial,html.Screen,4_38_0,2023-09-11T17:21:54.845Z,,0,1,,3031.6000000029744,response,ISIC_0009911.JPG,8,ISIC_0014542.JPG,ISIC_0009911.JPG,false,1,keypress(m),500,221951,221950.70000000298,218902.434,218906.59999999404,218919.1,221952.629,8,400,39,,ISIC_0014542.JPG
break,html.Screen,4_38_1,2023-09-11T17:21:54.846Z,,0,,,NaN,,,,,,false,,,,221952.40000000596,221952.09999999404,,221951.29999999702,,221952.629,8,400,,,
break_continue,html.Screen,4_38_2,2023-09-11T17:21:54.847Z,,0,,,NaN,,,,,,false,,,,221952.90000000596,221952.70000000298,,221952.5,,221952.629,8,400,,,
sequence,flow.Sequence,4_38,2023-09-11T17:21:54.847Z,,0,,,3033.6000000029744,completion,,,,,false,,,,221953,221952.70000000298,218902.434,218906.59999999404,218919.1,221952.629,8,400,,,
trial,html.Screen,4_39_0,2023-09-11T17:21:57.940Z,,0,1,,3093.071000002994,response,ISIC_1426331.JPG,8,ISIC_0026344.JPG,ISIC_0026344.JPG,false,0,keypress(z),500,225046,225045.70000000298,221935.963,221953.09999999404,221952.629,225052.505,8,400,40,,ISIC_1426331.JPG
break,html.Screen,4_39_1,2023-09-11T17:21:57.941Z,,0,,,NaN,,,,,,false,,,,225047.09999999404,225046.79999999702,,225046.09999999404,,225052.505,8,400,,,
break_continue,html.Screen,4_39_2,2023-09-11T17:21:57.941Z,,0,,,NaN,,,,,,false,,,,225047.29999999702,225047.29999999702,,225047.20000000298,,225052.505,8,400,,,
sequence,flow.Sequence,4_39,2023-09-11T17:21:57.941Z,,0,,,3094.6709999970335,completion,,,,,false,,,,225047.40000000596,225047.29999999702,221935.963,221953.09999999404,221952.629,225052.505,8,400,,,
trial,html.Screen,4_40_0,2023-09-11T17:22:00.606Z,,0,1,,2658.895000005956,response,ISIC_4745475.JPG,6,ISIC_0033073.JPG,ISIC_0033073.JPG,false,0,keypress(z),500,227711.90000000596,227711.40000000596,225035.839,225047.59999999404,225052.505,227719.065,8,400,41,,ISIC_4745475.JPG
break,html.Screen,4_40_1,2023-09-11T17:22:00.607Z,,0,,,NaN,,,,,,false,,,,227713.5,227713.29999999702,,227712.29999999702,,227719.065,8,400,,,
break_continue,html.Screen,4_40_2,2023-09-11T17:22:00.608Z,,0,,,NaN,,,,,,false,,,,227714,227713.90000000596,,227713.59999999404,,227719.065,8,400,,,
sequence,flow.Sequence,4_40,2023-09-11T17:22:00.608Z,,0,,,2661.395000005956,completion,,,,,false,,,,227714.20000000298,227713.90000000596,225035.839,225047.5,225052.505,227719.065,8,400,,,
trial,html.Screen,4_41_0,2023-09-11T17:22:03.747Z,,0,1,,3133.2349999970174,response,ISIC_7967397.JPG,7,ISIC_5721110.JPG,ISIC_5721110.JPG,false,0,keypress(z),500,230852.70000000298,230852.29999999702,227702.399,227714.29999999702,227719.065,230869.279,8,400,42,,ISIC_7967397.JPG
break,html.Screen,4_41_1,2023-09-11T17:22:03.748Z,,0,,,NaN,,,,,,false,,,,230853.70000000298,230853.40000000596,,230852.79999999702,,230869.279,8,400,,,
break_continue,html.Screen,4_41_2,2023-09-11T17:22:03.748Z,,0,,,NaN,,,,,,false,,,,230853.90000000596,230853.90000000596,,230853.79999999702,,230869.279,8,400,,,
sequence,flow.Sequence,4_41,2023-09-11T17:22:03.748Z,,0,,,3134.835000005958,completion,,,,,false,,,,230854.09999999404,230853.90000000596,227702.399,227714.29999999702,227719.065,230869.279,8,400,,,
trial,html.Screen,4_42_0,2023-09-11T17:22:06.494Z,,0,1,,2730.621000005951,response,ISIC_4524488.JPG,5,ISIC_9940466.JPG,ISIC_4524488.JPG,false,1,keypress(m),500,233600.29999999702,233599.90000000596,230852.613,230854.09999999404,230869.279,233602.503,8,400,43,,ISIC_9940466.JPG
break,html.Screen,4_42_1,2023-09-11T17:22:06.496Z,,0,,,NaN,,,,,,false,,,,233601.90000000596,233601.5,,233600.70000000298,,233602.503,8,400,,,
break_continue,html.Screen,4_42_2,2023-09-11T17:22:06.496Z,,0,,,NaN,,,,,,false,,,,233602.29999999702,233602.20000000298,,233602,,233602.503,8,400,,,
sequence,flow.Sequence,4_42,2023-09-11T17:22:06.496Z,,0,,,2732.9210000029707,completion,,,,,false,,,,233602.5,233602.20000000298,230852.613,230854.09999999404,230869.279,233602.503,8,400,,,
trial,html.Screen,4_43_0,2023-09-11T17:22:09.475Z,,0,1,,2978.1970000029833,response,ISIC_0053617.JPG,8,ISIC_7190243.JPG,ISIC_7190243.JPG,false,0,keypress(z),500,236581,236580.70000000298,233585.837,233602.59999999404,233602.503,236585.717,8,400,44,,ISIC_0053617.JPG
break,html.Screen,4_43_1,2023-09-11T17:22:09.476Z,,0,,,NaN,,,,,,false,,,,236581.90000000596,236581.70000000298,,236581.20000000298,,236585.717,8,400,,,
break_continue,html.Screen,4_43_2,2023-09-11T17:22:09.476Z,,0,,,NaN,,,,,,false,,,,236582.20000000298,236582.09999999404,,236582,,236585.717,8,400,,,
sequence,flow.Sequence,4_43,2023-09-11T17:22:09.476Z,,0,,,2979.5969999940426,completion,,,,,false,,,,236582.29999999702,236582.09999999404,233585.837,233602.59999999404,233602.503,236585.717,8,400,,,
trial,html.Screen,4_44_0,2023-09-11T17:22:12.719Z,,0,1,,3239.0829999970156,response,ISIC_0066012.JPG,7,ISIC_0030512.JPG,ISIC_0066012.JPG,false,1,keypress(m),500,239825.20000000298,239824.79999999702,236569.051,236582.40000000596,236585.717,239835.896,8,400,45,,ISIC_0030512.JPG
break,html.Screen,4_44_1,2023-09-11T17:22:12.720Z,,0,,,NaN,,,,,,false,,,,239826.59999999404,239826.29999999702,,239825.5,,239835.896,8,400,,,
break_continue,html.Screen,4_44_2,2023-09-11T17:22:12.721Z,,0,,,NaN,,,,,,false,,,,239827,239826.90000000596,,239826.79999999702,,239835.896,8,400,,,
sequence,flow.Sequence,4_44,2023-09-11T17:22:12.721Z,,0,,,3241.1830000059563,completion,,,,,false,,,,239827.09999999404,239826.90000000596,236569.051,236582.40000000596,236585.717,239835.896,8,400,,,
trial,html.Screen,4_45_0,2023-09-11T17:22:15.510Z,,0,1,,2779.8040000029723,response,ISIC_7976724.JPG,7,ISIC_0031746.JPG,ISIC_7976724.JPG,false,1,keypress(m),500,242616.09999999404,242615.70000000298,239819.23,239827.29999999702,239835.896,242619.118,8,400,46,,ISIC_0031746.JPG
break,html.Screen,4_45_1,2023-09-11T17:22:15.511Z,,0,,,NaN,,,,,,false,,,,242617.5,242617.20000000298,,242616.40000000596,,242619.118,8,400,,,
break_continue,html.Screen,4_45_2,2023-09-11T17:22:15.512Z,,0,,,NaN,,,,,,false,,,,242618,242617.90000000596,,242617.70000000298,,242619.118,8,400,,,
sequence,flow.Sequence,4_45,2023-09-11T17:22:15.512Z,,0,,,2782.0040000059525,completion,,,,,false,,,,242618.09999999404,242617.90000000596,239819.23,239827.20000000298,239835.896,242619.118,8,400,,,
trial,html.Screen,4_46_0,2023-09-11T17:22:18.204Z,,0,1,,2690.3820000000123,response,ISIC_3571523.JPG,6,ISIC_9142919.JPG,ISIC_9142919.JPG,false,0,keypress(z),500,245310,245309.5,242602.452,242618.20000000298,242619.118,245319.01,8,400,47,,ISIC_3571523.JPG
break,html.Screen,4_46_1,2023-09-11T17:22:18.205Z,,0,,,NaN,,,,,,false,,,,245311.5,245311.20000000298,,245310.29999999702,,245319.01,8,400,,,
break_continue,html.Screen,4_46_2,2023-09-11T17:22:18.206Z,,0,,,NaN,,,,,,false,,,,245312,245311.79999999702,,245311.70000000298,,245319.01,8,400,,,
sequence,flow.Sequence,4_46,2023-09-11T17:22:18.206Z,,0,,,2692.681999997032,completion,,,,,false,,,,245312.09999999404,245311.79999999702,242602.452,242618.09999999404,242619.118,245319.01,8,400,,,
trial,html.Screen,4_47_0,2023-09-11T17:22:22.803Z,,0,1,,4589.890000005951,response,ISIC_0651353.JPG,8,ISIC_8663136.JPG,ISIC_0651353.JPG,false,1,keypress(m),500,249909.20000000298,249908.90000000596,245302.344,245312.20000000298,245319.01,249919.13,8,400,48,,ISIC_8663136.JPG
break,html.Screen,4_47_1,2023-09-11T17:22:22.804Z,,0,,,NaN,,,,,,false,,,,249910.70000000298,249910.40000000596,,249909.59999999404,,249919.13,8,400,,,
break_continue,html.Screen,4_47_2,2023-09-11T17:22:22.805Z,,0,,,NaN,,,,,,false,,,,249911.20000000298,249911.09999999404,,249910.79999999702,,249919.13,8,400,,,
sequence,flow.Sequence,4_47,2023-09-11T17:22:22.805Z,,0,,,4592.08999999403,completion,,,,,false,,,,249911.29999999702,249911.09999999404,245302.344,245312.20000000298,245319.01,249919.13,8,400,,,
trial,html.Screen,4_48_0,2023-09-11T17:22:27.062Z,,0,1,,4249.169999997015,response,ISIC_0033415.JPG,8,ISIC_1484525.JPG,ISIC_1484525.JPG,false,0,keypress(z),500,254168.59999999404,254168.29999999702,249902.464,249911.5,249919.13,254185.626,8,400,49,,ISIC_0033415.JPG
break,html.Screen,4_48_1,2023-09-11T17:22:27.064Z,,0,,,NaN,,,,,,false,,,,254170,254169.59999999404,,254168.90000000596,,254185.626,8,400,,,
break_continue,html.Screen,4_48_2,2023-09-11T17:22:27.064Z,,0,,,NaN,,,,,,false,,,,254170.5,254170.29999999702,,254170.09999999404,,254185.626,8,400,,,
sequence,flow.Sequence,4_48,2023-09-11T17:22:27.064Z,,0,,,4251.169999997015,completion,,,,,false,,,,254170.59999999404,254170.29999999702,249902.464,249911.40000000596,249919.13,254185.626,8,400,,,
trial,html.Screen,4_49_0,2023-09-11T17:22:31.086Z,,0,1,,4006.274000005971,response,ISIC_8791729.JPG,7,ISIC_0026475.JPG,ISIC_0026475.JPG,false,0,keypress(z),500,258192.29999999702,258191.90000000596,254168.96,254170.70000000298,254185.626,258202.132,8,400,50,,ISIC_8791729.JPG
break,html.Screen,4_49_1,2023-09-11T17:22:41.083Z,,0,,,9999.99999999997,timeout,,,,,false,,,,268189.5,268185.466,258185.466,258192.59999999404,258202.132,268202.132,8,400,,,
break_continue,html.Screen,4_49_2,2023-09-11T17:22:42.163Z,,0,,,1055.6679999970365,response,,,,,false,continue,keypress(Space),,269269.59999999404,269257.799999997,268185.466,268189.700000003,268202.132,269285.422,8,400,,,
sequence,flow.Sequence,4_49,2023-09-11T17:22:42.163Z,,0,,,15072.17399999703,completion,,,,,false,,,,269269.799999997,269257.799999997,254168.96,254170.70000000298,254185.626,269285.422,8,400,,,
trial,html.Screen,4_50_0,2023-09-11T17:22:46.920Z,,0,2,,4740.77800000296,response,ISIC_2661598.JPG,6,ISIC_0027836.JPG,ISIC_0027836.JPG,false,0,keypress(z),500,274026.59999999404,274026.200000003,269268.756,269269.90000000596,269285.422,274035.556,8,400,1,,ISIC_2661598.JPG
break,html.Screen,4_50_1,2023-09-11T17:22:46.921Z,,0,,,NaN,,,,,,false,,,,274027.90000000596,274027.700000003,,274026.90000000596,,274035.556,8,400,,,
break_continue,html.Screen,4_50_2,2023-09-11T17:22:46.922Z,,0,,,NaN,,,,,,false,,,,274028.5,274028.40000000596,,274028.09999999404,,274035.556,8,400,,,
sequence,flow.Sequence,4_50,2023-09-11T17:22:46.922Z,,0,,,4742.97800000594,completion,,,,,false,,,,274028.59999999404,274028.40000000596,269268.756,269269.90000000596,269285.422,274035.556,8,400,,,
trial,html.Screen,4_51_0,2023-09-11T17:22:49.904Z,,0,2,,2974.144000002998,response,ISIC_1570390.JPG,7,ISIC_5071555.JPG,ISIC_1570390.JPG,false,1,keypress(m),500,277010.09999999404,277009.700000003,274018.89,274028.799999997,274035.556,277018.77,8,400,2,,ISIC_5071555.JPG
break,html.Screen,4_51_1,2023-09-11T17:22:49.905Z,,0,,,NaN,,,,,,false,,,,277011.40000000596,277011.09999999404,,277010.40000000596,,277018.77,8,400,,,
break_continue,html.Screen,4_51_2,2023-09-11T17:22:49.905Z,,0,,,NaN,,,,,,false,,,,277011.799999997,277011.700000003,,277011.5,,277018.77,8,400,,,
sequence,flow.Sequence,4_51,2023-09-11T17:22:49.906Z,,0,,,2976.144000002998,completion,,,,,false,,,,277012,277011.700000003,274018.89,274028.799999997,274035.556,277018.77,8,400,,,
trial,html.Screen,4_52_0,2023-09-11T17:22:53.062Z,,0,2,,3149.4300000029616,response,ISIC_5674396.JPG,8,ISIC_8363485.JPG,ISIC_8363485.JPG,false,0,keypress(z),500,280168.40000000596,280168.200000003,277002.104,277012.09999999404,277018.77,280168.644,8,400,3,,ISIC_5674396.JPG
break,html.Screen,4_52_1,2023-09-11T17:22:53.062Z,,0,,,NaN,,,,,,false,,,,280168.59999999404,280168.59999999404,,280168.40000000596,,280168.644,8,400,,,
break_continue,html.Screen,4_52_2,2023-09-11T17:22:53.062Z,,0,,,NaN,,,,,,false,,,,280168.700000003,280168.59999999404,,280168.59999999404,,280168.644,8,400,,,
sequence,flow.Sequence,4_52,2023-09-11T17:22:53.062Z,,0,,,3149.829999994021,completion,,,,,false,,,,280168.799999997,280168.59999999404,277002.104,277012.09999999404,277018.77,280168.644,8,400,,,
trial,html.Screen,4_53_0,2023-09-11T17:22:56.090Z,,0,2,,3027.7560000059893,response,ISIC_0013243.JPG,8,ISIC_0068460.JPG,ISIC_0068460.JPG,false,0,keypress(z),500,283196.799999997,283196.40000000596,280151.978,280168.799999997,280168.644,283202.215,8,400,4,,ISIC_0013243.JPG
break,html.Screen,4_53_1,2023-09-11T17:22:56.092Z,,0,,,NaN,,,,,,false,,,,283198.09999999404,283197.90000000596,,283197.09999999404,,283202.215,8,400,,,
break_continue,html.Screen,4_53_2,2023-09-11T17:22:56.092Z,,0,,,NaN,,,,,,false,,,,283198.59999999404,283198.5,,283198.299999997,,283202.215,8,400,,,
sequence,flow.Sequence,4_53,2023-09-11T17:22:56.092Z,,0,,,3029.856000000029,completion,,,,,false,,,,283198.799999997,283198.5,280151.978,280168.799999997,280168.644,283202.215,8,400,,,
trial,html.Screen,4_54_0,2023-09-11T17:22:58.726Z,,0,2,,2629.584999996994,response,ISIC_4190900.JPG,9,ISIC_0000445.JPG,ISIC_0000445.JPG,false,0,keypress(z),500,285832.09999999404,285831.799999997,283185.549,283199,283202.215,285835.443,8,400,5,,ISIC_4190900.JPG
break,html.Screen,4_54_1,2023-09-11T17:22:58.727Z,,0,,,NaN,,,,,,false,,,,285833.299999997,285833,,285832.40000000596,,285835.443,8,400,,,
break_continue,html.Screen,4_54_2,2023-09-11T17:22:58.727Z,,0,,,NaN,,,,,,false,,,,285833.799999997,285833.59999999404,,285833.5,,285835.443,8,400,,,
sequence,flow.Sequence,4_54,2023-09-11T17:22:58.727Z,,0,,,2631.384999994014,completion,,,,,false,,,,285834,285833.59999999404,283185.549,283198.799999997,283202.215,285835.443,8,400,,,
trial,html.Screen,4_55_0,2023-09-11T17:23:01.197Z,,0,2,,2467.8569999969914,response,ISIC_4663883.JPG,8,ISIC_3573969.JPG,ISIC_4663883.JPG,false,1,keypress(m),500,288303.5,288303.299999997,285818.777,285834.09999999404,285835.443,288318.677,8,400,6,,ISIC_3573969.JPG
break,html.Screen,4_55_1,2023-09-11T17:23:01.198Z,,0,,,NaN,,,,,,false,,,,288304.799999997,288304.5,,288303.90000000596,,288318.677,8,400,,,
break_continue,html.Screen,4_55_2,2023-09-11T17:23:01.199Z,,0,,,NaN,,,,,,false,,,,288305.200000003,288305.09999999404,,288304.90000000596,,288318.677,8,400,,,
sequence,flow.Sequence,4_55,2023-09-11T17:23:01.199Z,,0,,,2469.656999994011,completion,,,,,false,,,,288305.40000000596,288305.09999999404,285818.777,285834.09999999404,285835.443,288318.677,8,400,,,
trial,html.Screen,4_56_0,2023-09-11T17:23:03.764Z,,0,2,,2551.322999999975,response,ISIC_2844539.JPG,8,ISIC_0013861.JPG,ISIC_0013861.JPG,false,0,keypress(z),500,290870.5,290870,288302.011,288305.5,288318.677,290885.241,8,400,7,,ISIC_2844539.JPG
break,html.Screen,4_56_1,2023-09-11T17:23:03.765Z,,0,,,NaN,,,,,,false,,,,290871.799999997,290871.5,,290870.799999997,,290885.241,8,400,,,
break_continue,html.Screen,4_56_2,2023-09-11T17:23:03.766Z,,0,,,NaN,,,,,,false,,,,290872.09999999404,290872.09999999404,,290871.90000000596,,290885.241,8,400,,,
sequence,flow.Sequence,4_56,2023-09-11T17:23:03.766Z,,0,,,2553.4229999940144,completion,,,,,false,,,,290872.299999997,290872.09999999404,288302.011,288305.5,288318.677,290885.241,8,400,,,
trial,html.Screen,4_57_0,2023-09-11T17:23:06.555Z,,0,2,,2775.9590000030003,response,ISIC_0034071.JPG,9,ISIC_0064683.JPG,ISIC_0064683.JPG,false,0,keypress(z),500,293661.5,293661.200000003,290868.575,290872.299999997,290885.241,293668.849,8,400,8,,ISIC_0034071.JPG
break,html.Screen,4_57_1,2023-09-11T17:23:06.556Z,,0,,,NaN,,,,,,false,,,,293662.799999997,293662.5,,293661.90000000596,,293668.849,8,400,,,
break_continue,html.Screen,4_57_2,2023-09-11T17:23:06.557Z,,0,,,NaN,,,,,,false,,,,293663.299999997,293663.09999999404,,293662.90000000596,,293668.849,8,400,,,
sequence,flow.Sequence,4_57,2023-09-11T17:23:06.557Z,,0,,,2777.8589999940596,completion,,,,,false,,,,293663.5,293663.09999999404,290868.575,290872.299999997,290885.241,293668.849,8,400,,,
trial,html.Screen,4_58_0,2023-09-11T17:23:09.218Z,,0,2,,2655.1510000000126,response,ISIC_9720518.JPG,6,ISIC_0066094.JPG,ISIC_0066094.JPG,false,0,keypress(z),500,296324.5,296324,293652.183,293663.5,293668.849,296335.409,8,400,9,,ISIC_9720518.JPG
break,html.Screen,4_58_1,2023-09-11T17:23:09.219Z,,0,,,NaN,,,,,,false,,,,296325.799999997,296325.5,,296324.700000003,,296335.409,8,400,,,
break_continue,html.Screen,4_58_2,2023-09-11T17:23:09.220Z,,0,,,NaN,,,,,,false,,,,296326.299999997,296326.200000003,,296325.90000000596,,296335.409,8,400,,,
sequence,flow.Sequence,4_58,2023-09-11T17:23:09.220Z,,0,,,2657.351000002993,completion,,,,,false,,,,296326.40000000596,296326.200000003,293652.183,293663.5,293668.849,296335.409,8,400,,,
trial,html.Screen,4_59_0,2023-09-11T17:23:11.960Z,,0,2,,2730.6909999940544,response,ISIC_3444719.JPG,7,ISIC_5832901.JPG,ISIC_3444719.JPG,false,1,keypress(m),500,299066.40000000596,299066.09999999404,296318.743,296326.59999999404,296335.409,299068.633,8,400,10,,ISIC_5832901.JPG
break,html.Screen,4_59_1,2023-09-11T17:23:11.961Z,,0,,,NaN,,,,,,false,,,,299067.90000000596,299067.59999999404,,299066.799999997,,299068.633,8,400,,,
break_continue,html.Screen,4_59_2,2023-09-11T17:23:11.962Z,,0,,,NaN,,,,,,false,,,,299068.299999997,299068.200000003,,299068,,299068.633,8,400,,,
sequence,flow.Sequence,4_59,2023-09-11T17:23:11.962Z,,0,,,2732.791000002995,completion,,,,,false,,,,299068.700000003,299068.200000003,296318.743,296326.5,296335.409,299068.633,8,400,,,
trial,html.Screen,4_60_0,2023-09-11T17:23:14.558Z,,0,2,,2595.3670000000275,response,ISIC_6946260.JPG,7,ISIC_0001103.JPG,ISIC_0001103.JPG,false,0,keypress(z),500,301664.40000000596,301664,299051.967,299068.799999997,299068.633,301668.529,8,400,11,,ISIC_6946260.JPG
break,html.Screen,4_60_1,2023-09-11T17:23:14.559Z,,0,,,NaN,,,,,,false,,,,301665.700000003,301665.40000000596,,301664.59999999404,,301668.529,8,400,,,
break_continue,html.Screen,4_60_2,2023-09-11T17:23:14.559Z,,0,,,NaN,,,,,,false,,,,301666.200000003,301666.09999999404,,301665.799999997,,301668.529,8,400,,,
sequence,flow.Sequence,4_60,2023-09-11T17:23:14.560Z,,0,,,2597.466999994067,completion,,,,,false,,,,301666.40000000596,301666.09999999404,299051.967,299068.700000003,299068.633,301668.529,8,400,,,
trial,html.Screen,4_61_0,2023-09-11T17:23:17.605Z,,0,2,,3042.87100000598,response,ISIC_0058625.JPG,8,ISIC_0062649.JPG,ISIC_0058625.JPG,false,1,keypress(m),500,304711.799999997,304711.40000000596,301651.863,301666.40000000596,301668.529,304718.73,8,400,12,,ISIC_0062649.JPG
break,html.Screen,4_61_1,2023-09-11T17:23:17.606Z,,0,,,NaN,,,,,,false,,,,304713.09999999404,304712.90000000596,,304712.09999999404,,304718.73,8,400,,,
break_continue,html.Screen,4_61_2,2023-09-11T17:23:17.607Z,,0,,,NaN,,,,,,false,,,,304713.59999999404,304713.5,,304713.200000003,,304718.73,8,400,,,
sequence,flow.Sequence,4_61,2023-09-11T17:23:17.607Z,,0,,,3044.9710000000196,completion,,,,,false,,,,304713.700000003,304713.5,301651.863,301666.40000000596,301668.529,304718.73,8,400,,,
trial,html.Screen,4_62_0,2023-09-11T17:23:23.675Z,,0,2,,6062.770000000019,response,ISIC_0028919.JPG,7,ISIC_4540332.JPG,ISIC_4540332.JPG,false,0,keypress(z),500,310781.799999997,310781.5,304702.064,304713.90000000596,304718.73,310785.154,8,400,13,,ISIC_0028919.JPG
break,html.Screen,4_62_1,2023-09-11T17:23:23.676Z,,0,,,NaN,,,,,,false,,,,310782.90000000596,310782.799999997,,310782,,310785.154,8,400,,,
break_continue,html.Screen,4_62_2,2023-09-11T17:23:23.676Z,,0,,,NaN,,,,,,false,,,,310783.200000003,310783.200000003,,310783,,310785.154,8,400,,,
sequence,flow.Sequence,4_62,2023-09-11T17:23:23.677Z,,0,,,6064.470000002999,completion,,,,,false,,,,310783.40000000596,310783.200000003,304702.064,304713.799999997,304718.73,310785.154,8,400,,,
trial,html.Screen,4_63_0,2023-09-11T17:23:26.400Z,,0,2,,2721.6459999970393,response,ISIC_0013213.JPG,5,ISIC_0034173.JPG,ISIC_0034173.JPG,false,0,keypress(z),500,313507.09999999404,313506.799999997,310768.488,310783.40000000596,310785.154,313518.728,8,400,14,,ISIC_0013213.JPG
break,html.Screen,4_63_1,2023-09-11T17:23:26.402Z,,0,,,NaN,,,,,,false,,,,313508.5,313508.200000003,,313507.5,,313518.728,8,400,,,
break_continue,html.Screen,4_63_2,2023-09-11T17:23:26.402Z,,0,,,NaN,,,,,,false,,,,313509,313508.799999997,,313508.700000003,,313518.728,8,400,,,
sequence,flow.Sequence,4_63,2023-09-11T17:23:26.402Z,,0,,,2723.6459999970393,completion,,,,,false,,,,313509.200000003,313508.799999997,310768.488,310783.40000000596,310785.154,313518.728,8,400,,,
trial,html.Screen,4_64_0,2023-09-11T17:23:29.176Z,,0,2,,2763.271999999997,response,ISIC_0029033.JPG,6,ISIC_0057518.JPG,ISIC_0057518.JPG,false,0,keypress(z),500,316282.299999997,316282,313502.062,313509.299999997,313518.728,316285.284,8,400,15,,ISIC_0029033.JPG
break,html.Screen,4_64_1,2023-09-11T17:23:29.177Z,,0,,,NaN,,,,,,false,,,,316283.700000003,316283.40000000596,,316282.700000003,,316285.284,8,400,,,
break_continue,html.Screen,4_64_2,2023-09-11T17:23:29.177Z,,0,,,NaN,,,,,,false,,,,316284.09999999404,316284,,316283.799999997,,316285.284,8,400,,,
sequence,flow.Sequence,4_64,2023-09-11T17:23:29.177Z,,0,,,2765.271999999997,completion,,,,,false,,,,316284.200000003,316284,313502.062,313509.299999997,313518.728,316285.284,8,400,,,
trial,html.Screen,4_65_0,2023-09-11T17:23:31.581Z,,0,2,,2401.716000000015,response,ISIC_3288342.JPG,4,ISIC_0031742.JPG,ISIC_3288342.JPG,false,1,keypress(m),500,318687.40000000596,318687,316268.618,316284.299999997,316285.284,318701.854,8,400,16,,ISIC_0031742.JPG
break,html.Screen,4_65_1,2023-09-11T17:23:31.582Z,,0,,,NaN,,,,,,false,,,,318688.799999997,318688.5,,318687.799999997,,318701.854,8,400,,,
break_continue,html.Screen,4_65_2,2023-09-11T17:23:31.582Z,,0,,,NaN,,,,,,false,,,,318689.200000003,318689.09999999404,,318688.90000000596,,318701.854,8,400,,,
sequence,flow.Sequence,4_65,2023-09-11T17:23:31.583Z,,0,,,2403.8159999940544,completion,,,,,false,,,,318689.40000000596,318689.09999999404,316268.618,316284.200000003,316285.284,318701.854,8,400,,,
trial,html.Screen,4_66_0,2023-09-11T17:23:34.245Z,,0,2,,2649.4459999970277,response,ISIC_0024507.JPG,8,ISIC_0056957.JPG,ISIC_0056957.JPG,false,0,keypress(z),500,321351.700000003,321351.299999997,318685.188,318689.5,318701.854,321368.414,8,400,17,,ISIC_0024507.JPG
break,html.Screen,4_66_1,2023-09-11T17:23:34.246Z,,0,,,NaN,,,,,,false,,,,321353,321352.59999999404,,321352,,321368.414,8,400,,,
break_continue,html.Screen,4_66_2,2023-09-11T17:23:34.247Z,,0,,,NaN,,,,,,false,,,,321353.40000000596,321353.200000003,,321353.09999999404,,321368.414,8,400,,,
sequence,flow.Sequence,4_66,2023-09-11T17:23:34.247Z,,0,,,2651.346000002988,completion,,,,,false,,,,321353.59999999404,321353.200000003,318685.188,318689.5,318701.854,321368.414,8,400,,,
trial,html.Screen,4_67_0,2023-09-11T17:23:37.099Z,,0,2,,2837.4860000059707,response,ISIC_0024962.JPG,8,ISIC_0011930.JPG,ISIC_0011930.JPG,false,0,keypress(z),500,324206.40000000596,324205.90000000596,321351.748,321353.700000003,321368.414,324218.649,8,400,18,,ISIC_0024962.JPG
break,html.Screen,4_67_1,2023-09-11T17:23:37.101Z,,0,,,NaN,,,,,,false,,,,324207.700000003,324207.5,,324206.700000003,,324218.649,8,400,,,
break_continue,html.Screen,4_67_2,2023-09-11T17:23:37.101Z,,0,,,NaN,,,,,,false,,,,324208.09999999404,324208,,324207.90000000596,,324218.649,8,400,,,
sequence,flow.Sequence,4_67,2023-09-11T17:23:37.101Z,,0,,,2839.5860000000102,completion,,,,,false,,,,324208.299999997,324208,321351.748,321353.59999999404,321368.414,324218.649,8,400,,,
trial,html.Screen,4_68_0,2023-09-11T17:23:39.779Z,,0,2,,2666.650999997044,response,ISIC_1225511.JPG,6,ISIC_0009908.JPG,ISIC_1225511.JPG,false,1,keypress(m),500,326885.700000003,326885.299999997,324201.983,324208.40000000596,324218.649,326901.875,8,400,19,,ISIC_0009908.JPG
break,html.Screen,4_68_1,2023-09-11T17:23:39.780Z,,0,,,NaN,,,,,,false,,,,326887,326886.799999997,,326885.90000000596,,326901.875,8,400,,,
break_continue,html.Screen,4_68_2,2023-09-11T17:23:39.781Z,,0,,,NaN,,,,,,false,,,,326887.5,326887.40000000596,,326887.200000003,,326901.875,8,400,,,
sequence,flow.Sequence,4_68,2023-09-11T17:23:39.781Z,,0,,,2668.7510000059847,completion,,,,,false,,,,326887.700000003,326887.40000000596,324201.983,324208.40000000596,324218.649,326901.875,8,400,,,
trial,html.Screen,4_69_0,2023-09-11T17:23:42.359Z,,0,2,,2563.4249999970198,response,ISIC_0029478.JPG,7,ISIC_1658623.JPG,ISIC_0029478.JPG,false,1,keypress(m),500,329465.700000003,329465.299999997,326885.209,326887.799999997,326901.875,329468.439,8,400,20,,ISIC_1658623.JPG
break,html.Screen,4_69_1,2023-09-11T17:23:42.360Z,,0,,,NaN,,,,,,false,,,,329467,329466.700000003,,329466,,329468.439,8,400,,,
break_continue,html.Screen,4_69_2,2023-09-11T17:23:42.361Z,,0,,,NaN,,,,,,false,,,,329467.40000000596,329467.40000000596,,329467.09999999404,,329468.439,8,400,,,
sequence,flow.Sequence,4_69,2023-09-11T17:23:42.361Z,,0,,,2565.5250000059605,completion,,,,,false,,,,329467.59999999404,329467.40000000596,326885.209,326887.799999997,326901.875,329468.439,8,400,,,
trial,html.Screen,4_70_0,2023-09-11T17:23:44.959Z,,0,2,,2597.060999999987,response,ISIC_0011286.JPG,5,ISIC_0055859.JPG,ISIC_0055859.JPG,false,0,keypress(z),500,332065.799999997,332065.5,329451.773,329467.799999997,329468.439,332068.335,8,400,21,,ISIC_0011286.JPG
break,html.Screen,4_70_1,2023-09-11T17:23:44.960Z,,0,,,NaN,,,,,,false,,,,332067,332066.700000003,,332066,,332068.335,8,400,,,
break_continue,html.Screen,4_70_2,2023-09-11T17:23:44.961Z,,0,,,NaN,,,,,,false,,,,332067.59999999404,332067.5,,332067.200000003,,332068.335,8,400,,,
sequence,flow.Sequence,4_70,2023-09-11T17:23:44.961Z,,0,,,2599.060999999987,completion,,,,,false,,,,332067.59999999404,332067.5,329451.773,329467.799999997,329468.439,332068.335,8,400,,,
trial,html.Screen,4_71_0,2023-09-11T17:23:47.742Z,,0,2,,2780.2649999940186,response,ISIC_0510617.JPG,8,ISIC_0031368.JPG,ISIC_0510617.JPG,false,1,keypress(m),500,334848.90000000596,334848.59999999404,332051.669,332067.700000003,332068.335,334851.909,8,400,22,,ISIC_0031368.JPG
break,html.Screen,4_71_1,2023-09-11T17:23:47.743Z,,0,,,NaN,,,,,,false,,,,334850.200000003,334849.90000000596,,334849.200000003,,334851.909,8,400,,,
break_continue,html.Screen,4_71_2,2023-09-11T17:23:47.744Z,,0,,,NaN,,,,,,false,,,,334850.59999999404,334850.5,,334850.299999997,,334851.909,8,400,,,
sequence,flow.Sequence,4_71,2023-09-11T17:23:47.744Z,,0,,,2782.164999999979,completion,,,,,false,,,,334850.700000003,334850.5,332051.669,332067.59999999404,332068.335,334851.909,8,400,,,
trial,html.Screen,4_72_0,2023-09-11T17:23:51.071Z,,0,2,,3325.9910000059754,response,ISIC_0000087.JPG,8,ISIC_0055287.JPG,ISIC_0055287.JPG,false,0,keypress(z),500,338178.299999997,338177.90000000596,334835.243,334850.799999997,334851.909,338185.109,8,400,23,,ISIC_0000087.JPG
break,html.Screen,4_72_1,2023-09-11T17:23:51.073Z,,0,,,NaN,,,,,,false,,,,338179.5,338179.299999997,,338178.59999999404,,338185.109,8,400,,,
break_continue,html.Screen,4_72_2,2023-09-11T17:23:51.073Z,,0,,,NaN,,,,,,false,,,,338180,338179.90000000596,,338179.700000003,,338185.109,8,400,,,
sequence,flow.Sequence,4_72,2023-09-11T17:23:51.073Z,,0,,,3327.9910000059754,completion,,,,,false,,,,338180.09999999404,338179.90000000596,334835.243,334850.799999997,334851.909,338185.109,8,400,,,
trial,html.Screen,4_73_0,2023-09-11T17:23:53.925Z,,0,2,,2846.0910000029835,response,ISIC_1102391.JPG,6,ISIC_4842269.JPG,ISIC_4842269.JPG,false,0,keypress(z),500,341031.59999999404,341031.200000003,338168.443,338180.299999997,338185.109,341034.995,8,400,24,,ISIC_1102391.JPG
break,html.Screen,4_73_1,2023-09-11T17:23:53.926Z,,0,,,NaN,,,,,,false,,,,341032.90000000596,341032.59999999404,,341031.90000000596,,341034.995,8,400,,,
break_continue,html.Screen,4_73_2,2023-09-11T17:23:53.926Z,,0,,,NaN,,,,,,false,,,,341033.299999997,341033.200000003,,341033,,341034.995,8,400,,,
sequence,flow.Sequence,4_73,2023-09-11T17:23:53.926Z,,0,,,2848.0910000029835,completion,,,,,false,,,,341033.5,341033.200000003,338168.443,338180.299999997,338185.109,341034.995,8,400,,,
trial,html.Screen,4_74_0,2023-09-11T17:23:56.551Z,,0,2,,2622.3049999970244,response,ISIC_0033121.JPG,9,ISIC_0001111.JPG,ISIC_0033121.JPG,false,1,keypress(m),500,343657.700000003,343657.299999997,341018.329,341033.59999999404,341034.995,343668.223,8,400,25,,ISIC_0001111.JPG
break,html.Screen,4_74_1,2023-09-11T17:23:56.552Z,,0,,,NaN,,,,,,false,,,,343659,343658.59999999404,,343658,,343668.223,8,400,,,
break_continue,html.Screen,4_74_2,2023-09-11T17:23:56.552Z,,0,,,NaN,,,,,,false,,,,343659.40000000596,343659.299999997,,343659.09999999404,,343668.223,8,400,,,
sequence,flow.Sequence,4_74,2023-09-11T17:23:56.552Z,,0,,,2624.3049999970244,completion,,,,,false,,,,343659.59999999404,343659.299999997,341018.329,341033.59999999404,341034.995,343668.223,8,400,,,
trial,html.Screen,4_75_0,2023-09-11T17:23:59.421Z,,0,2,,2859.1770000059623,response,ISIC_1226882.JPG,8,ISIC_3123377.JPG,ISIC_3123377.JPG,false,0,keypress(z),500,346527.59999999404,346527.40000000596,343651.557,343659.700000003,343668.223,346535.108,8,400,26,,ISIC_1226882.JPG
break,html.Screen,4_75_1,2023-09-11T17:23:59.422Z,,0,,,NaN,,,,,,false,,,,346528.90000000596,346528.700000003,,346528,,346535.108,8,400,,,
break_continue,html.Screen,4_75_2,2023-09-11T17:23:59.422Z,,0,,,NaN,,,,,,false,,,,346529.40000000596,346529.299999997,,346529,,346535.108,8,400,,,
sequence,flow.Sequence,4_75,2023-09-11T17:23:59.422Z,,0,,,2861.0769999970216,completion,,,,,false,,,,346529.5,346529.299999997,343651.557,343659.59999999404,343668.223,346535.108,8,400,,,
trial,html.Screen,4_76_0,2023-09-11T17:24:02.340Z,,0,2,,2911.792000005953,response,ISIC_0056156.JPG,8,ISIC_0011960.JPG,ISIC_0011960.JPG,false,0,keypress(z),500,349447.299999997,349446.90000000596,346518.442,346529.700000003,346535.108,349451.658,8,400,27,,ISIC_0056156.JPG
break,html.Screen,4_76_1,2023-09-11T17:24:02.342Z,,0,,,NaN,,,,,,false,,,,349448.700000003,349448.200000003,,349447.5,,349451.658,8,400,,,
break_continue,html.Screen,4_76_2,2023-09-11T17:24:02.342Z,,0,,,NaN,,,,,,false,,,,349449.200000003,349449,,349448.90000000596,,349451.658,8,400,,,
sequence,flow.Sequence,4_76,2023-09-11T17:24:02.342Z,,0,,,2913.8919999999925,completion,,,,,false,,,,349449.299999997,349449,346518.442,346529.700000003,346535.108,349451.658,8,400,,,
trial,html.Screen,4_77_0,2023-09-11T17:24:05.067Z,,0,2,,2722.0420000029844,response,ISIC_0659400.JPG,5,ISIC_0033473.JPG,ISIC_0659400.JPG,false,1,keypress(m),500,352174.09999999404,352173.700000003,349434.992,349449.40000000596,349451.658,352184.882,8,400,28,,ISIC_0033473.JPG
break,html.Screen,4_77_1,2023-09-11T17:24:05.068Z,,0,,,NaN,,,,,,false,,,,352175.40000000596,352175.09999999404,,352174.40000000596,,352184.882,8,400,,,
break_continue,html.Screen,4_77_2,2023-09-11T17:24:05.069Z,,0,,,NaN,,,,,,false,,,,352175.700000003,352175.700000003,,352175.5,,352184.882,8,400,,,
sequence,flow.Sequence,4_77,2023-09-11T17:24:05.069Z,,0,,,2724.0420000029844,completion,,,,,false,,,,352175.90000000596,352175.700000003,349434.992,349449.40000000596,349451.658,352184.882,8,400,,,
trial,html.Screen,4_78_0,2023-09-11T17:24:08.162Z,,0,2,,3084.0180000059772,response,ISIC_0034089.JPG,9,ISIC_3933658.JPG,ISIC_3933658.JPG,false,0,keypress(z),500,355269.299999997,355268.90000000596,352168.216,352176,352184.882,355285.088,8,400,29,,ISIC_0034089.JPG
break,html.Screen,4_78_1,2023-09-11T17:24:08.163Z,,0,,,NaN,,,,,,false,,,,355270.700000003,355270.299999997,,355269.59999999404,,355285.088,8,400,,,
break_continue,html.Screen,4_78_2,2023-09-11T17:24:08.164Z,,0,,,NaN,,,,,,false,,,,355271,355271,,355270.700000003,,355285.088,8,400,,,
sequence,flow.Sequence,4_78,2023-09-11T17:24:08.164Z,,0,,,3086.1180000000168,completion,,,,,false,,,,355271.200000003,355271,352168.216,352176,352184.882,355285.088,8,400,,,
trial,html.Screen,4_79_0,2023-09-11T17:24:14.458Z,,0,2,,6279.412000000011,response,ISIC_0011388.JPG,8,ISIC_8899350.JPG,ISIC_0011388.JPG,false,1,keypress(m),500,361564.799999997,361564.5,355268.422,355271.299999997,355285.088,361568.17,8,400,30,,ISIC_8899350.JPG
break,html.Screen,4_79_1,2023-09-11T17:24:14.459Z,,0,,,NaN,,,,,,false,,,,361566.09999999404,361565.90000000596,,361565.09999999404,,361568.17,8,400,,,
break_continue,html.Screen,4_79_2,2023-09-11T17:24:14.459Z,,0,,,NaN,,,,,,false,,,,361566.59999999404,361566.5,,361566.299999997,,361568.17,8,400,,,
sequence,flow.Sequence,4_79,2023-09-11T17:24:14.459Z,,0,,,6281.412000000011,completion,,,,,false,,,,361566.700000003,361566.5,355268.422,355271.299999997,355285.088,361568.17,8,400,,,
trial,html.Screen,4_80_0,2023-09-11T17:24:18.032Z,,0,2,,3570.5300000029965,response,ISIC_0006116.JPG,6,ISIC_8066110.JPG,ISIC_8066110.JPG,false,0,keypress(z),500,365139,365138.700000003,361551.504,361566.799999997,361568.17,365168.387,8,400,31,,ISIC_0006116.JPG
break,html.Screen,4_80_1,2023-09-11T17:24:18.033Z,,0,,,NaN,,,,,,false,,,,365140.299999997,365140,,365139.299999997,,365168.387,8,400,,,
break_continue,html.Screen,4_80_2,2023-09-11T17:24:18.033Z,,0,,,NaN,,,,,,false,,,,365140.799999997,365140.59999999404,,365140.40000000596,,365168.387,8,400,,,
sequence,flow.Sequence,4_80,2023-09-11T17:24:18.034Z,,0,,,3572.429999994056,completion,,,,,false,,,,365140.90000000596,365140.59999999404,361551.504,361566.799999997,361568.17,365168.387,8,400,,,
trial,html.Screen,4_81_0,2023-09-11T17:24:21.368Z,,0,2,,3306.5130000059726,response,ISIC_0011398.JPG,7,ISIC_0029705.JPG,ISIC_0029705.JPG,false,0,keypress(z),500,368475.299999997,368474.90000000596,365151.721,365141,365168.387,368484.921,8,400,32,,ISIC_0011398.JPG
break,html.Screen,4_81_1,2023-09-11T17:24:21.369Z,,0,,,NaN,,,,,,false,,,,368476.59999999404,368476.299999997,,368475.59999999404,,368484.921,8,400,,,
break_continue,html.Screen,4_81_2,2023-09-11T17:24:21.370Z,,0,,,NaN,,,,,,false,,,,368477.09999999404,368477,,368476.799999997,,368484.921,8,400,,,
sequence,flow.Sequence,4_81,2023-09-11T17:24:21.370Z,,0,,,3308.613000000012,completion,,,,,false,,,,368477.299999997,368477,365151.721,365141,365168.387,368484.921,8,400,,,
trial,html.Screen,4_82_0,2023-09-11T17:24:24.038Z,,0,2,,2659.6789999940665,response,ISIC_1412843.JPG,7,ISIC_2214766.JPG,ISIC_1412843.JPG,false,1,keypress(m),500,371144.799999997,371144.59999999404,368468.255,368477.40000000596,368484.921,371151.481,8,400,33,,ISIC_2214766.JPG
break,html.Screen,4_82_1,2023-09-11T17:24:24.039Z,,0,,,NaN,,,,,,false,,,,371146.09999999404,371145.799999997,,371145.200000003,,371151.481,8,400,,,
break_continue,html.Screen,4_82_2,2023-09-11T17:24:24.039Z,,0,,,NaN,,,,,,false,,,,371146.5,371146.40000000596,,371146.200000003,,371151.481,8,400,,,
sequence,flow.Sequence,4_82,2023-09-11T17:24:24.039Z,,0,,,2661.4790000059875,completion,,,,,false,,,,371146.799999997,371146.40000000596,368468.255,368477.40000000596,368484.921,371151.481,8,400,,,
trial,html.Screen,4_83_0,2023-09-11T17:24:26.829Z,,0,2,,2784.7190000029514,response,ISIC_4780541.JPG,6,ISIC_0054652.JPG,ISIC_0054652.JPG,false,0,keypress(z),500,373936.59999999404,373936.200000003,371134.815,371146.799999997,371151.481,373951.369,8,400,34,,ISIC_4780541.JPG
break,html.Screen,4_83_1,2023-09-11T17:24:26.830Z,,0,,,NaN,,,,,,false,,,,373937.799999997,373937.5,,373936.799999997,,373951.369,8,400,,,
break_continue,html.Screen,4_83_2,2023-09-11T17:24:26.831Z,,0,,,NaN,,,,,,false,,,,373938.200000003,373938.09999999404,,373937.90000000596,,373951.369,8,400,,,
sequence,flow.Sequence,4_83,2023-09-11T17:24:26.831Z,,0,,,2786.6189999940107,completion,,,,,false,,,,373938.40000000596,373938.09999999404,371134.815,371146.799999997,371151.481,373951.369,8,400,,,
trial,html.Screen,4_84_0,2023-09-11T17:24:29.573Z,,0,2,,2729.0310000059544,response,ISIC_9560298.JPG,8,ISIC_0033275.JPG,ISIC_0033275.JPG,false,0,keypress(z),500,376680.799999997,376680.40000000596,373934.703,373938.5,373951.369,376684.9,8,400,35,,ISIC_9560298.JPG
break,html.Screen,4_84_1,2023-09-11T17:24:29.575Z,,0,,,NaN,,,,,,false,,,,376682,376681.700000003,,376681.09999999404,,376684.9,8,400,,,
break_continue,html.Screen,4_84_2,2023-09-11T17:24:29.575Z,,0,,,NaN,,,,,,false,,,,376682.5,376682.40000000596,,376682.200000003,,376684.9,8,400,,,
sequence,flow.Sequence,4_84,2023-09-11T17:24:29.575Z,,0,,,2731.0310000059544,completion,,,,,false,,,,376682.59999999404,376682.40000000596,373934.703,373938.5,373951.369,376684.9,8,400,,,
trial,html.Screen,4_85_0,2023-09-11T17:24:32.122Z,,0,2,,2544.500000005937,response,ISIC_0025499.JPG,6,ISIC_0014903.JPG,ISIC_0025499.JPG,false,1,keypress(m),500,379229.799999997,379229.40000000596,376668.234,376682.799999997,376684.9,379234.798,8,400,36,,ISIC_0014903.JPG
break,html.Screen,4_85_1,2023-09-11T17:24:32.124Z,,0,,,NaN,,,,,,false,,,,379231,379230.700000003,,379230,,379234.798,8,400,,,
break_continue,html.Screen,4_85_2,2023-09-11T17:24:32.124Z,,0,,,NaN,,,,,,false,,,,379231.59999999404,379231.40000000596,,379231.09999999404,,379234.798,8,400,,,
sequence,flow.Sequence,4_85,2023-09-11T17:24:32.124Z,,0,,,2546.500000005937,completion,,,,,false,,,,379231.700000003,379231.40000000596,376668.234,376682.799999997,376684.9,379234.798,8,400,,,
trial,html.Screen,4_86_0,2023-09-11T17:24:34.960Z,,0,2,,2832.00199999701,response,ISIC_0027928.JPG,8,ISIC_7904250.JPG,ISIC_7904250.JPG,false,0,keypress(z),500,382067.200000003,382066.799999997,379218.132,379231.90000000596,379234.798,382084.684,8,400,37,,ISIC_0027928.JPG
break,html.Screen,4_86_1,2023-09-11T17:24:34.961Z,,0,,,NaN,,,,,,false,,,,382068.59999999404,382068.200000003,,382067.5,,382084.684,8,400,,,
break_continue,html.Screen,4_86_2,2023-09-11T17:24:34.962Z,,0,,,NaN,,,,,,false,,,,382069,382068.90000000596,,382068.700000003,,382084.684,8,400,,,
sequence,flow.Sequence,4_86,2023-09-11T17:24:34.962Z,,0,,,2834.1020000059507,completion,,,,,false,,,,382069.200000003,382068.90000000596,379218.132,379231.90000000596,379234.798,382084.684,8,400,,,
trial,html.Screen,4_87_0,2023-09-11T17:24:38.039Z,,0,2,,3060.915999994031,response,ISIC_0218072.JPG,9,ISIC_0070784.JPG,ISIC_0070784.JPG,false,0,keypress(z),500,385146.09999999404,385145.59999999404,382068.018,382069.299999997,382084.684,385151.228,8,400,38,,ISIC_0218072.JPG
break,html.Screen,4_87_1,2023-09-11T17:24:38.040Z,,0,,,NaN,,,,,,false,,,,385147.40000000596,385147.09999999404,,385146.40000000596,,385151.228,8,400,,,
break_continue,html.Screen,4_87_2,2023-09-11T17:24:38.040Z,,0,,,NaN,,,,,,false,,,,385147.90000000596,385147.799999997,,385147.59999999404,,385151.228,8,400,,,
sequence,flow.Sequence,4_87,2023-09-11T17:24:38.041Z,,0,,,3063.1159999970114,completion,,,,,false,,,,385148.09999999404,385147.799999997,382068.018,382069.299999997,382084.684,385151.228,8,400,,,
trial,html.Screen,4_88_0,2023-09-11T17:24:41.062Z,,0,2,,3017.8719999940367,response,ISIC_5795486.JPG,7,ISIC_0030747.JPG,ISIC_0030747.JPG,false,0,keypress(z),500,388169.5,388169.09999999404,385134.562,385148.299999997,385151.228,388184.792,8,400,39,,ISIC_5795486.JPG
break,html.Screen,4_88_1,2023-09-11T17:24:41.063Z,,0,,,NaN,,,,,,false,,,,388170.700000003,388170.5,,388169.700000003,,388184.792,8,400,,,
break_continue,html.Screen,4_88_2,2023-09-11T17:24:41.064Z,,0,,,NaN,,,,,,false,,,,388171.200000003,388171.09999999404,,388170.799999997,,388184.792,8,400,,,
sequence,flow.Sequence,4_88,2023-09-11T17:24:41.064Z,,0,,,3019.8719999940367,completion,,,,,false,,,,388171.299999997,388171.09999999404,385134.562,385148.200000003,385151.228,388184.792,8,400,,,
trial,html.Screen,4_89_0,2023-09-11T17:24:43.723Z,,0,2,,2645.007999997004,response,ISIC_0000161.JPG,6,ISIC_8040024.JPG,ISIC_0000161.JPG,false,1,keypress(m),500,390830.09999999404,390829.799999997,388168.126,388171.5,388184.792,390834.686,8,400,40,,ISIC_8040024.JPG
break,html.Screen,4_89_1,2023-09-11T17:24:43.724Z,,0,,,NaN,,,,,,false,,,,390831.59999999404,390831.299999997,,390830.40000000596,,390834.686,8,400,,,
break_continue,html.Screen,4_89_2,2023-09-11T17:24:43.724Z,,0,,,NaN,,,,,,false,,,,390832,390831.799999997,,390831.700000003,,390834.686,8,400,,,
sequence,flow.Sequence,4_89,2023-09-11T17:24:43.725Z,,0,,,2647.007999997004,completion,,,,,false,,,,390832.200000003,390831.799999997,388168.126,388171.5,388184.792,390834.686,8,400,,,
trial,html.Screen,4_90_0,2023-09-11T17:24:46.370Z,,0,2,,2642.314000000013,response,ISIC_0010124.JPG,8,ISIC_3685955.JPG,ISIC_0010124.JPG,false,1,keypress(m),500,393477.40000000596,393477,390818.02,390832.299999997,390834.686,393484.58,8,400,41,,ISIC_3685955.JPG
break,html.Screen,4_90_1,2023-09-11T17:24:46.371Z,,0,,,NaN,,,,,,false,,,,393478.700000003,393478.299999997,,393477.59999999404,,393484.58,8,400,,,
break_continue,html.Screen,4_90_2,2023-09-11T17:24:46.372Z,,0,,,NaN,,,,,,false,,,,393479.09999999404,393479,,393478.700000003,,393484.58,8,400,,,
sequence,flow.Sequence,4_90,2023-09-11T17:24:46.372Z,,0,,,2644.314000000013,completion,,,,,false,,,,393479.299999997,393479,390818.02,390832.299999997,390834.686,393484.58,8,400,,,
trial,html.Screen,4_91_0,2023-09-11T17:24:49.000Z,,0,2,,2623.0199999940232,response,ISIC_3926305.JPG,8,ISIC_0031863.JPG,ISIC_0031863.JPG,false,0,keypress(z),500,396108,396107.59999999404,393467.914,393479.40000000596,393484.58,396118.15,8,400,42,,ISIC_3926305.JPG
break,html.Screen,4_91_1,2023-09-11T17:24:49.002Z,,0,,,NaN,,,,,,false,,,,396109.299999997,396109,,396108.200000003,,396118.15,8,400,,,
break_continue,html.Screen,4_91_2,2023-09-11T17:24:49.002Z,,0,,,NaN,,,,,,false,,,,396109.799999997,396109.59999999404,,396109.40000000596,,396118.15,8,400,,,
sequence,flow.Sequence,4_91,2023-09-11T17:24:49.002Z,,0,,,2625.0199999940232,completion,,,,,false,,,,396109.90000000596,396109.59999999404,393467.914,393479.40000000596,393484.58,396118.15,8,400,,,
trial,html.Screen,4_92_0,2023-09-11T17:24:51.808Z,,0,2,,2797.3499999999767,response,ISIC_1432058.JPG,8,ISIC_5994645.JPG,ISIC_5994645.JPG,false,0,keypress(z),500,398915.799999997,398915.5,396101.484,396110.09999999404,396118.15,398918.038,8,400,43,,ISIC_1432058.JPG
break,html.Screen,4_92_1,2023-09-11T17:24:51.810Z,,0,,,NaN,,,,,,false,,,,398917.299999997,398917,,398916.09999999404,,398918.038,8,400,,,
break_continue,html.Screen,4_92_2,2023-09-11T17:24:51.810Z,,0,,,NaN,,,,,,false,,,,398917.799999997,398917.59999999404,,398917.40000000596,,398918.038,8,400,,,
sequence,flow.Sequence,4_92,2023-09-11T17:24:51.810Z,,0,,,2799.4499999940163,completion,,,,,false,,,,398917.90000000596,398917.59999999404,396101.484,396110,396118.15,398918.038,8,400,,,
trial,html.Screen,4_93_0,2023-09-11T17:24:54.591Z,,0,2,,2778.86200000596,response,ISIC_3649632.JPG,9,ISIC_4055833.JPG,ISIC_4055833.JPG,false,0,keypress(z),500,401697.200000003,401696.90000000596,398901.372,398918.09999999404,398918.038,401701.26,8,400,44,,ISIC_3649632.JPG
break,html.Screen,4_93_1,2023-09-11T17:24:54.593Z,,0,,,NaN,,,,,,false,,,,401698.700000003,401698.40000000596,,401697.5,,401701.26,8,400,,,
break_continue,html.Screen,4_93_2,2023-09-11T17:24:54.593Z,,0,,,NaN,,,,,,false,,,,401699.200000003,401699.09999999404,,401698.90000000596,,401701.26,8,400,,,
sequence,flow.Sequence,4_93,2023-09-11T17:24:54.593Z,,0,,,2781.061999994039,completion,,,,,false,,,,401699.40000000596,401699.09999999404,398901.372,398918.09999999404,398918.038,401701.26,8,400,,,
trial,html.Screen,4_94_0,2023-09-11T17:24:58.105Z,,0,2,,3507.140000005951,response,ISIC_0580054.JPG,9,ISIC_2642873.JPG,ISIC_2642873.JPG,false,0,keypress(z),500,405208.799999997,405208.40000000596,401684.594,401699.59999999404,401701.26,405217.786,8,400,45,,ISIC_0580054.JPG
break,html.Screen,4_94_1,2023-09-11T17:24:58.106Z,,0,,,NaN,,,,,,false,,,,405210,405209.700000003,,405209.09999999404,,405217.786,8,400,,,
break_continue,html.Screen,4_94_2,2023-09-11T17:24:58.106Z,,0,,,NaN,,,,,,false,,,,405210.5,405210.40000000596,,405210.200000003,,405217.786,8,400,,,
sequence,flow.Sequence,4_94,2023-09-11T17:24:58.107Z,,0,,,3509.140000005951,completion,,,,,false,,,,405210.700000003,405210.40000000596,401684.594,401699.5,401701.26,405217.786,8,400,,,
trial,html.Screen,4_95_0,2023-09-11T17:25:00.818Z,,0,2,,2702.013999996998,response,ISIC_8747095.JPG,6,ISIC_9859495.JPG,ISIC_8747095.JPG,false,1,keypress(m),500,407920.200000003,407919.799999997,405201.12,405210.90000000596,405217.786,407934.68,8,400,46,,ISIC_9859495.JPG
break,html.Screen,4_95_1,2023-09-11T17:25:00.819Z,,0,,,NaN,,,,,,false,,,,407921.40000000596,407921.200000003,,407920.5,,407934.68,8,400,,,
break_continue,html.Screen,4_95_2,2023-09-11T17:25:00.819Z,,0,,,NaN,,,,,,false,,,,407921.90000000596,407921.799999997,,407921.59999999404,,407934.68,8,400,,,
sequence,flow.Sequence,4_95,2023-09-11T17:25:00.819Z,,0,,,2704.013999996998,completion,,,,,false,,,,407922.09999999404,407921.799999997,405201.12,405210.799999997,405217.786,407934.68,8,400,,,
trial,html.Screen,4_96_0,2023-09-11T17:25:03.543Z,,0,2,,2709.1199999970268,response,ISIC_0069667.JPG,5,ISIC_0059891.JPG,ISIC_0069667.JPG,false,1,keypress(m),500,410644.299999997,410643.799999997,407918.014,407922.200000003,407934.68,410651.238,8,400,47,,ISIC_0059891.JPG
break,html.Screen,4_96_1,2023-09-11T17:25:03.544Z,,0,,,NaN,,,,,,false,,,,410645.5,410645.200000003,,410644.5,,410651.238,8,400,,,
break_continue,html.Screen,4_96_2,2023-09-11T17:25:03.544Z,,0,,,NaN,,,,,,false,,,,410646,410645.90000000596,,410645.700000003,,410651.238,8,400,,,
sequence,flow.Sequence,4_96,2023-09-11T17:25:03.545Z,,0,,,2711.2200000059674,completion,,,,,false,,,,410646.09999999404,410645.90000000596,407918.014,407922.200000003,407934.68,410651.238,8,400,,,
trial,html.Screen,4_97_0,2023-09-11T17:25:06.332Z,,0,2,,2780.8619999940274,response,ISIC_0031611.JPG,6,ISIC_0032052.JPG,ISIC_0031611.JPG,false,1,keypress(m),500,413432.700000003,413432.09999999404,410634.572,410646.200000003,410651.238,413434.46,8,400,48,,ISIC_0032052.JPG
break,html.Screen,4_97_1,2023-09-11T17:25:06.333Z,,0,,,NaN,,,,,,false,,,,413433.799999997,413433.5,,413432.90000000596,,413434.46,8,400,,,
break_continue,html.Screen,4_97_2,2023-09-11T17:25:06.334Z,,0,,,NaN,,,,,,false,,,,413434.09999999404,413434,,413433.90000000596,,413434.46,8,400,,,
sequence,flow.Sequence,4_97,2023-09-11T17:25:06.334Z,,0,,,2782.761999999988,completion,,,,,false,,,,413434.200000003,413434,410634.572,410646.200000003,410651.238,413434.46,8,400,,,
trial,html.Screen,4_98_0,2023-09-11T17:25:09.522Z,,0,2,,3186.9400000059395,response,ISIC_3923443.JPG,9,ISIC_1312827.JPG,ISIC_3923443.JPG,false,1,keypress(m),500,416621.90000000596,416621.40000000596,413417.794,413434.299999997,413434.46,416634.691,8,400,49,,ISIC_1312827.JPG
break,html.Screen,4_98_1,2023-09-11T17:25:09.524Z,,0,,,NaN,,,,,,false,,,,416623.200000003,416623,,416622.200000003,,416634.691,8,400,,,
break_continue,html.Screen,4_98_2,2023-09-11T17:25:09.524Z,,0,,,NaN,,,,,,false,,,,416623.700000003,416623.59999999404,,416623.40000000596,,416634.691,8,400,,,
sequence,flow.Sequence,4_98,2023-09-11T17:25:09.524Z,,0,,,3189.1399999940186,completion,,,,,false,,,,416623.90000000596,416623.59999999404,413417.794,413434.299999997,413434.46,416634.691,8,400,,,
trial,html.Screen,4_99_0,2023-09-11T17:25:12.823Z,,0,2,,3287.209000005969,response,ISIC_0010094.JPG,6,ISIC_0056246.JPG,ISIC_0010094.JPG,false,1,keypress(m),500,419922.200000003,419921.90000000596,416618.025,416624,416634.691,419934.559,8,400,50,,ISIC_0056246.JPG
break,html.Screen,4_99_1,2023-09-11T17:25:22.824Z,,0,,,9999.931999999972,timeout,,,,,false,,,,429920.90000000596,429917.825,419917.893,419922.5,419934.559,429934.491,8,400,,,
break_continue,html.Screen,4_99_2,2023-09-11T17:25:23.714Z,,0,,,866.3089999970398,response,,,,,false,continue,keypress(Space),,430811.5,430800.799999997,429917.825,429921.09999999404,429934.491,430817.789,8,400,,,
sequence,flow.Sequence,4_99,2023-09-11T17:25:23.714Z,,0,,,14166.108999997028,completion,,,,,false,,,,430811.700000003,430800.799999997,416618.025,416624,416634.691,430817.789,8,400,,,
trial,html.Screen,4_100_0,2023-09-11T17:25:26.472Z,,0,3,,2750.9110000029905,response,ISIC_0000297.JPG,9,ISIC_9572761.JPG,ISIC_0000297.JPG,false,1,keypress(m),500,433569,433568.700000003,430801.123,430811.700000003,430817.789,433584.345,8,400,1,,ISIC_9572761.JPG
break,html.Screen,4_100_1,2023-09-11T17:25:26.473Z,,0,,,NaN,,,,,,false,,,,433570.40000000596,433570,,433569.299999997,,433584.345,8,400,,,
break_continue,html.Screen,4_100_2,2023-09-11T17:25:26.474Z,,0,,,NaN,,,,,,false,,,,433570.799999997,433570.59999999404,,433570.40000000596,,433584.345,8,400,,,
sequence,flow.Sequence,4_100,2023-09-11T17:25:26.474Z,,0,,,2752.81099999405,completion,,,,,false,,,,433571,433570.59999999404,430801.123,430811.700000003,430817.789,433584.345,8,400,,,
trial,html.Screen,4_101_0,2023-09-11T17:25:29.056Z,,0,3,,2567.655000000028,response,ISIC_0031310.JPG,8,ISIC_0025186.JPG,ISIC_0031310.JPG,false,1,keypress(m),500,436152.299999997,436152,433567.679,433571.09999999404,433584.345,436167.575,8,400,2,,ISIC_0025186.JPG
break,html.Screen,4_101_1,2023-09-11T17:25:29.057Z,,0,,,NaN,,,,,,false,,,,436153.59999999404,436153.299999997,,436152.5,,436167.575,8,400,,,
break_continue,html.Screen,4_101_2,2023-09-11T17:25:29.057Z,,0,,,NaN,,,,,,false,,,,436154,436153.90000000596,,436153.700000003,,436167.575,8,400,,,
sequence,flow.Sequence,4_101,2023-09-11T17:25:29.057Z,,0,,,2569.5550000059884,completion,,,,,false,,,,436154.09999999404,436153.90000000596,433567.679,433571,433584.345,436167.575,8,400,,,
trial,html.Screen,4_102_0,2023-09-11T17:25:31.716Z,,0,3,,2644.9249999999884,response,ISIC_0034242.JPG,9,ISIC_5366657.JPG,ISIC_0034242.JPG,false,1,keypress(m),500,438812.90000000596,438812.5,436150.909,436154.299999997,436167.575,438817.799,8,400,3,,ISIC_5366657.JPG
break,html.Screen,4_102_1,2023-09-11T17:25:31.718Z,,0,,,NaN,,,,,,false,,,,438814.200000003,438813.90000000596,,438813.200000003,,438817.799,8,400,,,
break_continue,html.Screen,4_102_2,2023-09-11T17:25:31.718Z,,0,,,NaN,,,,,,false,,,,438814.700000003,438814.5,,438814.299999997,,438817.799,8,400,,,
sequence,flow.Sequence,4_102,2023-09-11T17:25:31.718Z,,0,,,2646.9249999999884,completion,,,,,false,,,,438814.799999997,438814.5,436150.909,436154.299999997,436167.575,438817.799,8,400,,,
trial,html.Screen,4_103_0,2023-09-11T17:25:35.867Z,,0,3,,4145.401000002981,response,ISIC_0000763.JPG,8,ISIC_6207818.JPG,ISIC_6207818.JPG,false,0,keypress(z),500,442963.700000003,442963.200000003,438801.133,438815,438817.799,442967.633,8,400,4,,ISIC_0000763.JPG
break,html.Screen,4_103_1,2023-09-11T17:25:35.869Z,,0,,,NaN,,,,,,false,,,,442965,442964.59999999404,,442963.90000000596,,442967.633,8,400,,,
break_continue,html.Screen,4_103_2,2023-09-11T17:25:35.869Z,,0,,,NaN,,,,,,false,,,,442965.5,442965.299999997,,442965.09999999404,,442967.633,8,400,,,
sequence,flow.Sequence,4_103,2023-09-11T17:25:35.869Z,,0,,,4147.500999997021,completion,,,,,false,,,,442965.59999999404,442965.299999997,438801.133,438814.90000000596,438817.799,442967.633,8,400,,,
trial,html.Screen,4_104_0,2023-09-11T17:25:38.752Z,,0,3,,2880.6669999970472,response,ISIC_1637536.JPG,6,ISIC_0064785.JPG,ISIC_0064785.JPG,false,0,keypress(z),500,445848.700000003,445848.299999997,442950.967,442965.700000003,442967.633,445850.851,8,400,5,,ISIC_1637536.JPG
break,html.Screen,4_104_1,2023-09-11T17:25:38.754Z,,0,,,NaN,,,,,,false,,,,445850,445849.799999997,,445849,,445850.851,8,400,,,
break_continue,html.Screen,4_104_2,2023-09-11T17:25:38.754Z,,0,,,NaN,,,,,,false,,,,445850.799999997,445850.59999999404,,445850.299999997,,445850.851,8,400,,,
sequence,flow.Sequence,4_104,2023-09-11T17:25:38.755Z,,0,,,2882.966999994067,completion,,,,,false,,,,445851,445850.59999999404,442950.967,442965.700000003,442967.633,445850.851,8,400,,,
trial,html.Screen,4_105_0,2023-09-11T17:25:41.906Z,,0,3,,3150.7489999940153,response,ISIC_4539674.JPG,6,ISIC_0001134.JPG,ISIC_0001134.JPG,false,0,keypress(z),500,449001.90000000596,449001.59999999404,445834.185,445851.200000003,445850.851,449017.743,8,400,6,,ISIC_4539674.JPG
break,html.Screen,4_105_1,2023-09-11T17:25:41.907Z,,0,,,NaN,,,,,,false,,,,449003.200000003,449003,,449002.299999997,,449017.743,8,400,,,
break_continue,html.Screen,4_105_2,2023-09-11T17:25:41.908Z,,0,,,NaN,,,,,,false,,,,449003.799999997,449003.59999999404,,449003.40000000596,,449017.743,8,400,,,
sequence,flow.Sequence,4_105,2023-09-11T17:25:41.908Z,,0,,,3152.7489999940153,completion,,,,,false,,,,449004,449003.59999999404,445834.185,445851.09999999404,445850.851,449017.743,8,400,,,
trial,html.Screen,4_106_0,2023-09-11T17:25:44.888Z,,0,3,,2965.6570000059437,response,ISIC_2467623.JPG,8,ISIC_0465385.JPG,ISIC_2467623.JPG,false,1,keypress(m),500,451983.90000000596,451983.40000000596,449001.077,449004.09999999404,449017.743,452000.957,8,400,7,,ISIC_0465385.JPG
break,html.Screen,4_106_1,2023-09-11T17:25:44.889Z,,0,,,NaN,,,,,,false,,,,451985.299999997,451985,,451984.09999999404,,452000.957,8,400,,,
break_continue,html.Screen,4_106_2,2023-09-11T17:25:44.890Z,,0,,,NaN,,,,,,false,,,,451985.799999997,451985.700000003,,451985.40000000596,,452000.957,8,400,,,
sequence,flow.Sequence,4_106,2023-09-11T17:25:44.890Z,,0,,,2967.9570000029635,completion,,,,,false,,,,451986,451985.700000003,449001.077,449004.09999999404,449017.743,452000.957,8,400,,,
trial,html.Screen,4_107_0,2023-09-11T17:25:47.487Z,,0,3,,2581.342999997025,response,ISIC_0001102.JPG,8,ISIC_0778327.JPG,ISIC_0001102.JPG,false,1,keypress(m),500,454582.799999997,454582.299999997,451984.291,451986.09999999404,452000.957,454584.187,8,400,8,,ISIC_0778327.JPG
break,html.Screen,4_107_1,2023-09-11T17:25:47.488Z,,0,,,NaN,,,,,,false,,,,454584,454583.700000003,,454583,,454584.187,8,400,,,
break_continue,html.Screen,4_107_2,2023-09-11T17:25:47.488Z,,0,,,NaN,,,,,,false,,,,454584.40000000596,454584.40000000596,,454584.200000003,,454584.187,8,400,,,
sequence,flow.Sequence,4_107,2023-09-11T17:25:47.489Z,,0,,,2583.4430000059656,completion,,,,,false,,,,454584.59999999404,454584.40000000596,451984.291,451986.09999999404,452000.957,454584.187,8,400,,,
trial,html.Screen,4_108_0,2023-09-11T17:25:50.181Z,,0,3,,2692.713000005984,response,ISIC_6008974.JPG,8,ISIC_6715897.JPG,ISIC_6008974.JPG,false,1,keypress(m),500,457277.299999997,457276.90000000596,454567.521,454584.799999997,454584.187,457284.079,8,400,9,,ISIC_6715897.JPG
break,html.Screen,4_108_1,2023-09-11T17:25:50.183Z,,0,,,NaN,,,,,,false,,,,457278.799999997,457278.40000000596,,457277.59999999404,,457284.079,8,400,,,
break_continue,html.Screen,4_108_2,2023-09-11T17:25:50.183Z,,0,,,NaN,,,,,,false,,,,457279.200000003,457279,,457278.90000000596,,457284.079,8,400,,,
sequence,flow.Sequence,4_108,2023-09-11T17:25:50.183Z,,0,,,2694.8130000000237,completion,,,,,false,,,,457279.40000000596,457279,454567.521,454584.700000003,454584.187,457284.079,8,400,,,
trial,html.Screen,4_109_0,2023-09-11T17:25:52.957Z,,0,3,,2768.7209999969928,response,ISIC_5441247.JPG,7,ISIC_0027087.JPG,ISIC_0027087.JPG,false,0,keypress(z),500,460053.200000003,460052.799999997,457267.413,457279.5,457284.079,460067.628,8,400,10,,ISIC_5441247.JPG
break,html.Screen,4_109_1,2023-09-11T17:25:52.958Z,,0,,,NaN,,,,,,false,,,,460054.5,460054.200000003,,460053.5,,460067.628,8,400,,,
break_continue,html.Screen,4_109_2,2023-09-11T17:25:52.959Z,,0,,,NaN,,,,,,false,,,,460055,460054.90000000596,,460054.59999999404,,460067.628,8,400,,,
sequence,flow.Sequence,4_109,2023-09-11T17:25:52.959Z,,0,,,2770.8210000059335,completion,,,,,false,,,,460055.200000003,460054.90000000596,457267.413,457279.40000000596,457284.079,460067.628,8,400,,,
trial,html.Screen,4_110_0,2023-09-11T17:25:55.653Z,,0,3,,2681.2720000059344,response,ISIC_2479512.JPG,8,ISIC_0007622.JPG,ISIC_2479512.JPG,false,1,keypress(m),500,462749.299999997,462748.90000000596,460050.962,460056.40000000596,460067.628,462750.854,8,400,11,,ISIC_0007622.JPG
break,html.Screen,4_110_1,2023-09-11T17:25:55.655Z,,0,,,NaN,,,,,,false,,,,462750.59999999404,462750.299999997,,462749.59999999404,,462750.854,8,400,,,
break_continue,html.Screen,4_110_2,2023-09-11T17:25:55.655Z,,0,,,NaN,,,,,,false,,,,462751,462750.90000000596,,462750.700000003,,462750.854,8,400,,,
sequence,flow.Sequence,4_110,2023-09-11T17:25:55.655Z,,0,,,2683.2720000059344,completion,,,,,false,,,,462751.200000003,462750.90000000596,460050.962,460056.40000000596,460067.628,462750.854,8,400,,,
trial,html.Screen,4_111_0,2023-09-11T17:25:58.220Z,,0,3,,2564.7459999940475,response,ISIC_2198823.JPG,7,ISIC_3959570.JPG,ISIC_2198823.JPG,false,1,keypress(m),500,465316.09999999404,465315.59999999404,462734.188,462751.299999997,462750.854,465317.418,8,400,12,,ISIC_3959570.JPG
break,html.Screen,4_111_1,2023-09-11T17:25:58.221Z,,0,,,NaN,,,,,,false,,,,465317.40000000596,465317.09999999404,,465316.40000000596,,465317.418,8,400,,,
break_continue,html.Screen,4_111_2,2023-09-11T17:25:58.222Z,,0,,,NaN,,,,,,false,,,,465317.90000000596,465317.700000003,,465317.5,,465317.418,8,400,,,
sequence,flow.Sequence,4_111,2023-09-11T17:25:58.222Z,,0,,,2566.846000002988,completion,,,,,false,,,,465318.09999999404,465317.700000003,462734.188,462751.299999997,462750.854,465317.418,8,400,,,
trial,html.Screen,4_112_0,2023-09-11T17:26:00.836Z,,0,3,,2613.782000002975,response,ISIC_0011164.JPG,7,ISIC_8414396.JPG,ISIC_8414396.JPG,false,0,keypress(z),500,467931.5,467931.200000003,465300.752,465318.200000003,465317.418,467934.321,8,400,13,,ISIC_0011164.JPG
break,html.Screen,4_112_1,2023-09-11T17:26:00.837Z,,0,,,NaN,,,,,,false,,,,467932.799999997,467932.5,,467931.799999997,,467934.321,8,400,,,
break_continue,html.Screen,4_112_2,2023-09-11T17:26:00.837Z,,0,,,NaN,,,,,,false,,,,467933.299999997,467933.09999999404,,467932.90000000596,,467934.321,8,400,,,
sequence,flow.Sequence,4_112,2023-09-11T17:26:00.837Z,,0,,,2615.6819999940344,completion,,,,,false,,,,467933.299999997,467933.09999999404,465300.752,465318.09999999404,465317.418,467934.321,8,400,,,
trial,html.Screen,4_113_0,2023-09-11T17:26:03.642Z,,0,3,,2802.879000002984,response,ISIC_0006730.JPG,6,ISIC_7545340.JPG,ISIC_7545340.JPG,false,0,keypress(z),500,470737.59999999404,470737.200000003,467917.655,467933.40000000596,467934.321,470750.875,8,400,14,,ISIC_0006730.JPG
break,html.Screen,4_113_1,2023-09-11T17:26:03.643Z,,0,,,NaN,,,,,,false,,,,470739,470738.59999999404,,470737.90000000596,,470750.875,8,400,,,
break_continue,html.Screen,4_113_2,2023-09-11T17:26:03.643Z,,0,,,NaN,,,,,,false,,,,470739.40000000596,470739.299999997,,470739.09999999404,,470750.875,8,400,,,
sequence,flow.Sequence,4_113,2023-09-11T17:26:03.644Z,,0,,,2804.9789999970235,completion,,,,,false,,,,470739.59999999404,470739.299999997,467917.655,467933.40000000596,467934.321,470750.875,8,400,,,
trial,html.Screen,4_114_0,2023-09-11T17:26:06.185Z,,0,3,,2530.0250000059605,response,ISIC_0032736.JPG,8,ISIC_0061803.JPG,ISIC_0032736.JPG,false,1,keypress(m),500,473281.299999997,473280.90000000596,470734.209,470739.799999997,470750.875,473284.107,8,400,15,,ISIC_0061803.JPG
break,html.Screen,4_114_1,2023-09-11T17:26:06.187Z,,0,,,NaN,,,,,,false,,,,473282.700000003,473282.40000000596,,473281.59999999404,,473284.107,8,400,,,
break_continue,html.Screen,4_114_2,2023-09-11T17:26:06.187Z,,0,,,NaN,,,,,,false,,,,473283.299999997,473283.09999999404,,473282.90000000596,,473284.107,8,400,,,
sequence,flow.Sequence,4_114,2023-09-11T17:26:06.187Z,,0,,,2532.2249999940395,completion,,,,,false,,,,473283.40000000596,473283.09999999404,470734.209,470739.700000003,470750.875,473284.107,8,400,,,
trial,html.Screen,4_115_0,2023-09-11T17:26:08.769Z,,0,3,,2579.9929999940214,response,ISIC_0062712.JPG,8,ISIC_0060621.JPG,ISIC_0062712.JPG,false,1,keypress(m),500,475864.59999999404,475864.09999999404,473267.441,473283.5,473284.107,475867.337,8,400,16,,ISIC_0060621.JPG
break,html.Screen,4_115_1,2023-09-11T17:26:08.770Z,,0,,,NaN,,,,,,false,,,,475866,475865.700000003,,475864.799999997,,475867.337,8,400,,,
break_continue,html.Screen,4_115_2,2023-09-11T17:26:08.770Z,,0,,,NaN,,,,,,false,,,,475866.40000000596,475866.200000003,,475866,,475867.337,8,400,,,
sequence,flow.Sequence,4_115,2023-09-11T17:26:08.771Z,,0,,,2582.093000002962,completion,,,,,false,,,,475866.59999999404,475866.200000003,473267.441,473283.40000000596,473284.107,475867.337,8,400,,,
trial,html.Screen,4_116_0,2023-09-11T17:26:11.377Z,,0,3,,2605.563000005961,response,ISIC_0032426.JPG,8,ISIC_7681490.JPG,ISIC_7681490.JPG,false,0,keypress(z),500,478473.200000003,478472.90000000596,475850.671,475866.700000003,475867.337,478484.237,8,400,17,,ISIC_0032426.JPG
break,html.Screen,4_116_1,2023-09-11T17:26:11.379Z,,0,,,NaN,,,,,,false,,,,478474.59999999404,478474.299999997,,478473.59999999404,,478484.237,8,400,,,
break_continue,html.Screen,4_116_2,2023-09-11T17:26:11.379Z,,0,,,NaN,,,,,,false,,,,478475,478474.90000000596,,478474.700000003,,478484.237,8,400,,,
sequence,flow.Sequence,4_116,2023-09-11T17:26:11.379Z,,0,,,2607.563000005961,completion,,,,,false,,,,478475.200000003,478474.90000000596,475850.671,475866.59999999404,475867.337,478484.237,8,400,,,
trial,html.Screen,4_117_0,2023-09-11T17:26:15.830Z,,0,3,,4441.163000005938,response,ISIC_9182285.JPG,5,ISIC_0024235.JPG,ISIC_0024235.JPG,false,0,keypress(z),500,482925.90000000596,482925.40000000596,478467.571,478475.299999997,478484.237,482934.059,8,400,18,,ISIC_9182285.JPG
break,html.Screen,4_117_1,2023-09-11T17:26:15.831Z,,0,,,NaN,,,,,,false,,,,482927.299999997,482926.90000000596,,482926.09999999404,,482934.059,8,400,,,
break_continue,html.Screen,4_117_2,2023-09-11T17:26:15.832Z,,0,,,NaN,,,,,,false,,,,482927.700000003,482927.59999999404,,482927.40000000596,,482934.059,8,400,,,
sequence,flow.Sequence,4_117,2023-09-11T17:26:15.832Z,,0,,,4443.362999994017,completion,,,,,false,,,,482927.90000000596,482927.59999999404,478467.571,478475.299999997,478484.237,482934.059,8,400,,,
trial,html.Screen,4_118_0,2023-09-11T17:26:18.652Z,,0,3,,2813.4409999999916,response,ISIC_0010644.JPG,7,ISIC_0010803.JPG,ISIC_0010644.JPG,false,1,keypress(m),500,485748,485747.5,482917.393,482928.09999999404,482934.059,485767.279,8,400,19,,ISIC_0010803.JPG
break,html.Screen,4_118_1,2023-09-11T17:26:18.653Z,,0,,,NaN,,,,,,false,,,,485749.299999997,485749,,485748.299999997,,485767.279,8,400,,,
break_continue,html.Screen,4_118_2,2023-09-11T17:26:18.654Z,,0,,,NaN,,,,,,false,,,,485749.90000000596,485749.700000003,,485749.5,,485767.279,8,400,,,
sequence,flow.Sequence,4_118,2023-09-11T17:26:18.654Z,,0,,,2815.641000002972,completion,,,,,false,,,,485750.09999999404,485749.700000003,482917.393,482928,482934.059,485767.279,8,400,,,
trial,html.Screen,4_119_0,2023-09-11T17:26:21.235Z,,0,3,,2562.820999994059,response,ISIC_0002435.JPG,5,ISIC_0011268.JPG,ISIC_0011268.JPG,false,0,keypress(z),500,488330.5,488330.09999999404,485750.613,485750.200000003,485767.279,488350.854,8,400,20,,ISIC_0002435.JPG
break,html.Screen,4_119_1,2023-09-11T17:26:21.236Z,,0,,,NaN,,,,,,false,,,,488331.90000000596,488331.59999999404,,488330.799999997,,488350.854,8,400,,,
break_continue,html.Screen,4_119_2,2023-09-11T17:26:21.236Z,,0,,,NaN,,,,,,false,,,,488332.40000000596,488332.299999997,,488332,,488350.854,8,400,,,
sequence,flow.Sequence,4_119,2023-09-11T17:26:21.237Z,,0,,,2565.0209999970393,completion,,,,,false,,,,488332.59999999404,488332.299999997,485750.613,485750.200000003,485767.279,488350.854,8,400,,,
trial,html.Screen,4_120_0,2023-09-11T17:26:24.200Z,,0,3,,2944.4459999970277,response,ISIC_9764973.JPG,8,ISIC_0579562.JPG,ISIC_0579562.JPG,false,0,keypress(z),500,491295.59999999404,491295.299999997,488334.188,488332.700000003,488350.854,491300.736,8,400,21,,ISIC_9764973.JPG
break,html.Screen,4_120_1,2023-09-11T17:26:24.201Z,,0,,,NaN,,,,,,false,,,,491297,491296.59999999404,,491295.90000000596,,491300.736,8,400,,,
break_continue,html.Screen,4_120_2,2023-09-11T17:26:24.201Z,,0,,,NaN,,,,,,false,,,,491297.40000000596,491297.299999997,,491297.09999999404,,491300.736,8,400,,,
sequence,flow.Sequence,4_120,2023-09-11T17:26:24.202Z,,0,,,2946.4459999970277,completion,,,,,false,,,,491297.59999999404,491297.299999997,488334.188,488332.59999999404,488350.854,491300.736,8,400,,,
trial,html.Screen,4_121_0,2023-09-11T17:26:27.054Z,,0,3,,2849.164000005985,response,ISIC_0063926.JPG,7,ISIC_0011800.JPG,ISIC_0063926.JPG,false,1,keypress(m),500,494150.299999997,494149.90000000596,491284.07,491297.59999999404,491300.736,494167.288,8,400,22,,ISIC_0011800.JPG
break,html.Screen,4_121_1,2023-09-11T17:26:27.056Z,,0,,,NaN,,,,,,false,,,,494151.700000003,494151.40000000596,,494150.59999999404,,494167.288,8,400,,,
break_continue,html.Screen,4_121_2,2023-09-11T17:26:27.056Z,,0,,,NaN,,,,,,false,,,,494152.09999999404,494152,,494151.799999997,,494167.288,8,400,,,
sequence,flow.Sequence,4_121,2023-09-11T17:26:27.056Z,,0,,,2851.2640000000247,completion,,,,,false,,,,494152.09999999404,494152,491284.07,491297.59999999404,491300.736,494167.288,8,400,,,
trial,html.Screen,4_122_0,2023-09-11T17:26:29.811Z,,0,3,,2739.0119999970193,response,ISIC_0025305.JPG,6,ISIC_2100640.JPG,ISIC_0025305.JPG,false,1,keypress(m),500,496906.799999997,496906.299999997,494150.622,494152.200000003,494167.288,496917.178,8,400,23,,ISIC_2100640.JPG
break,html.Screen,4_122_1,2023-09-11T17:26:29.812Z,,0,,,NaN,,,,,,false,,,,496908.09999999404,496907.799999997,,496907.09999999404,,496917.178,8,400,,,
break_continue,html.Screen,4_122_2,2023-09-11T17:26:29.813Z,,0,,,NaN,,,,,,false,,,,496908.5,496908.40000000596,,496908.200000003,,496917.178,8,400,,,
sequence,flow.Sequence,4_122,2023-09-11T17:26:29.813Z,,0,,,2741.11200000596,completion,,,,,false,,,,496908.700000003,496908.40000000596,494150.622,494152.200000003,494167.288,496917.178,8,400,,,
trial,html.Screen,4_123_0,2023-09-11T17:26:32.497Z,,0,3,,2675.022000002966,response,ISIC_0032684.JPG,7,ISIC_0070752.JPG,ISIC_0032684.JPG,false,1,keypress(m),500,499592.700000003,499592.200000003,496900.512,496908.799999997,496917.178,499600.736,8,400,24,,ISIC_0070752.JPG
break,html.Screen,4_123_1,2023-09-11T17:26:32.498Z,,0,,,NaN,,,,,,false,,,,499594,499593.59999999404,,499592.90000000596,,499600.736,8,400,,,
break_continue,html.Screen,4_123_2,2023-09-11T17:26:32.498Z,,0,,,NaN,,,,,,false,,,,499594.299999997,499594.299999997,,499594.09999999404,,499600.736,8,400,,,
sequence,flow.Sequence,4_123,2023-09-11T17:26:32.498Z,,0,,,2677.1219999970053,completion,,,,,false,,,,499594.5,499594.299999997,496900.512,496908.700000003,496917.178,499600.736,8,400,,,
trial,html.Screen,4_124_0,2023-09-11T17:26:35.127Z,,0,3,,2622.2640000000247,response,ISIC_4826037.JPG,6,ISIC_6948604.JPG,ISIC_6948604.JPG,false,0,keypress(z),500,502223.5,502223,499584.07,499594.59999999404,499600.736,502233.964,8,400,25,,ISIC_4826037.JPG
break,html.Screen,4_124_1,2023-09-11T17:26:35.129Z,,0,,,NaN,,,,,,false,,,,502224.700000003,502224.40000000596,,502223.799999997,,502233.964,8,400,,,
break_continue,html.Screen,4_124_2,2023-09-11T17:26:35.129Z,,0,,,NaN,,,,,,false,,,,502225.200000003,502225,,502224.90000000596,,502233.964,8,400,,,
sequence,flow.Sequence,4_124,2023-09-11T17:26:35.129Z,,0,,,2624.2640000000247,completion,,,,,false,,,,502225.40000000596,502225,499584.07,499594.5,499600.736,502233.964,8,400,,,
trial,html.Screen,4_125_0,2023-09-11T17:26:38.026Z,,0,3,,2887.736000003002,response,ISIC_0024512.JPG,9,ISIC_9625295.JPG,ISIC_0024512.JPG,false,1,keypress(m),500,505122.09999999404,505121.700000003,502217.298,502225.5,502233.964,505133.848,8,400,26,,ISIC_9625295.JPG
break,html.Screen,4_125_1,2023-09-11T17:26:38.027Z,,0,,,NaN,,,,,,false,,,,505123.40000000596,505123.200000003,,505122.40000000596,,505133.848,8,400,,,
break_continue,html.Screen,4_125_2,2023-09-11T17:26:38.028Z,,0,,,NaN,,,,,,false,,,,505123.90000000596,505123.700000003,,505123.5,,505133.848,8,400,,,
sequence,flow.Sequence,4_125,2023-09-11T17:26:38.028Z,,0,,,2889.736000003002,completion,,,,,false,,,,505124,505123.700000003,502217.298,502225.40000000596,502233.964,505133.848,8,400,,,
