sender,sender_type,sender_id,timestamp,meta,,blockNo,condition,duration,ended_on,img_left,img_reveal,img_right,loser,practice,response,response_action,selection_duration,time_commit,time_end,time_render,time_run,time_show,time_switch,total_blocks,total_trials,trialNo,url,winner
informed_consent,html.Screen,0,2023-10-31T22:00:40.980Z,"{""labjs_version"":""20.2.4"",""labjs_build"":{""flavor"":""production"",""commit"":""f5b4a49f956347addd546a832a3327688c2c0fef""},""location"":""https://run.pavlovia.org/MurrayBennett/melanoma-2afc/?participant=65107&platform=sona"",""userAgent"":""Mozilla/5.0 (Macintosh; Intel Mac OS X 10_15_7) AppleWebKit/605.1.15 (KHTML, like Gecko) Version/16.5.2 Safari/605.1.15"",""platform"":""MacIntel"",""language"":""en-US"",""locale"":""en-US"",""timeZone"":""America/Chicago"",""timezoneOffset"":300,""screen_width"":1440,""screen_height"":900,""scroll_width"":1145,""scroll_height"":654,""window_innerWidth"":1145,""window_innerHeight"":702,""devicePixelRatio"":2}",,,,5929,response,,,,,,consent,click button,,40890,40869,34940,4024,35068,40935,,,,"{""participant"":""65107"",""platform"":""sona""}",
Welcome,html.Screen,1,2023-10-31T22:00:42.264Z,,,,asymmetry,1252,response,,,,,,continue,click button,,42174,42164,40912,40891,40935,42235,,,,,
trial,html.Screen,2_0_0,2023-10-31T22:00:49.466Z,,0,0,,7174,response,ISIC_0069348.JPG,,ISIC_6997061.JPG,ISIC_6997061.JPG,true,0,keypress(z),500,49376,49375,42201,42174,42235,49435,1,6,1,,ISIC_0069348.JPG
sequence,flow.Sequence,2_0,2023-10-31T22:00:49.466Z,,0,,,7140,completion,,,,,true,,,,49376,49375,42201,42174,42235,49435,1,6,,,
trial,html.Screen,2_1_0,2023-10-31T22:00:53.739Z,,0,0,,4246,response,ISIC_0009529.JPG,,ISIC_0057368.JPG,ISIC_0009529.JPG,true,1,keypress(m),500,53649,53648,49402,49376,49435,53702,1,6,2,,ISIC_0057368.JPG
sequence,flow.Sequence,2_1,2023-10-31T22:00:53.739Z,,0,,,4213,completion,,,,,true,,,,53649,53648,49402,49376,49435,53702,1,6,,,
trial,html.Screen,2_2_0,2023-10-31T22:00:58.410Z,,0,0,,4652,response,ISIC_0064954.JPG,,ISIC_9758671.JPG,ISIC_9758671.JPG,true,0,keypress(z),500,58320,58320,53668,53649,53702,58369,1,6,3,,ISIC_0064954.JPG
sequence,flow.Sequence,2_2,2023-10-31T22:00:58.410Z,,0,,,4618,completion,,,,,true,,,,58320,58320,53668,53649,53702,58369,1,6,,,
trial,html.Screen,2_3_0,2023-10-31T22:01:01.272Z,,0,0,,2847,response,ISIC_0000080.JPG,,ISIC_0005785.JPG,ISIC_0005785.JPG,true,0,keypress(z),500,61182,61182,58335,58320,58369,61235,1,6,4,,ISIC_0000080.JPG
sequence,flow.Sequence,2_3,2023-10-31T22:01:01.272Z,,0,,,2813,completion,,,,,true,,,,61182,61182,58335,58320,58369,61235,1,6,,,
trial,html.Screen,2_4_0,2023-10-31T22:01:04.329Z,,0,0,,3037.0000000000073,response,ISIC_7944028.JPG,,ISIC_5390060.JPG,ISIC_7944028.JPG,true,1,keypress(m),500,64239.00000000001,64239.00000000001,61202,61182,61235,64302,1,6,5,,ISIC_5390060.JPG
sequence,flow.Sequence,2_4,2023-10-31T22:01:04.330Z,,0,,,3004.0000000000073,completion,,,,,true,,,,64239.00000000001,64239.00000000001,61202,61182,61235,64302,1,6,,,
trial,html.Screen,2_5_0,2023-10-31T22:01:07.268Z,,0,0,,2910,response,ISIC_0794216.JPG,,ISIC_0010188.JPG,ISIC_0794216.JPG,true,1,keypress(m),500,67178,67178,64268,64239.99999999999,64302,67235,1,6,6,,ISIC_0010188.JPG
sequence,flow.Sequence,2_5,2023-10-31T22:01:07.268Z,,0,,,2876,completion,,,,,true,,,,67178,67178,64268,64239.00000000001,64302,67235,1,6,,,
loop,flow.Loop,2,2023-10-31T22:01:07.268Z,,,,,24943,completion,,,,,true,,,,67178,67178,42201,42174,42235,67235,1,6,,,
exp_instructions,html.Screen,3,2023-10-31T22:01:10.922Z,,,,,3620,response,,,,,,continue,keypress(Space),,70831,70822,67202,67178,67235,70868,,,,,
trial,html.Screen,4_0_0,2023-10-31T22:01:15.051Z,,0,1,,4123.000000000015,response,ISIC_3635014.JPG,20,ISIC_8423326.JPG,ISIC_8423326.JPG,false,0,keypress(z),500,74961,74960.00000000001,70837,70831,70868,75002,8,400,1,,ISIC_3635014.JPG
break,html.Screen,4_0_1,2023-10-31T22:01:15.052Z,,0,,,NaN,,,,,,false,,,,74962,74962,,74961,,75002,8,400,,,
break_continue,html.Screen,4_0_2,2023-10-31T22:01:15.053Z,,0,,,NaN,,,,,,false,,,,74963.00000000001,74963.00000000001,,74962,,75002,8,400,,,
sequence,flow.Sequence,4_0,2023-10-31T22:01:15.053Z,,0,,,4095.0000000000146,completion,,,,,false,,,,74963.00000000001,74963.00000000001,70837,70831,70868,75002,8,400,,,
trial,html.Screen,4_1_0,2023-10-31T22:01:18.111Z,,0,1,,3052,response,ISIC_1868816.JPG,3,ISIC_6446753.JPG,ISIC_1868816.JPG,false,1,keypress(m),500,78020,78020,74968,74963.00000000001,75002,78068,8,400,2,,ISIC_6446753.JPG
break,html.Screen,4_1_1,2023-10-31T22:01:18.111Z,,0,,,NaN,,,,,,false,,,,78021,78021,,78020,,78068,8,400,,,
break_continue,html.Screen,4_1_2,2023-10-31T22:01:18.112Z,,0,,,NaN,,,,,,false,,,,78021,78021,,78021,,78068,8,400,,,
sequence,flow.Sequence,4_1,2023-10-31T22:01:18.112Z,,0,,,3019,completion,,,,,false,,,,78022,78021,74968,74963.00000000001,75002,78068,8,400,,,
trial,html.Screen,4_2_0,2023-10-31T22:01:24.622Z,,0,1,,6497,response,ISIC_1312827.JPG,3,ISIC_0011956.JPG,ISIC_1312827.JPG,false,1,keypress(m),500,84532,84532,78035,78022,78068,84567,8,400,3,,ISIC_0011956.JPG
break,html.Screen,4_2_1,2023-10-31T22:01:24.623Z,,0,,,NaN,,,,,,false,,,,84533,84533,,84532,,84567,8,400,,,
break_continue,html.Screen,4_2_2,2023-10-31T22:01:24.624Z,,0,,,NaN,,,,,,false,,,,84533,84533,,84533,,84567,8,400,,,
sequence,flow.Sequence,4_2,2023-10-31T22:01:24.624Z,,0,,,6465,completion,,,,,false,,,,84533,84533,78035,78022,78068,84567,8,400,,,
trial,html.Screen,4_3_0,2023-10-31T22:01:28.401Z,,0,1,,3775,response,ISIC_5942564.JPG,2,ISIC_4734950.JPG,ISIC_4734950.JPG,false,0,keypress(z),500,88311,88310,84535,84533,84567,88368,8,400,4,,ISIC_5942564.JPG
break,html.Screen,4_3_1,2023-10-31T22:01:28.402Z,,0,,,NaN,,,,,,false,,,,88311,88311,,88311,,88368,8,400,,,
break_continue,html.Screen,4_3_2,2023-10-31T22:01:28.402Z,,0,,,NaN,,,,,,false,,,,88312,88311,,88311,,88368,8,400,,,
sequence,flow.Sequence,4_3,2023-10-31T22:01:28.402Z,,0,,,3744,completion,,,,,false,,,,88312,88311,84535,84533,84567,88368,8,400,,,
trial,html.Screen,4_4_0,2023-10-31T22:01:33.427Z,,0,1,,5002,response,ISIC_0528044.JPG,3,ISIC_0066105.JPG,ISIC_0528044.JPG,false,1,keypress(m),500,93337,93336,88334,88312,88368,93401,8,400,5,,ISIC_0066105.JPG
break,html.Screen,4_4_1,2023-10-31T22:01:33.428Z,,0,,,NaN,,,,,,false,,,,93338.00000000001,93337,,93337,,93401,8,400,,,
break_continue,html.Screen,4_4_2,2023-10-31T22:01:33.429Z,,0,,,NaN,,,,,,false,,,,93338.00000000001,93338.00000000001,,93338.00000000001,,93401,8,400,,,
sequence,flow.Sequence,4_4,2023-10-31T22:01:33.429Z,,0,,,4970.000000000015,completion,,,,,false,,,,93338.00000000001,93338.00000000001,88334,88312,88368,93401,8,400,,,
trial,html.Screen,4_5_0,2023-10-31T22:01:38.306Z,,0,1,,4848.000000000015,response,ISIC_0062114.JPG,18,ISIC_0000161.JPG,ISIC_0062114.JPG,false,1,keypress(m),500,98216.00000000001,98216.00000000001,93368,93338.00000000001,93401,98267,8,400,6,,ISIC_0000161.JPG
break,html.Screen,4_5_1,2023-10-31T22:01:38.307Z,,0,,,NaN,,,,,,false,,,,98216.00000000001,98216.00000000001,,98216.00000000001,,98267,8,400,,,
break_continue,html.Screen,4_5_2,2023-10-31T22:01:38.307Z,,0,,,NaN,,,,,,false,,,,98217,98217,,98217,,98267,8,400,,,
sequence,flow.Sequence,4_5,2023-10-31T22:01:38.308Z,,0,,,4816,completion,,,,,false,,,,98217,98217,93368,93338.00000000001,93401,98267,8,400,,,
trial,html.Screen,4_6_0,2023-10-31T22:01:42.777Z,,0,1,,4451,response,ISIC_7104307.JPG,29,ISIC_7369312.JPG,ISIC_7369312.JPG,false,0,keypress(z),500,102686,102686,98235,98217,98267,102734,8,400,7,,ISIC_7104307.JPG
break,html.Screen,4_6_1,2023-10-31T22:01:42.778Z,,0,,,NaN,,,,,,false,,,,102687,102687,,102686,,102734,8,400,,,
break_continue,html.Screen,4_6_2,2023-10-31T22:01:42.778Z,,0,,,NaN,,,,,,false,,,,102687,102687,,102687,,102734,8,400,,,
sequence,flow.Sequence,4_6,2023-10-31T22:01:42.778Z,,0,,,4420,completion,,,,,false,,,,102687,102687,98235,98217,98267,102734,8,400,,,
trial,html.Screen,4_7_0,2023-10-31T22:01:47.764Z,,0,1,,4972,response,ISIC_3596927.JPG,28,ISIC_5833422.JPG,ISIC_3596927.JPG,false,1,keypress(m),500,107673,107673,102701,102688,102734,107735,8,400,8,,ISIC_5833422.JPG
break,html.Screen,4_7_1,2023-10-31T22:01:47.765Z,,0,,,NaN,,,,,,false,,,,107674,107674,,107673,,107735,8,400,,,
break_continue,html.Screen,4_7_2,2023-10-31T22:01:47.765Z,,0,,,NaN,,,,,,false,,,,107674,107674,,107674,,107735,8,400,,,
sequence,flow.Sequence,4_7,2023-10-31T22:01:47.765Z,,0,,,4940,completion,,,,,false,,,,107674,107674,102701,102688,102734,107735,8,400,,,
trial,html.Screen,4_8_0,2023-10-31T22:01:59.292Z,,0,1,,11532,timeout,ISIC_0070254.JPG,21,ISIC_4394524.JPG,,false,,,500,119201.00000000001,119200,107701,107675,107735,119267,8,400,9,,
break,html.Screen,4_8_1,2023-10-31T22:01:59.292Z,,0,,,NaN,,,,,,false,,,,119201.00000000001,119201.00000000001,,119201.00000000001,,119267,8,400,,,
break_continue,html.Screen,4_8_2,2023-10-31T22:01:59.293Z,,0,,,NaN,,,,,,false,,,,119202,119202,,119202,,119267,8,400,,,
sequence,flow.Sequence,4_8,2023-10-31T22:01:59.293Z,,0,,,11467,completion,,,,,false,,,,119202,119202,107701,107675,107735,119267,8,400,,,
trial,html.Screen,4_9_0,2023-10-31T22:02:10.825Z,,0,1,,11533,timeout,ISIC_0027056.JPG,15,ISIC_0068993.JPG,,false,,,500,130734.00000000001,130734.00000000001,119234,119202,119267,130800,8,400,10,,
break,html.Screen,4_9_1,2023-10-31T22:02:10.826Z,,0,,,NaN,,,,,,false,,,,130735.00000000001,130735.00000000001,,130734.00000000001,,130800,8,400,,,
break_continue,html.Screen,4_9_2,2023-10-31T22:02:10.827Z,,0,,,NaN,,,,,,false,,,,130735.00000000001,130735.00000000001,,130735.00000000001,,130800,8,400,,,
sequence,flow.Sequence,4_9,2023-10-31T22:02:10.827Z,,0,,,11468.000000000015,completion,,,,,false,,,,130735.99999999999,130735.00000000001,119234,119202,119267,130800,8,400,,,
trial,html.Screen,4_10_0,2023-10-31T22:02:14.049Z,,0,1,,3190,response,ISIC_0012840.JPG,0,ISIC_5822017.JPG,ISIC_5822017.JPG,false,0,keypress(z),500,133957,133957,130767,130735.99999999999,130800,134000,8,400,11,,ISIC_0012840.JPG
break,html.Screen,4_10_1,2023-10-31T22:02:14.049Z,,0,,,NaN,,,,,,false,,,,133958,133958,,133958,,134000,8,400,,,
break_continue,html.Screen,4_10_2,2023-10-31T22:02:14.050Z,,0,,,NaN,,,,,,false,,,,133958,133958,,133958,,134000,8,400,,,
sequence,flow.Sequence,4_10,2023-10-31T22:02:14.050Z,,0,,,3158,completion,,,,,false,,,,133959,133958,130767,130735.99999999999,130800,134000,8,400,,,
trial,html.Screen,4_11_0,2023-10-31T22:02:17.107Z,,0,1,,3048.000000000029,response,ISIC_2153301.JPG,18,ISIC_4524488.JPG,ISIC_2153301.JPG,false,1,keypress(m),500,137016,137015.00000000003,133967,133959,134000,137066,8,400,12,,ISIC_4524488.JPG
break,html.Screen,4_11_1,2023-10-31T22:02:17.108Z,,0,,,NaN,,,,,,false,,,,137016,137016,,137016,,137066,8,400,,,
break_continue,html.Screen,4_11_2,2023-10-31T22:02:17.108Z,,0,,,NaN,,,,,,false,,,,137017,137017,,137017,,137066,8,400,,,
sequence,flow.Sequence,4_11,2023-10-31T22:02:17.108Z,,0,,,3017,completion,,,,,false,,,,137017,137017,133967,133959,134000,137066,8,400,,,
trial,html.Screen,4_12_0,2023-10-31T22:02:19.921Z,,0,1,,2794,response,ISIC_0016112.JPG,18,ISIC_7254389.JPG,ISIC_7254389.JPG,false,0,keypress(z),500,139830,139829,137035,137017,137066,139866,8,400,13,,ISIC_0016112.JPG
break,html.Screen,4_12_1,2023-10-31T22:02:19.922Z,,0,,,NaN,,,,,,false,,,,139830,139830,,139830,,139866,8,400,,,
break_continue,html.Screen,4_12_2,2023-10-31T22:02:19.922Z,,0,,,NaN,,,,,,false,,,,139831,139831,,139830,,139866,8,400,,,
sequence,flow.Sequence,4_12,2023-10-31T22:02:19.922Z,,0,,,2765,completion,,,,,false,,,,139831,139831,137035,137017,137066,139866,8,400,,,
trial,html.Screen,4_13_0,2023-10-31T22:02:22.844Z,,0,1,,2919,response,ISIC_0009894.JPG,25,ISIC_6255113.JPG,ISIC_6255113.JPG,false,0,keypress(z),500,142753,142753,139834,139831,139866,142800,8,400,14,,ISIC_0009894.JPG
break,html.Screen,4_13_1,2023-10-31T22:02:22.845Z,,0,,,NaN,,,,,,false,,,,142754,142754,,142753,,142800,8,400,,,
break_continue,html.Screen,4_13_2,2023-10-31T22:02:22.845Z,,0,,,NaN,,,,,,false,,,,142754,142754,,142754,,142800,8,400,,,
sequence,flow.Sequence,4_13,2023-10-31T22:02:22.845Z,,0,,,2888,completion,,,,,false,,,,142754,142754,139834,139831,139866,142800,8,400,,,
trial,html.Screen,4_14_0,2023-10-31T22:02:26.387Z,,0,1,,3528.000000000029,response,ISIC_2535541.JPG,11,ISIC_0066678.JPG,ISIC_2535541.JPG,false,1,keypress(m),500,146296,146295.00000000003,142767,142754,142800,146334,8,400,15,,ISIC_0066678.JPG
break,html.Screen,4_14_1,2023-10-31T22:02:26.388Z,,0,,,NaN,,,,,,false,,,,146296,146296,,146296,,146334,8,400,,,
break_continue,html.Screen,4_14_2,2023-10-31T22:02:26.388Z,,0,,,NaN,,,,,,false,,,,146297,146297,,146296,,146334,8,400,,,
sequence,flow.Sequence,4_14,2023-10-31T22:02:26.388Z,,0,,,3497,completion,,,,,false,,,,146297,146297,142767,142754,142800,146334,8,400,,,
trial,html.Screen,4_15_0,2023-10-31T22:02:29.414Z,,0,1,,3022,response,ISIC_0016094.JPG,9,ISIC_6779421.JPG,ISIC_6779421.JPG,false,0,keypress(z),500,149322,149322,146300,146297,146334,149367,8,400,16,,ISIC_0016094.JPG
break,html.Screen,4_15_1,2023-10-31T22:02:29.414Z,,0,,,NaN,,,,,,false,,,,149323,149323,,149322,,149367,8,400,,,
break_continue,html.Screen,4_15_2,2023-10-31T22:02:29.415Z,,0,,,NaN,,,,,,false,,,,149323,149323,,149323,,149367,8,400,,,
sequence,flow.Sequence,4_15,2023-10-31T22:02:29.415Z,,0,,,2989,completion,,,,,false,,,,149323,149323,146300,146297,146334,149367,8,400,,,
trial,html.Screen,4_16_0,2023-10-31T22:02:32.518Z,,0,1,,3093.000000000029,response,ISIC_0030828.JPG,13,ISIC_7013005.JPG,ISIC_0030828.JPG,false,1,keypress(m),500,152426.00000000003,152426.00000000003,149333,149323,149367,152467,8,400,17,,ISIC_7013005.JPG
break,html.Screen,4_16_1,2023-10-31T22:02:32.518Z,,0,,,NaN,,,,,,false,,,,152427,152427,,152426.00000000003,,152467,8,400,,,
break_continue,html.Screen,4_16_2,2023-10-31T22:02:32.519Z,,0,,,NaN,,,,,,false,,,,152427,152427,,152427,,152467,8,400,,,
sequence,flow.Sequence,4_16,2023-10-31T22:02:32.519Z,,0,,,3060,completion,,,,,false,,,,152428,152427,149333,149323,149367,152467,8,400,,,
trial,html.Screen,4_17_0,2023-10-31T22:02:36.658Z,,0,1,,4134,response,ISIC_0054677.JPG,28,ISIC_0058158.JPG,ISIC_0054677.JPG,false,1,keypress(m),500,156567,156567,152433,152428,152467,156634,8,400,18,,ISIC_0058158.JPG
break,html.Screen,4_17_1,2023-10-31T22:02:36.659Z,,0,,,NaN,,,,,,false,,,,156568,156567,,156567,,156634,8,400,,,
break_continue,html.Screen,4_17_2,2023-10-31T22:02:36.659Z,,0,,,NaN,,,,,,false,,,,156568,156568,,156568,,156634,8,400,,,
sequence,flow.Sequence,4_17,2023-10-31T22:02:36.660Z,,0,,,4101,completion,,,,,false,,,,156568,156568,152433,152428,152467,156634,8,400,,,
trial,html.Screen,4_18_0,2023-10-31T22:02:40.074Z,,0,1,,3382,response,ISIC_4875370.JPG,28,ISIC_0032187.JPG,ISIC_0032187.JPG,false,0,keypress(z),500,159982,159982,156600,156568,156634,160034,8,400,19,,ISIC_4875370.JPG
break,html.Screen,4_18_1,2023-10-31T22:02:40.074Z,,0,,,NaN,,,,,,false,,,,159983,159983,,159982,,160034,8,400,,,
break_continue,html.Screen,4_18_2,2023-10-31T22:02:40.075Z,,0,,,NaN,,,,,,false,,,,159983,159983,,159983,,160034,8,400,,,
sequence,flow.Sequence,4_18,2023-10-31T22:02:40.075Z,,0,,,3349,completion,,,,,false,,,,159983,159983,156600,156568,156634,160034,8,400,,,
trial,html.Screen,4_19_0,2023-10-31T22:02:44.101Z,,0,1,,4009,response,ISIC_5490257.JPG,3,ISIC_9466794.JPG,ISIC_9466794.JPG,false,0,keypress(z),500,164010,164010,160001,159983,160034,164066,8,400,20,,ISIC_5490257.JPG
break,html.Screen,4_19_1,2023-10-31T22:02:44.102Z,,0,,,NaN,,,,,,false,,,,164011,164010,,164010,,164066,8,400,,,
break_continue,html.Screen,4_19_2,2023-10-31T22:02:44.102Z,,0,,,NaN,,,,,,false,,,,164011,164011,,164011,,164066,8,400,,,
sequence,flow.Sequence,4_19,2023-10-31T22:02:44.102Z,,0,,,3977,completion,,,,,false,,,,164011,164011,160001,159983,160034,164066,8,400,,,
trial,html.Screen,4_20_0,2023-10-31T22:02:47.184Z,,0,1,,3058,response,ISIC_0034075.JPG,24,ISIC_0067511.JPG,ISIC_0034075.JPG,false,1,keypress(m),500,167092,167092,164034,164011,164066,167133,8,400,21,,ISIC_0067511.JPG
break,html.Screen,4_20_1,2023-10-31T22:02:47.184Z,,0,,,NaN,,,,,,false,,,,167093,167093,,167092,,167133,8,400,,,
break_continue,html.Screen,4_20_2,2023-10-31T22:02:47.185Z,,0,,,NaN,,,,,,false,,,,167093,167093,,167093,,167133,8,400,,,
sequence,flow.Sequence,4_20,2023-10-31T22:02:47.185Z,,0,,,3027,completion,,,,,false,,,,167093,167093,164034,164011,164066,167133,8,400,,,
trial,html.Screen,4_21_0,2023-10-31T22:02:51.139Z,,0,1,,3947,response,ISIC_0028788.JPG,2,ISIC_0058723.JPG,ISIC_0028788.JPG,false,1,keypress(m),500,171047,171047,167100,167094,167133,171100,8,400,22,,ISIC_0058723.JPG
break,html.Screen,4_21_1,2023-10-31T22:02:51.139Z,,0,,,NaN,,,,,,false,,,,171048,171048,,171047,,171100,8,400,,,
break_continue,html.Screen,4_21_2,2023-10-31T22:02:51.140Z,,0,,,NaN,,,,,,false,,,,171048,171048,,171048,,171100,8,400,,,
sequence,flow.Sequence,4_21,2023-10-31T22:02:51.140Z,,0,,,3915,completion,,,,,false,,,,171048,171048,167100,167093,167133,171100,8,400,,,
trial,html.Screen,4_22_0,2023-10-31T22:02:55.107Z,,0,1,,3949.000000000029,response,ISIC_0263478.JPG,8,ISIC_8543040.JPG,ISIC_0263478.JPG,false,1,keypress(m),500,175015.00000000003,175015.00000000003,171066,171048,171100,175067,8,400,23,,ISIC_8543040.JPG
break,html.Screen,4_22_1,2023-10-31T22:02:55.107Z,,0,,,NaN,,,,,,false,,,,175016,175015.00000000003,,175015.00000000003,,175067,8,400,,,
break_continue,html.Screen,4_22_2,2023-10-31T22:02:55.108Z,,0,,,NaN,,,,,,false,,,,175016,175016,,175016,,175067,8,400,,,
sequence,flow.Sequence,4_22,2023-10-31T22:02:55.108Z,,0,,,3916,completion,,,,,false,,,,175016,175016,171066,171048,171100,175067,8,400,,,
trial,html.Screen,4_23_0,2023-10-31T22:02:58.588Z,,0,1,,3462,response,ISIC_9079361.JPG,0,ISIC_0033261.JPG,ISIC_9079361.JPG,false,1,keypress(m),500,178496,178496,175034,175016,175067,178533,8,400,24,,ISIC_0033261.JPG
break,html.Screen,4_23_1,2023-10-31T22:02:58.588Z,,0,,,NaN,,,,,,false,,,,178497,178496,,178496,,178533,8,400,,,
break_continue,html.Screen,4_23_2,2023-10-31T22:02:58.589Z,,0,,,NaN,,,,,,false,,,,178497,178497,,178497,,178533,8,400,,,
sequence,flow.Sequence,4_23,2023-10-31T22:02:58.589Z,,0,,,3430,completion,,,,,false,,,,178497,178497,175034,175016,175067,178533,8,400,,,
trial,html.Screen,4_24_0,2023-10-31T22:03:02.612Z,,0,1,,4020,response,ISIC_0054151.JPG,28,ISIC_1108204.JPG,ISIC_0054151.JPG,false,1,keypress(m),500,182521.00000000003,182520,178500,178497,178533,182567,8,400,25,,ISIC_1108204.JPG
break,html.Screen,4_24_1,2023-10-31T22:03:02.613Z,,0,,,NaN,,,,,,false,,,,182521.00000000003,182521.00000000003,,182521.00000000003,,182567,8,400,,,
break_continue,html.Screen,4_24_2,2023-10-31T22:03:02.613Z,,0,,,NaN,,,,,,false,,,,182522,182522,,182522,,182567,8,400,,,
sequence,flow.Sequence,4_24,2023-10-31T22:03:02.614Z,,0,,,3989,completion,,,,,false,,,,182522,182522,178500,178497,178533,182567,8,400,,,
trial,html.Screen,4_25_0,2023-10-31T22:03:09.565Z,,0,1,,6940,response,ISIC_0010551.JPG,24,ISIC_6785041.JPG,ISIC_6785041.JPG,false,0,keypress(z),500,189473,189473,182533,182522,182567,189533,8,400,26,,ISIC_0010551.JPG
break,html.Screen,4_25_1,2023-10-31T22:03:09.566Z,,0,,,NaN,,,,,,false,,,,189475,189474.00000000003,,189474.00000000003,,189533,8,400,,,
break_continue,html.Screen,4_25_2,2023-10-31T22:03:09.567Z,,0,,,NaN,,,,,,false,,,,189475,189475,,189475,,189533,8,400,,,
sequence,flow.Sequence,4_25,2023-10-31T22:03:09.567Z,,0,,,6908,completion,,,,,false,,,,189475,189475,182533,182522,182567,189533,8,400,,,
trial,html.Screen,4_26_0,2023-10-31T22:03:14.255Z,,0,1,,4663,response,ISIC_0068107.JPG,1,ISIC_6310591.JPG,ISIC_6310591.JPG,false,0,keypress(z),500,194163,194163,189500,189475,189533,194200,8,400,27,,ISIC_0068107.JPG
break,html.Screen,4_26_1,2023-10-31T22:03:14.255Z,,0,,,NaN,,,,,,false,,,,194163,194163,,194163,,194200,8,400,,,
break_continue,html.Screen,4_26_2,2023-10-31T22:03:14.256Z,,0,,,NaN,,,,,,false,,,,194164.00000000003,194164.00000000003,,194164.00000000003,,194200,8,400,,,
sequence,flow.Sequence,4_26,2023-10-31T22:03:14.256Z,,0,,,4631.000000000029,completion,,,,,false,,,,194164.00000000003,194164.00000000003,189500,189475,189533,194200,8,400,,,
trial,html.Screen,4_27_0,2023-10-31T22:03:17.853Z,,0,1,,3595,response,ISIC_0016137.JPG,21,ISIC_2246150.JPG,ISIC_2246150.JPG,false,0,keypress(z),500,197761,197761,194166,194164.00000000003,194200,197799,8,400,28,,ISIC_0016137.JPG
break,html.Screen,4_27_1,2023-10-31T22:03:17.854Z,,0,,,NaN,,,,,,false,,,,197762,197761,,197761,,197799,8,400,,,
break_continue,html.Screen,4_27_2,2023-10-31T22:03:17.854Z,,0,,,NaN,,,,,,false,,,,197762,197762,,197762,,197799,8,400,,,
sequence,flow.Sequence,4_27,2023-10-31T22:03:17.854Z,,0,,,3562,completion,,,,,false,,,,197762,197762,194166,194164.00000000003,194200,197799,8,400,,,
trial,html.Screen,4_28_0,2023-10-31T22:03:21.891Z,,0,1,,4033,response,ISIC_8362891.JPG,23,ISIC_0059773.JPG,ISIC_0059773.JPG,false,0,keypress(z),500,201799,201799,197766,197762,197799,201866,8,400,29,,ISIC_8362891.JPG
break,html.Screen,4_28_1,2023-10-31T22:03:21.892Z,,0,,,NaN,,,,,,false,,,,201800,201800,,201799,,201866,8,400,,,
break_continue,html.Screen,4_28_2,2023-10-31T22:03:21.892Z,,0,,,NaN,,,,,,false,,,,201800,201800,,201800,,201866,8,400,,,
sequence,flow.Sequence,4_28,2023-10-31T22:03:21.892Z,,0,,,4001,completion,,,,,false,,,,201800,201800,197766,197762,197799,201866,8,400,,,
trial,html.Screen,4_29_0,2023-10-31T22:03:25.085Z,,0,1,,3159,response,ISIC_2238901.JPG,5,ISIC_0002613.JPG,ISIC_0002613.JPG,false,0,keypress(z),500,204992,204992,201833,201800,201866,205032,8,400,30,,ISIC_2238901.JPG
break,html.Screen,4_29_1,2023-10-31T22:03:25.085Z,,0,,,NaN,,,,,,false,,,,204993,204993,,204993,,205032,8,400,,,
break_continue,html.Screen,4_29_2,2023-10-31T22:03:25.085Z,,0,,,NaN,,,,,,false,,,,204993,204993,,204993,,205032,8,400,,,
sequence,flow.Sequence,4_29,2023-10-31T22:03:25.086Z,,0,,,3127,completion,,,,,false,,,,204993,204993,201833,201800,201866,205032,8,400,,,
trial,html.Screen,4_30_0,2023-10-31T22:03:28.562Z,,0,1,,3471,response,ISIC_0026909.JPG,23,ISIC_0059593.JPG,ISIC_0026909.JPG,false,1,keypress(m),500,208470,208470,204999,204994,205032,208533,8,400,31,,ISIC_0059593.JPG
break,html.Screen,4_30_1,2023-10-31T22:03:28.563Z,,0,,,NaN,,,,,,false,,,,208471,208471,,208470,,208533,8,400,,,
break_continue,html.Screen,4_30_2,2023-10-31T22:03:28.563Z,,0,,,NaN,,,,,,false,,,,208471,208471,,208471,,208533,8,400,,,
sequence,flow.Sequence,4_30,2023-10-31T22:03:28.563Z,,0,,,3439,completion,,,,,false,,,,208471,208471,204999,204993,205032,208533,8,400,,,
trial,html.Screen,4_31_0,2023-10-31T22:03:31.345Z,,0,1,,2754,response,ISIC_0071901.JPG,24,ISIC_4007322.JPG,ISIC_4007322.JPG,false,0,keypress(z),500,211253,211253,208499,208471,208533,211299,8,400,32,,ISIC_0071901.JPG
break,html.Screen,4_31_1,2023-10-31T22:03:31.346Z,,0,,,NaN,,,,,,false,,,,211254,211253,,211253,,211299,8,400,,,
break_continue,html.Screen,4_31_2,2023-10-31T22:03:31.346Z,,0,,,NaN,,,,,,false,,,,211254,211254,,211254,,211299,8,400,,,
sequence,flow.Sequence,4_31,2023-10-31T22:03:31.346Z,,0,,,2721,completion,,,,,false,,,,211254,211254,208499,208471,208533,211299,8,400,,,
trial,html.Screen,4_32_0,2023-10-31T22:03:34.750Z,,0,1,,3391,response,ISIC_4428769.JPG,2,ISIC_9511265.JPG,ISIC_4428769.JPG,false,1,keypress(m),500,214657,214657,211266,211254,211299,214700,8,400,33,,ISIC_9511265.JPG
break,html.Screen,4_32_1,2023-10-31T22:03:34.750Z,,0,,,NaN,,,,,,false,,,,214658.00000000003,214658.00000000003,,214658.00000000003,,214700,8,400,,,
break_continue,html.Screen,4_32_2,2023-10-31T22:03:34.750Z,,0,,,NaN,,,,,,false,,,,214658.00000000003,214658.00000000003,,214658.00000000003,,214700,8,400,,,
sequence,flow.Sequence,4_32,2023-10-31T22:03:34.751Z,,0,,,3359.000000000029,completion,,,,,false,,,,214658.00000000003,214658.00000000003,211266,211254,211299,214700,8,400,,,
trial,html.Screen,4_33_0,2023-10-31T22:03:39.062Z,,0,1,,4302.000000000029,response,ISIC_0046597.JPG,18,ISIC_8887039.JPG,ISIC_0046597.JPG,false,1,keypress(m),500,218970,218968.00000000003,214666,214659,214700,219032,8,400,34,,ISIC_8887039.JPG
break,html.Screen,4_33_1,2023-10-31T22:03:39.063Z,,0,,,NaN,,,,,,false,,,,218971,218971,,218970,,219032,8,400,,,
break_continue,html.Screen,4_33_2,2023-10-31T22:03:39.064Z,,0,,,NaN,,,,,,false,,,,218972,218972,,218971,,219032,8,400,,,
sequence,flow.Sequence,4_33,2023-10-31T22:03:39.064Z,,0,,,4272,completion,,,,,false,,,,218972,218972,214666,214659,214700,219032,8,400,,,
trial,html.Screen,4_34_0,2023-10-31T22:03:42.252Z,,0,1,,3161,response,ISIC_1142962.JPG,23,ISIC_0030434.JPG,ISIC_1142962.JPG,false,1,keypress(m),500,222160,222160,218999,218972,219032,222199,8,400,35,,ISIC_0030434.JPG
break,html.Screen,4_34_1,2023-10-31T22:03:42.253Z,,0,,,NaN,,,,,,false,,,,222161,222161,,222160,,222199,8,400,,,
break_continue,html.Screen,4_34_2,2023-10-31T22:03:42.254Z,,0,,,NaN,,,,,,false,,,,222161,222161,,222161,,222199,8,400,,,
sequence,flow.Sequence,4_34,2023-10-31T22:03:42.254Z,,0,,,3129,completion,,,,,false,,,,222162,222161,218999,218972,219032,222199,8,400,,,
trial,html.Screen,4_35_0,2023-10-31T22:03:45.671Z,,0,1,,3413,response,ISIC_0065360.JPG,14,ISIC_0000043.JPG,ISIC_0000043.JPG,false,0,keypress(z),500,225579,225579,222166,222162,222199,225632,8,400,36,,ISIC_0065360.JPG
break,html.Screen,4_35_1,2023-10-31T22:03:45.672Z,,0,,,NaN,,,,,,false,,,,225580,225580,,225579,,225632,8,400,,,
break_continue,html.Screen,4_35_2,2023-10-31T22:03:45.672Z,,0,,,NaN,,,,,,false,,,,225580,225580,,225580,,225632,8,400,,,
sequence,flow.Sequence,4_35,2023-10-31T22:03:45.672Z,,0,,,3381,completion,,,,,false,,,,225580,225580,222166,222162,222199,225632,8,400,,,
trial,html.Screen,4_36_0,2023-10-31T22:03:49.095Z,,0,1,,3403,response,ISIC_0066209.JPG,15,ISIC_0046908.JPG,ISIC_0066209.JPG,false,1,keypress(m),500,229003,229003,225600,225580,225632,229066,8,400,37,,ISIC_0046908.JPG
break,html.Screen,4_36_1,2023-10-31T22:03:49.096Z,,0,,,NaN,,,,,,false,,,,229004,229004,,229003,,229066,8,400,,,
break_continue,html.Screen,4_36_2,2023-10-31T22:03:49.096Z,,0,,,NaN,,,,,,false,,,,229004,229004,,229004,,229066,8,400,,,
sequence,flow.Sequence,4_36,2023-10-31T22:03:49.097Z,,0,,,3372,completion,,,,,false,,,,229004,229004,225600,225580,225632,229066,8,400,,,
trial,html.Screen,4_37_0,2023-10-31T22:03:56.140Z,,0,1,,7016,response,ISIC_0027420.JPG,11,ISIC_6546903.JPG,ISIC_6546903.JPG,false,0,keypress(z),500,236048,236048,229032,229004,229066,236099,8,400,38,,ISIC_0027420.JPG
break,html.Screen,4_37_1,2023-10-31T22:03:56.141Z,,0,,,NaN,,,,,,false,,,,236049,236048,,236048,,236099,8,400,,,
break_continue,html.Screen,4_37_2,2023-10-31T22:03:56.141Z,,0,,,NaN,,,,,,false,,,,236049,236049,,236049,,236099,8,400,,,
sequence,flow.Sequence,4_37,2023-10-31T22:03:56.141Z,,0,,,6983,completion,,,,,false,,,,236049,236049,229032,229004,229066,236099,8,400,,,
trial,html.Screen,4_38_0,2023-10-31T22:03:59.665Z,,0,1,,3506,response,ISIC_5545874.JPG,17,ISIC_9214649.JPG,ISIC_9214649.JPG,false,0,keypress(z),500,239572,239572,236066,236049,236099,239632,8,400,39,,ISIC_5545874.JPG
break,html.Screen,4_38_1,2023-10-31T22:03:59.665Z,,0,,,NaN,,,,,,false,,,,239573,239573,,239572,,239632,8,400,,,
break_continue,html.Screen,4_38_2,2023-10-31T22:03:59.666Z,,0,,,NaN,,,,,,false,,,,239573,239573,,239573,,239632,8,400,,,
sequence,flow.Sequence,4_38,2023-10-31T22:03:59.666Z,,0,,,3474,completion,,,,,false,,,,239573,239573,236066,236049,236099,239632,8,400,,,
trial,html.Screen,4_39_0,2023-10-31T22:04:03.207Z,,0,1,,3515,response,ISIC_0000036.JPG,3,ISIC_0029383.JPG,ISIC_0029383.JPG,false,0,keypress(z),500,243114,243114,239599,239573,239632,243165,8,400,40,,ISIC_0000036.JPG
break,html.Screen,4_39_1,2023-10-31T22:04:03.208Z,,0,,,NaN,,,,,,false,,,,243115,243115,,243115,,243165,8,400,,,
break_continue,html.Screen,4_39_2,2023-10-31T22:04:03.208Z,,0,,,NaN,,,,,,false,,,,243115,243115,,243115,,243165,8,400,,,
sequence,flow.Sequence,4_39,2023-10-31T22:04:03.208Z,,0,,,3483,completion,,,,,false,,,,243115,243115,239599,239573,239632,243165,8,400,,,
trial,html.Screen,4_40_0,2023-10-31T22:04:06.933Z,,0,1,,3707,response,ISIC_0032543.JPG,0,ISIC_0260316.JPG,ISIC_0260316.JPG,false,0,keypress(z),500,246840,246840,243133,243116,243165,246898,8,400,41,,ISIC_0032543.JPG
break,html.Screen,4_40_1,2023-10-31T22:04:06.933Z,,0,,,NaN,,,,,,false,,,,246841,246840,,246840,,246898,8,400,,,
break_continue,html.Screen,4_40_2,2023-10-31T22:04:06.933Z,,0,,,NaN,,,,,,false,,,,246841,246841,,246841,,246898,8,400,,,
sequence,flow.Sequence,4_40,2023-10-31T22:04:06.934Z,,0,,,3676,completion,,,,,false,,,,246841,246841,243133,243116,243165,246898,8,400,,,
trial,html.Screen,4_41_0,2023-10-31T22:04:09.792Z,,0,1,,2833,response,ISIC_0034265.JPG,25,ISIC_8872225.JPG,ISIC_8872225.JPG,false,0,keypress(z),500,249699,249699,246866,246841,246898,249766,8,400,42,,ISIC_0034265.JPG
break,html.Screen,4_41_1,2023-10-31T22:04:09.793Z,,0,,,NaN,,,,,,false,,,,249700.00000000003,249700.00000000003,,249699,,249766,8,400,,,
break_continue,html.Screen,4_41_2,2023-10-31T22:04:09.793Z,,0,,,NaN,,,,,,false,,,,249700.00000000003,249700.00000000003,,249700.00000000003,,249766,8,400,,,
sequence,flow.Sequence,4_41,2023-10-31T22:04:09.793Z,,0,,,2802.000000000029,completion,,,,,false,,,,249700.00000000003,249700.00000000003,246866,246841,246898,249766,8,400,,,
trial,html.Screen,4_42_0,2023-10-31T22:04:12.740Z,,0,1,,2915,response,ISIC_0026112.JPG,15,ISIC_0033024.JPG,ISIC_0026112.JPG,false,1,keypress(m),500,252648,252648,249733,249701,249766,252699,8,400,43,,ISIC_0033024.JPG
break,html.Screen,4_42_1,2023-10-31T22:04:12.741Z,,0,,,NaN,,,,,,false,,,,252648,252648,,252648,,252699,8,400,,,
break_continue,html.Screen,4_42_2,2023-10-31T22:04:12.741Z,,0,,,NaN,,,,,,false,,,,252649,252649,,252649,,252699,8,400,,,
sequence,flow.Sequence,4_42,2023-10-31T22:04:12.742Z,,0,,,2883,completion,,,,,false,,,,252649,252649,249733,249700.00000000003,249766,252699,8,400,,,
trial,html.Screen,4_43_0,2023-10-31T22:04:16.985Z,,0,1,,4226,response,ISIC_0071050.JPG,7,ISIC_0013316.JPG,ISIC_0013316.JPG,false,0,keypress(z),500,256892,256892,252666,252649,252699,256932,8,400,44,,ISIC_0071050.JPG
break,html.Screen,4_43_1,2023-10-31T22:04:16.985Z,,0,,,NaN,,,,,,false,,,,256893.00000000003,256892,,256892,,256932,8,400,,,
break_continue,html.Screen,4_43_2,2023-10-31T22:04:16.986Z,,0,,,NaN,,,,,,false,,,,256893.00000000003,256893.00000000003,,256893.00000000003,,256932,8,400,,,
sequence,flow.Sequence,4_43,2023-10-31T22:04:16.986Z,,0,,,4194.000000000029,completion,,,,,false,,,,256893.00000000003,256893.00000000003,252666,252649,252699,256932,8,400,,,
trial,html.Screen,4_44_0,2023-10-31T22:04:20.087Z,,0,1,,3095.000000000029,response,ISIC_3013569.JPG,23,ISIC_0064107.JPG,ISIC_3013569.JPG,false,1,keypress(m),500,259994.00000000003,259994.00000000003,256899,256893.00000000003,256932,260032,8,400,45,,ISIC_0064107.JPG
break,html.Screen,4_44_1,2023-10-31T22:04:20.087Z,,0,,,NaN,,,,,,false,,,,259995,259994.00000000003,,259994.00000000003,,260032,8,400,,,
break_continue,html.Screen,4_44_2,2023-10-31T22:04:20.088Z,,0,,,NaN,,,,,,false,,,,259995,259995,,259995,,260032,8,400,,,
sequence,flow.Sequence,4_44,2023-10-31T22:04:20.088Z,,0,,,3063,completion,,,,,false,,,,259995,259995,256899,256893.00000000003,256932,260032,8,400,,,
trial,html.Screen,4_45_0,2023-10-31T22:04:23.266Z,,0,1,,3174,response,ISIC_5706956.JPG,11,ISIC_0082704.JPG,ISIC_0082704.JPG,false,0,keypress(z),500,263173,263173,259999,259995,260032,263232,8,400,46,,ISIC_5706956.JPG
break,html.Screen,4_45_1,2023-10-31T22:04:23.267Z,,0,,,NaN,,,,,,false,,,,263174,263174,,263173,,263232,8,400,,,
break_continue,html.Screen,4_45_2,2023-10-31T22:04:23.267Z,,0,,,NaN,,,,,,false,,,,263174,263174,,263174,,263232,8,400,,,
sequence,flow.Sequence,4_45,2023-10-31T22:04:23.267Z,,0,,,3142,completion,,,,,false,,,,263174,263174,259999,259995,260032,263232,8,400,,,
trial,html.Screen,4_46_0,2023-10-31T22:04:26.550Z,,0,1,,3258,response,ISIC_6381197.JPG,12,ISIC_0014324.JPG,ISIC_6381197.JPG,false,1,keypress(m),500,266457,266457,263199,263174,263232,266499,8,400,47,,ISIC_0014324.JPG
break,html.Screen,4_46_1,2023-10-31T22:04:26.551Z,,0,,,NaN,,,,,,false,,,,266458,266458,,266457,,266499,8,400,,,
break_continue,html.Screen,4_46_2,2023-10-31T22:04:26.551Z,,0,,,NaN,,,,,,false,,,,266458,266458,,266458,,266499,8,400,,,
sequence,flow.Sequence,4_46,2023-10-31T22:04:26.551Z,,0,,,3226,completion,,,,,false,,,,266458,266458,263199,263174,263232,266499,8,400,,,
trial,html.Screen,4_47_0,2023-10-31T22:04:32.542Z,,0,1,,5983,response,ISIC_5098778.JPG,27,ISIC_6442221.JPG,ISIC_6442221.JPG,false,0,keypress(z),500,272449,272449,266466,266458,266499,272499,8,400,48,,ISIC_5098778.JPG
break,html.Screen,4_47_1,2023-10-31T22:04:32.543Z,,0,,,NaN,,,,,,false,,,,272450,272449,,272449,,272499,8,400,,,
break_continue,html.Screen,4_47_2,2023-10-31T22:04:32.543Z,,0,,,NaN,,,,,,false,,,,272450,272450,,272450,,272499,8,400,,,
sequence,flow.Sequence,4_47,2023-10-31T22:04:32.543Z,,0,,,5951,completion,,,,,false,,,,272450,272450,266466,266458,266499,272499,8,400,,,
trial,html.Screen,4_48_0,2023-10-31T22:04:36.467Z,,0,1,,3907,response,ISIC_0067979.JPG,6,ISIC_6384906.JPG,ISIC_6384906.JPG,false,0,keypress(z),500,276374,276373,272466,272450,272499,276432,8,400,49,,ISIC_0067979.JPG
break,html.Screen,4_48_1,2023-10-31T22:04:36.467Z,,0,,,NaN,,,,,,false,,,,276374,276374,,276374,,276432,8,400,,,
break_continue,html.Screen,4_48_2,2023-10-31T22:04:36.467Z,,0,,,NaN,,,,,,false,,,,276374,276374,,276374,,276432,8,400,,,
sequence,flow.Sequence,4_48,2023-10-31T22:04:36.467Z,,0,,,3875,completion,,,,,false,,,,276374,276374,272466,272450,272499,276432,8,400,,,
trial,html.Screen,4_49_0,2023-10-31T22:04:41.173Z,,0,1,,4681,response,ISIC_1560455.JPG,11,ISIC_0004667.JPG,ISIC_0004667.JPG,false,0,keypress(z),500,281080,281080,276399,276375,276432,281131,8,400,50,,ISIC_1560455.JPG
break,html.Screen,4_49_1,2023-10-31T22:04:51.192Z,,0,,,10001,timeout,,,,,false,,,,291099,291099,281099,281080,281131,291132,8,400,,,
break_continue,html.Screen,4_49_2,2023-10-31T22:04:52.139Z,,0,,,935,response,,,,,false,continue,keypress(Space),,292045,292034,291099,291099,291132,292098,8,400,,,
sequence,flow.Sequence,4_49,2023-10-31T22:04:52.139Z,,0,,,15602,completion,,,,,false,,,,292045,292034,276399,276375,276432,292098,8,400,,,
trial,html.Screen,4_50_0,2023-10-31T22:04:54.783Z,,0,2,,2625,response,ISIC_0010956.JPG,1,ISIC_0032357.JPG,ISIC_0032357.JPG,false,0,keypress(z),500,294690,294690,292065,292046,292098,294732,8,400,1,,ISIC_0010956.JPG
break,html.Screen,4_50_1,2023-10-31T22:04:54.784Z,,0,,,NaN,,,,,,false,,,,294690,294690,,294690,,294732,8,400,,,
break_continue,html.Screen,4_50_2,2023-10-31T22:04:54.784Z,,0,,,NaN,,,,,,false,,,,294691.00000000006,294690,,294690,,294732,8,400,,,
sequence,flow.Sequence,4_50,2023-10-31T22:04:54.784Z,,0,,,2592,completion,,,,,false,,,,294691.00000000006,294690,292065,292046,292098,294732,8,400,,,
trial,html.Screen,4_51_0,2023-10-31T22:04:57.446Z,,0,2,,2654,response,ISIC_5980439.JPG,26,ISIC_0065219.JPG,ISIC_5980439.JPG,false,1,keypress(m),500,297353,297353,294699,294691.00000000006,294732,297398,8,400,2,,ISIC_0065219.JPG
break,html.Screen,4_51_1,2023-10-31T22:04:57.447Z,,0,,,NaN,,,,,,false,,,,297353,297353,,297353,,297398,8,400,,,
break_continue,html.Screen,4_51_2,2023-10-31T22:04:57.447Z,,0,,,NaN,,,,,,false,,,,297354,297354,,297354,,297398,8,400,,,
sequence,flow.Sequence,4_51,2023-10-31T22:04:57.447Z,,0,,,2622,completion,,,,,false,,,,297354,297354,294699,294691.00000000006,294732,297398,8,400,,,
trial,html.Screen,4_52_0,2023-10-31T22:04:59.874Z,,0,2,,2416,response,ISIC_0067467.JPG,2,ISIC_0367225.JPG,ISIC_0367225.JPG,false,0,keypress(z),500,299781,299781,297365,297354,297398,299832,8,400,3,,ISIC_0067467.JPG
break,html.Screen,4_52_1,2023-10-31T22:04:59.875Z,,0,,,NaN,,,,,,false,,,,299782,299781,,299781,,299832,8,400,,,
break_continue,html.Screen,4_52_2,2023-10-31T22:04:59.875Z,,0,,,NaN,,,,,,false,,,,299782,299782,,299782,,299832,8,400,,,
sequence,flow.Sequence,4_52,2023-10-31T22:04:59.875Z,,0,,,2384,completion,,,,,false,,,,299782,299782,297365,297354,297398,299832,8,400,,,
trial,html.Screen,4_53_0,2023-10-31T22:05:03.128Z,,0,2,,3236,response,ISIC_8692155.JPG,4,ISIC_5441247.JPG,ISIC_8692155.JPG,false,1,keypress(m),500,303035,303035,299799,299782,299832,303098,8,400,4,,ISIC_5441247.JPG
break,html.Screen,4_53_1,2023-10-31T22:05:03.129Z,,0,,,NaN,,,,,,false,,,,303036,303036,,303035,,303098,8,400,,,
break_continue,html.Screen,4_53_2,2023-10-31T22:05:03.129Z,,0,,,NaN,,,,,,false,,,,303036,303036,,303036,,303098,8,400,,,
sequence,flow.Sequence,4_53,2023-10-31T22:05:03.129Z,,0,,,3204,completion,,,,,false,,,,303036,303036,299799,299782,299832,303098,8,400,,,
trial,html.Screen,4_54_0,2023-10-31T22:05:05.910Z,,0,2,,2752.000000000058,response,ISIC_0000294.JPG,19,ISIC_0010862.JPG,ISIC_0010862.JPG,false,0,keypress(z),500,305816.00000000006,305816.00000000006,303064,303036,303098,305865,8,400,5,,ISIC_0000294.JPG
break,html.Screen,4_54_1,2023-10-31T22:05:05.910Z,,0,,,NaN,,,,,,false,,,,305817,305817,,305816.00000000006,,305865,8,400,,,
break_continue,html.Screen,4_54_2,2023-10-31T22:05:05.910Z,,0,,,NaN,,,,,,false,,,,305817,305817,,305817,,305865,8,400,,,
sequence,flow.Sequence,4_54,2023-10-31T22:05:05.911Z,,0,,,2719,completion,,,,,false,,,,305817,305817,303064,303036,303098,305865,8,400,,,
trial,html.Screen,4_55_0,2023-10-31T22:05:09.110Z,,0,2,,3185,response,ISIC_2067576.JPG,29,ISIC_2997601.JPG,ISIC_2067576.JPG,false,1,keypress(m),500,309016,309016,305831,305817,305865,309065,8,400,6,,ISIC_2997601.JPG
break,html.Screen,4_55_1,2023-10-31T22:05:09.110Z,,0,,,NaN,,,,,,false,,,,309017,309017,,309016,,309065,8,400,,,
break_continue,html.Screen,4_55_2,2023-10-31T22:05:09.111Z,,0,,,NaN,,,,,,false,,,,309017,309017,,309017,,309065,8,400,,,
sequence,flow.Sequence,4_55,2023-10-31T22:05:09.111Z,,0,,,3152,completion,,,,,false,,,,309017,309017,305831,305817,305865,309065,8,400,,,
trial,html.Screen,4_56_0,2023-10-31T22:05:12.579Z,,0,2,,3454,response,ISIC_0026690.JPG,8,ISIC_0056811.JPG,ISIC_0056811.JPG,false,0,keypress(z),500,312486,312486,309032,309017,309065,312531,8,400,7,,ISIC_0026690.JPG
break,html.Screen,4_56_1,2023-10-31T22:05:12.580Z,,0,,,NaN,,,,,,false,,,,312487,312487,,312486,,312531,8,400,,,
break_continue,html.Screen,4_56_2,2023-10-31T22:05:12.580Z,,0,,,NaN,,,,,,false,,,,312487,312487,,312487,,312531,8,400,,,
sequence,flow.Sequence,4_56,2023-10-31T22:05:12.581Z,,0,,,3422,completion,,,,,false,,,,312487,312487,309032,309017,309065,312531,8,400,,,
trial,html.Screen,4_57_0,2023-10-31T22:05:15.567Z,,0,2,,2976,response,ISIC_1985763.JPG,18,ISIC_1925632.JPG,ISIC_1985763.JPG,false,1,keypress(m),500,315474,315474,312498,312487,312531,315531,8,400,8,,ISIC_1925632.JPG
break,html.Screen,4_57_1,2023-10-31T22:05:15.568Z,,0,,,NaN,,,,,,false,,,,315474,315474,,315474,,315531,8,400,,,
break_continue,html.Screen,4_57_2,2023-10-31T22:05:15.568Z,,0,,,NaN,,,,,,false,,,,315475,315475,,315474,,315531,8,400,,,
sequence,flow.Sequence,4_57,2023-10-31T22:05:15.568Z,,0,,,2944,completion,,,,,false,,,,315475,315475,312498,312487,312531,315531,8,400,,,
trial,html.Screen,4_58_0,2023-10-31T22:05:20.095Z,,0,2,,4504,response,ISIC_0026089.JPG,1,ISIC_0054851.JPG,ISIC_0054851.JPG,false,0,keypress(z),500,320002,320002,315498,315475,315531,320064,8,400,9,,ISIC_0026089.JPG
break,html.Screen,4_58_1,2023-10-31T22:05:20.096Z,,0,,,NaN,,,,,,false,,,,320002,320002,,320002,,320064,8,400,,,
break_continue,html.Screen,4_58_2,2023-10-31T22:05:20.096Z,,0,,,NaN,,,,,,false,,,,320003,320003,,320003,,320064,8,400,,,
sequence,flow.Sequence,4_58,2023-10-31T22:05:20.096Z,,0,,,4472,completion,,,,,false,,,,320003,320003,315498,315475,315531,320064,8,400,,,
trial,html.Screen,4_59_0,2023-10-31T22:05:26.900Z,,0,2,,6776,response,ISIC_1008321.JPG,3,ISIC_0659400.JPG,ISIC_0659400.JPG,false,0,keypress(z),500,326807,326807,320031,320003,320064,326865,8,400,10,,ISIC_1008321.JPG
break,html.Screen,4_59_1,2023-10-31T22:05:26.901Z,,0,,,NaN,,,,,,false,,,,326807,326807,,326807,,326865,8,400,,,
break_continue,html.Screen,4_59_2,2023-10-31T22:05:26.901Z,,0,,,NaN,,,,,,false,,,,326808,326808,,326807,,326865,8,400,,,
sequence,flow.Sequence,4_59,2023-10-31T22:05:26.901Z,,0,,,6744,completion,,,,,false,,,,326808,326808,320031,320003,320064,326865,8,400,,,
trial,html.Screen,4_60_0,2023-10-31T22:05:30.186Z,,0,2,,3261,response,ISIC_0046741.JPG,8,ISIC_7466678.JPG,ISIC_0046741.JPG,false,1,keypress(m),500,330093,330092,326831,326808,326865,330131,8,400,11,,ISIC_7466678.JPG
break,html.Screen,4_60_1,2023-10-31T22:05:30.187Z,,0,,,NaN,,,,,,false,,,,330093,330093,,330093,,330131,8,400,,,
break_continue,html.Screen,4_60_2,2023-10-31T22:05:30.187Z,,0,,,NaN,,,,,,false,,,,330093,330093,,330093,,330131,8,400,,,
sequence,flow.Sequence,4_60,2023-10-31T22:05:30.187Z,,0,,,3228,completion,,,,,false,,,,330094,330093,326831,326808,326865,330131,8,400,,,
trial,html.Screen,4_61_0,2023-10-31T22:05:32.902Z,,0,2,,2710,response,ISIC_6126620.JPG,22,ISIC_0033080.JPG,ISIC_6126620.JPG,false,1,keypress(m),500,332808,332808,330098,330094,330131,332865,8,400,12,,ISIC_0033080.JPG
break,html.Screen,4_61_1,2023-10-31T22:05:32.902Z,,0,,,NaN,,,,,,false,,,,332809,332809,,332808,,332865,8,400,,,
break_continue,html.Screen,4_61_2,2023-10-31T22:05:32.903Z,,0,,,NaN,,,,,,false,,,,332809,332809,,332809,,332865,8,400,,,
sequence,flow.Sequence,4_61,2023-10-31T22:05:32.903Z,,0,,,2678,completion,,,,,false,,,,332809,332809,330098,330094,330131,332865,8,400,,,
trial,html.Screen,4_62_0,2023-10-31T22:05:35.919Z,,0,2,,2994,response,ISIC_0065766.JPG,7,ISIC_0025927.JPG,ISIC_0025927.JPG,false,0,keypress(z),500,335825,335825,332831,332809,332865,335864,8,400,13,,ISIC_0065766.JPG
break,html.Screen,4_62_1,2023-10-31T22:05:35.919Z,,0,,,NaN,,,,,,false,,,,335825,335825,,335825,,335864,8,400,,,
break_continue,html.Screen,4_62_2,2023-10-31T22:05:35.919Z,,0,,,NaN,,,,,,false,,,,335826,335826,,335826,,335864,8,400,,,
sequence,flow.Sequence,4_62,2023-10-31T22:05:35.920Z,,0,,,2961,completion,,,,,false,,,,335826,335826,332831,332809,332865,335864,8,400,,,
trial,html.Screen,4_63_0,2023-10-31T22:05:38.559Z,,0,2,,2635.000000000058,response,ISIC_8414421.JPG,20,ISIC_6870208.JPG,ISIC_6870208.JPG,false,0,keypress(z),500,338465.00000000006,338465.00000000006,335830,335826,335864,338531,8,400,14,,ISIC_8414421.JPG
break,html.Screen,4_63_1,2023-10-31T22:05:38.560Z,,0,,,NaN,,,,,,false,,,,338466,338466,,338465.00000000006,,338531,8,400,,,
break_continue,html.Screen,4_63_2,2023-10-31T22:05:38.560Z,,0,,,NaN,,,,,,false,,,,338466,338466,,338466,,338531,8,400,,,
sequence,flow.Sequence,4_63,2023-10-31T22:05:38.560Z,,0,,,2602,completion,,,,,false,,,,338466,338466,335830,335826,335864,338531,8,400,,,
trial,html.Screen,4_64_0,2023-10-31T22:05:41.297Z,,0,2,,2705.000000000058,response,ISIC_0003438.JPG,20,ISIC_5415761.JPG,ISIC_0003438.JPG,false,1,keypress(m),500,341203.00000000006,341203.00000000006,338498,338466,338531,341264,8,400,15,,ISIC_5415761.JPG
break,html.Screen,4_64_1,2023-10-31T22:05:41.298Z,,0,,,NaN,,,,,,false,,,,341204,341204,,341204,,341264,8,400,,,
break_continue,html.Screen,4_64_2,2023-10-31T22:05:41.298Z,,0,,,NaN,,,,,,false,,,,341204,341204,,341204,,341264,8,400,,,
sequence,flow.Sequence,4_64,2023-10-31T22:05:41.298Z,,0,,,2673,completion,,,,,false,,,,341204,341204,338498,338466,338531,341264,8,400,,,
trial,html.Screen,4_65_0,2023-10-31T22:05:43.518Z,,0,2,,2194.000000000058,response,ISIC_4882389.JPG,12,ISIC_0010730.JPG,ISIC_0010730.JPG,false,0,keypress(z),500,343424.00000000006,343424.00000000006,341230,341204,341264,343464,8,400,16,,ISIC_4882389.JPG
break,html.Screen,4_65_1,2023-10-31T22:05:43.518Z,,0,,,NaN,,,,,,false,,,,343424.00000000006,343424.00000000006,,343424.00000000006,,343464,8,400,,,
break_continue,html.Screen,4_65_2,2023-10-31T22:05:43.519Z,,0,,,NaN,,,,,,false,,,,343425,343425,,343425,,343464,8,400,,,
sequence,flow.Sequence,4_65,2023-10-31T22:05:43.519Z,,0,,,2161,completion,,,,,false,,,,343425,343425,341230,341204,341264,343464,8,400,,,
trial,html.Screen,4_66_0,2023-10-31T22:05:46.462Z,,0,2,,2936,response,ISIC_7545432.JPG,11,ISIC_0063748.JPG,ISIC_7545432.JPG,false,1,keypress(m),500,346368,346367,343431,343425,343464,346431,8,400,17,,ISIC_0063748.JPG
break,html.Screen,4_66_1,2023-10-31T22:05:46.462Z,,0,,,NaN,,,,,,false,,,,346368,346368,,346368,,346431,8,400,,,
break_continue,html.Screen,4_66_2,2023-10-31T22:05:46.462Z,,0,,,NaN,,,,,,false,,,,346368,346368,,346368,,346431,8,400,,,
sequence,flow.Sequence,4_66,2023-10-31T22:05:46.462Z,,0,,,2904,completion,,,,,false,,,,346369,346368,343431,343425,343464,346431,8,400,,,
trial,html.Screen,4_67_0,2023-10-31T22:05:49.308Z,,0,2,,2816,response,ISIC_3296136.JPG,8,ISIC_2345504.JPG,ISIC_3296136.JPG,false,1,keypress(m),500,349214,349213,346397,346369,346431,349264,8,400,18,,ISIC_2345504.JPG
break,html.Screen,4_67_1,2023-10-31T22:05:49.308Z,,0,,,NaN,,,,,,false,,,,349214,349214,,349214,,349264,8,400,,,
break_continue,html.Screen,4_67_2,2023-10-31T22:05:49.309Z,,0,,,NaN,,,,,,false,,,,349215.00000000006,349215.00000000006,,349214,,349264,8,400,,,
sequence,flow.Sequence,4_67,2023-10-31T22:05:49.309Z,,0,,,2784.000000000058,completion,,,,,false,,,,349215.00000000006,349215.00000000006,346397,346369,346431,349264,8,400,,,
trial,html.Screen,4_68_0,2023-10-31T22:05:52.850Z,,0,2,,3526,response,ISIC_8806180.JPG,11,ISIC_3019509.JPG,ISIC_3019509.JPG,false,0,keypress(z),500,352756,352756,349230,349215.00000000006,349264,352797,8,400,19,,ISIC_8806180.JPG
break,html.Screen,4_68_1,2023-10-31T22:05:52.850Z,,0,,,NaN,,,,,,false,,,,352756,352756,,352756,,352797,8,400,,,
break_continue,html.Screen,4_68_2,2023-10-31T22:05:52.851Z,,0,,,NaN,,,,,,false,,,,352756,352756,,352756,,352797,8,400,,,
sequence,flow.Sequence,4_68,2023-10-31T22:05:52.851Z,,0,,,3492,completion,,,,,false,,,,352757,352756,349230,349215.00000000006,349264,352797,8,400,,,
trial,html.Screen,4_69_0,2023-10-31T22:05:55.725Z,,0,2,,2867,response,ISIC_9631669.JPG,10,ISIC_4023381.JPG,ISIC_9631669.JPG,false,1,keypress(m),500,355631,355631,352764,352757,352797,355698,8,400,20,,ISIC_4023381.JPG
break,html.Screen,4_69_1,2023-10-31T22:05:55.726Z,,0,,,NaN,,,,,,false,,,,355632,355632,,355631,,355698,8,400,,,
break_continue,html.Screen,4_69_2,2023-10-31T22:05:55.726Z,,0,,,NaN,,,,,,false,,,,355632,355632,,355632,,355698,8,400,,,
sequence,flow.Sequence,4_69,2023-10-31T22:05:55.726Z,,0,,,2835,completion,,,,,false,,,,355632,355632,352764,352757,352797,355698,8,400,,,
trial,html.Screen,4_70_0,2023-10-31T22:05:58.812Z,,0,2,,3053,response,ISIC_0000240.JPG,13,ISIC_0054332.JPG,ISIC_0054332.JPG,false,0,keypress(z),500,358718,358717,355664,355632,355698,358764,8,400,21,,ISIC_0000240.JPG
break,html.Screen,4_70_1,2023-10-31T22:05:58.812Z,,0,,,NaN,,,,,,false,,,,358718,358718,,358718,,358764,8,400,,,
break_continue,html.Screen,4_70_2,2023-10-31T22:05:58.813Z,,0,,,NaN,,,,,,false,,,,358719,358718,,358718,,358764,8,400,,,
sequence,flow.Sequence,4_70,2023-10-31T22:05:58.813Z,,0,,,3020,completion,,,,,false,,,,358719,358718,355664,355632,355698,358764,8,400,,,
trial,html.Screen,4_71_0,2023-10-31T22:06:02.937Z,,0,2,,4113,response,ISIC_3885041.JPG,17,ISIC_8463871.JPG,ISIC_3885041.JPG,false,1,keypress(m),500,362843,362843,358730,358719,358764,362897,8,400,22,,ISIC_8463871.JPG
break,html.Screen,4_71_1,2023-10-31T22:06:02.938Z,,0,,,NaN,,,,,,false,,,,362844,362844,,362843,,362897,8,400,,,
break_continue,html.Screen,4_71_2,2023-10-31T22:06:02.938Z,,0,,,NaN,,,,,,false,,,,362844,362844,,362844,,362897,8,400,,,
sequence,flow.Sequence,4_71,2023-10-31T22:06:02.939Z,,0,,,4080,completion,,,,,false,,,,362844,362844,358730,358719,358764,362897,8,400,,,
trial,html.Screen,4_72_0,2023-10-31T22:06:06.251Z,,0,2,,3293,response,ISIC_0014288.JPG,1,ISIC_7172145.JPG,ISIC_7172145.JPG,false,0,keypress(z),500,366157,366156,362863,362844,362897,366197,8,400,23,,ISIC_0014288.JPG
break,html.Screen,4_72_1,2023-10-31T22:06:06.251Z,,0,,,NaN,,,,,,false,,,,366157,366157,,366157,,366197,8,400,,,
break_continue,html.Screen,4_72_2,2023-10-31T22:06:06.252Z,,0,,,NaN,,,,,,false,,,,366157,366157,,366157,,366197,8,400,,,
sequence,flow.Sequence,4_72,2023-10-31T22:06:06.252Z,,0,,,3260,completion,,,,,false,,,,366158,366157,362863,362844,362897,366197,8,400,,,
trial,html.Screen,4_73_0,2023-10-31T22:06:09.084Z,,0,2,,2826,response,ISIC_3447331.JPG,19,ISIC_0065324.JPG,ISIC_3447331.JPG,false,1,keypress(m),500,368990,368990,366164,366158,366197,369030,8,400,24,,ISIC_0065324.JPG
break,html.Screen,4_73_1,2023-10-31T22:06:09.085Z,,0,,,NaN,,,,,,false,,,,368991,368991,,368990,,369030,8,400,,,
break_continue,html.Screen,4_73_2,2023-10-31T22:06:09.085Z,,0,,,NaN,,,,,,false,,,,368991,368991,,368991,,369030,8,400,,,
sequence,flow.Sequence,4_73,2023-10-31T22:06:09.085Z,,0,,,2794,completion,,,,,false,,,,368991,368991,366164,366158,366197,369030,8,400,,,
trial,html.Screen,4_74_0,2023-10-31T22:06:11.728Z,,0,2,,2637,response,ISIC_0025835.JPG,5,ISIC_0063871.JPG,ISIC_0025835.JPG,false,1,keypress(m),500,371634,371634,368997,368991,369030,371697,8,400,25,,ISIC_0063871.JPG
break,html.Screen,4_74_1,2023-10-31T22:06:11.729Z,,0,,,NaN,,,,,,false,,,,371634,371634,,371634,,371697,8,400,,,
break_continue,html.Screen,4_74_2,2023-10-31T22:06:11.729Z,,0,,,NaN,,,,,,false,,,,371635,371635,,371635,,371697,8,400,,,
sequence,flow.Sequence,4_74,2023-10-31T22:06:11.729Z,,0,,,2605,completion,,,,,false,,,,371635,371635,368997,368991,369030,371697,8,400,,,
trial,html.Screen,4_75_0,2023-10-31T22:06:14.846Z,,0,2,,3088,response,ISIC_0027112.JPG,2,ISIC_9694020.JPG,ISIC_0027112.JPG,false,1,keypress(m),500,374752,374752,371664,371635,371697,374797,8,400,26,,ISIC_9694020.JPG
break,html.Screen,4_75_1,2023-10-31T22:06:14.847Z,,0,,,NaN,,,,,,false,,,,374752,374752,,374752,,374797,8,400,,,
break_continue,html.Screen,4_75_2,2023-10-31T22:06:14.847Z,,0,,,NaN,,,,,,false,,,,374753,374752,,374752,,374797,8,400,,,
sequence,flow.Sequence,4_75,2023-10-31T22:06:14.847Z,,0,,,3055,completion,,,,,false,,,,374753,374752,371664,371635,371697,374797,8,400,,,
trial,html.Screen,4_76_0,2023-10-31T22:06:17.901Z,,0,2,,3043,response,ISIC_2622189.JPG,4,ISIC_0025184.JPG,ISIC_0025184.JPG,false,0,keypress(z),500,377807,377807,374764,374753,374797,377864,8,400,27,,ISIC_2622189.JPG
break,html.Screen,4_76_1,2023-10-31T22:06:17.902Z,,0,,,NaN,,,,,,false,,,,377808,377807,,377807,,377864,8,400,,,
break_continue,html.Screen,4_76_2,2023-10-31T22:06:17.902Z,,0,,,NaN,,,,,,false,,,,377808,377808,,377808,,377864,8,400,,,
sequence,flow.Sequence,4_76,2023-10-31T22:06:17.902Z,,0,,,3011,completion,,,,,false,,,,377808,377808,374764,374753,374797,377864,8,400,,,
trial,html.Screen,4_77_0,2023-10-31T22:06:20.607Z,,0,2,,2683.000000000058,response,ISIC_0016123.JPG,7,ISIC_0027022.JPG,ISIC_0027022.JPG,false,0,keypress(z),500,380513.00000000006,380513.00000000006,377830,377808,377864,380564,8,400,28,,ISIC_0016123.JPG
break,html.Screen,4_77_1,2023-10-31T22:06:20.608Z,,0,,,NaN,,,,,,false,,,,380514,380514,,380513.00000000006,,380564,8,400,,,
break_continue,html.Screen,4_77_2,2023-10-31T22:06:20.608Z,,0,,,NaN,,,,,,false,,,,380514,380514,,380514,,380564,8,400,,,
sequence,flow.Sequence,4_77,2023-10-31T22:06:20.608Z,,0,,,2650,completion,,,,,false,,,,380514,380514,377830,377808,377864,380564,8,400,,,
trial,html.Screen,4_78_0,2023-10-31T22:06:23.218Z,,0,2,,2592,response,ISIC_0009940.JPG,1,ISIC_5426854.JPG,ISIC_5426854.JPG,false,0,keypress(z),500,383123,383123,380531,380514,380564,383164,8,400,29,,ISIC_0009940.JPG
break,html.Screen,4_78_1,2023-10-31T22:06:23.218Z,,0,,,NaN,,,,,,false,,,,383124,383124,,383123,,383164,8,400,,,
break_continue,html.Screen,4_78_2,2023-10-31T22:06:23.219Z,,0,,,NaN,,,,,,false,,,,383124,383124,,383124,,383164,8,400,,,
sequence,flow.Sequence,4_78,2023-10-31T22:06:23.219Z,,0,,,2560,completion,,,,,false,,,,383124,383124,380531,380514,380564,383164,8,400,,,
trial,html.Screen,4_79_0,2023-10-31T22:06:26.004Z,,0,2,,2779,response,ISIC_0013501.JPG,2,ISIC_0014745.JPG,ISIC_0014745.JPG,false,0,keypress(z),500,385909,385909,383130,383124,383164,385963,8,400,30,,ISIC_0013501.JPG
break,html.Screen,4_79_1,2023-10-31T22:06:26.004Z,,0,,,NaN,,,,,,false,,,,385910,385910,,385910,,385963,8,400,,,
break_continue,html.Screen,4_79_2,2023-10-31T22:06:26.005Z,,0,,,NaN,,,,,,false,,,,385910,385910,,385910,,385963,8,400,,,
sequence,flow.Sequence,4_79,2023-10-31T22:06:26.005Z,,0,,,2746,completion,,,,,false,,,,385911,385910,383130,383124,383164,385963,8,400,,,
trial,html.Screen,4_80_0,2023-10-31T22:06:29.946Z,,0,2,,3921,response,ISIC_0027302.JPG,4,ISIC_5377693.JPG,ISIC_5377693.JPG,false,0,keypress(z),500,389852.00000000006,389851,385930,385911,385963,389898,8,400,31,,ISIC_0027302.JPG
break,html.Screen,4_80_1,2023-10-31T22:06:29.947Z,,0,,,NaN,,,,,,false,,,,389852.00000000006,389852.00000000006,,389852.00000000006,,389898,8,400,,,
break_continue,html.Screen,4_80_2,2023-10-31T22:06:29.947Z,,0,,,NaN,,,,,,false,,,,389852.00000000006,389852.00000000006,,389852.00000000006,,389898,8,400,,,
sequence,flow.Sequence,4_80,2023-10-31T22:06:29.947Z,,0,,,3889.000000000058,completion,,,,,false,,,,389852.00000000006,389852.00000000006,385930,385911,385963,389898,8,400,,,
trial,html.Screen,4_81_0,2023-10-31T22:06:33.792Z,,0,2,,3833.000000000058,response,ISIC_9239632.JPG,23,ISIC_4810485.JPG,ISIC_4810485.JPG,false,0,keypress(z),500,393698.00000000006,393698.00000000006,389865,389853,389898,393764,8,400,32,,ISIC_9239632.JPG
break,html.Screen,4_81_1,2023-10-31T22:06:33.793Z,,0,,,NaN,,,,,,false,,,,393698.00000000006,393698.00000000006,,393698.00000000006,,393764,8,400,,,
break_continue,html.Screen,4_81_2,2023-10-31T22:06:33.793Z,,0,,,NaN,,,,,,false,,,,393699,393699,,393699,,393764,8,400,,,
sequence,flow.Sequence,4_81,2023-10-31T22:06:33.793Z,,0,,,3801,completion,,,,,false,,,,393699,393699,389865,389853,389898,393764,8,400,,,
trial,html.Screen,4_82_0,2023-10-31T22:06:36.597Z,,0,2,,2771,response,ISIC_0010543.JPG,16,ISIC_3649113.JPG,ISIC_3649113.JPG,false,0,keypress(z),500,396502,396502,393731,393699,393764,396564,8,400,33,,ISIC_0010543.JPG
break,html.Screen,4_82_1,2023-10-31T22:06:36.598Z,,0,,,NaN,,,,,,false,,,,396503,396503,,396502,,396564,8,400,,,
break_continue,html.Screen,4_82_2,2023-10-31T22:06:36.598Z,,0,,,NaN,,,,,,false,,,,396503,396503,,396503,,396564,8,400,,,
sequence,flow.Sequence,4_82,2023-10-31T22:06:36.598Z,,0,,,2739,completion,,,,,false,,,,396503,396503,393731,393699,393764,396564,8,400,,,
trial,html.Screen,4_83_0,2023-10-31T22:06:39.172Z,,0,2,,2546,response,ISIC_6027459.JPG,3,ISIC_5576250.JPG,ISIC_5576250.JPG,false,0,keypress(z),500,399077,399077,396531,396503,396564,399131,8,400,34,,ISIC_6027459.JPG
break,html.Screen,4_83_1,2023-10-31T22:06:39.172Z,,0,,,NaN,,,,,,false,,,,399078.00000000006,399077,,399077,,399131,8,400,,,
break_continue,html.Screen,4_83_2,2023-10-31T22:06:39.172Z,,0,,,NaN,,,,,,false,,,,399078.00000000006,399078.00000000006,,399078.00000000006,,399131,8,400,,,
sequence,flow.Sequence,4_83,2023-10-31T22:06:39.173Z,,0,,,2514.000000000058,completion,,,,,false,,,,399078.00000000006,399078.00000000006,396531,396503,396564,399131,8,400,,,
trial,html.Screen,4_84_0,2023-10-31T22:06:42.130Z,,0,2,,2938,response,ISIC_0054885.JPG,8,ISIC_0966527.JPG,ISIC_0054885.JPG,false,1,keypress(m),500,402036,402035,399097,399078.00000000006,399131,402097,8,400,35,,ISIC_0966527.JPG
break,html.Screen,4_84_1,2023-10-31T22:06:42.131Z,,0,,,NaN,,,,,,false,,,,402036,402036,,402036,,402097,8,400,,,
break_continue,html.Screen,4_84_2,2023-10-31T22:06:42.131Z,,0,,,NaN,,,,,,false,,,,402036,402036,,402036,,402097,8,400,,,
sequence,flow.Sequence,4_84,2023-10-31T22:06:42.131Z,,0,,,2905,completion,,,,,false,,,,402037.00000000006,402036,399097,399078.00000000006,399131,402097,8,400,,,
trial,html.Screen,4_85_0,2023-10-31T22:06:44.900Z,,0,2,,2741,response,ISIC_0177304.JPG,19,ISIC_0543351.JPG,ISIC_0177304.JPG,false,1,keypress(m),500,404805,404805,402064,402037.00000000006,402097,404864,8,400,36,,ISIC_0543351.JPG
break,html.Screen,4_85_1,2023-10-31T22:06:44.901Z,,0,,,NaN,,,,,,false,,,,404806,404806,,404806,,404864,8,400,,,
break_continue,html.Screen,4_85_2,2023-10-31T22:06:44.901Z,,0,,,NaN,,,,,,false,,,,404806,404806,,404806,,404864,8,400,,,
sequence,flow.Sequence,4_85,2023-10-31T22:06:44.901Z,,0,,,2709,completion,,,,,false,,,,404806,404806,402064,402037.00000000006,402097,404864,8,400,,,
trial,html.Screen,4_86_0,2023-10-31T22:06:48.264Z,,0,2,,3339,response,ISIC_8796456.JPG,9,ISIC_0032722.JPG,ISIC_8796456.JPG,false,1,keypress(m),500,408169,408169,404830,404806,404864,408230,8,400,37,,ISIC_0032722.JPG
break,html.Screen,4_86_1,2023-10-31T22:06:48.264Z,,0,,,NaN,,,,,,false,,,,408170,408170,,408169,,408230,8,400,,,
break_continue,html.Screen,4_86_2,2023-10-31T22:06:48.265Z,,0,,,NaN,,,,,,false,,,,408170,408170,,408170,,408230,8,400,,,
sequence,flow.Sequence,4_86,2023-10-31T22:06:48.265Z,,0,,,3306,completion,,,,,false,,,,408170,408170,404830,404806,404864,408230,8,400,,,
trial,html.Screen,4_87_0,2023-10-31T22:06:50.925Z,,0,2,,2633,response,ISIC_0066878.JPG,6,ISIC_0028705.JPG,ISIC_0028705.JPG,false,0,keypress(z),500,410830,410830,408197,408170,408230,410897,8,400,38,,ISIC_0066878.JPG
break,html.Screen,4_87_1,2023-10-31T22:06:50.926Z,,0,,,NaN,,,,,,false,,,,410831,410831,,410830,,410897,8,400,,,
break_continue,html.Screen,4_87_2,2023-10-31T22:06:50.926Z,,0,,,NaN,,,,,,false,,,,410831,410831,,410831,,410897,8,400,,,
sequence,flow.Sequence,4_87,2023-10-31T22:06:50.926Z,,0,,,2601,completion,,,,,false,,,,410831,410831,408197,408170,408230,410897,8,400,,,
trial,html.Screen,4_88_0,2023-10-31T22:06:53.664Z,,0,2,,2705,response,ISIC_0030660.JPG,15,ISIC_1399572.JPG,ISIC_1399572.JPG,false,0,keypress(z),500,413569,413569,410864,410831,410897,413629,8,400,39,,ISIC_0030660.JPG
break,html.Screen,4_88_1,2023-10-31T22:06:53.664Z,,0,,,NaN,,,,,,false,,,,413569,413569,,413569,,413629,8,400,,,
break_continue,html.Screen,4_88_2,2023-10-31T22:06:53.664Z,,0,,,NaN,,,,,,false,,,,413570,413570,,413570,,413629,8,400,,,
sequence,flow.Sequence,4_88,2023-10-31T22:06:53.665Z,,0,,,2673,completion,,,,,false,,,,413570,413570,410864,410831,410897,413629,8,400,,,
trial,html.Screen,4_89_0,2023-10-31T22:06:56.578Z,,0,2,,2886,response,ISIC_4445729.JPG,6,ISIC_8794567.JPG,ISIC_8794567.JPG,false,0,keypress(z),500,416483,416483,413597,413570,413629,416530,8,400,40,,ISIC_4445729.JPG
break,html.Screen,4_89_1,2023-10-31T22:06:56.578Z,,0,,,NaN,,,,,,false,,,,416483,416483,,416483,,416530,8,400,,,
break_continue,html.Screen,4_89_2,2023-10-31T22:06:56.578Z,,0,,,NaN,,,,,,false,,,,416484,416484,,416484,,416530,8,400,,,
sequence,flow.Sequence,4_89,2023-10-31T22:06:56.579Z,,0,,,2855,completion,,,,,false,,,,416484,416484,413597,413570,413629,416530,8,400,,,
trial,html.Screen,4_90_0,2023-10-31T22:06:59.048Z,,0,2,,2456.000000000058,response,ISIC_2365588.JPG,2,ISIC_0027276.JPG,ISIC_0027276.JPG,false,0,keypress(z),500,418953.00000000006,418953.00000000006,416497,416484,416530,418996,8,400,41,,ISIC_2365588.JPG
break,html.Screen,4_90_1,2023-10-31T22:06:59.049Z,,0,,,NaN,,,,,,false,,,,418954,418954,,418953.00000000006,,418996,8,400,,,
break_continue,html.Screen,4_90_2,2023-10-31T22:06:59.049Z,,0,,,NaN,,,,,,false,,,,418954,418954,,418954,,418996,8,400,,,
sequence,flow.Sequence,4_90,2023-10-31T22:06:59.049Z,,0,,,2424,completion,,,,,false,,,,418954,418954,416497,416484,416530,418996,8,400,,,
trial,html.Screen,4_91_0,2023-10-31T22:07:01.968Z,,0,2,,2910,response,ISIC_4838916.JPG,21,ISIC_9713706.JPG,ISIC_9713706.JPG,false,0,keypress(z),500,421873,421873,418963,418954,418996,421930,8,400,42,,ISIC_4838916.JPG
break,html.Screen,4_91_1,2023-10-31T22:07:01.969Z,,0,,,NaN,,,,,,false,,,,421874,421874,,421873,,421930,8,400,,,
break_continue,html.Screen,4_91_2,2023-10-31T22:07:01.969Z,,0,,,NaN,,,,,,false,,,,421874,421874,,421874,,421930,8,400,,,
sequence,flow.Sequence,4_91,2023-10-31T22:07:01.969Z,,0,,,2878,completion,,,,,false,,,,421874,421874,418963,418954,418996,421930,8,400,,,
trial,html.Screen,4_92_0,2023-10-31T22:07:06.369Z,,0,2,,4378,response,ISIC_9395707.JPG,12,ISIC_0028557.JPG,ISIC_9395707.JPG,false,1,keypress(m),500,426274,426274,421896,421874,421930,426330,8,400,43,,ISIC_0028557.JPG
break,html.Screen,4_92_1,2023-10-31T22:07:06.370Z,,0,,,NaN,,,,,,false,,,,426275.00000000006,426275.00000000006,,426274,,426330,8,400,,,
break_continue,html.Screen,4_92_2,2023-10-31T22:07:06.370Z,,0,,,NaN,,,,,,false,,,,426275.00000000006,426275.00000000006,,426275.00000000006,,426330,8,400,,,
sequence,flow.Sequence,4_92,2023-10-31T22:07:06.370Z,,0,,,4345.000000000058,completion,,,,,false,,,,426275.00000000006,426275.00000000006,421896,421874,421930,426330,8,400,,,
trial,html.Screen,4_93_0,2023-10-31T22:07:09.118Z,,0,2,,2727,response,ISIC_0067338.JPG,21,ISIC_0073135.JPG,ISIC_0067338.JPG,false,1,keypress(m),500,429023,429023,426296,426275.00000000006,426330,429063,8,400,44,,ISIC_0073135.JPG
break,html.Screen,4_93_1,2023-10-31T22:07:09.118Z,,0,,,NaN,,,,,,false,,,,429023,429023,,429023,,429063,8,400,,,
break_continue,html.Screen,4_93_2,2023-10-31T22:07:09.119Z,,0,,,NaN,,,,,,false,,,,429024,429023,,429023,,429063,8,400,,,
sequence,flow.Sequence,4_93,2023-10-31T22:07:09.119Z,,0,,,2693,completion,,,,,false,,,,429024,429023,426296,426275.00000000006,426330,429063,8,400,,,
trial,html.Screen,4_94_0,2023-10-31T22:07:12.332Z,,0,2,,3207,response,ISIC_6131393.JPG,2,ISIC_9974613.JPG,ISIC_6131393.JPG,false,1,keypress(m),500,432237,432237,429030,429024,429063,432296,8,400,45,,ISIC_9974613.JPG
break,html.Screen,4_94_1,2023-10-31T22:07:12.333Z,,0,,,NaN,,,,,,false,,,,432238,432237,,432237,,432296,8,400,,,
break_continue,html.Screen,4_94_2,2023-10-31T22:07:12.333Z,,0,,,NaN,,,,,,false,,,,432238,432238,,432238,,432296,8,400,,,
sequence,flow.Sequence,4_94,2023-10-31T22:07:12.333Z,,0,,,3175,completion,,,,,false,,,,432238,432238,429030,429024,429063,432296,8,400,,,
trial,html.Screen,4_95_0,2023-10-31T22:07:15.317Z,,0,2,,2958,response,ISIC_0034216.JPG,29,ISIC_0013365.JPG,ISIC_0013365.JPG,false,0,keypress(z),500,435221,435221,432263,432238,432296,435263,8,400,46,,ISIC_0034216.JPG
break,html.Screen,4_95_1,2023-10-31T22:07:15.317Z,,0,,,NaN,,,,,,false,,,,435222.00000000006,435222.00000000006,,435222.00000000006,,435263,8,400,,,
break_continue,html.Screen,4_95_2,2023-10-31T22:07:15.317Z,,0,,,NaN,,,,,,false,,,,435222.00000000006,435222.00000000006,,435222.00000000006,,435263,8,400,,,
sequence,flow.Sequence,4_95,2023-10-31T22:07:15.317Z,,0,,,2926.000000000058,completion,,,,,false,,,,435222.00000000006,435222.00000000006,432263,432238,432296,435263,8,400,,,
trial,html.Screen,4_96_0,2023-10-31T22:07:19.041Z,,0,2,,3716,response,ISIC_7651944.JPG,13,ISIC_7664137.JPG,ISIC_7664137.JPG,false,0,keypress(z),500,438946,438946,435230,435222.00000000006,435263,438996,8,400,47,,ISIC_7651944.JPG
break,html.Screen,4_96_1,2023-10-31T22:07:19.042Z,,0,,,NaN,,,,,,false,,,,438947,438947,,438946,,438996,8,400,,,
break_continue,html.Screen,4_96_2,2023-10-31T22:07:19.042Z,,0,,,NaN,,,,,,false,,,,438947,438947,,438947,,438996,8,400,,,
sequence,flow.Sequence,4_96,2023-10-31T22:07:19.042Z,,0,,,3684,completion,,,,,false,,,,438947,438947,435230,435222.00000000006,435263,438996,8,400,,,
trial,html.Screen,4_97_0,2023-10-31T22:07:22.130Z,,0,2,,3072,response,ISIC_0031598.JPG,8,ISIC_0030238.JPG,ISIC_0031598.JPG,false,1,keypress(m),500,442035,442035,438963,438947,438996,442096,8,400,48,,ISIC_0030238.JPG
break,html.Screen,4_97_1,2023-10-31T22:07:22.131Z,,0,,,NaN,,,,,,false,,,,442036,442035,,442035,,442096,8,400,,,
break_continue,html.Screen,4_97_2,2023-10-31T22:07:22.131Z,,0,,,NaN,,,,,,false,,,,442036,442036,,442036,,442096,8,400,,,
sequence,flow.Sequence,4_97,2023-10-31T22:07:22.131Z,,0,,,3040,completion,,,,,false,,,,442036,442036,438963,438947,438996,442096,8,400,,,
trial,html.Screen,4_98_0,2023-10-31T22:07:26.307Z,,0,2,,4149,response,ISIC_6541615.JPG,10,ISIC_7312977.JPG,ISIC_7312977.JPG,false,0,keypress(z),500,446212,446212,442063,442036,442096,446263,8,400,49,,ISIC_6541615.JPG
break,html.Screen,4_98_1,2023-10-31T22:07:26.308Z,,0,,,NaN,,,,,,false,,,,446213,446213,,446212,,446263,8,400,,,
break_continue,html.Screen,4_98_2,2023-10-31T22:07:26.308Z,,0,,,NaN,,,,,,false,,,,446213,446213,,446213,,446263,8,400,,,
sequence,flow.Sequence,4_98,2023-10-31T22:07:26.308Z,,0,,,4117,completion,,,,,false,,,,446213,446213,442063,442036,442096,446263,8,400,,,
trial,html.Screen,4_99_0,2023-10-31T22:07:29.427Z,,0,2,,3101,response,ISIC_7492530.JPG,2,ISIC_9934037.JPG,ISIC_7492530.JPG,false,1,keypress(m),500,449331,449331,446230,446213,446263,449396,8,400,50,,ISIC_9934037.JPG
break,html.Screen,4_99_1,2023-10-31T22:07:39.458Z,,0,,,10000,timeout,,,,,false,,,,459362,459362,449362,449331,449396,459396,8,400,,,
break_continue,html.Screen,4_99_2,2023-10-31T22:07:41.138Z,,0,,,1664,response,,,,,false,continue,keypress(Space),,461043,461026,459362,459362,459396,461096,8,400,,,
sequence,flow.Sequence,4_99,2023-10-31T22:07:41.138Z,,0,,,14763,completion,,,,,false,,,,461043,461026,446230,446213,446263,461096,8,400,,,
trial,html.Screen,4_100_0,2023-10-31T22:07:44.607Z,,0,3,,3449,response,ISIC_8150108.JPG,23,ISIC_8630818.JPG,ISIC_8630818.JPG,false,0,keypress(z),500,464512,464511,461062,461043,461096,464563,8,400,1,,ISIC_8150108.JPG
break,html.Screen,4_100_1,2023-10-31T22:07:44.608Z,,0,,,NaN,,,,,,false,,,,464512,464512,,464512,,464563,8,400,,,
break_continue,html.Screen,4_100_2,2023-10-31T22:07:44.608Z,,0,,,NaN,,,,,,false,,,,464512,464512,,464512,,464563,8,400,,,
sequence,flow.Sequence,4_100,2023-10-31T22:07:44.608Z,,0,,,3416,completion,,,,,false,,,,464513.00000000006,464512,461062,461043,461096,464563,8,400,,,
trial,html.Screen,4_101_0,2023-10-31T22:07:47.731Z,,0,3,,3106,response,ISIC_0055601.JPG,3,ISIC_4640181.JPG,ISIC_4640181.JPG,false,0,keypress(z),500,467636,467636,464530,464513.00000000006,464563,467695,8,400,2,,ISIC_0055601.JPG
break,html.Screen,4_101_1,2023-10-31T22:07:47.732Z,,0,,,NaN,,,,,,false,,,,467637,467637,,467636,,467695,8,400,,,
break_continue,html.Screen,4_101_2,2023-10-31T22:07:47.732Z,,0,,,NaN,,,,,,false,,,,467637,467637,,467637,,467695,8,400,,,
sequence,flow.Sequence,4_101,2023-10-31T22:07:47.733Z,,0,,,3074,completion,,,,,false,,,,467637,467637,464530,464513.00000000006,464563,467695,8,400,,,
trial,html.Screen,4_102_0,2023-10-31T22:07:51.317Z,,0,3,,3559.000000000058,response,ISIC_1348538.JPG,28,ISIC_0448195.JPG,ISIC_1348538.JPG,false,1,keypress(m),500,471222.00000000006,471222.00000000006,467663,467637,467695,471262,8,400,3,,ISIC_0448195.JPG
break,html.Screen,4_102_1,2023-10-31T22:07:51.318Z,,0,,,NaN,,,,,,false,,,,471222.00000000006,471222.00000000006,,471222.00000000006,,471262,8,400,,,
break_continue,html.Screen,4_102_2,2023-10-31T22:07:51.318Z,,0,,,NaN,,,,,,false,,,,471223,471223,,471223,,471262,8,400,,,
sequence,flow.Sequence,4_102,2023-10-31T22:07:51.318Z,,0,,,3528,completion,,,,,false,,,,471223,471223,467663,467637,467695,471262,8,400,,,
trial,html.Screen,4_103_0,2023-10-31T22:07:54.160Z,,0,3,,2835,response,ISIC_0011691.JPG,12,ISIC_0000176.JPG,ISIC_0000176.JPG,false,0,keypress(z),500,474064,474064,471229,471223,471262,474130,8,400,4,,ISIC_0011691.JPG
break,html.Screen,4_103_1,2023-10-31T22:07:54.161Z,,0,,,NaN,,,,,,false,,,,474065,474065,,474064,,474130,8,400,,,
break_continue,html.Screen,4_103_2,2023-10-31T22:07:54.161Z,,0,,,NaN,,,,,,false,,,,474066.00000000006,474065,,474065,,474130,8,400,,,
sequence,flow.Sequence,4_103,2023-10-31T22:07:54.161Z,,0,,,2803,completion,,,,,false,,,,474066.00000000006,474065,471229,471223,471262,474130,8,400,,,
trial,html.Screen,4_104_0,2023-10-31T22:07:56.819Z,,0,3,,2627,response,ISIC_0026470.JPG,19,ISIC_9913573.JPG,ISIC_9913573.JPG,false,0,keypress(z),500,476723,476723,474096,474066.00000000006,474130,476763,8,400,5,,ISIC_0026470.JPG
break,html.Screen,4_104_1,2023-10-31T22:07:56.820Z,,0,,,NaN,,,,,,false,,,,476724,476724,,476724,,476763,8,400,,,
break_continue,html.Screen,4_104_2,2023-10-31T22:07:56.820Z,,0,,,NaN,,,,,,false,,,,476725,476725,,476724,,476763,8,400,,,
sequence,flow.Sequence,4_104,2023-10-31T22:07:56.820Z,,0,,,2595,completion,,,,,false,,,,476725,476725,474096,474066.00000000006,474130,476763,8,400,,,
trial,html.Screen,4_105_0,2023-10-31T22:07:59.728Z,,0,3,,2903,response,ISIC_1578253.JPG,0,ISIC_1949126.JPG,ISIC_1949126.JPG,false,0,keypress(z),500,479633.00000000006,479632,476729,476725,476763,479695,8,400,6,,ISIC_1578253.JPG
break,html.Screen,4_105_1,2023-10-31T22:07:59.729Z,,0,,,NaN,,,,,,false,,,,479633.00000000006,479633.00000000006,,479633.00000000006,,479695,8,400,,,
break_continue,html.Screen,4_105_2,2023-10-31T22:07:59.729Z,,0,,,NaN,,,,,,false,,,,479633.00000000006,479633.00000000006,,479633.00000000006,,479695,8,400,,,
sequence,flow.Sequence,4_105,2023-10-31T22:07:59.729Z,,0,,,2870.000000000058,completion,,,,,false,,,,479633.00000000006,479633.00000000006,476729,476725,476763,479695,8,400,,,
trial,html.Screen,4_106_0,2023-10-31T22:08:02.917Z,,0,3,,3158,response,ISIC_0026993.JPG,2,ISIC_0065346.JPG,ISIC_0026993.JPG,false,1,keypress(m),500,482821,482821,479663,479633.00000000006,479695,482862,8,400,7,,ISIC_0065346.JPG
break,html.Screen,4_106_1,2023-10-31T22:08:02.918Z,,0,,,NaN,,,,,,false,,,,482822,482822,,482821,,482862,8,400,,,
break_continue,html.Screen,4_106_2,2023-10-31T22:08:02.918Z,,0,,,NaN,,,,,,false,,,,482822,482822,,482822,,482862,8,400,,,
sequence,flow.Sequence,4_106,2023-10-31T22:08:02.918Z,,0,,,3127,completion,,,,,false,,,,482822,482822,479663,479633.00000000006,479695,482862,8,400,,,
trial,html.Screen,4_107_0,2023-10-31T22:08:05.873Z,,0,3,,2948,response,ISIC_0069638.JPG,23,ISIC_0029481.JPG,ISIC_0029481.JPG,false,0,keypress(z),500,485778,485777,482829,482822,482862,485829,8,400,8,,ISIC_0069638.JPG
break,html.Screen,4_107_1,2023-10-31T22:08:05.874Z,,0,,,NaN,,,,,,false,,,,485778,485778,,485778,,485829,8,400,,,
break_continue,html.Screen,4_107_2,2023-10-31T22:08:05.874Z,,0,,,NaN,,,,,,false,,,,485778,485778,,485778,,485829,8,400,,,
sequence,flow.Sequence,4_107,2023-10-31T22:08:05.874Z,,0,,,2916,completion,,,,,false,,,,485779,485778,482829,482822,482862,485829,8,400,,,
trial,html.Screen,4_108_0,2023-10-31T22:08:08.577Z,,0,3,,2684,response,ISIC_0010938.JPG,7,ISIC_0024894.JPG,ISIC_0024894.JPG,false,0,keypress(z),500,488481,488481,485797,485779,485829,488529,8,400,9,,ISIC_0010938.JPG
break,html.Screen,4_108_1,2023-10-31T22:08:08.578Z,,0,,,NaN,,,,,,false,,,,488482,488482,,488482,,488529,8,400,,,
break_continue,html.Screen,4_108_2,2023-10-31T22:08:08.578Z,,0,,,NaN,,,,,,false,,,,488482,488482,,488482,,488529,8,400,,,
sequence,flow.Sequence,4_108,2023-10-31T22:08:08.578Z,,0,,,2653,completion,,,,,false,,,,488482,488482,485797,485779,485829,488529,8,400,,,
trial,html.Screen,4_109_0,2023-10-31T22:08:12.233Z,,0,3,,3641,response,ISIC_6362735.JPG,3,ISIC_4715386.JPG,ISIC_6362735.JPG,false,1,keypress(m),500,492137,492137,488496,488483,488529,492195,8,400,10,,ISIC_4715386.JPG
break,html.Screen,4_109_1,2023-10-31T22:08:12.234Z,,0,,,NaN,,,,,,false,,,,492138.00000000006,492138.00000000006,,492137,,492195,8,400,,,
break_continue,html.Screen,4_109_2,2023-10-31T22:08:12.234Z,,0,,,NaN,,,,,,false,,,,492138.00000000006,492138.00000000006,,492138.00000000006,,492195,8,400,,,
sequence,flow.Sequence,4_109,2023-10-31T22:08:12.234Z,,0,,,3609.000000000058,completion,,,,,false,,,,492138.00000000006,492138.00000000006,488496,488483,488529,492195,8,400,,,
trial,html.Screen,4_110_0,2023-10-31T22:08:16.429Z,,0,3,,4170,response,ISIC_7127760.JPG,6,ISIC_9244047.JPG,ISIC_9244047.JPG,false,0,keypress(z),500,496333,496333,492163,492138.00000000006,492195,496395,8,400,11,,ISIC_7127760.JPG
break,html.Screen,4_110_1,2023-10-31T22:08:16.430Z,,0,,,NaN,,,,,,false,,,,496334,496334,,496333,,496395,8,400,,,
break_continue,html.Screen,4_110_2,2023-10-31T22:08:16.430Z,,0,,,NaN,,,,,,false,,,,496334,496334,,496334,,496395,8,400,,,
sequence,flow.Sequence,4_110,2023-10-31T22:08:16.430Z,,0,,,4139,completion,,,,,false,,,,496334,496334,492163,492138.00000000006,492195,496395,8,400,,,
trial,html.Screen,4_111_0,2023-10-31T22:08:19.793Z,,0,3,,3335,response,ISIC_0068696.JPG,12,ISIC_3084322.JPG,ISIC_3084322.JPG,false,0,keypress(z),500,499697,499697,496362,496334,496395,499762,8,400,12,,ISIC_0068696.JPG
break,html.Screen,4_111_1,2023-10-31T22:08:19.794Z,,0,,,NaN,,,,,,false,,,,499698.00000000006,499698.00000000006,,499697,,499762,8,400,,,
break_continue,html.Screen,4_111_2,2023-10-31T22:08:19.794Z,,0,,,NaN,,,,,,false,,,,499698.00000000006,499698.00000000006,,499698.00000000006,,499762,8,400,,,
sequence,flow.Sequence,4_111,2023-10-31T22:08:19.794Z,,0,,,3303.000000000058,completion,,,,,false,,,,499698.00000000006,499698.00000000006,496362,496334,496395,499762,8,400,,,
trial,html.Screen,4_112_0,2023-10-31T22:08:22.468Z,,0,3,,2643,response,ISIC_0027590.JPG,8,ISIC_5797404.JPG,ISIC_5797404.JPG,false,0,keypress(z),500,502373,502372,499729,499698.00000000006,499762,502429,8,400,13,,ISIC_0027590.JPG
break,html.Screen,4_112_1,2023-10-31T22:08:22.469Z,,0,,,NaN,,,,,,false,,,,502373,502373,,502373,,502429,8,400,,,
break_continue,html.Screen,4_112_2,2023-10-31T22:08:22.469Z,,0,,,NaN,,,,,,false,,,,502373,502373,,502373,,502429,8,400,,,
sequence,flow.Sequence,4_112,2023-10-31T22:08:22.469Z,,0,,,2611,completion,,,,,false,,,,502373,502373,499729,499698.00000000006,499762,502429,8,400,,,
trial,html.Screen,4_113_0,2023-10-31T22:08:25.218Z,,0,3,,2726.000000000058,response,ISIC_0059216.JPG,3,ISIC_0028412.JPG,ISIC_0028412.JPG,false,0,keypress(z),500,505122,505121.00000000006,502395,502373,502429,505161,8,400,14,,ISIC_0059216.JPG
break,html.Screen,4_113_1,2023-10-31T22:08:25.219Z,,0,,,NaN,,,,,,false,,,,505123,505123,,505122,,505161,8,400,,,
break_continue,html.Screen,4_113_2,2023-10-31T22:08:25.220Z,,0,,,NaN,,,,,,false,,,,505124,505123,,505123,,505161,8,400,,,
sequence,flow.Sequence,4_113,2023-10-31T22:08:25.220Z,,0,,,2694,completion,,,,,false,,,,505124,505123,502395,502373,502429,505161,8,400,,,
trial,html.Screen,4_114_0,2023-10-31T22:08:27.855Z,,0,3,,2630,response,ISIC_0066483.JPG,12,ISIC_0363130.JPG,ISIC_0363130.JPG,false,0,keypress(z),500,507759,507759,505129,505124,505161,507796,8,400,15,,ISIC_0066483.JPG
break,html.Screen,4_114_1,2023-10-31T22:08:27.855Z,,0,,,NaN,,,,,,false,,,,507759,507759,,507759,,507796,8,400,,,
break_continue,html.Screen,4_114_2,2023-10-31T22:08:27.856Z,,0,,,NaN,,,,,,false,,,,507760,507760,,507760,,507796,8,400,,,
sequence,flow.Sequence,4_114,2023-10-31T22:08:27.856Z,,0,,,2599,completion,,,,,false,,,,507760,507760,505129,505124,505161,507796,8,400,,,
trial,html.Screen,4_115_0,2023-10-31T22:08:30.561Z,,0,3,,2702,response,ISIC_7306131.JPG,17,ISIC_0025035.JPG,ISIC_7306131.JPG,false,1,keypress(m),500,510464,510464,507762,507760,507796,510529,8,400,16,,ISIC_0025035.JPG
break,html.Screen,4_115_1,2023-10-31T22:08:30.561Z,,0,,,NaN,,,,,,false,,,,510465.00000000006,510465.00000000006,,510465.00000000006,,510529,8,400,,,
break_continue,html.Screen,4_115_2,2023-10-31T22:08:30.561Z,,0,,,NaN,,,,,,false,,,,510465.00000000006,510465.00000000006,,510465.00000000006,,510529,8,400,,,
sequence,flow.Sequence,4_115,2023-10-31T22:08:30.561Z,,0,,,2669.000000000058,completion,,,,,false,,,,510465.00000000006,510465.00000000006,507762,507760,507796,510529,8,400,,,
trial,html.Screen,4_116_0,2023-10-31T22:08:33.952Z,,0,3,,3361,response,ISIC_0561634.JPG,11,ISIC_0031389.JPG,ISIC_0561634.JPG,false,1,keypress(m),500,513856,513856,510495,510465.00000000006,510529,513895,8,400,17,,ISIC_0031389.JPG
break,html.Screen,4_116_1,2023-10-31T22:08:33.953Z,,0,,,NaN,,,,,,false,,,,513857,513857,,513856,,513895,8,400,,,
break_continue,html.Screen,4_116_2,2023-10-31T22:08:33.954Z,,0,,,NaN,,,,,,false,,,,513858.00000000006,513858.00000000006,,513858.00000000006,,513895,8,400,,,
sequence,flow.Sequence,4_116,2023-10-31T22:08:33.954Z,,0,,,3329.000000000058,completion,,,,,false,,,,513858.00000000006,513858.00000000006,510495,510465.00000000006,510529,513895,8,400,,,
trial,html.Screen,4_117_0,2023-10-31T22:08:37.121Z,,0,3,,3163,response,ISIC_9498942.JPG,7,ISIC_0062471.JPG,ISIC_9498942.JPG,false,1,keypress(m),500,517025,517025,513862,513858.00000000006,513895,517062,8,400,18,,ISIC_0062471.JPG
break,html.Screen,4_117_1,2023-10-31T22:08:37.122Z,,0,,,NaN,,,,,,false,,,,517026.00000000006,517025,,517025,,517062,8,400,,,
break_continue,html.Screen,4_117_2,2023-10-31T22:08:37.122Z,,0,,,NaN,,,,,,false,,,,517026.00000000006,517026.00000000006,,517026.00000000006,,517062,8,400,,,
sequence,flow.Sequence,4_117,2023-10-31T22:08:37.122Z,,0,,,3131.000000000058,completion,,,,,false,,,,517026.00000000006,517026.00000000006,513862,513858.00000000006,513895,517062,8,400,,,
trial,html.Screen,4_118_0,2023-10-31T22:08:39.952Z,,0,3,,2827,response,ISIC_0030852.JPG,20,ISIC_0011077.JPG,ISIC_0011077.JPG,false,0,keypress(z),500,519856,519856,517029,517026.00000000006,517062,519896,8,400,19,,ISIC_0030852.JPG
break,html.Screen,4_118_1,2023-10-31T22:08:39.953Z,,0,,,NaN,,,,,,false,,,,519857,519856,,519856,,519896,8,400,,,
break_continue,html.Screen,4_118_2,2023-10-31T22:08:39.953Z,,0,,,NaN,,,,,,false,,,,519857,519857,,519857,,519896,8,400,,,
sequence,flow.Sequence,4_118,2023-10-31T22:08:39.953Z,,0,,,2795,completion,,,,,false,,,,519857,519857,517029,517026.00000000006,517062,519896,8,400,,,
trial,html.Screen,4_119_0,2023-10-31T22:08:42.683Z,,0,3,,2725,response,ISIC_3319229.JPG,8,ISIC_0069105.JPG,ISIC_0069105.JPG,false,0,keypress(z),500,522587,522587,519862,519857,519896,522629,8,400,20,,ISIC_3319229.JPG
break,html.Screen,4_119_1,2023-10-31T22:08:42.684Z,,0,,,NaN,,,,,,false,,,,522587.99999999994,522587.99999999994,,522587,,522629,8,400,,,
break_continue,html.Screen,4_119_2,2023-10-31T22:08:42.684Z,,0,,,NaN,,,,,,false,,,,522587.99999999994,522587.99999999994,,522587.99999999994,,522629,8,400,,,
sequence,flow.Sequence,4_119,2023-10-31T22:08:42.684Z,,0,,,2691.999999999942,completion,,,,,false,,,,522587.99999999994,522587.99999999994,519862,519857,519896,522629,8,400,,,
trial,html.Screen,4_120_0,2023-10-31T22:08:46.147Z,,0,3,,3456,response,ISIC_3984167.JPG,7,ISIC_0030703.JPG,ISIC_0030703.JPG,false,0,keypress(z),500,526051,526051,522595,522587.99999999994,522629,526095,8,400,21,,ISIC_3984167.JPG
break,html.Screen,4_120_1,2023-10-31T22:08:46.148Z,,0,,,NaN,,,,,,false,,,,526052,526051,,526051,,526095,8,400,,,
break_continue,html.Screen,4_120_2,2023-10-31T22:08:46.148Z,,0,,,NaN,,,,,,false,,,,526052,526052,,526052,,526095,8,400,,,
sequence,flow.Sequence,4_120,2023-10-31T22:08:46.148Z,,0,,,3423,completion,,,,,false,,,,526052,526052,522595,522587.99999999994,522629,526095,8,400,,,
trial,html.Screen,4_121_0,2023-10-31T22:08:49.578Z,,0,3,,3419,response,ISIC_4949672.JPG,23,ISIC_8423248.JPG,ISIC_8423248.JPG,false,0,keypress(z),500,529481,529481,526062,526052,526095,529528,8,400,22,,ISIC_4949672.JPG
break,html.Screen,4_121_1,2023-10-31T22:08:49.578Z,,0,,,NaN,,,,,,false,,,,529482,529482,,529482,,529528,8,400,,,
break_continue,html.Screen,4_121_2,2023-10-31T22:08:49.579Z,,0,,,NaN,,,,,,false,,,,529482,529482,,529482,,529528,8,400,,,
sequence,flow.Sequence,4_121,2023-10-31T22:08:49.579Z,,0,,,3387,completion,,,,,false,,,,529482,529482,526062,526052,526095,529528,8,400,,,
trial,html.Screen,4_122_0,2023-10-31T22:08:53.061Z,,0,3,,3469,response,ISIC_0064964.JPG,14,ISIC_0034052.JPG,ISIC_0034052.JPG,false,0,keypress(z),500,532964,532964,529495,529483.0000000001,529528,533028,8,400,23,,ISIC_0064964.JPG
break,html.Screen,4_122_1,2023-10-31T22:08:53.061Z,,0,,,NaN,,,,,,false,,,,532965,532965,,532964,,533028,8,400,,,
break_continue,html.Screen,4_122_2,2023-10-31T22:08:53.062Z,,0,,,NaN,,,,,,false,,,,532965,532965,,532965,,533028,8,400,,,
sequence,flow.Sequence,4_122,2023-10-31T22:08:53.062Z,,0,,,3437,completion,,,,,false,,,,532966,532965,529495,529482,529528,533028,8,400,,,
trial,html.Screen,4_123_0,2023-10-31T22:08:58.862Z,,0,3,,5770,response,ISIC_0004509.JPG,11,ISIC_6909624.JPG,ISIC_0004509.JPG,false,1,keypress(m),500,538765,538765,532995,532966,533028,538828,8,400,24,,ISIC_6909624.JPG
break,html.Screen,4_123_1,2023-10-31T22:08:58.862Z,,0,,,NaN,,,,,,false,,,,538766,538766,,538765,,538828,8,400,,,
break_continue,html.Screen,4_123_2,2023-10-31T22:08:58.863Z,,0,,,NaN,,,,,,false,,,,538766,538766,,538766,,538828,8,400,,,
sequence,flow.Sequence,4_123,2023-10-31T22:08:58.863Z,,0,,,5738,completion,,,,,false,,,,538766,538766,532995,532966,533028,538828,8,400,,,
trial,html.Screen,4_124_0,2023-10-31T22:09:02.189Z,,0,3,,3297,response,ISIC_0070210.JPG,0,ISIC_0027552.JPG,ISIC_0027552.JPG,false,0,keypress(z),500,542093,542092,538795,538766,538828,542162,8,400,25,,ISIC_0070210.JPG
break,html.Screen,4_124_1,2023-10-31T22:09:02.190Z,,0,,,NaN,,,,,,false,,,,542093,542093,,542093,,542162,8,400,,,
break_continue,html.Screen,4_124_2,2023-10-31T22:09:02.190Z,,0,,,NaN,,,,,,false,,,,542093,542093,,542093,,542162,8,400,,,
sequence,flow.Sequence,4_124,2023-10-31T22:09:02.190Z,,0,,,3265,completion,,,,,false,,,,542093,542093,538795,538766,538828,542162,8,400,,,
trial,html.Screen,4_125_0,2023-10-31T22:09:05.977Z,,0,3,,3752,response,ISIC_5874357.JPG,3,ISIC_7927525.JPG,ISIC_5874357.JPG,false,1,keypress(m),500,545880,545880,542128,542093,542162,545928,8,400,26,,ISIC_7927525.JPG
break,html.Screen,4_125_1,2023-10-31T22:09:05.977Z,,0,,,NaN,,,,,,false,,,,545881,545880,,545880,,545928,8,400,,,
break_continue,html.Screen,4_125_2,2023-10-31T22:09:05.977Z,,0,,,NaN,,,,,,false,,,,545881,545881,,545881,,545928,8,400,,,
sequence,flow.Sequence,4_125,2023-10-31T22:09:05.977Z,,0,,,3719,completion,,,,,false,,,,545881,545881,542128,542093,542162,545928,8,400,,,
trial,html.Screen,4_126_0,2023-10-31T22:09:08.859Z,,0,3,,2867,response,ISIC_1784255.JPG,25,ISIC_6393611.JPG,ISIC_1784255.JPG,false,1,keypress(m),500,548763,548762,545895,545881,545928,548828,8,400,27,,ISIC_6393611.JPG
break,html.Screen,4_126_1,2023-10-31T22:09:08.860Z,,0,,,NaN,,,,,,false,,,,548763,548763,,548763,,548828,8,400,,,
break_continue,html.Screen,4_126_2,2023-10-31T22:09:08.860Z,,0,,,NaN,,,,,,false,,,,548763,548763,,548763,,548828,8,400,,,
sequence,flow.Sequence,4_126,2023-10-31T22:09:08.860Z,,0,,,2835,completion,,,,,false,,,,548763,548763,545895,545881,545928,548828,8,400,,,
trial,html.Screen,4_127_0,2023-10-31T22:09:13.288Z,,0,3,,4398,response,ISIC_7167479.JPG,23,ISIC_1296490.JPG,ISIC_1296490.JPG,false,0,keypress(z),500,553192,553192,548794,548763,548828,553228,8,400,28,,ISIC_7167479.JPG
break,html.Screen,4_127_1,2023-10-31T22:09:13.289Z,,0,,,NaN,,,,,,false,,,,553192,553192,,553192,,553228,8,400,,,
break_continue,html.Screen,4_127_2,2023-10-31T22:09:13.289Z,,0,,,NaN,,,,,,false,,,,553193,553193,,553192,,553228,8,400,,,
sequence,flow.Sequence,4_127,2023-10-31T22:09:13.289Z,,0,,,4365,completion,,,,,false,,,,553193,553193,548794,548763,548828,553228,8,400,,,
trial,html.Screen,4_128_0,2023-10-31T22:09:16.833Z,,0,3,,3543,response,ISIC_0061077.JPG,3,ISIC_2030997.JPG,ISIC_2030997.JPG,false,0,keypress(z),500,556737,556737,553194,553193,553228,556794,8,400,29,,ISIC_0061077.JPG
break,html.Screen,4_128_1,2023-10-31T22:09:16.834Z,,0,,,NaN,,,,,,false,,,,556737,556737,,556737,,556794,8,400,,,
break_continue,html.Screen,4_128_2,2023-10-31T22:09:16.834Z,,0,,,NaN,,,,,,false,,,,556738,556737,,556737,,556794,8,400,,,
sequence,flow.Sequence,4_128,2023-10-31T22:09:16.834Z,,0,,,3509,completion,,,,,false,,,,556738,556737,553194,553193,553228,556794,8,400,,,
trial,html.Screen,4_129_0,2023-10-31T22:09:20.072Z,,0,3,,3213,response,ISIC_0029189.JPG,27,ISIC_8033373.JPG,ISIC_8033373.JPG,false,0,keypress(z),500,559975,559975,556762,556738,556794,560028,8,400,30,,ISIC_0029189.JPG
break,html.Screen,4_129_1,2023-10-31T22:09:20.072Z,,0,,,NaN,,,,,,false,,,,559975,559975,,559975,,560028,8,400,,,
break_continue,html.Screen,4_129_2,2023-10-31T22:09:20.072Z,,0,,,NaN,,,,,,false,,,,559976,559975,,559975,,560028,8,400,,,
sequence,flow.Sequence,4_129,2023-10-31T22:09:20.072Z,,0,,,3181,completion,,,,,false,,,,559976,559975,556762,556738,556794,560028,8,400,,,
trial,html.Screen,4_130_0,2023-10-31T22:09:22.407Z,,0,3,,2316.0000000001164,response,ISIC_6180870.JPG,0,ISIC_4026540.JPG,ISIC_4026540.JPG,false,0,keypress(z),500,562310.0000000001,562310.0000000001,559994,559976,560028,562361,8,400,31,,ISIC_6180870.JPG
break,html.Screen,4_130_1,2023-10-31T22:09:22.407Z,,0,,,NaN,,,,,,false,,,,562311,562310.0000000001,,562310.0000000001,,562361,8,400,,,
break_continue,html.Screen,4_130_2,2023-10-31T22:09:22.408Z,,0,,,NaN,,,,,,false,,,,562311,562311,,562311,,562361,8,400,,,
sequence,flow.Sequence,4_130,2023-10-31T22:09:22.408Z,,0,,,2283,completion,,,,,false,,,,562311,562311,559994,559976,560028,562361,8,400,,,
trial,html.Screen,4_131_0,2023-10-31T22:09:25.275Z,,0,3,,2851,response,ISIC_0027881.JPG,5,ISIC_0056226.JPG,ISIC_0027881.JPG,false,1,keypress(m),500,565178,565178,562327,562311,562361,565228,8,400,32,,ISIC_0056226.JPG
break,html.Screen,4_131_1,2023-10-31T22:09:25.275Z,,0,,,NaN,,,,,,false,,,,565179,565178,,565178,,565228,8,400,,,
break_continue,html.Screen,4_131_2,2023-10-31T22:09:25.276Z,,0,,,NaN,,,,,,false,,,,565179,565179,,565179,,565228,8,400,,,
sequence,flow.Sequence,4_131,2023-10-31T22:09:25.276Z,,0,,,2818,completion,,,,,false,,,,565179,565179,562327,562311,562361,565228,8,400,,,
trial,html.Screen,4_132_0,2023-10-31T22:09:27.872Z,,0,3,,2581,response,ISIC_0033607.JPG,16,ISIC_0028219.JPG,ISIC_0028219.JPG,false,0,keypress(z),500,567775,567775,565194,565179,565228,567828,8,400,33,,ISIC_0033607.JPG
break,html.Screen,4_132_1,2023-10-31T22:09:27.873Z,,0,,,NaN,,,,,,false,,,,567776.0000000001,567776.0000000001,,567776.0000000001,,567828,8,400,,,
break_continue,html.Screen,4_132_2,2023-10-31T22:09:27.873Z,,0,,,NaN,,,,,,false,,,,567776.0000000001,567776.0000000001,,567776.0000000001,,567828,8,400,,,
sequence,flow.Sequence,4_132,2023-10-31T22:09:27.873Z,,0,,,2548.0000000001164,completion,,,,,false,,,,567776.0000000001,567776.0000000001,565194,565179,565228,567828,8,400,,,
trial,html.Screen,4_133_0,2023-10-31T22:09:30.576Z,,0,3,,2685,response,ISIC_5874357.JPG,29,ISIC_0069183.JPG,ISIC_5874357.JPG,false,1,keypress(m),500,570479,570479,567794,567776.0000000001,567828,570527,8,400,34,,ISIC_0069183.JPG
break,html.Screen,4_133_1,2023-10-31T22:09:30.576Z,,0,,,NaN,,,,,,false,,,,570480,570479,,570479,,570527,8,400,,,
break_continue,html.Screen,4_133_2,2023-10-31T22:09:30.577Z,,0,,,NaN,,,,,,false,,,,570480,570480,,570480,,570527,8,400,,,
sequence,flow.Sequence,4_133,2023-10-31T22:09:30.577Z,,0,,,2652,completion,,,,,false,,,,570480,570480,567794,567776.0000000001,567828,570527,8,400,,,
trial,html.Screen,4_134_0,2023-10-31T22:09:34.056Z,,0,3,,3464.0000000001164,response,ISIC_1661837.JPG,26,ISIC_4185719.JPG,ISIC_4185719.JPG,false,0,keypress(z),500,573960,573959.0000000001,570495,570480,570527,573994,8,400,35,,ISIC_1661837.JPG
break,html.Screen,4_134_1,2023-10-31T22:09:34.057Z,,0,,,NaN,,,,,,false,,,,573960,573960,,573960,,573994,8,400,,,
break_continue,html.Screen,4_134_2,2023-10-31T22:09:34.057Z,,0,,,NaN,,,,,,false,,,,573960,573960,,573960,,573994,8,400,,,
sequence,flow.Sequence,4_134,2023-10-31T22:09:34.057Z,,0,,,3433,completion,,,,,false,,,,573960,573960,570495,570480,570527,573994,8,400,,,
trial,html.Screen,4_135_0,2023-10-31T22:09:36.798Z,,0,3,,2739,response,ISIC_0655635.JPG,25,ISIC_0026208.JPG,ISIC_0655635.JPG,false,1,keypress(m),500,576701,576701,573962,573961,573994,576761,8,400,36,,ISIC_0026208.JPG
break,html.Screen,4_135_1,2023-10-31T22:09:36.798Z,,0,,,NaN,,,,,,false,,,,576702,576701,,576701,,576761,8,400,,,
break_continue,html.Screen,4_135_2,2023-10-31T22:09:36.799Z,,0,,,NaN,,,,,,false,,,,576702,576702,,576702,,576761,8,400,,,
sequence,flow.Sequence,4_135,2023-10-31T22:09:36.799Z,,0,,,2708,completion,,,,,false,,,,576702,576702,573962,573961,573994,576761,8,400,,,
trial,html.Screen,4_136_0,2023-10-31T22:09:41.053Z,,0,3,,4229,response,ISIC_0009939.JPG,15,ISIC_0064107.JPG,ISIC_0064107.JPG,false,0,keypress(z),500,580956,580956,576727,576702,576761,580995,8,400,37,,ISIC_0009939.JPG
break,html.Screen,4_136_1,2023-10-31T22:09:41.054Z,,0,,,NaN,,,,,,false,,,,580957,580957,,580956,,580995,8,400,,,
break_continue,html.Screen,4_136_2,2023-10-31T22:09:41.054Z,,0,,,NaN,,,,,,false,,,,580957,580957,,580957,,580995,8,400,,,
sequence,flow.Sequence,4_136,2023-10-31T22:09:41.054Z,,0,,,4196,completion,,,,,false,,,,580957,580957,576727,576702,576761,580995,8,400,,,
trial,html.Screen,4_137_0,2023-10-31T22:09:44.742Z,,0,3,,3685,response,ISIC_0011031.JPG,19,ISIC_0033708.JPG,ISIC_0011031.JPG,false,1,keypress(m),500,584645,584645,580960,580957,580995,584694,8,400,38,,ISIC_0033708.JPG
break,html.Screen,4_137_1,2023-10-31T22:09:44.743Z,,0,,,NaN,,,,,,false,,,,584645,584645,,584645,,584694,8,400,,,
break_continue,html.Screen,4_137_2,2023-10-31T22:09:44.743Z,,0,,,NaN,,,,,,false,,,,584646,584646,,584646,,584694,8,400,,,
sequence,flow.Sequence,4_137,2023-10-31T22:09:44.743Z,,0,,,3651,completion,,,,,false,,,,584646,584646,580960,580957,580995,584694,8,400,,,
trial,html.Screen,4_138_0,2023-10-31T22:09:47.520Z,,0,3,,2763,response,ISIC_6548734.JPG,20,ISIC_4055361.JPG,ISIC_6548734.JPG,false,1,keypress(m),500,587423,587423,584660,584646,584694,587461,8,400,39,,ISIC_4055361.JPG
break,html.Screen,4_138_1,2023-10-31T22:09:47.522Z,,0,,,NaN,,,,,,false,,,,587424,587424,,587423,,587461,8,400,,,
break_continue,html.Screen,4_138_2,2023-10-31T22:09:47.522Z,,0,,,NaN,,,,,,false,,,,587425.0000000001,587425.0000000001,,587425.0000000001,,587461,8,400,,,
sequence,flow.Sequence,4_138,2023-10-31T22:09:47.522Z,,0,,,2731.0000000001164,completion,,,,,false,,,,587425.0000000001,587425.0000000001,584660,584646,584694,587461,8,400,,,
trial,html.Screen,4_139_0,2023-10-31T22:09:50.551Z,,0,3,,3027.0000000001164,response,ISIC_0009918.JPG,0,ISIC_0024739.JPG,ISIC_0009918.JPG,false,1,keypress(m),500,590454.0000000001,590454.0000000001,587427,587425.0000000001,587461,590494,8,400,40,,ISIC_0024739.JPG
break,html.Screen,4_139_1,2023-10-31T22:09:50.552Z,,0,,,NaN,,,,,,false,,,,590455,590455,,590454.0000000001,,590494,8,400,,,
break_continue,html.Screen,4_139_2,2023-10-31T22:09:50.552Z,,0,,,NaN,,,,,,false,,,,590455,590455,,590455,,590494,8,400,,,
sequence,flow.Sequence,4_139,2023-10-31T22:09:50.552Z,,0,,,2994,completion,,,,,false,,,,590455,590455,587427,587425.0000000001,587461,590494,8,400,,,
trial,html.Screen,4_140_0,2023-10-31T22:09:54.030Z,,0,3,,3472,response,ISIC_6157226.JPG,0,ISIC_0028788.JPG,ISIC_0028788.JPG,false,0,keypress(z),500,593933,593933,590461,590455,590494,593994,8,400,41,,ISIC_6157226.JPG
break,html.Screen,4_140_1,2023-10-31T22:09:54.031Z,,0,,,NaN,,,,,,false,,,,593933,593933,,593933,,593994,8,400,,,
break_continue,html.Screen,4_140_2,2023-10-31T22:09:54.031Z,,0,,,NaN,,,,,,false,,,,593934,593934,,593934,,593994,8,400,,,
sequence,flow.Sequence,4_140,2023-10-31T22:09:54.031Z,,0,,,3440,completion,,,,,false,,,,593934,593934,590461,590455,590494,593994,8,400,,,
trial,html.Screen,4_141_0,2023-10-31T22:09:56.826Z,,0,3,,2768,response,ISIC_8849004.JPG,2,ISIC_5768602.JPG,ISIC_8849004.JPG,false,1,keypress(m),500,596729,596729,593961,593934,593994,596793,8,400,42,,ISIC_5768602.JPG
break,html.Screen,4_141_1,2023-10-31T22:09:56.827Z,,0,,,NaN,,,,,,false,,,,596730,596730,,596729,,596793,8,400,,,
break_continue,html.Screen,4_141_2,2023-10-31T22:09:56.827Z,,0,,,NaN,,,,,,false,,,,596730,596730,,596730,,596793,8,400,,,
sequence,flow.Sequence,4_141,2023-10-31T22:09:56.827Z,,0,,,2736,completion,,,,,false,,,,596730,596730,593961,593934,593994,596793,8,400,,,
trial,html.Screen,4_142_0,2023-10-31T22:09:59.645Z,,0,3,,2787,response,ISIC_1352841.JPG,25,ISIC_8135400.JPG,ISIC_1352841.JPG,false,1,keypress(m),500,599548,599548,596761,596730,596793,599593,8,400,43,,ISIC_8135400.JPG
break,html.Screen,4_142_1,2023-10-31T22:09:59.646Z,,0,,,NaN,,,,,,false,,,,599549,599548,,599548,,599593,8,400,,,
break_continue,html.Screen,4_142_2,2023-10-31T22:09:59.646Z,,0,,,NaN,,,,,,false,,,,599549,599549,,599549,,599593,8,400,,,
sequence,flow.Sequence,4_142,2023-10-31T22:09:59.646Z,,0,,,2756,completion,,,,,false,,,,599549,599549,596761,596730,596793,599593,8,400,,,
trial,html.Screen,4_143_0,2023-10-31T22:10:02.962Z,,0,3,,3305,response,ISIC_4325452.JPG,27,ISIC_7268123.JPG,ISIC_7268123.JPG,false,0,keypress(z),500,602865,602865,599560,599549,599593,602928,8,400,44,,ISIC_4325452.JPG
break,html.Screen,4_143_1,2023-10-31T22:10:02.963Z,,0,,,NaN,,,,,,false,,,,602866,602865,,602865,,602928,8,400,,,
break_continue,html.Screen,4_143_2,2023-10-31T22:10:02.963Z,,0,,,NaN,,,,,,false,,,,602866,602866,,602866,,602928,8,400,,,
sequence,flow.Sequence,4_143,2023-10-31T22:10:02.963Z,,0,,,3273,completion,,,,,false,,,,602866,602866,599560,599549,599593,602928,8,400,,,
trial,html.Screen,4_144_0,2023-10-31T22:10:08.649Z,,0,3,,5658,response,ISIC_0057307.JPG,10,ISIC_0011128.JPG,ISIC_0011128.JPG,false,0,keypress(z),500,608552,608552,602894,602866,602928,608594,8,400,45,,ISIC_0057307.JPG
break,html.Screen,4_144_1,2023-10-31T22:10:08.650Z,,0,,,NaN,,,,,,false,,,,608553,608552,,608552,,608594,8,400,,,
break_continue,html.Screen,4_144_2,2023-10-31T22:10:08.651Z,,0,,,NaN,,,,,,false,,,,608554,608554,,608553,,608594,8,400,,,
sequence,flow.Sequence,4_144,2023-10-31T22:10:08.651Z,,0,,,5626,completion,,,,,false,,,,608554,608554,602894,602866,602928,608594,8,400,,,
trial,html.Screen,4_145_0,2023-10-31T22:10:11.361Z,,0,3,,2702,response,ISIC_4699066.JPG,22,ISIC_0072865.JPG,ISIC_4699066.JPG,false,1,keypress(m),500,611264,611263,608561,608554,608594,611327,8,400,46,,ISIC_0072865.JPG
break,html.Screen,4_145_1,2023-10-31T22:10:11.362Z,,0,,,NaN,,,,,,false,,,,611265,611264,,611264,,611327,8,400,,,
break_continue,html.Screen,4_145_2,2023-10-31T22:10:11.364Z,,0,,,NaN,,,,,,false,,,,611266,611266,,611266,,611327,8,400,,,
sequence,flow.Sequence,4_145,2023-10-31T22:10:11.364Z,,0,,,2672,completion,,,,,false,,,,611266,611266,608561,608554,608594,611327,8,400,,,
trial,html.Screen,4_146_0,2023-10-31T22:10:15.407Z,,0,3,,4014,response,ISIC_0066289.JPG,8,ISIC_2324728.JPG,ISIC_2324728.JPG,false,0,keypress(z),500,615310.0000000001,615309,611295,611267,611327,615361,8,400,47,,ISIC_0066289.JPG
break,html.Screen,4_146_1,2023-10-31T22:10:15.408Z,,0,,,NaN,,,,,,false,,,,615310.0000000001,615310.0000000001,,615310.0000000001,,615361,8,400,,,
break_continue,html.Screen,4_146_2,2023-10-31T22:10:15.408Z,,0,,,NaN,,,,,,false,,,,615310.0000000001,615310.0000000001,,615310.0000000001,,615361,8,400,,,
sequence,flow.Sequence,4_146,2023-10-31T22:10:15.408Z,,0,,,3983.0000000001164,completion,,,,,false,,,,615311,615310.0000000001,611295,611267,611327,615361,8,400,,,
trial,html.Screen,4_147_0,2023-10-31T22:10:18.698Z,,0,3,,3272,response,ISIC_0069056.JPG,16,ISIC_0839675.JPG,ISIC_0839675.JPG,false,0,keypress(z),500,618600,618600,615328,615311,615361,618660,8,400,48,,ISIC_0069056.JPG
break,html.Screen,4_147_1,2023-10-31T22:10:18.698Z,,0,,,NaN,,,,,,false,,,,618601,618601,,618600,,618660,8,400,,,
break_continue,html.Screen,4_147_2,2023-10-31T22:10:18.698Z,,0,,,NaN,,,,,,false,,,,618601,618601,,618601,,618660,8,400,,,
sequence,flow.Sequence,4_147,2023-10-31T22:10:18.699Z,,0,,,3240,completion,,,,,false,,,,618601,618601,615328,615311,615361,618660,8,400,,,
trial,html.Screen,4_148_0,2023-10-31T22:10:21.971Z,,0,3,,3246,response,ISIC_9521776.JPG,24,ISIC_1696845.JPG,ISIC_9521776.JPG,false,1,keypress(m),500,621874,621873,618627,618601,618660,621927,8,400,49,,ISIC_1696845.JPG
break,html.Screen,4_148_1,2023-10-31T22:10:21.972Z,,0,,,NaN,,,,,,false,,,,621874,621874,,621874,,621927,8,400,,,
break_continue,html.Screen,4_148_2,2023-10-31T22:10:21.972Z,,0,,,NaN,,,,,,false,,,,621874,621874,,621874,,621927,8,400,,,
sequence,flow.Sequence,4_148,2023-10-31T22:10:21.972Z,,0,,,3214,completion,,,,,false,,,,621875,621874,618627,618601,618660,621927,8,400,,,
trial,html.Screen,4_149_0,2023-10-31T22:10:24.727Z,,0,3,,2735,response,ISIC_8755163.JPG,21,ISIC_0011077.JPG,ISIC_8755163.JPG,false,1,keypress(m),500,624629,624629,621894,621875,621927,624697,8,400,50,,ISIC_0011077.JPG
break,html.Screen,4_149_1,2023-10-31T22:10:34.758Z,,0,,,9996,timeout,,,,,false,,,,634661,634660,624660,624629,624697,634693,8,400,,,
break_continue,html.Screen,4_149_2,2023-11-01T16:23:05.717Z,,0,,,4725891,response,,,,,false,continue,keypress(Space),,5360574.000000001,5360551,634660,634661,634693,5360645,8,400,,,
sequence,flow.Sequence,4_149,2023-11-01T16:23:05.721Z,,0,,,4738624,completion,,,,,false,,,,5360578,5360551,621894,621875,621927,5360645,8,400,,,
trial,html.Screen,4_150_0,2023-11-01T16:23:09.577Z,,0,4,,3822,response,ISIC_0064298.JPG,20,ISIC_8163269.JPG,ISIC_8163269.JPG,false,0,keypress(z),500,5364434,5364433,5360611,5360579,5360645,5364477,8,400,1,,ISIC_0064298.JPG
break,html.Screen,4_150_1,2023-11-01T16:23:09.578Z,,0,,,NaN,,,,,,false,,,,5364435,5364435,,5364434,,5364477,8,400,,,
break_continue,html.Screen,4_150_2,2023-11-01T16:23:09.579Z,,0,,,NaN,,,,,,false,,,,5364436,5364436,,5364436,,5364477,8,400,,,
sequence,flow.Sequence,4_150,2023-11-01T16:23:09.580Z,,0,,,3791,completion,,,,,false,,,,5364437,5364436,5360611,5360579,5360645,5364477,8,400,,,
trial,html.Screen,4_151_0,2023-11-01T16:23:13.890Z,,0,4,,4302,response,ISIC_6159783.JPG,8,ISIC_0411688.JPG,ISIC_6159783.JPG,false,1,keypress(m),500,5368748.000000001,5368747,5364445,5364437,5364477,5368811,8,400,2,,ISIC_0411688.JPG
break,html.Screen,4_151_1,2023-11-01T16:23:13.891Z,,0,,,NaN,,,,,,false,,,,5368749,5368748.000000001,,5368748.000000001,,5368811,8,400,,,
break_continue,html.Screen,4_151_2,2023-11-01T16:23:13.892Z,,0,,,NaN,,,,,,false,,,,5368749,5368749,,5368749,,5368811,8,400,,,
sequence,flow.Sequence,4_151,2023-11-01T16:23:13.892Z,,0,,,4272,completion,,,,,false,,,,5368750,5368749,5364445,5364437,5364477,5368811,8,400,,,
trial,html.Screen,4_152_0,2023-11-01T16:23:17.585Z,,0,4,,3664,response,ISIC_4801737.JPG,16,ISIC_0059609.JPG,ISIC_0059609.JPG,false,0,keypress(z),500,5372443,5372442,5368778,5368750,5368811,5372479,8,400,3,,ISIC_4801737.JPG
break,html.Screen,4_152_1,2023-11-01T16:23:17.586Z,,0,,,NaN,,,,,,false,,,,5372444,5372444,,5372443,,5372479,8,400,,,
break_continue,html.Screen,4_152_2,2023-11-01T16:23:17.587Z,,0,,,NaN,,,,,,false,,,,5372445,5372444,,5372444,,5372479,8,400,,,
sequence,flow.Sequence,4_152,2023-11-01T16:23:17.587Z,,0,,,3633,completion,,,,,false,,,,5372445,5372444,5368778,5368750,5368811,5372479,8,400,,,
trial,html.Screen,4_153_0,2023-11-01T16:23:20.517Z,,0,4,,2928,response,ISIC_0002821.JPG,11,ISIC_0034239.JPG,ISIC_0002821.JPG,false,1,keypress(m),500,5375375,5375375,5372447,5372445,5372479,5375412,8,400,4,,ISIC_0034239.JPG
break,html.Screen,4_153_1,2023-11-01T16:23:20.518Z,,0,,,NaN,,,,,,false,,,,5375376,5375376,,5375375,,5375412,8,400,,,
break_continue,html.Screen,4_153_2,2023-11-01T16:23:20.519Z,,0,,,NaN,,,,,,false,,,,5375377,5375376,,5375376,,5375412,8,400,,,
sequence,flow.Sequence,4_153,2023-11-01T16:23:20.519Z,,0,,,2897,completion,,,,,false,,,,5375377,5375376,5372447,5372445,5372479,5375412,8,400,,,
trial,html.Screen,4_154_0,2023-11-01T16:23:24.472Z,,0,4,,3951,response,ISIC_0674746.JPG,18,ISIC_0024244.JPG,ISIC_0674746.JPG,false,1,keypress(m),500,5379331,5379330,5375379,5375377,5375412,5379378,8,400,5,,ISIC_0024244.JPG
break,html.Screen,4_154_1,2023-11-01T16:23:24.473Z,,0,,,NaN,,,,,,false,,,,5379332,5379331,,5379331,,5379378,8,400,,,
break_continue,html.Screen,4_154_2,2023-11-01T16:23:24.474Z,,0,,,NaN,,,,,,false,,,,5379332,5379332,,5379332,,5379378,8,400,,,
sequence,flow.Sequence,4_154,2023-11-01T16:23:24.474Z,,0,,,3920,completion,,,,,false,,,,5379332,5379332,5375379,5375377,5375412,5379378,8,400,,,
trial,html.Screen,4_155_0,2023-11-01T16:23:27.492Z,,0,4,,3005,response,ISIC_0071651.JPG,23,ISIC_1735204.JPG,ISIC_1735204.JPG,false,0,keypress(z),500,5382350,5382350,5379345,5379332,5379378,5382412,8,400,6,,ISIC_0071651.JPG
break,html.Screen,4_155_1,2023-11-01T16:23:27.493Z,,0,,,NaN,,,,,,false,,,,5382351,5382351,,5382350,,5382412,8,400,,,
break_continue,html.Screen,4_155_2,2023-11-01T16:23:27.493Z,,0,,,NaN,,,,,,false,,,,5382351,5382351,,5382351,,5382412,8,400,,,
sequence,flow.Sequence,4_155,2023-11-01T16:23:27.493Z,,0,,,2973,completion,,,,,false,,,,5382352,5382351,5379345,5379332,5379378,5382412,8,400,,,
trial,html.Screen,4_156_0,2023-11-01T16:23:30.142Z,,0,4,,2624,response,ISIC_0068259.JPG,4,ISIC_0032887.JPG,ISIC_0068259.JPG,false,1,keypress(m),500,5385001,5385001,5382377,5382352,5382412,5385045,8,400,7,,ISIC_0032887.JPG
break,html.Screen,4_156_1,2023-11-01T16:23:30.144Z,,0,,,NaN,,,,,,false,,,,5385002,5385002,,5385001,,5385045,8,400,,,
break_continue,html.Screen,4_156_2,2023-11-01T16:23:30.144Z,,0,,,NaN,,,,,,false,,,,5385003,5385002,,5385002,,5385045,8,400,,,
sequence,flow.Sequence,4_156,2023-11-01T16:23:30.144Z,,0,,,2590,completion,,,,,false,,,,5385003,5385002,5382377,5382352,5382412,5385045,8,400,,,
