sender,sender_type,sender_id,timestamp,meta,,blockNo,condition,duration,ended_on,img_left,img_reveal,img_right,loser,practice,response,response_action,selection_duration,time_commit,time_end,time_render,time_run,time_show,time_switch,total_blocks,total_trials,trialNo,url,winner
informed_consent,html.Screen,0,2023-10-31T00:15:17.291Z,"{""labjs_version"":""20.2.4"",""labjs_build"":{""flavor"":""production"",""commit"":""f5b4a49f956347addd546a832a3327688c2c0fef""},""location"":""https://run.pavlovia.org/MurrayBennett/melanoma-2afc/?participant=67699&platform=sona"",""userAgent"":""Mozilla/5.0 (Macintosh; Intel Mac OS X 10_15_7) AppleWebKit/537.36 (KHTML, like Gecko) Chrome/116.0.0.0 Safari/537.36"",""platform"":""MacIntel"",""language"":""en-US"",""locale"":""en-US"",""timeZone"":""America/Chicago"",""timezoneOffset"":300,""screen_width"":1440,""screen_height"":900,""scroll_width"":1440,""scroll_height"":767,""window_innerWidth"":1440,""window_innerHeight"":815,""devicePixelRatio"":2}",,,,38456.010000071525,response,,,,,,consent,click button,,39942.200000047684,39937.800000071526,1331.796,1481.1000000238419,1481.79,39948.897,,,,"{""participant"":""67699"",""platform"":""sona""}",
Welcome,html.Screen,1,2023-10-31T00:15:47.772Z,,,,irregular,30473.203000023845,response,,,,,,continue,click button,,70425.20000004768,70422.10000002384,39932.231,39942.60000002384,39948.897,70432.391,,,,,
trial,html.Screen,2_0_0,2023-10-31T00:15:52.771Z,,0,0,,4990.8090000476805,response,ISIC_4679428.JPG,,ISIC_0061792.JPG,ISIC_0061792.JPG,true,0,keypress(z),500,75423.70000004768,75423.20000004768,70415.725,70425.5,70432.391,75434.093,1,6,1,,ISIC_4679428.JPG
sequence,flow.Sequence,2_0,2023-10-31T00:15:52.771Z,,0,,,4990.8090000476805,completion,,,,,true,,,,75424.30000007153,75423.20000004768,70415.725,70425.5,70432.391,75434.093,1,6,,,
trial,html.Screen,2_1_0,2023-10-31T00:16:01.368Z,,0,0,,8586.507000023848,response,ISIC_0776486.JPG,,ISIC_5199497.JPG,ISIC_5199497.JPG,true,0,keypress(z),500,84021,84020.60000002384,75417.427,75424.60000002384,75434.093,84034.586,1,6,2,,ISIC_0776486.JPG
sequence,flow.Sequence,2_1,2023-10-31T00:16:01.368Z,,0,,,8586.507000023848,completion,,,,,true,,,,84021.5,84020.60000002384,75417.427,75424.5,75434.093,84034.586,1,6,,,
trial,html.Screen,2_2_0,2023-10-31T00:16:06.685Z,,0,0,,5303.21400007153,response,ISIC_2556187.JPG,,ISIC_8575776.JPG,ISIC_8575776.JPG,true,0,keypress(z),500,89338.40000009537,89337.80000007153,84017.92,84021.80000007153,84034.586,89351.04,1,6,3,,ISIC_2556187.JPG
sequence,flow.Sequence,2_2,2023-10-31T00:16:06.685Z,,0,,,5303.21400007153,completion,,,,,true,,,,89338.90000009537,89337.80000007153,84017.92,84021.70000004768,84034.586,89351.04,1,6,,,
trial,html.Screen,2_3_0,2023-10-31T00:16:10.742Z,,0,0,,4043.9600000000064,response,ISIC_9238366.JPG,,ISIC_8141769.JPG,ISIC_9238366.JPG,true,1,keypress(m),500,93395.60000002384,93395,89334.374,89339.20000004768,89351.04,93400.878,1,6,4,,ISIC_8141769.JPG
sequence,flow.Sequence,2_3,2023-10-31T00:16:10.743Z,,0,,,4043.9600000000064,completion,,,,,true,,,,93396.10000002384,93395,89334.374,89339.10000002384,89351.04,93400.878,1,6,,,
trial,html.Screen,2_4_0,2023-10-31T00:16:14.412Z,,0,0,,3664.722000023845,response,ISIC_9959593.JPG,,ISIC_8949026.JPG,ISIC_8949026.JPG,true,0,keypress(z),500,97066.30000007153,97065.60000002384,93384.212,93396.5,93400.878,97068.22,1,6,5,,ISIC_9959593.JPG
sequence,flow.Sequence,2_4,2023-10-31T00:16:14.413Z,,0,,,3664.722000023845,completion,,,,,true,,,,97066.70000004768,97065.60000002384,93384.212,93396.40000009537,93400.878,97068.22,1,6,,,
trial,html.Screen,2_5_0,2023-10-31T00:16:17.698Z,,0,0,,3283.1800000953663,response,ISIC_0460240.JPG,,ISIC_0010479.JPG,ISIC_0460240.JPG,true,1,keypress(m),500,100352,100351.40000009537,97051.554,97067,97068.22,100368.088,1,6,6,,ISIC_0010479.JPG
sequence,flow.Sequence,2_5,2023-10-31T00:16:17.699Z,,0,,,3283.1800000953663,completion,,,,,true,,,,100352.5,100351.40000009537,97051.554,97066.90000009537,97068.22,100368.088,1,6,,,
loop,flow.Loop,2,2023-10-31T00:16:17.699Z,,,,,29919.009000095364,completion,,,,,true,,,,100352.90000009537,100351.40000009537,70415.725,70425.40000009537,70432.391,100368.088,1,6,,,
exp_instructions,html.Screen,3,2023-10-31T00:16:28.910Z,,,,,11190.812000095364,response,,,,,,continue,keypress(Space),,111564.70000004768,111558.90000009537,100351.422,100353,100368.088,111568.054,,,,,
trial,html.Screen,4_0_0,2023-10-31T00:16:35.396Z,,0,1,,6482.64600004768,response,ISIC_0054318.JPG,8,ISIC_7171090.JPG,ISIC_7171090.JPG,false,0,keypress(z),500,118051.20000004768,118050.70000004768,111551.388,111565.10000002384,111568.054,118068.678,8,400,1,,ISIC_0054318.JPG
break,html.Screen,4_0_1,2023-10-31T00:16:35.398Z,,0,,,NaN,,,,,,false,,,,118052.5,118052.20000004768,,118051.5,,118068.678,8,400,,,
break_continue,html.Screen,4_0_2,2023-10-31T00:16:35.398Z,,0,,,NaN,,,,,,false,,,,118053.10000002384,118052.90000009537,,118052.80000007153,,118068.678,8,400,,,
sequence,flow.Sequence,4_0,2023-10-31T00:16:35.399Z,,0,,,6484.846000095364,completion,,,,,false,,,,118053.20000004768,118052.90000009537,111551.388,111565,111568.054,118068.678,8,400,,,
trial,html.Screen,4_1_0,2023-10-31T00:16:40.733Z,,0,1,,5318.222000095368,response,ISIC_6392478.JPG,8,ISIC_0069475.JPG,ISIC_6392478.JPG,false,1,keypress(m),500,123387.40000009537,123386.90000009537,118052.012,118053.30000007153,118068.678,123401.798,8,400,2,,ISIC_0069475.JPG
break,html.Screen,4_1_1,2023-10-31T00:16:40.734Z,,0,,,NaN,,,,,,false,,,,123388.70000004768,123388.40000009537,,123387.80000007153,,123401.798,8,400,,,
break_continue,html.Screen,4_1_2,2023-10-31T00:16:40.734Z,,0,,,NaN,,,,,,false,,,,123389.10000002384,123388.90000009537,,123388.70000004768,,123401.798,8,400,,,
sequence,flow.Sequence,4_1,2023-10-31T00:16:40.734Z,,0,,,5320.222000095368,completion,,,,,false,,,,123389.20000004768,123388.90000009537,118052.012,118053.30000007153,118068.678,123401.798,8,400,,,
trial,html.Screen,4_2_0,2023-10-31T00:16:48.013Z,,0,1,,7266.50200007153,response,ISIC_0015969.JPG,8,ISIC_0060975.JPG,ISIC_0015969.JPG,false,1,keypress(m),500,130668.70000004768,130668.30000007153,123385.132,123389.40000009537,123401.798,130685.659,8,400,3,,ISIC_0060975.JPG
break,html.Screen,4_2_1,2023-10-31T00:16:48.014Z,,0,,,NaN,,,,,,false,,,,130669.5,130669.30000007153,,130668.90000009537,,130685.659,8,400,,,
break_continue,html.Screen,4_2_2,2023-10-31T00:16:48.014Z,,0,,,NaN,,,,,,false,,,,130669.70000004768,130669.60000002384,,130669.5,,130685.659,8,400,,,
sequence,flow.Sequence,4_2,2023-10-31T00:16:48.015Z,,0,,,7267.802000023847,completion,,,,,false,,,,130669.80000007153,130669.60000002384,123385.132,123389.30000007153,123401.798,130685.659,8,400,,,
trial,html.Screen,4_3_0,2023-10-31T00:16:53.924Z,,0,1,,5892.941000023842,response,ISIC_4582670.JPG,9,ISIC_1924949.JPG,ISIC_1924949.JPG,false,0,keypress(z),500,136579.10000002384,136578.60000002384,130668.993,130669.80000007153,130685.659,136585.423,8,400,4,,ISIC_4582670.JPG
break,html.Screen,4_3_1,2023-10-31T00:16:53.925Z,,0,,,NaN,,,,,,false,,,,136580.10000002384,136579.90000009537,,136579.40000009537,,136585.423,8,400,,,
break_continue,html.Screen,4_3_2,2023-10-31T00:16:53.925Z,,0,,,NaN,,,,,,false,,,,136580.5,136580.30000007153,,136580.20000004768,,136585.423,8,400,,,
sequence,flow.Sequence,4_3,2023-10-31T00:16:53.925Z,,0,,,5894.641000071526,completion,,,,,false,,,,136580.70000004768,136580.30000007153,130668.993,130669.80000007153,130685.659,136585.423,8,400,,,
trial,html.Screen,4_4_0,2023-10-31T00:16:58.666Z,,0,1,,4735.777000047674,response,ISIC_0068176.JPG,5,ISIC_0016137.JPG,ISIC_0016137.JPG,false,0,keypress(z),500,141321.70000004768,141321.20000004768,136568.757,136580.90000009537,136585.423,141336.147,8,400,5,,ISIC_0068176.JPG
break,html.Screen,4_4_1,2023-10-31T00:16:58.667Z,,0,,,NaN,,,,,,false,,,,141322.60000002384,141322.5,,141322,,141336.147,8,400,,,
break_continue,html.Screen,4_4_2,2023-10-31T00:16:58.667Z,,0,,,NaN,,,,,,false,,,,141323,141322.80000007153,,141322.80000007153,,141336.147,8,400,,,
sequence,flow.Sequence,4_4,2023-10-31T00:16:58.668Z,,0,,,4737.377000071516,completion,,,,,false,,,,141323.20000004768,141322.80000007153,136568.757,136580.70000004768,136585.423,141336.147,8,400,,,
trial,html.Screen,4_5_0,2023-10-31T00:17:05.278Z,,0,1,,6597.853000000003,response,ISIC_0072171.JPG,8,ISIC_0011984.JPG,ISIC_0072171.JPG,false,1,keypress(m),500,147934.40000009537,147934,141319.481,141323.30000007153,141336.147,147935.883,8,400,6,,ISIC_0011984.JPG
break,html.Screen,4_5_1,2023-10-31T00:17:05.280Z,,0,,,NaN,,,,,,false,,,,147935.5,147935.20000004768,,147934.70000004768,,147935.883,8,400,,,
break_continue,html.Screen,4_5_2,2023-10-31T00:17:05.280Z,,0,,,NaN,,,,,,false,,,,147935.80000007153,147935.60000002384,,147935.60000002384,,147935.883,8,400,,,
sequence,flow.Sequence,4_5,2023-10-31T00:17:05.280Z,,0,,,6599.453000023845,completion,,,,,false,,,,147936,147935.60000002384,141319.481,141323.30000007153,141336.147,147935.883,8,400,,,
trial,html.Screen,4_6_0,2023-10-31T00:17:10.726Z,,0,1,,5445.71700002384,response,ISIC_2746860.JPG,7,ISIC_0030694.JPG,ISIC_2746860.JPG,false,1,keypress(m),500,153382.10000002384,153381.60000002384,147919.217,147937.20000004768,147935.883,153386.348,8,400,7,,ISIC_0030694.JPG
break,html.Screen,4_6_1,2023-10-31T00:17:10.727Z,,0,,,NaN,,,,,,false,,,,153383.20000004768,153383,,153382.5,,153386.348,8,400,,,
break_continue,html.Screen,4_6_2,2023-10-31T00:17:10.727Z,,0,,,NaN,,,,,,false,,,,153383.5,153383.40000009537,,153383.30000007153,,153386.348,8,400,,,
sequence,flow.Sequence,4_6,2023-10-31T00:17:10.728Z,,0,,,5447.517000095366,completion,,,,,false,,,,153383.70000004768,153383.40000009537,147919.217,147937.20000004768,147935.883,153386.348,8,400,,,
trial,html.Screen,4_7_0,2023-10-31T00:17:14.397Z,,0,1,,3666.7520000238437,response,ISIC_1884256.JPG,7,ISIC_0014795.JPG,ISIC_0014795.JPG,false,0,keypress(z),500,157053.60000002384,157053.10000002384,153369.682,153383.90000009537,153386.348,157069.534,8,400,8,,ISIC_1884256.JPG
break,html.Screen,4_7_1,2023-10-31T00:17:14.398Z,,0,,,NaN,,,,,,false,,,,157054.5,157054.40000009537,,157053.80000007153,,157069.534,8,400,,,
break_continue,html.Screen,4_7_2,2023-10-31T00:17:14.399Z,,0,,,NaN,,,,,,false,,,,157055,157054.90000009537,,157054.70000004768,,157069.534,8,400,,,
sequence,flow.Sequence,4_7,2023-10-31T00:17:14.399Z,,0,,,3668.5520000953693,completion,,,,,false,,,,157055.20000004768,157054.90000009537,153369.682,153383.80000007153,153386.348,157069.534,8,400,,,
trial,html.Screen,4_8_0,2023-10-31T00:17:20.019Z,,0,1,,5605.266000071511,response,ISIC_0062713.JPG,8,ISIC_0071111.JPG,ISIC_0062713.JPG,false,1,keypress(m),500,162675.30000007153,162674.80000007153,157052.868,157055.30000007153,157069.534,162686.957,8,400,9,,ISIC_0071111.JPG
break,html.Screen,4_8_1,2023-10-31T00:17:20.020Z,,0,,,NaN,,,,,,false,,,,162676.40000009537,162676.10000002384,,162675.60000002384,,162686.957,8,400,,,
break_continue,html.Screen,4_8_2,2023-10-31T00:17:20.020Z,,0,,,NaN,,,,,,false,,,,162676.80000007153,162676.70000004768,,162676.5,,162686.957,8,400,,,
sequence,flow.Sequence,4_8,2023-10-31T00:17:20.020Z,,0,,,5607.1660000476695,completion,,,,,false,,,,162677,162676.70000004768,157052.868,157055.20000004768,157069.534,162686.957,8,400,,,
trial,html.Screen,4_9_0,2023-10-31T00:17:26.355Z,,0,1,,6324.643000023847,response,ISIC_1604845.JPG,9,ISIC_7045042.JPG,ISIC_7045042.JPG,false,0,keypress(z),500,169012.10000002384,169011.60000002384,162670.291,162677.20000004768,162686.957,169020.037,8,400,10,,ISIC_1604845.JPG
break,html.Screen,4_9_1,2023-10-31T00:17:26.356Z,,0,,,NaN,,,,,,false,,,,169013.20000004768,169013,,169012.40000009537,,169020.037,8,400,,,
break_continue,html.Screen,4_9_2,2023-10-31T00:17:26.357Z,,0,,,NaN,,,,,,false,,,,169013.60000002384,169013.5,,169013.40000009537,,169020.037,8,400,,,
sequence,flow.Sequence,4_9,2023-10-31T00:17:26.357Z,,0,,,6326.543000000005,completion,,,,,false,,,,169013.80000007153,169013.5,162670.291,162677.10000002384,162686.957,169020.037,8,400,,,
trial,html.Screen,4_10_0,2023-10-31T00:17:33.354Z,,0,1,,6990.563000023831,response,ISIC_0000507.JPG,7,ISIC_6000407.JPG,ISIC_0000507.JPG,false,1,keypress(m),500,176011.10000002384,176010.60000002384,169003.371,169013.90000009537,169020.037,176020.341,8,400,11,,ISIC_6000407.JPG
break,html.Screen,4_10_1,2023-10-31T00:17:33.355Z,,0,,,NaN,,,,,,false,,,,176012.10000002384,176012,,176011.5,,176020.341,8,400,,,
break_continue,html.Screen,4_10_2,2023-10-31T00:17:33.355Z,,0,,,NaN,,,,,,false,,,,176012.5,176012.5,,176012.30000007153,,176020.341,8,400,,,
sequence,flow.Sequence,4_10,2023-10-31T00:17:33.356Z,,0,,,6992.462999999989,completion,,,,,false,,,,176012.70000004768,176012.5,169003.371,169013.80000007153,169020.037,176020.341,8,400,,,
trial,html.Screen,4_11_0,2023-10-31T00:17:37.919Z,,0,1,,4555.059000095382,response,ISIC_0199116.JPG,8,ISIC_1258986.JPG,ISIC_1258986.JPG,false,0,keypress(z),500,180575.90000009537,180575.40000009537,176003.675,176012.80000007153,176020.341,180586.825,8,400,12,,ISIC_0199116.JPG
break,html.Screen,4_11_1,2023-10-31T00:17:37.920Z,,0,,,NaN,,,,,,false,,,,180576.90000009537,180576.60000002384,,180576.20000004768,,180586.825,8,400,,,
break_continue,html.Screen,4_11_2,2023-10-31T00:17:37.920Z,,0,,,NaN,,,,,,false,,,,180577.20000004768,180577.10000002384,,180577,,180586.825,8,400,,,
sequence,flow.Sequence,4_11,2023-10-31T00:17:37.920Z,,0,,,4556.759000023856,completion,,,,,false,,,,180577.40000009537,180577.10000002384,176003.675,176012.80000007153,176020.341,180586.825,8,400,,,
trial,html.Screen,4_12_0,2023-10-31T00:17:42.969Z,,0,1,,5039.475000071514,response,ISIC_5550263.JPG,9,ISIC_0845105.JPG,ISIC_5550263.JPG,false,1,keypress(m),500,185626.80000007153,185626.30000007153,180570.159,180577.60000002384,180586.825,185637.425,8,400,13,,ISIC_0845105.JPG
break,html.Screen,4_12_1,2023-10-31T00:17:42.970Z,,0,,,NaN,,,,,,false,,,,185627.90000009537,185627.60000002384,,185627.10000002384,,185637.425,8,400,,,
break_continue,html.Screen,4_12_2,2023-10-31T00:17:42.971Z,,0,,,NaN,,,,,,false,,,,185628.20000004768,185628.10000002384,,185628,,185637.425,8,400,,,
sequence,flow.Sequence,4_12,2023-10-31T00:17:42.971Z,,0,,,5041.27500002383,completion,,,,,false,,,,185628.40000009537,185628.10000002384,180570.159,180577.5,180586.825,185637.425,8,400,,,
trial,html.Screen,4_13_0,2023-10-31T00:17:48.272Z,,0,1,,5291.975000095379,response,ISIC_0010468.JPG,8,ISIC_0031517.JPG,ISIC_0031517.JPG,false,0,keypress(z),500,190929.90000009537,190929.40000009537,185620.759,185628.5,185637.425,190937.213,8,400,14,,ISIC_0010468.JPG
break,html.Screen,4_13_1,2023-10-31T00:17:48.273Z,,0,,,NaN,,,,,,false,,,,190930.70000004768,190930.60000002384,,190930.10000002384,,190937.213,8,400,,,
break_continue,html.Screen,4_13_2,2023-10-31T00:17:48.273Z,,0,,,NaN,,,,,,false,,,,190931.10000002384,190931.10000002384,,190930.90000009537,,190937.213,8,400,,,
sequence,flow.Sequence,4_13,2023-10-31T00:17:48.274Z,,0,,,5293.6750000238535,completion,,,,,false,,,,190931.30000007153,190931.10000002384,185620.759,185628.40000009537,185637.425,190937.213,8,400,,,
trial,html.Screen,4_14_0,2023-10-31T00:17:52.375Z,,0,1,,4094.887000023853,response,ISIC_6215631.JPG,8,ISIC_0032759.JPG,ISIC_6215631.JPG,false,1,keypress(m),500,195032.60000002384,195032.10000002384,190920.547,190931.5,190937.213,195037.049,8,400,15,,ISIC_0032759.JPG
break,html.Screen,4_14_1,2023-10-31T00:17:52.376Z,,0,,,NaN,,,,,,false,,,,195033.70000004768,195033.5,,195032.90000009537,,195037.049,8,400,,,
break_continue,html.Screen,4_14_2,2023-10-31T00:17:52.376Z,,0,,,NaN,,,,,,false,,,,195034.10000002384,195034,,195033.90000009537,,195037.049,8,400,,,
sequence,flow.Sequence,4_14,2023-10-31T00:17:52.376Z,,0,,,4096.787000000011,completion,,,,,false,,,,195034.30000007153,195034,190920.547,190931.40000009537,190937.213,195037.049,8,400,,,
trial,html.Screen,4_15_0,2023-10-31T00:17:57.198Z,,0,1,,4818.551000023843,response,ISIC_1285870.JPG,8,ISIC_0011694.JPG,ISIC_1285870.JPG,false,1,keypress(m),500,199856,199855.60000002384,195020.383,195034.5,195037.049,199871.086,8,400,16,,ISIC_0011694.JPG
break,html.Screen,4_15_1,2023-10-31T00:17:57.199Z,,0,,,NaN,,,,,,false,,,,199857.10000002384,199856.80000007153,,199856.30000007153,,199871.086,8,400,,,
break_continue,html.Screen,4_15_2,2023-10-31T00:17:57.199Z,,0,,,NaN,,,,,,false,,,,199857.40000009537,199857.30000007153,,199857.20000004768,,199871.086,8,400,,,
sequence,flow.Sequence,4_15,2023-10-31T00:17:57.200Z,,0,,,4820.2510000715265,completion,,,,,false,,,,199857.60000002384,199857.30000007153,195020.383,195034.40000009537,195037.049,199871.086,8,400,,,
trial,html.Screen,4_16_0,2023-10-31T00:18:01.556Z,,0,1,,4343.1140000476735,response,ISIC_3706743.JPG,9,ISIC_9742891.JPG,ISIC_9742891.JPG,false,0,keypress(z),500,204214.60000002384,204214.20000004768,199854.42,199857.80000007153,199871.086,204220.912,8,400,17,,ISIC_3706743.JPG
break,html.Screen,4_16_1,2023-10-31T00:18:01.557Z,,0,,,NaN,,,,,,false,,,,204215.60000002384,204215.40000009537,,204214.90000009537,,204220.912,8,400,,,
break_continue,html.Screen,4_16_2,2023-10-31T00:18:01.558Z,,0,,,NaN,,,,,,false,,,,204215.90000009537,204215.90000009537,,204215.80000007153,,204220.912,8,400,,,
sequence,flow.Sequence,4_16,2023-10-31T00:18:01.558Z,,0,,,4344.814000095357,completion,,,,,false,,,,204216.10000002384,204215.90000009537,199854.42,199857.60000002384,199871.086,204220.912,8,400,,,
trial,html.Screen,4_17_0,2023-10-31T00:18:06.290Z,,0,1,,4726.7880000476725,response,ISIC_3635014.JPG,7,ISIC_3093026.JPG,ISIC_3635014.JPG,false,1,keypress(m),500,208948.10000002384,208947.70000004768,204204.246,204216.30000007153,204220.912,208954.797,8,400,18,,ISIC_3093026.JPG
break,html.Screen,4_17_1,2023-10-31T00:18:06.291Z,,0,,,NaN,,,,,,false,,,,208949.10000002384,208948.90000009537,,208948.40000009537,,208954.797,8,400,,,
break_continue,html.Screen,4_17_2,2023-10-31T00:18:06.291Z,,0,,,NaN,,,,,,false,,,,208949.5,208949.30000007153,,208949.20000004768,,208954.797,8,400,,,
sequence,flow.Sequence,4_17,2023-10-31T00:18:06.291Z,,0,,,4728.388000071514,completion,,,,,false,,,,208949.70000004768,208949.30000007153,204204.246,204216.30000007153,204220.912,208954.797,8,400,,,
trial,html.Screen,4_18_0,2023-10-31T00:18:11.416Z,,0,1,,5119.903000047692,response,ISIC_6899527.JPG,7,ISIC_0046449.JPG,ISIC_6899527.JPG,false,1,keypress(m),500,214075.10000002384,214074.70000004768,208938.131,208949.80000007153,208954.797,214087.925,8,400,19,,ISIC_0046449.JPG
break,html.Screen,4_18_1,2023-10-31T00:18:11.417Z,,0,,,NaN,,,,,,false,,,,214076.10000002384,214075.90000009537,,214075.40000009537,,214087.925,8,400,,,
break_continue,html.Screen,4_18_2,2023-10-31T00:18:11.418Z,,0,,,NaN,,,,,,false,,,,214076.60000002384,214076.40000009537,,214076.30000007153,,214087.925,8,400,,,
sequence,flow.Sequence,4_18,2023-10-31T00:18:11.418Z,,0,,,5121.603000095376,completion,,,,,false,,,,214076.70000004768,214076.40000009537,208938.131,208949.70000004768,208954.797,214087.925,8,400,,,
trial,html.Screen,4_19_0,2023-10-31T00:18:16.237Z,,0,1,,4807.275000047695,response,ISIC_0060705.JPG,6,ISIC_6570611.JPG,ISIC_6570611.JPG,false,0,keypress(z),500,218895.60000002384,218895.20000004768,214071.259,214076.90000009537,214087.925,218921.939,8,400,20,,ISIC_0060705.JPG
break,html.Screen,4_19_1,2023-10-31T00:18:16.238Z,,0,,,NaN,,,,,,false,,,,218896.60000002384,218896.40000009537,,218895.90000009537,,218921.939,8,400,,,
break_continue,html.Screen,4_19_2,2023-10-31T00:18:16.238Z,,0,,,NaN,,,,,,false,,,,218897,218896.90000009537,,218896.70000004768,,218921.939,8,400,,,
sequence,flow.Sequence,4_19,2023-10-31T00:18:16.238Z,,0,,,4808.975000095379,completion,,,,,false,,,,218897.10000002384,218896.90000009537,214071.259,214076.80000007153,214087.925,218921.939,8,400,,,
trial,html.Screen,4_20_0,2023-10-31T00:18:20.393Z,,0,1,,4129.3610000715125,response,ISIC_0068218.JPG,8,ISIC_0029963.JPG,ISIC_0029963.JPG,false,0,keypress(z),500,223051.70000004768,223051.30000007153,218905.273,218897.30000007153,218921.939,223055.107,8,400,21,,ISIC_0068218.JPG
break,html.Screen,4_20_1,2023-10-31T00:18:20.394Z,,0,,,NaN,,,,,,false,,,,223052.80000007153,223052.60000002384,,223052,,223055.107,8,400,,,
break_continue,html.Screen,4_20_2,2023-10-31T00:18:20.394Z,,0,,,NaN,,,,,,false,,,,223053.20000004768,223053,,223052.90000009537,,223055.107,8,400,,,
sequence,flow.Sequence,4_20,2023-10-31T00:18:20.394Z,,0,,,4131.060999999987,completion,,,,,false,,,,223053.30000007153,223053,218905.273,218897.30000007153,218921.939,223055.107,8,400,,,
trial,html.Screen,4_21_0,2023-10-31T00:18:23.936Z,,0,1,,3539.6930000715365,response,ISIC_0030128.JPG,8,ISIC_5960765.JPG,ISIC_0030128.JPG,false,1,keypress(m),500,226595,226594.80000007153,223038.441,223053.5,223055.107,226604.965,8,400,22,,ISIC_5960765.JPG
break,html.Screen,4_21_1,2023-10-31T00:18:23.936Z,,0,,,NaN,,,,,,false,,,,226595.30000007153,226595.30000007153,,226595.10000002384,,226604.965,8,400,,,
break_continue,html.Screen,4_21_2,2023-10-31T00:18:23.936Z,,0,,,NaN,,,,,,false,,,,226595.5,226595.40000009537,,226595.40000009537,,226604.965,8,400,,,
sequence,flow.Sequence,4_21,2023-10-31T00:18:23.936Z,,0,,,3540.2930000953784,completion,,,,,false,,,,226595.60000002384,226595.40000009537,223038.441,223053.5,223055.107,226604.965,8,400,,,
trial,html.Screen,4_22_0,2023-10-31T00:18:28.102Z,,0,1,,4155.435000095371,response,ISIC_0055549.JPG,6,ISIC_6208222.JPG,ISIC_6208222.JPG,false,0,keypress(z),500,230761,230760.40000009537,226588.299,226595.70000004768,226604.965,230772.143,8,400,23,,ISIC_0055549.JPG
break,html.Screen,4_22_1,2023-10-31T00:18:28.103Z,,0,,,NaN,,,,,,false,,,,230762,230761.80000007153,,230761.20000004768,,230772.143,8,400,,,
break_continue,html.Screen,4_22_2,2023-10-31T00:18:28.103Z,,0,,,NaN,,,,,,false,,,,230762.30000007153,230762.20000004768,,230762.10000002384,,230772.143,8,400,,,
sequence,flow.Sequence,4_22,2023-10-31T00:18:28.103Z,,0,,,4157.235000047687,completion,,,,,false,,,,230762.5,230762.20000004768,226588.299,226595.70000004768,226604.965,230772.143,8,400,,,
trial,html.Screen,4_23_0,2023-10-31T00:18:34.335Z,,0,1,,6222.157000071515,response,ISIC_0001602.JPG,8,ISIC_8354042.JPG,ISIC_8354042.JPG,false,0,keypress(z),500,236994.80000007153,236994.30000007153,230755.477,230762.60000002384,230772.143,237005.227,8,400,24,,ISIC_0001602.JPG
break,html.Screen,4_23_1,2023-10-31T00:18:34.336Z,,0,,,NaN,,,,,,false,,,,236995.80000007153,236995.60000002384,,236995.10000002384,,237005.227,8,400,,,
break_continue,html.Screen,4_23_2,2023-10-31T00:18:34.337Z,,0,,,NaN,,,,,,false,,,,236996.20000004768,236996,,236995.90000009537,,237005.227,8,400,,,
sequence,flow.Sequence,4_23,2023-10-31T00:18:34.337Z,,0,,,6223.856999999989,completion,,,,,false,,,,236996.30000007153,236996,230755.477,230762.60000002384,230772.143,237005.227,8,400,,,
trial,html.Screen,4_24_0,2023-10-31T00:18:38.883Z,,0,1,,4536.873000023828,response,ISIC_0062517.JPG,4,ISIC_8355446.JPG,ISIC_0062517.JPG,false,1,keypress(m),500,241542.60000002384,241542.10000002384,236988.561,236996.5,237005.227,241555.766,8,400,25,,ISIC_8355446.JPG
break,html.Screen,4_24_1,2023-10-31T00:18:38.884Z,,0,,,NaN,,,,,,false,,,,241543.60000002384,241543.40000009537,,241542.90000009537,,241555.766,8,400,,,
break_continue,html.Screen,4_24_2,2023-10-31T00:18:38.884Z,,0,,,NaN,,,,,,false,,,,241544,241543.80000007153,,241543.80000007153,,241555.766,8,400,,,
sequence,flow.Sequence,4_24,2023-10-31T00:18:38.884Z,,0,,,4538.573000071512,completion,,,,,false,,,,241544.20000004768,241543.80000007153,236988.561,236996.40000009537,237005.227,241555.766,8,400,,,
trial,html.Screen,4_25_0,2023-10-31T00:18:44.576Z,,0,1,,5679.4340000476805,response,ISIC_0014694.JPG,6,ISIC_0065477.JPG,ISIC_0065477.JPG,false,0,keypress(z),500,247235.80000007153,247235.20000004768,241539.1,241544.30000007153,241555.766,247238.872,8,400,26,,ISIC_0014694.JPG
break,html.Screen,4_25_1,2023-10-31T00:18:44.577Z,,0,,,NaN,,,,,,false,,,,247236.80000007153,247236.60000002384,,247236,,247238.872,8,400,,,
break_continue,html.Screen,4_25_2,2023-10-31T00:18:44.577Z,,0,,,NaN,,,,,,false,,,,247237.10000002384,247237.10000002384,,247236.90000009537,,247238.872,8,400,,,
sequence,flow.Sequence,4_25,2023-10-31T00:18:44.577Z,,0,,,5681.334000023839,completion,,,,,false,,,,247237.30000007153,247237.10000002384,241539.1,241544.20000004768,241555.766,247238.872,8,400,,,
trial,html.Screen,4_26_0,2023-10-31T00:18:49.239Z,,0,1,,4659.627999999997,response,ISIC_3560519.JPG,8,ISIC_0071458.JPG,ISIC_0071458.JPG,false,0,keypress(z),500,251899,251898.5,247222.206,247237.5,247238.872,251906.061,8,400,27,,ISIC_3560519.JPG
break,html.Screen,4_26_1,2023-10-31T00:18:49.240Z,,0,,,NaN,,,,,,false,,,,251900,251899.90000009537,,251899.30000007153,,251906.061,8,400,,,
break_continue,html.Screen,4_26_2,2023-10-31T00:18:49.240Z,,0,,,NaN,,,,,,false,,,,251900.40000009537,251900.30000007153,,251900.20000004768,,251906.061,8,400,,,
sequence,flow.Sequence,4_26,2023-10-31T00:18:49.240Z,,0,,,4661.428000071523,completion,,,,,false,,,,251900.60000002384,251900.30000007153,247222.206,247237.5,247238.872,251906.061,8,400,,,
trial,html.Screen,4_27_0,2023-10-31T00:18:54.109Z,,0,1,,4863.239000071539,response,ISIC_0028444.JPG,8,ISIC_1560272.JPG,ISIC_0028444.JPG,false,1,keypress(m),500,256769.80000007153,256769.30000007153,251889.395,251900.80000007153,251906.061,256772.533,8,400,28,,ISIC_1560272.JPG
break,html.Screen,4_27_1,2023-10-31T00:18:54.110Z,,0,,,NaN,,,,,,false,,,,256770.80000007153,256770.5,,256770,,256772.533,8,400,,,
break_continue,html.Screen,4_27_2,2023-10-31T00:18:54.111Z,,0,,,NaN,,,,,,false,,,,256771.20000004768,256771.10000002384,,256770.90000009537,,256772.533,8,400,,,
sequence,flow.Sequence,4_27,2023-10-31T00:18:54.111Z,,0,,,4865.039000023855,completion,,,,,false,,,,256771.40000009537,256771.10000002384,251889.395,251900.70000004768,251906.061,256772.533,8,400,,,
trial,html.Screen,4_28_0,2023-10-31T00:18:59.073Z,,0,1,,4960.067000023846,response,ISIC_3466769.JPG,8,ISIC_0469314.JPG,ISIC_0469314.JPG,false,0,keypress(z),500,261733.10000002384,261732.60000002384,256755.867,256771.70000004768,256772.533,261739.001,8,400,29,,ISIC_3466769.JPG
break,html.Screen,4_28_1,2023-10-31T00:18:59.073Z,,0,,,NaN,,,,,,false,,,,261734.10000002384,261734,,261733.40000009537,,261739.001,8,400,,,
break_continue,html.Screen,4_28_2,2023-10-31T00:18:59.074Z,,0,,,NaN,,,,,,false,,,,261734.5,261734.30000007153,,261734.30000007153,,261739.001,8,400,,,
sequence,flow.Sequence,4_28,2023-10-31T00:18:59.074Z,,0,,,4961.76700007153,completion,,,,,false,,,,261734.60000002384,261734.30000007153,256755.867,256771.60000002384,256772.533,261739.001,8,400,,,
trial,html.Screen,4_29_0,2023-10-31T00:19:04.711Z,,0,1,,5632.699000047694,response,ISIC_0032928.JPG,7,ISIC_8389361.JPG,ISIC_0032928.JPG,false,1,keypress(m),500,267372.3000000715,267371.7000000477,261722.335,261734.80000007153,261739.001,267389.636,8,400,30,,ISIC_8389361.JPG
break,html.Screen,4_29_1,2023-10-31T00:19:04.712Z,,0,,,NaN,,,,,,false,,,,267373.3000000715,267373.10000002384,,267372.60000002384,,267389.636,8,400,,,
break_continue,html.Screen,4_29_2,2023-10-31T00:19:04.713Z,,0,,,NaN,,,,,,false,,,,267373.7000000477,267373.5,,267373.5,,267389.636,8,400,,,
sequence,flow.Sequence,4_29,2023-10-31T00:19:04.713Z,,0,,,5634.499000000011,completion,,,,,false,,,,267373.90000009537,267373.5,261722.335,261734.80000007153,261739.001,267389.636,8,400,,,
trial,html.Screen,4_30_0,2023-10-31T00:19:09.452Z,,0,1,,4723.164000071527,response,ISIC_0010778.JPG,8,ISIC_8066110.JPG,ISIC_8066110.JPG,false,0,keypress(z),500,272113.10000002384,272112.8000000715,267372.97,267374,267389.636,272123.502,8,400,31,,ISIC_0010778.JPG
break,html.Screen,4_30_1,2023-10-31T00:19:09.453Z,,0,,,NaN,,,,,,false,,,,272113.8000000715,272113.7000000477,,272113.40000009537,,272123.502,8,400,,,
break_continue,html.Screen,4_30_2,2023-10-31T00:19:09.453Z,,0,,,NaN,,,,,,false,,,,272114.10000002384,272114,,272113.90000009537,,272123.502,8,400,,,
sequence,flow.Sequence,4_30,2023-10-31T00:19:09.453Z,,0,,,4724.364000000001,completion,,,,,false,,,,272114.2000000477,272114,267372.97,267373.90000009537,267389.636,272123.502,8,400,,,
trial,html.Screen,4_31_0,2023-10-31T00:19:16.357Z,,0,1,,6894.798000071547,response,ISIC_0016094.JPG,4,ISIC_6446779.JPG,ISIC_0016094.JPG,false,1,keypress(m),500,279018.7000000477,279018.3000000715,272106.836,272114.3000000715,272123.502,279023.226,8,400,32,,ISIC_6446779.JPG
break,html.Screen,4_31_1,2023-10-31T00:19:16.358Z,,0,,,NaN,,,,,,false,,,,279019.7000000477,279019.7000000477,,279019.10000002384,,279023.226,8,400,,,
break_continue,html.Screen,4_31_2,2023-10-31T00:19:16.359Z,,0,,,NaN,,,,,,false,,,,279020.2000000477,279020,,279019.90000009537,,279023.226,8,400,,,
sequence,flow.Sequence,4_31,2023-10-31T00:19:16.359Z,,0,,,6896.498000000021,completion,,,,,false,,,,279020.40000009537,279020,272106.836,272114.3000000715,272123.502,279023.226,8,400,,,
trial,html.Screen,4_32_0,2023-10-31T00:19:22.764Z,,0,1,,6401.574000071501,response,ISIC_0059065.JPG,9,ISIC_0027252.JPG,ISIC_0027252.JPG,false,0,keypress(z),500,285425.3000000715,285424.8000000715,279006.56,279020.40000009537,279023.226,285440.256,8,400,33,,ISIC_0059065.JPG
break,html.Screen,4_32_1,2023-10-31T00:19:22.765Z,,0,,,NaN,,,,,,false,,,,285426.2000000477,285426,,285425.60000002384,,285440.256,8,400,,,
break_continue,html.Screen,4_32_2,2023-10-31T00:19:22.765Z,,0,,,NaN,,,,,,false,,,,285426.60000002384,285426.5,,285426.40000009537,,285440.256,8,400,,,
sequence,flow.Sequence,4_32,2023-10-31T00:19:22.765Z,,0,,,6403.273999999976,completion,,,,,false,,,,285426.8000000715,285426.5,279006.56,279020.40000009537,279023.226,285440.256,8,400,,,
trial,html.Screen,4_33_0,2023-10-31T00:19:28.929Z,,0,1,,6149.94400004769,response,ISIC_0013457.JPG,6,ISIC_7503950.JPG,ISIC_0013457.JPG,false,1,keypress(m),500,291590.60000002384,291590.2000000477,285423.59,285426.90000009537,285440.256,291606.676,8,400,34,,ISIC_7503950.JPG
break,html.Screen,4_33_1,2023-10-31T00:19:28.930Z,,0,,,NaN,,,,,,false,,,,291591.60000002384,291591.40000009537,,291590.90000009537,,291606.676,8,400,,,
break_continue,html.Screen,4_33_2,2023-10-31T00:19:28.930Z,,0,,,NaN,,,,,,false,,,,291591.90000009537,291591.8000000715,,291591.8000000715,,291606.676,8,400,,,
sequence,flow.Sequence,4_33,2023-10-31T00:19:28.930Z,,0,,,6151.544000071532,completion,,,,,false,,,,291592.2000000477,291591.8000000715,285423.59,285426.90000009537,285440.256,291606.676,8,400,,,
trial,html.Screen,4_34_0,2023-10-31T00:19:40.433Z,,0,1,,11517.277000000002,timeout,ISIC_2690597.JPG,6,ISIC_4777536.JPG,,false,,,500,303095.60000002384,303095.10000002384,291590.01,291592.3000000715,291606.676,303123.953,8,400,35,,
break,html.Screen,4_34_1,2023-10-31T00:19:40.434Z,,0,,,NaN,,,,,,false,,,,303096.60000002384,303096.40000009537,,303095.90000009537,,303123.953,8,400,,,
break_continue,html.Screen,4_34_2,2023-10-31T00:19:40.435Z,,0,,,NaN,,,,,,false,,,,303096.90000009537,303096.90000009537,,303096.7000000477,,303123.953,8,400,,,
sequence,flow.Sequence,4_34,2023-10-31T00:19:40.435Z,,0,,,11490.22400009539,completion,,,,,false,,,,303097.10000002384,303096.90000009537,291590.01,291592.2000000477,291606.676,303123.953,8,400,,,
trial,html.Screen,4_35_0,2023-10-31T00:19:44.646Z,,0,1,,4184.147000023862,response,ISIC_0033546.JPG,7,ISIC_8692950.JPG,ISIC_8692950.JPG,false,0,keypress(z),500,307308.40000009537,307308.10000002384,303107.287,303097.3000000715,303123.953,307323.785,8,400,36,,ISIC_0033546.JPG
break,html.Screen,4_35_1,2023-10-31T00:19:44.647Z,,0,,,NaN,,,,,,false,,,,307309.10000002384,307309,,307308.60000002384,,307323.785,8,400,,,
break_continue,html.Screen,4_35_2,2023-10-31T00:19:44.647Z,,0,,,NaN,,,,,,false,,,,307309.3000000715,307309.3000000715,,307309.2000000477,,307323.785,8,400,,,
sequence,flow.Sequence,4_35,2023-10-31T00:19:44.647Z,,0,,,4185.347000071546,completion,,,,,false,,,,307309.5,307309.3000000715,303107.287,303097.3000000715,303123.953,307323.785,8,400,,,
trial,html.Screen,4_36_0,2023-10-31T00:19:48.517Z,,0,1,,3855.515000071551,response,ISIC_1431777.JPG,9,ISIC_9072567.JPG,ISIC_1431777.JPG,false,1,keypress(m),500,311179.7000000477,311179.3000000715,307307.119,307309.60000002384,307323.785,311190.297,8,400,37,,ISIC_9072567.JPG
break,html.Screen,4_36_1,2023-10-31T00:19:48.518Z,,0,,,NaN,,,,,,false,,,,311180.7000000477,311180.5,,311180,,311190.297,8,400,,,
break_continue,html.Screen,4_36_2,2023-10-31T00:19:48.518Z,,0,,,NaN,,,,,,false,,,,311181.10000002384,311181,,311180.8000000715,,311190.297,8,400,,,
sequence,flow.Sequence,4_36,2023-10-31T00:19:48.519Z,,0,,,3857.2150000000256,completion,,,,,false,,,,311181.2000000477,311181,307307.119,307309.5,307323.785,311190.297,8,400,,,
trial,html.Screen,4_37_0,2023-10-31T00:19:52.901Z,,0,1,,4373.103000095347,response,ISIC_8814612.JPG,5,ISIC_0068966.JPG,ISIC_8814612.JPG,false,1,keypress(m),500,315564,315563.40000009537,311173.631,311181.5,311190.297,315574.613,8,400,38,,ISIC_0068966.JPG
break,html.Screen,4_37_1,2023-10-31T00:19:52.902Z,,0,,,NaN,,,,,,false,,,,315564.90000009537,315564.8000000715,,315564.3000000715,,315574.613,8,400,,,
break_continue,html.Screen,4_37_2,2023-10-31T00:19:52.903Z,,0,,,NaN,,,,,,false,,,,315565.40000009537,315565.2000000477,,315565.10000002384,,315574.613,8,400,,,
sequence,flow.Sequence,4_37,2023-10-31T00:19:52.903Z,,0,,,4374.903000047663,completion,,,,,false,,,,315565.5,315565.2000000477,311173.631,311181.3000000715,311190.297,315574.613,8,400,,,
trial,html.Screen,4_38_0,2023-10-31T00:20:00.123Z,,0,1,,7211.587000047672,response,ISIC_0013472.JPG,8,ISIC_3305153.JPG,ISIC_3305153.JPG,false,0,keypress(z),500,322786.60000002384,322786.2000000477,315557.947,315565.7000000477,315574.613,322790.991,8,400,39,,ISIC_0013472.JPG
break,html.Screen,4_38_1,2023-10-31T00:20:00.124Z,,0,,,NaN,,,,,,false,,,,322787.60000002384,322787.40000009537,,322786.90000009537,,322790.991,8,400,,,
break_continue,html.Screen,4_38_2,2023-10-31T00:20:00.125Z,,0,,,NaN,,,,,,false,,,,322788,322787.90000009537,,322787.7000000477,,322790.991,8,400,,,
sequence,flow.Sequence,4_38,2023-10-31T00:20:00.125Z,,0,,,7213.287000095355,completion,,,,,false,,,,322788.2000000477,322787.90000009537,315557.947,315565.7000000477,315574.613,322790.991,8,400,,,
trial,html.Screen,4_39_0,2023-10-31T00:20:06.672Z,,0,1,,6543.809000071546,response,ISIC_0438136.JPG,9,ISIC_2852805.JPG,ISIC_0438136.JPG,false,1,keypress(m),500,329335.3000000715,329334.8000000715,322774.325,322788.40000009537,322790.991,329341.429,8,400,40,,ISIC_2852805.JPG
break,html.Screen,4_39_1,2023-10-31T00:20:06.673Z,,0,,,NaN,,,,,,false,,,,329336.40000009537,329336.2000000477,,329335.7000000477,,329341.429,8,400,,,
break_continue,html.Screen,4_39_2,2023-10-31T00:20:06.673Z,,0,,,NaN,,,,,,false,,,,329336.8000000715,329336.7000000477,,329336.5,,329341.429,8,400,,,
sequence,flow.Sequence,4_39,2023-10-31T00:20:06.674Z,,0,,,6545.709000047704,completion,,,,,false,,,,329336.90000009537,329336.7000000477,322774.325,322788.3000000715,322790.991,329341.429,8,400,,,
trial,html.Screen,4_40_0,2023-10-31T00:20:10.109Z,,0,1,,3430.871000071522,response,ISIC_5826878.JPG,8,ISIC_0030817.JPG,ISIC_0030817.JPG,false,0,keypress(z),500,332772.8000000715,332772.3000000715,329324.763,329337.10000002384,329341.429,332791.291,8,400,41,,ISIC_5826878.JPG
break,html.Screen,4_40_1,2023-10-31T00:20:10.110Z,,0,,,NaN,,,,,,false,,,,332773.8000000715,332773.60000002384,,332773.10000002384,,332791.291,8,400,,,
break_continue,html.Screen,4_40_2,2023-10-31T00:20:10.111Z,,0,,,NaN,,,,,,false,,,,332774.10000002384,332774,,332773.90000009537,,332791.291,8,400,,,
sequence,flow.Sequence,4_40,2023-10-31T00:20:10.111Z,,0,,,3432.5709999999963,completion,,,,,false,,,,332774.40000009537,332774,329324.763,329337.10000002384,329341.429,332791.291,8,400,,,
trial,html.Screen,4_41_0,2023-10-31T00:20:14.772Z,,0,1,,4643.509000071499,response,ISIC_5499139.JPG,7,ISIC_0033180.JPG,ISIC_5499139.JPG,false,1,keypress(m),500,337435.40000009537,337434.8000000715,332774.625,332774.5,332791.291,337441.866,8,400,42,,ISIC_0033180.JPG
break,html.Screen,4_41_1,2023-10-31T00:20:14.773Z,,0,,,NaN,,,,,,false,,,,337436.3000000715,337436.2000000477,,337435.7000000477,,337441.866,8,400,,,
break_continue,html.Screen,4_41_2,2023-10-31T00:20:14.773Z,,0,,,NaN,,,,,,false,,,,337436.8000000715,337436.60000002384,,337436.5,,337441.866,8,400,,,
sequence,flow.Sequence,4_41,2023-10-31T00:20:14.773Z,,0,,,4645.309000023815,completion,,,,,false,,,,337437,337436.60000002384,332774.625,332774.5,332791.291,337441.866,8,400,,,
trial,html.Screen,4_42_0,2023-10-31T00:20:19.945Z,,0,1,,5166.934000071546,response,ISIC_0033344.JPG,5,ISIC_8493108.JPG,ISIC_8493108.JPG,false,0,keypress(z),500,342609.3000000715,342608.8000000715,337425.2,337437.10000002384,337441.866,342624.992,8,400,43,,ISIC_0033344.JPG
break,html.Screen,4_42_1,2023-10-31T00:20:19.946Z,,0,,,NaN,,,,,,false,,,,342610.3000000715,342610.10000002384,,342609.60000002384,,342624.992,8,400,,,
break_continue,html.Screen,4_42_2,2023-10-31T00:20:19.947Z,,0,,,NaN,,,,,,false,,,,342610.60000002384,342610.60000002384,,342610.5,,342624.992,8,400,,,
sequence,flow.Sequence,4_42,2023-10-31T00:20:19.947Z,,0,,,5168.734000023862,completion,,,,,false,,,,342610.90000009537,342610.60000002384,337425.2,337437,337441.866,342624.992,8,400,,,
trial,html.Screen,4_43_0,2023-10-31T00:20:24.243Z,,0,1,,4281.208000047656,response,ISIC_5519357.JPG,8,ISIC_0026812.JPG,ISIC_5519357.JPG,false,1,keypress(m),500,346906.7000000477,346906.2000000477,342608.326,342611.10000002384,342624.992,346908.835,8,400,44,,ISIC_0026812.JPG
break,html.Screen,4_43_1,2023-10-31T00:20:24.244Z,,0,,,NaN,,,,,,false,,,,346907.7000000477,346907.5,,346907,,346908.835,8,400,,,
break_continue,html.Screen,4_43_2,2023-10-31T00:20:24.244Z,,0,,,NaN,,,,,,false,,,,346908.10000002384,346907.90000009537,,346907.8000000715,,346908.835,8,400,,,
sequence,flow.Sequence,4_43,2023-10-31T00:20:24.244Z,,0,,,4282.90800009534,completion,,,,,false,,,,346908.3000000715,346907.90000009537,342608.326,342611,342624.992,346908.835,8,400,,,
trial,html.Screen,4_44_0,2023-10-31T00:20:28.211Z,,0,1,,3966.4650000715046,response,ISIC_0030002.JPG,8,ISIC_0028445.JPG,ISIC_0028445.JPG,false,0,keypress(z),500,350875.60000002384,350875.3000000715,346892.169,346908.40000009537,346908.835,350892.009,8,400,45,,ISIC_0030002.JPG
break,html.Screen,4_44_1,2023-10-31T00:20:28.212Z,,0,,,NaN,,,,,,false,,,,350876.2000000477,350876,,350875.7000000477,,350892.009,8,400,,,
break_continue,html.Screen,4_44_2,2023-10-31T00:20:28.212Z,,0,,,NaN,,,,,,false,,,,350876.40000009537,350876.3000000715,,350876.3000000715,,350892.009,8,400,,,
sequence,flow.Sequence,4_44,2023-10-31T00:20:28.212Z,,0,,,3967.4650000715046,completion,,,,,false,,,,350876.5,350876.3000000715,346892.169,346908.3000000715,346908.835,350892.009,8,400,,,
trial,html.Screen,4_45_0,2023-10-31T00:20:32.569Z,,0,1,,4341.091000023822,response,ISIC_6625102.JPG,7,ISIC_4348579.JPG,ISIC_4348579.JPG,false,0,keypress(z),500,355233.60000002384,355233.10000002384,350875.343,350876.5,350892.009,355242.602,8,400,46,,ISIC_6625102.JPG
break,html.Screen,4_45_1,2023-10-31T00:20:32.570Z,,0,,,NaN,,,,,,false,,,,355234.7000000477,355234.5,,355234.10000002384,,355242.602,8,400,,,
break_continue,html.Screen,4_45_2,2023-10-31T00:20:32.571Z,,0,,,NaN,,,,,,false,,,,355235.10000002384,355235,,355234.8000000715,,355242.602,8,400,,,
sequence,flow.Sequence,4_45,2023-10-31T00:20:32.571Z,,0,,,4342.99099999998,completion,,,,,false,,,,355235.3000000715,355235,350875.343,350876.5,350892.009,355242.602,8,400,,,
trial,html.Screen,4_46_0,2023-10-31T00:20:36.221Z,,0,1,,3642.59800004767,response,ISIC_3649766.JPG,5,ISIC_0033470.JPG,ISIC_3649766.JPG,false,1,keypress(m),500,358885.7000000477,358885.2000000477,355225.936,355235.40000009537,355242.602,358892.456,8,400,47,,ISIC_0033470.JPG
break,html.Screen,4_46_1,2023-10-31T00:20:36.222Z,,0,,,NaN,,,,,,false,,,,358886.7000000477,358886.5,,358886,,358892.456,8,400,,,
break_continue,html.Screen,4_46_2,2023-10-31T00:20:36.222Z,,0,,,NaN,,,,,,false,,,,358887.10000002384,358887,,358886.8000000715,,358892.456,8,400,,,
sequence,flow.Sequence,4_46,2023-10-31T00:20:36.223Z,,0,,,3644.3979999999865,completion,,,,,false,,,,358887.2000000477,358887,355225.936,355235.3000000715,355242.602,358892.456,8,400,,,
trial,html.Screen,4_47_0,2023-10-31T00:20:41.147Z,,0,1,,4918.543999999994,response,ISIC_0012988.JPG,7,ISIC_2894223.JPG,ISIC_2894223.JPG,false,0,keypress(z),500,363811.5,363811,358875.79,358887.40000009537,358892.456,363825.592,8,400,48,,ISIC_0012988.JPG
break,html.Screen,4_47_1,2023-10-31T00:20:41.148Z,,0,,,NaN,,,,,,false,,,,363812.5,363812.3000000715,,363811.8000000715,,363825.592,8,400,,,
break_continue,html.Screen,4_47_2,2023-10-31T00:20:41.148Z,,0,,,NaN,,,,,,false,,,,363812.90000009537,363812.8000000715,,363812.7000000477,,363825.592,8,400,,,
sequence,flow.Sequence,4_47,2023-10-31T00:20:41.148Z,,0,,,4920.34400007152,completion,,,,,false,,,,363813,363812.8000000715,358875.79,358887.3000000715,358892.456,363825.592,8,400,,,
trial,html.Screen,4_48_0,2023-10-31T00:20:46.303Z,,0,1,,5142.407999999996,response,ISIC_0011295.JPG,5,ISIC_0011350.JPG,ISIC_0011295.JPG,false,1,keypress(m),500,368968.5,368968,363808.926,363813.2000000477,363825.592,368976.088,8,400,49,,ISIC_0011350.JPG
break,html.Screen,4_48_1,2023-10-31T00:20:46.304Z,,0,,,NaN,,,,,,false,,,,368969.5,368969.2000000477,,368968.8000000715,,368976.088,8,400,,,
break_continue,html.Screen,4_48_2,2023-10-31T00:20:46.305Z,,0,,,NaN,,,,,,false,,,,368969.90000009537,368969.8000000715,,368969.60000002384,,368976.088,8,400,,,
sequence,flow.Sequence,4_48,2023-10-31T00:20:46.305Z,,0,,,5144.208000071521,completion,,,,,false,,,,368970,368969.8000000715,363808.926,363813.2000000477,363825.592,368976.088,8,400,,,
trial,html.Screen,4_49_0,2023-10-31T00:20:50.089Z,,0,1,,3777.912000000011,response,ISIC_4544879.JPG,8,ISIC_6125358.JPG,ISIC_6125358.JPG,false,0,keypress(z),500,372754.5,372754,368959.422,368970.2000000477,368976.088,372759.27,8,400,50,,ISIC_4544879.JPG
break,html.Screen,4_49_1,2023-10-31T00:21:00.082Z,,0,,,10000.296999999962,timeout,,,,,false,,,,382747.40000009537,382742.901,372742.604,372754.90000009537,372759.27,382759.567,8,400,,,
break_continue,html.Screen,4_49_2,2023-10-31T00:22:11.613Z,,0,,,71508.33300009539,response,,,,,false,continue,keypress(Space),,454281.2000000477,454267.90000009537,382742.901,382747.60000002384,382759.567,454290.039,8,400,,,
sequence,flow.Sequence,4_49,2023-10-31T00:22:11.613Z,,0,,,85291.81200009538,completion,,,,,false,,,,454282,454267.90000009537,368959.422,368970.10000002384,368976.088,454290.039,8,400,,,
trial,html.Screen,4_50_0,2023-10-31T00:22:15.591Z,,0,2,,3968.9610000000102,response,ISIC_7141361.JPG,5,ISIC_8719134.JPG,ISIC_7141361.JPG,false,1,keypress(m),500,458259.5,458259,454273.373,454282.10000002384,454290.039,458261.916,8,400,1,,ISIC_8719134.JPG
break,html.Screen,4_50_1,2023-10-31T00:22:15.592Z,,0,,,NaN,,,,,,false,,,,458260.60000002384,458260.3000000715,,458259.8000000715,,458261.916,8,400,,,
break_continue,html.Screen,4_50_2,2023-10-31T00:22:15.592Z,,0,,,NaN,,,,,,false,,,,458261,458260.8000000715,,458260.7000000477,,458261.916,8,400,,,
sequence,flow.Sequence,4_50,2023-10-31T00:22:15.592Z,,0,,,3970.761000071536,completion,,,,,false,,,,458261.10000002384,458260.8000000715,454273.373,454282,454290.039,458261.916,8,400,,,
trial,html.Screen,4_51_0,2023-10-31T00:22:19.917Z,,0,2,,4323.5839999999735,response,ISIC_0069791.JPG,7,ISIC_7759376.JPG,ISIC_7759376.JPG,false,0,keypress(z),500,462586.10000002384,462585.5,458245.25,458261.2000000477,458261.916,462595.076,8,400,2,,ISIC_0069791.JPG
break,html.Screen,4_51_1,2023-10-31T00:22:19.918Z,,0,,,NaN,,,,,,false,,,,462587.10000002384,462586.8000000715,,462586.40000009537,,462595.076,8,400,,,
break_continue,html.Screen,4_51_2,2023-10-31T00:22:19.918Z,,0,,,NaN,,,,,,false,,,,462587.40000009537,462587.3000000715,,462587.2000000477,,462595.076,8,400,,,
sequence,flow.Sequence,4_51,2023-10-31T00:22:19.919Z,,0,,,4325.384000071499,completion,,,,,false,,,,462587.60000002384,462587.3000000715,458245.25,458261.2000000477,458261.916,462595.076,8,400,,,
trial,html.Screen,4_52_0,2023-10-31T00:22:24.257Z,,0,2,,4330.724000071525,response,ISIC_0011665.JPG,7,ISIC_9522489.JPG,ISIC_9522489.JPG,false,0,keypress(z),500,466926.10000002384,466925.8000000715,462578.41,462587.90000009537,462595.076,466929.206,8,400,3,,ISIC_0011665.JPG
break,html.Screen,4_52_1,2023-10-31T00:22:24.258Z,,0,,,NaN,,,,,,false,,,,466926.8000000715,466926.7000000477,,466926.3000000715,,466929.206,8,400,,,
break_continue,html.Screen,4_52_2,2023-10-31T00:22:24.258Z,,0,,,NaN,,,,,,false,,,,466927.10000002384,466927,,466927,,466929.206,8,400,,,
sequence,flow.Sequence,4_52,2023-10-31T00:22:24.258Z,,0,,,4331.923999999999,completion,,,,,false,,,,466927.3000000715,466927,462578.41,462587.7000000477,462595.076,466929.206,8,400,,,
trial,html.Screen,4_53_0,2023-10-31T00:22:27.999Z,,0,2,,3738.3940000238363,response,ISIC_0057259.JPG,8,ISIC_1793821.JPG,ISIC_1793821.JPG,false,0,keypress(z),500,470668,470667.60000002384,466912.54,466927.40000009537,466929.206,470679.056,8,400,4,,ISIC_0057259.JPG
break,html.Screen,4_53_1,2023-10-31T00:22:28.000Z,,0,,,NaN,,,,,,false,,,,470669,470668.8000000715,,470668.40000009537,,470679.056,8,400,,,
break_continue,html.Screen,4_53_2,2023-10-31T00:22:28.000Z,,0,,,NaN,,,,,,false,,,,470669.40000009537,470669.3000000715,,470669.10000002384,,470679.056,8,400,,,
sequence,flow.Sequence,4_53,2023-10-31T00:22:28.000Z,,0,,,3740.09400007152,completion,,,,,false,,,,470669.60000002384,470669.3000000715,466912.54,466927.3000000715,466929.206,470679.056,8,400,,,
trial,html.Screen,4_54_0,2023-10-31T00:22:31.253Z,,0,2,,3242.9440000000177,response,ISIC_0941332.JPG,6,ISIC_0027696.JPG,ISIC_0941332.JPG,false,1,keypress(m),500,473922.60000002384,473922,470662.39,470669.7000000477,470679.056,473928.926,8,400,5,,ISIC_0027696.JPG
break,html.Screen,4_54_1,2023-10-31T00:22:31.256Z,,0,,,NaN,,,,,,false,,,,473925,473923.40000009537,,473922.8000000715,,473928.926,8,400,,,
break_continue,html.Screen,4_54_2,2023-10-31T00:22:31.256Z,,0,,,NaN,,,,,,false,,,,473925.40000009537,473925.2000000477,,473925.10000002384,,473928.926,8,400,,,
sequence,flow.Sequence,4_54,2023-10-31T00:22:31.256Z,,0,,,3246.1440000477014,completion,,,,,false,,,,473925.5,473925.2000000477,470662.39,470669.7000000477,470679.056,473928.926,8,400,,,
trial,html.Screen,4_55_0,2023-10-31T00:22:34.606Z,,0,2,,3345.674000023864,response,ISIC_0033454.JPG,7,ISIC_0059411.JPG,ISIC_0033454.JPG,false,1,keypress(m),500,477275.10000002384,477274.60000002384,473912.26,473925.60000002384,473928.926,477279.42,8,400,6,,ISIC_0059411.JPG
break,html.Screen,4_55_1,2023-10-31T00:22:34.607Z,,0,,,NaN,,,,,,false,,,,477276.10000002384,477275.90000009537,,477275.40000009537,,477279.42,8,400,,,
break_continue,html.Screen,4_55_2,2023-10-31T00:22:34.607Z,,0,,,NaN,,,,,,false,,,,477276.5,477276.40000009537,,477276.2000000477,,477279.42,8,400,,,
sequence,flow.Sequence,4_55,2023-10-31T00:22:34.607Z,,0,,,3347.47400009539,completion,,,,,false,,,,477276.7000000477,477276.40000009537,473912.26,473925.60000002384,473928.926,477279.42,8,400,,,
trial,html.Screen,4_56_0,2023-10-31T00:22:38.548Z,,0,2,,3937.2800000477,response,ISIC_3552318.JPG,8,ISIC_0000118.JPG,ISIC_3552318.JPG,false,1,keypress(m),500,481217.3000000715,481216.7000000477,477262.754,477276.8000000715,477279.42,481229.262,8,400,7,,ISIC_0000118.JPG
break,html.Screen,4_56_1,2023-10-31T00:22:38.549Z,,0,,,NaN,,,,,,false,,,,481218.2000000477,481218.10000002384,,481217.60000002384,,481229.262,8,400,,,
break_continue,html.Screen,4_56_2,2023-10-31T00:22:38.549Z,,0,,,NaN,,,,,,false,,,,481218.7000000477,481218.60000002384,,481218.40000009537,,481229.262,8,400,,,
sequence,flow.Sequence,4_56,2023-10-31T00:22:38.549Z,,0,,,3939.180000023858,completion,,,,,false,,,,481218.8000000715,481218.60000002384,477262.754,477276.8000000715,477279.42,481229.262,8,400,,,
trial,html.Screen,4_57_0,2023-10-31T00:22:43.434Z,,0,2,,4873.938000047696,response,ISIC_6258744.JPG,8,ISIC_0010304.JPG,ISIC_0010304.JPG,false,0,keypress(z),500,486103.60000002384,486103.2000000477,481212.596,481219,481229.262,486112.4,8,400,8,,ISIC_6258744.JPG
break,html.Screen,4_57_1,2023-10-31T00:22:43.435Z,,0,,,NaN,,,,,,false,,,,486104.60000002384,486104.40000009537,,486103.90000009537,,486112.4,8,400,,,
break_continue,html.Screen,4_57_2,2023-10-31T00:22:43.435Z,,0,,,NaN,,,,,,false,,,,486104.90000009537,486104.90000009537,,486104.8000000715,,486112.4,8,400,,,
sequence,flow.Sequence,4_57,2023-10-31T00:22:43.435Z,,0,,,4875.6380000953795,completion,,,,,false,,,,486105.2000000477,486104.90000009537,481212.596,481219,481229.262,486112.4,8,400,,,
trial,html.Screen,4_58_0,2023-10-31T00:22:47.582Z,,0,2,,4139.099999999977,response,ISIC_6717322.JPG,9,ISIC_0015023.JPG,ISIC_6717322.JPG,false,1,keypress(m),500,490251.90000009537,490251.5,486095.734,486105.3000000715,486112.4,490263.042,8,400,9,,ISIC_0015023.JPG
break,html.Screen,4_58_1,2023-10-31T00:22:47.583Z,,0,,,NaN,,,,,,false,,,,490253,490252.8000000715,,490252.3000000715,,490263.042,8,400,,,
break_continue,html.Screen,4_58_2,2023-10-31T00:22:47.583Z,,0,,,NaN,,,,,,false,,,,490253.3000000715,490253.2000000477,,490253.10000002384,,490263.042,8,400,,,
sequence,flow.Sequence,4_58,2023-10-31T00:22:47.583Z,,0,,,4140.80000004766,completion,,,,,false,,,,490253.5,490253.2000000477,486095.734,486105.3000000715,486112.4,490263.042,8,400,,,
trial,html.Screen,4_59_0,2023-10-31T00:22:51.093Z,,0,2,,3499.2580000715097,response,ISIC_0046450.JPG,8,ISIC_4191202.JPG,ISIC_0046450.JPG,false,1,keypress(m),500,493762.7000000477,493762.3000000715,490246.376,490253.7000000477,490263.042,493779.568,8,400,10,,ISIC_4191202.JPG
break,html.Screen,4_59_1,2023-10-31T00:22:51.094Z,,0,,,NaN,,,,,,false,,,,493763.7000000477,493763.5,,493763,,493779.568,8,400,,,
break_continue,html.Screen,4_59_2,2023-10-31T00:22:51.094Z,,0,,,NaN,,,,,,false,,,,493764.2000000477,493764.10000002384,,493763.90000009537,,493779.568,8,400,,,
sequence,flow.Sequence,4_59,2023-10-31T00:22:51.094Z,,0,,,3501.058000023826,completion,,,,,false,,,,493764.40000009537,493764.10000002384,490246.376,490253.60000002384,490263.042,493779.568,8,400,,,
trial,html.Screen,4_60_0,2023-10-31T00:22:54.921Z,,0,2,,3811.6320000476553,response,ISIC_0011757.JPG,5,ISIC_8071637.JPG,ISIC_8071637.JPG,false,0,keypress(z),500,497591.60000002384,497591.2000000477,493762.902,493764.60000002384,493779.568,497596.082,8,400,11,,ISIC_0011757.JPG
break,html.Screen,4_60_1,2023-10-31T00:22:54.922Z,,0,,,NaN,,,,,,false,,,,497592.60000002384,497592.5,,497592,,497596.082,8,400,,,
break_continue,html.Screen,4_60_2,2023-10-31T00:22:54.923Z,,0,,,NaN,,,,,,false,,,,497593.10000002384,497592.90000009537,,497592.8000000715,,497596.082,8,400,,,
sequence,flow.Sequence,4_60,2023-10-31T00:22:54.923Z,,0,,,3813.332000095339,completion,,,,,false,,,,497593.2000000477,497592.90000009537,493762.902,493764.60000002384,493779.568,497596.082,8,400,,,
trial,html.Screen,4_61_0,2023-10-31T00:22:58.191Z,,0,2,,3264.7180000715307,response,ISIC_0032133.JPG,7,ISIC_9288923.JPG,ISIC_9288923.JPG,false,0,keypress(z),500,500861.40000009537,500860.8000000715,497579.416,497593.5,497596.082,500863.307,8,400,12,,ISIC_0032133.JPG
break,html.Screen,4_61_1,2023-10-31T00:22:58.192Z,,0,,,NaN,,,,,,false,,,,500862.40000009537,500862.2000000477,,500861.7000000477,,500863.307,8,400,,,
break_continue,html.Screen,4_61_2,2023-10-31T00:22:58.192Z,,0,,,NaN,,,,,,false,,,,500862.7000000477,500862.60000002384,,500862.60000002384,,500863.307,8,400,,,
sequence,flow.Sequence,4_61,2023-10-31T00:22:58.192Z,,0,,,3266.518000023847,completion,,,,,false,,,,500862.90000009537,500862.60000002384,497579.416,497593.40000009537,497596.082,500863.307,8,400,,,
trial,html.Screen,4_62_0,2023-10-31T00:23:01.253Z,,0,2,,3059.993000071554,response,ISIC_0026694.JPG,6,ISIC_0033519.JPG,ISIC_0026694.JPG,false,1,keypress(m),500,503923.8000000715,503923.3000000715,500846.641,500863.10000002384,500863.307,503929.851,8,400,13,,ISIC_0033519.JPG
break,html.Screen,4_62_1,2023-10-31T00:23:01.254Z,,0,,,NaN,,,,,,false,,,,503924.8000000715,503924.60000002384,,503924.2000000477,,503929.851,8,400,,,
break_continue,html.Screen,4_62_2,2023-10-31T00:23:01.255Z,,0,,,NaN,,,,,,false,,,,503925.10000002384,503925.10000002384,,503924.90000009537,,503929.851,8,400,,,
sequence,flow.Sequence,4_62,2023-10-31T00:23:01.255Z,,0,,,3061.7930000238703,completion,,,,,false,,,,503925.40000009537,503925.10000002384,500846.641,500863,500863.307,503929.851,8,400,,,
trial,html.Screen,4_63_0,2023-10-31T00:23:04.630Z,,0,2,,3369.9490000715014,response,ISIC_4648593.JPG,7,ISIC_4974868.JPG,ISIC_4648593.JPG,false,1,keypress(m),500,507300.3000000715,507299.8000000715,503913.185,503925.5,503929.851,507313.049,8,400,14,,ISIC_4974868.JPG
break,html.Screen,4_63_1,2023-10-31T00:23:04.631Z,,0,,,NaN,,,,,,false,,,,507301.3000000715,507301.10000002384,,507300.5,,507313.049,8,400,,,
break_continue,html.Screen,4_63_2,2023-10-31T00:23:04.631Z,,0,,,NaN,,,,,,false,,,,507301.60000002384,507301.60000002384,,507301.40000009537,,507313.049,8,400,,,
sequence,flow.Sequence,4_63,2023-10-31T00:23:04.631Z,,0,,,3371.7490000238176,completion,,,,,false,,,,507301.90000009537,507301.60000002384,503913.185,503925.5,503929.851,507313.049,8,400,,,
trial,html.Screen,4_64_0,2023-10-31T00:23:07.708Z,,0,2,,3065.8510000953684,response,ISIC_4187485.JPG,6,ISIC_0294687.JPG,ISIC_0294687.JPG,false,0,keypress(z),500,510379.10000002384,510378.90000009537,507296.383,507302,507313.049,510380.373,8,400,15,,ISIC_4187485.JPG
break,html.Screen,4_64_1,2023-10-31T00:23:07.709Z,,0,,,NaN,,,,,,false,,,,510379.60000002384,510379.5,,510379.2000000477,,510380.373,8,400,,,
break_continue,html.Screen,4_64_2,2023-10-31T00:23:07.709Z,,0,,,NaN,,,,,,false,,,,510379.8000000715,510379.7000000477,,510379.7000000477,,510380.373,8,400,,,
sequence,flow.Sequence,4_64,2023-10-31T00:23:07.709Z,,0,,,3066.6510000476846,completion,,,,,false,,,,510379.90000009537,510379.7000000477,507296.383,507302,507313.049,510380.373,8,400,,,
trial,html.Screen,4_65_0,2023-10-31T00:23:11.042Z,,0,2,,3331.927000071504,response,ISIC_0356904.JPG,8,ISIC_0030656.JPG,ISIC_0356904.JPG,false,1,keypress(m),500,513712.8000000715,513712.3000000715,510363.707,510379.90000009537,510380.373,513730.239,8,400,16,,ISIC_0030656.JPG
break,html.Screen,4_65_1,2023-10-31T00:23:11.043Z,,0,,,NaN,,,,,,false,,,,513713.8000000715,513713.60000002384,,513713.10000002384,,513730.239,8,400,,,
break_continue,html.Screen,4_65_2,2023-10-31T00:23:11.043Z,,0,,,NaN,,,,,,false,,,,513714.2000000477,513714,,513713.90000009537,,513730.239,8,400,,,
sequence,flow.Sequence,4_65,2023-10-31T00:23:11.043Z,,0,,,3333.6269999999786,completion,,,,,false,,,,513714.3000000715,513714,510363.707,510379.90000009537,510380.373,513730.239,8,400,,,
trial,html.Screen,4_66_0,2023-10-31T00:23:14.855Z,,0,2,,3795.8610000238405,response,ISIC_4641968.JPG,7,ISIC_1114966.JPG,ISIC_1114966.JPG,false,0,keypress(z),500,517526.7000000477,517526.10000002384,513713.573,513714.5,513730.239,517530.087,8,400,17,,ISIC_4641968.JPG
break,html.Screen,4_66_1,2023-10-31T00:23:14.857Z,,0,,,NaN,,,,,,false,,,,517527.8000000715,517527.60000002384,,517527.10000002384,,517530.087,8,400,,,
break_continue,html.Screen,4_66_2,2023-10-31T00:23:14.857Z,,0,,,NaN,,,,,,false,,,,517528.3000000715,517528.10000002384,,517527.90000009537,,517530.087,8,400,,,
sequence,flow.Sequence,4_66,2023-10-31T00:23:14.857Z,,0,,,3797.8610000238405,completion,,,,,false,,,,517528.40000009537,517528.10000002384,513713.573,513714.40000009537,513730.239,517530.087,8,400,,,
trial,html.Screen,4_67_0,2023-10-31T00:23:17.533Z,,0,2,,2673.313000095368,response,ISIC_0058501.JPG,8,ISIC_0000502.JPG,ISIC_0058501.JPG,false,1,keypress(m),500,520203.90000009537,520203.40000009537,517513.421,517528.5,517530.087,520213.953,8,400,18,,ISIC_0000502.JPG
break,html.Screen,4_67_1,2023-10-31T00:23:17.533Z,,0,,,NaN,,,,,,false,,,,520204.5,520204.40000009537,,520204,,520213.953,8,400,,,
break_continue,html.Screen,4_67_2,2023-10-31T00:23:17.533Z,,0,,,NaN,,,,,,false,,,,520204.7000000477,520204.7000000477,,520204.60000002384,,520213.953,8,400,,,
sequence,flow.Sequence,4_67,2023-10-31T00:23:17.534Z,,0,,,2674.613000047684,completion,,,,,false,,,,520204.90000009537,520204.7000000477,517513.421,517528.5,517530.087,520213.953,8,400,,,
trial,html.Screen,4_68_0,2023-10-31T00:23:20.589Z,,0,2,,3046.1470000238623,response,ISIC_2964397.JPG,8,ISIC_0065278.JPG,ISIC_2964397.JPG,false,1,keypress(m),500,523260.5,523260.10000002384,520197.287,520204.90000009537,520213.953,523263.831,8,400,19,,ISIC_0065278.JPG
break,html.Screen,4_68_1,2023-10-31T00:23:20.590Z,,0,,,NaN,,,,,,false,,,,523261.60000002384,523261.40000009537,,523260.90000009537,,523263.831,8,400,,,
break_continue,html.Screen,4_68_2,2023-10-31T00:23:20.591Z,,0,,,NaN,,,,,,false,,,,523261.90000009537,523261.8000000715,,523261.7000000477,,523263.831,8,400,,,
sequence,flow.Sequence,4_68,2023-10-31T00:23:20.591Z,,0,,,3047.847000071546,completion,,,,,false,,,,523262.10000002384,523261.8000000715,520197.287,520204.90000009537,520213.953,523263.831,8,400,,,
trial,html.Screen,4_69_0,2023-10-31T00:23:23.972Z,,0,2,,3379.1689999999944,response,ISIC_7835257.JPG,5,ISIC_5955057.JPG,ISIC_7835257.JPG,false,1,keypress(m),500,526643.4000000954,526643,523247.165,523262.3000000715,523263.831,526647.029,8,400,20,,ISIC_5955057.JPG
break,html.Screen,4_69_1,2023-10-31T00:23:23.973Z,,0,,,NaN,,,,,,false,,,,526644.5,526644.3000000715,,526643.8000000715,,526647.029,8,400,,,
break_continue,html.Screen,4_69_2,2023-10-31T00:23:23.973Z,,0,,,NaN,,,,,,false,,,,526644.9000000954,526644.8000000715,,526644.6000000238,,526647.029,8,400,,,
sequence,flow.Sequence,4_69,2023-10-31T00:23:23.974Z,,0,,,3380.96900007152,completion,,,,,false,,,,526645.1000000238,526644.8000000715,523247.165,523262.2000000477,523263.831,526647.029,8,400,,,
trial,html.Screen,4_70_0,2023-10-31T00:23:26.872Z,,0,2,,2896.1710000477033,response,ISIC_0061315.JPG,9,ISIC_0010251.JPG,ISIC_0010251.JPG,false,0,keypress(z),500,529543.7000000477,529543.2000000477,526630.363,526645.3000000715,526647.029,529547.648,8,400,21,,ISIC_0061315.JPG
break,html.Screen,4_70_1,2023-10-31T00:23:26.873Z,,0,,,NaN,,,,,,false,,,,529544.5,529544.3000000715,,529543.9000000954,,529547.648,8,400,,,
break_continue,html.Screen,4_70_2,2023-10-31T00:23:26.873Z,,0,,,NaN,,,,,,false,,,,529544.8000000715,529544.7000000477,,529544.6000000238,,529547.648,8,400,,,
sequence,flow.Sequence,4_70,2023-10-31T00:23:26.873Z,,0,,,2897.6710000477033,completion,,,,,false,,,,529545,529544.7000000477,526630.363,526645.3000000715,526647.029,529547.648,8,400,,,
trial,html.Screen,4_71_0,2023-10-31T00:23:29.812Z,,0,2,,2936.052000047639,response,ISIC_5888212.JPG,8,ISIC_0033157.JPG,ISIC_5888212.JPG,false,1,keypress(m),500,532484.1000000238,532483.7000000477,529530.982,529545,529547.648,532497.53,8,400,22,,ISIC_0033157.JPG
break,html.Screen,4_71_1,2023-10-31T00:23:29.813Z,,0,,,NaN,,,,,,false,,,,532485.2000000477,532485.1000000238,,532484.5,,532497.53,8,400,,,
break_continue,html.Screen,4_71_2,2023-10-31T00:23:29.814Z,,0,,,NaN,,,,,,false,,,,532485.6000000238,532485.5,,532485.3000000715,,532497.53,8,400,,,
sequence,flow.Sequence,4_71,2023-10-31T00:23:29.814Z,,0,,,2937.8519999999553,completion,,,,,false,,,,532485.8000000715,532485.5,529530.982,529545,529547.648,532497.53,8,400,,,
trial,html.Screen,4_72_0,2023-10-31T00:23:32.523Z,,0,2,,2697.570000023814,response,ISIC_0012298.JPG,7,ISIC_0027132.JPG,ISIC_0027132.JPG,false,0,keypress(z),500,535195.3000000715,535195.1000000238,532480.864,532485.9000000954,532497.53,535197.422,8,400,23,,ISIC_0012298.JPG
break,html.Screen,4_72_1,2023-10-31T00:23:32.524Z,,0,,,NaN,,,,,,false,,,,535195.9000000954,535195.7000000477,,535195.5,,535197.422,8,400,,,
break_continue,html.Screen,4_72_2,2023-10-31T00:23:32.524Z,,0,,,NaN,,,,,,false,,,,535196.1000000238,535196,,535195.9000000954,,535197.422,8,400,,,
sequence,flow.Sequence,4_72,2023-10-31T00:23:32.524Z,,0,,,2698.469999999972,completion,,,,,false,,,,535196.2000000477,535196,532480.864,532485.9000000954,532497.53,535197.422,8,400,,,
trial,html.Screen,4_73_0,2023-10-31T00:23:35.934Z,,0,2,,3407.978000095347,response,ISIC_0013473.JPG,7,ISIC_5330187.JPG,ISIC_0013473.JPG,false,1,keypress(m),500,538605.9000000954,538605.4000000954,535180.756,535196.2000000477,535197.422,538613.952,8,400,24,,ISIC_5330187.JPG
break,html.Screen,4_73_1,2023-10-31T00:23:35.935Z,,0,,,NaN,,,,,,false,,,,538606.9000000954,538606.7000000477,,538606.2000000477,,538613.952,8,400,,,
break_continue,html.Screen,4_73_2,2023-10-31T00:23:35.935Z,,0,,,NaN,,,,,,false,,,,538607.3000000715,538607.2000000477,,538607,,538613.952,8,400,,,
sequence,flow.Sequence,4_73,2023-10-31T00:23:35.935Z,,0,,,3409.778000047663,completion,,,,,false,,,,538607.4000000954,538607.2000000477,535180.756,535196.2000000477,535197.422,538613.952,8,400,,,
trial,html.Screen,4_74_0,2023-10-31T00:23:38.658Z,,0,2,,2716.1480000237934,response,ISIC_0004015.JPG,9,ISIC_0900349.JPG,ISIC_0900349.JPG,false,0,keypress(z),500,541330.5,541330.1000000238,538597.286,538607.6000000238,538613.952,541347.901,8,400,25,,ISIC_0004015.JPG
break,html.Screen,4_74_1,2023-10-31T00:23:38.659Z,,0,,,NaN,,,,,,false,,,,541331.5,541331.3000000715,,541330.8000000715,,541347.901,8,400,,,
break_continue,html.Screen,4_74_2,2023-10-31T00:23:38.660Z,,0,,,NaN,,,,,,false,,,,541331.9000000954,541331.8000000715,,541331.6000000238,,541347.901,8,400,,,
sequence,flow.Sequence,4_74,2023-10-31T00:23:38.660Z,,0,,,2717.848000071477,completion,,,,,false,,,,541332,541331.8000000715,538597.286,538607.5,538613.952,541347.901,8,400,,,
trial,html.Screen,4_75_0,2023-10-31T00:23:41.001Z,,0,2,,2325.1990000238875,response,ISIC_0004986.JPG,8,ISIC_4451735.JPG,ISIC_0004986.JPG,false,1,keypress(m),500,543673.5,543673.1000000238,541331.235,541332.1000000238,541347.901,543681.141,8,400,26,,ISIC_4451735.JPG
break,html.Screen,4_75_1,2023-10-31T00:23:41.002Z,,0,,,NaN,,,,,,false,,,,543674.2000000477,543674.1000000238,,543673.7000000477,,543681.141,8,400,,,
break_continue,html.Screen,4_75_2,2023-10-31T00:23:41.002Z,,0,,,NaN,,,,,,false,,,,543674.4000000954,543674.3000000715,,543674.3000000715,,543681.141,8,400,,,
sequence,flow.Sequence,4_75,2023-10-31T00:23:41.002Z,,0,,,2326.399000071571,completion,,,,,false,,,,543674.6000000238,543674.3000000715,541331.235,541332.1000000238,541347.901,543681.141,8,400,,,
trial,html.Screen,4_76_0,2023-10-31T00:23:43.375Z,,0,2,,2366.0590000477387,response,ISIC_0010797.JPG,8,ISIC_0068905.JPG,ISIC_0010797.JPG,false,1,keypress(m),500,546047.6000000238,546047.2000000477,543664.475,543674.6000000238,543681.141,546064.379,8,400,27,,ISIC_0068905.JPG
break,html.Screen,4_76_1,2023-10-31T00:23:43.376Z,,0,,,NaN,,,,,,false,,,,546048.6000000238,546048.4000000954,,546048,,546064.379,8,400,,,
break_continue,html.Screen,4_76_2,2023-10-31T00:23:43.377Z,,0,,,NaN,,,,,,false,,,,546049.1000000238,546049,,546048.8000000715,,546064.379,8,400,,,
sequence,flow.Sequence,4_76,2023-10-31T00:23:43.377Z,,0,,,2367.859000000055,completion,,,,,false,,,,546049.2000000477,546049,543664.475,543674.6000000238,543681.141,546064.379,8,400,,,
trial,html.Screen,4_77_0,2023-10-31T00:23:46.230Z,,0,2,,2838.0210000954103,response,ISIC_7604596.JPG,7,ISIC_8412096.JPG,ISIC_8412096.JPG,false,0,keypress(z),500,548902.8000000715,548902.4000000954,546047.713,546049.4000000954,546064.379,548914.265,8,400,28,,ISIC_7604596.JPG
break,html.Screen,4_77_1,2023-10-31T00:23:46.231Z,,0,,,NaN,,,,,,false,,,,548903.4000000954,548903.2000000477,,548902.9000000954,,548914.265,8,400,,,
break_continue,html.Screen,4_77_2,2023-10-31T00:23:46.231Z,,0,,,NaN,,,,,,false,,,,548903.5,548903.5,,548903.4000000954,,548914.265,8,400,,,
sequence,flow.Sequence,4_77,2023-10-31T00:23:46.231Z,,0,,,2839.121000000043,completion,,,,,false,,,,548903.7000000477,548903.5,546047.713,546049.3000000715,546064.379,548914.265,8,400,,,
trial,html.Screen,4_78_0,2023-10-31T00:23:49.043Z,,0,2,,2800.734999999986,response,ISIC_0046526.JPG,5,ISIC_0010618.JPG,ISIC_0010618.JPG,false,0,keypress(z),500,551715.5,551715,548897.599,548903.7000000477,548914.265,551731.602,8,400,29,,ISIC_0046526.JPG
break,html.Screen,4_78_1,2023-10-31T00:23:49.044Z,,0,,,NaN,,,,,,false,,,,551716.6000000238,551716.4000000954,,551715.8000000715,,551731.602,8,400,,,
break_continue,html.Screen,4_78_2,2023-10-31T00:23:49.044Z,,0,,,NaN,,,,,,false,,,,551716.9000000954,551716.8000000715,,551716.7000000477,,551731.602,8,400,,,
sequence,flow.Sequence,4_78,2023-10-31T00:23:49.044Z,,0,,,2802.5350000715116,completion,,,,,false,,,,551717.1000000238,551716.8000000715,548897.599,548903.7000000477,548914.265,551731.602,8,400,,,
trial,html.Screen,4_79_0,2023-10-31T00:23:51.977Z,,0,2,,2917.9980000238866,response,ISIC_0001832.JPG,9,ISIC_0057702.JPG,ISIC_0057702.JPG,false,0,keypress(z),500,554650,554649.6000000238,551714.936,551717.3000000715,551731.602,554664.818,8,400,30,,ISIC_0001832.JPG
break,html.Screen,4_79_1,2023-10-31T00:23:51.978Z,,0,,,NaN,,,,,,false,,,,554651,554650.8000000715,,554650.3000000715,,554664.818,8,400,,,
break_continue,html.Screen,4_79_2,2023-10-31T00:23:51.979Z,,0,,,NaN,,,,,,false,,,,554651.4000000954,554651.3000000715,,554651.2000000477,,554664.818,8,400,,,
sequence,flow.Sequence,4_79,2023-10-31T00:23:51.979Z,,0,,,2919.6980000715703,completion,,,,,false,,,,554651.5,554651.3000000715,551714.936,551717.2000000477,551731.602,554664.818,8,400,,,
trial,html.Screen,4_80_0,2023-10-31T00:23:54.672Z,,0,2,,2679.2820000238717,response,ISIC_9788174.JPG,8,ISIC_0030828.JPG,ISIC_9788174.JPG,false,1,keypress(m),500,557344.6000000238,557344.1000000238,554648.152,554651.6000000238,554664.818,557348.044,8,400,31,,ISIC_0030828.JPG
break,html.Screen,4_80_1,2023-10-31T00:23:54.673Z,,0,,,NaN,,,,,,false,,,,557345.5,557345.3000000715,,557344.8000000715,,557348.044,8,400,,,
break_continue,html.Screen,4_80_2,2023-10-31T00:23:54.673Z,,0,,,NaN,,,,,,false,,,,557345.9000000954,557345.8000000715,,557345.7000000477,,557348.044,8,400,,,
sequence,flow.Sequence,4_80,2023-10-31T00:23:54.673Z,,0,,,2680.9820000715554,completion,,,,,false,,,,557346.2000000477,557345.8000000715,554648.152,554651.6000000238,554664.818,557348.044,8,400,,,
trial,html.Screen,4_81_0,2023-10-31T00:23:57.364Z,,0,2,,2688.4560000000056,response,ISIC_9473492.JPG,6,ISIC_0067077.JPG,ISIC_0067077.JPG,false,0,keypress(z),500,560037,560036.5,557331.378,557346.4000000954,557348.044,560047.936,8,400,32,,ISIC_9473492.JPG
break,html.Screen,4_81_1,2023-10-31T00:23:57.365Z,,0,,,NaN,,,,,,false,,,,560038.1000000238,560037.8000000715,,560037.3000000715,,560047.936,8,400,,,
break_continue,html.Screen,4_81_2,2023-10-31T00:23:57.366Z,,0,,,NaN,,,,,,false,,,,560038.5,560038.3000000715,,560038.2000000477,,560047.936,8,400,,,
sequence,flow.Sequence,4_81,2023-10-31T00:23:57.366Z,,0,,,2690.256000071531,completion,,,,,false,,,,560038.7000000477,560038.3000000715,557331.378,557346.2000000477,557348.044,560047.936,8,400,,,
trial,html.Screen,4_82_0,2023-10-31T00:23:59.995Z,,0,2,,2619.9640000953805,response,ISIC_0054573.JPG,8,ISIC_2430937.JPG,ISIC_0054573.JPG,false,1,keypress(m),500,562668.4000000954,562667.9000000954,560031.27,560038.8000000715,560047.936,562681.866,8,400,33,,ISIC_2430937.JPG
break,html.Screen,4_82_1,2023-10-31T00:23:59.996Z,,0,,,NaN,,,,,,false,,,,562669.4000000954,562669.2000000477,,562668.7000000477,,562681.866,8,400,,,
break_continue,html.Screen,4_82_2,2023-10-31T00:23:59.997Z,,0,,,NaN,,,,,,false,,,,562669.8000000715,562669.7000000477,,562669.6000000238,,562681.866,8,400,,,
sequence,flow.Sequence,4_82,2023-10-31T00:23:59.997Z,,0,,,2621.7640000476968,completion,,,,,false,,,,562670,562669.7000000477,560031.27,560038.7000000477,560047.936,562681.866,8,400,,,
trial,html.Screen,4_83_0,2023-10-31T00:24:02.751Z,,0,2,,2742.2340000238037,response,ISIC_0073156.JPG,6,ISIC_5831880.JPG,ISIC_5831880.JPG,false,0,keypress(z),500,565424.6000000238,565424.1000000238,562665.2,562670.1000000238,562681.866,565431.756,8,400,34,,ISIC_0073156.JPG
break,html.Screen,4_83_1,2023-10-31T00:24:02.752Z,,0,,,NaN,,,,,,false,,,,565425.6000000238,565425.4000000954,,565424.9000000954,,565431.756,8,400,,,
break_continue,html.Screen,4_83_2,2023-10-31T00:24:02.753Z,,0,,,NaN,,,,,,false,,,,565426,565425.8000000715,,565425.8000000715,,565431.756,8,400,,,
sequence,flow.Sequence,4_83,2023-10-31T00:24:02.753Z,,0,,,2743.9340000714874,completion,,,,,false,,,,565426.2000000477,565425.8000000715,562665.2,562670.1000000238,562681.866,565431.756,8,400,,,
trial,html.Screen,4_84_0,2023-10-31T00:24:06.004Z,,0,2,,3245.0440000714734,response,ISIC_9181399.JPG,7,ISIC_9509757.JPG,ISIC_9181399.JPG,false,1,keypress(m),500,568677.2000000477,568676.8000000715,565415.09,565426.3000000715,565431.756,568681.626,8,400,35,,ISIC_9509757.JPG
break,html.Screen,4_84_1,2023-10-31T00:24:06.005Z,,0,,,NaN,,,,,,false,,,,568678.2000000477,568678,,568677.5,,568681.626,8,400,,,
break_continue,html.Screen,4_84_2,2023-10-31T00:24:06.005Z,,0,,,NaN,,,,,,false,,,,568678.7000000477,568678.5,,568678.4000000954,,568681.626,8,400,,,
sequence,flow.Sequence,4_84,2023-10-31T00:24:06.006Z,,0,,,3246.743999999948,completion,,,,,false,,,,568678.8000000715,568678.5,565415.09,565426.3000000715,565431.756,568681.626,8,400,,,
trial,html.Screen,4_85_0,2023-10-31T00:24:09.291Z,,0,2,,3281.8739999999525,response,ISIC_6292348.JPG,8,ISIC_0068961.JPG,ISIC_6292348.JPG,false,1,keypress(m),500,571964.1000000238,571963.5,568664.96,568679,568681.626,571965.495,8,400,36,,ISIC_0068961.JPG
break,html.Screen,4_85_1,2023-10-31T00:24:09.292Z,,0,,,NaN,,,,,,false,,,,571965,571964.9000000954,,571964.4000000954,,571965.495,8,400,,,
break_continue,html.Screen,4_85_2,2023-10-31T00:24:09.292Z,,0,,,NaN,,,,,,false,,,,571965.4000000954,571965.3000000715,,571965.2000000477,,571965.495,8,400,,,
sequence,flow.Sequence,4_85,2023-10-31T00:24:09.292Z,,0,,,3283.674000071478,completion,,,,,false,,,,571965.5,571965.3000000715,568664.96,568679,568681.626,571965.495,8,400,,,
trial,html.Screen,4_86_0,2023-10-31T00:24:11.823Z,,0,2,,2530.905000095372,response,ISIC_4619903.JPG,6,ISIC_9696846.JPG,ISIC_9696846.JPG,false,0,keypress(z),500,574496.9000000954,574496.4000000954,571948.829,571965.8000000715,571965.495,574498.727,8,400,37,,ISIC_4619903.JPG
break,html.Screen,4_86_1,2023-10-31T00:24:11.824Z,,0,,,NaN,,,,,,false,,,,574497.9000000954,574497.7000000477,,574497.2000000477,,574498.727,8,400,,,
break_continue,html.Screen,4_86_2,2023-10-31T00:24:11.825Z,,0,,,NaN,,,,,,false,,,,574498.3000000715,574498.1000000238,,574498,,574498.727,8,400,,,
sequence,flow.Sequence,4_86,2023-10-31T00:24:11.825Z,,0,,,2532.6050000238465,completion,,,,,false,,,,574498.4000000954,574498.1000000238,571948.829,571965.7000000477,571965.495,574498.727,8,400,,,
trial,html.Screen,4_87_0,2023-10-31T00:24:14.106Z,,0,2,,2280.3730000238866,response,ISIC_0053884.JPG,8,ISIC_0059601.JPG,ISIC_0053884.JPG,false,1,keypress(m),500,576779.6000000238,576779.1000000238,574482.061,574498.6000000238,574498.727,576781.969,8,400,38,,ISIC_0059601.JPG
break,html.Screen,4_87_1,2023-10-31T00:24:14.107Z,,0,,,NaN,,,,,,false,,,,576780.7000000477,576780.4000000954,,576780,,576781.969,8,400,,,
break_continue,html.Screen,4_87_2,2023-10-31T00:24:14.107Z,,0,,,NaN,,,,,,false,,,,576781,576780.9000000954,,576780.7000000477,,576781.969,8,400,,,
sequence,flow.Sequence,4_87,2023-10-31T00:24:14.108Z,,0,,,2282.173000095412,completion,,,,,false,,,,576781.2000000477,576780.9000000954,574482.061,574498.6000000238,574498.727,576781.969,8,400,,,
trial,html.Screen,4_88_0,2023-10-31T00:24:16.971Z,,0,2,,2862.131000023801,response,ISIC_6927363.JPG,6,ISIC_0033845.JPG,ISIC_6927363.JPG,false,1,keypress(m),500,579644.6000000238,579644.1000000238,576765.303,576781.4000000954,576781.969,579648.521,8,400,39,,ISIC_0033845.JPG
break,html.Screen,4_88_1,2023-10-31T00:24:16.972Z,,0,,,NaN,,,,,,false,,,,579645.6000000238,579645.4000000954,,579644.9000000954,,579648.521,8,400,,,
break_continue,html.Screen,4_88_2,2023-10-31T00:24:16.972Z,,0,,,NaN,,,,,,false,,,,579646,579645.8000000715,,579645.8000000715,,579648.521,8,400,,,
sequence,flow.Sequence,4_88,2023-10-31T00:24:16.972Z,,0,,,2863.8310000714846,completion,,,,,false,,,,579646.2000000477,579645.8000000715,576765.303,576781.2000000477,576781.969,579648.521,8,400,,,
trial,html.Screen,4_89_0,2023-10-31T00:24:19.610Z,,0,2,,2634.8790000954177,response,ISIC_0064014.JPG,8,ISIC_0033605.JPG,ISIC_0033605.JPG,false,0,keypress(z),500,582283.9000000954,582283.4000000954,579631.855,579646.4000000954,579648.521,582299.175,8,400,40,,ISIC_0064014.JPG
break,html.Screen,4_89_1,2023-10-31T00:24:19.611Z,,0,,,NaN,,,,,,false,,,,582284.8000000715,582284.7000000477,,582284.2000000477,,582299.175,8,400,,,
break_continue,html.Screen,4_89_2,2023-10-31T00:24:19.611Z,,0,,,NaN,,,,,,false,,,,582285.2000000477,582285.1000000238,,582285,,582299.175,8,400,,,
sequence,flow.Sequence,4_89,2023-10-31T00:24:19.612Z,,0,,,2636.579000023892,completion,,,,,false,,,,582285.3000000715,582285.1000000238,579631.855,579646.3000000715,579648.521,582299.175,8,400,,,
trial,html.Screen,4_90_0,2023-10-31T00:24:22.174Z,,0,2,,2548.8249999999534,response,ISIC_0027882.JPG,9,ISIC_8626787.JPG,ISIC_0027882.JPG,false,1,keypress(m),500,584848.4000000954,584848,582282.509,582285.6000000238,582299.175,584865.739,8,400,41,,ISIC_8626787.JPG
break,html.Screen,4_90_1,2023-10-31T00:24:22.175Z,,0,,,NaN,,,,,,false,,,,584849.4000000954,584849.2000000477,,584848.7000000477,,584865.739,8,400,,,
break_continue,html.Screen,4_90_2,2023-10-31T00:24:22.176Z,,0,,,NaN,,,,,,false,,,,584849.7000000477,584849.7000000477,,584849.5,,584865.739,8,400,,,
sequence,flow.Sequence,4_90,2023-10-31T00:24:22.176Z,,0,,,2550.525000047637,completion,,,,,false,,,,584849.9000000954,584849.7000000477,582282.509,582285.5,582299.175,584865.739,8,400,,,
trial,html.Screen,4_91_0,2023-10-31T00:24:24.965Z,,0,2,,2772.8610000238987,response,ISIC_0000550.JPG,7,ISIC_0030911.JPG,ISIC_0030911.JPG,false,0,keypress(z),500,587639,587638.6000000238,584849.073,584850.1000000238,584865.739,587648.961,8,400,42,,ISIC_0000550.JPG
break,html.Screen,4_91_1,2023-10-31T00:24:24.966Z,,0,,,NaN,,,,,,false,,,,587639.7000000477,587639.5,,587639.2000000477,,587648.961,8,400,,,
break_continue,html.Screen,4_91_2,2023-10-31T00:24:24.966Z,,0,,,NaN,,,,,,false,,,,587639.9000000954,587639.8000000715,,587639.8000000715,,587648.961,8,400,,,
sequence,flow.Sequence,4_91,2023-10-31T00:24:24.966Z,,0,,,2774.0610000715824,completion,,,,,false,,,,587640,587639.8000000715,584849.073,584850,584865.739,587648.961,8,400,,,
trial,html.Screen,4_92_0,2023-10-31T00:24:27.506Z,,0,2,,2530.5389999999898,response,ISIC_5591622.JPG,7,ISIC_0013032.JPG,ISIC_5591622.JPG,false,1,keypress(m),500,590179.9000000954,590179.5,587632.295,587640.1000000238,587648.961,590182.193,8,400,43,,ISIC_0013032.JPG
break,html.Screen,4_92_1,2023-10-31T00:24:27.507Z,,0,,,NaN,,,,,,false,,,,590180.9000000954,590180.8000000715,,590180.2000000477,,590182.193,8,400,,,
break_continue,html.Screen,4_92_2,2023-10-31T00:24:27.507Z,,0,,,NaN,,,,,,false,,,,590181.3000000715,590181.2000000477,,590181.1000000238,,590182.193,8,400,,,
sequence,flow.Sequence,4_92,2023-10-31T00:24:27.507Z,,0,,,2532.2390000476735,completion,,,,,false,,,,590181.5,590181.2000000477,587632.295,587640.1000000238,587648.961,590182.193,8,400,,,
trial,html.Screen,4_93_0,2023-10-31T00:24:30.025Z,,0,2,,2516.7070000953972,response,ISIC_0056790.JPG,7,ISIC_8188797.JPG,ISIC_8188797.JPG,false,0,keypress(z),500,592699.3000000715,592698.9000000954,590165.527,590181.7000000477,590182.193,592716.087,8,400,44,,ISIC_0056790.JPG
break,html.Screen,4_93_1,2023-10-31T00:24:30.026Z,,0,,,NaN,,,,,,false,,,,592700,592699.8000000715,,592699.5,,592716.087,8,400,,,
break_continue,html.Screen,4_93_2,2023-10-31T00:24:30.026Z,,0,,,NaN,,,,,,false,,,,592700.3000000715,592700.2000000477,,592700,,592716.087,8,400,,,
sequence,flow.Sequence,4_93,2023-10-31T00:24:30.026Z,,0,,,2518.0070000477135,completion,,,,,false,,,,592700.3000000715,592700.2000000477,590165.527,590181.6000000238,590182.193,592716.087,8,400,,,
trial,html.Screen,4_94_0,2023-10-31T00:24:32.367Z,,0,2,,2324.8130000953097,response,ISIC_8206667.JPG,8,ISIC_0053542.JPG,ISIC_8206667.JPG,false,1,keypress(m),500,595041.4000000954,595040.9000000954,592699.421,592700.3000000715,592716.087,595049.327,8,400,45,,ISIC_0053542.JPG
break,html.Screen,4_94_1,2023-10-31T00:24:32.368Z,,0,,,NaN,,,,,,false,,,,595042.4000000954,595042.2000000477,,595041.7000000477,,595049.327,8,400,,,
break_continue,html.Screen,4_94_2,2023-10-31T00:24:32.368Z,,0,,,NaN,,,,,,false,,,,595042.8000000715,595042.7000000477,,595042.5,,595049.327,8,400,,,
sequence,flow.Sequence,4_94,2023-10-31T00:24:32.369Z,,0,,,2326.613000047626,completion,,,,,false,,,,595043,595042.7000000477,592699.421,592700.3000000715,592716.087,595049.327,8,400,,,
trial,html.Screen,4_95_0,2023-10-31T00:24:34.873Z,,0,2,,2497.473000071477,response,ISIC_9780632.JPG,7,ISIC_0053555.JPG,ISIC_0053555.JPG,false,0,keypress(z),500,597547.3000000715,597546.8000000715,595032.661,595043.1000000238,595049.327,597565.893,8,400,46,,ISIC_9780632.JPG
break,html.Screen,4_95_1,2023-10-31T00:24:34.874Z,,0,,,NaN,,,,,,false,,,,597548.4000000954,597548.1000000238,,597547.7000000477,,597565.893,8,400,,,
break_continue,html.Screen,4_95_2,2023-10-31T00:24:34.874Z,,0,,,NaN,,,,,,false,,,,597548.7000000477,597548.6000000238,,597548.5,,597565.893,8,400,,,
sequence,flow.Sequence,4_95,2023-10-31T00:24:34.874Z,,0,,,2499.2730000237934,completion,,,,,false,,,,597548.9000000954,597548.6000000238,595032.661,595043,595049.327,597565.893,8,400,,,
trial,html.Screen,4_96_0,2023-10-31T00:24:37.354Z,,0,2,,2461.8070000476437,response,ISIC_5366657.JPG,7,ISIC_0000046.JPG,ISIC_5366657.JPG,false,1,keypress(m),500,600028.1000000238,600027.7000000477,597549.227,597549,597565.893,600049.127,8,400,47,,ISIC_0000046.JPG
break,html.Screen,4_96_1,2023-10-31T00:24:37.355Z,,0,,,NaN,,,,,,false,,,,600029.2000000477,600028.9000000954,,600028.5,,600049.127,8,400,,,
break_continue,html.Screen,4_96_2,2023-10-31T00:24:37.355Z,,0,,,NaN,,,,,,false,,,,600029.5,600029.4000000954,,600029.3000000715,,600049.127,8,400,,,
sequence,flow.Sequence,4_96,2023-10-31T00:24:37.355Z,,0,,,2463.5070000953274,completion,,,,,false,,,,600029.7000000477,600029.4000000954,597549.227,597549,597565.893,600049.127,8,400,,,
trial,html.Screen,4_97_0,2023-10-31T00:24:40.128Z,,0,2,,2753.273000095389,response,ISIC_6517082.JPG,7,ISIC_2366652.JPG,ISIC_2366652.JPG,false,0,keypress(z),500,602802.9000000954,602802.4000000954,600032.461,600029.9000000954,600049.127,602816.469,8,400,48,,ISIC_6517082.JPG
break,html.Screen,4_97_1,2023-10-31T00:24:40.129Z,,0,,,NaN,,,,,,false,,,,602803.9000000954,602803.7000000477,,602803.2000000477,,602816.469,8,400,,,
break_continue,html.Screen,4_97_2,2023-10-31T00:24:40.130Z,,0,,,NaN,,,,,,false,,,,602804.2000000477,602804.2000000477,,602804,,602816.469,8,400,,,
sequence,flow.Sequence,4_97,2023-10-31T00:24:40.130Z,,0,,,2755.073000047705,completion,,,,,false,,,,602804.4000000954,602804.2000000477,600032.461,600029.8000000715,600049.127,602816.469,8,400,,,
trial,html.Screen,4_98_0,2023-10-31T00:24:42.440Z,,0,2,,2298.030999999959,response,ISIC_3892947.JPG,8,ISIC_0033368.JPG,ISIC_3892947.JPG,false,1,keypress(m),500,605114.9000000954,605114.5,602799.803,602804.6000000238,602816.469,605116.377,8,400,49,,ISIC_0033368.JPG
break,html.Screen,4_98_1,2023-10-31T00:24:42.441Z,,0,,,NaN,,,,,,false,,,,605115.8000000715,605115.6000000238,,605115.2000000477,,605116.377,8,400,,,
break_continue,html.Screen,4_98_2,2023-10-31T00:24:42.441Z,,0,,,NaN,,,,,,false,,,,605116.2000000477,605116,,605116,,605116.377,8,400,,,
sequence,flow.Sequence,4_98,2023-10-31T00:24:42.442Z,,0,,,2299.530999999959,completion,,,,,false,,,,605116.3000000715,605116,602799.803,602804.5,602816.469,605116.377,8,400,,,
trial,html.Screen,4_99_0,2023-10-31T00:24:46.652Z,,0,2,,4210.123000000021,response,ISIC_0069891.JPG,8,ISIC_7131973.JPG,ISIC_0069891.JPG,false,1,keypress(m),500,609326.7000000477,609326.5,605099.711,605116.5,605116.377,609332.875,8,400,50,,ISIC_7131973.JPG
break,html.Screen,4_99_1,2023-10-31T00:24:56.646Z,,0,,,10000.29700000002,timeout,,,,,false,,,,619321.2000000477,619316.506,609316.209,609326.9000000954,609332.875,619333.172,8,400,,,
break_continue,html.Screen,4_99_2,2023-10-31T00:27:26.416Z,,0,,,149743.82799999998,response,,,,,false,continue,keypress(Space),,769097.8000000715,769077,619316.506,619321.5,619333.172,769102.458,8,400,,,
sequence,flow.Sequence,4_99,2023-10-31T00:27:26.416Z,,0,,,163960.62300000002,completion,,,,,false,,,,769097.9000000954,769077,605099.711,605116.5,605116.377,769102.458,8,400,,,
trial,html.Screen,4_100_0,2023-10-31T00:27:30.018Z,,0,3,,3596.9420000953833,response,ISIC_0054705.JPG,7,ISIC_0000549.JPG,ISIC_0000549.JPG,false,0,keypress(z),500,772700,772699.4000000954,769085.792,769098,769102.458,772704.39,8,400,1,,ISIC_0054705.JPG
break,html.Screen,4_100_1,2023-10-31T00:27:30.019Z,,0,,,NaN,,,,,,false,,,,772701,772700.8000000715,,772700.3000000715,,772704.39,8,400,,,
break_continue,html.Screen,4_100_2,2023-10-31T00:27:30.020Z,,0,,,NaN,,,,,,false,,,,772701.4000000954,772701.3000000715,,772701.2000000477,,772704.39,8,400,,,
sequence,flow.Sequence,4_100,2023-10-31T00:27:30.020Z,,0,,,3598.8420000715414,completion,,,,,false,,,,772701.6000000238,772701.3000000715,769085.792,769098,769102.458,772704.39,8,400,,,
trial,html.Screen,4_101_0,2023-10-31T00:27:34.051Z,,0,3,,4027.710000023828,response,ISIC_3303825.JPG,8,ISIC_0029395.JPG,ISIC_0029395.JPG,false,0,keypress(z),500,776732.6000000238,776732.1000000238,772687.724,772701.7000000477,772704.39,776737.562,8,400,2,,ISIC_3303825.JPG
break,html.Screen,4_101_1,2023-10-31T00:27:34.052Z,,0,,,NaN,,,,,,false,,,,776733.6000000238,776733.4000000954,,776732.9000000954,,776737.562,8,400,,,
break_continue,html.Screen,4_101_2,2023-10-31T00:27:34.052Z,,0,,,NaN,,,,,,false,,,,776733.9000000954,776733.9000000954,,776733.7000000477,,776737.562,8,400,,,
sequence,flow.Sequence,4_101,2023-10-31T00:27:34.052Z,,0,,,4029.5100000953535,completion,,,,,false,,,,776734.2000000477,776733.9000000954,772687.724,772701.6000000238,772704.39,776737.562,8,400,,,
trial,html.Screen,4_102_0,2023-10-31T00:27:36.410Z,,0,3,,2353.9379999999655,response,ISIC_0029502.JPG,6,ISIC_0027838.JPG,ISIC_0029502.JPG,false,1,keypress(m),500,779091.7000000477,779091.5,776720.896,776734.3000000715,776737.562,779104.134,8,400,3,,ISIC_0027838.JPG
break,html.Screen,4_102_1,2023-10-31T00:27:36.410Z,,0,,,NaN,,,,,,false,,,,779092.1000000238,779092,,779091.8000000715,,779104.134,8,400,,,
break_continue,html.Screen,4_102_2,2023-10-31T00:27:36.410Z,,0,,,NaN,,,,,,false,,,,779092.3000000715,779092.3000000715,,779092.2000000477,,779104.134,8,400,,,
sequence,flow.Sequence,4_102,2023-10-31T00:27:36.410Z,,0,,,2354.738000071491,completion,,,,,false,,,,779092.4000000954,779092.3000000715,776720.896,776734.2000000477,776737.562,779104.134,8,400,,,
trial,html.Screen,4_103_0,2023-10-31T00:27:39.167Z,,0,3,,2744.7660000954056,response,ISIC_9792253.JPG,8,ISIC_0029538.JPG,ISIC_0029538.JPG,false,0,keypress(z),500,781849.3000000715,781848.9000000954,779087.468,779092.4000000954,779104.134,781854.945,8,400,4,,ISIC_9792253.JPG
break,html.Screen,4_103_1,2023-10-31T00:27:39.168Z,,0,,,NaN,,,,,,false,,,,781850.3000000715,781850.1000000238,,781849.6000000238,,781854.945,8,400,,,
break_continue,html.Screen,4_103_2,2023-10-31T00:27:39.169Z,,0,,,NaN,,,,,,false,,,,781850.7000000477,781850.6000000238,,781850.4000000954,,781854.945,8,400,,,
sequence,flow.Sequence,4_103,2023-10-31T00:27:39.169Z,,0,,,2746.46600002388,completion,,,,,false,,,,781850.9000000954,781850.6000000238,779087.468,779092.4000000954,779104.134,781854.945,8,400,,,
trial,html.Screen,4_104_0,2023-10-31T00:27:42.259Z,,0,3,,3085.755000047735,response,ISIC_7206167.JPG,8,ISIC_0032724.JPG,ISIC_0032724.JPG,false,0,keypress(z),500,784941.1000000238,784940.7000000477,781838.279,781851,781854.945,784954.821,8,400,5,,ISIC_7206167.JPG
break,html.Screen,4_104_1,2023-10-31T00:27:42.260Z,,0,,,NaN,,,,,,false,,,,784941.8000000715,784941.7000000477,,784941.3000000715,,784954.821,8,400,,,
break_continue,html.Screen,4_104_2,2023-10-31T00:27:42.260Z,,0,,,NaN,,,,,,false,,,,784942,784942,,784941.8000000715,,784954.821,8,400,,,
sequence,flow.Sequence,4_104,2023-10-31T00:27:42.260Z,,0,,,3087.055000000051,completion,,,,,false,,,,784942.1000000238,784942,781838.279,781850.9000000954,781854.945,784954.821,8,400,,,
trial,html.Screen,4_105_0,2023-10-31T00:27:45.921Z,,0,3,,3648.579000095371,response,ISIC_5796736.JPG,8,ISIC_6425888.JPG,ISIC_5796736.JPG,false,1,keypress(m),500,788603.9000000954,788603.4000000954,784938.155,784942.2000000477,784954.821,788621.341,8,400,6,,ISIC_6425888.JPG
break,html.Screen,4_105_1,2023-10-31T00:27:45.922Z,,0,,,NaN,,,,,,false,,,,788604.8000000715,788604.7000000477,,788604.1000000238,,788621.341,8,400,,,
break_continue,html.Screen,4_105_2,2023-10-31T00:27:45.923Z,,0,,,NaN,,,,,,false,,,,788605.2000000477,788605.1000000238,,788604.9000000954,,788621.341,8,400,,,
sequence,flow.Sequence,4_105,2023-10-31T00:27:45.923Z,,0,,,3650.2790000238456,completion,,,,,false,,,,788605.4000000954,788605.1000000238,784938.155,784942.2000000477,784954.821,788621.341,8,400,,,
trial,html.Screen,4_106_0,2023-10-31T00:27:48.743Z,,0,3,,2803.5590000953525,response,ISIC_0056047.JPG,7,ISIC_9322551.JPG,ISIC_9322551.JPG,false,0,keypress(z),500,791425.3000000715,791424.9000000954,788604.675,788605.6000000238,788621.341,791438.555,8,400,7,,ISIC_0056047.JPG
break,html.Screen,4_106_1,2023-10-31T00:27:48.744Z,,0,,,NaN,,,,,,false,,,,791426.3000000715,791426,,791425.6000000238,,791438.555,8,400,,,
break_continue,html.Screen,4_106_2,2023-10-31T00:27:48.744Z,,0,,,NaN,,,,,,false,,,,791426.6000000238,791426.5,,791426.4000000954,,791438.555,8,400,,,
sequence,flow.Sequence,4_106,2023-10-31T00:27:48.744Z,,0,,,2805.158999999985,completion,,,,,false,,,,791426.8000000715,791426.5,788604.675,788605.4000000954,788621.341,791438.555,8,400,,,
trial,html.Screen,4_107_0,2023-10-31T00:27:51.946Z,,0,3,,3189.6450000476325,response,ISIC_0061293.JPG,6,ISIC_5388485.JPG,ISIC_5388485.JPG,false,0,keypress(z),500,794628.6000000238,794628.2000000477,791421.889,791427,791438.555,794638.427,8,400,8,,ISIC_0061293.JPG
break,html.Screen,4_107_1,2023-10-31T00:27:51.947Z,,0,,,NaN,,,,,,false,,,,794629.7000000477,794629.4000000954,,794629,,794638.427,8,400,,,
break_continue,html.Screen,4_107_2,2023-10-31T00:27:51.947Z,,0,,,NaN,,,,,,false,,,,794630.1000000238,794629.9000000954,,794629.8000000715,,794638.427,8,400,,,
sequence,flow.Sequence,4_107,2023-10-31T00:27:51.948Z,,0,,,3191.345000095316,completion,,,,,false,,,,794630.3000000715,794629.9000000954,791421.889,791426.9000000954,791438.555,794638.427,8,400,,,
trial,html.Screen,4_108_0,2023-10-31T00:27:54.448Z,,0,3,,2492.4730000953423,response,ISIC_0055287.JPG,7,ISIC_0028718.JPG,ISIC_0055287.JPG,false,1,keypress(m),500,797131.1000000238,797130.9000000954,794621.761,794630.4000000954,794638.427,797138.327,8,400,9,,ISIC_0028718.JPG
break,html.Screen,4_108_1,2023-10-31T00:27:54.449Z,,0,,,NaN,,,,,,false,,,,797131.9000000954,797131.7000000477,,797131.4000000954,,797138.327,8,400,,,
break_continue,html.Screen,4_108_2,2023-10-31T00:27:54.449Z,,0,,,NaN,,,,,,false,,,,797132.1000000238,797132,,797131.9000000954,,797138.327,8,400,,,
sequence,flow.Sequence,4_108,2023-10-31T00:27:54.449Z,,0,,,2493.572999999975,completion,,,,,false,,,,797132.2000000477,797132,794621.761,794630.4000000954,794638.427,797138.327,8,400,,,
trial,html.Screen,4_109_0,2023-10-31T00:27:57.158Z,,0,3,,2702.473000071477,response,ISIC_0029863.JPG,8,ISIC_5237059.JPG,ISIC_0029863.JPG,false,1,keypress(m),500,799841.2000000477,799840.8000000715,797121.661,797132.3000000715,797138.327,799854.885,8,400,10,,ISIC_5237059.JPG
break,html.Screen,4_109_1,2023-10-31T00:27:57.159Z,,0,,,NaN,,,,,,false,,,,799842.3000000715,799842.1000000238,,799841.6000000238,,799854.885,8,400,,,
break_continue,html.Screen,4_109_2,2023-10-31T00:27:57.160Z,,0,,,NaN,,,,,,false,,,,799842.6000000238,799842.5,,799842.4000000954,,799854.885,8,400,,,
sequence,flow.Sequence,4_109,2023-10-31T00:27:57.160Z,,0,,,2704.1729999999516,completion,,,,,false,,,,799842.8000000715,799842.5,797121.661,797132.2000000477,797138.327,799854.885,8,400,,,
trial,html.Screen,4_110_0,2023-10-31T00:28:00.625Z,,0,3,,3452.3150000476744,response,ISIC_6292348.JPG,6,ISIC_6339509.JPG,ISIC_6292348.JPG,false,1,keypress(m),500,803307.6000000238,803307.2000000477,799838.219,799842.9000000954,799854.885,803322.191,8,400,11,,ISIC_6339509.JPG
break,html.Screen,4_110_1,2023-10-31T00:28:00.626Z,,0,,,NaN,,,,,,false,,,,803308.7000000477,803308.5,,803307.9000000954,,803322.191,8,400,,,
break_continue,html.Screen,4_110_2,2023-10-31T00:28:00.626Z,,0,,,NaN,,,,,,false,,,,803309,803308.9000000954,,803308.8000000715,,803322.191,8,400,,,
sequence,flow.Sequence,4_110,2023-10-31T00:28:00.626Z,,0,,,3454.015000095358,completion,,,,,false,,,,803309.2000000477,803308.9000000954,799838.219,799842.9000000954,799854.885,803322.191,8,400,,,
trial,html.Screen,4_111_0,2023-10-31T00:28:03.525Z,,0,3,,2885.4090000238502,response,ISIC_4976189.JPG,6,ISIC_0014434.JPG,ISIC_4976189.JPG,false,1,keypress(m),500,806208,806207.6000000238,803305.525,803309.4000000954,803322.191,806222.075,8,400,12,,ISIC_0014434.JPG
break,html.Screen,4_111_1,2023-10-31T00:28:03.526Z,,0,,,NaN,,,,,,false,,,,806209.1000000238,806208.8000000715,,806208.4000000954,,806222.075,8,400,,,
break_continue,html.Screen,4_111_2,2023-10-31T00:28:03.526Z,,0,,,NaN,,,,,,false,,,,806209.5,806209.3000000715,,806209.3000000715,,806222.075,8,400,,,
sequence,flow.Sequence,4_111,2023-10-31T00:28:03.527Z,,0,,,2887.109000071534,completion,,,,,false,,,,806209.7000000477,806209.3000000715,803305.525,803309.4000000954,803322.191,806222.075,8,400,,,
trial,html.Screen,4_112_0,2023-10-31T00:28:06.490Z,,0,3,,2951.1250000477303,response,ISIC_8353090.JPG,8,ISIC_3435596.JPG,ISIC_8353090.JPG,false,1,keypress(m),500,809173.7000000477,809173.2000000477,806205.409,806209.8000000715,806222.075,809188.623,8,400,13,,ISIC_3435596.JPG
break,html.Screen,4_112_1,2023-10-31T00:28:06.491Z,,0,,,NaN,,,,,,false,,,,809174.6000000238,809174.5,,809174,,809188.623,8,400,,,
break_continue,html.Screen,4_112_2,2023-10-31T00:28:06.492Z,,0,,,NaN,,,,,,false,,,,809175,809175,,809174.8000000715,,809188.623,8,400,,,
sequence,flow.Sequence,4_112,2023-10-31T00:28:06.492Z,,0,,,2952.9250000000466,completion,,,,,false,,,,809175.2000000477,809175,806205.409,806209.7000000477,806222.075,809188.623,8,400,,,
trial,html.Screen,4_113_0,2023-10-31T00:28:09.696Z,,0,3,,3189.8769999999786,response,ISIC_4691943.JPG,7,ISIC_5240387.JPG,ISIC_4691943.JPG,false,1,keypress(m),500,812379,812378.5,809171.957,809175.4000000954,809188.623,812389.142,8,400,14,,ISIC_5240387.JPG
break,html.Screen,4_113_1,2023-10-31T00:28:09.697Z,,0,,,NaN,,,,,,false,,,,812380,812379.8000000715,,812379.3000000715,,812389.142,8,400,,,
break_continue,html.Screen,4_113_2,2023-10-31T00:28:09.697Z,,0,,,NaN,,,,,,false,,,,812380.3000000715,812380.2000000477,,812380.1000000238,,812389.142,8,400,,,
sequence,flow.Sequence,4_113,2023-10-31T00:28:09.697Z,,0,,,3191.5770000476623,completion,,,,,false,,,,812380.5,812380.2000000477,809171.957,809175.4000000954,809188.623,812389.142,8,400,,,
trial,html.Screen,4_114_0,2023-10-31T00:28:13.524Z,,0,3,,3817.658000071533,response,ISIC_0010227.JPG,7,ISIC_0054284.JPG,ISIC_0054284.JPG,false,0,keypress(z),500,816207.1000000238,816206.8000000715,812372.476,812380.7000000477,812389.142,816222.322,8,400,15,,ISIC_0010227.JPG
break,html.Screen,4_114_1,2023-10-31T00:28:13.524Z,,0,,,NaN,,,,,,false,,,,816207.8000000715,816207.6000000238,,816207.3000000715,,816222.322,8,400,,,
break_continue,html.Screen,4_114_2,2023-10-31T00:28:13.525Z,,0,,,NaN,,,,,,false,,,,816208.1000000238,816207.9000000954,,816207.9000000954,,816222.322,8,400,,,
sequence,flow.Sequence,4_114,2023-10-31T00:28:13.525Z,,0,,,3818.758000095375,completion,,,,,false,,,,816208.2000000477,816207.9000000954,812372.476,812380.7000000477,812389.142,816222.322,8,400,,,
trial,html.Screen,4_115_0,2023-10-31T00:28:17.888Z,,0,3,,4348.978000071482,response,ISIC_0071430.JPG,8,ISIC_7694069.JPG,ISIC_0071430.JPG,false,1,keypress(m),500,820571.8000000715,820571.3000000715,816205.656,816208.3000000715,816222.322,820588.814,8,400,16,,ISIC_7694069.JPG
break,html.Screen,4_115_1,2023-10-31T00:28:17.889Z,,0,,,NaN,,,,,,false,,,,820572.8000000715,820572.6000000238,,820572.2000000477,,820588.814,8,400,,,
break_continue,html.Screen,4_115_2,2023-10-31T00:28:17.890Z,,0,,,NaN,,,,,,false,,,,820573.2000000477,820573.1000000238,,820573,,820588.814,8,400,,,
sequence,flow.Sequence,4_115,2023-10-31T00:28:17.890Z,,0,,,4350.778000023798,completion,,,,,false,,,,820573.5,820573.1000000238,816205.656,816208.3000000715,816222.322,820588.814,8,400,,,
trial,html.Screen,4_116_0,2023-10-31T00:28:20.709Z,,0,3,,2803.185999999987,response,ISIC_0024236.JPG,7,ISIC_2371495.JPG,ISIC_2371495.JPG,false,0,keypress(z),500,823392.5,823392,820572.148,820573.6000000238,820588.814,823406.158,8,400,17,,ISIC_0024236.JPG
break,html.Screen,4_116_1,2023-10-31T00:28:20.710Z,,0,,,NaN,,,,,,false,,,,823393.5,823393.3000000715,,823392.8000000715,,823406.158,8,400,,,
break_continue,html.Screen,4_116_2,2023-10-31T00:28:20.710Z,,0,,,NaN,,,,,,false,,,,823393.9000000954,823393.8000000715,,823393.7000000477,,823406.158,8,400,,,
sequence,flow.Sequence,4_116,2023-10-31T00:28:20.710Z,,0,,,2804.9860000715125,completion,,,,,false,,,,823394.2000000477,823393.8000000715,820572.148,820573.6000000238,820588.814,823406.158,8,400,,,
trial,html.Screen,4_117_0,2023-10-31T00:28:24.095Z,,0,3,,3372.1420000714716,response,ISIC_6683370.JPG,7,ISIC_0059892.JPG,ISIC_6683370.JPG,false,1,keypress(m),500,826778.9000000954,826778.3000000715,823389.492,823394.3000000715,823406.158,826789.356,8,400,18,,ISIC_0059892.JPG
break,html.Screen,4_117_1,2023-10-31T00:28:24.096Z,,0,,,NaN,,,,,,false,,,,826779.9000000954,826779.7000000477,,826779.2000000477,,826789.356,8,400,,,
break_continue,html.Screen,4_117_2,2023-10-31T00:28:24.096Z,,0,,,NaN,,,,,,false,,,,826780.3000000715,826780.1000000238,,826780,,826789.356,8,400,,,
sequence,flow.Sequence,4_117,2023-10-31T00:28:24.096Z,,0,,,3373.942000023788,completion,,,,,false,,,,826780.4000000954,826780.1000000238,823389.492,823394.2000000477,823406.158,826789.356,8,400,,,
trial,html.Screen,4_118_0,2023-10-31T00:28:27.360Z,,0,3,,3254.0440000953386,response,ISIC_6793603.JPG,8,ISIC_3961101.JPG,ISIC_6793603.JPG,false,1,keypress(m),500,830043.9000000954,830043.4000000954,826772.69,826780.5,826789.356,830055.892,8,400,19,,ISIC_3961101.JPG
break,html.Screen,4_118_1,2023-10-31T00:28:27.361Z,,0,,,NaN,,,,,,false,,,,830045,830044.8000000715,,830044.2000000477,,830055.892,8,400,,,
break_continue,html.Screen,4_118_2,2023-10-31T00:28:27.361Z,,0,,,NaN,,,,,,false,,,,830045.3000000715,830045.3000000715,,830045.1000000238,,830055.892,8,400,,,
sequence,flow.Sequence,4_118,2023-10-31T00:28:27.361Z,,0,,,3255.9440000714967,completion,,,,,false,,,,830045.6000000238,830045.3000000715,826772.69,826780.5,826789.356,830055.892,8,400,,,
trial,html.Screen,4_119_0,2023-10-31T00:28:30.900Z,,0,3,,3528.408000071533,response,ISIC_6384927.JPG,7,ISIC_0011364.JPG,ISIC_0011364.JPG,false,0,keypress(z),500,833584.7000000477,833584.3000000715,830039.226,830045.7000000477,830055.892,833589.81,8,400,20,,ISIC_6384927.JPG
break,html.Screen,4_119_1,2023-10-31T00:28:30.902Z,,0,,,NaN,,,,,,false,,,,833585.8000000715,833585.5,,833584.9000000954,,833589.81,8,400,,,
break_continue,html.Screen,4_119_2,2023-10-31T00:28:30.902Z,,0,,,NaN,,,,,,false,,,,833586.1000000238,833586,,833585.9000000954,,833589.81,8,400,,,
sequence,flow.Sequence,4_119,2023-10-31T00:28:30.902Z,,0,,,3530.1080000000075,completion,,,,,false,,,,833586.3000000715,833586,830039.226,830045.6000000238,830055.892,833589.81,8,400,,,
trial,html.Screen,4_120_0,2023-10-31T00:28:34.907Z,,0,3,,4000.5900000953116,response,ISIC_0055282.JPG,8,ISIC_4666619.JPG,ISIC_4666619.JPG,false,0,keypress(z),500,837590.9000000954,837590.4000000954,833573.144,833586.4000000954,833589.81,837606.316,8,400,21,,ISIC_0055282.JPG
break,html.Screen,4_120_1,2023-10-31T00:28:34.908Z,,0,,,NaN,,,,,,false,,,,837592,837591.8000000715,,837591.2000000477,,837606.316,8,400,,,
break_continue,html.Screen,4_120_2,2023-10-31T00:28:34.908Z,,0,,,NaN,,,,,,false,,,,837592.4000000954,837592.2000000477,,837592,,837606.316,8,400,,,
sequence,flow.Sequence,4_120,2023-10-31T00:28:34.908Z,,0,,,4002.390000047628,completion,,,,,false,,,,837592.5,837592.2000000477,833573.144,833586.4000000954,833589.81,837606.316,8,400,,,
trial,html.Screen,4_121_0,2023-10-31T00:28:38.129Z,,0,3,,3206.384000047692,response,ISIC_0013778.JPG,6,ISIC_7296463.JPG,ISIC_0013778.JPG,false,1,keypress(m),500,840813,840812.7000000477,837589.65,837592.7000000477,837606.316,840822.854,8,400,22,,ISIC_7296463.JPG
break,html.Screen,4_121_1,2023-10-31T00:28:38.129Z,,0,,,NaN,,,,,,false,,,,840813.7000000477,840813.7000000477,,840813.2000000477,,840822.854,8,400,,,
break_continue,html.Screen,4_121_2,2023-10-31T00:28:38.129Z,,0,,,NaN,,,,,,false,,,,840814,840813.9000000954,,840813.9000000954,,840822.854,8,400,,,
sequence,flow.Sequence,4_121,2023-10-31T00:28:38.130Z,,0,,,3207.584000095376,completion,,,,,false,,,,840814,840813.9000000954,837589.65,837592.6000000238,837606.316,840822.854,8,400,,,
trial,html.Screen,4_122_0,2023-10-31T00:28:41.204Z,,0,3,,3064.9460000714753,response,ISIC_0059512.JPG,6,ISIC_7460560.JPG,ISIC_7460560.JPG,false,0,keypress(z),500,843888.3000000715,843887.8000000715,840806.188,840814.2000000477,840822.854,843890.144,8,400,23,,ISIC_0059512.JPG
break,html.Screen,4_122_1,2023-10-31T00:28:41.205Z,,0,,,NaN,,,,,,false,,,,843889.2000000477,843889,,843888.5,,843890.144,8,400,,,
break_continue,html.Screen,4_122_2,2023-10-31T00:28:41.205Z,,0,,,NaN,,,,,,false,,,,843889.7000000477,843889.5,,843889.3000000715,,843890.144,8,400,,,
sequence,flow.Sequence,4_122,2023-10-31T00:28:41.205Z,,0,,,3066.6459999999497,completion,,,,,false,,,,843890,843889.5,840806.188,840814.1000000238,840822.854,843890.144,8,400,,,
trial,html.Screen,4_123_0,2023-10-31T00:28:44.489Z,,0,3,,3283.0560000477126,response,ISIC_0025035.JPG,6,ISIC_0032836.JPG,ISIC_0025035.JPG,false,1,keypress(m),500,847173.7000000477,847173.2000000477,843873.478,843890.4000000954,843890.144,847190.012,8,400,24,,ISIC_0032836.JPG
break,html.Screen,4_123_1,2023-10-31T00:28:44.490Z,,0,,,NaN,,,,,,false,,,,847174.5,847174.3000000715,,847173.9000000954,,847190.012,8,400,,,
break_continue,html.Screen,4_123_2,2023-10-31T00:28:44.490Z,,0,,,NaN,,,,,,false,,,,847174.7000000477,847174.6000000238,,847174.6000000238,,847190.012,8,400,,,
sequence,flow.Sequence,4_123,2023-10-31T00:28:44.490Z,,0,,,3284.4560000238707,completion,,,,,false,,,,847174.8000000715,847174.6000000238,843873.478,843890.3000000715,843890.144,847190.012,8,400,,,
trial,html.Screen,4_124_0,2023-10-31T00:28:47.614Z,,0,3,,3108.7880000715377,response,ISIC_2007034.JPG,8,ISIC_0015251.JPG,ISIC_2007034.JPG,false,1,keypress(m),500,850299.1000000238,850298.8000000715,847173.346,847175,847190.012,850306.554,8,400,25,,ISIC_0015251.JPG
break,html.Screen,4_124_1,2023-10-31T00:28:47.615Z,,0,,,NaN,,,,,,false,,,,850299.8000000715,850299.7000000477,,850299.4000000954,,850306.554,8,400,,,
break_continue,html.Screen,4_124_2,2023-10-31T00:28:47.615Z,,0,,,NaN,,,,,,false,,,,850300,850300,,850299.9000000954,,850306.554,8,400,,,
sequence,flow.Sequence,4_124,2023-10-31T00:28:47.615Z,,0,,,3109.988000000012,completion,,,,,false,,,,850300.1000000238,850300,847173.346,847174.8000000715,847190.012,850306.554,8,400,,,
trial,html.Screen,4_125_0,2023-10-31T00:28:51.105Z,,0,3,,3483.3460000953637,response,ISIC_0056444.JPG,8,ISIC_0001602.JPG,ISIC_0056444.JPG,false,1,keypress(m),500,853790.3000000715,853789.9000000954,850289.888,850300.2000000477,850306.554,853807.106,8,400,26,,ISIC_0001602.JPG
break,html.Screen,4_125_1,2023-10-31T00:28:51.106Z,,0,,,NaN,,,,,,false,,,,853791.4000000954,853791.2000000477,,853790.7000000477,,853807.106,8,400,,,
break_continue,html.Screen,4_125_2,2023-10-31T00:28:51.107Z,,0,,,NaN,,,,,,false,,,,853791.8000000715,853791.7000000477,,853791.5,,853807.106,8,400,,,
sequence,flow.Sequence,4_125,2023-10-31T00:28:51.107Z,,0,,,3485.14600004768,completion,,,,,false,,,,853791.9000000954,853791.7000000477,850289.888,850300.2000000477,850306.554,853807.106,8,400,,,
