sender,sender_type,sender_id,timestamp,meta,,blockNo,condition,duration,ended_on,img_left,img_reveal,img_right,loser,practice,response,response_action,selection_duration,time_commit,time_end,time_render,time_run,time_show,time_switch,total_blocks,total_trials,trialNo,url,winner
informed_consent,html.Screen,0,2023-05-02T20:03:09.385Z,"{""labjs_version"":""20.2.4"",""labjs_build"":{""flavor"":""production"",""commit"":""f5b4a49f956347addd546a832a3327688c2c0fef""},""location"":""https://run.pavlovia.org/MurrayBennett/melanoma-2afc/?participant=65099"",""userAgent"":""Mozilla/5.0 (X11; CrOS x86_64 14816.131.0) AppleWebKit/537.36 (KHTML, like Gecko) Chrome/103.0.0.0 Safari/537.36"",""platform"":""Linux x86_64"",""language"":""en-US"",""locale"":""en-US"",""timeZone"":""America/Chicago"",""timezoneOffset"":300,""screen_width"":1366,""screen_height"":768,""scroll_width"":1366,""scroll_height"":601,""window_innerWidth"":1366,""window_innerHeight"":649,""devicePixelRatio"":1}",,,,4789.301000001117,response,,,,,,consent,click button,,11157.800000000745,11153.700000001118,6297.8,6311.800000000745,6364.399,11342.809,,,,"{""participant"":""65099""}",
Welcome,html.Screen,1,2023-05-02T20:03:11.225Z,,,,regular,1649.4910000007458,response,,,,,,continue,click button,,12997.300000000745,12992.300000000745,11159.659,11158.5,11342.809,13007.828,,,,,
trial,html.Screen,2_0_0,2023-05-02T20:03:22.732Z,,0,0,,11521.814,timeout,ISIC_0061792.JPG,,ISIC_4679428.JPG,,true,,,500,24504.60000000149,24503.800000000745,12991.178,12998.700000001118,13007.828,24529.642,1,6,1,,
sequence,flow.Sequence,2_0,2023-05-02T20:03:22.736Z,,0,,,11495.972000000746,completion,,,,,true,,,,24508.800000000745,24503.800000000745,12991.178,12998.400000000373,13007.828,24529.642,1,6,,,
trial,html.Screen,2_1_0,2023-05-02T20:03:26.340Z,,0,0,,3581.9580000014903,response,ISIC_0776486.JPG,,ISIC_5199497.JPG,ISIC_0776486.JPG,true,1,keypress(m),500,28112.200000001118,28111.60000000149,24512.992,24509.200000001118,24529.642,28126.176,1,6,2,,ISIC_5199497.JPG
sequence,flow.Sequence,2_1,2023-05-02T20:03:26.340Z,,0,,,3581.9580000014903,completion,,,,,true,,,,28112.900000000373,28111.60000000149,24512.992,24509.10000000149,24529.642,28126.176,1,6,,,
trial,html.Screen,2_2_0,2023-05-02T20:03:30.144Z,,0,0,,3790.1240000007456,response,ISIC_2556187.JPG,,ISIC_8575776.JPG,ISIC_2556187.JPG,true,1,keypress(m),500,31916.700000001118,31916.300000000745,28109.526,28113.10000000149,28126.176,31922.417,1,6,3,,ISIC_8575776.JPG
sequence,flow.Sequence,2_2,2023-05-02T20:03:30.145Z,,0,,,3790.1240000007456,completion,,,,,true,,,,31917.400000000373,31916.300000000745,28109.526,28113.10000000149,28126.176,31922.417,1,6,,,
trial,html.Screen,2_3_0,2023-05-02T20:03:33.283Z,,0,0,,3131.183000001489,response,ISIC_8141769.JPG,,ISIC_9238366.JPG,ISIC_8141769.JPG,true,1,keypress(m),500,35055.70000000112,35053.60000000149,31905.767,31917.700000001118,31922.417,35069.297,1,6,4,,ISIC_9238366.JPG
sequence,flow.Sequence,2_3,2023-05-02T20:03:33.285Z,,0,,,3131.183000001489,completion,,,,,true,,,,35058.10000000149,35053.60000000149,31905.767,31917.60000000149,31922.417,35069.297,1,6,,,
trial,html.Screen,2_4_0,2023-05-02T20:03:36.207Z,,0,0,,2909.603000000374,response,ISIC_8949026.JPG,,ISIC_9959593.JPG,ISIC_8949026.JPG,true,1,keypress(m),500,37980.20000000112,37978.90000000037,35052.647,35059.70000000112,35069.297,37999.728,1,6,5,,ISIC_9959593.JPG
sequence,flow.Sequence,2_4,2023-05-02T20:03:36.209Z,,0,,,2909.603000000374,completion,,,,,true,,,,37982.10000000149,37978.90000000037,35052.647,35059.300000000745,35069.297,37999.728,1,6,,,
trial,html.Screen,2_5_0,2023-05-02T20:03:39.228Z,,0,0,,3000.271999999997,response,ISIC_0010479.JPG,,ISIC_0460240.JPG,ISIC_0010479.JPG,true,1,keypress(m),500,41000.5,41000,37983.078,37983.300000000745,37999.728,41013.403,1,6,6,,ISIC_0460240.JPG
sequence,flow.Sequence,2_5,2023-05-02T20:03:39.228Z,,0,,,3000.271999999997,completion,,,,,true,,,,41001.10000000149,41000,37983.078,37982.90000000037,37999.728,41013.403,1,6,,,
loop,flow.Loop,2,2023-05-02T20:03:39.229Z,,,,,27992.172,completion,,,,,true,,,,41001.5,41000,12991.178,12998.10000000149,13007.828,41013.403,1,6,,,
exp_instructions,html.Screen,3,2023-05-02T20:03:45.549Z,,,,,6298.197000001492,response,,,,,,continue,keypress(Space),,47321.300000000745,47311.60000000149,40996.753,41001.90000000037,41013.403,47340.466,,,,,
trial,html.Screen,4_0_0,2023-05-02T20:03:48.290Z,,0,1,,2721.1340000014898,response,ISIC_8401332.JPG,,ISIC_1930598.JPG,ISIC_1930598.JPG,false,0,keypress(z),500,50062.20000000112,50061.60000000149,47323.816,47322.90000000037,47340.466,50071.097,8,400,1,,ISIC_8401332.JPG
break,html.Screen,4_0_1,2023-05-02T20:03:48.292Z,,0,,,NaN,,,,,,false,,,,50064.60000000149,50063.70000000112,,50062.60000000149,,50071.097,8,400,,,
break_continue,html.Screen,4_0_2,2023-05-02T20:03:48.294Z,,0,,,NaN,,,,,,false,,,,50066.800000000745,50066.20000000112,,50065,,50071.097,8,400,,,
sequence,flow.Sequence,4_0,2023-05-02T20:03:48.295Z,,0,,,2725.7340000011172,completion,,,,,false,,,,50067.40000000037,50066.20000000112,47323.816,47322.60000000149,47340.466,50071.097,8,400,,,
trial,html.Screen,4_1_0,2023-05-02T20:03:50.967Z,,0,1,,2667.103000001116,response,ISIC_0053594.JPG,,ISIC_0025242.JPG,ISIC_0053594.JPG,false,1,keypress(m),500,52739.5,52738.20000000112,50054.447,50067.70000000112,50071.097,52751.773,8,400,2,,ISIC_0025242.JPG
break,html.Screen,4_1_1,2023-05-02T20:03:50.971Z,,0,,,NaN,,,,,,false,,,,52744.10000000149,52743,,52740.60000000149,,52751.773,8,400,,,
break_continue,html.Screen,4_1_2,2023-05-02T20:03:50.973Z,,0,,,NaN,,,,,,false,,,,52745.800000000745,52745.40000000037,,52744.60000000149,,52751.773,8,400,,,
sequence,flow.Sequence,4_1,2023-05-02T20:03:50.974Z,,0,,,2674.303000000371,completion,,,,,false,,,,52746.5,52745.40000000037,50054.447,50067.60000000149,50071.097,52751.773,8,400,,,
trial,html.Screen,4_2_0,2023-05-02T20:03:53.392Z,,0,1,,2411.027000000744,response,ISIC_5581936.JPG,,ISIC_5547318.JPG,ISIC_5547318.JPG,false,0,keypress(z),500,55164.60000000149,55162.800000000745,52735.123,52747,52751.773,55182.698,8,400,3,,ISIC_5581936.JPG
break,html.Screen,4_2_1,2023-05-02T20:03:53.400Z,,0,,,NaN,,,,,,false,,,,55172.20000000112,55170.300000000745,,55165.90000000037,,55182.698,8,400,,,
break_continue,html.Screen,4_2_2,2023-05-02T20:03:53.402Z,,0,,,NaN,,,,,,false,,,,55174.60000000149,55174.20000000112,,55173.20000000112,,55182.698,8,400,,,
sequence,flow.Sequence,4_2,2023-05-02T20:03:53.402Z,,0,,,2422.4270000011165,completion,,,,,false,,,,55175.10000000149,55174.20000000112,52735.123,52746.800000000745,52751.773,55182.698,8,400,,,
trial,html.Screen,4_3_0,2023-05-02T20:03:55.661Z,,0,1,,2250.3020000000033,response,ISIC_0029660.JPG,,ISIC_0032197.JPG,ISIC_0029660.JPG,false,1,keypress(m),500,57433.90000000037,57433,55166.048,55175.300000000745,55182.698,57463.77,8,400,4,,ISIC_0032197.JPG
break,html.Screen,4_3_1,2023-05-02T20:03:55.666Z,,0,,,NaN,,,,,,false,,,,57438.90000000037,57437.800000000745,,57434.70000000112,,57463.77,8,400,,,
break_continue,html.Screen,4_3_2,2023-05-02T20:03:55.669Z,,0,,,NaN,,,,,,false,,,,57442,57441.300000000745,,57440.40000000037,,57463.77,8,400,,,
sequence,flow.Sequence,4_3,2023-05-02T20:03:55.670Z,,0,,,2258.6020000007484,completion,,,,,false,,,,57442.800000000745,57441.300000000745,55166.048,55175.20000000112,55182.698,57463.77,8,400,,,
trial,html.Screen,4_4_0,2023-05-02T20:03:57.935Z,,0,1,,2243.1300000003757,response,ISIC_5729818.JPG,,ISIC_0033025.JPG,ISIC_0033025.JPG,false,0,keypress(z),500,59707.300000000745,59706.90000000037,57430.47,57443.40000000037,57463.77,59711.547,8,400,5,,ISIC_5729818.JPG
break,html.Screen,4_4_1,2023-05-02T20:03:57.937Z,,0,,,NaN,,,,,,false,,,,59709.20000000112,59708.60000000149,,59707.70000000112,,59711.547,8,400,,,
break_continue,html.Screen,4_4_2,2023-05-02T20:03:57.938Z,,0,,,NaN,,,,,,false,,,,59710.40000000037,59710,,59709.5,,59711.547,8,400,,,
sequence,flow.Sequence,4_4,2023-05-02T20:03:57.938Z,,0,,,2246.230000000003,completion,,,,,false,,,,59710.800000000745,59710,57430.47,57443.10000000149,57463.77,59711.547,8,400,,,
trial,html.Screen,4_5_0,2023-05-02T20:04:00.339Z,,0,1,,2399.153000001119,response,ISIC_9291926.JPG,,ISIC_2970409.JPG,ISIC_2970409.JPG,false,0,keypress(z),500,62111.800000000745,62110.70000000112,59694.897,59711,59711.547,62125.817,8,400,6,,ISIC_9291926.JPG
break,html.Screen,4_5_1,2023-05-02T20:04:00.346Z,,0,,,NaN,,,,,,false,,,,62118.40000000037,62117.300000000745,,62113,,62125.817,8,400,,,
break_continue,html.Screen,4_5_2,2023-05-02T20:04:00.347Z,,0,,,NaN,,,,,,false,,,,62119.90000000037,62119.5,,62118.70000000112,,62125.817,8,400,,,
sequence,flow.Sequence,4_5,2023-05-02T20:04:00.348Z,,0,,,2407.9530000000013,completion,,,,,false,,,,62120.20000000112,62119.5,59694.897,59711,59711.547,62125.817,8,400,,,
trial,html.Screen,4_6_0,2023-05-02T20:04:03.091Z,,0,1,,2737.9830000007423,response,ISIC_0025018.JPG,,ISIC_8211214.JPG,ISIC_8211214.JPG,false,0,keypress(z),500,64864.20000000112,64863.800000000745,62109.167,62120.5,62125.817,64873.1,8,400,7,,ISIC_0025018.JPG
break,html.Screen,4_6_1,2023-05-02T20:04:03.093Z,,0,,,NaN,,,,,,false,,,,64866.20000000112,64865.40000000037,,64864.5,,64873.1,8,400,,,
break_continue,html.Screen,4_6_2,2023-05-02T20:04:03.095Z,,0,,,NaN,,,,,,false,,,,64867.40000000037,64867,,64866.5,,64873.1,8,400,,,
sequence,flow.Sequence,4_6,2023-05-02T20:04:03.095Z,,0,,,2741.1829999999973,completion,,,,,false,,,,64867.70000000112,64867,62109.167,62120.5,62125.817,64873.1,8,400,,,
trial,html.Screen,4_7_0,2023-05-02T20:04:05.502Z,,0,1,,2400.300000000374,response,ISIC_0065658.JPG,,ISIC_5525765.JPG,ISIC_0065658.JPG,false,1,keypress(m),500,67274.5,67273.40000000037,64856.45,64867.90000000037,64873.1,67287.371,8,400,8,,ISIC_5525765.JPG
break,html.Screen,4_7_1,2023-05-02T20:04:05.509Z,,0,,,NaN,,,,,,false,,,,67281.5,67280.70000000112,,67275.70000000112,,67287.371,8,400,,,
break_continue,html.Screen,4_7_2,2023-05-02T20:04:05.510Z,,0,,,NaN,,,,,,false,,,,67282.70000000112,67282.40000000037,,67281.80000000075,,67287.371,8,400,,,
sequence,flow.Sequence,4_7,2023-05-02T20:04:05.510Z,,0,,,2409.300000000374,completion,,,,,false,,,,67283.10000000149,67282.40000000037,64856.45,64867.90000000037,64873.1,67287.371,8,400,,,
trial,html.Screen,4_8_0,2023-05-02T20:04:07.517Z,,0,1,,2001.4290000007459,response,ISIC_0062537.JPG,,ISIC_0009880.JPG,ISIC_0009880.JPG,false,0,keypress(z),500,69290.10000000149,69288.80000000075,67270.721,67283.40000000037,67287.371,69302.046,8,400,9,,ISIC_0062537.JPG
break,html.Screen,4_8_1,2023-05-02T20:04:07.523Z,,0,,,NaN,,,,,,false,,,,69295.20000000112,69293.90000000037,,69291,,69302.046,8,400,,,
break_continue,html.Screen,4_8_2,2023-05-02T20:04:07.525Z,,0,,,NaN,,,,,,false,,,,69298.20000000112,69297.5,,69295.80000000075,,69302.046,8,400,,,
sequence,flow.Sequence,4_8,2023-05-02T20:04:07.526Z,,0,,,2010.1290000000008,completion,,,,,false,,,,69299.20000000112,69297.5,67270.721,67283.30000000075,67287.371,69302.046,8,400,,,
trial,html.Screen,4_9_0,2023-05-02T20:04:10.408Z,,0,1,,2877.953999999998,response,ISIC_0025573.JPG,,ISIC_9944714.JPG,ISIC_0025573.JPG,false,1,keypress(m),500,72180.40000000037,72180,69285.396,69299.80000000075,69302.046,72199.169,8,400,10,,ISIC_9944714.JPG
break,html.Screen,4_9_1,2023-05-02T20:04:10.410Z,,0,,,NaN,,,,,,false,,,,72182.30000000075,72181.60000000149,,72180.70000000112,,72199.169,8,400,,,
break_continue,html.Screen,4_9_2,2023-05-02T20:04:10.411Z,,0,,,NaN,,,,,,false,,,,72183.70000000112,72183.30000000075,,72182.70000000112,,72199.169,8,400,,,
sequence,flow.Sequence,4_9,2023-05-02T20:04:10.411Z,,0,,,2881.254000000743,completion,,,,,false,,,,72184,72183.30000000075,69285.396,69299.60000000149,69302.046,72199.169,8,400,,,
trial,html.Screen,4_10_0,2023-05-02T20:04:13.123Z,,0,1,,2696.4310000014957,response,ISIC_9709101.JPG,,ISIC_0084086.JPG,ISIC_0084086.JPG,false,0,keypress(z),500,74896,74895.60000000149,72182.519,72184.30000000075,72199.169,74913.149,8,400,11,,ISIC_9709101.JPG
break,html.Screen,4_10_1,2023-05-02T20:04:13.126Z,,0,,,NaN,,,,,,false,,,,74898.20000000112,74897.30000000075,,74896.30000000075,,74913.149,8,400,,,
break_continue,html.Screen,4_10_2,2023-05-02T20:04:13.127Z,,0,,,NaN,,,,,,false,,,,74899.5,74899.10000000149,,74898.60000000149,,74913.149,8,400,,,
sequence,flow.Sequence,4_10,2023-05-02T20:04:13.127Z,,0,,,2699.9310000014957,completion,,,,,false,,,,74899.80000000075,74899.10000000149,72182.519,72184.30000000075,72199.169,74913.149,8,400,,,
trial,html.Screen,4_11_0,2023-05-02T20:04:15.359Z,,0,1,,2217.0510000011127,response,ISIC_0071300.JPG,,ISIC_0064095.JPG,ISIC_0071300.JPG,false,1,keypress(m),500,77131.20000000112,77130.20000000112,74896.499,74900.10000000149,74913.149,77160.923,8,400,12,,ISIC_0064095.JPG
break,html.Screen,4_11_1,2023-05-02T20:04:15.363Z,,0,,,NaN,,,,,,false,,,,77135.5,77134.20000000112,,77132.10000000149,,77160.923,8,400,,,
break_continue,html.Screen,4_11_2,2023-05-02T20:04:15.364Z,,0,,,NaN,,,,,,false,,,,77137,77136.60000000149,,77135.80000000075,,77160.923,8,400,,,
sequence,flow.Sequence,4_11,2023-05-02T20:04:15.365Z,,0,,,2223.451000001485,completion,,,,,false,,,,77137.40000000037,77136.60000000149,74896.499,74900,74913.149,77160.923,8,400,,,
trial,html.Screen,4_12_0,2023-05-02T20:04:18.173Z,,0,1,,2784.177000001495,response,ISIC_0031671.JPG,,ISIC_0026802.JPG,ISIC_0031671.JPG,false,1,keypress(m),500,79946,79945.10000000149,77144.269,77137.70000000112,77160.923,79958.147,8,400,13,,ISIC_0026802.JPG
break,html.Screen,4_12_1,2023-05-02T20:04:18.178Z,,0,,,NaN,,,,,,false,,,,79951.20000000112,79950.40000000037,,79946.90000000037,,79958.147,8,400,,,
break_continue,html.Screen,4_12_2,2023-05-02T20:04:18.180Z,,0,,,NaN,,,,,,false,,,,79952.80000000075,79952.10000000149,,79951.60000000149,,79958.147,8,400,,,
sequence,flow.Sequence,4_12,2023-05-02T20:04:18.181Z,,0,,,2791.177000001495,completion,,,,,false,,,,79953.30000000075,79952.10000000149,77144.269,77137.60000000149,77160.923,79958.147,8,400,,,
trial,html.Screen,4_13_0,2023-05-02T20:04:21.073Z,,0,1,,2886.453000001493,response,ISIC_1924949.JPG,,ISIC_6634951.JPG,ISIC_6634951.JPG,false,0,keypress(z),500,82845.70000000112,82844.60000000149,79941.497,79953.70000000112,79958.147,82855.274,8,400,14,,ISIC_1924949.JPG
break,html.Screen,4_13_1,2023-05-02T20:04:21.080Z,,0,,,NaN,,,,,,false,,,,82853.10000000149,82851.30000000075,,82847,,82855.274,8,400,,,
break_continue,html.Screen,4_13_2,2023-05-02T20:04:21.082Z,,0,,,NaN,,,,,,false,,,,82854.90000000037,82854.5,,82853.90000000037,,82855.274,8,400,,,
sequence,flow.Sequence,4_13,2023-05-02T20:04:21.083Z,,0,,,2896.353000000003,completion,,,,,false,,,,82855.30000000075,82854.5,79941.497,79953.60000000149,79958.147,82855.274,8,400,,,
trial,html.Screen,4_14_0,2023-05-02T20:04:23.663Z,,0,1,,2579.1260000003676,response,ISIC_2238901.JPG,,ISIC_0025267.JPG,ISIC_2238901.JPG,false,1,keypress(m),500,85435.40000000037,85434.40000000037,82838.624,82856.30000000075,82855.274,85452.706,8,400,15,,ISIC_0025267.JPG
break,html.Screen,4_14_1,2023-05-02T20:04:23.668Z,,0,,,NaN,,,,,,false,,,,85440.60000000149,85439.80000000075,,85435.80000000075,,85452.706,8,400,,,
break_continue,html.Screen,4_14_2,2023-05-02T20:04:23.669Z,,0,,,NaN,,,,,,false,,,,85442,85441.60000000149,,85440.90000000037,,85452.706,8,400,,,
sequence,flow.Sequence,4_14,2023-05-02T20:04:23.670Z,,0,,,2586.326000001485,completion,,,,,false,,,,85442.5,85441.60000000149,82838.624,82856.20000000112,82855.274,85452.706,8,400,,,
trial,html.Screen,4_15_0,2023-05-02T20:04:26.396Z,,0,1,,2715.494000001112,response,ISIC_9564379.JPG,,ISIC_2778131.JPG,ISIC_2778131.JPG,false,0,keypress(z),500,88168.70000000112,88168.20000000112,85436.056,85442.80000000075,85452.706,88183.334,8,400,16,,ISIC_9564379.JPG
break,html.Screen,4_15_1,2023-05-02T20:04:26.398Z,,0,,,NaN,,,,,,false,,,,88170.70000000112,88170,,88169,,88183.334,8,400,,,
break_continue,html.Screen,4_15_2,2023-05-02T20:04:26.399Z,,0,,,NaN,,,,,,false,,,,88171.80000000075,88171.5,,88170.90000000037,,88183.334,8,400,,,
sequence,flow.Sequence,4_15,2023-05-02T20:04:26.400Z,,0,,,2718.7939999999944,completion,,,,,false,,,,88172.30000000075,88171.5,85436.056,85442.70000000112,85452.706,88183.334,8,400,,,
trial,html.Screen,4_16_0,2023-05-02T20:04:33.529Z,,0,1,,7117.06600000037,response,ISIC_1585511.JPG,,ISIC_9786863.JPG,ISIC_1585511.JPG,false,1,keypress(m),500,95301.70000000112,95300.40000000037,88166.684,88172.5,88183.334,95309.603,8,400,17,,ISIC_9786863.JPG
break,html.Screen,4_16_1,2023-05-02T20:04:33.534Z,,0,,,NaN,,,,,,false,,,,95306.70000000112,95305.80000000075,,95302.80000000075,,95309.603,8,400,,,
break_continue,html.Screen,4_16_2,2023-05-02T20:04:33.536Z,,0,,,NaN,,,,,,false,,,,95309,95308.5,,95307.20000000112,,95309.603,8,400,,,
sequence,flow.Sequence,4_16,2023-05-02T20:04:33.538Z,,0,,,7125.165999999997,completion,,,,,false,,,,95310.70000000112,95308.5,88166.684,88172.5,88183.334,95309.603,8,400,,,
trial,html.Screen,4_17_0,2023-05-02T20:04:36.825Z,,0,1,,3287.396999999997,response,ISIC_7260977.JPG,,ISIC_8363069.JPG,ISIC_7260977.JPG,false,1,keypress(m),500,98597.5,98597,95292.953,95311.30000000075,95309.603,98606.335,8,400,18,,ISIC_8363069.JPG
break,html.Screen,4_17_1,2023-05-02T20:04:36.828Z,,0,,,NaN,,,,,,false,,,,98600.60000000149,98599.80000000075,,98597.90000000037,,98606.335,8,400,,,
break_continue,html.Screen,4_17_2,2023-05-02T20:04:36.829Z,,0,,,NaN,,,,,,false,,,,98602,98601.60000000149,,98600.90000000037,,98606.335,8,400,,,
sequence,flow.Sequence,4_17,2023-05-02T20:04:36.830Z,,0,,,3291.9970000014873,completion,,,,,false,,,,98602.40000000037,98601.60000000149,95292.953,95311.20000000112,95309.603,98606.335,8,400,,,
trial,html.Screen,4_18_0,2023-05-02T20:04:39.418Z,,0,1,,2583.565000000366,response,ISIC_8551124.JPG,,ISIC_0056063.JPG,ISIC_8551124.JPG,false,1,keypress(m),500,101190.5,101189.90000000037,98589.685,98602.70000000112,98606.335,101203.765,8,400,19,,ISIC_0056063.JPG
break,html.Screen,4_18_1,2023-05-02T20:04:39.420Z,,0,,,NaN,,,,,,false,,,,101192.80000000075,101192.20000000112,,101191.10000000149,,101203.765,8,400,,,
break_continue,html.Screen,4_18_2,2023-05-02T20:04:39.421Z,,0,,,NaN,,,,,,false,,,,101194.10000000149,101193.80000000075,,101193.20000000112,,101203.765,8,400,,,
sequence,flow.Sequence,4_18,2023-05-02T20:04:39.422Z,,0,,,2587.4650000007387,completion,,,,,false,,,,101194.70000000112,101193.80000000075,98589.685,98602.60000000149,98606.335,101203.765,8,400,,,
trial,html.Screen,4_19_0,2023-05-02T20:04:42.881Z,,0,1,,3448.8350000014907,response,ISIC_0031785.JPG,,ISIC_0887792.JPG,ISIC_0887792.JPG,false,0,keypress(z),500,104653.90000000037,104652.60000000149,101187.115,101195,101203.765,104666.998,8,400,20,,ISIC_0031785.JPG
break,html.Screen,4_19_1,2023-05-02T20:04:42.887Z,,0,,,NaN,,,,,,false,,,,104659.30000000075,104658.20000000112,,104654.90000000037,,104666.998,8,400,,,
break_continue,html.Screen,4_19_2,2023-05-02T20:04:42.889Z,,0,,,NaN,,,,,,false,,,,104661.80000000075,104661,,104659.90000000037,,104666.998,8,400,,,
sequence,flow.Sequence,4_19,2023-05-02T20:04:42.890Z,,0,,,3457.2350000000006,completion,,,,,false,,,,104662.60000000149,104661,101187.115,101194.90000000037,101203.765,104666.998,8,400,,,
trial,html.Screen,4_20_0,2023-05-02T20:04:45.951Z,,0,1,,3056.501999999993,response,ISIC_0026398.JPG,,ISIC_0000413.JPG,ISIC_0000413.JPG,false,0,keypress(z),500,107724,107723.5,104650.348,104663.40000000037,104666.998,107730.631,8,400,21,,ISIC_0026398.JPG
break,html.Screen,4_20_1,2023-05-02T20:04:45.953Z,,0,,,NaN,,,,,,false,,,,107726.20000000112,107725.30000000075,,107724.40000000037,,107730.631,8,400,,,
break_continue,html.Screen,4_20_2,2023-05-02T20:04:45.955Z,,0,,,NaN,,,,,,false,,,,107727.40000000037,107727,,107726.5,,107730.631,8,400,,,
sequence,flow.Sequence,4_20,2023-05-02T20:04:45.955Z,,0,,,3060.001999999993,completion,,,,,false,,,,107727.90000000037,107727,104650.348,104663.10000000149,104666.998,107730.631,8,400,,,
trial,html.Screen,4_21_0,2023-05-02T20:04:57.449Z,,0,1,,11521.822,timeout,ISIC_0012160.JPG,,ISIC_7433993.JPG,,false,,,500,119221.90000000037,119220.60000000149,107713.981,107728.20000000112,107730.631,119252.453,8,400,22,,
break,html.Screen,4_21_1,2023-05-02T20:04:57.455Z,,0,,,NaN,,,,,,false,,,,119227.20000000112,119226.20000000112,,119223.10000000149,,119252.453,8,400,,,
break_continue,html.Screen,4_21_2,2023-05-02T20:04:57.456Z,,0,,,NaN,,,,,,false,,,,119228.90000000037,119228.60000000149,,119227.90000000037,,119252.453,8,400,,,
sequence,flow.Sequence,4_21,2023-05-02T20:04:57.457Z,,0,,,11497.969000001496,completion,,,,,false,,,,119229.40000000037,119228.60000000149,107713.981,107728.10000000149,107730.631,119252.453,8,400,,,
trial,html.Screen,4_22_0,2023-05-02T20:05:08.328Z,,0,1,,10847.147000001496,response,ISIC_4347535.JPG,,ISIC_0033125.JPG,ISIC_4347535.JPG,false,1,keypress(m),500,130100.80000000075,130099.60000000149,119235.803,119229.70000000112,119252.453,130108.452,8,400,23,,ISIC_0033125.JPG
break,html.Screen,4_22_1,2023-05-02T20:05:08.335Z,,0,,,NaN,,,,,,false,,,,130107.90000000037,130105.70000000112,,130102.10000000149,,130108.452,8,400,,,
break_continue,html.Screen,4_22_2,2023-05-02T20:05:08.337Z,,0,,,NaN,,,,,,false,,,,130109.70000000112,130109.30000000075,,130108.30000000075,,130108.452,8,400,,,
sequence,flow.Sequence,4_22,2023-05-02T20:05:08.338Z,,0,,,10856.847000000751,completion,,,,,false,,,,130110.20000000112,130109.30000000075,119235.803,119229.60000000149,119252.453,130108.452,8,400,,,
trial,html.Screen,4_23_0,2023-05-02T20:05:11.279Z,,0,1,,2942.1480000014853,response,ISIC_0034141.JPG,,ISIC_7071944.JPG,ISIC_7071944.JPG,false,0,keypress(z),500,133051.70000000112,133050.6000000015,130091.802,130110.60000000149,130108.452,133072.175,8,400,24,,ISIC_0034141.JPG
break,html.Screen,4_23_1,2023-05-02T20:05:11.286Z,,0,,,NaN,,,,,,false,,,,133058.90000000037,133057.5,,133053,,133072.175,8,400,,,
break_continue,html.Screen,4_23_2,2023-05-02T20:05:11.292Z,,0,,,NaN,,,,,,false,,,,133065.1000000015,133064.70000000112,,133064,,133072.175,8,400,,,
sequence,flow.Sequence,4_23,2023-05-02T20:05:11.293Z,,0,,,2956.248000001113,completion,,,,,false,,,,133065.6000000015,133064.70000000112,130091.802,130110.5,130108.452,133072.175,8,400,,,
trial,html.Screen,4_24_0,2023-05-02T20:05:14.525Z,,0,1,,3223.8250000000116,response,ISIC_0067621.JPG,,ISIC_6774326.JPG,ISIC_6774326.JPG,false,0,keypress(z),500,136297.30000000075,136296,133038.875,133065.90000000037,133072.175,136302.305,8,400,25,,ISIC_0067621.JPG
break,html.Screen,4_24_1,2023-05-02T20:05:14.532Z,,0,,,NaN,,,,,,false,,,,136304.30000000075,136302,,136298.70000000112,,136302.305,8,400,,,
break_continue,html.Screen,4_24_2,2023-05-02T20:05:14.534Z,,0,,,NaN,,,,,,false,,,,136306.40000000037,136305.90000000037,,136305.30000000075,,136302.305,8,400,,,
sequence,flow.Sequence,4_24,2023-05-02T20:05:14.534Z,,0,,,3233.725000000384,completion,,,,,false,,,,136306.80000000075,136305.90000000037,133038.875,133065.80000000075,133072.175,136302.305,8,400,,,
trial,html.Screen,4_25_0,2023-05-02T20:05:26.020Z,,0,1,,11521.831000000006,timeout,ISIC_0963531.JPG,,ISIC_9023152.JPG,,false,,,500,147792.6000000015,147791.90000000037,136285.655,136307.1000000015,136302.305,147824.136,8,400,26,,
break,html.Screen,4_25_1,2023-05-02T20:05:26.024Z,,0,,,NaN,,,,,,false,,,,147797.1000000015,147795.70000000112,,147793.90000000037,,147824.136,8,400,,,
break_continue,html.Screen,4_25_2,2023-05-02T20:05:26.028Z,,0,,,NaN,,,,,,false,,,,147800.20000000112,147799.40000000037,,147798.1000000015,,147824.136,8,400,,,
sequence,flow.Sequence,4_25,2023-05-02T20:05:26.029Z,,0,,,11497.09500000038,completion,,,,,false,,,,147801.5,147799.40000000037,136285.655,136307,136302.305,147824.136,8,400,,,
trial,html.Screen,4_26_0,2023-05-02T20:05:29.109Z,,0,1,,3056.3640000000014,response,ISIC_0900349.JPG,,ISIC_0031821.JPG,ISIC_0900349.JPG,false,1,keypress(m),500,150881.90000000037,150880.5,147807.486,147802.40000000037,147824.136,150887.849,8,400,27,,ISIC_0031821.JPG
break,html.Screen,4_26_1,2023-05-02T20:05:29.114Z,,0,,,NaN,,,,,,false,,,,150886.90000000037,150885.5,,150883.70000000112,,150887.849,8,400,,,
break_continue,html.Screen,4_26_2,2023-05-02T20:05:29.116Z,,0,,,NaN,,,,,,false,,,,150889.1000000015,150888.6000000015,,150887.30000000075,,150887.849,8,400,,,
sequence,flow.Sequence,4_26,2023-05-02T20:05:29.117Z,,0,,,3064.4640000014915,completion,,,,,false,,,,150889.70000000112,150888.6000000015,147807.486,147802.1000000015,147824.136,150887.849,8,400,,,
trial,html.Screen,4_27_0,2023-05-02T20:05:32.393Z,,0,1,,3276.6510000000126,response,ISIC_0011798.JPG,,ISIC_8945395.JPG,ISIC_8945395.JPG,false,0,keypress(z),500,154165.90000000037,154164.5,150871.199,150890.1000000015,150887.849,154184.581,8,400,28,,ISIC_0011798.JPG
break,html.Screen,4_27_1,2023-05-02T20:05:32.401Z,,0,,,NaN,,,,,,false,,,,154173.90000000037,154171.90000000037,,154167.6000000015,,154184.581,8,400,,,
break_continue,html.Screen,4_27_2,2023-05-02T20:05:32.402Z,,0,,,NaN,,,,,,false,,,,154175.20000000112,154174.80000000075,,154174.20000000112,,154184.581,8,400,,,
sequence,flow.Sequence,4_27,2023-05-02T20:05:32.403Z,,0,,,3286.9510000007576,completion,,,,,false,,,,154175.70000000112,154174.80000000075,150871.199,150890,150887.849,154184.581,8,400,,,
trial,html.Screen,4_28_0,2023-05-02T20:05:35.840Z,,0,1,,3427.2190000007395,response,ISIC_3800974.JPG,,ISIC_0000074.JPG,ISIC_3800974.JPG,false,1,keypress(m),500,157613.1000000015,157611.80000000075,154167.931,154176,154184.581,157631.166,8,400,29,,ISIC_0000074.JPG
break,html.Screen,4_28_1,2023-05-02T20:05:35.847Z,,0,,,NaN,,,,,,false,,,,157619.80000000075,157618.70000000112,,157614.30000000075,,157631.166,8,400,,,
break_continue,html.Screen,4_28_2,2023-05-02T20:05:35.849Z,,0,,,NaN,,,,,,false,,,,157621.20000000112,157620.80000000075,,157620.20000000112,,157631.166,8,400,,,
sequence,flow.Sequence,4_28,2023-05-02T20:05:35.850Z,,0,,,3436.2190000007395,completion,,,,,false,,,,157622.30000000075,157620.80000000075,154167.931,154175.90000000037,154184.581,157631.166,8,400,,,
trial,html.Screen,4_29_0,2023-05-02T20:05:47.350Z,,0,1,,11521.831000000006,timeout,ISIC_0064102.JPG,,ISIC_4672131.JPG,,false,,,500,169122.80000000075,169121.40000000037,157614.516,157622.70000000112,157631.166,169152.997,8,400,30,,
break,html.Screen,4_29_1,2023-05-02T20:05:47.354Z,,0,,,NaN,,,,,,false,,,,169127.1000000015,169125.90000000037,,169123.80000000075,,169152.997,8,400,,,
break_continue,html.Screen,4_29_2,2023-05-02T20:05:47.356Z,,0,,,NaN,,,,,,false,,,,169128.80000000075,169128.30000000075,,169127.6000000015,,169152.997,8,400,,,
sequence,flow.Sequence,4_29,2023-05-02T20:05:47.357Z,,0,,,11497.134000000748,completion,,,,,false,,,,169129.40000000037,169128.30000000075,157614.516,157622.6000000015,157631.166,169152.997,8,400,,,
trial,html.Screen,4_30_0,2023-05-02T20:05:49.962Z,,0,1,,2581.002999999997,response,ISIC_0015950.JPG,,ISIC_0028616.JPG,ISIC_0015950.JPG,false,1,keypress(m),500,171734.90000000037,171734,169136.347,169129.80000000075,169152.997,171750.523,8,400,31,,ISIC_0028616.JPG
break,html.Screen,4_30_1,2023-05-02T20:05:49.968Z,,0,,,NaN,,,,,,false,,,,171740.70000000112,171739.1000000015,,171736.90000000037,,171750.523,8,400,,,
break_continue,html.Screen,4_30_2,2023-05-02T20:05:49.969Z,,0,,,NaN,,,,,,false,,,,171742.1000000015,171741.70000000112,,171741,,171750.523,8,400,,,
sequence,flow.Sequence,4_30,2023-05-02T20:05:49.970Z,,0,,,2588.7030000011146,completion,,,,,false,,,,171742.80000000075,171741.70000000112,169136.347,169129.6000000015,169152.997,171750.523,8,400,,,
trial,html.Screen,4_31_0,2023-05-02T20:05:53.014Z,,0,1,,3034.877000000386,response,ISIC_0010750.JPG,,ISIC_8352392.JPG,ISIC_8352392.JPG,false,0,keypress(z),500,174786.80000000075,174785.40000000037,171733.873,171743.30000000075,171750.523,174797.498,8,400,32,,ISIC_0010750.JPG
break,html.Screen,4_31_1,2023-05-02T20:05:53.019Z,,0,,,NaN,,,,,,false,,,,174792.1000000015,174791.20000000112,,174788.1000000015,,174797.498,8,400,,,
break_continue,html.Screen,4_31_2,2023-05-02T20:05:53.021Z,,0,,,NaN,,,,,,false,,,,174794.1000000015,174793.6000000015,,174792.80000000075,,174797.498,8,400,,,
sequence,flow.Sequence,4_31,2023-05-02T20:05:53.022Z,,0,,,3043.0770000015036,completion,,,,,false,,,,174794.80000000075,174793.6000000015,171733.873,171743,171750.523,174797.498,8,400,,,
trial,html.Screen,4_32_0,2023-05-02T20:05:56.637Z,,0,1,,3611.0020000000077,response,ISIC_0024574.JPG,,ISIC_7801289.JPG,ISIC_0024574.JPG,false,1,keypress(m),500,178409.30000000075,178408.5,174780.848,174795.40000000037,174797.498,178427.227,8,400,33,,ISIC_7801289.JPG
break,html.Screen,4_32_1,2023-05-02T20:05:56.641Z,,0,,,NaN,,,,,,false,,,,178413.6000000015,178412.1000000015,,178410.20000000112,,178427.227,8,400,,,
break_continue,html.Screen,4_32_2,2023-05-02T20:05:56.643Z,,0,,,NaN,,,,,,false,,,,178415.90000000037,178415.1000000015,,178414.20000000112,,178427.227,8,400,,,
sequence,flow.Sequence,4_32,2023-05-02T20:05:56.655Z,,0,,,3617.602000001498,completion,,,,,false,,,,178428,178415.1000000015,174780.848,174795.20000000112,174797.498,178427.227,8,400,,,
trial,html.Screen,4_33_0,2023-05-02T20:05:59.701Z,,0,1,,3045.2729999999865,response,ISIC_0595080.JPG,,ISIC_7889838.JPG,ISIC_0595080.JPG,false,1,keypress(m),500,181473.40000000037,181472.5,178410.577,178428.6000000015,178427.227,181490.871,8,400,34,,ISIC_7889838.JPG
break,html.Screen,4_33_1,2023-05-02T20:05:59.706Z,,0,,,NaN,,,,,,false,,,,181478.80000000075,181477.1000000015,,181474.40000000037,,181490.871,8,400,,,
break_continue,html.Screen,4_33_2,2023-05-02T20:05:59.708Z,,0,,,NaN,,,,,,false,,,,181480.90000000037,181479.80000000075,,181479.20000000112,,181490.871,8,400,,,
sequence,flow.Sequence,4_33,2023-05-02T20:05:59.709Z,,0,,,3052.5730000007316,completion,,,,,false,,,,181481.30000000075,181479.80000000075,178410.577,178428.5,178427.227,181490.871,8,400,,,
trial,html.Screen,4_34_0,2023-05-02T20:06:02.316Z,,0,1,,2596.529000000359,response,ISIC_4425604.JPG,,ISIC_0026103.JPG,ISIC_4425604.JPG,false,1,keypress(m),500,184088.6000000015,184087.40000000037,181474.221,181481.80000000075,181490.871,184104.941,8,400,35,,ISIC_0026103.JPG
break,html.Screen,4_34_1,2023-05-02T20:06:02.323Z,,0,,,NaN,,,,,,false,,,,184096,184093.80000000075,,184089.90000000037,,184104.941,8,400,,,
break_continue,html.Screen,4_34_2,2023-05-02T20:06:02.327Z,,0,,,NaN,,,,,,false,,,,184100,184099,,184097.20000000112,,184104.941,8,400,,,
sequence,flow.Sequence,4_34,2023-05-02T20:06:02.328Z,,0,,,2608.1289999999863,completion,,,,,false,,,,184100.40000000037,184099,181474.221,181481.70000000112,181490.871,184104.941,8,400,,,
trial,html.Screen,4_35_0,2023-05-02T20:06:04.901Z,,0,1,,2567.3590000007534,response,ISIC_0706692.JPG,,ISIC_0066739.JPG,ISIC_0066739.JPG,false,0,keypress(z),500,186673.90000000037,186672.30000000075,184088.291,184100.70000000112,184104.941,186685.707,8,400,36,,ISIC_0706692.JPG
break,html.Screen,4_35_1,2023-05-02T20:06:04.907Z,,0,,,NaN,,,,,,false,,,,186679.80000000075,186678.20000000112,,186675,,186685.707,8,400,,,
break_continue,html.Screen,4_35_2,2023-05-02T20:06:04.910Z,,0,,,NaN,,,,,,false,,,,186682.80000000075,186681.80000000075,,186680.6000000015,,186685.707,8,400,,,
sequence,flow.Sequence,4_35,2023-05-02T20:06:04.911Z,,0,,,2576.8590000007534,completion,,,,,false,,,,186683.90000000037,186681.80000000075,184088.291,184100.70000000112,184104.941,186685.707,8,400,,,
trial,html.Screen,4_36_0,2023-05-02T20:06:08.477Z,,0,1,,3562.4930000011227,response,ISIC_0420777.JPG,,ISIC_8562820.JPG,ISIC_0420777.JPG,false,1,keypress(m),500,190249.80000000075,190248.20000000112,186669.057,186684.5,186685.707,190265.499,8,400,37,,ISIC_8562820.JPG
break,html.Screen,4_36_1,2023-05-02T20:06:08.484Z,,0,,,NaN,,,,,,false,,,,190256.6000000015,190254.30000000075,,190251.20000000112,,190265.499,8,400,,,
break_continue,html.Screen,4_36_2,2023-05-02T20:06:08.486Z,,0,,,NaN,,,,,,false,,,,190258.5,190258.1000000015,,190257.5,,190265.499,8,400,,,
sequence,flow.Sequence,4_36,2023-05-02T20:06:08.486Z,,0,,,3572.3930000014952,completion,,,,,false,,,,190258.90000000037,190258.1000000015,186669.057,186684.20000000112,186685.707,190265.499,8,400,,,
trial,html.Screen,4_37_0,2023-05-02T20:06:11.338Z,,0,1,,2844.0009999999893,response,ISIC_0034061.JPG,,ISIC_0033068.JPG,ISIC_0033068.JPG,false,0,keypress(z),500,193110.90000000037,193109.5,190248.849,190259.20000000112,190265.499,193129.33,8,400,38,,ISIC_0034061.JPG
break,html.Screen,4_37_1,2023-05-02T20:06:11.345Z,,0,,,NaN,,,,,,false,,,,193118,193117.30000000075,,193112.30000000075,,193129.33,8,400,,,
break_continue,html.Screen,4_37_2,2023-05-02T20:06:11.347Z,,0,,,NaN,,,,,,false,,,,193119.20000000112,193118.80000000075,,193118.30000000075,,193129.33,8,400,,,
sequence,flow.Sequence,4_37,2023-05-02T20:06:11.347Z,,0,,,2853.3010000007343,completion,,,,,false,,,,193119.70000000112,193118.80000000075,190248.849,190259.20000000112,190265.499,193129.33,8,400,,,
trial,html.Screen,4_38_0,2023-05-02T20:06:15.435Z,,0,1,,4070.3700000011304,response,ISIC_0054982.JPG,,ISIC_0028554.JPG,ISIC_0054982.JPG,false,1,keypress(m),500,197207.20000000112,197199.70000000112,193112.68,193119.90000000037,193129.33,197225.27,8,400,39,,ISIC_0028554.JPG
break,html.Screen,4_38_1,2023-05-02T20:06:15.440Z,,0,,,NaN,,,,,,false,,,,197213.20000000112,197212.40000000037,,197208.30000000075,,197225.27,8,400,,,
break_continue,html.Screen,4_38_2,2023-05-02T20:06:15.442Z,,0,,,NaN,,,,,,false,,,,197214.40000000037,197214,,197213.5,,197225.27,8,400,,,
sequence,flow.Sequence,4_38,2023-05-02T20:06:15.442Z,,0,,,4084.670000000013,completion,,,,,false,,,,197214.80000000075,197214,193112.68,193119.80000000075,193129.33,197225.27,8,400,,,
trial,html.Screen,4_39_0,2023-05-02T20:06:18.099Z,,0,1,,2645.130000000383,response,ISIC_0032044.JPG,,ISIC_7544537.JPG,ISIC_7544537.JPG,false,0,keypress(z),500,199871.80000000075,199870.40000000037,197208.62,197215.20000000112,197225.27,199889.293,8,400,40,,ISIC_0032044.JPG
break,html.Screen,4_39_1,2023-05-02T20:06:18.106Z,,0,,,NaN,,,,,,false,,,,199878.70000000112,199877.40000000037,,199873.5,,199889.293,8,400,,,
break_continue,html.Screen,4_39_2,2023-05-02T20:06:18.107Z,,0,,,NaN,,,,,,false,,,,199880,199879.6000000015,,199879,,199889.293,8,400,,,
sequence,flow.Sequence,4_39,2023-05-02T20:06:18.108Z,,0,,,2654.3300000015006,completion,,,,,false,,,,199880.40000000037,199879.6000000015,197208.62,197215,197225.27,199889.293,8,400,,,
trial,html.Screen,4_40_0,2023-05-02T20:06:21.231Z,,0,1,,3113.307000001485,response,ISIC_2795397.JPG,,ISIC_0029874.JPG,ISIC_2795397.JPG,false,1,keypress(m),500,203003.90000000037,203002.6000000015,199872.643,199880.70000000112,199889.293,203019.523,8,400,41,,ISIC_0029874.JPG
break,html.Screen,4_40_1,2023-05-02T20:06:21.237Z,,0,,,NaN,,,,,,false,,,,203009.90000000037,203009.20000000112,,203005.40000000037,,203019.523,8,400,,,
break_continue,html.Screen,4_40_2,2023-05-02T20:06:21.239Z,,0,,,NaN,,,,,,false,,,,203011.30000000075,203010.90000000037,,203010.20000000112,,203019.523,8,400,,,
sequence,flow.Sequence,4_40,2023-05-02T20:06:21.239Z,,0,,,3121.6070000003674,completion,,,,,false,,,,203011.90000000037,203010.90000000037,199872.643,199880.70000000112,199889.293,203019.523,8,400,,,
trial,html.Screen,4_41_0,2023-05-02T20:06:24.127Z,,0,1,,2879.177000001131,response,ISIC_9470020.JPG,,ISIC_9397126.JPG,ISIC_9470020.JPG,false,1,keypress(m),500,205900.20000000112,205898.70000000112,203002.873,203012.20000000112,203019.523,205916.653,8,400,42,,ISIC_9397126.JPG
break,html.Screen,4_41_1,2023-05-02T20:06:24.133Z,,0,,,NaN,,,,,,false,,,,205906.1000000015,205905.20000000112,,205901.70000000112,,205916.653,8,400,,,
break_continue,html.Screen,4_41_2,2023-05-02T20:06:24.135Z,,0,,,NaN,,,,,,false,,,,205907.6000000015,205907,,205906.40000000037,,205916.653,8,400,,,
sequence,flow.Sequence,4_41,2023-05-02T20:06:24.135Z,,0,,,2887.4770000000135,completion,,,,,false,,,,205908,205907,203002.873,203012.1000000015,203019.523,205916.653,8,400,,,
trial,html.Screen,4_42_0,2023-05-02T20:06:26.709Z,,0,1,,2558.0470000011264,response,ISIC_8775014.JPG,,ISIC_2700320.JPG,ISIC_8775014.JPG,false,1,keypress(m),500,208481.80000000075,208474.70000000112,205900.003,205908.40000000037,205916.653,208497.445,8,400,43,,ISIC_2700320.JPG
break,html.Screen,4_42_1,2023-05-02T20:06:26.715Z,,0,,,NaN,,,,,,false,,,,208488.1000000015,208487.20000000112,,208483.40000000037,,208497.445,8,400,,,
break_continue,html.Screen,4_42_2,2023-05-02T20:06:26.717Z,,0,,,NaN,,,,,,false,,,,208489.6000000015,208489.1000000015,,208488.5,,208497.445,8,400,,,
sequence,flow.Sequence,4_42,2023-05-02T20:06:26.717Z,,0,,,2572.447000001499,completion,,,,,false,,,,208490.1000000015,208489.1000000015,205900.003,205908.20000000112,205916.653,208497.445,8,400,,,
trial,html.Screen,4_43_0,2023-05-02T20:06:29.505Z,,0,1,,2778.7550000011106,response,ISIC_2535541.JPG,,ISIC_8234773.JPG,ISIC_8234773.JPG,false,0,keypress(z),500,211277.70000000112,211276.20000000112,208480.795,208490.5,208497.445,211294.674,8,400,44,,ISIC_2535541.JPG
break,html.Screen,4_43_1,2023-05-02T20:06:29.511Z,,0,,,NaN,,,,,,false,,,,211283.5,211282.6000000015,,211279.20000000112,,211294.674,8,400,,,
break_continue,html.Screen,4_43_2,2023-05-02T20:06:29.512Z,,0,,,NaN,,,,,,false,,,,211284.90000000037,211284.5,,211283.80000000075,,211294.674,8,400,,,
sequence,flow.Sequence,4_43,2023-05-02T20:06:29.513Z,,0,,,2787.054999999993,completion,,,,,false,,,,211285.40000000037,211284.5,208480.795,208490.40000000037,208497.445,211294.674,8,400,,,
trial,html.Screen,4_44_0,2023-05-02T20:06:32.412Z,,0,1,,2888.326000000001,response,ISIC_4634128.JPG,,ISIC_4045781.JPG,ISIC_4634128.JPG,false,1,keypress(m),500,214184.20000000112,214183,211278.024,211285.70000000112,211294.674,214191.798,8,400,45,,ISIC_4045781.JPG
break,html.Screen,4_44_1,2023-05-02T20:06:32.418Z,,0,,,NaN,,,,,,false,,,,214191,214189.1000000015,,214185.70000000112,,214191.798,8,400,,,
break_continue,html.Screen,4_44_2,2023-05-02T20:06:32.421Z,,0,,,NaN,,,,,,false,,,,214194,214193.70000000112,,214192.5,,214191.798,8,400,,,
sequence,flow.Sequence,4_44,2023-05-02T20:06:32.422Z,,0,,,2899.0260000011185,completion,,,,,false,,,,214194.70000000112,214193.70000000112,211278.024,211285.6000000015,211294.674,214191.798,8,400,,,
trial,html.Screen,4_45_0,2023-05-02T20:06:35.410Z,,0,1,,2989.3020000014803,response,ISIC_9214649.JPG,,ISIC_5017874.JPG,ISIC_9214649.JPG,false,1,keypress(m),500,217182.70000000112,217181.1000000015,214175.148,214195,214191.798,217188.815,8,400,46,,ISIC_5017874.JPG
break,html.Screen,4_45_1,2023-05-02T20:06:35.416Z,,0,,,NaN,,,,,,false,,,,217189.1000000015,217186.90000000037,,217184.1000000015,,217188.815,8,400,,,
break_continue,html.Screen,4_45_2,2023-05-02T20:06:35.419Z,,0,,,NaN,,,,,,false,,,,217191.90000000037,217191.5,,217190.90000000037,,217188.815,8,400,,,
sequence,flow.Sequence,4_45,2023-05-02T20:06:35.420Z,,0,,,2999.70199999999,completion,,,,,false,,,,217192.40000000037,217191.5,214175.148,214194.90000000037,214191.798,217188.815,8,400,,,
trial,html.Screen,4_46_0,2023-05-02T20:06:46.908Z,,0,1,,11521.820000000007,timeout,ISIC_4438786.JPG,,ISIC_4049598.JPG,,false,,,500,228680.30000000075,228679.30000000075,217172.165,217192.70000000112,217188.815,228710.635,8,400,47,,
break,html.Screen,4_46_1,2023-05-02T20:06:46.912Z,,0,,,NaN,,,,,,false,,,,228685.1000000015,228683.40000000037,,228681.30000000075,,228710.635,8,400,,,
break_continue,html.Screen,4_46_2,2023-05-02T20:06:46.916Z,,0,,,NaN,,,,,,false,,,,228688.80000000075,228687.80000000075,,228686.30000000075,,228710.635,8,400,,,
sequence,flow.Sequence,4_46,2023-05-02T20:06:46.917Z,,0,,,11498.985000000743,completion,,,,,false,,,,228689.6000000015,228687.80000000075,217172.165,217192.70000000112,217188.815,228710.635,8,400,,,
trial,html.Screen,4_47_0,2023-05-02T20:06:50.044Z,,0,1,,3104.965000001481,response,ISIC_0033309.JPG,,ISIC_0032766.JPG,ISIC_0032766.JPG,false,0,keypress(z),500,231817,231815.6000000015,228693.985,228689.90000000037,228710.635,231824.314,8,400,48,,ISIC_0033309.JPG
break,html.Screen,4_47_1,2023-05-02T20:06:50.054Z,,0,,,NaN,,,,,,false,,,,231826.6000000015,231824.30000000075,,231818.6000000015,,231824.314,8,400,,,
break_continue,html.Screen,4_47_2,2023-05-02T20:06:50.055Z,,0,,,NaN,,,,,,false,,,,231827.90000000037,231827.6000000015,,231826.90000000037,,231824.314,8,400,,,
sequence,flow.Sequence,4_47,2023-05-02T20:06:50.056Z,,0,,,3116.965000001481,completion,,,,,false,,,,231828.30000000075,231827.6000000015,228693.985,228689.80000000075,228710.635,231824.314,8,400,,,
trial,html.Screen,4_48_0,2023-05-02T20:06:52.897Z,,0,1,,2844.8860000011045,response,ISIC_9972518.JPG,,ISIC_7505254.JPG,ISIC_9972518.JPG,false,1,keypress(m),500,234669.70000000112,234669.20000000112,231807.664,231828.6000000015,231824.314,234671.506,8,400,49,,ISIC_7505254.JPG
break,html.Screen,4_48_1,2023-05-02T20:06:52.900Z,,0,,,NaN,,,,,,false,,,,234673.1000000015,234672,,234670.1000000015,,234671.506,8,400,,,
break_continue,html.Screen,4_48_2,2023-05-02T20:06:52.902Z,,0,,,NaN,,,,,,false,,,,234674.90000000037,234674.30000000075,,234673.6000000015,,234671.506,8,400,,,
sequence,flow.Sequence,4_48,2023-05-02T20:06:52.903Z,,0,,,2849.986000000732,completion,,,,,false,,,,234675.5,234674.30000000075,231807.664,231828.5,231824.314,234671.506,8,400,,,
trial,html.Screen,4_49_0,2023-05-02T20:06:55.357Z,,0,1,,2456.6940000011236,response,ISIC_0065066.JPG,,ISIC_0046458.JPG,ISIC_0065066.JPG,false,1,keypress(m),500,237129.70000000112,237128.20000000112,234654.856,234676,234671.506,237135.733,8,400,50,,ISIC_0046458.JPG
break,html.Screen,4_49_1,2023-05-02T20:07:00.343Z,,0,,,4995.043000000005,timeout,,,,,false,,,,242115.6000000015,242114.128,237119.083,237131.20000000112,237135.733,242130.776,8,400,,,
break_continue,html.Screen,4_49_2,2023-05-02T20:07:00.877Z,,0,,,478.12400000035996,response,,,,,false,continue,keypress(Space),,242649.5,242608.90000000037,242114.128,242116,242130.776,242663.591,8,400,,,
sequence,flow.Sequence,4_49,2023-05-02T20:07:00.877Z,,0,,,7937.394000000379,completion,,,,,false,,,,242650,242608.90000000037,234654.856,234675.80000000075,234671.506,242663.591,8,400,,,
trial,html.Screen,4_50_0,2023-05-02T20:07:03.387Z,,0,2,,2494.909000000014,response,ISIC_4474170.JPG,,ISIC_2056104.JPG,ISIC_2056104.JPG,false,1,keypress(m),500,245159.6000000015,245158.5,242646.941,242650.30000000075,242663.591,245177.755,8,400,1,,ISIC_4474170.JPG
break,html.Screen,4_50_1,2023-05-02T20:07:03.392Z,,0,,,NaN,,,,,,false,,,,245164.30000000075,245162.90000000037,,245160.80000000075,,245177.755,8,400,,,
break_continue,html.Screen,4_50_2,2023-05-02T20:07:03.394Z,,0,,,NaN,,,,,,false,,,,245167.1000000015,245166.30000000075,,245165.1000000015,,245177.755,8,400,,,
sequence,flow.Sequence,4_50,2023-05-02T20:07:03.396Z,,0,,,2502.7090000007593,completion,,,,,false,,,,245168.20000000112,245166.30000000075,242646.941,242650.20000000112,242663.591,245177.755,8,400,,,
trial,html.Screen,4_51_0,2023-05-02T20:07:05.855Z,,0,2,,2448.445000001113,response,ISIC_8355446.JPG,,ISIC_9738202.JPG,ISIC_9738202.JPG,false,0,keypress(z),500,247627.70000000112,247626.20000000112,245161.105,245169.20000000112,245177.755,247641.983,8,400,2,,ISIC_8355446.JPG
break,html.Screen,4_51_1,2023-05-02T20:07:05.861Z,,0,,,NaN,,,,,,false,,,,247633.90000000037,247631.90000000037,,247628.6000000015,,247641.983,8,400,,,
break_continue,html.Screen,4_51_2,2023-05-02T20:07:05.864Z,,0,,,NaN,,,,,,false,,,,247636.30000000075,247635.70000000112,,247634.6000000015,,247641.983,8,400,,,
sequence,flow.Sequence,4_51,2023-05-02T20:07:05.865Z,,0,,,2457.945000001113,completion,,,,,false,,,,247637.30000000075,247635.70000000112,245161.105,245168.90000000037,245177.755,247641.983,8,400,,,
trial,html.Screen,4_52_0,2023-05-02T20:07:07.864Z,,0,2,,1993.7170000011101,response,ISIC_0702876.JPG,,ISIC_4463086.JPG,ISIC_0702876.JPG,false,1,keypress(m),500,249636.70000000112,249635.70000000112,247625.333,247638,247641.983,249639.994,8,400,3,,ISIC_4463086.JPG
break,html.Screen,4_52_1,2023-05-02T20:07:07.872Z,,0,,,NaN,,,,,,false,,,,249644.70000000112,249642.6000000015,,249637.80000000075,,249639.994,8,400,,,
break_continue,html.Screen,4_52_2,2023-05-02T20:07:07.874Z,,0,,,NaN,,,,,,false,,,,249646.70000000112,249646.20000000112,,249645.6000000015,,249639.994,8,400,,,
sequence,flow.Sequence,4_52,2023-05-02T20:07:07.874Z,,0,,,2004.2170000011101,completion,,,,,false,,,,249647.1000000015,249646.20000000112,247625.333,247637.80000000075,247641.983,249639.994,8,400,,,
trial,html.Screen,4_53_0,2023-05-02T20:07:09.976Z,,0,2,,2107.106000001484,response,ISIC_0066379.JPG,,ISIC_7132685.JPG,ISIC_0066379.JPG,false,1,keypress(m),500,251748.6000000015,251747.1000000015,249623.344,249647.40000000037,249639.994,251754.561,8,400,4,,ISIC_7132685.JPG
break,html.Screen,4_53_1,2023-05-02T20:07:09.985Z,,0,,,NaN,,,,,,false,,,,251758.20000000112,251756.1000000015,,251750.20000000112,,251754.561,8,400,,,
break_continue,html.Screen,4_53_2,2023-05-02T20:07:09.989Z,,0,,,NaN,,,,,,false,,,,251761.6000000015,251761.1000000015,,251759.40000000037,,251754.561,8,400,,,
sequence,flow.Sequence,4_53,2023-05-02T20:07:09.989Z,,0,,,2121.106000001484,completion,,,,,false,,,,251762,251761.1000000015,249623.344,249647.30000000075,249639.994,251754.561,8,400,,,
trial,html.Screen,4_54_0,2023-05-02T20:07:12.037Z,,0,2,,2053.1390000011306,response,ISIC_0070666.JPG,,ISIC_0026231.JPG,ISIC_0070666.JPG,false,1,keypress(m),500,253809.40000000037,253807.70000000112,251737.911,251762.30000000075,251754.561,253819.198,8,400,5,,ISIC_0026231.JPG
break,html.Screen,4_54_1,2023-05-02T20:07:12.043Z,,0,,,NaN,,,,,,false,,,,253815.6000000015,253813.90000000037,,253810.70000000112,,253819.198,8,400,,,
break_continue,html.Screen,4_54_2,2023-05-02T20:07:12.049Z,,0,,,NaN,,,,,,false,,,,253821.40000000037,253820.90000000037,,253820.40000000037,,253819.198,8,400,,,
sequence,flow.Sequence,4_54,2023-05-02T20:07:12.049Z,,0,,,2066.3390000003856,completion,,,,,false,,,,253821.90000000037,253820.90000000037,251737.911,251762.30000000075,251754.561,253819.198,8,400,,,
trial,html.Screen,4_55_0,2023-05-02T20:07:14.556Z,,0,2,,2508.2020000003686,response,ISIC_0031611.JPG,,ISIC_9174306.JPG,ISIC_9174306.JPG,false,0,keypress(z),500,256328.70000000112,256327.40000000037,253802.548,253822.30000000075,253819.198,256333.36,8,400,6,,ISIC_0031611.JPG
break,html.Screen,4_55_1,2023-05-02T20:07:14.564Z,,0,,,NaN,,,,,,false,,,,256337.1000000015,256334.70000000112,,256330,,256333.36,8,400,,,
break_continue,html.Screen,4_55_2,2023-05-02T20:07:14.566Z,,0,,,NaN,,,,,,false,,,,256338.40000000037,256338,,256337.5,,256333.36,8,400,,,
sequence,flow.Sequence,4_55,2023-05-02T20:07:14.566Z,,0,,,2518.801999999996,completion,,,,,false,,,,256338.90000000037,256338,253802.548,253822.20000000112,253819.198,256333.36,8,400,,,
trial,html.Screen,4_56_0,2023-05-02T20:07:16.958Z,,0,2,,2396.5400000003865,response,ISIC_0063319.JPG,,ISIC_0055081.JPG,ISIC_0063319.JPG,false,1,keypress(m),500,258730.70000000112,258729.90000000037,256316.71,256339.1000000015,256333.36,258747.637,8,400,7,,ISIC_0055081.JPG
break,html.Screen,4_56_1,2023-05-02T20:07:16.963Z,,0,,,NaN,,,,,,false,,,,258735.20000000112,258734,,258732.40000000037,,258747.637,8,400,,,
break_continue,html.Screen,4_56_2,2023-05-02T20:07:16.965Z,,0,,,NaN,,,,,,false,,,,258737.90000000037,258737.30000000075,,258735.70000000112,,258747.637,8,400,,,
sequence,flow.Sequence,4_56,2023-05-02T20:07:16.966Z,,0,,,2403.940000000759,completion,,,,,false,,,,258738.5,258737.30000000075,256316.71,256339,256333.36,258747.637,8,400,,,
trial,html.Screen,4_57_0,2023-05-02T20:07:19.195Z,,0,2,,2218.7630000003846,response,ISIC_0027024.JPG,,ISIC_0011490.JPG,ISIC_0011490.JPG,false,0,keypress(z),500,260967.80000000075,260966.40000000037,258730.987,258739,258747.637,260978.768,8,400,8,,ISIC_0027024.JPG
break,html.Screen,4_57_1,2023-05-02T20:07:19.203Z,,0,,,NaN,,,,,,false,,,,260975.70000000112,260973.70000000112,,260969.80000000075,,260978.768,8,400,,,
break_continue,html.Screen,4_57_2,2023-05-02T20:07:19.205Z,,0,,,NaN,,,,,,false,,,,260978.20000000112,260977.70000000112,,260976.70000000112,,260978.768,8,400,,,
sequence,flow.Sequence,4_57,2023-05-02T20:07:19.206Z,,0,,,2230.0630000011297,completion,,,,,false,,,,260978.6000000015,260977.70000000112,258730.987,258738.80000000075,258747.637,260978.768,8,400,,,
trial,html.Screen,4_58_0,2023-05-02T20:07:22.347Z,,0,2,,3140.032000000734,response,ISIC_0010349.JPG,,ISIC_4087267.JPG,ISIC_0010349.JPG,false,1,keypress(m),500,264120.1000000015,264118.80000000075,260962.118,260979.70000000112,260978.768,264125.65,8,400,9,,ISIC_4087267.JPG
break,html.Screen,4_58_1,2023-05-02T20:07:22.353Z,,0,,,NaN,,,,,,false,,,,264125.9000000004,264124.80000000075,,264121.6000000015,,264125.65,8,400,,,
break_continue,html.Screen,4_58_2,2023-05-02T20:07:22.355Z,,0,,,NaN,,,,,,false,,,,264128.2000000011,264127.7000000011,,264126.4000000004,,264125.65,8,400,,,
sequence,flow.Sequence,4_58,2023-05-02T20:07:22.356Z,,0,,,3148.9320000011066,completion,,,,,false,,,,264128.7000000011,264127.7000000011,260962.118,260979.1000000015,260978.768,264125.65,8,400,,,
trial,html.Screen,4_59_0,2023-05-02T20:07:24.772Z,,0,2,,2418.150000000722,response,ISIC_0064932.JPG,,ISIC_9588065.JPG,ISIC_9588065.JPG,false,0,keypress(z),500,266545,266543.80000000075,264109,264129.1000000015,264125.65,266556.578,8,400,10,,ISIC_0064932.JPG
break,html.Screen,4_59_1,2023-05-02T20:07:24.779Z,,0,,,NaN,,,,,,false,,,,266551.5,266549.80000000075,,266546.30000000075,,266556.578,8,400,,,
break_continue,html.Screen,4_59_2,2023-05-02T20:07:24.782Z,,0,,,NaN,,,,,,false,,,,266555.1000000015,266553.9000000004,,266552.5,,266556.578,8,400,,,
sequence,flow.Sequence,4_59,2023-05-02T20:07:24.783Z,,0,,,2428.2500000003492,completion,,,,,false,,,,266556,266553.9000000004,264109,264129,264125.65,266556.578,8,400,,,
trial,html.Screen,4_60_0,2023-05-02T20:07:27.345Z,,0,2,,2560.5220000015106,response,ISIC_9745562.JPG,,ISIC_9211072.JPG,ISIC_9211072.JPG,false,0,keypress(z),500,269117.9000000004,269117.1000000015,266539.928,266556.2000000011,266556.578,269137.355,8,400,11,,ISIC_9745562.JPG
break,html.Screen,4_60_1,2023-05-02T20:07:27.348Z,,0,,,NaN,,,,,,false,,,,269120.7000000011,269119.80000000075,,269118.5,,269137.355,8,400,,,
break_continue,html.Screen,4_60_2,2023-05-02T20:07:27.350Z,,0,,,NaN,,,,,,false,,,,269122.6000000015,269122.1000000015,,269121.4000000004,,269137.355,8,400,,,
sequence,flow.Sequence,4_60,2023-05-02T20:07:27.351Z,,0,,,2565.5220000015106,completion,,,,,false,,,,269123.30000000075,269122.1000000015,266539.928,266556.2000000011,266556.578,269137.355,8,400,,,
trial,html.Screen,4_61_0,2023-05-02T20:07:30.209Z,,0,2,,2843.2450000015087,response,ISIC_0001596.JPG,,ISIC_8851038.JPG,ISIC_0001596.JPG,false,1,keypress(m),500,271982.1000000015,271980.6000000015,269120.705,269123.9000000004,269137.355,272001.164,8,400,12,,ISIC_8851038.JPG
break,html.Screen,4_61_1,2023-05-02T20:07:30.216Z,,0,,,NaN,,,,,,false,,,,271988.30000000075,271987.6000000015,,271983.80000000075,,272001.164,8,400,,,
break_continue,html.Screen,4_61_2,2023-05-02T20:07:30.217Z,,0,,,NaN,,,,,,false,,,,271989.7000000011,271989.30000000075,,271988.6000000015,,272001.164,8,400,,,
sequence,flow.Sequence,4_61,2023-05-02T20:07:30.217Z,,0,,,2851.9450000007637,completion,,,,,false,,,,271990.2000000011,271989.30000000075,269120.705,269123.7000000011,269137.355,272001.164,8,400,,,
trial,html.Screen,4_62_0,2023-05-02T20:07:32.840Z,,0,2,,2610.236000000383,response,ISIC_0034048.JPG,,ISIC_9445053.JPG,ISIC_9445053.JPG,false,0,keypress(z),500,274612.80000000075,274611.4000000004,271984.514,271990.6000000015,272001.164,274631.893,8,400,13,,ISIC_0034048.JPG
break,html.Screen,4_62_1,2023-05-02T20:07:32.847Z,,0,,,NaN,,,,,,false,,,,274619.5,274617.1000000015,,274614.30000000075,,274631.893,8,400,,,
break_continue,html.Screen,4_62_2,2023-05-02T20:07:32.849Z,,0,,,NaN,,,,,,false,,,,274621.30000000075,274620.9000000004,,274620.4000000004,,274631.893,8,400,,,
sequence,flow.Sequence,4_62,2023-05-02T20:07:32.849Z,,0,,,2619.736000000383,completion,,,,,false,,,,274621.80000000075,274620.9000000004,271984.514,271990.5,272001.164,274631.893,8,400,,,
trial,html.Screen,4_63_0,2023-05-02T20:07:35.632Z,,0,2,,2771.8070000011357,response,ISIC_0027100.JPG,,ISIC_0032396.JPG,ISIC_0027100.JPG,false,1,keypress(m),500,277404.6000000015,277403.7000000011,274615.243,274622,274631.893,277412.485,8,400,14,,ISIC_0032396.JPG
break,html.Screen,4_63_1,2023-05-02T20:07:35.637Z,,0,,,NaN,,,,,,false,,,,277409.80000000075,277408,,277405.30000000075,,277412.485,8,400,,,
break_continue,html.Screen,4_63_2,2023-05-02T20:07:35.639Z,,0,,,NaN,,,,,,false,,,,277412,277411.5,,277410.5,,277412.485,8,400,,,
sequence,flow.Sequence,4_63,2023-05-02T20:07:35.640Z,,0,,,2779.607000000018,completion,,,,,false,,,,277412.5,277411.5,274615.243,274622,274631.893,277412.485,8,400,,,
trial,html.Screen,4_64_0,2023-05-02T20:07:38.298Z,,0,2,,2657.315000000759,response,ISIC_3779424.JPG,,ISIC_0010770.JPG,ISIC_0010770.JPG,false,0,keypress(z),500,280071,280069.80000000075,277395.835,277413.30000000075,277412.485,280076.512,8,400,15,,ISIC_3779424.JPG
break,html.Screen,4_64_1,2023-05-02T20:07:38.306Z,,0,,,NaN,,,,,,false,,,,280078.9000000004,280076,,280072.9000000004,,280076.512,8,400,,,
break_continue,html.Screen,4_64_2,2023-05-02T20:07:38.309Z,,0,,,NaN,,,,,,false,,,,280081.80000000075,280081.30000000075,,280079.80000000075,,280076.512,8,400,,,
sequence,flow.Sequence,4_64,2023-05-02T20:07:38.310Z,,0,,,2668.815000000759,completion,,,,,false,,,,280082.30000000075,280081.30000000075,277395.835,277413.1000000015,277412.485,280076.512,8,400,,,
trial,html.Screen,4_65_0,2023-05-02T20:07:41.029Z,,0,2,,2723.6880000011297,response,ISIC_0026690.JPG,,ISIC_2424673.JPG,ISIC_2424673.JPG,false,0,keypress(z),500,282801.7000000011,282800.2000000011,280059.862,280082.6000000015,280076.512,282823.786,8,400,16,,ISIC_0026690.JPG
break,html.Screen,4_65_1,2023-05-02T20:07:41.034Z,,0,,,NaN,,,,,,false,,,,282806.2000000011,282804.9000000004,,282802.5,,282823.786,8,400,,,
break_continue,html.Screen,4_65_2,2023-05-02T20:07:41.039Z,,0,,,NaN,,,,,,false,,,,282811.2000000011,282809.7000000011,,282806.9000000004,,282823.786,8,400,,,
sequence,flow.Sequence,4_65,2023-05-02T20:07:41.040Z,,0,,,2733.1880000011297,completion,,,,,false,,,,282812.6000000015,282809.7000000011,280059.862,280082.5,280076.512,282823.786,8,400,,,
trial,html.Screen,4_66_0,2023-05-02T20:07:43.589Z,,0,2,,2536.1140000003506,response,ISIC_0011169.JPG,,ISIC_0001141.JPG,ISIC_0001141.JPG,false,0,keypress(z),500,285361.2000000011,285359.9000000004,282790.486,282813,282823.786,285371.259,8,400,17,,ISIC_0011169.JPG
break,html.Screen,4_66_1,2023-05-02T20:07:43.593Z,,0,,,NaN,,,,,,false,,,,285365.80000000075,285364.80000000075,,285362.6000000015,,285371.259,8,400,,,
break_continue,html.Screen,4_66_2,2023-05-02T20:07:43.595Z,,0,,,NaN,,,,,,false,,,,285367.5,285367,,285366.2000000011,,285371.259,8,400,,,
sequence,flow.Sequence,4_66,2023-05-02T20:07:43.596Z,,0,,,2543.213999999978,completion,,,,,false,,,,285368.2000000011,285367,282790.486,282812.9000000004,282823.786,285371.259,8,400,,,
trial,html.Screen,4_67_0,2023-05-02T20:07:46.292Z,,0,2,,2692.74099999998,response,ISIC_0014325.JPG,,ISIC_8171432.JPG,ISIC_8171432.JPG,false,0,keypress(z),500,288065.1000000015,288064,285354.609,285368.7000000011,285371.259,288068.586,8,400,18,,ISIC_0014325.JPG
break,html.Screen,4_67_1,2023-05-02T20:07:46.301Z,,0,,,NaN,,,,,,false,,,,288073.6000000015,288071.7000000011,,288066.30000000075,,288068.586,8,400,,,
break_continue,html.Screen,4_67_2,2023-05-02T20:07:46.303Z,,0,,,NaN,,,,,,false,,,,288075.6000000015,288075.2000000011,,288074.5,,288068.586,8,400,,,
sequence,flow.Sequence,4_67,2023-05-02T20:07:46.303Z,,0,,,2703.9410000010976,completion,,,,,false,,,,288076,288075.2000000011,285354.609,285368.7000000011,285371.259,288068.586,8,400,,,
trial,html.Screen,4_68_0,2023-05-02T20:07:48.766Z,,0,2,,2469.214000000735,response,ISIC_4826449.JPG,,ISIC_3730327.JPG,ISIC_3730327.JPG,false,0,keypress(z),500,290538.80000000075,290537.80000000075,288051.936,288076.4000000004,288068.586,290549.468,8,400,19,,ISIC_4826449.JPG
break,html.Screen,4_68_1,2023-05-02T20:07:48.770Z,,0,,,NaN,,,,,,false,,,,290542.2000000011,290541.6000000015,,290539.5,,290549.468,8,400,,,
break_continue,html.Screen,4_68_2,2023-05-02T20:07:48.771Z,,0,,,NaN,,,,,,false,,,,290543.6000000015,290543.2000000011,,290542.6000000015,,290549.468,8,400,,,
sequence,flow.Sequence,4_68,2023-05-02T20:07:48.771Z,,0,,,2474.6140000011073,completion,,,,,false,,,,290544,290543.2000000011,288051.936,288076.30000000075,288068.586,290549.468,8,400,,,
trial,html.Screen,4_69_0,2023-05-02T20:07:51.172Z,,0,2,,2393.8320000007516,response,ISIC_0031096.JPG,,ISIC_5234605.JPG,ISIC_0031096.JPG,false,1,keypress(m),500,292944.6000000015,292943.30000000075,290532.805,290544.2000000011,290549.468,292963.742,8,400,20,,ISIC_5234605.JPG
break,html.Screen,4_69_1,2023-05-02T20:07:51.179Z,,0,,,NaN,,,,,,false,,,,292951.4000000004,292949.30000000075,,292946.30000000075,,292963.742,8,400,,,
break_continue,html.Screen,4_69_2,2023-05-02T20:07:51.182Z,,0,,,NaN,,,,,,false,,,,292954.2000000011,292953.9000000004,,292952.30000000075,,292963.742,8,400,,,
sequence,flow.Sequence,4_69,2023-05-02T20:07:51.182Z,,0,,,2404.432000000379,completion,,,,,false,,,,292954.7000000011,292953.9000000004,290532.805,290544.2000000011,290549.468,292963.742,8,400,,,
trial,html.Screen,4_70_0,2023-05-02T20:07:55.195Z,,0,2,,4001.8580000014626,response,ISIC_0003925.JPG,,ISIC_0059082.JPG,ISIC_0003925.JPG,false,1,keypress(m),500,296967.2000000011,296965.6000000015,292947.092,292954.9000000004,292963.742,296976.418,8,400,21,,ISIC_0059082.JPG
break,html.Screen,4_70_1,2023-05-02T20:07:55.203Z,,0,,,NaN,,,,,,false,,,,296976.1000000015,296973.6000000015,,296968.7000000011,,296976.418,8,400,,,
break_continue,html.Screen,4_70_2,2023-05-02T20:07:55.206Z,,0,,,NaN,,,,,,false,,,,296978.4000000004,296978,,296977.5,,296976.418,8,400,,,
sequence,flow.Sequence,4_70,2023-05-02T20:07:55.206Z,,0,,,4014.2579999999725,completion,,,,,false,,,,296978.9000000004,296978,292947.092,292954.9000000004,292963.742,296976.418,8,400,,,
trial,html.Screen,4_71_0,2023-05-02T20:07:57.817Z,,0,2,,2611.4820000003674,response,ISIC_0000394.JPG,,ISIC_0062991.JPG,ISIC_0062991.JPG,false,0,keypress(z),500,299589.4000000004,299587.9000000004,296959.768,296979.1000000015,296976.418,299607.155,8,400,22,,ISIC_0000394.JPG
break,html.Screen,4_71_1,2023-05-02T20:07:57.824Z,,0,,,NaN,,,,,,false,,,,299596.9000000004,299594.6000000015,,299590.7000000011,,299607.155,8,400,,,
break_continue,html.Screen,4_71_2,2023-05-02T20:07:57.829Z,,0,,,NaN,,,,,,false,,,,299601.30000000075,299599.9000000004,,299598,,299607.155,8,400,,,
sequence,flow.Sequence,4_71,2023-05-02T20:07:57.830Z,,0,,,2623.4820000003674,completion,,,,,false,,,,299602.30000000075,299599.9000000004,296959.768,296979.1000000015,296976.418,299607.155,8,400,,,
trial,html.Screen,4_72_0,2023-05-02T20:08:00.866Z,,0,2,,3030.145000000717,response,ISIC_0058033.JPG,,ISIC_3019509.JPG,ISIC_3019509.JPG,false,0,keypress(z),500,302638.5,302637.30000000075,299590.505,299602.6000000015,299607.155,302654.142,8,400,23,,ISIC_0058033.JPG
break,html.Screen,4_72_1,2023-05-02T20:08:00.871Z,,0,,,NaN,,,,,,false,,,,302643.5,302642.2000000011,,302639.6000000015,,302654.142,8,400,,,
break_continue,html.Screen,4_72_2,2023-05-02T20:08:00.873Z,,0,,,NaN,,,,,,false,,,,302645.6000000015,302644.80000000075,,302644,,302654.142,8,400,,,
sequence,flow.Sequence,4_72,2023-05-02T20:08:00.874Z,,0,,,3037.645000000717,completion,,,,,false,,,,302646.5,302644.80000000075,299590.505,299602.5,299607.155,302654.142,8,400,,,
trial,html.Screen,4_73_0,2023-05-02T20:08:03.303Z,,0,2,,2419.558000001125,response,ISIC_0026596.JPG,,ISIC_0055404.JPG,ISIC_0055404.JPG,false,0,keypress(z),500,305075.6000000015,305073.7000000011,302637.492,302647,302654.142,305085.046,8,400,24,,ISIC_0026596.JPG
break,html.Screen,4_73_1,2023-05-02T20:08:03.307Z,,0,,,NaN,,,,,,false,,,,305079.5,305078.1000000015,,305076.5,,305085.046,8,400,,,
break_continue,html.Screen,4_73_2,2023-05-02T20:08:03.309Z,,0,,,NaN,,,,,,false,,,,305081.9000000004,305081,,305080,,305085.046,8,400,,,
sequence,flow.Sequence,4_73,2023-05-02T20:08:03.311Z,,0,,,2426.8580000000075,completion,,,,,false,,,,305083.4000000004,305081,302637.492,302646.80000000075,302654.142,305085.046,8,400,,,
trial,html.Screen,4_74_0,2023-05-02T20:08:06.102Z,,0,2,,2788.254000000772,response,ISIC_4049598.JPG,,ISIC_9030482.JPG,ISIC_4049598.JPG,false,1,keypress(m),500,307874.7000000011,307873.30000000075,305068.396,305084,305085.046,307882.289,8,400,25,,ISIC_9030482.JPG
break,html.Screen,4_74_1,2023-05-02T20:08:06.107Z,,0,,,NaN,,,,,,false,,,,307879.6000000015,307878.4000000004,,307876.2000000011,,307882.289,8,400,,,
break_continue,html.Screen,4_74_2,2023-05-02T20:08:06.109Z,,0,,,NaN,,,,,,false,,,,307881.6000000015,307881,,307880,,307882.289,8,400,,,
sequence,flow.Sequence,4_74,2023-05-02T20:08:06.109Z,,0,,,2795.954000000027,completion,,,,,false,,,,307882.1000000015,307881,305068.396,305083.80000000075,305085.046,307882.289,8,400,,,
trial,html.Screen,4_75_0,2023-05-02T20:08:08.743Z,,0,2,,2631.5110000007553,response,ISIC_0071492.JPG,,ISIC_0027839.JPG,ISIC_0027839.JPG,false,0,keypress(z),500,310515.2000000011,310513.80000000075,307865.639,307882.5,307882.289,310529.663,8,400,26,,ISIC_0071492.JPG
break,html.Screen,4_75_1,2023-05-02T20:08:08.746Z,,0,,,NaN,,,,,,false,,,,310518.4000000004,310517.7000000011,,310516.5,,310529.663,8,400,,,
break_continue,html.Screen,4_75_2,2023-05-02T20:08:08.747Z,,0,,,NaN,,,,,,false,,,,310520,310519.6000000015,,310518.7000000011,,310529.663,8,400,,,
sequence,flow.Sequence,4_75,2023-05-02T20:08:08.748Z,,0,,,2637.3110000015004,completion,,,,,false,,,,310520.5,310519.6000000015,307865.639,307882.4000000004,307882.289,310529.663,8,400,,,
trial,html.Screen,4_76_0,2023-05-02T20:08:11.744Z,,0,2,,2985.237000000372,response,ISIC_7980339.JPG,,ISIC_6208708.JPG,ISIC_6208708.JPG,false,0,keypress(z),500,313516.4000000004,313514.9000000004,310513.013,310520.80000000075,310529.663,313526.7,8,400,27,,ISIC_7980339.JPG
break,html.Screen,4_76_1,2023-05-02T20:08:11.749Z,,0,,,NaN,,,,,,false,,,,313521.80000000075,313520.9000000004,,313517.9000000004,,313526.7,8,400,,,
break_continue,html.Screen,4_76_2,2023-05-02T20:08:11.750Z,,0,,,NaN,,,,,,false,,,,313523.2000000011,313522.7000000011,,313522.1000000015,,313526.7,8,400,,,
sequence,flow.Sequence,4_76,2023-05-02T20:08:11.751Z,,0,,,2993.037000001117,completion,,,,,false,,,,313523.7000000011,313522.7000000011,310513.013,310520.7000000011,310529.663,313526.7,8,400,,,
trial,html.Screen,4_77_0,2023-05-02T20:08:14.570Z,,0,2,,2814.9000000014785,response,ISIC_2915747.JPG,,ISIC_0055241.JPG,ISIC_2915747.JPG,false,1,keypress(m),500,316342.6000000015,316341.6000000015,313510.05,313524,313526.7,316357.221,8,400,28,,ISIC_0055241.JPG
break,html.Screen,4_77_1,2023-05-02T20:08:14.574Z,,0,,,NaN,,,,,,false,,,,316347,316345.6000000015,,316343.6000000015,,316357.221,8,400,,,
break_continue,html.Screen,4_77_2,2023-05-02T20:08:14.577Z,,0,,,NaN,,,,,,false,,,,316349.7000000011,316348.80000000075,,316347.7000000011,,316357.221,8,400,,,
sequence,flow.Sequence,4_77,2023-05-02T20:08:14.577Z,,0,,,2822.1000000007334,completion,,,,,false,,,,316350.2000000011,316348.80000000075,313510.05,313524,313526.7,316357.221,8,400,,,
trial,html.Screen,4_78_0,2023-05-02T20:08:17.264Z,,0,2,,2677.979000001098,response,ISIC_0013688.JPG,,ISIC_7976724.JPG,ISIC_7976724.JPG,false,0,keypress(z),500,319036.5,319035.2000000011,316340.571,316350.5,316357.221,319054.546,8,400,29,,ISIC_0013688.JPG
break,html.Screen,4_78_1,2023-05-02T20:08:17.270Z,,0,,,NaN,,,,,,false,,,,319042.30000000075,319040.2000000011,,319037.80000000075,,319054.546,8,400,,,
break_continue,html.Screen,4_78_2,2023-05-02T20:08:17.273Z,,0,,,NaN,,,,,,false,,,,319046.1000000015,319045.30000000075,,319043.6000000015,,319054.546,8,400,,,
sequence,flow.Sequence,4_78,2023-05-02T20:08:17.274Z,,0,,,2688.0790000007255,completion,,,,,false,,,,319046.6000000015,319045.30000000075,316340.571,316350.5,316357.221,319054.546,8,400,,,
trial,html.Screen,4_79_0,2023-05-02T20:08:19.822Z,,0,2,,2539.254000000772,response,ISIC_0006672.JPG,,ISIC_0367225.JPG,ISIC_0006672.JPG,false,1,keypress(m),500,321595,321593.80000000075,319037.896,319046.9000000004,319054.546,321602.028,8,400,30,,ISIC_0367225.JPG
break,html.Screen,4_79_1,2023-05-02T20:08:19.826Z,,0,,,NaN,,,,,,false,,,,321598.5,321597.2000000011,,321595.5,,321602.028,8,400,,,
break_continue,html.Screen,4_79_2,2023-05-02T20:08:19.828Z,,0,,,NaN,,,,,,false,,,,321600.80000000075,321600.2000000011,,321598.80000000075,,321602.028,8,400,,,
sequence,flow.Sequence,4_79,2023-05-02T20:08:19.829Z,,0,,,2545.6540000011446,completion,,,,,false,,,,321601.5,321600.2000000011,319037.896,319046.80000000075,319054.546,321602.028,8,400,,,
trial,html.Screen,4_80_0,2023-05-02T20:08:22.582Z,,0,2,,2751.972000000009,response,ISIC_6916213.JPG,,ISIC_5932383.JPG,ISIC_6916213.JPG,false,1,keypress(m),500,324355.2000000011,324354,321585.378,321602,321602.028,324365.95,8,400,31,,ISIC_5932383.JPG
break,html.Screen,4_80_1,2023-05-02T20:08:22.589Z,,0,,,NaN,,,,,,false,,,,324361.2000000011,324359.30000000075,,324356.1000000015,,324365.95,8,400,,,
break_continue,html.Screen,4_80_2,2023-05-02T20:08:22.592Z,,0,,,NaN,,,,,,false,,,,324364.4000000004,324363.4000000004,,324362.2000000011,,324365.95,8,400,,,
sequence,flow.Sequence,4_80,2023-05-02T20:08:22.597Z,,0,,,2761.3720000003814,completion,,,,,false,,,,324369.7000000011,324363.4000000004,321585.378,321601.9000000004,321602.028,324365.95,8,400,,,
trial,html.Screen,4_81_0,2023-05-02T20:08:25.111Z,,0,2,,2517.5499999999884,response,ISIC_0032672.JPG,,ISIC_0000239.JPG,ISIC_0032672.JPG,false,1,keypress(m),500,326884.1000000015,326883.5,324349.3,324370.5,324365.95,326896.776,8,400,32,,ISIC_0000239.JPG
break,html.Screen,4_81_1,2023-05-02T20:08:25.115Z,,0,,,NaN,,,,,,false,,,,326887.80000000075,326886.80000000075,,326884.7000000011,,326896.776,8,400,,,
break_continue,html.Screen,4_81_2,2023-05-02T20:08:25.116Z,,0,,,NaN,,,,,,false,,,,326889.2000000011,326888.7000000011,,326888.1000000015,,326896.776,8,400,,,
sequence,flow.Sequence,4_81,2023-05-02T20:08:25.117Z,,0,,,2522.750000001106,completion,,,,,false,,,,326889.6000000015,326888.7000000011,324349.3,324370.2000000011,324365.95,326896.776,8,400,,,
trial,html.Screen,4_82_0,2023-05-02T20:08:28.051Z,,0,2,,2926.12400000036,response,ISIC_8624186.JPG,,ISIC_0014684.JPG,ISIC_8624186.JPG,false,1,keypress(m),500,329824.1000000015,329822.9000000004,326880.126,326889.9000000004,326896.776,329843.86,8,400,33,,ISIC_0014684.JPG
break,html.Screen,4_82_1,2023-05-02T20:08:28.056Z,,0,,,NaN,,,,,,false,,,,329828.80000000075,329827.1000000015,,329824.9000000004,,329843.86,8,400,,,
break_continue,html.Screen,4_82_2,2023-05-02T20:08:28.059Z,,0,,,NaN,,,,,,false,,,,329831.2000000011,329830.6000000015,,329829.2000000011,,329843.86,8,400,,,
sequence,flow.Sequence,4_82,2023-05-02T20:08:28.060Z,,0,,,2933.8240000014775,completion,,,,,false,,,,329832.4000000004,329830.6000000015,326880.126,326889.80000000075,326896.776,329843.86,8,400,,,
trial,html.Screen,4_83_0,2023-05-02T20:08:30.736Z,,0,2,,2663.740000001504,response,ISIC_0010923.JPG,,ISIC_0030575.JPG,ISIC_0010923.JPG,false,1,keypress(m),500,332508.9000000004,332507.6000000015,329810.56,329833.1000000015,329843.86,332524.532,8,400,34,,ISIC_0030575.JPG
break,html.Screen,4_83_1,2023-05-02T20:08:30.742Z,,0,,,NaN,,,,,,false,,,,332514.80000000075,332513.7000000011,,332510.2000000011,,332524.532,8,400,,,
break_continue,html.Screen,4_83_2,2023-05-02T20:08:30.743Z,,0,,,NaN,,,,,,false,,,,332516.2000000011,332515.80000000075,,332515.1000000015,,332524.532,8,400,,,
sequence,flow.Sequence,4_83,2023-05-02T20:08:30.744Z,,0,,,2671.940000000759,completion,,,,,false,,,,332516.7000000011,332515.80000000075,329810.56,329832.9000000004,329843.86,332524.532,8,400,,,
trial,html.Screen,4_84_0,2023-05-02T20:08:33.436Z,,0,2,,2683.4679999999935,response,ISIC_0490442.JPG,,ISIC_0071012.JPG,ISIC_0071012.JPG,false,0,keypress(z),500,335209.2000000011,335208,332507.882,332517.1000000015,332524.532,335221.857,8,400,35,,ISIC_0490442.JPG
break,html.Screen,4_84_1,2023-05-02T20:08:33.442Z,,0,,,NaN,,,,,,false,,,,335215,335212.4000000004,,335210.30000000075,,335221.857,8,400,,,
break_continue,html.Screen,4_84_2,2023-05-02T20:08:33.446Z,,0,,,NaN,,,,,,false,,,,335219,335218.1000000015,,335215.9000000004,,335221.857,8,400,,,
sequence,flow.Sequence,4_84,2023-05-02T20:08:33.447Z,,0,,,2693.5680000014836,completion,,,,,false,,,,335219.5,335218.1000000015,332507.882,332517,332524.532,335221.857,8,400,,,
trial,html.Screen,4_85_0,2023-05-02T20:08:36.273Z,,0,2,,2822.3430000010994,response,ISIC_4044751.JPG,,ISIC_0024900.JPG,ISIC_0024900.JPG,false,0,keypress(z),500,338045.7000000011,338044.2000000011,335205.207,335219.7000000011,335221.857,338052.385,8,400,36,,ISIC_4044751.JPG
break,html.Screen,4_85_1,2023-05-02T20:08:36.280Z,,0,,,NaN,,,,,,false,,,,338052.30000000075,338051.2000000011,,338047.30000000075,,338052.385,8,400,,,
break_continue,html.Screen,4_85_2,2023-05-02T20:08:36.281Z,,0,,,NaN,,,,,,false,,,,338053.9000000004,338053.2000000011,,338052.7000000011,,338052.385,8,400,,,
sequence,flow.Sequence,4_85,2023-05-02T20:08:36.282Z,,0,,,2831.3430000010994,completion,,,,,false,,,,338054.4000000004,338053.2000000011,335205.207,335219.6000000015,335221.857,338052.385,8,400,,,
trial,html.Screen,4_86_0,2023-05-02T20:08:39.142Z,,0,2,,2861.015000000363,response,ISIC_0066355.JPG,,ISIC_4718237.JPG,ISIC_0066355.JPG,false,1,keypress(m),500,340914.9000000004,340913.4000000004,338035.735,338057,338052.385,340932.867,8,400,37,,ISIC_4718237.JPG
break,html.Screen,4_86_1,2023-05-02T20:08:39.149Z,,0,,,NaN,,,,,,false,,,,340922,340920.30000000075,,340916.6000000015,,340932.867,8,400,,,
break_continue,html.Screen,4_86_2,2023-05-02T20:08:39.151Z,,0,,,NaN,,,,,,false,,,,340923.30000000075,340922.9000000004,,340922.30000000075,,340932.867,8,400,,,
sequence,flow.Sequence,4_86,2023-05-02T20:08:39.151Z,,0,,,2870.515000000363,completion,,,,,false,,,,340923.9000000004,340922.9000000004,338035.735,338054.6000000015,338052.385,340932.867,8,400,,,
trial,html.Screen,4_87_0,2023-05-02T20:08:41.761Z,,0,2,,2599.1329999999725,response,ISIC_3323866.JPG,,ISIC_9087221.JPG,ISIC_9087221.JPG,false,0,keypress(z),500,343533.5,343532,340916.217,340924.1000000015,340932.867,343546.933,8,400,38,,ISIC_3323866.JPG
break,html.Screen,4_87_1,2023-05-02T20:08:41.768Z,,0,,,NaN,,,,,,false,,,,343540.6000000015,343538.30000000075,,343535.1000000015,,343546.933,8,400,,,
break_continue,html.Screen,4_87_2,2023-05-02T20:08:41.771Z,,0,,,NaN,,,,,,false,,,,343543.5,343543.1000000015,,343541.80000000075,,343546.933,8,400,,,
sequence,flow.Sequence,4_87,2023-05-02T20:08:41.771Z,,0,,,2610.2330000014626,completion,,,,,false,,,,343544,343543.1000000015,340916.217,340924,340932.867,343546.933,8,400,,,
trial,html.Screen,4_88_0,2023-05-02T20:08:44.265Z,,0,2,,2488.867000000726,response,ISIC_1314502.JPG,,ISIC_0024246.JPG,ISIC_1314502.JPG,false,1,keypress(m),500,346037.2000000011,346035.80000000075,343530.283,343544.2000000011,343546.933,346044.469,8,400,39,,ISIC_0024246.JPG
break,html.Screen,4_88_1,2023-05-02T20:08:44.272Z,,0,,,NaN,,,,,,false,,,,346045,346043.80000000075,,346039.1000000015,,346044.469,8,400,,,
break_continue,html.Screen,4_88_2,2023-05-02T20:08:44.274Z,,0,,,NaN,,,,,,false,,,,346046.5,346046.1000000015,,346045.4000000004,,346044.469,8,400,,,
sequence,flow.Sequence,4_88,2023-05-02T20:08:44.274Z,,0,,,2499.167000001471,completion,,,,,false,,,,346047,346046.1000000015,343530.283,343544.2000000011,343546.933,346044.469,8,400,,,
trial,html.Screen,4_89_0,2023-05-02T20:08:46.799Z,,0,2,,2527.0310000000172,response,ISIC_8363485.JPG,,ISIC_1670165.JPG,ISIC_1670165.JPG,false,0,keypress(z),500,348572.2000000011,348571.5,346027.819,346047.30000000075,346044.469,348591.953,8,400,40,,ISIC_8363485.JPG
break,html.Screen,4_89_1,2023-05-02T20:08:46.802Z,,0,,,NaN,,,,,,false,,,,348574.80000000075,348573.9000000004,,348572.6000000015,,348591.953,8,400,,,
break_continue,html.Screen,4_89_2,2023-05-02T20:08:46.804Z,,0,,,NaN,,,,,,false,,,,348576.7000000011,348576.1000000015,,348575.2000000011,,348591.953,8,400,,,
sequence,flow.Sequence,4_89,2023-05-02T20:08:46.805Z,,0,,,2531.6310000015073,completion,,,,,false,,,,348577.2000000011,348576.1000000015,346027.819,346047.2000000011,346044.469,348591.953,8,400,,,
trial,html.Screen,4_90_0,2023-05-02T20:08:52.527Z,,0,2,,5707.0470000000205,response,ISIC_2399613.JPG,,ISIC_0033966.JPG,ISIC_2399613.JPG,false,1,keypress(m),500,354300,354299,348575.303,348577.6000000015,348591.953,354319.596,8,400,41,,ISIC_0033966.JPG
break,html.Screen,4_90_1,2023-05-02T20:08:52.534Z,,0,,,NaN,,,,,,false,,,,354306.80000000075,354305,,354300.9000000004,,354319.596,8,400,,,
break_continue,html.Screen,4_90_2,2023-05-02T20:08:52.537Z,,0,,,NaN,,,,,,false,,,,354309.80000000075,354308.80000000075,,354307.7000000011,,354319.596,8,400,,,
sequence,flow.Sequence,4_90,2023-05-02T20:08:52.538Z,,0,,,5716.847000000766,completion,,,,,false,,,,354310.2000000011,354308.80000000075,348575.303,348577.4000000004,348591.953,354319.596,8,400,,,
trial,html.Screen,4_91_0,2023-05-02T20:08:55.004Z,,0,2,,2456.0040000014706,response,ISIC_0062537.JPG,,ISIC_4425657.JPG,ISIC_4425657.JPG,false,0,keypress(z),500,356776.7000000011,356775.6000000015,354286.296,354310.6000000015,354319.596,356800.487,8,400,42,,ISIC_0062537.JPG
break,html.Screen,4_91_1,2023-05-02T20:08:55.008Z,,0,,,NaN,,,,,,false,,,,356780.9000000004,356779.4000000004,,356777.6000000015,,356800.487,8,400,,,
break_continue,html.Screen,4_91_2,2023-05-02T20:08:55.010Z,,0,,,NaN,,,,,,false,,,,356782.80000000075,356782.30000000075,,356781.7000000011,,356800.487,8,400,,,
sequence,flow.Sequence,4_91,2023-05-02T20:08:55.011Z,,0,,,2462.7040000007255,completion,,,,,false,,,,356783.30000000075,356782.30000000075,354286.296,354310.5,354319.596,356800.487,8,400,,,
trial,html.Screen,4_92_0,2023-05-02T20:08:59.101Z,,0,2,,4072.012999999977,response,ISIC_0003703.JPG,,ISIC_0033029.JPG,ISIC_0003703.JPG,false,1,keypress(m),500,360873.9000000004,360872.5,356767.187,356783.6000000015,356800.487,360879.769,8,400,43,,ISIC_0033029.JPG
break,html.Screen,4_92_1,2023-05-02T20:08:59.109Z,,0,,,NaN,,,,,,false,,,,360882.1000000015,360878.80000000075,,360875.4000000004,,360879.769,8,400,,,
break_continue,html.Screen,4_92_2,2023-05-02T20:08:59.111Z,,0,,,NaN,,,,,,false,,,,360883.4000000004,360883,,360882.4000000004,,360879.769,8,400,,,
sequence,flow.Sequence,4_92,2023-05-02T20:08:59.111Z,,0,,,4082.512999999977,completion,,,,,false,,,,360883.80000000075,360883,356767.187,356783.5,356800.487,360879.769,8,400,,,
trial,html.Screen,4_93_0,2023-05-02T20:09:01.557Z,,0,2,,2447.9310000011465,response,ISIC_1076091.JPG,,ISIC_4045781.JPG,ISIC_4045781.JPG,false,0,keypress(z),500,363329.5,363327.7000000011,360863.119,360884.1000000015,360879.769,363344.004,8,400,44,,ISIC_1076091.JPG
break,html.Screen,4_93_1,2023-05-02T20:09:01.563Z,,0,,,NaN,,,,,,false,,,,363335.2000000011,363334.4000000004,,363331.2000000011,,363344.004,8,400,,,
break_continue,html.Screen,4_93_2,2023-05-02T20:09:01.564Z,,0,,,NaN,,,,,,false,,,,363336.7000000011,363336.2000000011,,363335.6000000015,,363344.004,8,400,,,
sequence,flow.Sequence,4_93,2023-05-02T20:09:01.564Z,,0,,,2456.4310000011465,completion,,,,,false,,,,363337.2000000011,363336.2000000011,360863.119,360884,360879.769,363344.004,8,400,,,
trial,html.Screen,4_94_0,2023-05-02T20:09:04.156Z,,0,2,,2582.7960000007297,response,ISIC_5777181.JPG,,ISIC_0010850.JPG,ISIC_0010850.JPG,false,0,keypress(z),500,365928.30000000075,365926.80000000075,363327.354,363337.6000000015,363344.004,365941.425,8,400,45,,ISIC_5777181.JPG
break,html.Screen,4_94_1,2023-05-02T20:09:04.164Z,,0,,,NaN,,,,,,false,,,,365936.2000000011,365934.1000000015,,365929.80000000075,,365941.425,8,400,,,
break_continue,html.Screen,4_94_2,2023-05-02T20:09:04.166Z,,0,,,NaN,,,,,,false,,,,365938.30000000075,365937.9000000004,,365937.1000000015,,365941.425,8,400,,,
sequence,flow.Sequence,4_94,2023-05-02T20:09:04.166Z,,0,,,2593.896000000357,completion,,,,,false,,,,365938.80000000075,365937.9000000004,363327.354,363337.5,363344.004,365941.425,8,400,,,
trial,html.Screen,4_95_0,2023-05-02T20:09:07.097Z,,0,2,,2927.0750000000116,response,ISIC_0010379.JPG,,ISIC_9560298.JPG,ISIC_0010379.JPG,false,1,keypress(m),500,368869.4000000004,368868.5,365924.775,365939,365941.425,368888.491,8,400,46,,ISIC_9560298.JPG
break,html.Screen,4_95_1,2023-05-02T20:09:07.101Z,,0,,,NaN,,,,,,false,,,,368873.5,368872.30000000075,,368870.6000000015,,368888.491,8,400,,,
break_continue,html.Screen,4_95_2,2023-05-02T20:09:07.102Z,,0,,,NaN,,,,,,false,,,,368874.7000000011,368874.30000000075,,368873.80000000075,,368888.491,8,400,,,
sequence,flow.Sequence,4_95,2023-05-02T20:09:07.102Z,,0,,,2932.8750000007567,completion,,,,,false,,,,368875.1000000015,368874.30000000075,365924.775,365939,365941.425,368888.491,8,400,,,
trial,html.Screen,4_96_0,2023-05-02T20:09:10.094Z,,0,2,,2977.50900000002,response,ISIC_0254447.JPG,,ISIC_6017985.JPG,ISIC_6017985.JPG,false,0,keypress(z),500,371866.6000000015,371866,368871.841,368875.5,368888.491,371885.537,8,400,47,,ISIC_0254447.JPG
break,html.Screen,4_96_1,2023-05-02T20:09:10.098Z,,0,,,NaN,,,,,,false,,,,371871.2000000011,371869.9000000004,,371867.2000000011,,371885.537,8,400,,,
break_continue,html.Screen,4_96_2,2023-05-02T20:09:10.101Z,,0,,,NaN,,,,,,false,,,,371873.6000000015,371872.80000000075,,371871.80000000075,,371885.537,8,400,,,
sequence,flow.Sequence,4_96,2023-05-02T20:09:10.102Z,,0,,,2984.309000000765,completion,,,,,false,,,,371874.6000000015,371872.80000000075,368871.841,368875.4000000004,368888.491,371885.537,8,400,,,
trial,html.Screen,4_97_0,2023-05-02T20:09:12.649Z,,0,2,,2534.263000000734,response,ISIC_5194705.JPG,,ISIC_0062649.JPG,ISIC_5194705.JPG,false,1,keypress(m),500,374421.30000000075,374419.80000000075,371868.887,371875.4000000004,371885.537,374433.014,8,400,48,,ISIC_0062649.JPG
break,html.Screen,4_97_1,2023-05-02T20:09:12.657Z,,0,,,NaN,,,,,,false,,,,374429.2000000011,374428.1000000015,,374422.80000000075,,374433.014,8,400,,,
break_continue,html.Screen,4_97_2,2023-05-02T20:09:12.658Z,,0,,,NaN,,,,,,false,,,,374430.6000000015,374430.1000000015,,374429.5,,374433.014,8,400,,,
sequence,flow.Sequence,4_97,2023-05-02T20:09:12.658Z,,0,,,2544.563000001479,completion,,,,,false,,,,374431,374430.1000000015,371868.887,371875.1000000015,371885.537,374433.014,8,400,,,
trial,html.Screen,4_98_0,2023-05-02T20:09:15.151Z,,0,2,,2489.4859999999753,response,ISIC_3273370.JPG,,ISIC_4950467.JPG,ISIC_3273370.JPG,false,1,keypress(m),500,376924.1000000015,376922.5,374416.364,374431.4000000004,374433.014,376930.533,8,400,49,,ISIC_4950467.JPG
break,html.Screen,4_98_1,2023-05-02T20:09:15.158Z,,0,,,NaN,,,,,,false,,,,376930.5,376928.80000000075,,376925.4000000004,,376930.533,8,400,,,
break_continue,html.Screen,4_98_2,2023-05-02T20:09:15.162Z,,0,,,NaN,,,,,,false,,,,376934.30000000075,376933.9000000004,,376932.7000000011,,376930.533,8,400,,,
sequence,flow.Sequence,4_98,2023-05-02T20:09:15.162Z,,0,,,2500.886000000348,completion,,,,,false,,,,376934.80000000075,376933.9000000004,374416.364,374431.2000000011,374433.014,376930.533,8,400,,,
trial,html.Screen,4_99_0,2023-05-02T20:09:17.680Z,,0,2,,2521.0670000014943,response,ISIC_5101111.JPG,,ISIC_4443373.JPG,ISIC_5101111.JPG,false,1,keypress(m),500,379453.1000000015,379451.6000000015,376913.883,376935.1000000015,376930.533,379478.012,8,400,50,,ISIC_4443373.JPG
break,html.Screen,4_99_1,2023-05-02T20:09:22.687Z,,0,,,4995.048999999999,timeout,,,,,false,,,,384459.7000000011,384456.411,379461.362,379454.4000000004,379478.012,384473.061,8,400,,,
break_continue,html.Screen,4_99_2,2023-05-02T20:09:24.489Z,,0,,,1716.739000000758,response,,,,,false,continue,keypress(Space),,386261.5,386189.80000000075,384456.411,384460.30000000075,384473.061,386271.263,8,400,,,
sequence,flow.Sequence,4_99,2023-05-02T20:09:24.489Z,,0,,,9259.26700000075,completion,,,,,false,,,,386261.9000000004,386189.80000000075,376913.883,376935,376930.533,386271.263,8,400,,,
trial,html.Screen,4_100_0,2023-05-02T20:09:32.792Z,,0,3,,8292.43700000114,response,ISIC_0027387.JPG,,ISIC_8152423.JPG,ISIC_0027387.JPG,false,1,keypress(m),500,394565.2000000011,394563.7000000011,386254.613,386262.2000000011,386271.263,394579.699,8,400,1,,ISIC_8152423.JPG
break,html.Screen,4_100_1,2023-05-02T20:09:32.800Z,,0,,,NaN,,,,,,false,,,,394572.6000000015,394570.5,,394566.7000000011,,394579.699,8,400,,,
break_continue,html.Screen,4_100_2,2023-05-02T20:09:32.802Z,,0,,,NaN,,,,,,false,,,,394574.9000000004,394574.5,,394573.80000000075,,394579.699,8,400,,,
sequence,flow.Sequence,4_100,2023-05-02T20:09:32.803Z,,0,,,8303.237000000023,completion,,,,,false,,,,394575.4000000004,394574.5,386254.613,386262.1000000015,386271.263,394579.699,8,400,,,
trial,html.Screen,4_101_0,2023-05-02T20:09:35.125Z,,0,3,,2318.0010000010952,response,ISIC_0027126.JPG,,ISIC_0032812.JPG,ISIC_0032812.JPG,false,0,keypress(z),500,396898.2000000011,396897.7000000011,394563.049,394575.7000000011,394579.699,396910.732,8,400,2,,ISIC_0027126.JPG
break,html.Screen,4_101_1,2023-05-02T20:09:35.128Z,,0,,,NaN,,,,,,false,,,,396900.7000000011,396899.9000000004,,396898.5,,396910.732,8,400,,,
break_continue,html.Screen,4_101_2,2023-05-02T20:09:35.129Z,,0,,,NaN,,,,,,false,,,,396902.1000000015,396901.6000000015,,396901,,396910.732,8,400,,,
sequence,flow.Sequence,4_101,2023-05-02T20:09:35.133Z,,0,,,2321.9010000014678,completion,,,,,false,,,,396905.80000000075,396901.6000000015,394563.049,394575.6000000015,394579.699,396910.732,8,400,,,
trial,html.Screen,4_102_0,2023-05-02T20:09:37.249Z,,0,3,,2108.868000001472,response,ISIC_0072507.JPG,,ISIC_0015193.JPG,ISIC_0015193.JPG,false,0,keypress(z),500,399021.5,399019.6000000015,396894.082,396906.4000000004,396910.732,399041.94,8,400,3,,ISIC_0072507.JPG
break,html.Screen,4_102_1,2023-05-02T20:09:37.257Z,,0,,,NaN,,,,,,false,,,,399029.9000000004,399027.7000000011,,399023,,399041.94,8,400,,,
break_continue,html.Screen,4_102_2,2023-05-02T20:09:37.262Z,,0,,,NaN,,,,,,false,,,,399034.30000000075,399033.1000000015,,399031.4000000004,,399041.94,8,400,,,
sequence,flow.Sequence,4_102,2023-05-02T20:09:37.263Z,,0,,,2122.368000001472,completion,,,,,false,,,,399035.80000000075,399033.1000000015,396894.082,396906.30000000075,396910.732,399041.94,8,400,,,
trial,html.Screen,4_103_0,2023-05-02T20:09:39.451Z,,0,3,,2180.8600000007427,response,ISIC_6966230.JPG,,ISIC_6844752.JPG,ISIC_6966230.JPG,false,1,keypress(m),500,401224,401222.80000000075,399025.29,399036.2000000011,399041.94,401239.781,8,400,4,,ISIC_6844752.JPG
break,html.Screen,4_103_1,2023-05-02T20:09:39.458Z,,0,,,NaN,,,,,,false,,,,401231.1000000015,401229.1000000015,,401225.5,,401239.781,8,400,,,
break_continue,html.Screen,4_103_2,2023-05-02T20:09:39.461Z,,0,,,NaN,,,,,,false,,,,401234.1000000015,401233.6000000015,,401232.1000000015,,401239.781,8,400,,,
sequence,flow.Sequence,4_103,2023-05-02T20:09:39.462Z,,0,,,2191.660000001488,completion,,,,,false,,,,401234.6000000015,401233.6000000015,399025.29,399036.1000000015,399041.94,401239.781,8,400,,,
trial,html.Screen,4_104_0,2023-05-02T20:09:42.071Z,,0,3,,2603.319000001473,response,ISIC_7831274.JPG,,ISIC_5732374.JPG,ISIC_7831274.JPG,false,1,keypress(m),500,403844.1000000015,403843.1000000015,401223.131,401234.80000000075,401239.781,403853.85,8,400,5,,ISIC_5732374.JPG
break,html.Screen,4_104_1,2023-05-02T20:09:42.077Z,,0,,,NaN,,,,,,false,,,,403849.5,403848.1000000015,,403845.30000000075,,403853.85,8,400,,,
break_continue,html.Screen,4_104_2,2023-05-02T20:09:42.079Z,,0,,,NaN,,,,,,false,,,,403851.30000000075,403850.7000000011,,403850,,403853.85,8,400,,,
sequence,flow.Sequence,4_104,2023-05-02T20:09:42.079Z,,0,,,2610.9190000011004,completion,,,,,false,,,,403852,403850.7000000011,401223.131,401234.80000000075,401239.781,403853.85,8,400,,,
trial,html.Screen,4_105_0,2023-05-02T20:09:45.865Z,,0,3,,3782.550000000396,response,ISIC_9815788.JPG,,ISIC_0006750.JPG,ISIC_0006750.JPG,false,0,keypress(z),500,407637.7000000011,407636.4000000004,403837.2,403852.6000000015,403853.85,407650.095,8,400,6,,ISIC_9815788.JPG
break,html.Screen,4_105_1,2023-05-02T20:09:45.871Z,,0,,,NaN,,,,,,false,,,,407644.2000000011,407643.5,,407638.9000000004,,407650.095,8,400,,,
break_continue,html.Screen,4_105_2,2023-05-02T20:09:45.873Z,,0,,,NaN,,,,,,false,,,,407645.5,407645.1000000015,,407644.5,,407650.095,8,400,,,
sequence,flow.Sequence,4_105,2023-05-02T20:09:45.873Z,,0,,,3791.2500000015134,completion,,,,,false,,,,407646,407645.1000000015,403837.2,403852.4000000004,403853.85,407650.095,8,400,,,
trial,html.Screen,4_106_0,2023-05-02T20:09:50.514Z,,0,3,,4635.005000001518,response,ISIC_0010962.JPG,,ISIC_1838876.JPG,ISIC_0010962.JPG,false,1,keypress(m),500,412286.6000000015,412285.1000000015,407633.445,407646.2000000011,407650.095,412295.492,8,400,7,,ISIC_1838876.JPG
break,html.Screen,4_106_1,2023-05-02T20:09:50.521Z,,0,,,NaN,,,,,,false,,,,412294.1000000015,412292.2000000011,,412287.9000000004,,412295.492,8,400,,,
break_continue,html.Screen,4_106_2,2023-05-02T20:09:50.526Z,,0,,,NaN,,,,,,false,,,,412298.4000000004,412297.9000000004,,412295.1000000015,,412295.492,8,400,,,
sequence,flow.Sequence,4_106,2023-05-02T20:09:50.526Z,,0,,,4647.8050000004005,completion,,,,,false,,,,412298.80000000075,412297.9000000004,407633.445,407646.2000000011,407650.095,412295.492,8,400,,,
trial,html.Screen,4_107_0,2023-05-02T20:09:53.158Z,,0,3,,2633.70800000109,response,ISIC_0034076.JPG,,ISIC_0065622.JPG,ISIC_0065622.JPG,false,0,keypress(z),500,414930.4000000004,414929.2000000011,412278.842,412299.1000000015,412295.492,414942.854,8,400,8,,ISIC_0034076.JPG
break,html.Screen,4_107_1,2023-05-02T20:09:53.165Z,,0,,,NaN,,,,,,false,,,,414937.30000000075,414935.1000000015,,414931.6000000015,,414942.854,8,400,,,
break_continue,html.Screen,4_107_2,2023-05-02T20:09:53.167Z,,0,,,NaN,,,,,,false,,,,414939.9000000004,414939.5,,414938.30000000075,,414942.854,8,400,,,
sequence,flow.Sequence,4_107,2023-05-02T20:09:53.168Z,,0,,,2644.0079999999725,completion,,,,,false,,,,414940.30000000075,414939.5,412278.842,412299.1000000015,412295.492,414942.854,8,400,,,
trial,html.Screen,4_108_0,2023-05-02T20:09:55.684Z,,0,3,,2512.146000000008,response,ISIC_0010034.JPG,,ISIC_0028003.JPG,ISIC_0010034.JPG,false,1,keypress(m),500,417456.6000000015,417455,414926.204,414940.6000000015,414942.854,417473.688,8,400,9,,ISIC_0028003.JPG
break,html.Screen,4_108_1,2023-05-02T20:09:55.692Z,,0,,,NaN,,,,,,false,,,,417464.80000000075,417462.6000000015,,417458.1000000015,,417473.688,8,400,,,
break_continue,html.Screen,4_108_2,2023-05-02T20:09:55.693Z,,0,,,NaN,,,,,,false,,,,417466.1000000015,417465.6000000015,,417465.1000000015,,417473.688,8,400,,,
sequence,flow.Sequence,4_108,2023-05-02T20:09:55.694Z,,0,,,2522.746000001498,completion,,,,,false,,,,417466.5,417465.6000000015,414926.204,414940.5,414942.854,417473.688,8,400,,,
trial,html.Screen,4_109_0,2023-05-02T20:09:59.132Z,,0,3,,3430.9120000014664,response,ISIC_0027065.JPG,,ISIC_7066723.JPG,ISIC_7066723.JPG,false,0,keypress(z),500,420905.2000000011,420904.6000000015,417457.038,417466.9000000004,417473.688,420920.262,8,400,10,,ISIC_0027065.JPG
break,html.Screen,4_109_1,2023-05-02T20:09:59.135Z,,0,,,NaN,,,,,,false,,,,420907.7000000011,420906.6000000015,,420905.5,,420920.262,8,400,,,
break_continue,html.Screen,4_109_2,2023-05-02T20:09:59.137Z,,0,,,NaN,,,,,,false,,,,420909.6000000015,420909,,420908.1000000015,,420920.262,8,400,,,
sequence,flow.Sequence,4_109,2023-05-02T20:09:59.138Z,,0,,,3435.3119999999763,completion,,,,,false,,,,420910.5,420909,417457.038,417466.80000000075,417473.688,420920.262,8,400,,,
trial,html.Screen,4_110_0,2023-05-02T20:10:03.982Z,,0,3,,4833.238000000012,response,ISIC_3985031.JPG,,ISIC_6027459.JPG,ISIC_6027459.JPG,false,0,keypress(z),500,425754.6000000015,425753.5,420903.612,420911,420920.262,425782.125,8,400,11,,ISIC_3985031.JPG
break,html.Screen,4_110_1,2023-05-02T20:10:03.985Z,,0,,,NaN,,,,,,false,,,,425758.2000000011,425757.30000000075,,425755.7000000011,,425782.125,8,400,,,
break_continue,html.Screen,4_110_2,2023-05-02T20:10:03.987Z,,0,,,NaN,,,,,,false,,,,425759.6000000015,425759.1000000015,,425758.6000000015,,425782.125,8,400,,,
sequence,flow.Sequence,4_110,2023-05-02T20:10:03.988Z,,0,,,4838.838000001502,completion,,,,,false,,,,425760.30000000075,425759.1000000015,420903.612,420910.9000000004,420920.262,425782.125,8,400,,,
trial,html.Screen,4_111_0,2023-05-02T20:10:08.698Z,,0,3,,4687.47500000149,response,ISIC_0033771.JPG,,ISIC_0032517.JPG,ISIC_0033771.JPG,false,1,keypress(m),500,430471,430469.6000000015,425765.475,425760.6000000015,425782.125,430477.469,8,400,12,,ISIC_0032517.JPG
break,html.Screen,4_111_1,2023-05-02T20:10:08.706Z,,0,,,NaN,,,,,,false,,,,430479.1000000015,430477.7000000011,,430472.6000000015,,430477.469,8,400,,,
break_continue,html.Screen,4_111_2,2023-05-02T20:10:08.708Z,,0,,,NaN,,,,,,false,,,,430480.4000000004,430480,,430479.4000000004,,430477.469,8,400,,,
sequence,flow.Sequence,4_111,2023-05-02T20:10:08.708Z,,0,,,4697.875,completion,,,,,false,,,,430480.9000000004,430480,425765.475,425760.5,425782.125,430477.469,8,400,,,
trial,html.Screen,4_112_0,2023-05-02T20:10:11.901Z,,0,3,,3195.1310000015073,response,ISIC_0065539.JPG,,ISIC_9268487.JPG,ISIC_0065539.JPG,false,1,keypress(m),500,433673.80000000075,433672.6000000015,430460.819,430481.1000000015,430477.469,433690.949,8,400,13,,ISIC_9268487.JPG
break,html.Screen,4_112_1,2023-05-02T20:10:11.909Z,,0,,,NaN,,,,,,false,,,,433681.30000000075,433679.5,,433675.2000000011,,433690.949,8,400,,,
break_continue,html.Screen,4_112_2,2023-05-02T20:10:11.910Z,,0,,,NaN,,,,,,false,,,,433682.7000000011,433682.2000000011,,433681.7000000011,,433690.949,8,400,,,
sequence,flow.Sequence,4_112,2023-05-02T20:10:11.910Z,,0,,,3204.731000001135,completion,,,,,false,,,,433683,433682.2000000011,430460.819,430481,430477.469,433690.949,8,400,,,
trial,html.Screen,4_113_0,2023-05-02T20:10:16.006Z,,0,3,,4085.3510000007227,response,ISIC_0026087.JPG,,ISIC_0010350.JPG,ISIC_0010350.JPG,false,0,keypress(z),500,437778.2000000011,437776.30000000075,433674.299,433683.4000000004,433690.949,437786.901,8,400,14,,ISIC_0026087.JPG
break,html.Screen,4_113_1,2023-05-02T20:10:16.011Z,,0,,,NaN,,,,,,false,,,,437783.30000000075,437781.6000000015,,437779.5,,437786.901,8,400,,,
break_continue,html.Screen,4_113_2,2023-05-02T20:10:16.014Z,,0,,,NaN,,,,,,false,,,,437786.30000000075,437785.80000000075,,437784.2000000011,,437786.901,8,400,,,
sequence,flow.Sequence,4_113,2023-05-02T20:10:16.014Z,,0,,,4094.8510000007227,completion,,,,,false,,,,437786.80000000075,437785.80000000075,433674.299,433683.30000000075,433690.949,437786.901,8,400,,,
trial,html.Screen,4_114_0,2023-05-02T20:10:20.379Z,,0,3,,4363.299000001105,response,ISIC_0062364.JPG,,ISIC_8535134.JPG,ISIC_8535134.JPG,false,0,keypress(z),500,442151.7000000011,442150.2000000011,437770.251,437787.2000000011,437786.901,442165.895,8,400,15,,ISIC_0062364.JPG
break,html.Screen,4_114_1,2023-05-02T20:10:20.387Z,,0,,,NaN,,,,,,false,,,,442159.80000000075,442157.80000000075,,442153.1000000015,,442165.895,8,400,,,
break_continue,html.Screen,4_114_2,2023-05-02T20:10:20.388Z,,0,,,NaN,,,,,,false,,,,442161.1000000015,442160.7000000011,,442160.2000000011,,442165.895,8,400,,,
sequence,flow.Sequence,4_114,2023-05-02T20:10:20.389Z,,0,,,4373.799000001105,completion,,,,,false,,,,442161.5,442160.7000000011,437770.251,437787,437786.901,442165.895,8,400,,,
trial,html.Screen,4_115_0,2023-05-02T20:10:23.997Z,,0,3,,3603.005000000354,response,ISIC_2222879.JPG,,ISIC_1175170.JPG,ISIC_2222879.JPG,false,1,keypress(m),500,445769.5,445768.9000000004,442149.245,442161.9000000004,442165.895,445778.971,8,400,16,,ISIC_1175170.JPG
break,html.Screen,4_115_1,2023-05-02T20:10:24.000Z,,0,,,NaN,,,,,,false,,,,445772.4000000004,445771.80000000075,,445769.9000000004,,445778.971,8,400,,,
break_continue,html.Screen,4_115_2,2023-05-02T20:10:24.001Z,,0,,,NaN,,,,,,false,,,,445773.7000000011,445773.30000000075,,445772.80000000075,,445778.971,8,400,,,
sequence,flow.Sequence,4_115,2023-05-02T20:10:24.002Z,,0,,,3607.4050000007264,completion,,,,,false,,,,445774.2000000011,445773.30000000075,442149.245,442161.80000000075,442165.895,445778.971,8,400,,,
trial,html.Screen,4_116_0,2023-05-02T20:10:27.163Z,,0,3,,3155.929000000353,response,ISIC_0004089.JPG,,ISIC_0030447.JPG,ISIC_0030447.JPG,false,0,keypress(z),500,448935.6000000015,448934.9000000004,445762.321,445774.6000000015,445778.971,448942.505,8,400,17,,ISIC_0004089.JPG
break,html.Screen,4_116_1,2023-05-02T20:10:27.166Z,,0,,,NaN,,,,,,false,,,,448938.6000000015,448937.80000000075,,448936.2000000011,,448942.505,8,400,,,
break_continue,html.Screen,4_116_2,2023-05-02T20:10:27.167Z,,0,,,NaN,,,,,,false,,,,448940.1000000015,448939.6000000015,,448939,,448942.505,8,400,,,
sequence,flow.Sequence,4_116,2023-05-02T20:10:27.168Z,,0,,,3160.6290000014706,completion,,,,,false,,,,448940.7000000011,448939.6000000015,445762.321,445774.5,445778.971,448942.505,8,400,,,
trial,html.Screen,4_117_0,2023-05-02T20:10:31.606Z,,0,3,,4434.79500000074,response,ISIC_9876004.JPG,,ISIC_0002057.JPG,ISIC_9876004.JPG,false,1,keypress(m),500,453378.9000000004,453377.30000000075,448925.855,448941.1000000015,448942.505,453388.106,8,400,18,,ISIC_0002057.JPG
break,html.Screen,4_117_1,2023-05-02T20:10:31.611Z,,0,,,NaN,,,,,,false,,,,453384,453382.80000000075,,453380.4000000004,,453388.106,8,400,,,
break_continue,html.Screen,4_117_2,2023-05-02T20:10:31.613Z,,0,,,NaN,,,,,,false,,,,453385.80000000075,453385,,453384.4000000004,,453388.106,8,400,,,
sequence,flow.Sequence,4_117,2023-05-02T20:10:31.614Z,,0,,,4442.494999999995,completion,,,,,false,,,,453386.30000000075,453385,448925.855,448940.9000000004,448942.505,453388.106,8,400,,,
trial,html.Screen,4_118_0,2023-05-02T20:10:38.311Z,,0,3,,6694.494000001461,response,ISIC_0030101.JPG,,ISIC_4001990.JPG,ISIC_4001990.JPG,false,0,keypress(z),500,460083.5,460082.6000000015,453371.456,453386.7000000011,453388.106,460098.124,8,400,19,,ISIC_0030101.JPG
break,html.Screen,4_118_1,2023-05-02T20:10:38.314Z,,0,,,NaN,,,,,,false,,,,460087,460086,,460084.1000000015,,460098.124,8,400,,,
break_continue,html.Screen,4_118_2,2023-05-02T20:10:38.316Z,,0,,,NaN,,,,,,false,,,,460088.7000000011,460088.1000000015,,460087.4000000004,,460098.124,8,400,,,
sequence,flow.Sequence,4_118,2023-05-02T20:10:38.317Z,,0,,,6699.994000001461,completion,,,,,false,,,,460089.5,460088.1000000015,453371.456,453386.6000000015,453388.106,460098.124,8,400,,,
trial,html.Screen,4_119_0,2023-05-02T20:10:45.055Z,,0,3,,6728.276000000362,response,ISIC_3926305.JPG,,ISIC_6356149.JPG,ISIC_3926305.JPG,false,1,keypress(m),500,466827.9000000004,466826.4000000004,460081.474,460090,460098.124,466841.43,8,400,20,,ISIC_6356149.JPG
break,html.Screen,4_119_1,2023-05-02T20:10:45.063Z,,0,,,NaN,,,,,,false,,,,466836.2000000011,466834.1000000015,,466829.4000000004,,466841.43,8,400,,,
break_continue,html.Screen,4_119_2,2023-05-02T20:10:45.067Z,,0,,,NaN,,,,,,false,,,,466839.9000000004,466838.7000000011,,466837.1000000015,,466841.43,8,400,,,
sequence,flow.Sequence,4_119,2023-05-02T20:10:45.069Z,,0,,,6740.576000001107,completion,,,,,false,,,,466841.5,466838.7000000011,460081.474,460089.80000000075,460098.124,466841.43,8,400,,,
trial,html.Screen,4_120_0,2023-05-02T20:10:47.941Z,,0,3,,2871.670000001497,response,ISIC_0056957.JPG,,ISIC_6793830.JPG,ISIC_0056957.JPG,false,1,keypress(m),500,469713.6000000015,469713.1000000015,466824.78,466843.1000000015,466841.43,469721.908,8,400,21,,ISIC_6793830.JPG
break,html.Screen,4_120_1,2023-05-02T20:10:47.943Z,,0,,,NaN,,,,,,false,,,,469715.80000000075,469715.1000000015,,469713.9000000004,,469721.908,8,400,,,
break_continue,html.Screen,4_120_2,2023-05-02T20:10:47.944Z,,0,,,NaN,,,,,,false,,,,469717.1000000015,469716.6000000015,,469716.1000000015,,469721.908,8,400,,,
sequence,flow.Sequence,4_120,2023-05-02T20:10:47.945Z,,0,,,2875.170000001497,completion,,,,,false,,,,469717.5,469716.6000000015,466824.78,466842.80000000075,466841.43,469721.908,8,400,,,
trial,html.Screen,4_121_0,2023-05-02T20:10:50.740Z,,0,3,,2789.8920000007492,response,ISIC_6069236.JPG,,ISIC_8566006.JPG,ISIC_6069236.JPG,false,1,keypress(m),500,472512.80000000075,472511.80000000075,469705.258,469717.9000000004,469721.908,472519.132,8,400,22,,ISIC_8566006.JPG
break,html.Screen,4_121_1,2023-05-02T20:10:50.745Z,,0,,,NaN,,,,,,false,,,,472518.2000000011,472516.9000000004,,472513.80000000075,,472519.132,8,400,,,
break_continue,html.Screen,4_121_2,2023-05-02T20:10:50.747Z,,0,,,NaN,,,,,,false,,,,472520,472519,,472518.5,,472519.132,8,400,,,
sequence,flow.Sequence,4_121,2023-05-02T20:10:50.748Z,,0,,,2797.092000000004,completion,,,,,false,,,,472520.6000000015,472519,469705.258,469717.80000000075,469721.908,472519.132,8,400,,,
trial,html.Screen,4_122_0,2023-05-02T20:10:54.859Z,,0,3,,4111.368000000017,response,ISIC_0067012.JPG,,ISIC_0063268.JPG,ISIC_0067012.JPG,false,1,keypress(m),500,476632,476630.5,472502.482,472520.9000000004,472519.132,476648.372,8,400,23,,ISIC_0063268.JPG
break,html.Screen,4_122_1,2023-05-02T20:10:54.865Z,,0,,,NaN,,,,,,false,,,,476637.30000000075,476636.30000000075,,476633.5,,476648.372,8,400,,,
break_continue,html.Screen,4_122_2,2023-05-02T20:10:54.866Z,,0,,,NaN,,,,,,false,,,,476639.1000000015,476638.6000000015,,476637.80000000075,,476648.372,8,400,,,
sequence,flow.Sequence,4_122,2023-05-02T20:10:54.867Z,,0,,,4119.468000001507,completion,,,,,false,,,,476639.80000000075,476638.6000000015,472502.482,472520.80000000075,472519.132,476648.372,8,400,,,
trial,html.Screen,4_123_0,2023-05-02T20:10:57.224Z,,0,3,,2346.628000000026,response,ISIC_0014324.JPG,,ISIC_0000414.JPG,ISIC_0000414.JPG,false,0,keypress(z),500,478996.2000000011,478995,476631.722,476640.2000000011,476648.372,479012.708,8,400,24,,ISIC_0014324.JPG
break,html.Screen,4_123_1,2023-05-02T20:10:57.230Z,,0,,,NaN,,,,,,false,,,,479002.5,479000.4000000004,,478997.4000000004,,479012.708,8,400,,,
break_continue,html.Screen,4_123_2,2023-05-02T20:10:57.233Z,,0,,,NaN,,,,,,false,,,,479005.9000000004,479004.9000000004,,479003.5,,479012.708,8,400,,,
sequence,flow.Sequence,4_123,2023-05-02T20:10:57.234Z,,0,,,2356.5280000003986,completion,,,,,false,,,,479006.30000000075,479004.9000000004,476631.722,476640.2000000011,476648.372,479012.708,8,400,,,
trial,html.Screen,4_124_0,2023-05-02T20:10:59.995Z,,0,3,,2753.892000001506,response,ISIC_0015023.JPG,,ISIC_0004352.JPG,ISIC_0004352.JPG,false,0,keypress(z),500,481768.1000000015,481766.6000000015,478996.058,479006.80000000075,479012.708,481776.64,8,400,25,,ISIC_0015023.JPG
break,html.Screen,4_124_1,2023-05-02T20:11:00.002Z,,0,,,NaN,,,,,,false,,,,481775.2000000011,481772.80000000075,,481769.2000000011,,481776.64,8,400,,,
break_continue,html.Screen,4_124_2,2023-05-02T20:11:00.005Z,,0,,,NaN,,,,,,false,,,,481777.9000000004,481776.6000000015,,481775.7000000011,,481776.64,8,400,,,
sequence,flow.Sequence,4_124,2023-05-02T20:11:00.006Z,,0,,,2763.892000001506,completion,,,,,false,,,,481778.7000000011,481776.6000000015,478996.058,479006.6000000015,479012.708,481776.64,8,400,,,
trial,html.Screen,4_125_0,2023-05-02T20:11:02.463Z,,0,3,,2457.660000000731,response,ISIC_0055179.JPG,,ISIC_7956417.JPG,ISIC_7956417.JPG,false,0,keypress(z),500,484235.9000000004,484234.30000000075,481759.99,481779.2000000011,481776.64,484240.864,8,400,26,,ISIC_0055179.JPG
break,html.Screen,4_125_1,2023-05-02T20:11:02.472Z,,0,,,NaN,,,,,,false,,,,484244.5,484242.1000000015,,484237.4000000004,,484240.864,8,400,,,
break_continue,html.Screen,4_125_2,2023-05-02T20:11:02.473Z,,0,,,NaN,,,,,,false,,,,484245.9000000004,484245.6000000015,,484245,,484240.864,8,400,,,
sequence,flow.Sequence,4_125,2023-05-02T20:11:02.474Z,,0,,,2468.960000001476,completion,,,,,false,,,,484246.4000000004,484245.6000000015,481759.99,481779,481776.64,484240.864,8,400,,,
trial,html.Screen,4_126_0,2023-05-02T20:11:07.523Z,,0,3,,5053.236000001489,response,ISIC_0033759.JPG,,ISIC_6406517.JPG,ISIC_0033759.JPG,false,1,keypress(m),500,489295.5,489294.1000000015,484224.214,484246.7000000011,484240.864,489302.496,8,400,27,,ISIC_6406517.JPG
break,html.Screen,4_126_1,2023-05-02T20:11:07.528Z,,0,,,NaN,,,,,,false,,,,489300.2000000011,489299.2000000011,,489296.7000000011,,489302.496,8,400,,,
