sender,sender_type,sender_id,timestamp,meta,,blockNo,condition,duration,ended_on,img_left,img_reveal,img_right,loser,practice,response,response_action,selection_duration,time_commit,time_end,time_render,time_run,time_show,time_switch,total_blocks,total_trials,trialNo,url,winner
informed_consent,html.Screen,0,2023-09-17T01:49:25.985Z,"{""labjs_version"":""20.2.4"",""labjs_build"":{""flavor"":""production"",""commit"":""f5b4a49f956347addd546a832a3327688c2c0fef""},""location"":""https://run.pavlovia.org/MurrayBennett/melanoma-2afc/?participant=66036&platform=sona"",""userAgent"":""Mozilla/5.0 (Macintosh; Intel Mac OS X 10_15_7) AppleWebKit/537.36 (KHTML, like Gecko) Chrome/116.0.0.0 Safari/537.36"",""platform"":""MacIntel"",""language"":""es-419"",""locale"":""en-US"",""timeZone"":""America/Chicago"",""timezoneOffset"":300,""screen_width"":1440,""screen_height"":900,""scroll_width"":1440,""scroll_height"":766,""window_innerWidth"":1440,""window_innerHeight"":814,""devicePixelRatio"":1}",,,,63959.67100000894,response,,,,,,consent,click button,,66142.79999999702,66139.10000000894,1646.085,2181.4000000059605,2179.429,66183.724,,,,"{""participant"":""66036"",""platform"":""sona""}",
Welcome,html.Screen,1,2023-09-17T01:50:13.935Z,,,,colourful,47908.67600000596,response,,,,,,continue,click button,,114094.90000000596,114092.40000000596,66133.723,66143.20000000298,66183.724,114104.048,,,,,
trial,html.Screen,2_0_0,2023-09-17T01:50:24.261Z,,0,0,,10317.852000005965,response,ISIC_0025593.JPG,,ISIC_0063388.JPG,ISIC_0063388.JPG,true,0,keypress(z),500,124422.20000000298,124421.90000000596,114087.381,114095.29999999702,114104.048,124438.067,1,6,1,,ISIC_0025593.JPG
sequence,flow.Sequence,2_0,2023-09-17T01:50:24.262Z,,0,,,10317.852000005965,completion,,,,,true,,,,124422.79999999702,124421.90000000596,114087.381,114095.20000000298,114104.048,124438.067,1,6,,,
trial,html.Screen,2_1_0,2023-09-17T01:50:30.578Z,,0,0,,6301.232999997024,response,ISIC_0028178.JPG,,ISIC_1309015.JPG,ISIC_1309015.JPG,true,0,keypress(z),500,130739.5,130739.29999999702,124421.4,124423,124438.067,130754.86,1,6,2,,ISIC_0028178.JPG
sequence,flow.Sequence,2_1,2023-09-17T01:50:30.579Z,,0,,,6301.232999997024,completion,,,,,true,,,,130739.79999999702,130739.29999999702,124421.4,124422.90000000596,124438.067,130754.86,1,6,,,
trial,html.Screen,2_2_0,2023-09-17T01:50:34.586Z,,0,0,,3992.74000000894,response,ISIC_0031128.JPG,,ISIC_3314853.JPG,ISIC_3314853.JPG,true,0,keypress(z),500,134747.90000000596,134747.60000000894,130738.193,130740.10000000894,130754.86,134755.494,1,6,3,,ISIC_0031128.JPG
sequence,flow.Sequence,2_2,2023-09-17T01:50:34.587Z,,0,,,3992.74000000894,completion,,,,,true,,,,134748.20000000298,134747.60000000894,130738.193,130740,130754.86,134755.494,1,6,,,
trial,html.Screen,2_3_0,2023-09-17T01:50:39.930Z,,0,0,,5335.606000008935,response,ISIC_8980141.JPG,,ISIC_0031612.JPG,ISIC_8980141.JPG,true,1,keypress(m),500,140091.5,140091.10000000894,134738.827,134748.5,134755.494,140105.601,1,6,4,,ISIC_0031612.JPG
sequence,flow.Sequence,2_3,2023-09-17T01:50:39.930Z,,0,,,5335.606000008935,completion,,,,,true,,,,140092,140091.10000000894,134738.827,134748.40000000596,134755.494,140105.601,1,6,,,
trial,html.Screen,2_4_0,2023-09-17T01:50:43.425Z,,0,0,,3481.099000002985,response,ISIC_9721604.JPG,,ISIC_1197737.JPG,ISIC_9721604.JPG,true,1,keypress(m),500,143587.10000000894,143586.70000000298,140088.934,140092.20000000298,140105.601,143589.004,1,6,5,,ISIC_1197737.JPG
sequence,flow.Sequence,2_4,2023-09-17T01:50:43.425Z,,0,,,3481.099000002985,completion,,,,,true,,,,143587.5,143586.70000000298,140088.934,140092.20000000298,140105.601,143589.004,1,6,,,
trial,html.Screen,2_5_0,2023-09-17T01:50:47.956Z,,0,0,,4528.696000002994,response,ISIC_0025346.JPG,,ISIC_0010681.JPG,ISIC_0010681.JPG,true,0,keypress(z),500,148118.10000000894,148117.70000000298,143572.337,143587.70000000298,143589.004,148122.931,1,6,6,,ISIC_0025346.JPG
sequence,flow.Sequence,2_5,2023-09-17T01:50:47.956Z,,0,,,4528.696000002994,completion,,,,,true,,,,148118.40000000596,148117.70000000298,143572.337,143587.70000000298,143589.004,148122.931,1,6,,,
loop,flow.Loop,2,2023-09-17T01:50:47.956Z,,,,,34013.652000002985,completion,,,,,true,,,,148118.70000000298,148117.70000000298,114087.381,114095.20000000298,114104.048,148122.931,1,6,,,
exp_instructions,html.Screen,3,2023-09-17T01:50:58.921Z,,,,,10956.568999999989,response,,,,,,continue,keypress(Space),,159084.20000000298,159079.5,148106.264,148118.90000000596,148122.931,159089.817,,,,,
trial,html.Screen,4_0_0,2023-09-17T01:51:02.800Z,,0,1,,3873.4829999970098,response,ISIC_2226940.JPG,6,ISIC_8929288.JPG,ISIC_8929288.JPG,false,0,keypress(z),500,162963.70000000298,162963.29999999702,159073.15,159084.79999999702,159089.817,162973.962,8,400,1,,ISIC_2226940.JPG
break,html.Screen,4_0_1,2023-09-17T01:51:02.801Z,,0,,,NaN,,,,,,false,,,,162964.70000000298,162964.40000000596,,162963.79999999702,,162973.962,8,400,,,
break_continue,html.Screen,4_0_2,2023-09-17T01:51:02.802Z,,0,,,NaN,,,,,,false,,,,162965.40000000596,162965.10000000894,,162964.90000000596,,162973.962,8,400,,,
sequence,flow.Sequence,4_0,2023-09-17T01:51:02.802Z,,0,,,3875.2830000089307,completion,,,,,false,,,,162965.60000000894,162965.10000000894,159073.15,159084.70000000298,159089.817,162973.962,8,400,,,
trial,html.Screen,4_1_0,2023-09-17T01:51:06.613Z,,0,1,,3802.438000005961,response,ISIC_7798358.JPG,6,ISIC_0011615.JPG,ISIC_7798358.JPG,false,1,keypress(m),500,166776.60000000894,166776.40000000596,162957.295,162965.79999999702,162973.962,166790.705,8,400,2,,ISIC_0011615.JPG
break,html.Screen,4_1_1,2023-09-17T01:51:06.614Z,,0,,,NaN,,,,,,false,,,,166777.5,166777.20000000298,,166776.90000000596,,166790.705,8,400,,,
break_continue,html.Screen,4_1_2,2023-09-17T01:51:06.614Z,,0,,,NaN,,,,,,false,,,,166777.90000000596,166777.79999999702,,166777.70000000298,,166790.705,8,400,,,
sequence,flow.Sequence,4_1,2023-09-17T01:51:06.615Z,,0,,,3803.8379999970202,completion,,,,,false,,,,166778.20000000298,166777.79999999702,162957.295,162965.70000000298,162973.962,166790.705,8,400,,,
trial,html.Screen,4_2_0,2023-09-17T01:51:09.696Z,,0,1,,3068.995000002993,response,ISIC_1831600.JPG,8,ISIC_0027110.JPG,ISIC_1831600.JPG,false,1,keypress(m),500,169859.90000000596,169859.70000000298,166774.038,166778.40000000596,166790.705,169874.568,8,400,3,,ISIC_0027110.JPG
break,html.Screen,4_2_1,2023-09-17T01:51:09.697Z,,0,,,NaN,,,,,,false,,,,169860.79999999702,169860.5,,169860.10000000894,,169874.568,8,400,,,
break_continue,html.Screen,4_2_2,2023-09-17T01:51:09.698Z,,0,,,NaN,,,,,,false,,,,169861.20000000298,169861,,169860.90000000596,,169874.568,8,400,,,
sequence,flow.Sequence,4_2,2023-09-17T01:51:09.698Z,,0,,,3070.295000000013,completion,,,,,false,,,,169861.40000000596,169861,166774.038,166778.29999999702,166790.705,169874.568,8,400,,,
trial,html.Screen,4_3_0,2023-09-17T01:51:13.461Z,,0,1,,3749.7319999970205,response,ISIC_2094429.JPG,6,ISIC_9486313.JPG,ISIC_2094429.JPG,false,1,keypress(m),500,173624.5,173624.29999999702,169857.901,169861.60000000894,169874.568,173641.31,8,400,4,,ISIC_9486313.JPG
break,html.Screen,4_3_1,2023-09-17T01:51:13.461Z,,0,,,NaN,,,,,,false,,,,173625.29999999702,173625.20000000298,,173624.70000000298,,173641.31,8,400,,,
break_continue,html.Screen,4_3_2,2023-09-17T01:51:13.462Z,,0,,,NaN,,,,,,false,,,,173625.79999999702,173625.70000000298,,173625.5,,173641.31,8,400,,,
sequence,flow.Sequence,4_3,2023-09-17T01:51:13.462Z,,0,,,3751.132000002981,completion,,,,,false,,,,173626.10000000894,173625.70000000298,169857.901,169861.5,169874.568,173641.31,8,400,,,
trial,html.Screen,4_4_0,2023-09-17T01:51:16.816Z,,0,1,,3338.3900000029826,response,ISIC_0027274.JPG,8,ISIC_0024718.JPG,ISIC_0024718.JPG,false,0,keypress(z),500,176979.90000000596,176979.70000000298,173624.643,173626.29999999702,173641.31,176991.377,8,400,5,,ISIC_0027274.JPG
break,html.Screen,4_4_1,2023-09-17T01:51:16.817Z,,0,,,NaN,,,,,,false,,,,176980.60000000894,176980.40000000596,,176980.10000000894,,176991.377,8,400,,,
break_continue,html.Screen,4_4_2,2023-09-17T01:51:16.817Z,,0,,,NaN,,,,,,false,,,,176981.10000000894,176981,,176980.79999999702,,176991.377,8,400,,,
sequence,flow.Sequence,4_4,2023-09-17T01:51:16.817Z,,0,,,3339.6900000000023,completion,,,,,false,,,,176981.40000000596,176981,173624.643,173626.20000000298,173641.31,176991.377,8,400,,,
trial,html.Screen,4_5_0,2023-09-17T01:51:20.005Z,,0,1,,3177.8230000029725,response,ISIC_4269227.JPG,8,ISIC_5883331.JPG,ISIC_4269227.JPG,false,1,keypress(m),500,180169.40000000596,180169.20000000298,176974.71,176981.5,176991.377,180175.199,8,400,6,,ISIC_5883331.JPG
break,html.Screen,4_5_1,2023-09-17T01:51:20.006Z,,0,,,NaN,,,,,,false,,,,180170.40000000596,180170,,180169.70000000298,,180175.199,8,400,,,
break_continue,html.Screen,4_5_2,2023-09-17T01:51:20.007Z,,0,,,NaN,,,,,,false,,,,180170.79999999702,180170.70000000298,,180170.5,,180175.199,8,400,,,
sequence,flow.Sequence,4_5,2023-09-17T01:51:20.007Z,,0,,,3179.3230000029725,completion,,,,,false,,,,180171,180170.70000000298,176974.71,176981.5,176991.377,180175.199,8,400,,,
trial,html.Screen,4_6_0,2023-09-17T01:51:22.826Z,,0,1,,2815.201000005967,response,ISIC_4846741.JPG,6,ISIC_2997601.JPG,ISIC_4846741.JPG,false,1,keypress(m),500,182990.60000000894,182990.40000000596,180158.532,180171.20000000298,180175.199,182991.922,8,400,7,,ISIC_2997601.JPG
break,html.Screen,4_6_1,2023-09-17T01:51:22.827Z,,0,,,NaN,,,,,,false,,,,182991.5,182991.10000000894,,182990.79999999702,,182991.922,8,400,,,
break_continue,html.Screen,4_6_2,2023-09-17T01:51:22.827Z,,0,,,NaN,,,,,,false,,,,182991.79999999702,182991.70000000298,,182991.5,,182991.922,8,400,,,
sequence,flow.Sequence,4_6,2023-09-17T01:51:22.828Z,,0,,,2816.501000002987,completion,,,,,false,,,,182992.10000000894,182991.70000000298,180158.532,180171.10000000894,180175.199,182991.922,8,400,,,
trial,html.Screen,4_7_0,2023-09-17T01:51:26.367Z,,0,1,,3539.278000002989,response,ISIC_0000301.JPG,7,ISIC_3632419.JPG,ISIC_0000301.JPG,false,1,keypress(m),500,186531.70000000298,186531.20000000298,182975.255,182992.20000000298,182991.922,186541.993,8,400,8,,ISIC_3632419.JPG
break,html.Screen,4_7_1,2023-09-17T01:51:26.368Z,,0,,,NaN,,,,,,false,,,,186532.70000000298,186532.40000000596,,186532,,186541.993,8,400,,,
break_continue,html.Screen,4_7_2,2023-09-17T01:51:26.368Z,,0,,,NaN,,,,,,false,,,,186533.10000000894,186533,,186532.79999999702,,186541.993,8,400,,,
sequence,flow.Sequence,4_7,2023-09-17T01:51:26.369Z,,0,,,3541.0780000000086,completion,,,,,false,,,,186533.40000000596,186533,182975.255,182992.10000000894,182991.922,186541.993,8,400,,,
trial,html.Screen,4_8_0,2023-09-17T01:51:32.054Z,,0,1,,5676.607000008953,response,ISIC_9568327.JPG,6,ISIC_0015250.JPG,ISIC_0015250.JPG,false,0,keypress(z),500,192218.79999999702,192218.60000000894,186525.326,186533.5,186541.993,192225.951,8,400,9,,ISIC_9568327.JPG
break,html.Screen,4_8_1,2023-09-17T01:51:32.055Z,,0,,,NaN,,,,,,false,,,,192219.60000000894,192219.29999999702,,192219,,192225.951,8,400,,,
break_continue,html.Screen,4_8_2,2023-09-17T01:51:32.055Z,,0,,,NaN,,,,,,false,,,,192220.10000000894,192219.79999999702,,192219.70000000298,,192225.951,8,400,,,
sequence,flow.Sequence,4_8,2023-09-17T01:51:32.055Z,,0,,,5677.806999997032,completion,,,,,false,,,,192220.29999999702,192219.79999999702,186525.326,186533.40000000596,186541.993,192225.951,8,400,,,
trial,html.Screen,4_9_0,2023-09-17T01:51:47.415Z,,0,1,,15384.543000000005,timeout,ISIC_0011125.JPG,8,ISIC_3586669.JPG,,false,,,500,207581.40000000596,207581.10000000894,192209.284,192220.40000000596,192225.951,207610.494,8,400,10,,
break,html.Screen,4_9_1,2023-09-17T01:51:47.416Z,,0,,,NaN,,,,,,false,,,,207582.29999999702,207582.10000000894,,207581.79999999702,,207610.494,8,400,,,
break_continue,html.Screen,4_9_2,2023-09-17T01:51:47.417Z,,0,,,NaN,,,,,,false,,,,207582.60000000894,207582.5,,207582.40000000596,,207610.494,8,400,,,
sequence,flow.Sequence,4_9,2023-09-17T01:51:47.417Z,,0,,,15356.548999999999,completion,,,,,false,,,,207582.79999999702,207582.5,192209.284,192220.40000000596,192225.951,207610.494,8,400,,,
trial,html.Screen,4_10_0,2023-09-17T01:51:52.935Z,,0,1,,5490.305999997014,response,ISIC_0013917.JPG,5,ISIC_0068776.JPG,ISIC_0068776.JPG,false,0,keypress(z),500,213101,213100.79999999702,207593.827,207582.90000000596,207610.494,213110.604,8,400,11,,ISIC_0013917.JPG
break,html.Screen,4_10_1,2023-09-17T01:51:52.936Z,,0,,,NaN,,,,,,false,,,,213101.70000000298,213101.5,,213101.20000000298,,213110.604,8,400,,,
break_continue,html.Screen,4_10_2,2023-09-17T01:51:52.936Z,,0,,,NaN,,,,,,false,,,,213102.20000000298,213102.10000000894,,213101.90000000596,,213110.604,8,400,,,
sequence,flow.Sequence,4_10,2023-09-17T01:51:52.936Z,,0,,,5491.606000008935,completion,,,,,false,,,,213102.40000000596,213102.10000000894,207593.827,207582.90000000596,207610.494,213110.604,8,400,,,
trial,html.Screen,4_11_0,2023-09-17T01:51:56.107Z,,0,1,,3162.396000000008,response,ISIC_0026498.JPG,7,ISIC_0027641.JPG,ISIC_0026498.JPG,false,1,keypress(m),500,216273.20000000298,216273,213093.937,213102.60000000894,213110.604,216277.334,8,400,12,,ISIC_0027641.JPG
break,html.Screen,4_11_1,2023-09-17T01:51:56.108Z,,0,,,NaN,,,,,,false,,,,216274.10000000894,216273.90000000596,,216273.5,,216277.334,8,400,,,
break_continue,html.Screen,4_11_2,2023-09-17T01:51:56.108Z,,0,,,NaN,,,,,,false,,,,216274.5,216274.29999999702,,216274.20000000298,,216277.334,8,400,,,
sequence,flow.Sequence,4_11,2023-09-17T01:51:56.108Z,,0,,,3163.6959999970277,completion,,,,,false,,,,216274.79999999702,216274.29999999702,213093.937,213102.60000000894,213110.604,216277.334,8,400,,,
trial,html.Screen,4_12_0,2023-09-17T01:51:59.376Z,,0,1,,3265.066000005958,response,ISIC_5714285.JPG,4,ISIC_0028420.JPG,ISIC_5714285.JPG,false,1,keypress(m),500,219542.70000000298,219542.40000000596,216260.667,216274.90000000596,216277.334,219544.597,8,400,13,,ISIC_0028420.JPG
break,html.Screen,4_12_1,2023-09-17T01:51:59.377Z,,0,,,NaN,,,,,,false,,,,219543.5,219543.29999999702,,219542.90000000596,,219544.597,8,400,,,
break_continue,html.Screen,4_12_2,2023-09-17T01:51:59.377Z,,0,,,NaN,,,,,,false,,,,219544,219543.79999999702,,219543.70000000298,,219544.597,8,400,,,
sequence,flow.Sequence,4_12,2023-09-17T01:51:59.378Z,,0,,,3266.465999997017,completion,,,,,false,,,,219544.20000000298,219543.79999999702,216260.667,216274.79999999702,216277.334,219544.597,8,400,,,
trial,html.Screen,4_13_0,2023-09-17T01:52:02.445Z,,0,1,,3066.8030000059516,response,ISIC_0014189.JPG,8,ISIC_0034256.JPG,ISIC_0034256.JPG,false,0,keypress(z),500,222611.79999999702,222611.40000000596,219527.93,219544.40000000596,219544.597,222627.992,8,400,14,,ISIC_0014189.JPG
break,html.Screen,4_13_1,2023-09-17T01:52:02.446Z,,0,,,NaN,,,,,,false,,,,222612.5,222612.40000000596,,222612,,222627.992,8,400,,,
break_continue,html.Screen,4_13_2,2023-09-17T01:52:02.446Z,,0,,,NaN,,,,,,false,,,,222613,222613,,222612.79999999702,,222627.992,8,400,,,
sequence,flow.Sequence,4_13,2023-09-17T01:52:02.446Z,,0,,,3068.402999999991,completion,,,,,false,,,,222613.29999999702,222613,219527.93,219544.40000000596,219544.597,222627.992,8,400,,,
trial,html.Screen,4_14_0,2023-09-17T01:52:05.477Z,,0,1,,3015.708000002982,response,ISIC_6780901.JPG,6,ISIC_1356715.JPG,ISIC_1356715.JPG,false,0,keypress(z),500,225643.90000000596,225643.70000000298,222611.325,222613.5,222627.992,225644.719,8,400,15,,ISIC_6780901.JPG
break,html.Screen,4_14_1,2023-09-17T01:52:05.478Z,,0,,,NaN,,,,,,false,,,,225644.70000000298,225644.40000000596,,225644.20000000298,,225644.719,8,400,,,
break_continue,html.Screen,4_14_2,2023-09-17T01:52:05.478Z,,0,,,NaN,,,,,,false,,,,225645.20000000298,225645,,225644.90000000596,,225644.719,8,400,,,
sequence,flow.Sequence,4_14,2023-09-17T01:52:05.478Z,,0,,,3017.0080000000016,completion,,,,,false,,,,225645.40000000596,225645,222611.325,222613.40000000596,222627.992,225644.719,8,400,,,
trial,html.Screen,4_15_0,2023-09-17T01:52:08.888Z,,0,1,,3410.280999999988,response,ISIC_0010266.JPG,9,ISIC_8492957.JPG,ISIC_0010266.JPG,false,1,keypress(m),500,229055.20000000298,229055,225628.052,225645.60000000894,225644.719,229062.015,8,400,16,,ISIC_8492957.JPG
break,html.Screen,4_15_1,2023-09-17T01:52:08.889Z,,0,,,NaN,,,,,,false,,,,229056.10000000894,229055.90000000596,,229055.5,,229062.015,8,400,,,
break_continue,html.Screen,4_15_2,2023-09-17T01:52:08.889Z,,0,,,NaN,,,,,,false,,,,229056.60000000894,229056.40000000596,,229056.29999999702,,229062.015,8,400,,,
sequence,flow.Sequence,4_15,2023-09-17T01:52:08.890Z,,0,,,3411.6810000059486,completion,,,,,false,,,,229056.79999999702,229056.40000000596,225628.052,225645.5,225644.719,229062.015,8,400,,,
trial,html.Screen,4_16_0,2023-09-17T01:52:12.511Z,,0,1,,3615.984999999986,response,ISIC_0055048.JPG,6,ISIC_6672654.JPG,ISIC_0055048.JPG,false,1,keypress(m),500,232678.20000000298,232678,229045.348,229057,229062.015,232695.421,8,400,17,,ISIC_6672654.JPG
break,html.Screen,4_16_1,2023-09-17T01:52:12.512Z,,0,,,NaN,,,,,,false,,,,232679,232678.79999999702,,232678.5,,232695.421,8,400,,,
break_continue,html.Screen,4_16_2,2023-09-17T01:52:12.512Z,,0,,,NaN,,,,,,false,,,,232679.60000000894,232679.40000000596,,232679.20000000298,,232695.421,8,400,,,
sequence,flow.Sequence,4_16,2023-09-17T01:52:12.512Z,,0,,,3617.3850000059465,completion,,,,,false,,,,232679.79999999702,232679.40000000596,229045.348,229056.90000000596,229062.015,232695.421,8,400,,,
trial,html.Screen,4_17_0,2023-09-17T01:52:15.846Z,,0,1,,3317.578999999998,response,ISIC_7582818.JPG,8,ISIC_0002878.JPG,ISIC_0002878.JPG,false,0,keypress(z),500,236013.20000000298,236013,232678.754,232680,232695.421,236028.821,8,400,18,,ISIC_7582818.JPG
break,html.Screen,4_17_1,2023-09-17T01:52:15.846Z,,0,,,NaN,,,,,,false,,,,236014.10000000894,236013.79999999702,,236013.5,,236028.821,8,400,,,
break_continue,html.Screen,4_17_2,2023-09-17T01:52:15.847Z,,0,,,NaN,,,,,,false,,,,236014.5,236014.40000000596,,236014.29999999702,,236028.821,8,400,,,
sequence,flow.Sequence,4_17,2023-09-17T01:52:15.847Z,,0,,,3318.9790000059584,completion,,,,,false,,,,236014.70000000298,236014.40000000596,232678.754,232680,232695.421,236028.821,8,400,,,
trial,html.Screen,4_18_0,2023-09-17T01:52:19.305Z,,0,1,,3444.1790000000037,response,ISIC_8479104.JPG,7,ISIC_4185719.JPG,ISIC_4185719.JPG,false,0,keypress(z),500,239473.20000000298,239473,236012.154,236014.90000000596,236028.821,239479.386,8,400,19,,ISIC_8479104.JPG
break,html.Screen,4_18_1,2023-09-17T01:52:19.306Z,,0,,,NaN,,,,,,false,,,,239474,239473.70000000298,,239473.40000000596,,239479.386,8,400,,,
break_continue,html.Screen,4_18_2,2023-09-17T01:52:19.307Z,,0,,,NaN,,,,,,false,,,,239474.5,239474.29999999702,,239474.20000000298,,239479.386,8,400,,,
sequence,flow.Sequence,4_18,2023-09-17T01:52:19.307Z,,0,,,3445.4789999970235,completion,,,,,false,,,,239474.60000000894,239474.29999999702,236012.154,236014.90000000596,236028.821,239479.386,8,400,,,
trial,html.Screen,4_19_0,2023-09-17T01:52:22.717Z,,0,1,,3405.8140000029816,response,ISIC_5897134.JPG,6,ISIC_3706743.JPG,ISIC_3706743.JPG,false,0,keypress(z),500,242885.40000000596,242885.20000000298,239462.719,239474.79999999702,239479.386,242896.121,8,400,20,,ISIC_5897134.JPG
break,html.Screen,4_19_1,2023-09-17T01:52:22.718Z,,0,,,NaN,,,,,,false,,,,242886.10000000894,242885.90000000596,,242885.60000000894,,242896.121,8,400,,,
break_continue,html.Screen,4_19_2,2023-09-17T01:52:22.719Z,,0,,,NaN,,,,,,false,,,,242886.60000000894,242886.40000000596,,242886.29999999702,,242896.121,8,400,,,
sequence,flow.Sequence,4_19,2023-09-17T01:52:22.719Z,,0,,,3407.014000005962,completion,,,,,false,,,,242886.79999999702,242886.40000000596,239462.719,239474.79999999702,239479.386,242896.121,8,400,,,
trial,html.Screen,4_20_0,2023-09-17T01:52:25.890Z,,0,1,,3161.7790000059467,response,ISIC_4876378.JPG,7,ISIC_5026709.JPG,ISIC_4876378.JPG,false,1,keypress(m),500,246058.20000000298,246057.90000000596,242879.454,242887,242896.121,246079.518,8,400,21,,ISIC_5026709.JPG
break,html.Screen,4_20_1,2023-09-17T01:52:25.891Z,,0,,,NaN,,,,,,false,,,,246058.90000000596,246058.60000000894,,246058.29999999702,,246079.518,8,400,,,
break_continue,html.Screen,4_20_2,2023-09-17T01:52:25.891Z,,0,,,NaN,,,,,,false,,,,246059.29999999702,246059.20000000298,,246059,,246079.518,8,400,,,
sequence,flow.Sequence,4_20,2023-09-17T01:52:25.891Z,,0,,,3163.0790000029665,completion,,,,,false,,,,246059.60000000894,246059.20000000298,242879.454,242886.90000000596,242896.121,246079.518,8,400,,,
trial,html.Screen,4_21_0,2023-09-17T01:52:30.264Z,,0,1,,4353.281999997009,response,ISIC_7839712.JPG,9,ISIC_0005854.JPG,ISIC_0005854.JPG,false,0,keypress(z),500,250433,250432.79999999702,246062.851,246059.70000000298,246079.518,250446.789,8,400,22,,ISIC_7839712.JPG
break,html.Screen,4_21_1,2023-09-17T01:52:30.265Z,,0,,,NaN,,,,,,false,,,,250433.79999999702,250433.60000000894,,250433.20000000298,,250446.789,8,400,,,
break_continue,html.Screen,4_21_2,2023-09-17T01:52:30.266Z,,0,,,NaN,,,,,,false,,,,250434.20000000298,250434,,250433.90000000596,,250446.789,8,400,,,
sequence,flow.Sequence,4_21,2023-09-17T01:52:30.266Z,,0,,,4354.481999999989,completion,,,,,false,,,,250434.40000000596,250434,246062.851,246059.70000000298,246079.518,250446.789,8,400,,,
trial,html.Screen,4_22_0,2023-09-17T01:52:33.459Z,,0,1,,3180.51099999703,response,ISIC_9223156.JPG,6,ISIC_0046635.JPG,ISIC_0046635.JPG,false,0,keypress(z),500,253627.60000000894,253627.29999999702,250430.122,250434.60000000894,250446.789,253630.186,8,400,23,,ISIC_9223156.JPG
break,html.Screen,4_22_1,2023-09-17T01:52:33.460Z,,0,,,NaN,,,,,,false,,,,253628.29999999702,253628.20000000298,,253627.79999999702,,253630.186,8,400,,,
break_continue,html.Screen,4_22_2,2023-09-17T01:52:33.460Z,,0,,,NaN,,,,,,false,,,,253628.79999999702,253628.70000000298,,253628.5,,253630.186,8,400,,,
sequence,flow.Sequence,4_22,2023-09-17T01:52:33.460Z,,0,,,3181.9110000029905,completion,,,,,false,,,,253629,253628.70000000298,250430.122,250434.60000000894,250446.789,253630.186,8,400,,,
trial,html.Screen,4_23_0,2023-09-17T01:52:38.370Z,,0,1,,4908.113999997033,response,ISIC_2514994.JPG,5,ISIC_1078854.JPG,ISIC_1078854.JPG,false,0,keypress(z),500,258538.5,258538.29999999702,253613.519,253629.20000000298,253630.186,258546.951,8,400,24,,ISIC_2514994.JPG
break,html.Screen,4_23_1,2023-09-17T01:52:38.370Z,,0,,,NaN,,,,,,false,,,,258539.40000000596,258539.20000000298,,258538.70000000298,,258546.951,8,400,,,
break_continue,html.Screen,4_23_2,2023-09-17T01:52:38.371Z,,0,,,NaN,,,,,,false,,,,258539.90000000596,258539.79999999702,,258539.60000000894,,258546.951,8,400,,,
sequence,flow.Sequence,4_23,2023-09-17T01:52:38.371Z,,0,,,4909.613999997033,completion,,,,,false,,,,258540.20000000298,258539.79999999702,253613.519,253629.20000000298,253630.186,258546.951,8,400,,,
trial,html.Screen,4_24_0,2023-09-17T01:52:42.228Z,,0,1,,3849.7490000029793,response,ISIC_0071869.JPG,5,ISIC_5288404.JPG,ISIC_5288404.JPG,false,0,keypress(z),500,262397,262396.700000003,258530.284,258540.29999999702,258546.951,262414.161,8,400,25,,ISIC_0071869.JPG
break,html.Screen,4_24_1,2023-09-17T01:52:42.229Z,,0,,,NaN,,,,,,false,,,,262397.799999997,262397.60000000894,,262397.299999997,,262414.161,8,400,,,
break_continue,html.Screen,4_24_2,2023-09-17T01:52:42.229Z,,0,,,NaN,,,,,,false,,,,262398.299999997,262398.10000000894,,262398,,262414.161,8,400,,,
sequence,flow.Sequence,4_24,2023-09-17T01:52:42.229Z,,0,,,3851.1490000089398,completion,,,,,false,,,,262398.5,262398.10000000894,258530.284,258540.20000000298,258546.951,262414.161,8,400,,,
trial,html.Screen,4_25_0,2023-09-17T01:52:45.987Z,,0,1,,3741.939000008919,response,ISIC_0026008.JPG,7,ISIC_6119202.JPG,ISIC_6119202.JPG,false,0,keypress(z),500,266156.299999997,266156.10000000894,262397.494,262398.799999997,262414.161,266164.236,8,400,26,,ISIC_0026008.JPG
break,html.Screen,4_25_1,2023-09-17T01:52:45.988Z,,0,,,NaN,,,,,,false,,,,266157.200000003,266156.90000000596,,266156.5,,266164.236,8,400,,,
break_continue,html.Screen,4_25_2,2023-09-17T01:52:45.988Z,,0,,,NaN,,,,,,false,,,,266157.700000003,266157.5,,266157.299999997,,266164.236,8,400,,,
sequence,flow.Sequence,4_25,2023-09-17T01:52:45.988Z,,0,,,3743.338999999978,completion,,,,,false,,,,266157.90000000596,266157.5,262397.494,262398.60000000894,262414.161,266164.236,8,400,,,
trial,html.Screen,4_26_0,2023-09-17T01:52:48.967Z,,0,1,,2972.2640000000247,response,ISIC_0064180.JPG,8,ISIC_0064471.JPG,ISIC_0064471.JPG,false,0,keypress(z),500,269136.700000003,269136.5,266147.569,266158.10000000894,266164.236,269147.629,8,400,27,,ISIC_0064180.JPG
break,html.Screen,4_26_1,2023-09-17T01:52:48.968Z,,0,,,NaN,,,,,,false,,,,269137.5,269137.299999997,,269136.90000000596,,269147.629,8,400,,,
break_continue,html.Screen,4_26_2,2023-09-17T01:52:48.968Z,,0,,,NaN,,,,,,false,,,,269138,269137.799999997,,269137.60000000894,,269147.629,8,400,,,
sequence,flow.Sequence,4_26,2023-09-17T01:52:48.969Z,,0,,,2973.5639999970444,completion,,,,,false,,,,269138.200000003,269137.799999997,266147.569,266158,266164.236,269147.629,8,400,,,
trial,html.Screen,4_27_0,2023-09-17T01:52:53.518Z,,0,1,,4539.971000008925,response,ISIC_1330008.JPG,7,ISIC_1930598.JPG,ISIC_1930598.JPG,false,0,keypress(z),500,273687.799999997,273687.60000000894,269130.962,269138.40000000596,269147.629,273698.278,8,400,28,,ISIC_1330008.JPG
break,html.Screen,4_27_1,2023-09-17T01:52:53.519Z,,0,,,NaN,,,,,,false,,,,273688.700000003,273688.40000000596,,273688,,273698.278,8,400,,,
break_continue,html.Screen,4_27_2,2023-09-17T01:52:53.519Z,,0,,,NaN,,,,,,false,,,,273689,273688.90000000596,,273688.799999997,,273698.278,8,400,,,
sequence,flow.Sequence,4_27,2023-09-17T01:52:53.519Z,,0,,,4541.271000005945,completion,,,,,false,,,,273689.299999997,273688.90000000596,269130.962,269138.299999997,269147.629,273698.278,8,400,,,
trial,html.Screen,4_28_0,2023-09-17T01:52:56.373Z,,0,1,,2844.5219999970286,response,ISIC_0033129.JPG,6,ISIC_1216201.JPG,ISIC_1216201.JPG,false,0,keypress(z),500,276543,276542.799999997,273681.611,273689.5,273698.278,276548.335,8,400,29,,ISIC_0033129.JPG
break,html.Screen,4_28_1,2023-09-17T01:52:56.374Z,,0,,,NaN,,,,,,false,,,,276543.799999997,276543.60000000894,,276543.200000003,,276548.335,8,400,,,
break_continue,html.Screen,4_28_2,2023-09-17T01:52:56.374Z,,0,,,NaN,,,,,,false,,,,276544.299999997,276544.10000000894,,276543.90000000596,,276548.335,8,400,,,
sequence,flow.Sequence,4_28,2023-09-17T01:52:56.374Z,,0,,,2845.8220000089495,completion,,,,,false,,,,276544.5,276544.10000000894,273681.611,273689.40000000596,273698.278,276548.335,8,400,,,
trial,html.Screen,4_29_0,2023-09-17T01:53:00.890Z,,0,1,,4511.5650000059395,response,ISIC_0061199.JPG,8,ISIC_9160614.JPG,ISIC_9160614.JPG,false,0,keypress(z),500,281060.200000003,281059.90000000596,276531.668,276544.60000000894,276548.335,281065.565,8,400,30,,ISIC_0061199.JPG
break,html.Screen,4_29_1,2023-09-17T01:53:00.891Z,,0,,,NaN,,,,,,false,,,,281060.90000000596,281060.60000000894,,281060.40000000596,,281065.565,8,400,,,
break_continue,html.Screen,4_29_2,2023-09-17T01:53:00.891Z,,0,,,NaN,,,,,,false,,,,281061.40000000596,281061.200000003,,281061,,281065.565,8,400,,,
sequence,flow.Sequence,4_29,2023-09-17T01:53:00.891Z,,0,,,4512.865000002959,completion,,,,,false,,,,281061.60000000894,281061.200000003,276531.668,276544.60000000894,276548.335,281065.565,8,400,,,
trial,html.Screen,4_30_0,2023-09-17T01:53:06.473Z,,0,1,,5577.635000002978,response,ISIC_0011855.JPG,7,ISIC_3084213.JPG,ISIC_3084213.JPG,false,0,keypress(z),500,286643.40000000596,286643.200000003,281048.898,281061.799999997,281065.565,286649.01,8,400,31,,ISIC_0011855.JPG
break,html.Screen,4_30_1,2023-09-17T01:53:06.474Z,,0,,,NaN,,,,,,false,,,,286644.200000003,286644,,286643.60000000894,,286649.01,8,400,,,
break_continue,html.Screen,4_30_2,2023-09-17T01:53:06.474Z,,0,,,NaN,,,,,,false,,,,286644.700000003,286644.5,,286644.40000000596,,286649.01,8,400,,,
sequence,flow.Sequence,4_30,2023-09-17T01:53:06.474Z,,0,,,5578.934999999998,completion,,,,,false,,,,286644.90000000596,286644.5,281048.898,281061.700000003,281065.565,286649.01,8,400,,,
trial,html.Screen,4_31_0,2023-09-17T01:53:09.626Z,,0,1,,3147.390000005951,response,ISIC_3449290.JPG,5,ISIC_0595080.JPG,ISIC_0595080.JPG,false,0,keypress(z),500,289796.60000000894,289796.40000000596,286632.343,286645.10000000894,286649.01,289799.073,8,400,32,,ISIC_3449290.JPG
break,html.Screen,4_31_1,2023-09-17T01:53:09.626Z,,0,,,NaN,,,,,,false,,,,289797.40000000596,289797.200000003,,289796.799999997,,289799.073,8,400,,,
break_continue,html.Screen,4_31_2,2023-09-17T01:53:09.627Z,,0,,,NaN,,,,,,false,,,,289797.799999997,289797.700000003,,289797.5,,289799.073,8,400,,,
sequence,flow.Sequence,4_31,2023-09-17T01:53:09.627Z,,0,,,3148.690000002971,completion,,,,,false,,,,289798,289797.700000003,286632.343,286645,286649.01,289799.073,8,400,,,
trial,html.Screen,4_32_0,2023-09-17T01:53:13.069Z,,0,1,,3441.027000008966,response,ISIC_1805602.JPG,7,ISIC_6755132.JPG,ISIC_6755132.JPG,false,0,keypress(z),500,293240.40000000596,293240.10000000894,289782.406,289798.200000003,289799.073,293249.661,8,400,33,,ISIC_1805602.JPG
break,html.Screen,4_32_1,2023-09-17T01:53:13.070Z,,0,,,NaN,,,,,,false,,,,293241.200000003,293241,,293240.60000000894,,293249.661,8,400,,,
break_continue,html.Screen,4_32_2,2023-09-17T01:53:13.071Z,,0,,,NaN,,,,,,false,,,,293241.60000000894,293241.5,,293241.40000000596,,293249.661,8,400,,,
sequence,flow.Sequence,4_32,2023-09-17T01:53:13.071Z,,0,,,3442.427000000025,completion,,,,,false,,,,293241.799999997,293241.5,289782.406,289798.200000003,289799.073,293249.661,8,400,,,
trial,html.Screen,4_33_0,2023-09-17T01:53:16.226Z,,0,1,,3147.0390000029583,response,ISIC_4508511.JPG,5,ISIC_0034207.JPG,ISIC_4508511.JPG,false,1,keypress(m),500,296396.90000000596,296396.700000003,293232.994,293242,293249.661,296399.724,8,400,34,,ISIC_0034207.JPG
break,html.Screen,4_33_1,2023-09-17T01:53:16.226Z,,0,,,NaN,,,,,,false,,,,296397.799999997,296397.60000000894,,296397.200000003,,296399.724,8,400,,,
break_continue,html.Screen,4_33_2,2023-09-17T01:53:16.227Z,,0,,,NaN,,,,,,false,,,,296398.200000003,296398,,296397.90000000596,,296399.724,8,400,,,
sequence,flow.Sequence,4_33,2023-09-17T01:53:16.227Z,,0,,,3148.338999999978,completion,,,,,false,,,,296398.40000000596,296398,293232.994,293242,293249.661,296399.724,8,400,,,
trial,html.Screen,4_34_0,2023-09-17T01:53:19.778Z,,0,1,,3549.3760000089533,response,ISIC_0437978.JPG,7,ISIC_2378428.JPG,ISIC_2378428.JPG,false,0,keypress(z),500,299949.5,299949.10000000894,296383.057,296398.60000000894,296399.724,299966.462,8,400,35,,ISIC_0437978.JPG
break,html.Screen,4_34_1,2023-09-17T01:53:19.779Z,,0,,,NaN,,,,,,false,,,,299950.200000003,299950,,299949.700000003,,299966.462,8,400,,,
break_continue,html.Screen,4_34_2,2023-09-17T01:53:19.779Z,,0,,,NaN,,,,,,false,,,,299950.799999997,299950.60000000894,,299950.40000000596,,299966.462,8,400,,,
sequence,flow.Sequence,4_34,2023-09-17T01:53:19.779Z,,0,,,3550.8760000089533,completion,,,,,false,,,,299950.90000000596,299950.60000000894,296383.057,296398.5,296399.724,299966.462,8,400,,,
trial,html.Screen,4_35_0,2023-09-17T01:53:24.550Z,,0,1,,4754.5380000000005,response,ISIC_6678508.JPG,7,ISIC_0026943.JPG,ISIC_6678508.JPG,false,1,keypress(m),500,304721.299999997,304721,299949.795,299951.200000003,299966.462,304733.711,8,400,36,,ISIC_0026943.JPG
break,html.Screen,4_35_1,2023-09-17T01:53:24.550Z,,0,,,NaN,,,,,,false,,,,304722,304721.90000000596,,304721.5,,304733.711,8,400,,,
break_continue,html.Screen,4_35_2,2023-09-17T01:53:24.551Z,,0,,,NaN,,,,,,false,,,,304722.60000000894,304722.40000000596,,304722.200000003,,304733.711,8,400,,,
sequence,flow.Sequence,4_35,2023-09-17T01:53:24.551Z,,0,,,4755.938000005961,completion,,,,,false,,,,304722.700000003,304722.40000000596,299949.795,299951.10000000894,299966.462,304733.711,8,400,,,
trial,html.Screen,4_36_0,2023-09-17T01:53:27.788Z,,0,1,,3225.5889999970095,response,ISIC_0070419.JPG,6,ISIC_9223679.JPG,ISIC_9223679.JPG,false,0,keypress(z),500,307959.60000000894,307959.299999997,304717.044,304722.90000000596,304733.711,307967.109,8,400,37,,ISIC_0070419.JPG
break,html.Screen,4_36_1,2023-09-17T01:53:27.788Z,,0,,,NaN,,,,,,false,,,,307960.40000000596,307960.10000000894,,307959.90000000596,,307967.109,8,400,,,
break_continue,html.Screen,4_36_2,2023-09-17T01:53:27.789Z,,0,,,NaN,,,,,,false,,,,307960.90000000596,307960.700000003,,307960.5,,307967.109,8,400,,,
sequence,flow.Sequence,4_36,2023-09-17T01:53:27.789Z,,0,,,3226.98900000297,completion,,,,,false,,,,307961.10000000894,307960.700000003,304717.044,304722.90000000596,304733.711,307967.109,8,400,,,
trial,html.Screen,4_37_0,2023-09-17T01:53:31.474Z,,0,1,,3679.190999997023,response,ISIC_9061511.JPG,7,ISIC_0059041.JPG,ISIC_9061511.JPG,false,1,keypress(m),500,311646.60000000894,311646.299999997,307950.442,307961.200000003,307967.109,311650.983,8,400,38,,ISIC_0059041.JPG
break,html.Screen,4_37_1,2023-09-17T01:53:31.475Z,,0,,,NaN,,,,,,false,,,,311647.60000000894,311647.200000003,,311646.799999997,,311650.983,8,400,,,
break_continue,html.Screen,4_37_2,2023-09-17T01:53:31.476Z,,0,,,NaN,,,,,,false,,,,311648.40000000596,311648.10000000894,,311647.799999997,,311650.983,8,400,,,
sequence,flow.Sequence,4_37,2023-09-17T01:53:31.477Z,,0,,,3680.991000008944,completion,,,,,false,,,,311648.799999997,311648.10000000894,307950.442,307961.200000003,307967.109,311650.983,8,400,,,
trial,html.Screen,4_38_0,2023-09-17T01:53:34.568Z,,0,1,,3089.417000005953,response,ISIC_0068217.JPG,6,ISIC_8642938.JPG,ISIC_8642938.JPG,false,0,keypress(z),500,314740.700000003,314740.40000000596,311634.316,311649.200000003,311650.983,314751.045,8,400,39,,ISIC_0068217.JPG
break,html.Screen,4_38_1,2023-09-17T01:53:34.569Z,,0,,,NaN,,,,,,false,,,,314741.40000000596,314741.200000003,,314741,,314751.045,8,400,,,
break_continue,html.Screen,4_38_2,2023-09-17T01:53:34.570Z,,0,,,NaN,,,,,,false,,,,314741.90000000596,314741.700000003,,314741.60000000894,,314751.045,8,400,,,
sequence,flow.Sequence,4_38,2023-09-17T01:53:34.570Z,,0,,,3090.717000002973,completion,,,,,false,,,,314742.10000000894,314741.700000003,311634.316,311649,311650.983,314751.045,8,400,,,
trial,html.Screen,4_39_0,2023-09-17T01:53:38.639Z,,0,1,,4060.055000008957,response,ISIC_9685931.JPG,6,ISIC_1337726.JPG,ISIC_9685931.JPG,false,1,keypress(m),500,318811.299999997,318811.10000000894,314734.378,314742.299999997,314751.045,318817.793,8,400,40,,ISIC_1337726.JPG
break,html.Screen,4_39_1,2023-09-17T01:53:38.640Z,,0,,,NaN,,,,,,false,,,,318812.200000003,318811.90000000596,,318811.60000000894,,318817.793,8,400,,,
break_continue,html.Screen,4_39_2,2023-09-17T01:53:38.640Z,,0,,,NaN,,,,,,false,,,,318812.5,318812.40000000596,,318812.299999997,,318817.793,8,400,,,
sequence,flow.Sequence,4_39,2023-09-17T01:53:38.640Z,,0,,,4061.3550000059768,completion,,,,,false,,,,318812.799999997,318812.40000000596,314734.378,314742.200000003,314751.045,318817.793,8,400,,,
trial,html.Screen,4_40_0,2023-09-17T01:53:41.456Z,,0,1,,2810.8070000089356,response,ISIC_0046394.JPG,7,ISIC_4907595.JPG,ISIC_4907595.JPG,false,0,keypress(z),500,321628.700000003,321628.60000000894,318801.126,318813,318817.793,321651.642,8,400,41,,ISIC_0046394.JPG
break,html.Screen,4_40_1,2023-09-17T01:53:41.457Z,,0,,,NaN,,,,,,false,,,,321629.40000000596,321629.299999997,,321629,,321651.642,8,400,,,
break_continue,html.Screen,4_40_2,2023-09-17T01:53:41.457Z,,0,,,NaN,,,,,,false,,,,321629.90000000596,321629.799999997,,321629.700000003,,321651.642,8,400,,,
sequence,flow.Sequence,4_40,2023-09-17T01:53:41.457Z,,0,,,2812.0069999970146,completion,,,,,false,,,,321630.10000000894,321629.799999997,318801.126,318812.90000000596,318817.793,321651.642,8,400,,,
trial,html.Screen,4_41_0,2023-09-17T01:53:45.190Z,,0,1,,3711.5580000029877,response,ISIC_4603706.JPG,8,ISIC_5104731.JPG,ISIC_5104731.JPG,false,0,keypress(z),500,325363.299999997,325363.200000003,321634.975,321630.299999997,321651.642,325368.383,8,400,42,,ISIC_4603706.JPG
break,html.Screen,4_41_1,2023-09-17T01:53:45.191Z,,0,,,NaN,,,,,,false,,,,325364.200000003,325363.90000000596,,325363.60000000894,,325368.383,8,400,,,
break_continue,html.Screen,4_41_2,2023-09-17T01:53:45.192Z,,0,,,NaN,,,,,,false,,,,325364.60000000894,325364.5,,325364.40000000596,,325368.383,8,400,,,
sequence,flow.Sequence,4_41,2023-09-17T01:53:45.192Z,,0,,,3712.8580000000075,completion,,,,,false,,,,325364.799999997,325364.5,321634.975,321630.200000003,321651.642,325368.383,8,400,,,
trial,html.Screen,4_42_0,2023-09-17T01:53:48.140Z,,0,1,,2944.1170000000275,response,ISIC_0030910.JPG,7,ISIC_2681497.JPG,ISIC_2681497.JPG,false,0,keypress(z),500,328312.700000003,328312.5,325351.716,325365,325368.383,328318.442,8,400,43,,ISIC_0030910.JPG
break,html.Screen,4_42_1,2023-09-17T01:53:48.140Z,,0,,,NaN,,,,,,false,,,,328313.60000000894,328313.299999997,,328313,,328318.442,8,400,,,
break_continue,html.Screen,4_42_2,2023-09-17T01:53:48.141Z,,0,,,NaN,,,,,,false,,,,328314,328313.799999997,,328313.700000003,,328318.442,8,400,,,
sequence,flow.Sequence,4_42,2023-09-17T01:53:48.141Z,,0,,,2945.4169999970472,completion,,,,,false,,,,328314.299999997,328313.799999997,325351.716,325365,325368.383,328318.442,8,400,,,
trial,html.Screen,4_43_0,2023-09-17T01:53:51.058Z,,0,1,,2913.058000000019,response,ISIC_0072382.JPG,6,ISIC_0058255.JPG,ISIC_0058255.JPG,false,0,keypress(z),500,331231.90000000596,331231.5,328301.775,328314.40000000596,328318.442,331235.167,8,400,44,,ISIC_0072382.JPG
break,html.Screen,4_43_1,2023-09-17T01:53:51.059Z,,0,,,NaN,,,,,,false,,,,331232.700000003,331232.40000000596,,331232.10000000894,,331235.167,8,400,,,
break_continue,html.Screen,4_43_2,2023-09-17T01:53:51.060Z,,0,,,NaN,,,,,,false,,,,331233.200000003,331233,,331232.90000000596,,331235.167,8,400,,,
sequence,flow.Sequence,4_43,2023-09-17T01:53:51.060Z,,0,,,2914.558000000019,completion,,,,,false,,,,331233.40000000596,331233,328301.775,328314.40000000596,328318.442,331235.167,8,400,,,
trial,html.Screen,4_44_0,2023-09-17T01:53:54.200Z,,0,1,,3137.7330000059446,response,ISIC_0031184.JPG,7,ISIC_0046645.JPG,ISIC_0031184.JPG,false,1,keypress(m),500,334373.200000003,334372.90000000596,331218.5,331233.60000000894,331235.167,334385.814,8,400,45,,ISIC_0046645.JPG
break,html.Screen,4_44_1,2023-09-17T01:53:54.200Z,,0,,,NaN,,,,,,false,,,,334373.90000000596,334373.700000003,,334373.299999997,,334385.814,8,400,,,
break_continue,html.Screen,4_44_2,2023-09-17T01:53:54.201Z,,0,,,NaN,,,,,,false,,,,334374.40000000596,334374.299999997,,334374.10000000894,,334385.814,8,400,,,
sequence,flow.Sequence,4_44,2023-09-17T01:53:54.201Z,,0,,,3139.132999997004,completion,,,,,false,,,,334374.60000000894,334374.299999997,331218.5,331233.60000000894,331235.167,334385.814,8,400,,,
trial,html.Screen,4_45_0,2023-09-17T01:53:57.501Z,,0,1,,3288.185999999987,response,ISIC_4673648.JPG,7,ISIC_1479949.JPG,ISIC_1479949.JPG,false,0,keypress(z),500,337674.200000003,337674,334369.147,334374.799999997,334385.814,337685.88,8,400,46,,ISIC_4673648.JPG
break,html.Screen,4_45_1,2023-09-17T01:53:57.501Z,,0,,,NaN,,,,,,false,,,,337675.10000000894,337674.799999997,,337674.5,,337685.88,8,400,,,
break_continue,html.Screen,4_45_2,2023-09-17T01:53:57.502Z,,0,,,NaN,,,,,,false,,,,337675.60000000894,337675.5,,337675.299999997,,337685.88,8,400,,,
sequence,flow.Sequence,4_45,2023-09-17T01:53:57.502Z,,0,,,3289.685999999987,completion,,,,,false,,,,337675.90000000596,337675.5,334369.147,334374.799999997,334385.814,337685.88,8,400,,,
trial,html.Screen,4_46_0,2023-09-17T01:54:00.866Z,,0,1,,3353.720000008936,response,ISIC_2885086.JPG,8,ISIC_0057669.JPG,ISIC_2885086.JPG,false,1,keypress(m),500,341039.90000000596,341039.60000000894,337669.213,337676.10000000894,337685.88,341052.614,8,400,47,,ISIC_0057669.JPG
break,html.Screen,4_46_1,2023-09-17T01:54:00.867Z,,0,,,NaN,,,,,,false,,,,341040.60000000894,341040.40000000596,,341040.10000000894,,341052.614,8,400,,,
break_continue,html.Screen,4_46_2,2023-09-17T01:54:00.867Z,,0,,,NaN,,,,,,false,,,,341041.10000000894,341040.90000000596,,341040.90000000596,,341052.614,8,400,,,
sequence,flow.Sequence,4_46,2023-09-17T01:54:00.867Z,,0,,,3355.020000005956,completion,,,,,false,,,,341041.299999997,341040.90000000596,337669.213,337676.10000000894,337685.88,341052.614,8,400,,,
trial,html.Screen,4_47_0,2023-09-17T01:54:03.673Z,,0,1,,2793.9860000089393,response,ISIC_9007206.JPG,8,ISIC_0027591.JPG,ISIC_9007206.JPG,false,1,keypress(m),500,343846.90000000596,343846.60000000894,341035.947,341041.5,341052.614,343853.135,8,400,48,,ISIC_0027591.JPG
break,html.Screen,4_47_1,2023-09-17T01:54:03.674Z,,0,,,NaN,,,,,,false,,,,343847.700000003,343847.40000000596,,343847.10000000894,,343853.135,8,400,,,
break_continue,html.Screen,4_47_2,2023-09-17T01:54:03.674Z,,0,,,NaN,,,,,,false,,,,343848.200000003,343848,,343847.90000000596,,343853.135,8,400,,,
sequence,flow.Sequence,4_47,2023-09-17T01:54:03.674Z,,0,,,2795.3859999999986,completion,,,,,false,,,,343848.40000000596,343848,341035.947,341041.5,341052.614,343853.135,8,400,,,
trial,html.Screen,4_48_0,2023-09-17T01:54:11.878Z,,0,1,,8199.065000002971,response,ISIC_0000143.JPG,7,ISIC_0990298.JPG,ISIC_0990298.JPG,false,0,keypress(z),500,352052.5,352052.200000003,343836.468,343848.60000000894,343853.135,352069.966,8,400,49,,ISIC_0000143.JPG
break,html.Screen,4_48_1,2023-09-17T01:54:11.879Z,,0,,,NaN,,,,,,false,,,,352053.299999997,352053.10000000894,,352052.700000003,,352069.966,8,400,,,
break_continue,html.Screen,4_48_2,2023-09-17T01:54:11.879Z,,0,,,NaN,,,,,,false,,,,352053.799999997,352053.60000000894,,352053.5,,352069.966,8,400,,,
sequence,flow.Sequence,4_48,2023-09-17T01:54:11.879Z,,0,,,8200.465000008931,completion,,,,,false,,,,352054,352053.60000000894,343836.468,343848.5,343853.135,352069.966,8,400,,,
trial,html.Screen,4_49_0,2023-09-17T01:54:14.973Z,,0,1,,3077.134000008926,response,ISIC_5768032.JPG,8,ISIC_0000148.JPG,ISIC_5768032.JPG,false,1,keypress(m),500,355147.40000000596,355147.10000000894,352053.299,352054.200000003,352069.966,355153.903,8,400,50,,ISIC_0000148.JPG
break,html.Screen,4_49_1,2023-09-17T01:54:24.965Z,,0,,,10000.712999999989,timeout,,,,,false,,,,365140.299999997,365137.949,355137.236,355147.700000003,355153.903,365154.616,8,400,,,
break_continue,html.Screen,4_49_2,2023-09-17T01:54:27.066Z,,0,,,2066.38400000002,response,,,,,false,continue,keypress(Space),,367241.299999997,367221,365137.949,365140.700000003,365154.616,367254.658,8,400,,,
sequence,flow.Sequence,4_49,2023-09-17T01:54:27.066Z,,0,,,15151.033999999985,completion,,,,,false,,,,367241.40000000596,367221,352053.299,352054.10000000894,352069.966,367254.658,8,400,,,
trial,html.Screen,4_50_0,2023-09-17T01:54:32.787Z,,0,2,,5707.842000000004,response,ISIC_5552381.JPG,4,ISIC_0011295.JPG,ISIC_5552381.JPG,false,1,keypress(m),500,372962.700000003,372962.5,367237.991,367241.60000000894,367254.658,372971.927,8,400,1,,ISIC_0011295.JPG
break,html.Screen,4_50_1,2023-09-17T01:54:32.788Z,,0,,,NaN,,,,,,false,,,,372963.5,372963.299999997,,372963,,372971.927,8,400,,,
break_continue,html.Screen,4_50_2,2023-09-17T01:54:32.788Z,,0,,,NaN,,,,,,false,,,,372964,372963.799999997,,372963.700000003,,372971.927,8,400,,,
sequence,flow.Sequence,4_50,2023-09-17T01:54:32.788Z,,0,,,5709.141999997024,completion,,,,,false,,,,372964.200000003,372963.799999997,367237.991,367241.60000000894,367254.658,372971.927,8,400,,,
trial,html.Screen,4_51_0,2023-09-17T01:54:35.894Z,,0,2,,3097.773000002955,response,ISIC_0058315.JPG,8,ISIC_0031438.JPG,ISIC_0031438.JPG,false,0,keypress(z),500,376069.90000000596,376069.700000003,372955.26,372964.40000000596,372971.927,376071.989,8,400,2,,ISIC_0058315.JPG
break,html.Screen,4_51_1,2023-09-17T01:54:35.895Z,,0,,,NaN,,,,,,false,,,,376070.700000003,376070.5,,376070.200000003,,376071.989,8,400,,,
break_continue,html.Screen,4_51_2,2023-09-17T01:54:35.895Z,,0,,,NaN,,,,,,false,,,,376071.299999997,376071,,376070.90000000596,,376071.989,8,400,,,
sequence,flow.Sequence,4_51,2023-09-17T01:54:35.895Z,,0,,,3099.072999999975,completion,,,,,false,,,,376071.5,376071,372955.26,372964.40000000596,372971.927,376071.989,8,400,,,
trial,html.Screen,4_52_0,2023-09-17T01:54:38.675Z,,0,2,,2778.911000005959,response,ISIC_0026500.JPG,7,ISIC_4659355.JPG,ISIC_4659355.JPG,false,0,keypress(z),500,378851.10000000894,378850.90000000596,376055.322,376071.700000003,376071.989,378855.378,8,400,3,,ISIC_0026500.JPG
break,html.Screen,4_52_1,2023-09-17T01:54:38.676Z,,0,,,NaN,,,,,,false,,,,378852,378851.60000000894,,378851.299999997,,378855.378,8,400,,,
break_continue,html.Screen,4_52_2,2023-09-17T01:54:38.676Z,,0,,,NaN,,,,,,false,,,,378852.299999997,378852.200000003,,378852,,378855.378,8,400,,,
sequence,flow.Sequence,4_52,2023-09-17T01:54:38.676Z,,0,,,2780.211000002979,completion,,,,,false,,,,378852.700000003,378852.200000003,376055.322,376071.60000000894,376071.989,378855.378,8,400,,,
trial,html.Screen,4_53_0,2023-09-17T01:54:41.543Z,,0,2,,2863.322000002954,response,ISIC_0010061.JPG,7,ISIC_0009959.JPG,ISIC_0009959.JPG,false,0,keypress(z),500,381718.90000000596,381718.700000003,378838.711,378852.799999997,378855.378,381722.102,8,400,4,,ISIC_0010061.JPG
break,html.Screen,4_53_1,2023-09-17T01:54:41.543Z,,0,,,NaN,,,,,,false,,,,381719.700000003,381719.5,,381719.10000000894,,381722.102,8,400,,,
break_continue,html.Screen,4_53_2,2023-09-17T01:54:41.544Z,,0,,,NaN,,,,,,false,,,,381720.10000000894,381720,,381719.799999997,,381722.102,8,400,,,
sequence,flow.Sequence,4_53,2023-09-17T01:54:41.544Z,,0,,,2864.621999999974,completion,,,,,false,,,,381720.40000000596,381720,378838.711,378852.799999997,378855.378,381722.102,8,400,,,
trial,html.Screen,4_54_0,2023-09-17T01:54:44.292Z,,0,2,,2746.3979999999865,response,ISIC_0068627.JPG,6,ISIC_2720426.JPG,ISIC_2720426.JPG,false,0,keypress(z),500,384468.90000000596,384468.5,381705.435,381720.5,381722.102,384472.677,8,400,5,,ISIC_0068627.JPG
break,html.Screen,4_54_1,2023-09-17T01:54:44.293Z,,0,,,NaN,,,,,,false,,,,384469.60000000894,384469.299999997,,384469,,384472.677,8,400,,,
break_continue,html.Screen,4_54_2,2023-09-17T01:54:44.294Z,,0,,,NaN,,,,,,false,,,,384470.10000000894,384469.90000000596,,384469.799999997,,384472.677,8,400,,,
sequence,flow.Sequence,4_54,2023-09-17T01:54:44.294Z,,0,,,2747.798000005947,completion,,,,,false,,,,384470.299999997,384469.90000000596,381705.435,381720.5,381722.102,384472.677,8,400,,,
trial,html.Screen,4_55_0,2023-09-17T01:54:47.138Z,,0,2,,2841.9230000089156,response,ISIC_0032559.JPG,5,ISIC_5156491.JPG,ISIC_0032559.JPG,false,1,keypress(m),500,387314.799999997,387314.60000000894,384456.01,384470.5,384472.677,387322.734,8,400,6,,ISIC_5156491.JPG
break,html.Screen,4_55_1,2023-09-17T01:54:47.139Z,,0,,,NaN,,,,,,false,,,,387315.5,387315.299999997,,387315,,387322.734,8,400,,,
break_continue,html.Screen,4_55_2,2023-09-17T01:54:47.139Z,,0,,,NaN,,,,,,false,,,,387316,387315.799999997,,387315.700000003,,387322.734,8,400,,,
sequence,flow.Sequence,4_55,2023-09-17T01:54:47.139Z,,0,,,2843.1229999969946,completion,,,,,false,,,,387316.200000003,387315.799999997,384456.01,384470.5,384472.677,387322.734,8,400,,,
trial,html.Screen,4_56_0,2023-09-17T01:54:50.168Z,,0,2,,3022.1660000059637,response,ISIC_3063260.JPG,5,ISIC_8007849.JPG,ISIC_3063260.JPG,false,1,keypress(m),500,390345.10000000894,390344.90000000596,387306.067,387316.40000000596,387322.734,390356.128,8,400,7,,ISIC_8007849.JPG
break,html.Screen,4_56_1,2023-09-17T01:54:50.169Z,,0,,,NaN,,,,,,false,,,,390345.90000000596,390345.700000003,,390345.40000000596,,390356.128,8,400,,,
break_continue,html.Screen,4_56_2,2023-09-17T01:54:50.169Z,,0,,,NaN,,,,,,false,,,,390346.40000000596,390346.200000003,,390346,,390356.128,8,400,,,
sequence,flow.Sequence,4_56,2023-09-17T01:54:50.170Z,,0,,,3023.4660000029835,completion,,,,,false,,,,390346.5,390346.200000003,387306.067,387316.299999997,387322.734,390356.128,8,400,,,
trial,html.Screen,4_57_0,2023-09-17T01:54:53.070Z,,0,2,,2890.6719999969937,response,ISIC_8156101.JPG,6,ISIC_0026595.JPG,ISIC_8156101.JPG,false,1,keypress(m),500,393247.10000000894,393246.799999997,390339.461,390346.700000003,390356.128,393256.674,8,400,8,,ISIC_0026595.JPG
break,html.Screen,4_57_1,2023-09-17T01:54:53.071Z,,0,,,NaN,,,,,,false,,,,393247.90000000596,393247.60000000894,,393247.299999997,,393256.674,8,400,,,
break_continue,html.Screen,4_57_2,2023-09-17T01:54:53.071Z,,0,,,NaN,,,,,,false,,,,393248.299999997,393248.10000000894,,393248,,393256.674,8,400,,,
sequence,flow.Sequence,4_57,2023-09-17T01:54:53.071Z,,0,,,2891.9720000089146,completion,,,,,false,,,,393248.60000000894,393248.10000000894,390339.461,390346.700000003,390356.128,393256.674,8,400,,,
trial,html.Screen,4_58_0,2023-09-17T01:54:57.979Z,,0,2,,4899.625999997021,response,ISIC_7558912.JPG,7,ISIC_0029296.JPG,ISIC_7558912.JPG,false,1,keypress(m),500,398156.5,398156.299999997,393240.007,393248.700000003,393256.674,398173.439,8,400,9,,ISIC_0029296.JPG
break,html.Screen,4_58_1,2023-09-17T01:54:57.980Z,,0,,,NaN,,,,,,false,,,,398157.299999997,398157.10000000894,,398156.700000003,,398173.439,8,400,,,
break_continue,html.Screen,4_58_2,2023-09-17T01:54:57.980Z,,0,,,NaN,,,,,,false,,,,398157.700000003,398157.5,,398157.40000000596,,398173.439,8,400,,,
sequence,flow.Sequence,4_58,2023-09-17T01:54:57.981Z,,0,,,4900.826000000001,completion,,,,,false,,,,398158,398157.5,393240.007,393248.60000000894,393256.674,398173.439,8,400,,,
trial,html.Screen,4_59_0,2023-09-17T01:55:01.408Z,,0,2,,3411.6610000089277,response,ISIC_4459125.JPG,5,ISIC_5934948.JPG,ISIC_5934948.JPG,false,0,keypress(z),500,401585.40000000596,401585.10000000894,398156.772,398158.10000000894,398173.439,401590.174,8,400,10,,ISIC_4459125.JPG
break,html.Screen,4_59_1,2023-09-17T01:55:01.409Z,,0,,,NaN,,,,,,false,,,,401586.200000003,401586,,401585.60000000894,,401590.174,8,400,,,
break_continue,html.Screen,4_59_2,2023-09-17T01:55:01.409Z,,0,,,NaN,,,,,,false,,,,401586.700000003,401586.5,,401586.299999997,,401590.174,8,400,,,
sequence,flow.Sequence,4_59,2023-09-17T01:55:01.409Z,,0,,,3413.060999999987,completion,,,,,false,,,,401586.90000000596,401586.5,398156.772,398158.10000000894,398173.439,401590.174,8,400,,,
trial,html.Screen,4_60_0,2023-09-17T01:55:05.207Z,,0,2,,3794.2260000059614,response,ISIC_0032089.JPG,7,ISIC_0028481.JPG,ISIC_0032089.JPG,false,1,keypress(m),500,405384.700000003,405384.40000000596,401573.507,401587.10000000894,401590.174,405390.753,8,400,11,,ISIC_0028481.JPG
break,html.Screen,4_60_1,2023-09-17T01:55:05.208Z,,0,,,NaN,,,,,,false,,,,405385.5,405385.200000003,,405384.90000000596,,405390.753,8,400,,,
break_continue,html.Screen,4_60_2,2023-09-17T01:55:05.208Z,,0,,,NaN,,,,,,false,,,,405385.90000000596,405385.700000003,,405385.60000000894,,405390.753,8,400,,,
sequence,flow.Sequence,4_60,2023-09-17T01:55:05.208Z,,0,,,3795.526000002981,completion,,,,,false,,,,405386.10000000894,405385.700000003,401573.507,401587.10000000894,401590.174,405390.753,8,400,,,
trial,html.Screen,4_61_0,2023-09-17T01:55:08.859Z,,0,2,,3645.8470000089146,response,ISIC_0026398.JPG,8,ISIC_1560272.JPG,ISIC_1560272.JPG,false,0,keypress(z),500,409036.799999997,409036.60000000894,405374.086,405386.299999997,405390.753,409040.826,8,400,12,,ISIC_0026398.JPG
break,html.Screen,4_61_1,2023-09-17T01:55:08.860Z,,0,,,NaN,,,,,,false,,,,409037.700000003,409037.40000000596,,409037.10000000894,,409040.826,8,400,,,
break_continue,html.Screen,4_61_2,2023-09-17T01:55:08.860Z,,0,,,NaN,,,,,,false,,,,409038.10000000894,409037.90000000596,,409037.799999997,,409040.826,8,400,,,
sequence,flow.Sequence,4_61,2023-09-17T01:55:08.860Z,,0,,,3647.1470000059344,completion,,,,,false,,,,409038.5,409037.90000000596,405374.086,405386.200000003,405390.753,409040.826,8,400,,,
trial,html.Screen,4_62_0,2023-09-17T01:55:12.106Z,,0,2,,3242.7740000089398,response,ISIC_0682543.JPG,7,ISIC_7620514.JPG,ISIC_0682543.JPG,false,1,keypress(m),500,412283.90000000596,412283.60000000894,409024.159,409038.700000003,409040.826,412290.891,8,400,13,,ISIC_7620514.JPG
break,html.Screen,4_62_1,2023-09-17T01:55:12.106Z,,0,,,NaN,,,,,,false,,,,412284.60000000894,412284.299999997,,412284.10000000894,,412290.891,8,400,,,
break_continue,html.Screen,4_62_2,2023-09-17T01:55:12.107Z,,0,,,NaN,,,,,,false,,,,412285,412284.799999997,,412284.700000003,,412290.891,8,400,,,
sequence,flow.Sequence,4_62,2023-09-17T01:55:12.107Z,,0,,,3243.973999997019,completion,,,,,false,,,,412285.200000003,412284.799999997,409024.159,409038.700000003,409040.826,412290.891,8,400,,,
trial,html.Screen,4_63_0,2023-09-17T01:55:14.910Z,,0,2,,2797.2090000089374,response,ISIC_9989485.JPG,4,ISIC_0058877.JPG,ISIC_9989485.JPG,false,1,keypress(m),500,415088.299999997,415088.10000000894,412274.224,412285.40000000596,412290.891,415091.433,8,400,14,,ISIC_0058877.JPG
break,html.Screen,4_63_1,2023-09-17T01:55:14.911Z,,0,,,NaN,,,,,,false,,,,415089,415088.799999997,,415088.60000000894,,415091.433,8,400,,,
break_continue,html.Screen,4_63_2,2023-09-17T01:55:14.911Z,,0,,,NaN,,,,,,false,,,,415089.5,415089.299999997,,415089.200000003,,415091.433,8,400,,,
sequence,flow.Sequence,4_63,2023-09-17T01:55:14.911Z,,0,,,2798.4089999970165,completion,,,,,false,,,,415089.799999997,415089.299999997,412274.224,412285.40000000596,412290.891,415091.433,8,400,,,
trial,html.Screen,4_64_0,2023-09-17T01:55:17.697Z,,0,2,,2783.767000002961,response,ISIC_2378211.JPG,4,ISIC_0026586.JPG,ISIC_2378211.JPG,false,1,keypress(m),500,417875.700000003,417875.200000003,415074.766,415089.90000000596,415091.433,417891.489,8,400,15,,ISIC_0026586.JPG
break,html.Screen,4_64_1,2023-09-17T01:55:17.698Z,,0,,,NaN,,,,,,false,,,,417876.799999997,417876.40000000596,,417876,,417891.489,8,400,,,
break_continue,html.Screen,4_64_2,2023-09-17T01:55:17.699Z,,0,,,NaN,,,,,,false,,,,417877.60000000894,417877.299999997,,417877.10000000894,,417891.489,8,400,,,
sequence,flow.Sequence,4_64,2023-09-17T01:55:17.699Z,,0,,,2785.8669999970007,completion,,,,,false,,,,417877.90000000596,417877.299999997,415074.766,415089.90000000596,415091.433,417891.489,8,400,,,
trial,html.Screen,4_65_0,2023-09-17T01:55:20.741Z,,0,2,,3027.911000005959,response,ISIC_0030554.JPG,5,ISIC_0874261.JPG,ISIC_0874261.JPG,false,0,keypress(z),500,420919.700000003,420919.40000000596,417874.822,417878.10000000894,417891.489,420924.883,8,400,16,,ISIC_0030554.JPG
break,html.Screen,4_65_1,2023-09-17T01:55:20.742Z,,0,,,NaN,,,,,,false,,,,420920.40000000596,420920.200000003,,420919.90000000596,,420924.883,8,400,,,
break_continue,html.Screen,4_65_2,2023-09-17T01:55:20.742Z,,0,,,NaN,,,,,,false,,,,420920.90000000596,420920.700000003,,420920.60000000894,,420924.883,8,400,,,
sequence,flow.Sequence,4_65,2023-09-17T01:55:20.742Z,,0,,,3029.211000002979,completion,,,,,false,,,,420921.10000000894,420920.700000003,417874.822,417878,417891.489,420924.883,8,400,,,
trial,html.Screen,4_66_0,2023-09-17T01:55:23.754Z,,0,2,,3007.4169999970472,response,ISIC_7781213.JPG,5,ISIC_5526879.JPG,ISIC_7781213.JPG,false,1,keypress(m),500,423932.5,423932.299999997,420908.216,420921.299999997,420924.883,423942.023,8,400,17,,ISIC_5526879.JPG
break,html.Screen,4_66_1,2023-09-17T01:55:23.754Z,,0,,,NaN,,,,,,false,,,,423933.200000003,423933,,423932.700000003,,423942.023,8,400,,,
break_continue,html.Screen,4_66_2,2023-09-17T01:55:23.755Z,,0,,,NaN,,,,,,false,,,,423933.60000000894,423933.5,,423933.40000000596,,423942.023,8,400,,,
sequence,flow.Sequence,4_66,2023-09-17T01:55:23.755Z,,0,,,3008.6170000000275,completion,,,,,false,,,,423933.799999997,423933.5,420908.216,420921.200000003,420924.883,423942.023,8,400,,,
trial,html.Screen,4_67_0,2023-09-17T01:55:26.653Z,,0,2,,2889.4770000000135,response,ISIC_0066114.JPG,8,ISIC_0024589.JPG,ISIC_0024589.JPG,false,0,keypress(z),500,426831.799999997,426831.5,423925.356,423934,423942.023,426842.081,8,400,18,,ISIC_0066114.JPG
break,html.Screen,4_67_1,2023-09-17T01:55:26.653Z,,0,,,NaN,,,,,,false,,,,426832.60000000894,426832.40000000596,,426832,,426842.081,8,400,,,
break_continue,html.Screen,4_67_2,2023-09-17T01:55:26.654Z,,0,,,NaN,,,,,,false,,,,426833.10000000894,426832.90000000596,,426832.700000003,,426842.081,8,400,,,
sequence,flow.Sequence,4_67,2023-09-17T01:55:26.654Z,,0,,,2890.877000005974,completion,,,,,false,,,,426833.200000003,426832.90000000596,423925.356,423934,423942.023,426842.081,8,400,,,
trial,html.Screen,4_68_0,2023-09-17T01:55:29.476Z,,0,2,,2812.519000008935,response,ISIC_0024449.JPG,9,ISIC_8011058.JPG,ISIC_8011058.JPG,false,0,keypress(z),500,429654.90000000596,429654.60000000894,426825.414,426833.40000000596,426842.081,429658.804,8,400,19,,ISIC_0024449.JPG
break,html.Screen,4_68_1,2023-09-17T01:55:29.476Z,,0,,,NaN,,,,,,false,,,,429655.60000000894,429655.40000000596,,429655.10000000894,,429658.804,8,400,,,
break_continue,html.Screen,4_68_2,2023-09-17T01:55:29.477Z,,0,,,NaN,,,,,,false,,,,429656.10000000894,429656,,429655.799999997,,429658.804,8,400,,,
sequence,flow.Sequence,4_68,2023-09-17T01:55:29.477Z,,0,,,2813.9189999999944,completion,,,,,false,,,,429656.299999997,429656,426825.414,426833.299999997,426842.081,429658.804,8,400,,,
trial,html.Screen,4_69_0,2023-09-17T01:55:33.639Z,,0,2,,4159.3960000029765,response,ISIC_0029106.JPG,6,ISIC_0025391.JPG,ISIC_0029106.JPG,false,1,keypress(m),500,433818.5,433818.200000003,429642.137,429656.5,429658.804,433842.773,8,400,20,,ISIC_0025391.JPG
break,html.Screen,4_69_1,2023-09-17T01:55:33.640Z,,0,,,NaN,,,,,,false,,,,433819.200000003,433819,,433818.700000003,,433842.773,8,400,,,
break_continue,html.Screen,4_69_2,2023-09-17T01:55:33.640Z,,0,,,NaN,,,,,,false,,,,433819.5,433819.40000000596,,433819.299999997,,433842.773,8,400,,,
sequence,flow.Sequence,4_69,2023-09-17T01:55:33.640Z,,0,,,4160.596000005957,completion,,,,,false,,,,433819.799999997,433819.40000000596,429642.137,429656.40000000596,429658.804,433842.773,8,400,,,
trial,html.Screen,4_70_0,2023-09-17T01:55:36.582Z,,0,2,,2919.0269999970333,response,ISIC_4734950.JPG,7,ISIC_0063268.JPG,ISIC_0063268.JPG,false,0,keypress(z),500,436762,436761.799999997,433826.106,433819.90000000596,433842.773,436792.832,8,400,21,,ISIC_4734950.JPG
break,html.Screen,4_70_1,2023-09-17T01:55:36.583Z,,0,,,NaN,,,,,,false,,,,436762.700000003,436762.5,,436762.200000003,,436792.832,8,400,,,
break_continue,html.Screen,4_70_2,2023-09-17T01:55:36.583Z,,0,,,NaN,,,,,,false,,,,436763.10000000894,436762.90000000596,,436762.90000000596,,436792.832,8,400,,,
sequence,flow.Sequence,4_70,2023-09-17T01:55:36.584Z,,0,,,2920.127000005974,completion,,,,,false,,,,436763.299999997,436762.90000000596,433826.106,433819.90000000596,433842.773,436792.832,8,400,,,
trial,html.Screen,4_71_0,2023-09-17T01:55:40.032Z,,0,2,,3418.467999997025,response,ISIC_7162343.JPG,9,ISIC_8755163.JPG,ISIC_8755163.JPG,false,0,keypress(z),500,440211.60000000894,440211.299999997,436776.165,436763.5,436792.832,440226.234,8,400,22,,ISIC_7162343.JPG
break,html.Screen,4_71_1,2023-09-17T01:55:40.032Z,,0,,,NaN,,,,,,false,,,,440212.299999997,440212.10000000894,,440211.799999997,,440226.234,8,400,,,
break_continue,html.Screen,4_71_2,2023-09-17T01:55:40.033Z,,0,,,NaN,,,,,,false,,,,440212.799999997,440212.60000000894,,440212.5,,440226.234,8,400,,,
sequence,flow.Sequence,4_71,2023-09-17T01:55:40.033Z,,0,,,3419.768000008946,completion,,,,,false,,,,440212.90000000596,440212.60000000894,436776.165,436763.5,436792.832,440226.234,8,400,,,
trial,html.Screen,4_72_0,2023-09-17T01:55:42.995Z,,0,2,,2948.866000008944,response,ISIC_0033517.JPG,5,ISIC_8383600.JPG,ISIC_8383600.JPG,false,0,keypress(z),500,443175.299999997,443175.10000000894,440209.567,440213.200000003,440226.234,443176.293,8,400,23,,ISIC_0033517.JPG
break,html.Screen,4_72_1,2023-09-17T01:55:42.996Z,,0,,,NaN,,,,,,false,,,,443176.200000003,443175.90000000596,,443175.60000000894,,443176.293,8,400,,,
break_continue,html.Screen,4_72_2,2023-09-17T01:55:42.997Z,,0,,,NaN,,,,,,false,,,,443176.60000000894,443176.5,,443176.299999997,,443176.293,8,400,,,
sequence,flow.Sequence,4_72,2023-09-17T01:55:42.997Z,,0,,,2950.2660000000033,completion,,,,,false,,,,443176.799999997,443176.5,440209.567,440213.10000000894,440226.234,443176.293,8,400,,,
trial,html.Screen,4_73_0,2023-09-17T01:55:45.583Z,,0,2,,2586.407000002975,response,ISIC_6370748.JPG,7,ISIC_0010761.JPG,ISIC_6370748.JPG,false,1,keypress(m),500,445762.90000000596,445762.700000003,443159.626,443177,443176.293,445776.862,8,400,24,,ISIC_0010761.JPG
break,html.Screen,4_73_1,2023-09-17T01:55:45.584Z,,0,,,NaN,,,,,,false,,,,445763.90000000596,445763.60000000894,,445763.200000003,,445776.862,8,400,,,
break_continue,html.Screen,4_73_2,2023-09-17T01:55:45.584Z,,0,,,NaN,,,,,,false,,,,445764.60000000894,445764.299999997,,445764.10000000894,,445776.862,8,400,,,
sequence,flow.Sequence,4_73,2023-09-17T01:55:45.585Z,,0,,,2588.0069999970146,completion,,,,,false,,,,445764.799999997,445764.299999997,443159.626,443176.90000000596,443176.293,445776.862,8,400,,,
trial,html.Screen,4_74_0,2023-09-17T01:55:48.195Z,,0,2,,2598.3380000029574,response,ISIC_5810196.JPG,9,ISIC_0071797.JPG,ISIC_5810196.JPG,false,1,keypress(m),500,448375.40000000596,448375.200000003,445760.195,445764.90000000596,445776.862,448376.914,8,400,25,,ISIC_0071797.JPG
break,html.Screen,4_74_1,2023-09-17T01:55:48.196Z,,0,,,NaN,,,,,,false,,,,448376.200000003,448375.90000000596,,448375.700000003,,448376.914,8,400,,,
break_continue,html.Screen,4_74_2,2023-09-17T01:55:48.196Z,,0,,,NaN,,,,,,false,,,,448376.60000000894,448376.40000000596,,448376.40000000596,,448376.914,8,400,,,
sequence,flow.Sequence,4_74,2023-09-17T01:55:48.196Z,,0,,,2599.5380000059376,completion,,,,,false,,,,448376.90000000596,448376.40000000596,445760.195,445764.90000000596,445776.862,448376.914,8,400,,,
trial,html.Screen,4_75_0,2023-09-17T01:55:50.855Z,,0,2,,2658.88599999703,response,ISIC_0058303.JPG,5,ISIC_9696502.JPG,ISIC_9696502.JPG,false,0,keypress(z),500,451036,451035.799999997,448360.247,448377,448376.914,451043.634,8,400,26,,ISIC_0058303.JPG
break,html.Screen,4_75_1,2023-09-17T01:55:50.856Z,,0,,,NaN,,,,,,false,,,,451036.799999997,451036.5,,451036.200000003,,451043.634,8,400,,,
break_continue,html.Screen,4_75_2,2023-09-17T01:55:50.857Z,,0,,,NaN,,,,,,false,,,,451037.200000003,451037,,451036.90000000596,,451043.634,8,400,,,
sequence,flow.Sequence,4_75,2023-09-17T01:55:50.857Z,,0,,,2660.0860000000102,completion,,,,,false,,,,451037.40000000596,451037,448360.247,448377,448376.914,451043.634,8,400,,,
trial,html.Screen,4_76_0,2023-09-17T01:55:53.374Z,,0,2,,2510.86599999998,response,ISIC_5426854.JPG,6,ISIC_0014108.JPG,ISIC_5426854.JPG,false,1,keypress(m),500,453554.700000003,453554.5,451026.967,451037.60000000894,451043.634,453560.351,8,400,27,,ISIC_0014108.JPG
break,html.Screen,4_76_1,2023-09-17T01:55:53.375Z,,0,,,NaN,,,,,,false,,,,453555.5,453555.200000003,,453554.90000000596,,453560.351,8,400,,,
break_continue,html.Screen,4_76_2,2023-09-17T01:55:53.375Z,,0,,,NaN,,,,,,false,,,,453555.90000000596,453555.799999997,,453555.60000000894,,453560.351,8,400,,,
sequence,flow.Sequence,4_76,2023-09-17T01:55:53.375Z,,0,,,2512.1659999969997,completion,,,,,false,,,,453556.10000000894,453555.799999997,451026.967,451037.5,451043.634,453560.351,8,400,,,
trial,html.Screen,4_77_0,2023-09-17T01:55:56.096Z,,0,2,,2716.349000002956,response,ISIC_7045042.JPG,8,ISIC_1714941.JPG,ISIC_1714941.JPG,false,0,keypress(z),500,456276.90000000596,456276.700000003,453543.684,453556.200000003,453560.351,456277.624,8,400,28,,ISIC_7045042.JPG
break,html.Screen,4_77_1,2023-09-17T01:55:56.097Z,,0,,,NaN,,,,,,false,,,,456277.700000003,456277.40000000596,,456277.200000003,,456277.624,8,400,,,
break_continue,html.Screen,4_77_2,2023-09-17T01:55:56.097Z,,0,,,NaN,,,,,,false,,,,456278.10000000894,456278,,456277.799999997,,456277.624,8,400,,,
sequence,flow.Sequence,4_77,2023-09-17T01:55:56.097Z,,0,,,2717.648999999976,completion,,,,,false,,,,456278.299999997,456278,453543.684,453556.200000003,453560.351,456277.624,8,400,,,
trial,html.Screen,4_78_0,2023-09-17T01:55:58.974Z,,0,2,,2877.3759999999893,response,ISIC_2778131.JPG,8,ISIC_0485914.JPG,ISIC_0485914.JPG,false,0,keypress(z),500,459155.200000003,459155,456260.957,456278.5,456277.624,459161.015,8,400,29,,ISIC_2778131.JPG
break,html.Screen,4_78_1,2023-09-17T01:55:58.975Z,,0,,,NaN,,,,,,false,,,,459156,459155.799999997,,459155.40000000596,,459161.015,8,400,,,
break_continue,html.Screen,4_78_2,2023-09-17T01:55:58.975Z,,0,,,NaN,,,,,,false,,,,459156.40000000596,459156.200000003,,459156.10000000894,,459161.015,8,400,,,
sequence,flow.Sequence,4_78,2023-09-17T01:55:58.976Z,,0,,,2878.5760000029695,completion,,,,,false,,,,459156.60000000894,459156.200000003,456260.957,456278.5,456277.624,459161.015,8,400,,,
trial,html.Screen,4_79_0,2023-09-17T01:56:01.855Z,,0,2,,2875.0850000089267,response,ISIC_6926118.JPG,9,ISIC_0033154.JPG,ISIC_6926118.JPG,false,1,keypress(m),500,462036.40000000596,462036.10000000894,459144.348,459156.90000000596,459161.015,462044.406,8,400,30,,ISIC_0033154.JPG
break,html.Screen,4_79_1,2023-09-17T01:56:01.856Z,,0,,,NaN,,,,,,false,,,,462037.10000000894,462037,,462036.700000003,,462044.406,8,400,,,
break_continue,html.Screen,4_79_2,2023-09-17T01:56:01.856Z,,0,,,NaN,,,,,,false,,,,462037.60000000894,462037.40000000596,,462037.299999997,,462044.406,8,400,,,
sequence,flow.Sequence,4_79,2023-09-17T01:56:01.857Z,,0,,,2876.3850000059465,completion,,,,,false,,,,462037.799999997,462037.40000000596,459144.348,459156.799999997,459161.015,462044.406,8,400,,,
trial,html.Screen,4_80_0,2023-09-17T01:56:05.301Z,,0,2,,3437.8939999970025,response,ISIC_9312164.JPG,7,ISIC_0074311.JPG,ISIC_9312164.JPG,false,1,keypress(m),500,465482.60000000894,465482.299999997,462027.739,462038,462044.406,465494.928,8,400,31,,ISIC_0074311.JPG
break,html.Screen,4_80_1,2023-09-17T01:56:05.302Z,,0,,,NaN,,,,,,false,,,,465483.299999997,465483.10000000894,,465482.799999997,,465494.928,8,400,,,
break_continue,html.Screen,4_80_2,2023-09-17T01:56:05.302Z,,0,,,NaN,,,,,,false,,,,465483.799999997,465483.700000003,,465483.5,,465494.928,8,400,,,
sequence,flow.Sequence,4_80,2023-09-17T01:56:05.303Z,,0,,,3439.294000002963,completion,,,,,false,,,,465484,465483.700000003,462027.739,462038,462044.406,465494.928,8,400,,,
trial,html.Screen,4_81_0,2023-09-17T01:56:08.232Z,,0,2,,2918.8719999970053,response,ISIC_4723378.JPG,7,ISIC_7988794.JPG,ISIC_7988794.JPG,false,0,keypress(z),500,468414,468413.799999997,465478.261,465484.200000003,465494.928,468428.32,8,400,32,,ISIC_4723378.JPG
break,html.Screen,4_81_1,2023-09-17T01:56:08.233Z,,0,,,NaN,,,,,,false,,,,468414.700000003,468414.5,,468414.200000003,,468428.32,8,400,,,
break_continue,html.Screen,4_81_2,2023-09-17T01:56:08.234Z,,0,,,NaN,,,,,,false,,,,468415.200000003,468415,,468414.90000000596,,468428.32,8,400,,,
sequence,flow.Sequence,4_81,2023-09-17T01:56:08.234Z,,0,,,2920.0719999999856,completion,,,,,false,,,,468415.40000000596,468415,465478.261,465484.200000003,465494.928,468428.32,8,400,,,
trial,html.Screen,4_82_0,2023-09-17T01:56:11.879Z,,0,2,,3631.679999999993,response,ISIC_9690263.JPG,5,ISIC_1638357.JPG,ISIC_1638357.JPG,false,0,keypress(z),500,472060.299999997,472060,468411.653,468415.5,468428.32,472061.726,8,400,33,,ISIC_9690263.JPG
break,html.Screen,4_82_1,2023-09-17T01:56:11.879Z,,0,,,NaN,,,,,,false,,,,472061,472060.799999997,,472060.60000000894,,472061.726,8,400,,,
break_continue,html.Screen,4_82_2,2023-09-17T01:56:11.880Z,,0,,,NaN,,,,,,false,,,,472061.5,472061.299999997,,472061.200000003,,472061.726,8,400,,,
sequence,flow.Sequence,4_82,2023-09-17T01:56:11.880Z,,0,,,3632.979999997013,completion,,,,,false,,,,472061.700000003,472061.299999997,468411.653,468415.5,468428.32,472061.726,8,400,,,
trial,html.Screen,4_83_0,2023-09-17T01:56:14.631Z,,0,2,,2751.3740000089165,response,ISIC_0031891.JPG,7,ISIC_8397285.JPG,ISIC_8397285.JPG,false,0,keypress(z),500,474813.40000000596,474813.10000000894,472045.059,472061.90000000596,472061.726,474828.448,8,400,34,,ISIC_0031891.JPG
break,html.Screen,4_83_1,2023-09-17T01:56:14.632Z,,0,,,NaN,,,,,,false,,,,474814.200000003,474813.90000000596,,474813.60000000894,,474828.448,8,400,,,
break_continue,html.Screen,4_83_2,2023-09-17T01:56:14.633Z,,0,,,NaN,,,,,,false,,,,474814.5,474814.40000000596,,474814.200000003,,474828.448,8,400,,,
sequence,flow.Sequence,4_83,2023-09-17T01:56:14.633Z,,0,,,2752.6740000059363,completion,,,,,false,,,,474814.799999997,474814.40000000596,472045.059,472061.90000000596,472061.726,474828.448,8,400,,,
trial,html.Screen,4_84_0,2023-09-17T01:56:17.463Z,,0,2,,2816.652000008966,response,ISIC_0063070.JPG,6,ISIC_0032187.JPG,ISIC_0032187.JPG,false,0,keypress(z),500,477645.299999997,477645.10000000894,474811.781,474814.90000000596,474828.448,477662.406,8,400,35,,ISIC_0063070.JPG
break,html.Screen,4_84_1,2023-09-17T01:56:17.464Z,,0,,,NaN,,,,,,false,,,,477646.10000000894,477645.799999997,,477645.5,,477662.406,8,400,,,
break_continue,html.Screen,4_84_2,2023-09-17T01:56:17.464Z,,0,,,NaN,,,,,,false,,,,477646.5,477646.40000000596,,477646.200000003,,477662.406,8,400,,,
sequence,flow.Sequence,4_84,2023-09-17T01:56:17.465Z,,0,,,2817.9520000059856,completion,,,,,false,,,,477646.799999997,477646.40000000596,474811.781,474814.90000000596,474828.448,477662.406,8,400,,,
trial,html.Screen,4_85_0,2023-09-17T01:56:21.270Z,,0,2,,3790.0939999999828,response,ISIC_6487809.JPG,8,ISIC_0013719.JPG,ISIC_6487809.JPG,false,1,keypress(m),500,481452.799999997,481452.5,477645.739,477646.90000000596,477662.406,481462.482,8,400,36,,ISIC_0013719.JPG
break,html.Screen,4_85_1,2023-09-17T01:56:21.271Z,,0,,,NaN,,,,,,false,,,,481453.5,481453.299999997,,481453,,481462.482,8,400,,,
break_continue,html.Screen,4_85_2,2023-09-17T01:56:21.272Z,,0,,,NaN,,,,,,false,,,,481454,481453.799999997,,481453.700000003,,481462.482,8,400,,,
sequence,flow.Sequence,4_85,2023-09-17T01:56:21.272Z,,0,,,3791.3939999970025,completion,,,,,false,,,,481454.200000003,481453.799999997,477645.739,477646.799999997,477662.406,481462.482,8,400,,,
trial,html.Screen,4_86_0,2023-09-17T01:56:23.980Z,,0,2,,2700.218000002962,response,ISIC_7503950.JPG,8,ISIC_0033998.JPG,ISIC_0033998.JPG,false,0,keypress(z),500,484163,484162.700000003,481445.815,481454.40000000596,481462.482,484179.203,8,400,37,,ISIC_7503950.JPG
break,html.Screen,4_86_1,2023-09-17T01:56:23.981Z,,0,,,NaN,,,,,,false,,,,484163.799999997,484163.60000000894,,484163.200000003,,484179.203,8,400,,,
break_continue,html.Screen,4_86_2,2023-09-17T01:56:23.982Z,,0,,,NaN,,,,,,false,,,,484164.200000003,484164.10000000894,,484163.90000000596,,484179.203,8,400,,,
sequence,flow.Sequence,4_86,2023-09-17T01:56:23.982Z,,0,,,2701.6180000089225,completion,,,,,false,,,,484164.40000000596,484164.10000000894,481445.815,481454.299999997,481462.482,484179.203,8,400,,,
trial,html.Screen,4_87_0,2023-09-17T01:56:27.010Z,,0,2,,3013.697000005981,response,ISIC_0056793.JPG,8,ISIC_0005769.JPG,ISIC_0005769.JPG,false,0,keypress(z),500,487193.10000000894,487192.90000000596,484162.536,484164.60000000894,484179.203,487196.382,8,400,38,,ISIC_0056793.JPG
break,html.Screen,4_87_1,2023-09-17T01:56:27.011Z,,0,,,NaN,,,,,,false,,,,487193.90000000596,487193.60000000894,,487193.40000000596,,487196.382,8,400,,,
break_continue,html.Screen,4_87_2,2023-09-17T01:56:27.012Z,,0,,,NaN,,,,,,false,,,,487194.299999997,487194,,487193.90000000596,,487196.382,8,400,,,
sequence,flow.Sequence,4_87,2023-09-17T01:56:27.012Z,,0,,,3014.7970000000205,completion,,,,,false,,,,487194.40000000596,487194,484162.536,484164.60000000894,484179.203,487196.382,8,400,,,
trial,html.Screen,4_88_0,2023-09-17T01:56:29.672Z,,0,2,,2658.4179999970365,response,ISIC_7198887.JPG,6,ISIC_7131359.JPG,ISIC_7198887.JPG,false,1,keypress(m),500,489855,489854.799999997,487179.715,487194.5,487196.382,489863.102,8,400,39,,ISIC_7131359.JPG
break,html.Screen,4_88_1,2023-09-17T01:56:29.673Z,,0,,,NaN,,,,,,false,,,,489855.700000003,489855.5,,489855.299999997,,489863.102,8,400,,,
break_continue,html.Screen,4_88_2,2023-09-17T01:56:29.673Z,,0,,,NaN,,,,,,false,,,,489856,489855.90000000596,,489855.799999997,,489863.102,8,400,,,
sequence,flow.Sequence,4_88,2023-09-17T01:56:29.673Z,,0,,,2659.5180000059772,completion,,,,,false,,,,489856.200000003,489855.90000000596,487179.715,487194.40000000596,487196.382,489863.102,8,400,,,
trial,html.Screen,4_89_0,2023-09-17T01:56:32.742Z,,0,2,,3061.3979999999865,response,ISIC_8765068.JPG,6,ISIC_0054770.JPG,ISIC_8765068.JPG,false,1,keypress(m),500,492924.700000003,492924.5,489846.435,489856.299999997,489863.102,492929.83,8,400,40,,ISIC_0054770.JPG
break,html.Screen,4_89_1,2023-09-17T01:56:32.742Z,,0,,,NaN,,,,,,false,,,,492925.5,492925.200000003,,492925,,492929.83,8,400,,,
break_continue,html.Screen,4_89_2,2023-09-17T01:56:32.743Z,,0,,,NaN,,,,,,false,,,,492925.799999997,492925.700000003,,492925.5,,492929.83,8,400,,,
sequence,flow.Sequence,4_89,2023-09-17T01:56:32.743Z,,0,,,3062.5980000029667,completion,,,,,false,,,,492926,492925.700000003,489846.435,489856.299999997,489863.102,492929.83,8,400,,,
trial,html.Screen,4_90_0,2023-09-17T01:56:35.516Z,,0,2,,2768.7700000089244,response,ISIC_0028129.JPG,7,ISIC_0033496.JPG,ISIC_0028129.JPG,false,1,keypress(m),500,495698.799999997,495698.60000000894,492913.163,492926.200000003,492929.83,495713.219,8,400,41,,ISIC_0033496.JPG
break,html.Screen,4_90_1,2023-09-17T01:56:35.516Z,,0,,,NaN,,,,,,false,,,,495699.5,495699.200000003,,495699,,495713.219,8,400,,,
break_continue,html.Screen,4_90_2,2023-09-17T01:56:35.517Z,,0,,,NaN,,,,,,false,,,,495699.90000000596,495699.799999997,,495699.60000000894,,495713.219,8,400,,,
sequence,flow.Sequence,4_90,2023-09-17T01:56:35.517Z,,0,,,2769.9699999970035,completion,,,,,false,,,,495700,495699.799999997,492913.163,492926.10000000894,492929.83,495713.219,8,400,,,
trial,html.Screen,4_91_0,2023-09-17T01:56:38.143Z,,0,2,,2612.6810000059777,response,ISIC_2987613.JPG,7,ISIC_8150108.JPG,ISIC_8150108.JPG,false,0,keypress(z),500,498326.200000003,498325.90000000596,495696.552,495700.200000003,495713.219,498330.462,8,400,42,,ISIC_2987613.JPG
break,html.Screen,4_91_1,2023-09-17T01:56:38.144Z,,0,,,NaN,,,,,,false,,,,498327,498326.60000000894,,498326.40000000596,,498330.462,8,400,,,
break_continue,html.Screen,4_91_2,2023-09-17T01:56:38.144Z,,0,,,NaN,,,,,,false,,,,498327.299999997,498327.200000003,,498327,,498330.462,8,400,,,
sequence,flow.Sequence,4_91,2023-09-17T01:56:38.144Z,,0,,,2613.9810000029975,completion,,,,,false,,,,498327.60000000894,498327.200000003,495696.552,495700.10000000894,495713.219,498330.462,8,400,,,
trial,html.Screen,4_92_0,2023-09-17T01:56:40.636Z,,0,2,,2488.8379999970202,response,ISIC_8749288.JPG,6,ISIC_4326917.JPG,ISIC_8749288.JPG,false,1,keypress(m),500,500819.60000000894,500819.299999997,498313.795,498327.700000003,498330.462,500830.512,8,400,43,,ISIC_4326917.JPG
break,html.Screen,4_92_1,2023-09-17T01:56:40.637Z,,0,,,NaN,,,,,,false,,,,500820.299999997,500820.10000000894,,500819.799999997,,500830.512,8,400,,,
break_continue,html.Screen,4_92_2,2023-09-17T01:56:40.637Z,,0,,,NaN,,,,,,false,,,,500820.700000003,500820.60000000894,,500820.40000000596,,500830.512,8,400,,,
sequence,flow.Sequence,4_92,2023-09-17T01:56:40.637Z,,0,,,2490.138000008941,completion,,,,,false,,,,500821,500820.60000000894,498313.795,498327.700000003,498330.462,500830.512,8,400,,,
trial,html.Screen,4_93_0,2023-09-17T01:56:43.393Z,,0,2,,2746.1880000029923,response,ISIC_8325569.JPG,7,ISIC_0032342.JPG,ISIC_8325569.JPG,false,1,keypress(m),500,503577,503576.700000003,500813.845,500821.200000003,500830.512,503580.567,8,400,44,,ISIC_0032342.JPG
break,html.Screen,4_93_1,2023-09-17T01:56:43.394Z,,0,,,NaN,,,,,,false,,,,503577.90000000596,503577.5,,503577.200000003,,503580.567,8,400,,,
break_continue,html.Screen,4_93_2,2023-09-17T01:56:43.395Z,,0,,,NaN,,,,,,false,,,,503578.299999997,503578.200000003,,503578.10000000894,,503580.567,8,400,,,
sequence,flow.Sequence,4_93,2023-09-17T01:56:43.395Z,,0,,,2747.6880000029923,completion,,,,,false,,,,503578.5,503578.200000003,500813.845,500821,500830.512,503580.567,8,400,,,
trial,html.Screen,4_94_0,2023-09-17T01:56:47.116Z,,0,2,,3719.03300000896,response,ISIC_7650369.JPG,6,ISIC_5157775.JPG,ISIC_5157775.JPG,false,0,keypress(z),500,507299.799999997,507299.60000000894,503563.9,503578.799999997,503580.567,507314.438,8,400,45,,ISIC_7650369.JPG
break,html.Screen,4_94_1,2023-09-17T01:56:47.117Z,,0,,,NaN,,,,,,false,,,,507300.700000003,507300.40000000596,,507300,,507314.438,8,400,,,
break_continue,html.Screen,4_94_2,2023-09-17T01:56:47.117Z,,0,,,NaN,,,,,,false,,,,507301.10000000894,507300.90000000596,,507300.90000000596,,507314.438,8,400,,,
sequence,flow.Sequence,4_94,2023-09-17T01:56:47.117Z,,0,,,3720.3330000059796,completion,,,,,false,,,,507301.299999997,507300.90000000596,503563.9,503578.700000003,503580.567,507314.438,8,400,,,
trial,html.Screen,4_95_0,2023-09-17T01:56:50.355Z,,0,2,,3224.861999996996,response,ISIC_0064023.JPG,5,ISIC_4882389.JPG,ISIC_4882389.JPG,false,0,keypress(z),500,510539.60000000894,510539.299999997,507297.771,507301.5,507314.438,510547.836,8,400,46,,ISIC_0064023.JPG
break,html.Screen,4_95_1,2023-09-17T01:56:50.356Z,,0,,,NaN,,,,,,false,,,,510540.40000000596,510540.200000003,,510539.799999997,,510547.836,8,400,,,
break_continue,html.Screen,4_95_2,2023-09-17T01:56:50.357Z,,0,,,NaN,,,,,,false,,,,510540.799999997,510540.700000003,,510540.60000000894,,510547.836,8,400,,,
sequence,flow.Sequence,4_95,2023-09-17T01:56:50.357Z,,0,,,3226.2620000029565,completion,,,,,false,,,,510541,510540.700000003,507297.771,507301.5,507314.438,510547.836,8,400,,,
trial,html.Screen,4_96_0,2023-09-17T01:56:53.203Z,,0,2,,2839.1639999999898,response,ISIC_0033174.JPG,8,ISIC_0567814.JPG,ISIC_0567814.JPG,false,0,keypress(z),500,513387.299999997,513387,510531.169,510541.299999997,510547.836,513397.893,8,400,47,,ISIC_0033174.JPG
break,html.Screen,4_96_1,2023-09-17T01:56:53.204Z,,0,,,NaN,,,,,,false,,,,513388,513387.90000000596,,513387.5,,513397.893,8,400,,,
break_continue,html.Screen,4_96_2,2023-09-17T01:56:53.204Z,,0,,,NaN,,,,,,false,,,,513388.60000000894,513388.40000000596,,513388.299999997,,513397.893,8,400,,,
sequence,flow.Sequence,4_96,2023-09-17T01:56:53.205Z,,0,,,2840.56400000595,completion,,,,,false,,,,513388.799999997,513388.40000000596,510531.169,510541.200000003,510547.836,513397.893,8,400,,,
trial,html.Screen,4_97_0,2023-09-17T01:56:56.058Z,,0,2,,2844.406999997038,response,ISIC_0012298.JPG,7,ISIC_0011313.JPG,ISIC_0012298.JPG,false,1,keypress(m),500,516242.5,516242.299999997,513381.226,513389,513397.893,516247.95,8,400,48,,ISIC_0011313.JPG
break,html.Screen,4_97_1,2023-09-17T01:56:56.059Z,,0,,,NaN,,,,,,false,,,,516243.40000000596,516243.200000003,,516242.799999997,,516247.95,8,400,,,
break_continue,html.Screen,4_97_2,2023-09-17T01:56:56.059Z,,0,,,NaN,,,,,,false,,,,516243.799999997,516243.700000003,,516243.5,,516247.95,8,400,,,
sequence,flow.Sequence,4_97,2023-09-17T01:56:56.060Z,,0,,,2845.8070000029984,completion,,,,,false,,,,516244.10000000894,516243.700000003,513381.226,513389,513397.893,516247.95,8,400,,,
trial,html.Screen,4_98_0,2023-09-17T01:56:59.086Z,,0,2,,3022.349999997008,response,ISIC_2440407.JPG,7,ISIC_6570611.JPG,ISIC_6570611.JPG,false,0,keypress(z),500,519270.60000000894,519270.299999997,516231.283,516244.200000003,516247.95,519281.929,8,400,49,,ISIC_2440407.JPG
break,html.Screen,4_98_1,2023-09-17T01:56:59.087Z,,0,,,NaN,,,,,,false,,,,519271.299999997,519271.10000000894,,519270.700000003,,519281.929,8,400,,,
break_continue,html.Screen,4_98_2,2023-09-17T01:56:59.087Z,,0,,,NaN,,,,,,false,,,,519271.700000003,519271.60000000894,,519271.5,,519281.929,8,400,,,
sequence,flow.Sequence,4_98,2023-09-17T01:56:59.087Z,,0,,,3023.650000008929,completion,,,,,false,,,,519272,519271.60000000894,516231.283,516244.10000000894,516247.95,519281.929,8,400,,,
trial,html.Screen,4_99_0,2023-09-17T01:57:02.339Z,,0,2,,3242.171000008937,response,ISIC_9745038.JPG,6,ISIC_0009048.JPG,ISIC_0009048.JPG,false,0,keypress(z),500,522524.299999997,522524.10000000894,519265.262,519272.10000000894,519281.929,522531.994,8,400,50,,ISIC_9745038.JPG
break,html.Screen,4_99_1,2023-09-17T01:57:12.334Z,,0,,,10000.708000000042,timeout,,,,,false,,,,532519.299999997,532516.035,522515.327,522524.5,522531.994,532532.702,8,400,,,
break_continue,html.Screen,4_99_2,2023-09-17T01:57:14.995Z,,0,,,2617.998000002932,response,,,,,false,continue,keypress(Space),,535181,535150.700000003,532516.035,532519.6000000089,532532.702,535182.755,8,400,,,
sequence,flow.Sequence,4_99,2023-09-17T01:57:14.995Z,,0,,,15868.771000002977,completion,,,,,false,,,,535181.1000000089,535150.700000003,519265.262,519272.10000000894,519281.929,535182.755,8,400,,,
trial,html.Screen,4_100_0,2023-09-17T01:57:18.602Z,,0,3,,3604.645000005956,response,ISIC_7519557.JPG,7,ISIC_6356522.JPG,ISIC_6356522.JPG,false,0,keypress(z),500,538787.700000003,538787.400000006,535166.088,535181.200000003,535182.755,538800.044,8,400,1,,ISIC_7519557.JPG
break,html.Screen,4_100_1,2023-09-17T01:57:18.603Z,,0,,,NaN,,,,,,false,,,,538788.400000006,538788.200000003,,538787.900000006,,538800.044,8,400,,,
break_continue,html.Screen,4_100_2,2023-09-17T01:57:18.603Z,,0,,,NaN,,,,,,false,,,,538788.900000006,538788.700000003,,538788.6000000089,,538800.044,8,400,,,
sequence,flow.Sequence,4_100,2023-09-17T01:57:18.603Z,,0,,,3605.9450000029756,completion,,,,,false,,,,538789,538788.700000003,535166.088,535181.200000003,535182.755,538800.044,8,400,,,
trial,html.Screen,4_101_0,2023-09-17T01:57:22.141Z,,0,3,,3527.156000002986,response,ISIC_6381785.JPG,8,ISIC_0072773.JPG,ISIC_0072773.JPG,false,0,keypress(z),500,542327.5,542327.200000003,538783.377,538789.200000003,538800.044,542333.448,8,400,2,,ISIC_6381785.JPG
break,html.Screen,4_101_1,2023-09-17T01:57:22.142Z,,0,,,NaN,,,,,,false,,,,542328.200000003,542328,,542327.700000003,,542333.448,8,400,,,
break_continue,html.Screen,4_101_2,2023-09-17T01:57:22.143Z,,0,,,NaN,,,,,,false,,,,542328.799999997,542328.6000000089,,542328.5,,542333.448,8,400,,,
sequence,flow.Sequence,4_101,2023-09-17T01:57:22.143Z,,0,,,3528.5560000089463,completion,,,,,false,,,,542329.1000000089,542328.6000000089,538783.377,538789.200000003,538800.044,542333.448,8,400,,,
trial,html.Screen,4_102_0,2023-09-17T01:57:24.786Z,,0,3,,2638.4520000059856,response,ISIC_0026516.JPG,8,ISIC_0060999.JPG,ISIC_0026516.JPG,false,1,keypress(m),500,544972.200000003,544971.900000006,542316.781,542329.299999997,542333.448,544983.501,8,400,3,,ISIC_0060999.JPG
break,html.Screen,4_102_1,2023-09-17T01:57:24.787Z,,0,,,NaN,,,,,,false,,,,544973,544972.700000003,,544972.400000006,,544983.501,8,400,,,
break_continue,html.Screen,4_102_2,2023-09-17T01:57:24.787Z,,0,,,NaN,,,,,,false,,,,544973.400000006,544973.200000003,,544973.1000000089,,544983.501,8,400,,,
sequence,flow.Sequence,4_102,2023-09-17T01:57:24.787Z,,0,,,2639.7520000030054,completion,,,,,false,,,,544973.6000000089,544973.200000003,542316.781,542329.200000003,542333.448,544983.501,8,400,,,
trial,html.Screen,4_103_0,2023-09-17T01:57:27.414Z,,0,3,,2616.399000005913,response,ISIC_6766153.JPG,7,ISIC_0032133.JPG,ISIC_6766153.JPG,false,1,keypress(m),500,547600,547599.900000006,544966.834,544973.700000003,544983.501,547616.887,8,400,4,,ISIC_0032133.JPG
break,html.Screen,4_103_1,2023-09-17T01:57:27.415Z,,0,,,NaN,,,,,,false,,,,547600.900000006,547600.6000000089,,547600.299999997,,547616.887,8,400,,,
break_continue,html.Screen,4_103_2,2023-09-17T01:57:27.415Z,,0,,,NaN,,,,,,false,,,,547601.299999997,547601.200000003,,547601,,547616.887,8,400,,,
sequence,flow.Sequence,4_103,2023-09-17T01:57:27.415Z,,0,,,2617.6990000029327,completion,,,,,false,,,,547601.6000000089,547601.200000003,544966.834,544973.700000003,544983.501,547616.887,8,400,,,
trial,html.Screen,4_104_0,2023-09-17T01:57:30.171Z,,0,3,,2739.8130000029923,response,ISIC_3452564.JPG,8,ISIC_0028616.JPG,ISIC_0028616.JPG,false,0,keypress(z),500,550357,550356.700000003,547600.22,547601.700000003,547616.887,550367.444,8,400,5,,ISIC_3452564.JPG
break,html.Screen,4_104_1,2023-09-17T01:57:30.171Z,,0,,,NaN,,,,,,false,,,,550357.700000003,550357.5,,550357.200000003,,550367.444,8,400,,,
break_continue,html.Screen,4_104_2,2023-09-17T01:57:30.172Z,,0,,,NaN,,,,,,false,,,,550358.200000003,550358,,550357.900000006,,550367.444,8,400,,,
sequence,flow.Sequence,4_104,2023-09-17T01:57:30.172Z,,0,,,2741.113000000012,completion,,,,,false,,,,550358.400000006,550358,547600.22,547601.700000003,547616.887,550367.444,8,400,,,
trial,html.Screen,4_105_0,2023-09-17T01:57:32.878Z,,0,3,,2696.855999997002,response,ISIC_0025744.JPG,8,ISIC_5867911.JPG,ISIC_0025744.JPG,false,1,keypress(m),500,553064.6000000089,553064.299999997,550350.777,550358.6000000089,550367.444,553067.498,8,400,6,,ISIC_5867911.JPG
break,html.Screen,4_105_1,2023-09-17T01:57:32.879Z,,0,,,NaN,,,,,,false,,,,553065.299999997,553065.200000003,,553064.700000003,,553067.498,8,400,,,
break_continue,html.Screen,4_105_2,2023-09-17T01:57:32.879Z,,0,,,NaN,,,,,,false,,,,553065.799999997,553065.6000000089,,553065.400000006,,553067.498,8,400,,,
sequence,flow.Sequence,4_105,2023-09-17T01:57:32.879Z,,0,,,2698.156000008923,completion,,,,,false,,,,553066,553065.6000000089,550350.777,550358.5,550367.444,553067.498,8,400,,,
trial,html.Screen,4_106_0,2023-09-17T01:57:35.817Z,,0,3,,2936.1020000089193,response,ISIC_0027636.JPG,7,ISIC_0031127.JPG,ISIC_0031127.JPG,false,0,keypress(z),500,556003.799999997,556003.6000000089,553050.831,553066.1000000089,553067.498,556017.557,8,400,7,,ISIC_0027636.JPG
break,html.Screen,4_106_1,2023-09-17T01:57:35.818Z,,0,,,NaN,,,,,,false,,,,556004.6000000089,556004.400000006,,556004,,556017.557,8,400,,,
break_continue,html.Screen,4_106_2,2023-09-17T01:57:35.818Z,,0,,,NaN,,,,,,false,,,,556005.1000000089,556004.900000006,,556004.799999997,,556017.557,8,400,,,
sequence,flow.Sequence,4_106,2023-09-17T01:57:35.818Z,,0,,,2937.402000005939,completion,,,,,false,,,,556005.299999997,556004.900000006,553050.831,553066.1000000089,553067.498,556017.557,8,400,,,
trial,html.Screen,4_107_0,2023-09-17T01:57:41.065Z,,0,3,,5234.543000008911,response,ISIC_4120174.JPG,7,ISIC_1640823.JPG,ISIC_1640823.JPG,false,0,keypress(z),500,561252.299999997,561252.1000000089,556000.89,556005.5,556017.557,561268.242,8,400,8,,ISIC_4120174.JPG
break,html.Screen,4_107_1,2023-09-17T01:57:41.066Z,,0,,,NaN,,,,,,false,,,,561253.1000000089,561252.900000006,,561252.5,,561268.242,8,400,,,
break_continue,html.Screen,4_107_2,2023-09-17T01:57:41.066Z,,0,,,NaN,,,,,,false,,,,561253.5,561253.400000006,,561253.299999997,,561268.242,8,400,,,
sequence,flow.Sequence,4_107,2023-09-17T01:57:41.067Z,,0,,,5235.843000005931,completion,,,,,false,,,,561253.799999997,561253.400000006,556000.89,556005.400000006,556017.557,561268.242,8,400,,,
trial,html.Screen,4_108_0,2023-09-17T01:57:44.638Z,,0,3,,3556.8580000089714,response,ISIC_8621568.JPG,8,ISIC_5309814.JPG,ISIC_5309814.JPG,false,0,keypress(z),500,564825.400000006,564825.1000000089,561251.575,561253.900000006,561268.242,564834.98,8,400,9,,ISIC_8621568.JPG
break,html.Screen,4_108_1,2023-09-17T01:57:44.639Z,,0,,,NaN,,,,,,false,,,,564826.400000006,564826.1000000089,,564825.700000003,,564834.98,8,400,,,
break_continue,html.Screen,4_108_2,2023-09-17T01:57:44.639Z,,0,,,NaN,,,,,,false,,,,564826.700000003,564826.6000000089,,564826.400000006,,564834.98,8,400,,,
sequence,flow.Sequence,4_108,2023-09-17T01:57:44.640Z,,0,,,3558.3580000089714,completion,,,,,false,,,,564827,564826.6000000089,561251.575,561253.900000006,561268.242,564834.98,8,400,,,
trial,html.Screen,4_109_0,2023-09-17T01:57:47.474Z,,0,3,,2826.720000002999,response,ISIC_0064943.JPG,6,ISIC_2839431.JPG,ISIC_2839431.JPG,false,0,keypress(z),500,567661.900000006,567661.700000003,564818.313,564827.200000003,564834.98,567668.37,8,400,10,,ISIC_0064943.JPG
break,html.Screen,4_109_1,2023-09-17T01:57:47.475Z,,0,,,NaN,,,,,,false,,,,567662.700000003,567662.400000006,,567662.1000000089,,567668.37,8,400,,,
break_continue,html.Screen,4_109_2,2023-09-17T01:57:47.476Z,,0,,,NaN,,,,,,false,,,,567663.1000000089,567662.900000006,,567662.799999997,,567668.37,8,400,,,
sequence,flow.Sequence,4_109,2023-09-17T01:57:47.476Z,,0,,,2827.920000005979,completion,,,,,false,,,,567663.299999997,567662.900000006,564818.313,564827.1000000089,564834.98,567668.37,8,400,,,
trial,html.Screen,4_110_0,2023-09-17T01:57:50.574Z,,0,3,,2999.7300000089454,response,ISIC_3582787.JPG,7,ISIC_0012047.JPG,ISIC_3582787.JPG,false,1,keypress(m),500,570668.5,570668.1000000089,567651.703,567663.5,567668.37,570685.097,8,400,11,,ISIC_0012047.JPG
break,html.Screen,4_110_1,2023-09-17T01:57:50.575Z,,0,,,NaN,,,,,,false,,,,570669.200000003,570669,,570668.6000000089,,570685.097,8,400,,,
break_continue,html.Screen,4_110_2,2023-09-17T01:57:50.575Z,,0,,,NaN,,,,,,false,,,,570669.799999997,570669.5,,570669.400000006,,570685.097,8,400,,,
sequence,flow.Sequence,4_110,2023-09-17T01:57:50.575Z,,0,,,3001.1300000000047,completion,,,,,false,,,,570669.900000006,570669.5,567651.703,567663.400000006,567668.37,570685.097,8,400,,,
trial,html.Screen,4_111_0,2023-09-17T01:57:53.731Z,,0,3,,3140.1030000030296,response,ISIC_5150200.JPG,9,ISIC_5599298.JPG,ISIC_5599298.JPG,false,0,keypress(z),500,573825.5,573825.200000003,570668.43,570670.1000000089,570685.097,573835.656,8,400,12,,ISIC_5150200.JPG
break,html.Screen,4_111_1,2023-09-17T01:57:53.732Z,,0,,,NaN,,,,,,false,,,,573826.200000003,573826,,573825.700000003,,573835.656,8,400,,,
break_continue,html.Screen,4_111_2,2023-09-17T01:57:53.732Z,,0,,,NaN,,,,,,false,,,,573826.6000000089,573826.5,,573826.299999997,,573835.656,8,400,,,
sequence,flow.Sequence,4_111,2023-09-17T01:57:53.732Z,,0,,,3141.4030000000494,completion,,,,,false,,,,573826.799999997,573826.5,570668.43,570670.1000000089,570685.097,573835.656,8,400,,,
trial,html.Screen,4_112_0,2023-09-17T01:57:56.743Z,,0,3,,3001.544000003021,response,ISIC_9045601.JPG,9,ISIC_6357263.JPG,ISIC_6357263.JPG,false,0,keypress(z),500,576837.400000006,576837.200000003,573818.989,573827,573835.656,576852.383,8,400,13,,ISIC_9045601.JPG
break,html.Screen,4_112_1,2023-09-17T01:57:56.744Z,,0,,,NaN,,,,,,false,,,,576838.200000003,576837.900000006,,576837.6000000089,,576852.383,8,400,,,
break_continue,html.Screen,4_112_2,2023-09-17T01:57:56.744Z,,0,,,NaN,,,,,,false,,,,576838.6000000089,576838.400000006,,576838.400000006,,576852.383,8,400,,,
sequence,flow.Sequence,4_112,2023-09-17T01:57:56.744Z,,0,,,3002.7440000060014,completion,,,,,false,,,,576838.799999997,576838.400000006,573818.989,573827,573835.656,576852.383,8,400,,,
trial,html.Screen,4_113_0,2023-09-17T01:58:00.662Z,,0,3,,3903.916999996989,response,ISIC_8650269.JPG,6,ISIC_0013501.JPG,ISIC_8650269.JPG,false,1,keypress(m),500,580756.5,580756.299999997,576835.716,576839,576852.383,580769.128,8,400,14,,ISIC_0013501.JPG
break,html.Screen,4_113_1,2023-09-17T01:58:00.663Z,,0,,,NaN,,,,,,false,,,,580757.299999997,580757.1000000089,,580756.799999997,,580769.128,8,400,,,
break_continue,html.Screen,4_113_2,2023-09-17T01:58:00.663Z,,0,,,NaN,,,,,,false,,,,580757.799999997,580757.6000000089,,580757.400000006,,580769.128,8,400,,,
sequence,flow.Sequence,4_113,2023-09-17T01:58:00.664Z,,0,,,3905.21700000891,completion,,,,,false,,,,580758,580757.6000000089,576835.716,576838.900000006,576852.383,580769.128,8,400,,,
trial,html.Screen,4_114_0,2023-09-17T01:58:03.517Z,,0,3,,2842.1719999969937,response,ISIC_0070217.JPG,9,ISIC_0055911.JPG,ISIC_0055911.JPG,false,0,keypress(z),500,583611.400000006,583611.299999997,580752.461,580758.200000003,580769.128,583619.684,8,400,15,,ISIC_0070217.JPG
break,html.Screen,4_114_1,2023-09-17T01:58:03.518Z,,0,,,NaN,,,,,,false,,,,583612.1000000089,583611.900000006,,583611.6000000089,,583619.684,8,400,,,
break_continue,html.Screen,4_114_2,2023-09-17T01:58:03.518Z,,0,,,NaN,,,,,,false,,,,583612.400000006,583612.400000006,,583612.200000003,,583619.684,8,400,,,
sequence,flow.Sequence,4_114,2023-09-17T01:58:03.518Z,,0,,,2843.2720000059344,completion,,,,,false,,,,583612.700000003,583612.400000006,580752.461,580758.1000000089,580769.128,583619.684,8,400,,,
trial,html.Screen,4_115_0,2023-09-17T01:58:06.145Z,,0,3,,2619.1159999970114,response,ISIC_3065032.JPG,8,ISIC_9442018.JPG,ISIC_3065032.JPG,false,1,keypress(m),500,586239,586238.799999997,583603.017,583612.799999997,583619.684,586253.07,8,400,16,,ISIC_9442018.JPG
break,html.Screen,4_115_1,2023-09-17T01:58:06.146Z,,0,,,NaN,,,,,,false,,,,586240.1000000089,586239.799999997,,586239.400000006,,586253.07,8,400,,,
break_continue,html.Screen,4_115_2,2023-09-17T01:58:06.147Z,,0,,,NaN,,,,,,false,,,,586240.700000003,586240.5,,586240.299999997,,586253.07,8,400,,,
sequence,flow.Sequence,4_115,2023-09-17T01:58:06.147Z,,0,,,2620.8159999999916,completion,,,,,false,,,,586241,586240.5,583603.017,583612.799999997,583619.684,586253.07,8,400,,,
trial,html.Screen,4_116_0,2023-09-17T01:58:08.830Z,,0,3,,2670.530000008992,response,ISIC_0059597.JPG,5,ISIC_8957571.JPG,ISIC_8957571.JPG,false,0,keypress(z),500,588923.799999997,588923.6000000089,586236.403,586241.299999997,586253.07,588936.457,8,400,17,,ISIC_0059597.JPG
break,html.Screen,4_116_1,2023-09-17T01:58:08.831Z,,0,,,NaN,,,,,,false,,,,588924.6000000089,588924.400000006,,588924.1000000089,,588936.457,8,400,,,
break_continue,html.Screen,4_116_2,2023-09-17T01:58:08.831Z,,0,,,NaN,,,,,,false,,,,588925,588924.900000006,,588924.700000003,,588936.457,8,400,,,
sequence,flow.Sequence,4_116,2023-09-17T01:58:08.831Z,,0,,,2671.8300000060117,completion,,,,,false,,,,588925.200000003,588924.900000006,586236.403,586241.1000000089,586253.07,588936.457,8,400,,,
trial,html.Screen,4_117_0,2023-09-17T01:58:11.411Z,,0,3,,2568.4430000059074,response,ISIC_3727059.JPG,8,ISIC_0063026.JPG,ISIC_3727059.JPG,false,1,keypress(m),500,591505.200000003,591504.900000006,588919.79,588925.299999997,588936.457,591520.343,8,400,18,,ISIC_0063026.JPG
break,html.Screen,4_117_1,2023-09-17T01:58:11.412Z,,0,,,NaN,,,,,,false,,,,591506.1000000089,591505.900000006,,591505.5,,591520.343,8,400,,,
break_continue,html.Screen,4_117_2,2023-09-17T01:58:11.413Z,,0,,,NaN,,,,,,false,,,,591506.6000000089,591506.5,,591506.299999997,,591520.343,8,400,,,
sequence,flow.Sequence,4_117,2023-09-17T01:58:11.413Z,,0,,,2570.042999999947,completion,,,,,false,,,,591506.799999997,591506.5,588919.79,588925.299999997,588936.457,591520.343,8,400,,,
trial,html.Screen,4_118_0,2023-09-17T01:58:14.894Z,,0,3,,3467.057000005967,response,ISIC_0059257.JPG,6,ISIC_0030969.JPG,ISIC_0059257.JPG,false,1,keypress(m),500,594987.5,594987.400000006,591503.676,591507,591520.343,595003.746,8,400,19,,ISIC_0030969.JPG
break,html.Screen,4_118_1,2023-09-17T01:58:14.895Z,,0,,,NaN,,,,,,false,,,,594988.5,594988.200000003,,594987.799999997,,595003.746,8,400,,,
break_continue,html.Screen,4_118_2,2023-09-17T01:58:14.895Z,,0,,,NaN,,,,,,false,,,,594989,594988.799999997,,594988.700000003,,595003.746,8,400,,,
sequence,flow.Sequence,4_118,2023-09-17T01:58:14.895Z,,0,,,3468.4569999970263,completion,,,,,false,,,,594989.200000003,594988.799999997,591503.676,591506.900000006,591520.343,595003.746,8,400,,,
trial,html.Screen,4_119_0,2023-09-17T01:58:18.418Z,,0,3,,3507.854000008898,response,ISIC_4015508.JPG,7,ISIC_0030156.JPG,ISIC_4015508.JPG,false,1,keypress(m),500,598511.900000006,598511.6000000089,594987.079,594989.400000006,595003.746,598520.483,8,400,20,,ISIC_0030156.JPG
break,html.Screen,4_119_1,2023-09-17T01:58:18.419Z,,0,,,NaN,,,,,,false,,,,598512.5,598512.299999997,,598512.1000000089,,598520.483,8,400,,,
break_continue,html.Screen,4_119_2,2023-09-17T01:58:18.419Z,,0,,,NaN,,,,,,false,,,,598513,598512.900000006,,598512.799999997,,598520.483,8,400,,,
sequence,flow.Sequence,4_119,2023-09-17T01:58:18.419Z,,0,,,3509.1540000059176,completion,,,,,false,,,,598513.200000003,598512.900000006,594987.079,594989.299999997,595003.746,598520.483,8,400,,,
trial,html.Screen,4_120_0,2023-09-17T01:58:21.830Z,,0,3,,3403.217000002973,response,ISIC_0887530.JPG,7,ISIC_0031021.JPG,ISIC_0887530.JPG,false,1,keypress(m),500,601924,601923.700000003,598503.816,598513.299999997,598520.483,601937.735,8,400,21,,ISIC_0031021.JPG
break,html.Screen,4_120_1,2023-09-17T01:58:21.831Z,,0,,,NaN,,,,,,false,,,,601924.799999997,601924.5,,601924.200000003,,601937.735,8,400,,,
break_continue,html.Screen,4_120_2,2023-09-17T01:58:21.832Z,,0,,,NaN,,,,,,false,,,,601925.200000003,601925.1000000089,,601924.900000006,,601937.735,8,400,,,
sequence,flow.Sequence,4_120,2023-09-17T01:58:21.832Z,,0,,,3404.6170000089332,completion,,,,,false,,,,601925.400000006,601925.1000000089,598503.816,598513.299999997,598520.483,601937.735,8,400,,,
trial,html.Screen,4_121_0,2023-09-17T01:58:24.728Z,,0,3,,2883.1650000059744,response,ISIC_0029868.JPG,7,ISIC_0027095.JPG,ISIC_0029868.JPG,false,1,keypress(m),500,604821.1000000089,604820.900000006,601921.068,601925.5,601937.735,604837.793,8,400,22,,ISIC_0027095.JPG
break,html.Screen,4_121_1,2023-09-17T01:58:24.728Z,,0,,,NaN,,,,,,false,,,,604821.900000006,604821.6000000089,,604821.299999997,,604837.793,8,400,,,
break_continue,html.Screen,4_121_2,2023-09-17T01:58:24.729Z,,0,,,NaN,,,,,,false,,,,604822.299999997,604822.200000003,,604822,,604837.793,8,400,,,
sequence,flow.Sequence,4_121,2023-09-17T01:58:24.729Z,,0,,,2884.465000002994,completion,,,,,false,,,,604822.6000000089,604822.200000003,601921.068,601925.5,601937.735,604837.793,8,400,,,
trial,html.Screen,4_122_0,2023-09-17T01:58:27.805Z,,0,3,,3060.307000008994,response,ISIC_0055911.JPG,7,ISIC_2354070.JPG,ISIC_2354070.JPG,false,0,keypress(z),500,607898.400000006,607898.1000000089,604821.126,604822.700000003,604837.793,607904.521,8,400,23,,ISIC_0055911.JPG
break,html.Screen,4_122_1,2023-09-17T01:58:27.806Z,,0,,,NaN,,,,,,false,,,,607899.200000003,607898.900000006,,607898.6000000089,,607904.521,8,400,,,
break_continue,html.Screen,4_122_2,2023-09-17T01:58:27.806Z,,0,,,NaN,,,,,,false,,,,607899.5,607899.400000006,,607899.200000003,,607904.521,8,400,,,
sequence,flow.Sequence,4_122,2023-09-17T01:58:27.806Z,,0,,,3061.6070000060135,completion,,,,,false,,,,607899.799999997,607899.400000006,604821.126,604822.6000000089,604837.793,607904.521,8,400,,,
trial,html.Screen,4_123_0,2023-09-17T01:58:30.497Z,,0,3,,2685.079000008991,response,ISIC_7755875.JPG,7,ISIC_0071944.JPG,ISIC_7755875.JPG,false,1,keypress(m),500,610589.900000006,610589.6000000089,607887.854,607899.900000006,607904.521,610604.575,8,400,24,,ISIC_0071944.JPG
break,html.Screen,4_123_1,2023-09-17T01:58:30.497Z,,0,,,NaN,,,,,,false,,,,610590.799999997,610590.5,,610590.200000003,,610604.575,8,400,,,
break_continue,html.Screen,4_123_2,2023-09-17T01:58:30.498Z,,0,,,NaN,,,,,,false,,,,610591.299999997,610591.1000000089,,610591,,610604.575,8,400,,,
sequence,flow.Sequence,4_123,2023-09-17T01:58:30.498Z,,0,,,2686.579000008991,completion,,,,,false,,,,610591.5,610591.1000000089,607887.854,607899.900000006,607904.521,610604.575,8,400,,,
trial,html.Screen,4_124_0,2023-09-17T01:58:33.246Z,,0,3,,2734.4250000000466,response,ISIC_0011378.JPG,6,ISIC_2470795.JPG,ISIC_2470795.JPG,false,0,keypress(z),500,613339.299999997,613339,610587.908,610591.6000000089,610604.575,613355.121,8,400,25,,ISIC_0011378.JPG
break,html.Screen,4_124_1,2023-09-17T01:58:33.247Z,,0,,,NaN,,,,,,false,,,,613340.1000000089,613339.799999997,,613339.5,,613355.121,8,400,,,
break_continue,html.Screen,4_124_2,2023-09-17T01:58:33.247Z,,0,,,NaN,,,,,,false,,,,613340.400000006,613340.299999997,,613340.1000000089,,613355.121,8,400,,,
sequence,flow.Sequence,4_124,2023-09-17T01:58:33.247Z,,0,,,2735.7249999970663,completion,,,,,false,,,,613340.6000000089,613340.299999997,610587.908,610591.6000000089,610604.575,613355.121,8,400,,,
trial,html.Screen,4_125_0,2023-09-17T01:58:36.147Z,,0,3,,2884.5790000029374,response,ISIC_5527447.JPG,5,ISIC_0694677.JPG,ISIC_0694677.JPG,false,0,keypress(z),500,616239.900000006,616239.700000003,613338.454,613340.799999997,613355.121,616255.179,8,400,26,,ISIC_5527447.JPG
break,html.Screen,4_125_1,2023-09-17T01:58:36.147Z,,0,,,NaN,,,,,,false,,,,616240.700000003,616240.299999997,,616240.1000000089,,616255.179,8,400,,,
break_continue,html.Screen,4_125_2,2023-09-17T01:58:36.148Z,,0,,,NaN,,,,,,false,,,,616241,616240.799999997,,616240.799999997,,616255.179,8,400,,,
sequence,flow.Sequence,4_125,2023-09-17T01:58:36.148Z,,0,,,2885.678999996977,completion,,,,,false,,,,616241.1000000089,616240.799999997,613338.454,613340.799999997,613355.121,616255.179,8,400,,,
trial,html.Screen,4_126_0,2023-09-17T01:58:39.560Z,,0,3,,3398.120999997016,response,ISIC_4801737.JPG,4,ISIC_5390932.JPG,ISIC_5390932.JPG,false,0,keypress(z),500,619653.6000000089,619653.299999997,616238.512,616241.200000003,616255.179,619655.247,8,400,27,,ISIC_4801737.JPG
break,html.Screen,4_126_1,2023-09-17T01:58:39.561Z,,0,,,NaN,,,,,,false,,,,619654.200000003,619654.1000000089,,619653.799999997,,619655.247,8,400,,,
