sender,sender_type,sender_id,timestamp,meta,,blockNo,condition,duration,ended_on,img_left,img_reveal,img_right,loser,practice,response,response_action,selection_duration,time_commit,time_end,time_render,time_run,time_show,time_switch,total_blocks,total_trials,trialNo,url,winner
informed_consent,html.Screen,0,2023-09-16T02:26:11.128Z,"{""labjs_version"":""20.2.4"",""labjs_build"":{""flavor"":""production"",""commit"":""f5b4a49f956347addd546a832a3327688c2c0fef""},""location"":""https://run.pavlovia.org/MurrayBennett/melanoma-2afc/?participant=65947&platform=sona"",""userAgent"":""Mozilla/5.0 (Macintosh; Intel Mac OS X 10_15_7) AppleWebKit/537.36 (KHTML, like Gecko) Chrome/116.0.0.0 Safari/537.36"",""platform"":""MacIntel"",""language"":""en-US"",""locale"":""en-US"",""timeZone"":""America/Chicago"",""timezoneOffset"":300,""screen_width"":1440,""screen_height"":900,""scroll_width"":1200,""scroll_height"":669,""window_innerWidth"":1200,""window_innerHeight"":717,""devicePixelRatio"":2}",,,,2104.560000011921,response,,,,,,consent,click button,,5416.900000035763,5415.300000011921,2727.43,3324.5,3310.74,5493.986,,,,"{""participant"":""65947"",""platform"":""sona""}",
Welcome,html.Screen,1,2023-09-16T02:26:12.630Z,,,,uniform,1421.614000023842,response,,,,,,continue,click button,,6918.600000023842,6915.600000023842,5410.656,5416.900000035763,5493.986,7010.592,,,,,
trial,html.Screen,2_0_0,2023-09-16T02:26:17.305Z,,0,0,,4582.308000035763,response,ISIC_0025593.JPG,,ISIC_0063388.JPG,ISIC_0063388.JPG,true,0,keypress(z),500,11593.400000035763,11592.900000035763,6910.596,6918.800000011921,7010.592,11610.408,1,6,1,,ISIC_0025593.JPG
sequence,flow.Sequence,2_0,2023-09-16T02:26:17.305Z,,0,,,4582.308000035763,completion,,,,,true,,,,11593.900000035763,11592.900000035763,6910.596,6918.800000011921,7010.592,11610.408,1,6,,,
trial,html.Screen,2_1_0,2023-09-16T02:26:20.830Z,,0,0,,3508.0920000000006,response,ISIC_1309015.JPG,,ISIC_0028178.JPG,ISIC_1309015.JPG,true,1,keypress(m),500,15119,15118.5,11593.742,11594,11610.408,15127.69,1,6,2,,ISIC_0028178.JPG
sequence,flow.Sequence,2_1,2023-09-16T02:26:20.830Z,,0,,,3508.0920000000006,completion,,,,,true,,,,15119.400000035763,15118.5,11593.742,11594,11610.408,15127.69,1,6,,,
trial,html.Screen,2_2_0,2023-09-16T02:26:25.921Z,,0,0,,5082.410000023841,response,ISIC_0031128.JPG,,ISIC_3314853.JPG,ISIC_0031128.JPG,true,1,keypress(m),500,20210.69999998808,20210.100000023842,15111.024,15119.699999988079,15127.69,20227.486,1,6,3,,ISIC_3314853.JPG
sequence,flow.Sequence,2_2,2023-09-16T02:26:25.922Z,,0,,,5082.410000023841,completion,,,,,true,,,,20211,20210.100000023842,15111.024,15119.5,15127.69,20227.486,1,6,,,
trial,html.Screen,2_3_0,2023-09-16T02:26:29.676Z,,0,0,,3737.114000023841,response,ISIC_0031612.JPG,,ISIC_8980141.JPG,ISIC_0031612.JPG,true,1,keypress(m),500,23965.30000001192,23964.600000023842,20210.82,20211.400000035763,20227.486,23978.237,1,6,4,,ISIC_8980141.JPG
sequence,flow.Sequence,2_3,2023-09-16T02:26:29.676Z,,0,,,3737.114000023841,completion,,,,,true,,,,23965.69999998808,23964.600000023842,20210.82,20211.19999998808,20227.486,23978.237,1,6,,,
trial,html.Screen,2_4_0,2023-09-16T02:26:34.417Z,,0,0,,4728.363000023841,response,ISIC_9721604.JPG,,ISIC_1197737.JPG,ISIC_1197737.JPG,true,0,keypress(z),500,28707.19999998808,28706.600000023842,23961.571,23966,23978.237,28711.381,1,6,5,,ISIC_9721604.JPG
sequence,flow.Sequence,2_4,2023-09-16T02:26:34.418Z,,0,,,4728.363000023841,completion,,,,,true,,,,28707.69999998808,28706.600000023842,23961.571,23965.900000035763,23978.237,28711.381,1,6,,,
trial,html.Screen,2_5_0,2023-09-16T02:26:38.423Z,,0,0,,4000.618999999999,response,ISIC_0025346.JPG,,ISIC_0010681.JPG,ISIC_0025346.JPG,true,1,keypress(m),500,32712.69999998808,32712,28694.715,28707.900000035763,28711.381,32727.887,1,6,6,,ISIC_0010681.JPG
sequence,flow.Sequence,2_5,2023-09-16T02:26:38.423Z,,0,,,4000.618999999999,completion,,,,,true,,,,32713.19999998808,32712,28694.715,28707.69999998808,28711.381,32727.887,1,6,,,
loop,flow.Loop,2,2023-09-16T02:26:38.424Z,,,,,25701.408,completion,,,,,true,,,,32713.600000023842,32712,6910.596,6918.699999988079,7010.592,32727.887,1,6,,,
exp_instructions,html.Screen,3,2023-09-16T02:26:49.760Z,,,,,11316.81299998808,response,,,,,,continue,keypress(Space),,44051,44044.69999998808,32711.221,32713.69999998808,32727.887,44061.579,,,,,
trial,html.Screen,4_0_0,2023-09-16T02:26:53.639Z,,0,1,,3867.821000035765,response,ISIC_0001140.JPG,8,ISIC_2106823.JPG,ISIC_2106823.JPG,false,0,keypress(z),500,47929.80000001192,47929.40000003576,44044.913,44051.30000001192,44061.579,47945.545,8,400,1,,ISIC_0001140.JPG
break,html.Screen,4_0_1,2023-09-16T02:26:53.640Z,,0,,,NaN,,,,,,false,,,,47931.10000002384,47930.90000003576,,47930,,47945.545,8,400,,,
break_continue,html.Screen,4_0_2,2023-09-16T02:26:53.641Z,,0,,,NaN,,,,,,false,,,,47931.60000002384,47931.40000003576,,47931.30000001192,,47945.545,8,400,,,
sequence,flow.Sequence,4_0,2023-09-16T02:26:53.641Z,,0,,,3869.821000035765,completion,,,,,false,,,,47931.80000001192,47931.40000003576,44044.913,44051.19999998808,44061.579,47945.545,8,400,,,
trial,html.Screen,4_1_0,2023-09-16T02:26:58.027Z,,0,1,,4372.255000011923,response,ISIC_3274493.JPG,8,ISIC_0059065.JPG,ISIC_0059065.JPG,false,0,keypress(z),500,52318.40000003576,52317.80000001192,47928.879,47931.90000003576,47945.545,52328.703,8,400,2,,ISIC_3274493.JPG
break,html.Screen,4_1_1,2023-09-16T02:26:58.028Z,,0,,,NaN,,,,,,false,,,,52319.40000003576,52319.19999998808,,52318.60000002384,,52328.703,8,400,,,
break_continue,html.Screen,4_1_2,2023-09-16T02:26:58.029Z,,0,,,NaN,,,,,,false,,,,52319.69999998808,52319.60000002384,,52319.5,,52328.703,8,400,,,
sequence,flow.Sequence,4_1,2023-09-16T02:26:58.029Z,,0,,,4374.055000023844,completion,,,,,false,,,,52319.90000003576,52319.60000002384,47928.879,47931.90000003576,47945.545,52328.703,8,400,,,
trial,html.Screen,4_2_0,2023-09-16T02:27:01.106Z,,0,1,,3067.9969999880777,response,ISIC_0071783.JPG,6,ISIC_5625747.JPG,ISIC_0071783.JPG,false,1,keypress(m),500,55397.19999998808,55396.69999998808,52312.037,52320,52328.703,55412.723,8,400,3,,ISIC_5625747.JPG
break,html.Screen,4_2_1,2023-09-16T02:27:01.107Z,,0,,,NaN,,,,,,false,,,,55398.30000001192,55398,,55397.5,,55412.723,8,400,,,
break_continue,html.Screen,4_2_2,2023-09-16T02:27:01.107Z,,0,,,NaN,,,,,,false,,,,55398.60000002384,55398.5,,55398.40000003576,,55412.723,8,400,,,
sequence,flow.Sequence,4_2,2023-09-16T02:27:01.107Z,,0,,,3069.7969999999987,completion,,,,,false,,,,55398.80000001192,55398.5,52312.037,52320,52328.703,55412.723,8,400,,,
trial,html.Screen,4_3_0,2023-09-16T02:27:04.632Z,,0,1,,3510.1770000357646,response,ISIC_0031507.JPG,8,ISIC_0064102.JPG,ISIC_0031507.JPG,false,1,keypress(m),500,58923.40000003576,58922.90000003576,55396.057,55398.90000003576,55412.723,58929.249,8,400,4,,ISIC_0064102.JPG
break,html.Screen,4_3_1,2023-09-16T02:27:04.633Z,,0,,,NaN,,,,,,false,,,,58924.40000003576,58924.30000001192,,58923.69999998808,,58929.249,8,400,,,
break_continue,html.Screen,4_3_2,2023-09-16T02:27:04.633Z,,0,,,NaN,,,,,,false,,,,58924.69999998808,58924.69999998808,,58924.5,,58929.249,8,400,,,
sequence,flow.Sequence,4_3,2023-09-16T02:27:04.633Z,,0,,,3511.976999988081,completion,,,,,false,,,,58925,58924.69999998808,55396.057,55398.90000003576,55412.723,58929.249,8,400,,,
trial,html.Screen,4_4_0,2023-09-16T02:27:08.462Z,,0,1,,3824.4509999880756,response,ISIC_0062025.JPG,7,ISIC_0031155.JPG,ISIC_0031155.JPG,false,0,keypress(z),500,62754.19999998808,62753.69999998808,58912.583,58925.10000002384,58929.249,62762.429,8,400,5,,ISIC_0062025.JPG
break,html.Screen,4_4_1,2023-09-16T02:27:08.465Z,,0,,,NaN,,,,,,false,,,,62756.30000001192,62756.10000002384,,62755.69999998808,,62762.429,8,400,,,
break_continue,html.Screen,4_4_2,2023-09-16T02:27:08.465Z,,0,,,NaN,,,,,,false,,,,62756.5,62756.40000003576,,62756.40000003576,,62762.429,8,400,,,
sequence,flow.Sequence,4_4,2023-09-16T02:27:08.465Z,,0,,,3827.1510000357594,completion,,,,,false,,,,62756.69999998808,62756.40000003576,58912.583,58925,58929.249,62762.429,8,400,,,
trial,html.Screen,4_5_0,2023-09-16T02:27:11.124Z,,0,1,,2653.2709999880826,response,ISIC_7131689.JPG,4,ISIC_0030392.JPG,ISIC_7131689.JPG,false,1,keypress(m),500,65416.10000002384,65415.69999998808,62745.763,62756.80000001192,62762.429,65429.795,8,400,6,,ISIC_0030392.JPG
break,html.Screen,4_5_1,2023-09-16T02:27:11.125Z,,0,,,NaN,,,,,,false,,,,65417.10000002384,65416.80000001192,,65416.5,,65429.795,8,400,,,
break_continue,html.Screen,4_5_2,2023-09-16T02:27:11.126Z,,0,,,NaN,,,,,,false,,,,65417.40000003576,65417.30000001192,,65417.10000002384,,65429.795,8,400,,,
sequence,flow.Sequence,4_5,2023-09-16T02:27:11.126Z,,0,,,2654.8710000119245,completion,,,,,false,,,,65417.60000002384,65417.30000001192,62745.763,62756.80000001192,62762.429,65429.795,8,400,,,
trial,html.Screen,4_6_0,2023-09-16T02:27:13.856Z,,0,1,,2717.7050000000017,response,ISIC_0025184.JPG,8,ISIC_8935085.JPG,ISIC_8935085.JPG,false,0,keypress(z),500,68147.90000003576,68147.5,65413.129,65417.69999998808,65429.795,68163.019,8,400,7,,ISIC_0025184.JPG
break,html.Screen,4_6_1,2023-09-16T02:27:13.857Z,,0,,,NaN,,,,,,false,,,,68149,68148.69999998808,,68148.30000001192,,68163.019,8,400,,,
break_continue,html.Screen,4_6_2,2023-09-16T02:27:13.857Z,,0,,,NaN,,,,,,false,,,,68149.40000003576,68149.19999998808,,68149.10000002384,,68163.019,8,400,,,
sequence,flow.Sequence,4_6,2023-09-16T02:27:13.858Z,,0,,,2719.404999988081,completion,,,,,false,,,,68149.60000002384,68149.19999998808,65413.129,65417.60000002384,65429.795,68163.019,8,400,,,
trial,html.Screen,4_7_0,2023-09-16T02:27:16.868Z,,0,1,,2996.8810000357626,response,ISIC_8969855.JPG,8,ISIC_0013364.JPG,ISIC_0013364.JPG,false,0,keypress(z),500,71160.30000001192,71159.90000003576,68146.353,68149.69999998808,68163.019,71162.899,8,400,8,,ISIC_8969855.JPG
break,html.Screen,4_7_1,2023-09-16T02:27:16.869Z,,0,,,NaN,,,,,,false,,,,71161.30000001192,71161,,71160.5,,71162.899,8,400,,,
break_continue,html.Screen,4_7_2,2023-09-16T02:27:16.869Z,,0,,,NaN,,,,,,false,,,,71161.60000002384,71161.5,,71161.40000003576,,71162.899,8,400,,,
sequence,flow.Sequence,4_7,2023-09-16T02:27:16.870Z,,0,,,2998.4809999999998,completion,,,,,false,,,,71161.80000001192,71161.5,68146.353,68149.69999998808,68163.019,71162.899,8,400,,,
trial,html.Screen,4_8_0,2023-09-16T02:27:20.985Z,,0,1,,4114.600999999995,response,ISIC_7254359.JPG,5,ISIC_4981135.JPG,ISIC_4981135.JPG,false,0,keypress(z),500,75277.80000001192,75277.5,71146.233,71162,71162.899,75330.164,8,400,9,,ISIC_7254359.JPG
break,html.Screen,4_8_1,2023-09-16T02:27:20.986Z,,0,,,NaN,,,,,,false,,,,75278.60000002384,75278.5,,75278,,75330.164,8,400,,,
break_continue,html.Screen,4_8_2,2023-09-16T02:27:20.986Z,,0,,,NaN,,,,,,false,,,,75278.80000001192,75278.80000001192,,75278.60000002384,,75330.164,8,400,,,
sequence,flow.Sequence,4_8,2023-09-16T02:27:20.986Z,,0,,,4115.901000011916,completion,,,,,false,,,,75278.90000003576,75278.80000001192,71146.233,71161.90000003576,71162.899,75330.164,8,400,,,
trial,html.Screen,4_9_0,2023-09-16T02:27:23.633Z,,0,1,,2594.5359999880748,response,ISIC_0031386.JPG,6,ISIC_0032841.JPG,ISIC_0031386.JPG,false,1,keypress(m),500,77925.19999998808,77924.69999998808,75279.401,75279,75330.164,77930.06,8,400,10,,ISIC_0032841.JPG
break,html.Screen,4_9_1,2023-09-16T02:27:23.635Z,,0,,,NaN,,,,,,false,,,,77927.19999998808,77927,,77926.5,,77930.06,8,400,,,
break_continue,html.Screen,4_9_2,2023-09-16T02:27:23.635Z,,0,,,NaN,,,,,,false,,,,77927.60000002384,77927.40000003576,,77927.30000001192,,77930.06,8,400,,,
sequence,flow.Sequence,4_9,2023-09-16T02:27:23.635Z,,0,,,2597.2360000357585,completion,,,,,false,,,,77927.80000001192,77927.40000003576,75279.401,75278.90000003576,75330.164,77930.06,8,400,,,
trial,html.Screen,4_10_0,2023-09-16T02:27:26.550Z,,0,1,,2912.540000023844,response,ISIC_2843245.JPG,9,ISIC_2412888.JPG,ISIC_2412888.JPG,false,0,keypress(z),500,80843,80842.60000002384,77913.394,77927.90000003576,77930.06,80846.61,8,400,11,,ISIC_2843245.JPG
break,html.Screen,4_10_1,2023-09-16T02:27:26.551Z,,0,,,NaN,,,,,,false,,,,80843.90000003576,80843.69999998808,,80843.30000001192,,80846.61,8,400,,,
break_continue,html.Screen,4_10_2,2023-09-16T02:27:26.551Z,,0,,,NaN,,,,,,false,,,,80844.19999998808,80844.10000002384,,80844,,80846.61,8,400,,,
sequence,flow.Sequence,4_10,2023-09-16T02:27:26.552Z,,0,,,2914.040000023844,completion,,,,,false,,,,80844.5,80844.10000002384,77913.394,77927.90000003576,77930.06,80846.61,8,400,,,
trial,html.Screen,4_11_0,2023-09-16T02:27:29.744Z,,0,1,,3189.6900000119203,response,ISIC_0001581.JPG,7,ISIC_4102922.JPG,ISIC_0001581.JPG,false,1,keypress(m),500,84036.69999998808,84036.30000001192,80829.944,80844.60000002384,80846.61,84046.482,8,400,12,,ISIC_4102922.JPG
break,html.Screen,4_11_1,2023-09-16T02:27:29.745Z,,0,,,NaN,,,,,,false,,,,84037.69999998808,84037.5,,84037,,84046.482,8,400,,,
break_continue,html.Screen,4_11_2,2023-09-16T02:27:29.745Z,,0,,,NaN,,,,,,false,,,,84038,84037.90000003576,,84037.80000001192,,84046.482,8,400,,,
sequence,flow.Sequence,4_11,2023-09-16T02:27:29.745Z,,0,,,3191.290000035762,completion,,,,,false,,,,84038.19999998808,84037.90000003576,80829.944,80844.5,80846.61,84046.482,8,400,,,
trial,html.Screen,4_12_0,2023-09-16T02:27:33.156Z,,0,1,,3402.3180000119173,response,ISIC_7342636.JPG,8,ISIC_2513018.JPG,ISIC_2513018.JPG,false,0,keypress(z),500,87449.30000001192,87448.80000001192,84029.816,84038.40000003576,84046.482,87463.81,8,400,13,,ISIC_7342636.JPG
break,html.Screen,4_12_1,2023-09-16T02:27:33.157Z,,0,,,NaN,,,,,,false,,,,87450.19999998808,87450.10000002384,,87449.60000002384,,87463.81,8,400,,,
break_continue,html.Screen,4_12_2,2023-09-16T02:27:33.157Z,,0,,,NaN,,,,,,false,,,,87450.60000002384,87450.5,,87450.40000003576,,87463.81,8,400,,,
sequence,flow.Sequence,4_12,2023-09-16T02:27:33.158Z,,0,,,3404.0179999999964,completion,,,,,false,,,,87450.90000003576,87450.5,84029.816,84038.40000003576,84046.482,87463.81,8,400,,,
trial,html.Screen,4_13_0,2023-09-16T02:27:36.074Z,,0,1,,2902.790000023844,response,ISIC_0067417.JPG,7,ISIC_0030695.JPG,ISIC_0067417.JPG,false,1,keypress(m),500,90367,90366.60000002384,87447.144,87451,87463.81,90380.36,8,400,14,,ISIC_0030695.JPG
break,html.Screen,4_13_1,2023-09-16T02:27:36.075Z,,0,,,NaN,,,,,,false,,,,90368.10000002384,90367.90000003576,,90367.40000003576,,90380.36,8,400,,,
break_continue,html.Screen,4_13_2,2023-09-16T02:27:36.075Z,,0,,,NaN,,,,,,false,,,,90368.5,90368.30000001192,,90368.10000002384,,90380.36,8,400,,,
sequence,flow.Sequence,4_13,2023-09-16T02:27:36.075Z,,0,,,2904.4900000119233,completion,,,,,false,,,,90368.60000002384,90368.30000001192,87447.144,87450.90000003576,87463.81,90380.36,8,400,,,
trial,html.Screen,4_14_0,2023-09-16T02:27:38.749Z,,0,1,,2661.9400000119203,response,ISIC_0000483.JPG,8,ISIC_6489993.JPG,ISIC_6489993.JPG,false,0,keypress(z),500,93042.80000001192,93042.30000001192,90363.694,90368.80000001192,90380.36,93046.92,8,400,15,,ISIC_0000483.JPG
break,html.Screen,4_14_1,2023-09-16T02:27:38.750Z,,0,,,NaN,,,,,,false,,,,93043.80000001192,93043.60000002384,,93043.10000002384,,93046.92,8,400,,,
break_continue,html.Screen,4_14_2,2023-09-16T02:27:38.751Z,,0,,,NaN,,,,,,false,,,,93044.19999998808,93044.10000002384,,93044,,93046.92,8,400,,,
sequence,flow.Sequence,4_14,2023-09-16T02:27:38.751Z,,0,,,2663.7400000238413,completion,,,,,false,,,,93044.30000001192,93044.10000002384,90363.694,90368.69999998808,90380.36,93046.92,8,400,,,
trial,html.Screen,4_15_0,2023-09-16T02:27:41.731Z,,0,1,,2977.6800000238436,response,ISIC_0034304.JPG,6,ISIC_0027145.JPG,ISIC_0027145.JPG,false,0,keypress(z),500,96025.10000002384,96024.60000002384,93030.254,93044.5,93046.92,96030.947,8,400,16,,ISIC_0034304.JPG
break,html.Screen,4_15_1,2023-09-16T02:27:41.732Z,,0,,,NaN,,,,,,false,,,,96026,96025.90000003576,,96025.40000003576,,96030.947,8,400,,,
break_continue,html.Screen,4_15_2,2023-09-16T02:27:41.733Z,,0,,,NaN,,,,,,false,,,,96026.5,96026.30000001192,,96026.10000002384,,96030.947,8,400,,,
sequence,flow.Sequence,4_15,2023-09-16T02:27:41.733Z,,0,,,2979.3800000119227,completion,,,,,false,,,,96026.60000002384,96026.30000001192,93030.254,93044.5,93046.92,96030.947,8,400,,,
trial,html.Screen,4_16_0,2023-09-16T02:27:44.281Z,,0,1,,2543.752999988079,response,ISIC_0030139.JPG,5,ISIC_2882237.JPG,ISIC_0030139.JPG,false,1,keypress(m),500,98575.10000002384,98574.69999998808,96014.281,96026.80000001192,96030.947,98580.845,8,400,17,,ISIC_2882237.JPG
break,html.Screen,4_16_1,2023-09-16T02:27:44.282Z,,0,,,NaN,,,,,,false,,,,98576.10000002384,98575.90000003576,,98575.40000003576,,98580.845,8,400,,,
break_continue,html.Screen,4_16_2,2023-09-16T02:27:44.283Z,,0,,,NaN,,,,,,false,,,,98576.40000003576,98576.40000003576,,98576.19999998808,,98580.845,8,400,,,
sequence,flow.Sequence,4_16,2023-09-16T02:27:44.283Z,,0,,,2545.4530000357627,completion,,,,,false,,,,98576.60000002384,98576.40000003576,96014.281,96026.69999998808,96030.947,98580.845,8,400,,,
trial,html.Screen,4_17_0,2023-09-16T02:27:46.840Z,,0,1,,2552.7550000238407,response,ISIC_9385996.JPG,8,ISIC_0011669.JPG,ISIC_9385996.JPG,false,1,keypress(m),500,101134,101133.60000002384,98564.179,98576.69999998808,98580.845,101147.409,8,400,18,,ISIC_0011669.JPG
break,html.Screen,4_17_1,2023-09-16T02:27:46.841Z,,0,,,NaN,,,,,,false,,,,101135.10000002384,101134.90000003576,,101134.30000001192,,101147.409,8,400,,,
break_continue,html.Screen,4_17_2,2023-09-16T02:27:46.842Z,,0,,,NaN,,,,,,false,,,,101135.40000003576,101135.19999998808,,101135.19999998808,,101147.409,8,400,,,
sequence,flow.Sequence,4_17,2023-09-16T02:27:46.842Z,,0,,,2554.354999988078,completion,,,,,false,,,,101135.60000002384,101135.19999998808,98564.179,98576.69999998808,98580.845,101147.409,8,400,,,
trial,html.Screen,4_18_0,2023-09-16T02:27:49.264Z,,0,1,,2409.8910000119213,response,ISIC_5323725.JPG,7,ISIC_0010175.JPG,ISIC_5323725.JPG,false,1,keypress(m),500,103557.60000002384,103557.30000001192,101130.743,101135.80000001192,101147.409,103563.979,8,400,19,,ISIC_0010175.JPG
break,html.Screen,4_18_1,2023-09-16T02:27:49.265Z,,0,,,NaN,,,,,,false,,,,103558.60000002384,103558.5,,103557.90000003576,,103563.979,8,400,,,
break_continue,html.Screen,4_18_2,2023-09-16T02:27:49.265Z,,0,,,NaN,,,,,,false,,,,103559,103558.90000003576,,103558.80000001192,,103563.979,8,400,,,
sequence,flow.Sequence,4_18,2023-09-16T02:27:49.265Z,,0,,,2411.491000035763,completion,,,,,false,,,,103559.19999998808,103558.90000003576,101130.743,101135.80000001192,101147.409,103563.979,8,400,,,
trial,html.Screen,4_19_0,2023-09-16T02:27:52.160Z,,0,1,,2889.8210000119143,response,ISIC_9407690.JPG,7,ISIC_7152347.JPG,ISIC_9407690.JPG,false,1,keypress(m),500,106454.30000001192,106453.80000001192,103547.313,103559.40000003576,103563.979,106464.605,8,400,20,,ISIC_7152347.JPG
break,html.Screen,4_19_1,2023-09-16T02:27:52.161Z,,0,,,NaN,,,,,,false,,,,106455.19999998808,106455,,106454.5,,106464.605,8,400,,,
break_continue,html.Screen,4_19_2,2023-09-16T02:27:52.161Z,,0,,,NaN,,,,,,false,,,,106455.5,106455.5,,106455.30000001192,,106464.605,8,400,,,
sequence,flow.Sequence,4_19,2023-09-16T02:27:52.162Z,,0,,,2891.5209999999934,completion,,,,,false,,,,106455.80000001192,106455.5,103547.313,103559.30000001192,103563.979,106464.605,8,400,,,
trial,html.Screen,4_20_0,2023-09-16T02:27:54.711Z,,0,1,,2540.195000011925,response,ISIC_0021052.JPG,8,ISIC_5179620.JPG,ISIC_5179620.JPG,false,0,keypress(z),500,109005.40000003576,109004.80000001192,106447.939,106455.90000003576,106464.605,109014.503,8,400,21,,ISIC_0021052.JPG
break,html.Screen,4_20_1,2023-09-16T02:27:54.712Z,,0,,,NaN,,,,,,false,,,,109006.30000001192,109006.19999998808,,109005.69999998808,,109014.503,8,400,,,
break_continue,html.Screen,4_20_2,2023-09-16T02:27:54.712Z,,0,,,NaN,,,,,,false,,,,109006.69999998808,109006.60000002384,,109006.40000003576,,109014.503,8,400,,,
sequence,flow.Sequence,4_20,2023-09-16T02:27:54.713Z,,0,,,2541.995000023846,completion,,,,,false,,,,109006.90000003576,109006.60000002384,106447.939,106455.80000001192,106464.605,109014.503,8,400,,,
trial,html.Screen,4_21_0,2023-09-16T02:27:57.271Z,,0,1,,2550.897000035766,response,ISIC_6447663.JPG,6,ISIC_3058627.JPG,ISIC_3058627.JPG,false,0,keypress(z),500,111565.80000001192,111565.40000003576,108997.837,109007.10000002384,109014.503,111581.067,8,400,22,,ISIC_6447663.JPG
break,html.Screen,4_21_1,2023-09-16T02:27:57.272Z,,0,,,NaN,,,,,,false,,,,111566.80000001192,111566.60000002384,,111566.10000002384,,111581.067,8,400,,,
break_continue,html.Screen,4_21_2,2023-09-16T02:27:57.273Z,,0,,,NaN,,,,,,false,,,,111567.19999998808,111567,,111566.90000003576,,111581.067,8,400,,,
sequence,flow.Sequence,4_21,2023-09-16T02:27:57.273Z,,0,,,2552.497000000003,completion,,,,,false,,,,111567.30000001192,111567,108997.837,109007,109014.503,111581.067,8,400,,,
trial,html.Screen,4_22_0,2023-09-16T02:27:59.999Z,,0,1,,2711.7330000119255,response,ISIC_0061918.JPG,6,ISIC_3166535.JPG,ISIC_3166535.JPG,false,0,keypress(z),500,114293.10000002384,114292.80000001192,111564.401,111567.40000003576,111581.067,114297.625,8,400,23,,ISIC_0061918.JPG
break,html.Screen,4_22_1,2023-09-16T02:28:00.000Z,,0,,,NaN,,,,,,false,,,,114294.19999998808,114294,,114293.40000003576,,114297.625,8,400,,,
break_continue,html.Screen,4_22_2,2023-09-16T02:28:00.000Z,,0,,,NaN,,,,,,false,,,,114294.60000002384,114294.60000002384,,114294.30000001192,,114297.625,8,400,,,
sequence,flow.Sequence,4_22,2023-09-16T02:28:00.000Z,,0,,,2713.5330000238464,completion,,,,,false,,,,114294.80000001192,114294.60000002384,111564.401,111567.40000003576,111581.067,114297.625,8,400,,,
trial,html.Screen,4_23_0,2023-09-16T02:28:02.645Z,,0,1,,2642.074999988079,response,ISIC_0064979.JPG,8,ISIC_0013844.JPG,ISIC_0013844.JPG,false,0,keypress(z),500,116940.10000002384,116939.69999998808,114280.959,114295,114297.625,116948.353,8,400,24,,ISIC_0064979.JPG
break,html.Screen,4_23_1,2023-09-16T02:28:02.646Z,,0,,,NaN,,,,,,false,,,,116941.19999998808,116941,,116940.5,,116948.353,8,400,,,
break_continue,html.Screen,4_23_2,2023-09-16T02:28:02.647Z,,0,,,NaN,,,,,,false,,,,116941.69999998808,116941.40000003576,,116941.30000001192,,116948.353,8,400,,,
sequence,flow.Sequence,4_23,2023-09-16T02:28:02.647Z,,0,,,2643.775000035763,completion,,,,,false,,,,116941.80000001192,116941.40000003576,114280.959,114295,114297.625,116948.353,8,400,,,
trial,html.Screen,4_24_0,2023-09-16T02:28:05.148Z,,0,1,,2494.3469999880763,response,ISIC_4401524.JPG,8,ISIC_0063650.JPG,ISIC_4401524.JPG,false,1,keypress(m),500,119442.80000001192,119442.69999998808,116931.687,116942,116948.353,119448.253,8,400,25,,ISIC_0063650.JPG
break,html.Screen,4_24_1,2023-09-16T02:28:05.148Z,,0,,,NaN,,,,,,false,,,,119443.30000001192,119443.19999998808,,119443.10000002384,,119448.253,8,400,,,
break_continue,html.Screen,4_24_2,2023-09-16T02:28:05.149Z,,0,,,NaN,,,,,,false,,,,119443.5,119443.5,,119443.40000003576,,119448.253,8,400,,,
sequence,flow.Sequence,4_24,2023-09-16T02:28:05.149Z,,0,,,2495.146999999997,completion,,,,,false,,,,119443.69999998808,119443.5,116931.687,116941.90000003576,116948.353,119448.253,8,400,,,
trial,html.Screen,4_25_0,2023-09-16T02:28:07.935Z,,0,1,,2781.547000011924,response,ISIC_3926305.JPG,6,ISIC_1380069.JPG,ISIC_3926305.JPG,false,1,keypress(m),500,122230.30000001192,122229.80000001192,119431.587,119443.69999998808,119448.253,122231.475,8,400,26,,ISIC_1380069.JPG
break,html.Screen,4_25_1,2023-09-16T02:28:07.936Z,,0,,,NaN,,,,,,false,,,,122231.30000001192,122231,,122230.60000002384,,122231.475,8,400,,,
break_continue,html.Screen,4_25_2,2023-09-16T02:28:07.937Z,,0,,,NaN,,,,,,false,,,,122231.69999998808,122231.5,,122231.40000003576,,122231.475,8,400,,,
sequence,flow.Sequence,4_25,2023-09-16T02:28:07.937Z,,0,,,2783.247000000003,completion,,,,,false,,,,122231.90000003576,122231.5,119431.587,119443.69999998808,119448.253,122231.475,8,400,,,
trial,html.Screen,4_26_0,2023-09-16T02:28:10.550Z,,0,1,,2613.7249999880733,response,ISIC_0031908.JPG,4,ISIC_0032204.JPG,ISIC_0032204.JPG,false,0,keypress(z),500,124845.69999998808,124845.19999998808,122214.809,122232,122231.475,124848.037,8,400,27,,ISIC_0031908.JPG
break,html.Screen,4_26_1,2023-09-16T02:28:10.551Z,,0,,,NaN,,,,,,false,,,,124846.60000002384,124846.40000003576,,124846,,124848.037,8,400,,,
break_continue,html.Screen,4_26_2,2023-09-16T02:28:10.552Z,,0,,,NaN,,,,,,false,,,,124847,124846.90000003576,,124846.69999998808,,124848.037,8,400,,,
sequence,flow.Sequence,4_26,2023-09-16T02:28:10.552Z,,0,,,2615.425000035757,completion,,,,,false,,,,124847.19999998808,124846.90000003576,122214.809,122231.90000003576,122231.475,124848.037,8,400,,,
trial,html.Screen,4_27_0,2023-09-16T02:28:13.054Z,,0,1,,2501.1629999880824,response,ISIC_6256797.JPG,6,ISIC_7296201.JPG,ISIC_6256797.JPG,false,1,keypress(m),500,127349.69999998808,127349.19999998808,124831.371,124847.40000003576,124848.037,127365.383,8,400,28,,ISIC_7296201.JPG
break,html.Screen,4_27_1,2023-09-16T02:28:13.055Z,,0,,,NaN,,,,,,false,,,,127350.69999998808,127350.60000002384,,127350,,127365.383,8,400,,,
break_continue,html.Screen,4_27_2,2023-09-16T02:28:13.056Z,,0,,,NaN,,,,,,false,,,,127351.10000002384,127350.90000003576,,127350.90000003576,,127365.383,8,400,,,
sequence,flow.Sequence,4_27,2023-09-16T02:28:13.056Z,,0,,,2502.863000035766,completion,,,,,false,,,,127351.30000001192,127350.90000003576,124831.371,124847.30000001192,124848.037,127365.383,8,400,,,
trial,html.Screen,4_28_0,2023-09-16T02:28:15.645Z,,0,1,,2574.6169999999984,response,ISIC_0068616.JPG,8,ISIC_0032232.JPG,ISIC_0068616.JPG,false,1,keypress(m),500,129940.5,129940,127348.717,127351.40000003576,127365.383,129948.613,8,400,29,,ISIC_0032232.JPG
break,html.Screen,4_28_1,2023-09-16T02:28:15.646Z,,0,,,NaN,,,,,,false,,,,129941.40000003576,129941.30000001192,,129940.90000003576,,129948.613,8,400,,,
break_continue,html.Screen,4_28_2,2023-09-16T02:28:15.646Z,,0,,,NaN,,,,,,false,,,,129941.90000003576,129941.80000001192,,129941.60000002384,,129948.613,8,400,,,
sequence,flow.Sequence,4_28,2023-09-16T02:28:15.647Z,,0,,,2576.4170000119193,completion,,,,,false,,,,129942,129941.80000001192,127348.717,127351.30000001192,127365.383,129948.613,8,400,,,
trial,html.Screen,4_29_0,2023-09-16T02:28:18.158Z,,0,1,,2504.8870000000024,response,ISIC_4348994.JPG,8,ISIC_0024513.JPG,ISIC_4348994.JPG,false,1,keypress(m),500,132453.90000003576,132453.5,129931.947,129942.19999998808,129948.613,132465.179,8,400,30,,ISIC_0024513.JPG
break,html.Screen,4_29_1,2023-09-16T02:28:18.159Z,,0,,,NaN,,,,,,false,,,,132454.90000003576,132454.69999998808,,132454.10000002384,,132465.179,8,400,,,
break_continue,html.Screen,4_29_2,2023-09-16T02:28:18.160Z,,0,,,NaN,,,,,,false,,,,132455.19999998808,132455.19999998808,,132455,,132465.179,8,400,,,
sequence,flow.Sequence,4_29,2023-09-16T02:28:18.160Z,,0,,,2506.5869999880815,completion,,,,,false,,,,132455.40000003576,132455.19999998808,129931.947,129942.19999998808,129948.613,132465.179,8,400,,,
trial,html.Screen,4_30_0,2023-09-16T02:28:20.717Z,,0,1,,2547.5209999880753,response,ISIC_5907931.JPG,7,ISIC_3171104.JPG,ISIC_5907931.JPG,false,1,keypress(m),500,135013.19999998808,135012.69999998808,132448.513,132455.60000002384,132465.179,135015.077,8,400,31,,ISIC_3171104.JPG
break,html.Screen,4_30_1,2023-09-16T02:28:20.718Z,,0,,,NaN,,,,,,false,,,,135014.10000002384,135014,,135013.5,,135015.077,8,400,,,
break_continue,html.Screen,4_30_2,2023-09-16T02:28:20.719Z,,0,,,NaN,,,,,,false,,,,135014.60000002384,135014.5,,135014.30000001192,,135015.077,8,400,,,
sequence,flow.Sequence,4_30,2023-09-16T02:28:20.719Z,,0,,,2549.3209999999963,completion,,,,,false,,,,135014.69999998808,135014.5,132448.513,132455.60000002384,132465.179,135015.077,8,400,,,
trial,html.Screen,4_31_0,2023-09-16T02:28:23.345Z,,0,1,,2625.42300000001,response,ISIC_0026309.JPG,8,ISIC_8578732.JPG,ISIC_8578732.JPG,false,0,keypress(z),500,137640.90000003576,137640.5,134998.411,135014.90000003576,135015.077,137649.095,8,400,32,,ISIC_0026309.JPG
break,html.Screen,4_31_1,2023-09-16T02:28:23.346Z,,0,,,NaN,,,,,,false,,,,137641.69999998808,137641.60000002384,,137641.10000002384,,137649.095,8,400,,,
break_continue,html.Screen,4_31_2,2023-09-16T02:28:23.346Z,,0,,,NaN,,,,,,false,,,,137641.90000003576,137641.90000003576,,137641.80000001192,,137649.095,8,400,,,
sequence,flow.Sequence,4_31,2023-09-16T02:28:23.346Z,,0,,,2626.8230000357726,completion,,,,,false,,,,137642.10000002384,137641.90000003576,134998.411,135014.80000001192,135015.077,137649.095,8,400,,,
trial,html.Screen,4_32_0,2023-09-16T02:28:25.997Z,,0,1,,2643.7050000119198,response,ISIC_0070588.JPG,6,ISIC_0010397.JPG,ISIC_0070588.JPG,false,1,keypress(m),500,140293.30000001192,140292.80000001192,137632.429,137642.19999998808,137649.095,140298.989,8,400,33,,ISIC_0010397.JPG
break,html.Screen,4_32_1,2023-09-16T02:28:25.998Z,,0,,,NaN,,,,,,false,,,,140294.30000001192,140294.10000002384,,140293.60000002384,,140298.989,8,400,,,
break_continue,html.Screen,4_32_2,2023-09-16T02:28:25.999Z,,0,,,NaN,,,,,,false,,,,140294.69999998808,140294.5,,140294.5,,140298.989,8,400,,,
sequence,flow.Sequence,4_32,2023-09-16T02:28:25.999Z,,0,,,2645.404999999999,completion,,,,,false,,,,140294.90000003576,140294.5,137632.429,137642.19999998808,137649.095,140298.989,8,400,,,
trial,html.Screen,4_33_0,2023-09-16T02:28:28.652Z,,0,1,,2649.0109999999986,response,ISIC_0007808.JPG,6,ISIC_3256887.JPG,ISIC_3256887.JPG,false,0,keypress(z),500,142948.30000001192,142948,140282.323,140295,140298.989,142965.549,8,400,34,,ISIC_0007808.JPG
break,html.Screen,4_33_1,2023-09-16T02:28:28.653Z,,0,,,NaN,,,,,,false,,,,142949.40000003576,142949.10000002384,,142948.69999998808,,142965.549,8,400,,,
break_continue,html.Screen,4_33_2,2023-09-16T02:28:28.654Z,,0,,,NaN,,,,,,false,,,,142949.69999998808,142949.69999998808,,142949.5,,142965.549,8,400,,,
sequence,flow.Sequence,4_33,2023-09-16T02:28:28.654Z,,0,,,2650.7109999880777,completion,,,,,false,,,,142950,142949.69999998808,140282.323,140295,140298.989,142965.549,8,400,,,
trial,html.Screen,4_34_0,2023-09-16T02:28:31.390Z,,0,1,,2720.451000000001,response,ISIC_9529971.JPG,7,ISIC_2546644.JPG,ISIC_2546644.JPG,false,0,keypress(z),500,145686.5,145686,142948.883,142950.10000002384,142965.549,145698.773,8,400,35,,ISIC_9529971.JPG
break,html.Screen,4_34_1,2023-09-16T02:28:31.391Z,,0,,,NaN,,,,,,false,,,,145687.5,145687.30000001192,,145686.80000001192,,145698.773,8,400,,,
break_continue,html.Screen,4_34_2,2023-09-16T02:28:31.391Z,,0,,,NaN,,,,,,false,,,,145687.90000003576,145687.69999998808,,145687.60000002384,,145698.773,8,400,,,
sequence,flow.Sequence,4_34,2023-09-16T02:28:31.392Z,,0,,,2722.15099998808,completion,,,,,false,,,,145688,145687.69999998808,142948.883,142950.10000002384,142965.549,145698.773,8,400,,,
trial,html.Screen,4_35_0,2023-09-16T02:28:33.933Z,,0,1,,2529.7270000000135,response,ISIC_1720856.JPG,8,ISIC_0057374.JPG,ISIC_1720856.JPG,false,1,keypress(m),500,148229,148228.5,145682.107,145688.19999998808,145698.773,148232.835,8,400,36,,ISIC_0057374.JPG
break,html.Screen,4_35_1,2023-09-16T02:28:33.934Z,,0,,,NaN,,,,,,false,,,,148230,148229.80000001192,,148229.30000001192,,148232.835,8,400,,,
break_continue,html.Screen,4_35_2,2023-09-16T02:28:33.934Z,,0,,,NaN,,,,,,false,,,,148230.40000003576,148230.30000001192,,148230.19999998808,,148232.835,8,400,,,
sequence,flow.Sequence,4_35,2023-09-16T02:28:33.934Z,,0,,,2531.5270000119344,completion,,,,,false,,,,148230.60000002384,148230.30000001192,145682.107,145688,145698.773,148232.835,8,400,,,
trial,html.Screen,4_36_0,2023-09-16T02:28:36.547Z,,0,1,,2610.76500002385,response,ISIC_0066223.JPG,8,ISIC_0004564.JPG,ISIC_0004564.JPG,false,0,keypress(z),500,150844.10000002384,150843.60000002384,148216.169,148230.69999998808,148232.835,150849.397,8,400,37,,ISIC_0066223.JPG
break,html.Screen,4_36_1,2023-09-16T02:28:36.548Z,,0,,,NaN,,,,,,false,,,,150845,150844.90000003576,,150844.30000001192,,150849.397,8,400,,,
break_continue,html.Screen,4_36_2,2023-09-16T02:28:36.549Z,,0,,,NaN,,,,,,false,,,,150845.40000003576,150845.30000001192,,150845.19999998808,,150849.397,8,400,,,
sequence,flow.Sequence,4_36,2023-09-16T02:28:36.549Z,,0,,,2612.465000011929,completion,,,,,false,,,,150845.60000002384,150845.30000001192,148216.169,148230.60000002384,148232.835,150849.397,8,400,,,
trial,html.Screen,4_37_0,2023-09-16T02:28:38.987Z,,0,1,,2433.302999988082,response,ISIC_0034150.JPG,8,ISIC_0053929.JPG,ISIC_0034150.JPG,false,1,keypress(m),500,153283.60000002384,153282.69999998808,150832.731,150845.80000001192,150849.397,153299.299,8,400,38,,ISIC_0053929.JPG
break,html.Screen,4_37_1,2023-09-16T02:28:38.988Z,,0,,,NaN,,,,,,false,,,,153284.69999998808,153284.40000003576,,153284,,153299.299,8,400,,,
break_continue,html.Screen,4_37_2,2023-09-16T02:28:38.988Z,,0,,,NaN,,,,,,false,,,,153285.10000002384,153284.90000003576,,153284.80000001192,,153299.299,8,400,,,
sequence,flow.Sequence,4_37,2023-09-16T02:28:38.988Z,,0,,,2435.5030000357656,completion,,,,,false,,,,153285.19999998808,153284.90000003576,150832.731,150845.69999998808,150849.397,153299.299,8,400,,,
trial,html.Screen,4_38_0,2023-09-16T02:28:41.746Z,,0,1,,2742.90099998808,response,ISIC_0009950.JPG,9,ISIC_7340926.JPG,ISIC_7340926.JPG,false,0,keypress(z),500,156042.5,156042.19999998808,153282.633,153285.40000003576,153299.299,156049.189,8,400,39,,ISIC_0009950.JPG
break,html.Screen,4_38_1,2023-09-16T02:28:41.746Z,,0,,,NaN,,,,,,false,,,,156043.19999998808,156043.10000002384,,156042.69999998808,,156049.189,8,400,,,
break_continue,html.Screen,4_38_2,2023-09-16T02:28:41.746Z,,0,,,NaN,,,,,,false,,,,156043.40000003576,156043.30000001192,,156043.30000001192,,156049.189,8,400,,,
sequence,flow.Sequence,4_38,2023-09-16T02:28:41.747Z,,0,,,2744.001000011922,completion,,,,,false,,,,156043.5,156043.30000001192,153282.633,153285.30000001192,153299.299,156049.189,8,400,,,
trial,html.Screen,4_39_0,2023-09-16T02:28:44.869Z,,0,1,,3116.2110000357497,response,ISIC_0031303.JPG,7,ISIC_0003345.JPG,ISIC_0031303.JPG,false,1,keypress(m),500,159166.40000003576,159165.40000003576,156032.523,156043.5,156049.189,159183.124,8,400,40,,ISIC_0003345.JPG
break,html.Screen,4_39_1,2023-09-16T02:28:44.870Z,,0,,,NaN,,,,,,false,,,,159167.40000003576,159167.10000002384,,159166.69999998808,,159183.124,8,400,,,
break_continue,html.Screen,4_39_2,2023-09-16T02:28:44.871Z,,0,,,NaN,,,,,,false,,,,159167.69999998808,159167.69999998808,,159167.60000002384,,159183.124,8,400,,,
sequence,flow.Sequence,4_39,2023-09-16T02:28:44.871Z,,0,,,3118.510999988066,completion,,,,,false,,,,159167.90000003576,159167.69999998808,156032.523,156043.5,156049.189,159183.124,8,400,,,
trial,html.Screen,4_40_0,2023-09-16T02:28:47.796Z,,0,1,,2909.8759999999893,response,ISIC_4323070.JPG,7,ISIC_3478473.JPG,ISIC_4323070.JPG,false,1,keypress(m),500,162093.5,162093,159166.458,159168.10000002384,159183.124,162099.674,8,400,41,,ISIC_3478473.JPG
break,html.Screen,4_40_1,2023-09-16T02:28:47.797Z,,0,,,NaN,,,,,,false,,,,162094.60000002384,162094.40000003576,,162093.80000001192,,162099.674,8,400,,,
break_continue,html.Screen,4_40_2,2023-09-16T02:28:47.798Z,,0,,,NaN,,,,,,false,,,,162094.90000003576,162094.80000001192,,162094.69999998808,,162099.674,8,400,,,
sequence,flow.Sequence,4_40,2023-09-16T02:28:47.798Z,,0,,,2911.67600001191,completion,,,,,false,,,,162095.10000002384,162094.80000001192,159166.458,159168.10000002384,159183.124,162099.674,8,400,,,
trial,html.Screen,4_41_0,2023-09-16T02:28:50.292Z,,0,1,,2489.326000000001,response,ISIC_0033831.JPG,6,ISIC_0033679.JPG,ISIC_0033679.JPG,false,0,keypress(z),500,164589.60000002384,164589,162083.008,162095.30000001192,162099.674,164599.574,8,400,42,,ISIC_0033831.JPG
break,html.Screen,4_41_1,2023-09-16T02:28:50.293Z,,0,,,NaN,,,,,,false,,,,164590.60000002384,164590.40000003576,,164589.90000003576,,164599.574,8,400,,,
break_continue,html.Screen,4_41_2,2023-09-16T02:28:50.294Z,,0,,,NaN,,,,,,false,,,,164591,164590.90000003576,,164590.80000001192,,164599.574,8,400,,,
sequence,flow.Sequence,4_41,2023-09-16T02:28:50.294Z,,0,,,2491.2260000357637,completion,,,,,false,,,,164591.19999998808,164590.90000003576,162083.008,162095.30000001192,162099.674,164599.574,8,400,,,
trial,html.Screen,4_42_0,2023-09-16T02:28:52.890Z,,0,1,,2587.8260000357695,response,ISIC_0028520.JPG,7,ISIC_9024724.JPG,ISIC_9024724.JPG,false,0,keypress(z),500,167187.90000003576,167187.40000003576,164582.908,164591.30000001192,164599.574,167199.47,8,400,43,,ISIC_0028520.JPG
break,html.Screen,4_42_1,2023-09-16T02:28:52.891Z,,0,,,NaN,,,,,,false,,,,167188.90000003576,167188.69999998808,,167188.10000002384,,167199.47,8,400,,,
break_continue,html.Screen,4_42_2,2023-09-16T02:28:52.892Z,,0,,,NaN,,,,,,false,,,,167189.19999998808,167189.19999998808,,167189,,167199.47,8,400,,,
sequence,flow.Sequence,4_42,2023-09-16T02:28:52.892Z,,0,,,2589.625999988086,completion,,,,,false,,,,167189.40000003576,167189.19999998808,164582.908,164591.30000001192,164599.574,167199.47,8,400,,,
trial,html.Screen,4_43_0,2023-09-16T02:28:55.329Z,,0,1,,2426.729999988078,response,ISIC_7507286.JPG,8,ISIC_0033574.JPG,ISIC_7507286.JPG,false,1,keypress(m),500,169626.60000002384,169626.19999998808,167182.804,167189.69999998808,167199.47,169633.531,8,400,44,,ISIC_0033574.JPG
break,html.Screen,4_43_1,2023-09-16T02:28:55.330Z,,0,,,NaN,,,,,,false,,,,169627.60000002384,169627.40000003576,,169626.80000001192,,169633.531,8,400,,,
break_continue,html.Screen,4_43_2,2023-09-16T02:28:55.330Z,,0,,,NaN,,,,,,false,,,,169628,169627.80000001192,,169627.80000001192,,169633.531,8,400,,,
sequence,flow.Sequence,4_43,2023-09-16T02:28:55.330Z,,0,,,2428.3300000119198,completion,,,,,false,,,,169628.19999998808,169627.80000001192,167182.804,167189.60000002384,167199.47,169633.531,8,400,,,
trial,html.Screen,4_44_0,2023-09-16T02:28:57.812Z,,0,1,,2475.3690000357747,response,ISIC_0046340.JPG,8,ISIC_0033083.JPG,ISIC_0046340.JPG,false,1,keypress(m),500,172109.40000003576,172108.90000003576,169616.865,169628.30000001192,169633.531,172116.765,8,400,45,,ISIC_0033083.JPG
break,html.Screen,4_44_1,2023-09-16T02:28:57.812Z,,0,,,NaN,,,,,,false,,,,172110.19999998808,172110.10000002384,,172109.69999998808,,172116.765,8,400,,,
break_continue,html.Screen,4_44_2,2023-09-16T02:28:57.813Z,,0,,,NaN,,,,,,false,,,,172110.5,172110.40000003576,,172110.40000003576,,172116.765,8,400,,,
sequence,flow.Sequence,4_44,2023-09-16T02:28:57.813Z,,0,,,2476.8690000357747,completion,,,,,false,,,,172110.69999998808,172110.40000003576,169616.865,169628.30000001192,169633.531,172116.765,8,400,,,
trial,html.Screen,4_45_0,2023-09-16T02:29:00.490Z,,0,1,,2670.335000023828,response,ISIC_8561963.JPG,6,ISIC_0070046.JPG,ISIC_0070046.JPG,false,0,keypress(z),500,174787.60000002384,174787.10000002384,172100.099,172110.80000001192,172116.765,174799.991,8,400,46,,ISIC_8561963.JPG
break,html.Screen,4_45_1,2023-09-16T02:29:00.491Z,,0,,,NaN,,,,,,false,,,,174788.60000002384,174788.40000003576,,174787.90000003576,,174799.991,8,400,,,
break_continue,html.Screen,4_45_2,2023-09-16T02:29:00.491Z,,0,,,NaN,,,,,,false,,,,174788.90000003576,174788.80000001192,,174788.69999998808,,174799.991,8,400,,,
sequence,flow.Sequence,4_45,2023-09-16T02:29:00.491Z,,0,,,2672.035000011907,completion,,,,,false,,,,174789.19999998808,174788.80000001192,172100.099,172110.69999998808,172116.765,174799.991,8,400,,,
trial,html.Screen,4_46_0,2023-09-16T02:29:03.006Z,,0,1,,2503.4090000357537,response,ISIC_0034032.JPG,8,ISIC_0014117.JPG,ISIC_0014117.JPG,false,0,keypress(z),500,177303.90000003576,177303.40000003576,174783.325,174789.30000001192,174799.991,177316.557,8,400,47,,ISIC_0034032.JPG
break,html.Screen,4_46_1,2023-09-16T02:29:03.007Z,,0,,,NaN,,,,,,false,,,,177304.90000003576,177304.69999998808,,177304.19999998808,,177316.557,8,400,,,
break_continue,html.Screen,4_46_2,2023-09-16T02:29:03.007Z,,0,,,NaN,,,,,,false,,,,177305.30000001192,177305.19999998808,,177305,,177316.557,8,400,,,
sequence,flow.Sequence,4_46,2023-09-16T02:29:03.007Z,,0,,,2505.20899998807,completion,,,,,false,,,,177305.5,177305.19999998808,174783.325,174789.19999998808,174799.991,177316.557,8,400,,,
trial,html.Screen,4_47_0,2023-09-16T02:29:05.474Z,,0,1,,2455.2430000119202,response,ISIC_7870290.JPG,8,ISIC_0031233.JPG,ISIC_7870290.JPG,false,1,keypress(m),500,179772.30000001192,179771.80000001192,177299.891,177305.69999998808,177316.557,179783.95,8,400,48,,ISIC_0031233.JPG
break,html.Screen,4_47_1,2023-09-16T02:29:05.475Z,,0,,,NaN,,,,,,false,,,,179773.30000001192,179773.10000002384,,179772.60000002384,,179783.95,8,400,,,
break_continue,html.Screen,4_47_2,2023-09-16T02:29:05.475Z,,0,,,NaN,,,,,,false,,,,179773.60000002384,179773.5,,179773.40000003576,,179783.95,8,400,,,
sequence,flow.Sequence,4_47,2023-09-16T02:29:05.476Z,,0,,,2456.9429999999993,completion,,,,,false,,,,179773.80000001192,179773.5,177299.891,177305.69999998808,177316.557,179783.95,8,400,,,
trial,html.Screen,4_48_0,2023-09-16T02:29:08.857Z,,0,1,,3370.65000002383,response,ISIC_4070687.JPG,8,ISIC_0030981.JPG,ISIC_0030981.JPG,false,0,keypress(z),500,183155,183154.60000002384,179767.284,179774,179783.95,183167.148,8,400,49,,ISIC_4070687.JPG
break,html.Screen,4_48_1,2023-09-16T02:29:08.858Z,,0,,,NaN,,,,,,false,,,,183156.10000002384,183155.80000001192,,183155.30000001192,,183167.148,8,400,,,
break_continue,html.Screen,4_48_2,2023-09-16T02:29:08.858Z,,0,,,NaN,,,,,,false,,,,183156.40000003576,183156.30000001192,,183156.30000001192,,183167.148,8,400,,,
sequence,flow.Sequence,4_48,2023-09-16T02:29:08.858Z,,0,,,3372.3500000119093,completion,,,,,false,,,,183156.69999998808,183156.30000001192,179767.284,179773.90000003576,179783.95,183167.148,8,400,,,
trial,html.Screen,4_49_0,2023-09-16T02:29:11.712Z,,0,1,,2843.1520000119344,response,ISIC_0067972.JPG,7,ISIC_6895016.JPG,ISIC_6895016.JPG,false,0,keypress(z),500,186010.69999998808,186010.30000001192,183150.482,183156.80000001192,183167.148,186117.03,8,400,50,,ISIC_0067972.JPG
break,html.Screen,4_49_1,2023-09-16T02:29:21.806Z,,0,,,10000.380999999994,timeout,,,,,false,,,,196105.60000002384,196100.745,186000.368,186011.10000002384,186117.03,196117.411,8,400,,,
break_continue,html.Screen,4_49_2,2023-09-16T02:29:22.834Z,,0,,,1006.7889999880863,response,,,,,false,continue,keypress(Space),,197133.60000002384,197124.19999998808,196100.745,196105.80000001192,196117.411,197150.703,8,400,,,
sequence,flow.Sequence,4_49,2023-09-16T02:29:22.835Z,,0,,,13957.051999988093,completion,,,,,false,,,,197133.80000001192,197124.19999998808,183150.482,183156.80000001192,183167.148,197150.703,8,400,,,
trial,html.Screen,4_50_0,2023-09-16T02:29:25.928Z,,0,2,,3076.2969999999914,response,ISIC_0316668.JPG,8,ISIC_0010140.JPG,ISIC_0316668.JPG,false,1,keypress(m),500,200227.5,200227,197134.037,197133.90000003576,197150.703,200234.741,8,400,1,,ISIC_0010140.JPG
break,html.Screen,4_50_1,2023-09-16T02:29:25.929Z,,0,,,NaN,,,,,,false,,,,200228.5,200228.30000001192,,200227.80000001192,,200234.741,8,400,,,
break_continue,html.Screen,4_50_2,2023-09-16T02:29:25.929Z,,0,,,NaN,,,,,,false,,,,200228.90000003576,200228.69999998808,,200228.60000002384,,200234.741,8,400,,,
sequence,flow.Sequence,4_50,2023-09-16T02:29:25.930Z,,0,,,3077.9969999880705,completion,,,,,false,,,,200229.10000002384,200228.69999998808,197134.037,197133.80000001192,197150.703,200234.741,8,400,,,
trial,html.Screen,4_51_0,2023-09-16T02:29:28.751Z,,0,2,,2815.559000011912,response,ISIC_5555700.JPG,8,ISIC_0069918.JPG,ISIC_0069918.JPG,false,0,keypress(z),500,203050.69999998808,203050.30000001192,200218.075,200229.19999998808,200234.741,203067.961,8,400,2,,ISIC_5555700.JPG
break,html.Screen,4_51_1,2023-09-16T02:29:28.752Z,,0,,,NaN,,,,,,false,,,,203051.69999998808,203051.5,,203051,,203067.961,8,400,,,
break_continue,html.Screen,4_51_2,2023-09-16T02:29:28.753Z,,0,,,NaN,,,,,,false,,,,203052,203051.90000003576,,203051.90000003576,,203067.961,8,400,,,
sequence,flow.Sequence,4_51,2023-09-16T02:29:28.753Z,,0,,,2817.1590000357537,completion,,,,,false,,,,203052.30000001192,203051.90000003576,200218.075,200229.10000002384,200234.741,203067.961,8,400,,,
trial,html.Screen,4_52_0,2023-09-16T02:29:31.705Z,,0,2,,2936.1390000238316,response,ISIC_0030597.JPG,8,ISIC_0056257.JPG,ISIC_0030597.JPG,false,1,keypress(m),500,206004.5,206004.10000002384,203051.295,203052.5,203067.961,206017.843,8,400,3,,ISIC_0056257.JPG
break,html.Screen,4_52_1,2023-09-16T02:29:31.706Z,,0,,,NaN,,,,,,false,,,,206005.5,206005.30000001192,,206004.80000001192,,206017.843,8,400,,,
break_continue,html.Screen,4_52_2,2023-09-16T02:29:31.706Z,,0,,,NaN,,,,,,false,,,,206005.90000003576,206005.80000001192,,206005.60000002384,,206017.843,8,400,,,
sequence,flow.Sequence,4_52,2023-09-16T02:29:31.706Z,,0,,,2937.8390000119107,completion,,,,,false,,,,206006.10000002384,206005.80000001192,203051.295,203052.40000003576,203067.961,206017.843,8,400,,,
trial,html.Screen,4_53_0,2023-09-16T02:29:34.713Z,,0,2,,2994.5570000357693,response,ISIC_2231191.JPG,8,ISIC_6640686.JPG,ISIC_2231191.JPG,false,1,keypress(m),500,209012.80000001192,209012.40000003576,206001.177,206006.30000001192,206017.843,209018.539,8,400,4,,ISIC_6640686.JPG
break,html.Screen,4_53_1,2023-09-16T02:29:34.714Z,,0,,,NaN,,,,,,false,,,,209013.40000003576,209013.30000001192,,209013,,209018.539,8,400,,,
break_continue,html.Screen,4_53_2,2023-09-16T02:29:34.714Z,,0,,,NaN,,,,,,false,,,,209013.69999998808,209013.60000002384,,209013.5,,209018.539,8,400,,,
sequence,flow.Sequence,4_53,2023-09-16T02:29:34.714Z,,0,,,2995.7570000238484,completion,,,,,false,,,,209013.80000001192,209013.60000002384,206001.177,206006.30000001192,206017.843,209018.539,8,400,,,
trial,html.Screen,4_54_0,2023-09-16T02:29:37.470Z,,0,2,,2750.6609999880893,response,ISIC_0063151.JPG,6,ISIC_0031070.JPG,ISIC_0031070.JPG,false,0,keypress(z),500,211769.80000001192,211769.19999998808,209001.873,209013.80000001192,209018.539,211785.095,8,400,5,,ISIC_0063151.JPG
break,html.Screen,4_54_1,2023-09-16T02:29:37.471Z,,0,,,NaN,,,,,,false,,,,211770.80000001192,211770.5,,211770,,211785.095,8,400,,,
break_continue,html.Screen,4_54_2,2023-09-16T02:29:37.471Z,,0,,,NaN,,,,,,false,,,,211771.19999998808,211771.10000002384,,211770.90000003576,,211785.095,8,400,,,
sequence,flow.Sequence,4_54,2023-09-16T02:29:37.471Z,,0,,,2752.561000023852,completion,,,,,false,,,,211771.30000001192,211771.10000002384,209001.873,209013.80000001192,209018.539,211785.095,8,400,,,
trial,html.Screen,4_55_0,2023-09-16T02:29:40.194Z,,0,2,,2708.3050000357616,response,ISIC_3249704.JPG,8,ISIC_0010240.JPG,ISIC_3249704.JPG,false,1,keypress(m),500,214493.90000003576,214493.40000003576,211768.429,211771.5,211785.095,214501.653,8,400,6,,ISIC_0010240.JPG
break,html.Screen,4_55_1,2023-09-16T02:29:40.195Z,,0,,,NaN,,,,,,false,,,,214494.80000001192,214494.69999998808,,214494.10000002384,,214501.653,8,400,,,
break_continue,html.Screen,4_55_2,2023-09-16T02:29:40.195Z,,0,,,NaN,,,,,,false,,,,214495.19999998808,214495.10000002384,,214494.90000003576,,214501.653,8,400,,,
sequence,flow.Sequence,4_55,2023-09-16T02:29:40.195Z,,0,,,2710.0050000238407,completion,,,,,false,,,,214495.40000003576,214495.10000002384,211768.429,211771.5,211785.095,214501.653,8,400,,,
trial,html.Screen,4_56_0,2023-09-16T02:29:42.886Z,,0,2,,2684.14700001193,response,ISIC_9709594.JPG,7,ISIC_0055282.JPG,ISIC_9709594.JPG,false,1,keypress(m),500,217186.19999998808,217185.80000001192,214484.987,214495.60000002384,214501.653,217201.545,8,400,7,,ISIC_0055282.JPG
break,html.Screen,4_56_1,2023-09-16T02:29:42.887Z,,0,,,NaN,,,,,,false,,,,217187.30000001192,217187.10000002384,,217186.5,,217201.545,8,400,,,
break_continue,html.Screen,4_56_2,2023-09-16T02:29:42.887Z,,0,,,NaN,,,,,,false,,,,217187.69999998808,217187.60000002384,,217187.40000003576,,217201.545,8,400,,,
sequence,flow.Sequence,4_56,2023-09-16T02:29:42.888Z,,0,,,2685.9470000238507,completion,,,,,false,,,,217187.90000003576,217187.60000002384,214484.987,214495.5,214501.653,217201.545,8,400,,,
trial,html.Screen,4_57_0,2023-09-16T02:29:45.999Z,,0,2,,3097.6549999880663,response,ISIC_0897526.JPG,7,ISIC_1920685.JPG,ISIC_0897526.JPG,false,1,keypress(m),500,220299.80000001192,220299.19999998808,217184.879,217188,217201.545,220302.175,8,400,8,,ISIC_1920685.JPG
break,html.Screen,4_57_1,2023-09-16T02:29:46.000Z,,0,,,NaN,,,,,,false,,,,220300.80000001192,220300.5,,220300.10000002384,,220302.175,8,400,,,
break_continue,html.Screen,4_57_2,2023-09-16T02:29:46.001Z,,0,,,NaN,,,,,,false,,,,220301.10000002384,220301,,220300.90000003576,,220302.175,8,400,,,
sequence,flow.Sequence,4_57,2023-09-16T02:29:46.001Z,,0,,,3099.454999999987,completion,,,,,false,,,,220301.30000001192,220301,217184.879,217188,217201.545,220302.175,8,400,,,
trial,html.Screen,4_58_0,2023-09-16T02:29:48.646Z,,0,2,,2643.6250000119326,response,ISIC_0033729.JPG,8,ISIC_0006744.JPG,ISIC_0006744.JPG,false,0,keypress(z),500,222946.19999998808,222945.80000001192,220285.509,220301.40000003576,220302.175,222952.069,8,400,9,,ISIC_0033729.JPG
break,html.Screen,4_58_1,2023-09-16T02:29:48.647Z,,0,,,NaN,,,,,,false,,,,222947.19999998808,222947,,222946.5,,222952.069,8,400,,,
break_continue,html.Screen,4_58_2,2023-09-16T02:29:48.647Z,,0,,,NaN,,,,,,false,,,,222947.60000002384,222947.5,,222947.30000001192,,222952.069,8,400,,,
sequence,flow.Sequence,4_58,2023-09-16T02:29:48.647Z,,0,,,2645.3250000000116,completion,,,,,false,,,,222947.80000001192,222947.5,220285.509,220301.30000001192,220302.175,222952.069,8,400,,,
trial,html.Screen,4_59_0,2023-09-16T02:29:51.792Z,,0,2,,3140.4310000000114,response,ISIC_0060326.JPG,8,ISIC_0753491.JPG,ISIC_0753491.JPG,false,0,keypress(z),500,226093,226092.5,222935.403,222947.90000003576,222952.069,226101.943,8,400,10,,ISIC_0060326.JPG
break,html.Screen,4_59_1,2023-09-16T02:29:51.793Z,,0,,,NaN,,,,,,false,,,,226094.10000002384,226093.80000001192,,226093.30000001192,,226101.943,8,400,,,
break_continue,html.Screen,4_59_2,2023-09-16T02:29:51.794Z,,0,,,NaN,,,,,,false,,,,226094.40000003576,226094.30000001192,,226094.19999998808,,226101.943,8,400,,,
sequence,flow.Sequence,4_59,2023-09-16T02:29:51.794Z,,0,,,3142.2310000119323,completion,,,,,false,,,,226094.60000002384,226094.30000001192,222935.403,222947.90000003576,222952.069,226101.943,8,400,,,
trial,html.Screen,4_60_0,2023-09-16T02:29:55.172Z,,0,2,,3370.8570000119216,response,ISIC_8169564.JPG,8,ISIC_8689112.JPG,ISIC_8689112.JPG,false,0,keypress(z),500,229473.30000001192,229472.80000001192,226085.277,226094.80000001192,226101.943,229485.871,8,400,11,,ISIC_8169564.JPG
break,html.Screen,4_60_1,2023-09-16T02:29:55.173Z,,0,,,NaN,,,,,,false,,,,229474.30000001192,229474.10000002384,,229473.60000002384,,229485.871,8,400,,,
break_continue,html.Screen,4_60_2,2023-09-16T02:29:55.174Z,,0,,,NaN,,,,,,false,,,,229474.69999998808,229474.5,,229474.40000003576,,229485.871,8,400,,,
sequence,flow.Sequence,4_60,2023-09-16T02:29:55.174Z,,0,,,3372.5570000000007,completion,,,,,false,,,,229474.80000001192,229474.5,226085.277,226094.69999998808,226101.943,229485.871,8,400,,,
trial,html.Screen,4_61_0,2023-09-16T02:29:57.979Z,,0,2,,2794.1289999999863,response,ISIC_2364150.JPG,8,ISIC_5233769.JPG,ISIC_2364150.JPG,false,1,keypress(m),500,232280.60000002384,232280,229469.205,229475,229485.871,232285.759,8,400,12,,ISIC_5233769.JPG
break,html.Screen,4_61_1,2023-09-16T02:29:57.981Z,,0,,,NaN,,,,,,false,,,,232281.69999998808,232281.5,,232281,,232285.759,8,400,,,
break_continue,html.Screen,4_61_2,2023-09-16T02:29:57.981Z,,0,,,NaN,,,,,,false,,,,232282.19999998808,232282,,232281.90000003576,,232285.759,8,400,,,
sequence,flow.Sequence,4_61,2023-09-16T02:29:57.981Z,,0,,,2796.1289999999863,completion,,,,,false,,,,232282.40000003576,232282,229469.205,229474.90000003576,229485.871,232285.759,8,400,,,
trial,html.Screen,4_62_0,2023-09-16T02:30:01.376Z,,0,2,,3391.141000035772,response,ISIC_9219356.JPG,9,ISIC_0070246.JPG,ISIC_0070246.JPG,false,0,keypress(z),500,235677.5,235676.90000003576,232269.093,232282.5,232285.759,235685.623,8,400,13,,ISIC_9219356.JPG
break,html.Screen,4_62_1,2023-09-16T02:30:01.377Z,,0,,,NaN,,,,,,false,,,,235678.60000002384,235678.30000001192,,235677.80000001192,,235685.623,8,400,,,
break_continue,html.Screen,4_62_2,2023-09-16T02:30:01.378Z,,0,,,NaN,,,,,,false,,,,235678.90000003576,235678.69999998808,,235678.69999998808,,235685.623,8,400,,,
sequence,flow.Sequence,4_62,2023-09-16T02:30:01.378Z,,0,,,3392.940999988088,completion,,,,,false,,,,235679.10000002384,235678.69999998808,232269.093,232282.40000003576,232285.759,235685.623,8,400,,,
trial,html.Screen,4_63_0,2023-09-16T02:30:03.887Z,,0,2,,2502.9770000238495,response,ISIC_0000660.JPG,7,ISIC_1330008.JPG,ISIC_0000660.JPG,false,1,keypress(m),500,238188.90000003576,238188.60000002384,235668.957,235679.30000001192,235685.623,238202.189,8,400,14,,ISIC_1330008.JPG
break,html.Screen,4_63_1,2023-09-16T02:30:03.888Z,,0,,,NaN,,,,,,false,,,,238189.30000001192,238189.30000001192,,238189,,238202.189,8,400,,,
break_continue,html.Screen,4_63_2,2023-09-16T02:30:03.888Z,,0,,,NaN,,,,,,false,,,,238189.5,238189.40000003576,,238189.40000003576,,238202.189,8,400,,,
sequence,flow.Sequence,4_63,2023-09-16T02:30:03.888Z,,0,,,2503.7770000357705,completion,,,,,false,,,,238189.5,238189.40000003576,235668.957,235679.19999998808,235685.623,238202.189,8,400,,,
trial,html.Screen,4_64_0,2023-09-16T02:30:07.223Z,,0,2,,3321.810999999987,response,ISIC_4494516.JPG,6,ISIC_0054792.JPG,ISIC_0054792.JPG,false,0,keypress(z),500,241524.5,241524,238185.523,238189.69999998808,238202.189,241536.211,8,400,15,,ISIC_4494516.JPG
break,html.Screen,4_64_1,2023-09-16T02:30:07.224Z,,0,,,NaN,,,,,,false,,,,241525.5,241525.30000001192,,241524.80000001192,,241536.211,8,400,,,
break_continue,html.Screen,4_64_2,2023-09-16T02:30:07.224Z,,0,,,NaN,,,,,,false,,,,241525.90000003576,241525.69999998808,,241525.60000002384,,241536.211,8,400,,,
sequence,flow.Sequence,4_64,2023-09-16T02:30:07.224Z,,0,,,3323.510999988066,completion,,,,,false,,,,241526,241525.69999998808,238185.523,238189.69999998808,238202.189,241536.211,8,400,,,
trial,html.Screen,4_65_0,2023-09-16T02:30:10.075Z,,0,2,,2839.7889999999898,response,ISIC_0065200.JPG,8,ISIC_0061141.JPG,ISIC_0061141.JPG,false,0,keypress(z),500,244376.5,244376,241519.545,241526.19999998808,241536.211,244386.097,8,400,16,,ISIC_0065200.JPG
break,html.Screen,4_65_1,2023-09-16T02:30:10.076Z,,0,,,NaN,,,,,,false,,,,244377.5,244377.30000001192,,244376.69999998808,,244386.097,8,400,,,
break_continue,html.Screen,4_65_2,2023-09-16T02:30:10.076Z,,0,,,NaN,,,,,,false,,,,244377.80000001192,244377.69999998808,,244377.5,,244386.097,8,400,,,
sequence,flow.Sequence,4_65,2023-09-16T02:30:10.076Z,,0,,,2841.488999988069,completion,,,,,false,,,,244378,244377.69999998808,241519.545,241526.19999998808,241536.211,244386.097,8,400,,,
trial,html.Screen,4_66_0,2023-09-16T02:30:13.168Z,,0,2,,3083.803000035754,response,ISIC_0032433.JPG,8,ISIC_3885041.JPG,ISIC_0032433.JPG,false,1,keypress(m),500,247470.30000001192,247469.90000003576,244369.431,244378.19999998808,244386.097,247485.973,8,400,17,,ISIC_3885041.JPG
break,html.Screen,4_66_1,2023-09-16T02:30:13.169Z,,0,,,NaN,,,,,,false,,,,247471.30000001192,247471.10000002384,,247470.60000002384,,247485.973,8,400,,,
break_continue,html.Screen,4_66_2,2023-09-16T02:30:13.170Z,,0,,,NaN,,,,,,false,,,,247471.69999998808,247471.5,,247471.40000003576,,247485.973,8,400,,,
sequence,flow.Sequence,4_66,2023-09-16T02:30:13.170Z,,0,,,3085.402999999991,completion,,,,,false,,,,247471.90000003576,247471.5,244369.431,244378,244386.097,247485.973,8,400,,,
trial,html.Screen,4_67_0,2023-09-16T02:30:16.085Z,,0,2,,2901.027000000002,response,ISIC_5557025.JPG,5,ISIC_6914698.JPG,ISIC_6914698.JPG,false,0,keypress(z),500,250387.40000003576,250387,247469.307,247472,247485.973,250403.431,8,400,18,,ISIC_5557025.JPG
break,html.Screen,4_67_1,2023-09-16T02:30:16.086Z,,0,,,NaN,,,,,,false,,,,250388.40000003576,250388.19999998808,,250387.69999998808,,250403.431,8,400,,,
break_continue,html.Screen,4_67_2,2023-09-16T02:30:16.087Z,,0,,,NaN,,,,,,false,,,,250388.80000001192,250388.60000002384,,250388.5,,250403.431,8,400,,,
sequence,flow.Sequence,4_67,2023-09-16T02:30:16.087Z,,0,,,2902.6270000238437,completion,,,,,false,,,,250389,250388.60000002384,247469.307,247472,247485.973,250403.431,8,400,,,
trial,html.Screen,4_68_0,2023-09-16T02:30:19.212Z,,0,2,,3110.8690000119095,response,ISIC_8425541.JPG,7,ISIC_3764173.JPG,ISIC_3764173.JPG,false,0,keypress(z),500,253514.90000003576,253514.30000001192,250386.765,250389.10000002384,250403.431,253519.973,8,400,19,,ISIC_8425541.JPG
break,html.Screen,4_68_1,2023-09-16T02:30:19.213Z,,0,,,NaN,,,,,,false,,,,253515.80000001192,253515.60000002384,,253515.10000002384,,253519.973,8,400,,,
break_continue,html.Screen,4_68_2,2023-09-16T02:30:19.214Z,,0,,,NaN,,,,,,false,,,,253516.19999998808,253516.10000002384,,253515.90000003576,,253519.973,8,400,,,
sequence,flow.Sequence,4_68,2023-09-16T02:30:19.214Z,,0,,,3112.6690000238304,completion,,,,,false,,,,253516.30000001192,253516.10000002384,250386.765,250389,250403.431,253519.973,8,400,,,
trial,html.Screen,4_69_0,2023-09-16T02:30:21.939Z,,0,2,,2720.9270000357646,response,ISIC_5415749.JPG,7,ISIC_0418738.JPG,ISIC_5415749.JPG,false,1,keypress(m),500,256241.40000003576,256240.90000003576,253503.307,253516.5,253519.973,256253.197,8,400,20,,ISIC_0418738.JPG
break,html.Screen,4_69_1,2023-09-16T02:30:21.940Z,,0,,,NaN,,,,,,false,,,,256242.30000001192,256242.19999998808,,256241.69999998808,,256253.197,8,400,,,
break_continue,html.Screen,4_69_2,2023-09-16T02:30:21.940Z,,0,,,NaN,,,,,,false,,,,256242.80000001192,256242.60000002384,,256242.5,,256253.197,8,400,,,
sequence,flow.Sequence,4_69,2023-09-16T02:30:21.941Z,,0,,,2722.6270000238437,completion,,,,,false,,,,256243.10000002384,256242.60000002384,253503.307,253516.5,253519.973,256253.197,8,400,,,
trial,html.Screen,4_70_0,2023-09-16T02:30:25.098Z,,0,2,,3146.6030000119354,response,ISIC_0013792.JPG,8,ISIC_0034202.JPG,ISIC_0013792.JPG,false,1,keypress(m),500,259400.30000001192,259399.80000001192,256236.531,256243.19999998808,256253.197,259403.071,8,400,21,,ISIC_0034202.JPG
break,html.Screen,4_70_1,2023-09-16T02:30:25.099Z,,0,,,NaN,,,,,,false,,,,259401.30000001192,259401,,259400.60000002384,,259403.071,8,400,,,
break_continue,html.Screen,4_70_2,2023-09-16T02:30:25.099Z,,0,,,NaN,,,,,,false,,,,259401.69999998808,259401.60000002384,,259401.40000003576,,259403.071,8,400,,,
sequence,flow.Sequence,4_70,2023-09-16T02:30:25.099Z,,0,,,3148.4030000238563,completion,,,,,false,,,,259401.90000003576,259401.60000002384,256236.531,256243.19999998808,256253.197,259403.071,8,400,,,
trial,html.Screen,4_71_0,2023-09-16T02:30:27.958Z,,0,2,,2856.9290000000037,response,ISIC_3397377.JPG,7,ISIC_0062576.JPG,ISIC_3397377.JPG,false,1,keypress(m),500,262260.5,262260,259386.405,259402,259403.071,262270.364,8,400,22,,ISIC_0062576.JPG
break,html.Screen,4_71_1,2023-09-16T02:30:27.959Z,,0,,,NaN,,,,,,false,,,,262261.5,262261.3000000119,,262260.90000003576,,262270.364,8,400,,,
break_continue,html.Screen,4_71_2,2023-09-16T02:30:27.959Z,,0,,,NaN,,,,,,false,,,,262261.8000000119,262261.6999999881,,262261.60000002384,,262270.364,8,400,,,
sequence,flow.Sequence,4_71,2023-09-16T02:30:27.959Z,,0,,,2858.628999988083,completion,,,,,false,,,,262262,262261.6999999881,259386.405,259401.90000003576,259403.071,262270.364,8,400,,,
trial,html.Screen,4_72_0,2023-09-16T02:30:30.525Z,,0,2,,2557.5360000357614,response,ISIC_0034032.JPG,9,ISIC_0025970.JPG,ISIC_0025970.JPG,false,0,keypress(z),500,264828.1999999881,264827.90000003576,262253.698,262262.1999999881,262270.364,264836.928,8,400,23,,ISIC_0034032.JPG
break,html.Screen,4_72_1,2023-09-16T02:30:30.526Z,,0,,,NaN,,,,,,false,,,,264829,264828.90000003576,,264828.5,,264836.928,8,400,,,
break_continue,html.Screen,4_72_2,2023-09-16T02:30:30.526Z,,0,,,NaN,,,,,,false,,,,264829.3000000119,264829.1999999881,,264829.10000002384,,264836.928,8,400,,,
sequence,flow.Sequence,4_72,2023-09-16T02:30:30.526Z,,0,,,2558.8359999880777,completion,,,,,false,,,,264829.40000003576,264829.1999999881,262253.698,262262.1999999881,262270.364,264836.928,8,400,,,
trial,html.Screen,4_73_0,2023-09-16T02:30:33.422Z,,0,2,,2887.8720000119065,response,ISIC_5504286.JPG,5,ISIC_0511526.JPG,ISIC_0511526.JPG,false,0,keypress(z),500,267725.1999999881,267724.8000000119,264820.262,264829.5,264836.928,267736.812,8,400,24,,ISIC_5504286.JPG
break,html.Screen,4_73_1,2023-09-16T02:30:33.423Z,,0,,,NaN,,,,,,false,,,,267726.1999999881,267725.90000003576,,267725.40000003576,,267736.812,8,400,,,
break_continue,html.Screen,4_73_2,2023-09-16T02:30:33.423Z,,0,,,NaN,,,,,,false,,,,267726.5,267726.40000003576,,267726.3000000119,,267736.812,8,400,,,
sequence,flow.Sequence,4_73,2023-09-16T02:30:33.424Z,,0,,,2889.4720000357484,completion,,,,,false,,,,267726.6999999881,267726.40000003576,264820.262,264829.40000003576,264836.928,267736.812,8,400,,,
trial,html.Screen,4_74_0,2023-09-16T02:30:36.085Z,,0,2,,2650.887999988103,response,ISIC_7421214.JPG,8,ISIC_7677876.JPG,ISIC_7421214.JPG,false,1,keypress(m),500,270388.1999999881,270387.6999999881,267720.146,267726.90000003576,267736.812,270403.372,8,400,25,,ISIC_7677876.JPG
break,html.Screen,4_74_1,2023-09-16T02:30:36.086Z,,0,,,NaN,,,,,,false,,,,270389.10000002384,270388.90000003576,,270388.40000003576,,270403.372,8,400,,,
break_continue,html.Screen,4_74_2,2023-09-16T02:30:36.086Z,,0,,,NaN,,,,,,false,,,,270389.5,270389.40000003576,,270389.3000000119,,270403.372,8,400,,,
sequence,flow.Sequence,4_74,2023-09-16T02:30:36.086Z,,0,,,2652.5880000357865,completion,,,,,false,,,,270389.6999999881,270389.40000003576,267720.146,267726.8000000119,267736.812,270403.372,8,400,,,
trial,html.Screen,4_75_0,2023-09-16T02:30:39.339Z,,0,2,,3238.428000011947,response,ISIC_4024062.JPG,6,ISIC_9667908.JPG,ISIC_9667908.JPG,false,0,keypress(z),500,273642.1999999881,273641.8000000119,270386.706,270389.8000000119,270403.372,273654.095,8,400,26,,ISIC_4024062.JPG
break,html.Screen,4_75_1,2023-09-16T02:30:39.340Z,,0,,,NaN,,,,,,false,,,,273643.3000000119,273643.10000002384,,273642.5,,273654.095,8,400,,,
break_continue,html.Screen,4_75_2,2023-09-16T02:30:39.340Z,,0,,,NaN,,,,,,false,,,,273643.60000002384,273643.5,,273643.40000003576,,273654.095,8,400,,,
sequence,flow.Sequence,4_75,2023-09-16T02:30:39.340Z,,0,,,3240.128000000026,completion,,,,,false,,,,273643.8000000119,273643.5,270386.706,270389.8000000119,270403.372,273654.095,8,400,,,
trial,html.Screen,4_76_0,2023-09-16T02:30:42.036Z,,0,2,,2685.3050000357907,response,ISIC_7351007.JPG,4,ISIC_9239632.JPG,ISIC_7351007.JPG,false,1,keypress(m),500,276339.90000003576,276339.40000003576,273637.429,273643.90000003576,273654.095,276353.987,8,400,27,,ISIC_9239632.JPG
break,html.Screen,4_76_1,2023-09-16T02:30:42.037Z,,0,,,NaN,,,,,,false,,,,276340.90000003576,276340.6999999881,,276340.1999999881,,276353.987,8,400,,,
break_continue,html.Screen,4_76_2,2023-09-16T02:30:42.038Z,,0,,,NaN,,,,,,false,,,,276341.1999999881,276341.10000002384,,276341,,276353.987,8,400,,,
sequence,flow.Sequence,4_76,2023-09-16T02:30:42.038Z,,0,,,2687.00500002387,completion,,,,,false,,,,276341.40000003576,276341.10000002384,273637.429,273643.90000003576,273654.095,276353.987,8,400,,,
trial,html.Screen,4_77_0,2023-09-16T02:30:45.197Z,,0,2,,3146.012999999977,response,ISIC_5771106.JPG,5,ISIC_0033545.JPG,ISIC_5771106.JPG,false,1,keypress(m),500,279500.5,279500,276337.321,276341.60000002384,276353.987,279503.861,8,400,28,,ISIC_0033545.JPG
break,html.Screen,4_77_1,2023-09-16T02:30:45.198Z,,0,,,NaN,,,,,,false,,,,279501.5,279501.3000000119,,279500.8000000119,,279503.861,8,400,,,
break_continue,html.Screen,4_77_2,2023-09-16T02:30:45.198Z,,0,,,NaN,,,,,,false,,,,279501.90000003576,279501.8000000119,,279501.60000002384,,279503.861,8,400,,,
sequence,flow.Sequence,4_77,2023-09-16T02:30:45.198Z,,0,,,3147.813000011898,completion,,,,,false,,,,279502,279501.8000000119,276337.321,276341.5,276353.987,279503.861,8,400,,,
trial,html.Screen,4_78_0,2023-09-16T02:30:48.371Z,,0,2,,3170.5390000357875,response,ISIC_0062235.JPG,8,ISIC_0059041.JPG,ISIC_0062235.JPG,false,1,keypress(m),500,282674.90000003576,282674.40000003576,279487.195,279502.1999999881,279503.861,282687.775,8,400,29,,ISIC_0059041.JPG
break,html.Screen,4_78_1,2023-09-16T02:30:48.372Z,,0,,,NaN,,,,,,false,,,,282675.90000003576,282675.6999999881,,282675.1999999881,,282687.775,8,400,,,
break_continue,html.Screen,4_78_2,2023-09-16T02:30:48.372Z,,0,,,NaN,,,,,,false,,,,282676.10000002384,282676,,282676,,282687.775,8,400,,,
sequence,flow.Sequence,4_78,2023-09-16T02:30:48.372Z,,0,,,3172.1390000000247,completion,,,,,false,,,,282676.3000000119,282676,279487.195,279502.10000002384,279503.861,282687.775,8,400,,,
trial,html.Screen,4_79_0,2023-09-16T02:30:51.032Z,,0,2,,2648.3250000238186,response,ISIC_5157775.JPG,7,ISIC_5437785.JPG,ISIC_5157775.JPG,false,1,keypress(m),500,285336.60000002384,285336.10000002384,282671.109,282676.40000003576,282687.775,285337.669,8,400,30,,ISIC_5437785.JPG
break,html.Screen,4_79_1,2023-09-16T02:30:51.033Z,,0,,,NaN,,,,,,false,,,,285337.5,285337.40000003576,,285336.90000003576,,285337.669,8,400,,,
break_continue,html.Screen,4_79_2,2023-09-16T02:30:51.034Z,,0,,,NaN,,,,,,false,,,,285337.90000003576,285337.8000000119,,285337.6999999881,,285337.669,8,400,,,
sequence,flow.Sequence,4_79,2023-09-16T02:30:51.034Z,,0,,,2650.0250000118976,completion,,,,,false,,,,285338.10000002384,285337.8000000119,282671.109,282676.3000000119,282687.775,285337.669,8,400,,,
trial,html.Screen,4_80_0,2023-09-16T02:30:53.709Z,,0,2,,2674.5309999880847,response,ISIC_5239607.JPG,4,ISIC_1939413.JPG,ISIC_1939413.JPG,false,0,keypress(z),500,288012.8000000119,288012.1999999881,285321.003,285338.3000000119,285337.669,288020.895,8,400,31,,ISIC_5239607.JPG
break,html.Screen,4_80_1,2023-09-16T02:30:53.709Z,,0,,,NaN,,,,,,false,,,,288013.6999999881,288013.5,,288013.10000002384,,288020.895,8,400,,,
break_continue,html.Screen,4_80_2,2023-09-16T02:30:53.710Z,,0,,,NaN,,,,,,false,,,,288014.10000002384,288014,,288013.90000003576,,288020.895,8,400,,,
sequence,flow.Sequence,4_80,2023-09-16T02:30:53.710Z,,0,,,2676.3310000000056,completion,,,,,false,,,,288014.3000000119,288014,285321.003,285338.1999999881,285337.669,288020.895,8,400,,,
trial,html.Screen,4_81_0,2023-09-16T02:30:56.850Z,,0,2,,3132.8049999880604,response,ISIC_1285870.JPG,8,ISIC_0013691.JPG,ISIC_0013691.JPG,false,0,keypress(z),500,291154.10000002384,291153.6999999881,288004.229,288014.40000003576,288020.895,291154.962,8,400,32,,ISIC_1285870.JPG
break,html.Screen,4_81_1,2023-09-16T02:30:56.850Z,,0,,,NaN,,,,,,false,,,,291154.8000000119,291154.6999999881,,291154.3000000119,,291154.962,8,400,,,
break_continue,html.Screen,4_81_2,2023-09-16T02:30:56.851Z,,0,,,NaN,,,,,,false,,,,291155,291155,,291154.90000003576,,291154.962,8,400,,,
sequence,flow.Sequence,4_81,2023-09-16T02:30:56.851Z,,0,,,3134.1049999999814,completion,,,,,false,,,,291155.10000002384,291155,288004.229,288014.40000003576,288020.895,291154.962,8,400,,,
trial,html.Screen,4_82_0,2023-09-16T02:30:59.400Z,,0,2,,2548.8380000119214,response,ISIC_5849178.JPG,5,ISIC_0032232.JPG,ISIC_5849178.JPG,false,1,keypress(m),500,293704.10000002384,293703.8000000119,291138.296,291155.10000002384,291154.962,293721.526,8,400,33,,ISIC_0032232.JPG
break,html.Screen,4_82_1,2023-09-16T02:30:59.400Z,,0,,,NaN,,,,,,false,,,,293705,293704.8000000119,,293704.40000003576,,293721.526,8,400,,,
break_continue,html.Screen,4_82_2,2023-09-16T02:30:59.401Z,,0,,,NaN,,,,,,false,,,,293705.5,293705.3000000119,,293705.1999999881,,293721.526,8,400,,,
sequence,flow.Sequence,4_82,2023-09-16T02:30:59.401Z,,0,,,2550.3380000119214,completion,,,,,false,,,,293705.60000002384,293705.3000000119,291138.296,291155.10000002384,291154.962,293721.526,8,400,,,
trial,html.Screen,4_83_0,2023-09-16T02:31:01.934Z,,0,2,,2516.37400003575,response,ISIC_0033089.JPG,5,ISIC_7519274.JPG,ISIC_7519274.JPG,false,0,keypress(z),500,296238.3000000119,296237.90000003576,293704.86,293705.6999999881,293721.526,296254.758,8,400,34,,ISIC_0033089.JPG
break,html.Screen,4_83_1,2023-09-16T02:31:01.935Z,,0,,,NaN,,,,,,false,,,,296239.40000003576,296239.1999999881,,296238.60000002384,,296254.758,8,400,,,
break_continue,html.Screen,4_83_2,2023-09-16T02:31:01.935Z,,0,,,NaN,,,,,,false,,,,296239.6999999881,296239.60000002384,,296239.5,,296254.758,8,400,,,
sequence,flow.Sequence,4_83,2023-09-16T02:31:01.935Z,,0,,,2518.0740000238293,completion,,,,,false,,,,296239.90000003576,296239.60000002384,293704.86,293705.6999999881,293721.526,296254.758,8,400,,,
trial,html.Screen,4_84_0,2023-09-16T02:31:04.588Z,,0,2,,2637.4419999881065,response,ISIC_0054317.JPG,8,ISIC_7858034.JPG,ISIC_0054317.JPG,false,1,keypress(m),500,298892.6999999881,298892.1999999881,296238.092,296240,296254.758,298904.652,8,400,35,,ISIC_7858034.JPG
break,html.Screen,4_84_1,2023-09-16T02:31:04.589Z,,0,,,NaN,,,,,,false,,,,298893.8000000119,298893.60000002384,,298893.10000002384,,298904.652,8,400,,,
break_continue,html.Screen,4_84_2,2023-09-16T02:31:04.589Z,,0,,,NaN,,,,,,false,,,,298894.10000002384,298894.10000002384,,298894,,298904.652,8,400,,,
sequence,flow.Sequence,4_84,2023-09-16T02:31:04.589Z,,0,,,2639.3420000238693,completion,,,,,false,,,,298894.3000000119,298894.10000002384,296238.092,296240,296254.758,298904.652,8,400,,,
trial,html.Screen,4_85_0,2023-09-16T02:31:07.595Z,,0,2,,2995.047999988077,response,ISIC_9486917.JPG,9,ISIC_0033878.JPG,ISIC_0033878.JPG,false,0,keypress(z),500,301900.3000000119,301899.6999999881,298887.986,298894.5,298904.652,301905.317,8,400,36,,ISIC_9486917.JPG
break,html.Screen,4_85_1,2023-09-16T02:31:07.596Z,,0,,,NaN,,,,,,false,,,,301901.1999999881,301901,,301900.5,,301905.317,8,400,,,
break_continue,html.Screen,4_85_2,2023-09-16T02:31:07.597Z,,0,,,NaN,,,,,,false,,,,301901.60000002384,301901.5,,301901.3000000119,,301905.317,8,400,,,
sequence,flow.Sequence,4_85,2023-09-16T02:31:07.597Z,,0,,,2996.847999999998,completion,,,,,false,,,,301901.8000000119,301901.5,298887.986,298894.40000003576,298904.652,301905.317,8,400,,,
trial,html.Screen,4_86_0,2023-09-16T02:31:10.412Z,,0,2,,2811.882999988098,response,ISIC_0057999.JPG,5,ISIC_7342636.JPG,ISIC_0057999.JPG,false,1,keypress(m),500,304717.6999999881,304717.1999999881,301888.651,301901.90000003576,301905.317,304721.871,8,400,37,,ISIC_7342636.JPG
break,html.Screen,4_86_1,2023-09-16T02:31:10.413Z,,0,,,NaN,,,,,,false,,,,304718.6999999881,304718.40000003576,,304717.90000003576,,304721.871,8,400,,,
break_continue,html.Screen,4_86_2,2023-09-16T02:31:10.414Z,,0,,,NaN,,,,,,false,,,,304719,304718.90000003576,,304718.8000000119,,304721.871,8,400,,,
sequence,flow.Sequence,4_86,2023-09-16T02:31:10.414Z,,0,,,2813.583000035782,completion,,,,,false,,,,304719.3000000119,304718.90000003576,301888.651,301901.8000000119,301905.317,304721.871,8,400,,,
trial,html.Screen,4_87_0,2023-09-16T02:31:13.121Z,,0,2,,2704.029000035778,response,ISIC_0071430.JPG,5,ISIC_1869829.JPG,ISIC_1869829.JPG,false,0,keypress(z),500,307426.1999999881,307425.90000003576,304705.205,304719.3000000119,304721.871,307438.429,8,400,38,,ISIC_0071430.JPG
break,html.Screen,4_87_1,2023-09-16T02:31:13.121Z,,0,,,NaN,,,,,,false,,,,307426.90000003576,307426.6999999881,,307426.3000000119,,307438.429,8,400,,,
break_continue,html.Screen,4_87_2,2023-09-16T02:31:13.122Z,,0,,,NaN,,,,,,false,,,,307427.10000002384,307427,,307427,,307438.429,8,400,,,
sequence,flow.Sequence,4_87,2023-09-16T02:31:13.122Z,,0,,,2705.1290000000154,completion,,,,,false,,,,307427.10000002384,307427,304705.205,304719.3000000119,304721.871,307438.429,8,400,,,
trial,html.Screen,4_88_0,2023-09-16T02:31:16.469Z,,0,2,,3335.971000035759,response,ISIC_7651944.JPG,9,ISIC_0000957.JPG,ISIC_7651944.JPG,false,1,keypress(m),500,310774.90000003576,310774.40000003576,307421.763,307427.1999999881,307438.429,310788.295,8,400,39,,ISIC_0000957.JPG
break,html.Screen,4_88_1,2023-09-16T02:31:16.470Z,,0,,,NaN,,,,,,false,,,,310775.90000003576,310775.6999999881,,310775.1999999881,,310788.295,8,400,,,
break_continue,html.Screen,4_88_2,2023-09-16T02:31:16.471Z,,0,,,NaN,,,,,,false,,,,310776.3000000119,310776.1999999881,,310776,,310788.295,8,400,,,
sequence,flow.Sequence,4_88,2023-09-16T02:31:16.471Z,,0,,,3337.7709999880753,completion,,,,,false,,,,310776.5,310776.1999999881,307421.763,307427.1999999881,307438.429,310788.295,8,400,,,
trial,html.Screen,4_89_0,2023-09-16T02:31:19.956Z,,0,2,,3473.2050000000163,response,ISIC_4331481.JPG,8,ISIC_0055191.JPG,ISIC_4331481.JPG,false,1,keypress(m),500,314262,314261.5,310771.629,310776.60000002384,310788.295,314272.305,8,400,40,,ISIC_0055191.JPG
break,html.Screen,4_89_1,2023-09-16T02:31:19.957Z,,0,,,NaN,,,,,,false,,,,314262.90000003576,314262.6999999881,,314262.3000000119,,314272.305,8,400,,,
break_continue,html.Screen,4_89_2,2023-09-16T02:31:19.958Z,,0,,,NaN,,,,,,false,,,,314263.1999999881,314263.10000002384,,314263,,314272.305,8,400,,,
sequence,flow.Sequence,4_89,2023-09-16T02:31:19.958Z,,0,,,3474.805000023858,completion,,,,,false,,,,314263.5,314263.10000002384,310771.629,310776.5,310788.295,314272.305,8,400,,,
trial,html.Screen,4_90_0,2023-09-16T02:31:22.649Z,,0,2,,2682.195000000007,response,ISIC_0031626.JPG,7,ISIC_0010440.JPG,ISIC_0010440.JPG,false,0,keypress(z),500,316954.90000003576,316954.5,314255.639,314263.5,314272.305,316972.197,8,400,41,,ISIC_0031626.JPG
break,html.Screen,4_90_1,2023-09-16T02:31:22.650Z,,0,,,NaN,,,,,,false,,,,316955.90000003576,316955.6999999881,,316955.1999999881,,316972.197,8,400,,,
break_continue,html.Screen,4_90_2,2023-09-16T02:31:22.650Z,,0,,,NaN,,,,,,false,,,,316956.3000000119,316956.1999999881,,316956.10000002384,,316972.197,8,400,,,
sequence,flow.Sequence,4_90,2023-09-16T02:31:22.651Z,,0,,,2683.894999988086,completion,,,,,false,,,,316956.5,316956.1999999881,314255.639,314263.5,314272.305,316972.197,8,400,,,
trial,html.Screen,4_91_0,2023-09-16T02:31:25.298Z,,0,2,,2631.5029999880935,response,ISIC_7973296.JPG,6,ISIC_0015193.JPG,ISIC_7973296.JPG,false,1,keypress(m),500,319604.1999999881,319603.6999999881,316955.531,316956.60000002384,316972.197,319605.425,8,400,42,,ISIC_0015193.JPG
break,html.Screen,4_91_1,2023-09-16T02:31:25.299Z,,0,,,NaN,,,,,,false,,,,319605.1999999881,319605,,319604.5,,319605.425,8,400,,,
break_continue,html.Screen,4_91_2,2023-09-16T02:31:25.299Z,,0,,,NaN,,,,,,false,,,,319605.5,319605.40000003576,,319605.3000000119,,319605.425,8,400,,,
sequence,flow.Sequence,4_91,2023-09-16T02:31:25.300Z,,0,,,2633.203000035777,completion,,,,,false,,,,319605.8000000119,319605.40000003576,316955.531,316956.60000002384,316972.197,319605.425,8,400,,,
trial,html.Screen,4_92_0,2023-09-16T02:31:28.006Z,,0,2,,2706.1750000238535,response,ISIC_0032029.JPG,8,ISIC_0027981.JPG,ISIC_0027981.JPG,false,0,keypress(z),500,322312.10000002384,322311.60000002384,319588.759,319605.90000003576,319605.425,322322.81,8,400,43,,ISIC_0032029.JPG
break,html.Screen,4_92_1,2023-09-16T02:31:28.007Z,,0,,,NaN,,,,,,false,,,,322313.1999999881,322313,,322312.5,,322322.81,8,400,,,
break_continue,html.Screen,4_92_2,2023-09-16T02:31:28.007Z,,0,,,NaN,,,,,,false,,,,322313.5,322313.5,,322313.40000003576,,322322.81,8,400,,,
sequence,flow.Sequence,4_92,2023-09-16T02:31:28.008Z,,0,,,2708.0750000000116,completion,,,,,false,,,,322313.8000000119,322313.5,319588.759,319605.90000003576,319605.425,322322.81,8,400,,,
trial,html.Screen,4_93_0,2023-09-16T02:31:30.715Z,,0,2,,2698.1900000000023,response,ISIC_0055549.JPG,6,ISIC_0031408.JPG,ISIC_0055549.JPG,false,1,keypress(m),500,325021.5,325021,322306.144,322313.90000003576,322322.81,325022.702,8,400,44,,ISIC_0031408.JPG
break,html.Screen,4_93_1,2023-09-16T02:31:30.716Z,,0,,,NaN,,,,,,false,,,,325022.60000002384,325022.3000000119,,325021.8000000119,,325022.702,8,400,,,
break_continue,html.Screen,4_93_2,2023-09-16T02:31:30.717Z,,0,,,NaN,,,,,,false,,,,325022.90000003576,325022.8000000119,,325022.6999999881,,325022.702,8,400,,,
sequence,flow.Sequence,4_93,2023-09-16T02:31:30.717Z,,0,,,2699.9900000119233,completion,,,,,false,,,,325023.10000002384,325022.8000000119,322306.144,322313.8000000119,322322.81,325022.702,8,400,,,
trial,html.Screen,4_94_0,2023-09-16T02:31:33.376Z,,0,2,,2658.8980000238516,response,ISIC_7875959.JPG,7,ISIC_0064823.JPG,ISIC_0064823.JPG,false,0,keypress(z),500,327682,327681.60000002384,325006.036,325023.1999999881,325022.702,327689.262,8,400,45,,ISIC_7875959.JPG
break,html.Screen,4_94_1,2023-09-16T02:31:33.376Z,,0,,,NaN,,,,,,false,,,,327682.90000003576,327682.8000000119,,327682.3000000119,,327689.262,8,400,,,
break_continue,html.Screen,4_94_2,2023-09-16T02:31:33.377Z,,0,,,NaN,,,,,,false,,,,327683.3000000119,327683.1999999881,,327683.10000002384,,327689.262,8,400,,,
sequence,flow.Sequence,4_94,2023-09-16T02:31:33.377Z,,0,,,2660.497999988089,completion,,,,,false,,,,327683.5,327683.1999999881,325006.036,325023.1999999881,325022.702,327689.262,8,400,,,
trial,html.Screen,4_95_0,2023-09-16T02:31:36.058Z,,0,2,,2674.838000023854,response,ISIC_5787517.JPG,8,ISIC_0034039.JPG,ISIC_5787517.JPG,false,1,keypress(m),500,330364.60000002384,330364.10000002384,327672.596,327683.60000002384,327689.262,330372.488,8,400,46,,ISIC_0034039.JPG
break,html.Screen,4_95_1,2023-09-16T02:31:36.059Z,,0,,,NaN,,,,,,false,,,,330365.60000002384,330365.40000003576,,330364.90000003576,,330372.488,8,400,,,
break_continue,html.Screen,4_95_2,2023-09-16T02:31:36.059Z,,0,,,NaN,,,,,,false,,,,330365.90000003576,330365.8000000119,,330365.6999999881,,330372.488,8,400,,,
sequence,flow.Sequence,4_95,2023-09-16T02:31:36.059Z,,0,,,2676.538000011933,completion,,,,,false,,,,330366.10000002384,330365.8000000119,327672.596,327683.60000002384,327689.262,330372.488,8,400,,,
trial,html.Screen,4_96_0,2023-09-16T02:31:38.961Z,,0,2,,2894.812000011909,response,ISIC_1441260.JPG,8,ISIC_9543945.JPG,ISIC_9543945.JPG,false,0,keypress(z),500,333267.8000000119,333267.3000000119,330355.822,330366.1999999881,330372.488,333273.154,8,400,47,,ISIC_1441260.JPG
break,html.Screen,4_96_1,2023-09-16T02:31:38.962Z,,0,,,NaN,,,,,,false,,,,333268.60000002384,333268.40000003576,,333268,,333273.154,8,400,,,
break_continue,html.Screen,4_96_2,2023-09-16T02:31:38.962Z,,0,,,NaN,,,,,,false,,,,333268.90000003576,333268.8000000119,,333268.6999999881,,333273.154,8,400,,,
sequence,flow.Sequence,4_96,2023-09-16T02:31:38.962Z,,0,,,2896.312000011909,completion,,,,,false,,,,333269.10000002384,333268.8000000119,330355.822,330366.1999999881,330372.488,333273.154,8,400,,,
trial,html.Screen,4_97_0,2023-09-16T02:31:42.521Z,,0,2,,3554.5459999880986,response,ISIC_0063190.JPG,7,ISIC_0033616.JPG,ISIC_0063190.JPG,false,1,keypress(m),500,336828.3000000119,336827.6999999881,333256.488,333269.10000002384,333273.154,336839.678,8,400,48,,ISIC_0033616.JPG
break,html.Screen,4_97_1,2023-09-16T02:31:42.522Z,,0,,,NaN,,,,,,false,,,,336829.1999999881,336829,,336828.5,,336839.678,8,400,,,
break_continue,html.Screen,4_97_2,2023-09-16T02:31:42.523Z,,0,,,NaN,,,,,,false,,,,336829.60000002384,336829.5,,336829.3000000119,,336839.678,8,400,,,
sequence,flow.Sequence,4_97,2023-09-16T02:31:42.523Z,,0,,,3556.3460000000196,completion,,,,,false,,,,336829.6999999881,336829.5,333256.488,333269.10000002384,333273.154,336839.678,8,400,,,
trial,html.Screen,4_98_0,2023-09-16T02:31:45.565Z,,0,2,,3031.9220000238274,response,ISIC_9064823.JPG,7,ISIC_0066213.JPG,ISIC_0066213.JPG,false,0,keypress(z),500,339872,339871.60000002384,336823.012,336829.90000003576,336839.678,339889.556,8,400,49,,ISIC_9064823.JPG
break,html.Screen,4_98_1,2023-09-16T02:31:45.566Z,,0,,,NaN,,,,,,false,,,,339873,339872.90000003576,,339872.40000003576,,339889.556,8,400,,,
break_continue,html.Screen,4_98_2,2023-09-16T02:31:45.566Z,,0,,,NaN,,,,,,false,,,,339873.5,339873.3000000119,,339873.1999999881,,339889.556,8,400,,,
sequence,flow.Sequence,4_98,2023-09-16T02:31:45.566Z,,0,,,3033.6220000119065,completion,,,,,false,,,,339873.60000002384,339873.3000000119,336823.012,336829.90000003576,336839.678,339889.556,8,400,,,
trial,html.Screen,4_99_0,2023-09-16T02:31:48.786Z,,0,2,,3203.6439999880968,response,ISIC_0012450.JPG,6,ISIC_0033664.JPG,ISIC_0033664.JPG,false,0,keypress(z),500,343093.5,343093.1999999881,339872.89,339873.8000000119,339889.556,343106.833,8,400,50,,ISIC_0012450.JPG
break,html.Screen,4_99_1,2023-09-16T02:31:58.787Z,,0,,,10000.472000000009,timeout,,,,,false,,,,353095.10000002384,353090.639,343090.167,343093.8000000119,343106.833,353107.305,8,400,,,
break_continue,html.Screen,4_99_2,2023-09-16T02:31:59.280Z,,0,,,464.29500002384884,response,,,,,false,continue,keypress(Space),,353587.5,353571.60000002384,353090.639,353095.40000003576,353107.305,353590.619,8,400,,,
sequence,flow.Sequence,4_99,2023-09-16T02:31:59.280Z,,0,,,13682.04400002386,completion,,,,,false,,,,353587.6999999881,353571.60000002384,339872.89,339873.6999999881,339889.556,353590.619,8,400,,,
trial,html.Screen,4_100_0,2023-09-16T02:32:02.584Z,,0,3,,3300.7810000357567,response,ISIC_9219692.JPG,8,ISIC_0000012.JPG,ISIC_9219692.JPG,false,1,keypress(m),500,356892,356891.40000003576,353573.953,353587.6999999881,353590.619,356907.153,8,400,1,,ISIC_0000012.JPG
break,html.Screen,4_100_1,2023-09-16T02:32:02.585Z,,0,,,NaN,,,,,,false,,,,356893,356892.8000000119,,356892.3000000119,,356907.153,8,400,,,
break_continue,html.Screen,4_100_2,2023-09-16T02:32:02.585Z,,0,,,NaN,,,,,,false,,,,356893.3000000119,356893.1999999881,,356893.10000002384,,356907.153,8,400,,,
sequence,flow.Sequence,4_100,2023-09-16T02:32:02.585Z,,0,,,3302.580999988073,completion,,,,,false,,,,356893.5,356893.1999999881,353573.953,353587.6999999881,353590.619,356907.153,8,400,,,
trial,html.Screen,4_101_0,2023-09-16T02:32:05.705Z,,0,3,,3105.847000000009,response,ISIC_0024277.JPG,6,ISIC_0012099.JPG,ISIC_0024277.JPG,false,1,keypress(m),500,360013.5,360013,356890.487,356893.6999999881,356907.153,360023.695,8,400,2,,ISIC_0012099.JPG
break,html.Screen,4_101_1,2023-09-16T02:32:05.706Z,,0,,,NaN,,,,,,false,,,,360014.5,360014.40000003576,,360013.90000003576,,360023.695,8,400,,,
break_continue,html.Screen,4_101_2,2023-09-16T02:32:05.707Z,,0,,,NaN,,,,,,false,,,,360014.90000003576,360014.8000000119,,360014.6999999881,,360023.695,8,400,,,
sequence,flow.Sequence,4_101,2023-09-16T02:32:05.707Z,,0,,,3107.64700001193,completion,,,,,false,,,,360015.10000002384,360014.8000000119,356890.487,356893.6999999881,356907.153,360023.695,8,400,,,
trial,html.Screen,4_102_0,2023-09-16T02:32:09.359Z,,0,3,,3643.905000023835,response,ISIC_0010349.JPG,8,ISIC_1387456.JPG,ISIC_1387456.JPG,false,0,keypress(z),500,363667.90000003576,363667.60000002384,360007.029,360015.1999999881,360023.695,363674.369,8,400,3,,ISIC_0010349.JPG
break,html.Screen,4_102_1,2023-09-16T02:32:09.360Z,,0,,,NaN,,,,,,false,,,,363668.60000002384,363668.60000002384,,363668.10000002384,,363674.369,8,400,,,
break_continue,html.Screen,4_102_2,2023-09-16T02:32:09.360Z,,0,,,NaN,,,,,,false,,,,363668.90000003576,363668.8000000119,,363668.8000000119,,363674.369,8,400,,,
sequence,flow.Sequence,4_102,2023-09-16T02:32:09.360Z,,0,,,3645.105000011914,completion,,,,,false,,,,363669,363668.8000000119,360007.029,360015.1999999881,360023.695,363674.369,8,400,,,
trial,html.Screen,4_103_0,2023-09-16T02:32:11.943Z,,0,3,,2577.231000023836,response,ISIC_0028412.JPG,8,ISIC_0011721.JPG,ISIC_0028412.JPG,false,1,keypress(m),500,366252,366251.60000002384,363657.703,363669.10000002384,363674.369,366257.599,8,400,4,,ISIC_0011721.JPG
break,html.Screen,4_103_1,2023-09-16T02:32:11.944Z,,0,,,NaN,,,,,,false,,,,366253,366252.8000000119,,366252.40000003576,,366257.599,8,400,,,
break_continue,html.Screen,4_103_2,2023-09-16T02:32:11.945Z,,0,,,NaN,,,,,,false,,,,366253.40000003576,366253.3000000119,,366253.1999999881,,366257.599,8,400,,,
sequence,flow.Sequence,4_103,2023-09-16T02:32:11.945Z,,0,,,2578.931000011915,completion,,,,,false,,,,366253.60000002384,366253.3000000119,363657.703,363669,363674.369,366257.599,8,400,,,
trial,html.Screen,4_104_0,2023-09-16T02:32:15.336Z,,0,3,,3386.8010000357754,response,ISIC_5768602.JPG,7,ISIC_8493108.JPG,ISIC_8493108.JPG,false,0,keypress(z),500,369644.8000000119,369644.40000003576,366240.933,366253.6999999881,366257.599,369657.463,8,400,5,,ISIC_5768602.JPG
break,html.Screen,4_104_1,2023-09-16T02:32:15.337Z,,0,,,NaN,,,,,,false,,,,369645.6999999881,369645.60000002384,,369645.10000002384,,369657.463,8,400,,,
break_continue,html.Screen,4_104_2,2023-09-16T02:32:15.337Z,,0,,,NaN,,,,,,false,,,,369646.10000002384,369646.10000002384,,369645.90000003576,,369657.463,8,400,,,
sequence,flow.Sequence,4_104,2023-09-16T02:32:15.337Z,,0,,,3388.5010000238544,completion,,,,,false,,,,369646.3000000119,369646.10000002384,366240.933,366253.6999999881,366257.599,369657.463,8,400,,,
trial,html.Screen,4_105_0,2023-09-16T02:32:18.489Z,,0,3,,3140.137000023853,response,ISIC_9538419.JPG,9,ISIC_3459981.JPG,ISIC_9538419.JPG,false,1,keypress(m),500,372798.10000002384,372797.60000002384,369640.797,369646.40000003576,369657.463,372807.337,8,400,6,,ISIC_3459981.JPG
break,html.Screen,4_105_1,2023-09-16T02:32:18.490Z,,0,,,NaN,,,,,,false,,,,372799.10000002384,372798.90000003576,,372798.40000003576,,372807.337,8,400,,,
break_continue,html.Screen,4_105_2,2023-09-16T02:32:18.490Z,,0,,,NaN,,,,,,false,,,,372799.40000003576,372799.3000000119,,372799.1999999881,,372807.337,8,400,,,
sequence,flow.Sequence,4_105,2023-09-16T02:32:18.491Z,,0,,,3141.837000011932,completion,,,,,false,,,,372799.5,372799.3000000119,369640.797,369646.40000003576,369657.463,372807.337,8,400,,,
trial,html.Screen,4_106_0,2023-09-16T02:32:21.709Z,,0,3,,3210.2630000238423,response,ISIC_1638357.JPG,7,ISIC_0000860.JPG,ISIC_1638357.JPG,false,1,keypress(m),500,376018.10000002384,376017.60000002384,372790.671,372799.60000002384,372807.337,376024.622,8,400,7,,ISIC_0000860.JPG
break,html.Screen,4_106_1,2023-09-16T02:32:21.710Z,,0,,,NaN,,,,,,false,,,,376019.1999999881,376018.90000003576,,376018.40000003576,,376024.622,8,400,,,
break_continue,html.Screen,4_106_2,2023-09-16T02:32:21.710Z,,0,,,NaN,,,,,,false,,,,376019.40000003576,376019.40000003576,,376019.3000000119,,376024.622,8,400,,,
sequence,flow.Sequence,4_106,2023-09-16T02:32:21.711Z,,0,,,3212.0630000357633,completion,,,,,false,,,,376019.6999999881,376019.40000003576,372790.671,372799.60000002384,372807.337,376024.622,8,400,,,
trial,html.Screen,4_107_0,2023-09-16T02:32:24.631Z,,0,3,,2915.478000023868,response,ISIC_0772836.JPG,6,ISIC_1722909.JPG,ISIC_1722909.JPG,false,0,keypress(z),500,378940.5,378940.10000002384,376007.956,376019.8000000119,376024.622,378941.172,8,400,8,,ISIC_0772836.JPG
break,html.Screen,4_107_1,2023-09-16T02:32:24.632Z,,0,,,NaN,,,,,,false,,,,378941.3000000119,378941.10000002384,,378940.6999999881,,378941.172,8,400,,,
break_continue,html.Screen,4_107_2,2023-09-16T02:32:24.632Z,,0,,,NaN,,,,,,false,,,,378941.5,378941.40000003576,,378941.40000003576,,378941.172,8,400,,,
sequence,flow.Sequence,4_107,2023-09-16T02:32:24.632Z,,0,,,2916.778000035789,completion,,,,,false,,,,378941.6999999881,378941.40000003576,376007.956,376019.6999999881,376024.622,378941.172,8,400,,,
trial,html.Screen,4_108_0,2023-09-16T02:32:28.238Z,,0,3,,3605.8279999999795,response,ISIC_0060481.JPG,7,ISIC_0066783.JPG,ISIC_0060481.JPG,false,1,keypress(m),500,382547.5,382547,378924.506,378941.8000000119,378941.172,382557.694,8,400,9,,ISIC_0066783.JPG
break,html.Screen,4_108_1,2023-09-16T02:32:28.239Z,,0,,,NaN,,,,,,false,,,,382548.60000002384,382548.40000003576,,382547.8000000119,,382557.694,8,400,,,
break_continue,html.Screen,4_108_2,2023-09-16T02:32:28.240Z,,0,,,NaN,,,,,,false,,,,382549,382548.90000003576,,382548.8000000119,,382557.694,8,400,,,
sequence,flow.Sequence,4_108,2023-09-16T02:32:28.240Z,,0,,,3607.7280000357423,completion,,,,,false,,,,382549.1999999881,382548.90000003576,378924.506,378941.6999999881,378941.172,382557.694,8,400,,,
trial,html.Screen,4_109_0,2023-09-16T02:32:31.026Z,,0,3,,2777.706000035745,response,ISIC_3352799.JPG,8,ISIC_0068000.JPG,ISIC_3352799.JPG,false,1,keypress(m),500,385335.8000000119,385335.40000003576,382541.028,382549.40000003576,382557.694,385341.753,8,400,10,,ISIC_0068000.JPG
break,html.Screen,4_109_1,2023-09-16T02:32:31.027Z,,0,,,NaN,,,,,,false,,,,385336.90000003576,385336.60000002384,,385336.10000002384,,385341.753,8,400,,,
break_continue,html.Screen,4_109_2,2023-09-16T02:32:31.028Z,,0,,,NaN,,,,,,false,,,,385337.1999999881,385337.10000002384,,385337,,385341.753,8,400,,,
sequence,flow.Sequence,4_109,2023-09-16T02:32:31.028Z,,0,,,2779.406000023824,completion,,,,,false,,,,385337.40000003576,385337.10000002384,382541.028,382549.3000000119,382557.694,385341.753,8,400,,,
trial,html.Screen,4_110_0,2023-09-16T02:32:33.671Z,,0,3,,2639.047000011895,response,ISIC_0011520.JPG,6,ISIC_0056309.JPG,ISIC_0056309.JPG,false,0,keypress(z),500,387981.3000000119,387980.8000000119,385325.087,385337.60000002384,385341.753,387991.647,8,400,11,,ISIC_0011520.JPG
break,html.Screen,4_110_1,2023-09-16T02:32:33.672Z,,0,,,NaN,,,,,,false,,,,387982.3000000119,387982.10000002384,,387981.60000002384,,387991.647,8,400,,,
break_continue,html.Screen,4_110_2,2023-09-16T02:32:33.673Z,,0,,,NaN,,,,,,false,,,,387982.6999999881,387982.60000002384,,387982.40000003576,,387991.647,8,400,,,
sequence,flow.Sequence,4_110,2023-09-16T02:32:33.673Z,,0,,,2640.847000023816,completion,,,,,false,,,,387982.90000003576,387982.60000002384,385325.087,385337.5,385341.753,387991.647,8,400,,,
trial,html.Screen,4_111_0,2023-09-16T02:32:36.220Z,,0,3,,2538.052999988082,response,ISIC_6758042.JPG,8,ISIC_0053554.JPG,ISIC_0053554.JPG,false,0,keypress(z),500,390530.1999999881,390529.6999999881,387974.981,387983,387991.647,390541.545,8,400,12,,ISIC_6758042.JPG
break,html.Screen,4_111_1,2023-09-16T02:32:36.221Z,,0,,,NaN,,,,,,false,,,,390531.1999999881,390531,,390530.5,,390541.545,8,400,,,
break_continue,html.Screen,4_111_2,2023-09-16T02:32:36.222Z,,0,,,NaN,,,,,,false,,,,390531.60000002384,390531.5,,390531.40000003576,,390541.545,8,400,,,
sequence,flow.Sequence,4_111,2023-09-16T02:32:36.222Z,,0,,,2539.853000000003,completion,,,,,false,,,,390531.6999999881,390531.5,387974.981,387982.90000003576,387991.647,390541.545,8,400,,,
trial,html.Screen,4_112_0,2023-09-16T02:32:39.202Z,,0,3,,2970.1549999880954,response,ISIC_0059350.JPG,7,ISIC_0708542.JPG,ISIC_0708542.JPG,false,0,keypress(z),500,393512.1999999881,393511.6999999881,390524.879,390531.90000003576,390541.545,393524.759,8,400,13,,ISIC_0059350.JPG
break,html.Screen,4_112_1,2023-09-16T02:32:39.203Z,,0,,,NaN,,,,,,false,,,,393513.1999999881,393513,,393512.5,,393524.759,8,400,,,
break_continue,html.Screen,4_112_2,2023-09-16T02:32:39.203Z,,0,,,NaN,,,,,,false,,,,393513.60000002384,393513.40000003576,,393513.3000000119,,393524.759,8,400,,,
sequence,flow.Sequence,4_112,2023-09-16T02:32:39.204Z,,0,,,2971.855000035779,completion,,,,,false,,,,393513.6999999881,393513.40000003576,390524.879,390531.8000000119,390541.545,393524.759,8,400,,,
trial,html.Screen,4_113_0,2023-09-16T02:32:41.767Z,,0,3,,2552.24099999998,response,ISIC_2324728.JPG,8,ISIC_8943906.JPG,ISIC_8943906.JPG,false,0,keypress(z),500,396077.3000000119,396077,393508.093,393513.90000003576,393524.759,396092.174,8,400,14,,ISIC_2324728.JPG
break,html.Screen,4_113_1,2023-09-16T02:32:41.768Z,,0,,,NaN,,,,,,false,,,,396078.1999999881,396078,,396077.60000002384,,396092.174,8,400,,,
break_continue,html.Screen,4_113_2,2023-09-16T02:32:41.768Z,,0,,,NaN,,,,,,false,,,,396078.5,396078.40000003576,,396078.3000000119,,396092.174,8,400,,,
sequence,flow.Sequence,4_113,2023-09-16T02:32:41.768Z,,0,,,2553.6410000357428,completion,,,,,false,,,,396078.60000002384,396078.40000003576,393508.093,393513.8000000119,393524.759,396092.174,8,400,,,
trial,html.Screen,4_114_0,2023-09-16T02:32:44.542Z,,0,3,,2759.52599998808,response,ISIC_8847321.JPG,7,ISIC_0032695.JPG,ISIC_0032695.JPG,false,0,keypress(z),500,398852,398851.6999999881,396075.508,396078.6999999881,396092.174,398858.73,8,400,15,,ISIC_8847321.JPG
break,html.Screen,4_114_1,2023-09-16T02:32:44.543Z,,0,,,NaN,,,,,,false,,,,398853.1999999881,398853,,398852.3000000119,,398858.73,8,400,,,
break_continue,html.Screen,4_114_2,2023-09-16T02:32:44.543Z,,0,,,NaN,,,,,,false,,,,398853.5,398853.40000003576,,398853.3000000119,,398858.73,8,400,,,
sequence,flow.Sequence,4_114,2023-09-16T02:32:44.543Z,,0,,,2761.2260000357637,completion,,,,,false,,,,398853.60000002384,398853.40000003576,396075.508,396078.60000002384,396092.174,398858.73,8,400,,,
trial,html.Screen,4_115_0,2023-09-16T02:32:47.042Z,,0,3,,2492.8700000238605,response,ISIC_0010895.JPG,9,ISIC_0015041.JPG,ISIC_0015041.JPG,false,0,keypress(z),500,401352.1999999881,401351.60000002384,398842.064,398853.8000000119,398858.73,401358.63,8,400,16,,ISIC_0010895.JPG
break,html.Screen,4_115_1,2023-09-16T02:32:47.043Z,,0,,,NaN,,,,,,false,,,,401353.1999999881,401353,,401352.40000003576,,401358.63,8,400,,,
break_continue,html.Screen,4_115_2,2023-09-16T02:32:47.043Z,,0,,,NaN,,,,,,false,,,,401353.60000002384,401353.5,,401353.3000000119,,401358.63,8,400,,,
sequence,flow.Sequence,4_115,2023-09-16T02:32:47.043Z,,0,,,2494.7700000000186,completion,,,,,false,,,,401353.8000000119,401353.5,398842.064,398853.6999999881,398858.73,401358.63,8,400,,,
trial,html.Screen,4_116_0,2023-09-16T02:32:50.221Z,,0,3,,3173.1700000119163,response,ISIC_7959386.JPG,8,ISIC_8719134.JPG,ISIC_8719134.JPG,false,0,keypress(z),500,404532,404531.8000000119,401341.964,401353.90000003576,401358.63,404541.836,8,400,17,,ISIC_7959386.JPG
break,html.Screen,4_116_1,2023-09-16T02:32:50.222Z,,0,,,NaN,,,,,,false,,,,404532.6999999881,404532.5,,404532.1999999881,,404541.836,8,400,,,
break_continue,html.Screen,4_116_2,2023-09-16T02:32:50.222Z,,0,,,NaN,,,,,,false,,,,404532.90000003576,404532.8000000119,,404532.6999999881,,404541.836,8,400,,,
sequence,flow.Sequence,4_116,2023-09-16T02:32:50.222Z,,0,,,3174.1700000119163,completion,,,,,false,,,,404533,404532.8000000119,401341.964,401353.8000000119,401358.63,404541.836,8,400,,,
trial,html.Screen,4_117_0,2023-09-16T02:32:52.773Z,,0,3,,2541.6639999999898,response,ISIC_0010360.JPG,6,ISIC_0005494.JPG,ISIC_0005494.JPG,false,0,keypress(z),500,407084.10000002384,407083.5,404525.17,404533,404541.836,407092.511,8,400,18,,ISIC_0010360.JPG
break,html.Screen,4_117_1,2023-09-16T02:32:52.774Z,,0,,,NaN,,,,,,false,,,,407085.10000002384,407084.90000003576,,407084.3000000119,,407092.511,8,400,,,
break_continue,html.Screen,4_117_2,2023-09-16T02:32:52.775Z,,0,,,NaN,,,,,,false,,,,407085.5,407085.3000000119,,407085.1999999881,,407092.511,8,400,,,
sequence,flow.Sequence,4_117,2023-09-16T02:32:52.775Z,,0,,,2543.4640000119107,completion,,,,,false,,,,407085.6999999881,407085.3000000119,404525.17,404533,404541.836,407092.511,8,400,,,
trial,html.Screen,4_118_0,2023-09-16T02:32:55.356Z,,0,3,,2574.1889999880805,response,ISIC_0010476.JPG,6,ISIC_0247197.JPG,ISIC_0010476.JPG,false,1,keypress(m),500,409667.1999999881,409666.6999999881,407075.845,407085.8000000119,407092.511,409675.741,8,400,19,,ISIC_0247197.JPG
break,html.Screen,4_118_1,2023-09-16T02:32:55.357Z,,0,,,NaN,,,,,,false,,,,409668.1999999881,409667.90000003576,,409667.5,,409675.741,8,400,,,
break_continue,html.Screen,4_118_2,2023-09-16T02:32:55.358Z,,0,,,NaN,,,,,,false,,,,409668.60000002384,409668.40000003576,,409668.3000000119,,409675.741,8,400,,,
sequence,flow.Sequence,4_118,2023-09-16T02:32:55.358Z,,0,,,2575.889000035764,completion,,,,,false,,,,409668.6999999881,409668.40000003576,407075.845,407085.6999999881,407092.511,409675.741,8,400,,,
trial,html.Screen,4_119_0,2023-09-16T02:32:58.017Z,,0,3,,2652.458999988099,response,ISIC_0024752.JPG,8,ISIC_7246852.JPG,ISIC_7246852.JPG,false,0,keypress(z),500,412328.60000002384,412328.1999999881,409659.075,409668.8000000119,409675.741,412342.301,8,400,20,,ISIC_0024752.JPG
break,html.Screen,4_119_1,2023-09-16T02:32:58.018Z,,0,,,NaN,,,,,,false,,,,412329.3000000119,412329.1999999881,,412328.6999999881,,412342.301,8,400,,,
break_continue,html.Screen,4_119_2,2023-09-16T02:32:58.018Z,,0,,,NaN,,,,,,false,,,,412329.5,412329.40000003576,,412329.40000003576,,412342.301,8,400,,,
sequence,flow.Sequence,4_119,2023-09-16T02:32:58.018Z,,0,,,2653.659000035783,completion,,,,,false,,,,412329.60000002384,412329.40000003576,409659.075,409668.8000000119,409675.741,412342.301,8,400,,,
trial,html.Screen,4_120_0,2023-09-16T02:33:02.439Z,,0,3,,4407.699000000022,response,ISIC_0031997.JPG,7,ISIC_9199158.JPG,ISIC_0031997.JPG,false,1,keypress(m),500,416750.5,416750,412325.635,412329.6999999881,412342.301,416759.701,8,400,21,,ISIC_9199158.JPG
break,html.Screen,4_120_1,2023-09-16T02:33:02.440Z,,0,,,NaN,,,,,,false,,,,416751.5,416751.40000003576,,416750.8000000119,,416759.701,8,400,,,
break_continue,html.Screen,4_120_2,2023-09-16T02:33:02.441Z,,0,,,NaN,,,,,,false,,,,416752,416751.8000000119,,416751.6999999881,,416759.701,8,400,,,
sequence,flow.Sequence,4_120,2023-09-16T02:33:02.441Z,,0,,,4409.499000011943,completion,,,,,false,,,,416752.1999999881,416751.8000000119,412325.635,412329.60000002384,412342.301,416759.701,8,400,,,
trial,html.Screen,4_121_0,2023-09-16T02:33:05.948Z,,0,3,,3499.798999999999,response,ISIC_0015412.JPG,5,ISIC_0024227.JPG,ISIC_0024227.JPG,false,0,keypress(z),500,420259.90000003576,420259.5,416743.035,416752.40000003576,416759.701,420276.227,8,400,22,,ISIC_0015412.JPG
break,html.Screen,4_121_1,2023-09-16T02:33:05.949Z,,0,,,NaN,,,,,,false,,,,420260.90000003576,420260.6999999881,,420260.1999999881,,420276.227,8,400,,,
break_continue,html.Screen,4_121_2,2023-09-16T02:33:05.950Z,,0,,,NaN,,,,,,false,,,,420261.3000000119,420261.1999999881,,420261.10000002384,,420276.227,8,400,,,
sequence,flow.Sequence,4_121,2023-09-16T02:33:05.950Z,,0,,,3501.498999988078,completion,,,,,false,,,,420261.60000002384,420261.1999999881,416743.035,416752.3000000119,416759.701,420276.227,8,400,,,
trial,html.Screen,4_122_0,2023-09-16T02:33:08.898Z,,0,3,,2933.4729999880656,response,ISIC_8366864.JPG,8,ISIC_0066358.JPG,ISIC_0066358.JPG,false,0,keypress(z),500,423210.3000000119,423209.6999999881,420259.561,420261.6999999881,420276.227,423226.109,8,400,23,,ISIC_8366864.JPG
break,html.Screen,4_122_1,2023-09-16T02:33:08.900Z,,0,,,NaN,,,,,,false,,,,423211.3000000119,423211.10000002384,,423210.60000002384,,423226.109,8,400,,,
break_continue,html.Screen,4_122_2,2023-09-16T02:33:08.900Z,,0,,,NaN,,,,,,false,,,,423211.6999999881,423211.5,,423211.5,,423226.109,8,400,,,
sequence,flow.Sequence,4_122,2023-09-16T02:33:08.900Z,,0,,,2935.2729999999865,completion,,,,,false,,,,423211.90000003576,423211.5,420259.561,420261.60000002384,420276.227,423226.109,8,400,,,
trial,html.Screen,4_123_0,2023-09-16T02:33:11.593Z,,0,3,,2678.0909999880823,response,ISIC_0000140.JPG,6,ISIC_9223679.JPG,ISIC_0000140.JPG,false,1,keypress(m),500,425904.8000000119,425904.1999999881,423209.443,423212,423226.109,425909.335,8,400,24,,ISIC_9223679.JPG
break,html.Screen,4_123_1,2023-09-16T02:33:11.594Z,,0,,,NaN,,,,,,false,,,,425905.8000000119,425905.5,,425905,,425909.335,8,400,,,
break_continue,html.Screen,4_123_2,2023-09-16T02:33:11.594Z,,0,,,NaN,,,,,,false,,,,425906,425906,,425905.8000000119,,425909.335,8,400,,,
sequence,flow.Sequence,4_123,2023-09-16T02:33:11.594Z,,0,,,2679.8910000000033,completion,,,,,false,,,,425906.1999999881,425906,423209.443,423211.90000003576,423226.109,425909.335,8,400,,,
trial,html.Screen,4_124_0,2023-09-16T02:33:14.447Z,,0,3,,2848.9650000119,response,ISIC_8865595.JPG,8,ISIC_0014975.JPG,ISIC_0014975.JPG,false,0,keypress(z),500,428758.90000003576,428758.3000000119,425892.669,425906.3000000119,425909.335,428759.971,8,400,25,,ISIC_8865595.JPG
break,html.Screen,4_124_1,2023-09-16T02:33:14.448Z,,0,,,NaN,,,,,,false,,,,428759.8000000119,428759.6999999881,,428759.1999999881,,428759.971,8,400,,,
break_continue,html.Screen,4_124_2,2023-09-16T02:33:14.448Z,,0,,,NaN,,,,,,false,,,,428760.1999999881,428760.10000002384,,428760,,428759.971,8,400,,,
sequence,flow.Sequence,4_124,2023-09-16T02:33:14.448Z,,0,,,2850.765000023821,completion,,,,,false,,,,428760.5,428760.10000002384,425892.669,425906.1999999881,425909.335,428759.971,8,400,,,
trial,html.Screen,4_125_0,2023-09-16T02:33:17.245Z,,0,3,,2796.4290000357432,response,ISIC_0256715.JPG,6,ISIC_0032072.JPG,ISIC_0032072.JPG,false,0,keypress(z),500,431556.8000000119,431556.40000003576,428743.305,428760.60000002384,428759.971,431559.859,8,400,26,,ISIC_0256715.JPG
break,html.Screen,4_125_1,2023-09-16T02:33:17.246Z,,0,,,NaN,,,,,,false,,,,431557.8000000119,431557.60000002384,,431557.10000002384,,431559.859,8,400,,,
break_continue,html.Screen,4_125_2,2023-09-16T02:33:17.246Z,,0,,,NaN,,,,,,false,,,,431558.1999999881,431558.10000002384,,431557.90000003576,,431559.859,8,400,,,
sequence,flow.Sequence,4_125,2023-09-16T02:33:17.246Z,,0,,,2798.1290000238223,completion,,,,,false,,,,431558.40000003576,431558.10000002384,428743.305,428760.5,428759.971,431559.859,8,400,,,
