sender,sender_type,sender_id,timestamp,meta,,blockNo,condition,duration,ended_on,img_left,img_reveal,img_right,loser,practice,response,response_action,selection_duration,time_commit,time_end,time_render,time_run,time_show,time_switch,total_blocks,total_trials,trialNo,url,winner
informed_consent,html.Screen,0,2023-10-31T16:56:10.434Z,"{""labjs_version"":""20.2.4"",""labjs_build"":{""flavor"":""production"",""commit"":""f5b4a49f956347addd546a832a3327688c2c0fef""},""location"":""https://run.pavlovia.org/MurrayBennett/melanoma-2afc/?participant=66708&platform=sona"",""userAgent"":""Mozilla/5.0 (Windows NT 10.0; Win64; x64) AppleWebKit/537.36 (KHTML, like Gecko) Chrome/118.0.0.0 Safari/537.36 Edg/118.0.2088.76"",""platform"":""Win32"",""language"":""en-US"",""locale"":""en-US"",""timeZone"":""America/Chicago"",""timezoneOffset"":300,""screen_width"":1440,""screen_height"":960,""scroll_width"":1432,""scroll_height"":756,""window_innerWidth"":1432,""window_innerHeight"":804,""devicePixelRatio"":2}",,,,17198.89399998808,response,,,,,,consent,click button,,19579.600000023842,19576.19999998808,1994.03,2361.800000011921,2377.306,19593.925,,,,"{""participant"":""66708"",""platform"":""sona""}",
Welcome,html.Screen,1,2023-10-31T16:56:56.447Z,,,,regular,45995.974999976155,response,,,,,,continue,click button,,65591.69999998808,65589.89999997616,19577.229,19580.100000023842,19593.925,65595.287,,,,,
trial,html.Screen,2_0_0,2023-10-31T16:57:03.446Z,,0,0,,6995.6129999761615,response,ISIC_4679428.JPG,,ISIC_0061792.JPG,ISIC_4679428.JPG,true,1,keypress(m),500,72591.39999997616,72590.89999997616,65577.022,65592.10000002384,65595.287,72615.465,1,6,1,,ISIC_0061792.JPG
sequence,flow.Sequence,2_0,2023-10-31T16:57:03.447Z,,0,,,6995.6129999761615,completion,,,,,true,,,,72591.80000001192,72590.89999997616,65577.022,65592,65595.287,72615.465,1,6,,,
trial,html.Screen,2_1_0,2023-10-31T16:57:13.549Z,,0,0,,10078.335000011924,response,ISIC_5199497.JPG,,ISIC_0776486.JPG,ISIC_0776486.JPG,true,0,keypress(z),500,82694.10000002384,82693.80000001192,72577.613,72592,72615.465,82712.409,1,6,2,,ISIC_5199497.JPG
sequence,flow.Sequence,2_1,2023-10-31T16:57:13.550Z,,0,,,10078.335000011924,completion,,,,,true,,,,82694.60000002384,82693.80000001192,72577.613,72592,72615.465,82712.409,1,6,,,
trial,html.Screen,2_2_0,2023-10-31T16:57:25.053Z,,0,0,,11516.691999999995,timeout,ISIC_8575776.JPG,,ISIC_2556187.JPG,,true,,,500,94198.19999998808,94197.80000001192,82694.184,82694.80000001192,82712.409,94229.101,1,6,3,,
sequence,flow.Sequence,2_2,2023-10-31T16:57:25.053Z,,0,,,11485.391000011921,completion,,,,,true,,,,94198.39999997616,94197.80000001192,82694.184,82694.69999998808,82712.409,94229.101,1,6,,,
trial,html.Screen,2_3_0,2023-10-31T16:57:28.209Z,,0,0,,3124.298999976163,response,ISIC_8141769.JPG,,ISIC_9238366.JPG,ISIC_8141769.JPG,true,1,keypress(m),500,97353.80000001192,97353.39999997616,94210.359,94198.5,94229.101,97360.379,1,6,4,,ISIC_9238366.JPG
sequence,flow.Sequence,2_3,2023-10-31T16:57:28.209Z,,0,,,3124.298999976163,completion,,,,,true,,,,97354.19999998808,97353.39999997616,94210.359,94198.39999997616,94229.101,97360.379,1,6,,,
trial,html.Screen,2_4_0,2023-10-31T16:57:33.205Z,,0,0,,4989.42100001192,response,ISIC_9959593.JPG,,ISIC_8949026.JPG,ISIC_9959593.JPG,true,1,keypress(m),500,102350.19999998808,102349.80000001192,97343.702,97354.39999997616,97360.379,102360.366,1,6,5,,ISIC_8949026.JPG
sequence,flow.Sequence,2_4,2023-10-31T16:57:33.205Z,,0,,,4989.42100001192,completion,,,,,true,,,,102350.5,102349.80000001192,97343.702,97354.39999997616,97360.379,102360.366,1,6,,,
trial,html.Screen,2_5_0,2023-10-31T16:57:36.223Z,,0,0,,3006.8339999880845,response,ISIC_0010479.JPG,,ISIC_0460240.JPG,ISIC_0010479.JPG,true,1,keypress(m),500,105367.60000002384,105367.19999998808,102344.493,102350.69999998808,102360.366,105378.63,1,6,6,,ISIC_0460240.JPG
sequence,flow.Sequence,2_5,2023-10-31T16:57:36.223Z,,0,,,3006.8339999880845,completion,,,,,true,,,,105367.80000001192,105367.19999998808,102344.493,102350.60000002384,102360.366,105378.63,1,6,,,
loop,flow.Loop,2,2023-10-31T16:57:36.223Z,,,,,39771.91299998808,completion,,,,,true,,,,105368.10000002384,105367.19999998808,65577.022,65591.89999997616,65595.287,105378.63,1,6,,,
exp_instructions,html.Screen,3,2023-10-31T16:57:41.922Z,,,,,5686.170000011916,response,,,,,,continue,keypress(Space),,111066.60000002384,111064.80000001192,105360.52,105368.19999998808,105378.63,111078.883,,,,,
trial,html.Screen,4_0_0,2023-10-31T16:57:46.157Z,,0,1,,4223.116999999998,response,ISIC_5499139.JPG,4,ISIC_2211136.JPG,ISIC_5499139.JPG,false,1,keypress(m),500,115302.30000001192,115302,111058.812,111066.89999997616,111078.883,115311.831,8,400,1,,ISIC_2211136.JPG
break,html.Screen,4_0_1,2023-10-31T16:57:46.159Z,,0,,,NaN,,,,,,false,,,,115304,115303.69999998808,,115302.60000002384,,115311.831,8,400,,,
break_continue,html.Screen,4_0_2,2023-10-31T16:57:46.159Z,,0,,,NaN,,,,,,false,,,,115304.5,115304.39999997616,,115304.10000002384,,115311.831,8,400,,,
sequence,flow.Sequence,4_0,2023-10-31T16:57:46.160Z,,0,,,4225.5169999761565,completion,,,,,false,,,,115304.60000002384,115304.39999997616,111058.812,111066.89999997616,111078.883,115311.831,8,400,,,
trial,html.Screen,4_1_0,2023-10-31T16:57:49.763Z,,0,1,,3596.3689999880735,response,ISIC_9219356.JPG,3,ISIC_0000295.JPG,ISIC_0000295.JPG,false,0,keypress(z),500,118908.5,118908.19999998808,115294.22,115304.69999998808,115311.831,118932.236,8,400,2,,ISIC_9219356.JPG
break,html.Screen,4_1_1,2023-10-31T16:57:49.765Z,,0,,,NaN,,,,,,false,,,,118909.60000002384,118909.39999997616,,118908.60000002384,,118932.236,8,400,,,
break_continue,html.Screen,4_1_2,2023-10-31T16:57:49.765Z,,0,,,NaN,,,,,,false,,,,118909.89999997616,118909.89999997616,,118909.80000001192,,118932.236,8,400,,,
sequence,flow.Sequence,4_1,2023-10-31T16:57:49.765Z,,0,,,3598.0689999761526,completion,,,,,false,,,,118910,118909.89999997616,115294.22,115304.60000002384,115311.831,118932.236,8,400,,,
trial,html.Screen,4_2_0,2023-10-31T16:57:52.925Z,,0,1,,3137.3640000238374,response,ISIC_9108776.JPG,9,ISIC_1399572.JPG,ISIC_9108776.JPG,false,1,keypress(m),500,122069.89999997616,122069.60000002384,118894.07,118910.30000001192,118932.236,122078.407,8,400,3,,ISIC_1399572.JPG
break,html.Screen,4_2_1,2023-10-31T16:57:52.926Z,,0,,,NaN,,,,,,false,,,,122071.39999997616,122071.10000002384,,122070.10000002384,,122078.407,8,400,,,
break_continue,html.Screen,4_2_2,2023-10-31T16:57:52.927Z,,0,,,NaN,,,,,,false,,,,122071.69999998808,122071.60000002384,,122071.5,,122078.407,8,400,,,
sequence,flow.Sequence,4_2,2023-10-31T16:57:52.927Z,,0,,,3139.3640000238374,completion,,,,,false,,,,122071.89999997616,122071.60000002384,118894.07,118910.30000001192,118932.236,122078.407,8,400,,,
trial,html.Screen,4_3_0,2023-10-31T16:57:56.290Z,,0,1,,3356.5929999999935,response,ISIC_0014061.JPG,21,ISIC_0027863.JPG,ISIC_0027863.JPG,false,0,keypress(z),500,125435.30000001192,125435,122060.649,122072,122078.407,125443.697,8,400,4,,ISIC_0014061.JPG
break,html.Screen,4_3_1,2023-10-31T16:57:56.291Z,,0,,,NaN,,,,,,false,,,,125436.30000001192,125436,,125435.5,,125443.697,8,400,,,
break_continue,html.Screen,4_3_2,2023-10-31T16:57:56.292Z,,0,,,NaN,,,,,,false,,,,125436.80000001192,125436.80000001192,,125436.60000002384,,125443.697,8,400,,,
sequence,flow.Sequence,4_3,2023-10-31T16:57:56.292Z,,0,,,3358.3930000119144,completion,,,,,false,,,,125437,125436.80000001192,122060.649,122071.89999997616,122078.407,125443.697,8,400,,,
trial,html.Screen,4_4_0,2023-10-31T16:57:59.340Z,,0,1,,3040.9030000238417,response,ISIC_0072943.JPG,11,ISIC_0032645.JPG,ISIC_0032645.JPG,false,0,keypress(z),500,128485,128484.60000002384,125426.866,125437.10000002384,125443.697,128494.951,8,400,5,,ISIC_0072943.JPG
break,html.Screen,4_4_1,2023-10-31T16:57:59.341Z,,0,,,NaN,,,,,,false,,,,128486.19999998808,128486,,128485.19999998808,,128494.951,8,400,,,
break_continue,html.Screen,4_4_2,2023-10-31T16:57:59.342Z,,0,,,NaN,,,,,,false,,,,128486.69999998808,128486.60000002384,,128486.5,,128494.951,8,400,,,
sequence,flow.Sequence,4_4,2023-10-31T16:57:59.342Z,,0,,,3042.9030000238417,completion,,,,,false,,,,128486.80000001192,128486.60000002384,125426.866,125437.10000002384,125443.697,128494.951,8,400,,,
trial,html.Screen,4_5_0,2023-10-31T16:58:02.920Z,,0,1,,3569.948999976157,response,ISIC_3503302.JPG,25,ISIC_0013874.JPG,ISIC_3503302.JPG,false,1,keypress(m),500,132065.10000002384,132064.89999997616,128477.218,128487.10000002384,128494.951,132093.488,8,400,6,,ISIC_0013874.JPG
break,html.Screen,4_5_1,2023-10-31T16:58:02.921Z,,0,,,NaN,,,,,,false,,,,132065.89999997616,132065.69999998808,,132065.19999998808,,132093.488,8,400,,,
break_continue,html.Screen,4_5_2,2023-10-31T16:58:02.921Z,,0,,,NaN,,,,,,false,,,,132066.19999998808,132066,,132066,,132093.488,8,400,,,
sequence,flow.Sequence,4_5,2023-10-31T16:58:02.921Z,,0,,,3571.048999999999,completion,,,,,false,,,,132066.30000001192,132066,128477.218,128487,128494.951,132093.488,8,400,,,
trial,html.Screen,4_6_0,2023-10-31T16:58:07.965Z,,0,1,,5016.211999988067,response,ISIC_1960468.JPG,11,ISIC_1851112.JPG,ISIC_1960468.JPG,false,1,keypress(m),500,137110.10000002384,137109.69999998808,132077.404,132066.30000001192,132093.488,137126.893,8,400,7,,ISIC_1851112.JPG
break,html.Screen,4_6_1,2023-10-31T16:58:07.966Z,,0,,,NaN,,,,,,false,,,,137111.30000001192,137111.10000002384,,137110.39999997616,,137126.893,8,400,,,
break_continue,html.Screen,4_6_2,2023-10-31T16:58:07.967Z,,0,,,NaN,,,,,,false,,,,137111.69999998808,137111.60000002384,,137111.39999997616,,137126.893,8,400,,,
sequence,flow.Sequence,4_6,2023-10-31T16:58:07.967Z,,0,,,5018.11200002383,completion,,,,,false,,,,137111.89999997616,137111.60000002384,132077.404,132066.30000001192,132093.488,137126.893,8,400,,,
trial,html.Screen,4_7_0,2023-10-31T16:58:11.539Z,,0,1,,3556.506999976147,response,ISIC_0028919.JPG,7,ISIC_4246086.JPG,ISIC_4246086.JPG,false,0,keypress(z),500,140683.69999998808,140683.39999997616,137110.501,137112.30000001192,137126.893,140696.404,8,400,8,,ISIC_0028919.JPG
break,html.Screen,4_7_1,2023-10-31T16:58:11.540Z,,0,,,NaN,,,,,,false,,,,140685.30000001192,140684.89999997616,,140684,,140696.404,8,400,,,
break_continue,html.Screen,4_7_2,2023-10-31T16:58:11.541Z,,0,,,NaN,,,,,,false,,,,140685.60000002384,140685.5,,140685.39999997616,,140696.404,8,400,,,
sequence,flow.Sequence,4_7,2023-10-31T16:58:11.541Z,,0,,,3558.606999999989,completion,,,,,false,,,,140685.69999998808,140685.5,137110.501,137112.19999998808,137126.893,140696.404,8,400,,,
trial,html.Screen,4_8_0,2023-10-31T16:58:18.215Z,,0,1,,6663.2959999880695,response,ISIC_9499787.JPG,2,ISIC_6324832.JPG,ISIC_6324832.JPG,false,0,keypress(z),500,147360.19999998808,147359.69999998808,140677.297,140685.89999997616,140696.404,147376.861,8,400,9,,ISIC_9499787.JPG
break,html.Screen,4_8_1,2023-10-31T16:58:18.216Z,,0,,,NaN,,,,,,false,,,,147361.30000001192,147361.10000002384,,147360.5,,147376.861,8,400,,,
break_continue,html.Screen,4_8_2,2023-10-31T16:58:18.217Z,,0,,,NaN,,,,,,false,,,,147361.69999998808,147361.60000002384,,147361.39999997616,,147376.861,8,400,,,
sequence,flow.Sequence,4_8,2023-10-31T16:58:18.217Z,,0,,,6665.196000023832,completion,,,,,false,,,,147362,147361.60000002384,140677.297,140685.80000001192,140696.404,147376.861,8,400,,,
trial,html.Screen,4_9_0,2023-10-31T16:58:24.363Z,,0,1,,6130.538999976154,response,ISIC_1152559.JPG,6,ISIC_4811165.JPG,ISIC_4811165.JPG,false,0,keypress(z),500,153507.80000001192,153507.39999997616,147360.804,147362.39999997616,147376.861,153511.567,8,400,10,,ISIC_1152559.JPG
break,html.Screen,4_9_1,2023-10-31T16:58:24.364Z,,0,,,NaN,,,,,,false,,,,153509,153508.69999998808,,153508,,153511.567,8,400,,,
break_continue,html.Screen,4_9_2,2023-10-31T16:58:24.364Z,,0,,,NaN,,,,,,false,,,,153509.30000001192,153509.19999998808,,153509,,153511.567,8,400,,,
sequence,flow.Sequence,4_9,2023-10-31T16:58:24.364Z,,0,,,6132.338999988075,completion,,,,,false,,,,153509.30000001192,153509.19999998808,147360.804,147362.39999997616,147376.861,153511.567,8,400,,,
trial,html.Screen,4_10_0,2023-10-31T16:58:27.347Z,,0,1,,2980.332999976148,response,ISIC_9100283.JPG,8,ISIC_0063492.JPG,ISIC_0063492.JPG,false,0,keypress(z),500,156492.30000001192,156491.89999997616,153494.058,153509.39999997616,153511.567,156510.623,8,400,11,,ISIC_9100283.JPG
break,html.Screen,4_10_1,2023-10-31T16:58:27.349Z,,0,,,NaN,,,,,,false,,,,156493.69999998808,156493.5,,156492.5,,156510.623,8,400,,,
break_continue,html.Screen,4_10_2,2023-10-31T16:58:27.349Z,,0,,,NaN,,,,,,false,,,,156494.19999998808,156494.10000002384,,156494,,156510.623,8,400,,,
sequence,flow.Sequence,4_10,2023-10-31T16:58:27.349Z,,0,,,2982.533000023832,completion,,,,,false,,,,156494.39999997616,156494.10000002384,153494.058,153509.39999997616,153511.567,156510.623,8,400,,,
trial,html.Screen,4_11_0,2023-10-31T16:58:30.222Z,,0,1,,2856.3770000000077,response,ISIC_4912684.JPG,7,ISIC_0056546.JPG,ISIC_0056546.JPG,false,0,keypress(z),500,159367.30000001192,159367,156477.584,156494.5,156510.623,159379.394,8,400,12,,ISIC_4912684.JPG
break,html.Screen,4_11_1,2023-10-31T16:58:30.223Z,,0,,,NaN,,,,,,false,,,,159368.69999998808,159368.39999997616,,159367.5,,159379.394,8,400,,,
break_continue,html.Screen,4_11_2,2023-10-31T16:58:30.224Z,,0,,,NaN,,,,,,false,,,,159368.89999997616,159368.89999997616,,159368.69999998808,,159379.394,8,400,,,
sequence,flow.Sequence,4_11,2023-10-31T16:58:30.224Z,,0,,,2858.276999976166,completion,,,,,false,,,,159369,159368.89999997616,156477.584,156494.5,156510.623,159379.394,8,400,,,
trial,html.Screen,4_12_0,2023-10-31T16:58:36.407Z,,0,1,,6172.305999988079,response,ISIC_7672106.JPG,6,ISIC_9228729.JPG,ISIC_9228729.JPG,false,0,keypress(z),500,165551.89999997616,165551.69999998808,159360.279,159369.10000002384,159379.394,165561.326,8,400,13,,ISIC_7672106.JPG
break,html.Screen,4_12_1,2023-10-31T16:58:36.408Z,,0,,,NaN,,,,,,false,,,,165553,165552.69999998808,,165552.10000002384,,165561.326,8,400,,,
break_continue,html.Screen,4_12_2,2023-10-31T16:58:36.408Z,,0,,,NaN,,,,,,false,,,,165553.19999998808,165553.19999998808,,165553,,165561.326,8,400,,,
sequence,flow.Sequence,4_12,2023-10-31T16:58:36.408Z,,0,,,6173.805999988079,completion,,,,,false,,,,165553.30000001192,165553.19999998808,159360.279,159369.10000002384,159379.394,165561.326,8,400,,,
trial,html.Screen,4_13_0,2023-10-31T16:58:40.430Z,,0,1,,4013.373999988078,response,ISIC_4184101.JPG,8,ISIC_0014302.JPG,ISIC_4184101.JPG,false,1,keypress(m),500,169575,169574.69999998808,165543.068,165553.5,165561.326,169578.407,8,400,14,,ISIC_0014302.JPG
break,html.Screen,4_13_1,2023-10-31T16:58:40.432Z,,0,,,NaN,,,,,,false,,,,169576.69999998808,169576.5,,169575.30000001192,,169578.407,8,400,,,
break_continue,html.Screen,4_13_2,2023-10-31T16:58:40.432Z,,0,,,NaN,,,,,,false,,,,169577.19999998808,169577.10000002384,,169576.89999997616,,169578.407,8,400,,,
sequence,flow.Sequence,4_13,2023-10-31T16:58:40.432Z,,0,,,4015.774000023841,completion,,,,,false,,,,169577.39999997616,169577.10000002384,165543.068,165553.5,165561.326,169578.407,8,400,,,
trial,html.Screen,4_14_0,2023-10-31T16:58:43.205Z,,0,1,,2771.5929999999935,response,ISIC_0056692.JPG,5,ISIC_9219356.JPG,ISIC_0056692.JPG,false,1,keypress(m),500,172350.30000001192,172350,169560.459,169577.5,169578.407,172362.81,8,400,15,,ISIC_9219356.JPG
break,html.Screen,4_14_1,2023-10-31T16:58:43.207Z,,0,,,NaN,,,,,,false,,,,172351.80000001192,172351.5,,172350.5,,172362.81,8,400,,,
break_continue,html.Screen,4_14_2,2023-10-31T16:58:43.207Z,,0,,,NaN,,,,,,false,,,,172352.10000002384,172352,,172351.89999997616,,172362.81,8,400,,,
sequence,flow.Sequence,4_14,2023-10-31T16:58:43.207Z,,0,,,2773.5929999999935,completion,,,,,false,,,,172352.19999998808,172352,169560.459,169577.5,169578.407,172362.81,8,400,,,
trial,html.Screen,4_15_0,2023-10-31T16:58:46.252Z,,0,1,,3033.4900000119233,response,ISIC_0253516.JPG,11,ISIC_7501061.JPG,ISIC_7501061.JPG,false,0,keypress(z),500,175397,175396.30000001192,172343.705,172352.30000001192,172362.81,175410.571,8,400,16,,ISIC_0253516.JPG
break,html.Screen,4_15_1,2023-10-31T16:58:46.253Z,,0,,,NaN,,,,,,false,,,,175397.89999997616,175397.69999998808,,175397.19999998808,,175410.571,8,400,,,
break_continue,html.Screen,4_15_2,2023-10-31T16:58:46.253Z,,0,,,NaN,,,,,,false,,,,175398.19999998808,175398.10000002384,,175398,,175410.571,8,400,,,
sequence,flow.Sequence,4_15,2023-10-31T16:58:46.253Z,,0,,,3035.290000023844,completion,,,,,false,,,,175398.30000001192,175398.10000002384,172343.705,172352.30000001192,172362.81,175410.571,8,400,,,
trial,html.Screen,4_16_0,2023-10-31T16:58:50.676Z,,0,1,,4410.828999976162,response,ISIC_0010401.JPG,1,ISIC_0028573.JPG,ISIC_0028573.JPG,false,0,keypress(z),500,179821.69999998808,179821.39999997616,175393.454,175398.30000001192,175410.571,179827.428,8,400,17,,ISIC_0010401.JPG
break,html.Screen,4_16_1,2023-10-31T16:58:50.678Z,,0,,,NaN,,,,,,false,,,,179822.80000001192,179822.60000002384,,179821.89999997616,,179827.428,8,400,,,
break_continue,html.Screen,4_16_2,2023-10-31T16:58:50.678Z,,0,,,NaN,,,,,,false,,,,179823.10000002384,179823,,179822.89999997616,,179827.428,8,400,,,
sequence,flow.Sequence,4_16,2023-10-31T16:58:50.678Z,,0,,,4412.429000000004,completion,,,,,false,,,,179823.19999998808,179823,175393.454,175398.30000001192,175410.571,179827.428,8,400,,,
trial,html.Screen,4_17_0,2023-10-31T16:58:56.127Z,,0,1,,5444.771999988065,response,ISIC_7532154.JPG,10,ISIC_0024227.JPG,ISIC_0024227.JPG,false,0,keypress(z),500,185272.5,185272.19999998808,179810.687,179823.30000001192,179827.428,185293.372,8,400,18,,ISIC_7532154.JPG
break,html.Screen,4_17_1,2023-10-31T16:58:56.128Z,,0,,,NaN,,,,,,false,,,,185273.39999997616,185273.19999998808,,185272.69999998808,,185293.372,8,400,,,
break_continue,html.Screen,4_17_2,2023-10-31T16:58:56.128Z,,0,,,NaN,,,,,,false,,,,185273.5,185273.5,,185273.39999997616,,185293.372,8,400,,,
sequence,flow.Sequence,4_17,2023-10-31T16:58:56.128Z,,0,,,5446.071999999986,completion,,,,,false,,,,185273.69999998808,185273.5,179810.687,179823.19999998808,179827.428,185293.372,8,400,,,
trial,html.Screen,4_18_0,2023-10-31T16:59:00.181Z,,0,1,,4032.127999999997,response,ISIC_0060219.JPG,9,ISIC_0028352.JPG,ISIC_0060219.JPG,false,1,keypress(m),500,189325.80000001192,189325.5,185276.889,185273.80000001192,185293.372,189343.83,8,400,19,,ISIC_0028352.JPG
break,html.Screen,4_18_1,2023-10-31T16:59:00.182Z,,0,,,NaN,,,,,,false,,,,189326.89999997616,189326.69999998808,,189326,,189343.83,8,400,,,
break_continue,html.Screen,4_18_2,2023-10-31T16:59:00.182Z,,0,,,NaN,,,,,,false,,,,189327.30000001192,189327.19999998808,,189327.10000002384,,189343.83,8,400,,,
sequence,flow.Sequence,4_18,2023-10-31T16:59:00.182Z,,0,,,4033.827999988076,completion,,,,,false,,,,189327.5,189327.19999998808,185276.889,185273.69999998808,185293.372,189343.83,8,400,,,
trial,html.Screen,4_19_0,2023-10-31T16:59:04.697Z,,0,1,,4498.569999976171,response,ISIC_8027899.JPG,20,ISIC_9927486.JPG,ISIC_8027899.JPG,false,1,keypress(m),500,193842.69999998808,193842.39999997616,189327.24,189327.60000002384,189343.83,193860.183,8,400,20,,ISIC_9927486.JPG
break,html.Screen,4_19_1,2023-10-31T16:59:04.699Z,,0,,,NaN,,,,,,false,,,,193844.10000002384,193843.89999997616,,193842.89999997616,,193860.183,8,400,,,
break_continue,html.Screen,4_19_2,2023-10-31T16:59:04.699Z,,0,,,NaN,,,,,,false,,,,193844.60000002384,193844.5,,193844.30000001192,,193860.183,8,400,,,
sequence,flow.Sequence,4_19,2023-10-31T16:59:04.699Z,,0,,,4500.670000000013,completion,,,,,false,,,,193844.80000001192,193844.5,189327.24,189327.60000002384,189343.83,193860.183,8,400,,,
trial,html.Screen,4_20_0,2023-10-31T16:59:07.588Z,,0,1,,2872.516999988089,response,ISIC_0024702.JPG,7,ISIC_5623973.JPG,ISIC_0024702.JPG,false,1,keypress(m),500,196733,196732.69999998808,193828.033,193844.89999997616,193860.183,196744.74,8,400,21,,ISIC_5623973.JPG
break,html.Screen,4_20_1,2023-10-31T16:59:07.589Z,,0,,,NaN,,,,,,false,,,,196734.5,196734.19999998808,,196733.30000001192,,196744.74,8,400,,,
break_continue,html.Screen,4_20_2,2023-10-31T16:59:07.590Z,,0,,,NaN,,,,,,false,,,,196734.80000001192,196734.69999998808,,196734.60000002384,,196744.74,8,400,,,
sequence,flow.Sequence,4_20,2023-10-31T16:59:07.590Z,,0,,,2874.516999988089,completion,,,,,false,,,,196735,196734.69999998808,193828.033,193844.89999997616,193860.183,196744.74,8,400,,,
trial,html.Screen,4_21_0,2023-10-31T16:59:10.473Z,,0,1,,2873.4599999880884,response,ISIC_0013674.JPG,10,ISIC_0013719.JPG,ISIC_0013674.JPG,false,1,keypress(m),500,199618.39999997616,199618.19999998808,196727.312,196735.10000002384,196744.74,199628.885,8,400,22,,ISIC_0013719.JPG
break,html.Screen,4_21_1,2023-10-31T16:59:10.474Z,,0,,,NaN,,,,,,false,,,,199619.69999998808,199619.5,,199618.69999998808,,199628.885,8,400,,,
break_continue,html.Screen,4_21_2,2023-10-31T16:59:10.475Z,,0,,,NaN,,,,,,false,,,,199620,199619.89999997616,,199619.80000001192,,199628.885,8,400,,,
sequence,flow.Sequence,4_21,2023-10-31T16:59:10.475Z,,0,,,2875.1599999761675,completion,,,,,false,,,,199620.30000001192,199619.89999997616,196727.312,196735,196744.74,199628.885,8,400,,,
trial,html.Screen,4_22_0,2023-10-31T16:59:14.961Z,,0,1,,4477.31499998807,response,ISIC_0025904.JPG,12,ISIC_0333091.JPG,ISIC_0333091.JPG,false,0,keypress(z),500,204106.5,204106.19999998808,199610.81,199620.39999997616,199628.885,204111.196,8,400,23,,ISIC_0025904.JPG
break,html.Screen,4_22_1,2023-10-31T16:59:14.963Z,,0,,,NaN,,,,,,false,,,,204107.89999997616,204107.69999998808,,204106.69999998808,,204111.196,8,400,,,
break_continue,html.Screen,4_22_2,2023-10-31T16:59:14.963Z,,0,,,NaN,,,,,,false,,,,204108.30000001192,204108.19999998808,,204108,,204111.196,8,400,,,
sequence,flow.Sequence,4_22,2023-10-31T16:59:14.963Z,,0,,,4479.31499998807,completion,,,,,false,,,,204108.39999997616,204108.19999998808,199610.81,199620.39999997616,199628.885,204111.196,8,400,,,
trial,html.Screen,4_23_0,2023-10-31T16:59:18.924Z,,0,1,,3957.503999988083,response,ISIC_0006331.JPG,35,ISIC_0063081.JPG,ISIC_0063081.JPG,false,0,keypress(z),500,208069,208068.69999998808,204093.718,204108.5,204111.196,208077.939,8,400,24,,ISIC_0006331.JPG
break,html.Screen,4_23_1,2023-10-31T16:59:18.925Z,,0,,,NaN,,,,,,false,,,,208070.19999998808,208070,,208069.10000002384,,208077.939,8,400,,,
break_continue,html.Screen,4_23_2,2023-10-31T16:59:18.925Z,,0,,,NaN,,,,,,false,,,,208070.39999997616,208070.39999997616,,208070.30000001192,,208077.939,8,400,,,
sequence,flow.Sequence,4_23,2023-10-31T16:59:18.925Z,,0,,,3959.203999976162,completion,,,,,false,,,,208070.5,208070.39999997616,204093.718,204108.39999997616,204111.196,208077.939,8,400,,,
trial,html.Screen,4_24_0,2023-10-31T16:59:22.209Z,,0,1,,3276.060999999987,response,ISIC_0054053.JPG,7,ISIC_4022621.JPG,ISIC_0054053.JPG,false,1,keypress(m),500,211354.30000001192,211354,208060.014,208070.69999998808,208077.939,211361.63,8,400,25,,ISIC_4022621.JPG
break,html.Screen,4_24_1,2023-10-31T16:59:22.210Z,,0,,,NaN,,,,,,false,,,,211355.60000002384,211355.39999997616,,211354.5,,211361.63,8,400,,,
break_continue,html.Screen,4_24_2,2023-10-31T16:59:22.211Z,,0,,,NaN,,,,,,false,,,,211355.80000001192,211355.80000001192,,211355.69999998808,,211361.63,8,400,,,
sequence,flow.Sequence,4_24,2023-10-31T16:59:22.211Z,,0,,,3277.861000011908,completion,,,,,false,,,,211356,211355.80000001192,208060.014,208070.69999998808,208077.939,211361.63,8,400,,,
trial,html.Screen,4_25_0,2023-10-31T16:59:27.324Z,,0,1,,5107.2699999761535,response,ISIC_0070992.JPG,19,ISIC_4446385.JPG,ISIC_4446385.JPG,false,0,keypress(z),500,216469.10000002384,216468.89999997616,211343.899,211356,211361.63,216477.545,8,400,26,,ISIC_0070992.JPG
break,html.Screen,4_25_1,2023-10-31T16:59:27.325Z,,0,,,NaN,,,,,,false,,,,216470.60000002384,216470.30000001192,,216469.39999997616,,216477.545,8,400,,,
break_continue,html.Screen,4_25_2,2023-10-31T16:59:27.326Z,,0,,,NaN,,,,,,false,,,,216470.80000001192,216470.69999998808,,216470.69999998808,,216477.545,8,400,,,
sequence,flow.Sequence,4_25,2023-10-31T16:59:27.326Z,,0,,,5109.069999988074,completion,,,,,false,,,,216471,216470.69999998808,211343.899,211356,211361.63,216477.545,8,400,,,
trial,html.Screen,4_26_0,2023-10-31T16:59:31.555Z,,0,1,,4221.954999999987,response,ISIC_3124612.JPG,7,ISIC_0026244.JPG,ISIC_3124612.JPG,false,1,keypress(m),500,220699.89999997616,220699.5,216460.391,216471,216477.545,220711.456,8,400,27,,ISIC_0026244.JPG
break,html.Screen,4_26_1,2023-10-31T16:59:31.556Z,,0,,,NaN,,,,,,false,,,,220701.19999998808,220700.89999997616,,220700.10000002384,,220711.456,8,400,,,
break_continue,html.Screen,4_26_2,2023-10-31T16:59:31.556Z,,0,,,NaN,,,,,,false,,,,220701.5,220701.39999997616,,220701.30000001192,,220711.456,8,400,,,
sequence,flow.Sequence,4_26,2023-10-31T16:59:31.556Z,,0,,,4223.854999976145,completion,,,,,false,,,,220701.60000002384,220701.39999997616,216460.391,216471,216477.545,220711.456,8,400,,,
trial,html.Screen,4_27_0,2023-10-31T16:59:35.079Z,,0,1,,3512.7439999880735,response,ISIC_7717907.JPG,31,ISIC_6357263.JPG,ISIC_7717907.JPG,false,1,keypress(m),500,224224.5,224224.19999998808,220693.758,220701.69999998808,220711.456,224248.485,8,400,28,,ISIC_6357263.JPG
break,html.Screen,4_27_1,2023-10-31T16:59:35.081Z,,0,,,NaN,,,,,,false,,,,224225.80000001192,224225.69999998808,,224224.69999998808,,224248.485,8,400,,,
break_continue,html.Screen,4_27_2,2023-10-31T16:59:35.081Z,,0,,,NaN,,,,,,false,,,,224226.19999998808,224226.10000002384,,224225.89999997616,,224248.485,8,400,,,
sequence,flow.Sequence,4_27,2023-10-31T16:59:35.081Z,,0,,,3514.6440000238363,completion,,,,,false,,,,224226.30000001192,224226.10000002384,220693.758,220701.69999998808,220711.456,224248.485,8,400,,,
trial,html.Screen,4_28_0,2023-10-31T16:59:37.971Z,,0,1,,2867.714999988093,response,ISIC_0068525.JPG,8,ISIC_0061188.JPG,ISIC_0061188.JPG,false,0,keypress(z),500,227116.5,227116.19999998808,224210.9,224226.60000002384,224248.485,227127.929,8,400,29,,ISIC_0068525.JPG
break,html.Screen,4_28_1,2023-10-31T16:59:37.973Z,,0,,,NaN,,,,,,false,,,,227118,227117.89999997616,,227116.80000001192,,227127.929,8,400,,,
break_continue,html.Screen,4_28_2,2023-10-31T16:59:37.973Z,,0,,,NaN,,,,,,false,,,,227118.39999997616,227118.30000001192,,227118.19999998808,,227127.929,8,400,,,
sequence,flow.Sequence,4_28,2023-10-31T16:59:37.973Z,,0,,,2869.815000011935,completion,,,,,false,,,,227118.5,227118.30000001192,224210.9,224226.60000002384,224248.485,227127.929,8,400,,,
trial,html.Screen,4_29_0,2023-10-31T16:59:41.246Z,,0,1,,3262.7709999880753,response,ISIC_0066411.JPG,11,ISIC_0061915.JPG,ISIC_0061915.JPG,false,0,keypress(z),500,230391,230390.69999998808,227110.161,227118.60000002384,227127.929,230393.175,8,400,30,,ISIC_0066411.JPG
break,html.Screen,4_29_1,2023-10-31T16:59:41.247Z,,0,,,NaN,,,,,,false,,,,230392.19999998808,230392.10000002384,,230391.19999998808,,230393.175,8,400,,,
break_continue,html.Screen,4_29_2,2023-10-31T16:59:41.247Z,,0,,,NaN,,,,,,false,,,,230392.60000002384,230392.5,,230392.5,,230393.175,8,400,,,
sequence,flow.Sequence,4_29,2023-10-31T16:59:41.247Z,,0,,,3264.5709999999963,completion,,,,,false,,,,230392.69999998808,230392.5,227110.161,227118.60000002384,227127.929,230393.175,8,400,,,
trial,html.Screen,4_30_0,2023-10-31T16:59:44.274Z,,0,1,,3026.1250000119326,response,ISIC_1161370.JPG,6,ISIC_0033083.JPG,ISIC_0033083.JPG,false,0,keypress(z),500,233419.60000002384,233419.30000001192,230376.588,230392.89999997616,230393.175,233427.856,8,400,31,,ISIC_1161370.JPG
break,html.Screen,4_30_1,2023-10-31T16:59:44.276Z,,0,,,NaN,,,,,,false,,,,233420.80000001192,233420.69999998808,,233419.80000001192,,233427.856,8,400,,,
break_continue,html.Screen,4_30_2,2023-10-31T16:59:44.276Z,,0,,,NaN,,,,,,false,,,,233421.10000002384,233421,,233421,,233427.856,8,400,,,
sequence,flow.Sequence,4_30,2023-10-31T16:59:44.276Z,,0,,,3027.8250000000116,completion,,,,,false,,,,233421.19999998808,233421,230376.588,230392.89999997616,230393.175,233427.856,8,400,,,
trial,html.Screen,4_31_0,2023-10-31T16:59:48.229Z,,0,1,,3946.444000011921,response,ISIC_5565517.JPG,0,ISIC_2355374.JPG,ISIC_5565517.JPG,false,1,keypress(m),500,237374.60000002384,237374.30000001192,233410.312,233421.30000001192,233427.856,237378.027,8,400,32,,ISIC_2355374.JPG
break,html.Screen,4_31_1,2023-10-31T16:59:48.231Z,,0,,,NaN,,,,,,false,,,,237375.89999997616,237375.69999998808,,237374.89999997616,,237378.027,8,400,,,
break_continue,html.Screen,4_31_2,2023-10-31T16:59:48.231Z,,0,,,NaN,,,,,,false,,,,237376.10000002384,237376.10000002384,,237375.89999997616,,237378.027,8,400,,,
sequence,flow.Sequence,4_31,2023-10-31T16:59:48.231Z,,0,,,3948.244000023842,completion,,,,,false,,,,237376.30000001192,237376.10000002384,233410.312,233421.19999998808,233427.856,237378.027,8,400,,,
trial,html.Screen,4_32_0,2023-10-31T16:59:51.117Z,,0,1,,2883.773000011919,response,ISIC_3688362.JPG,5,ISIC_0026224.JPG,ISIC_0026224.JPG,false,0,keypress(z),500,240262.10000002384,240261.80000001192,237360.241,237376.39999997616,237378.027,240293.226,8,400,33,,ISIC_3688362.JPG
break,html.Screen,4_32_1,2023-10-31T16:59:51.118Z,,0,,,NaN,,,,,,false,,,,240263.19999998808,240263.10000002384,,240262.60000002384,,240293.226,8,400,,,
break_continue,html.Screen,4_32_2,2023-10-31T16:59:51.118Z,,0,,,NaN,,,,,,false,,,,240263.5,240263.39999997616,,240263.39999997616,,240293.226,8,400,,,
sequence,flow.Sequence,4_32,2023-10-31T16:59:51.118Z,,0,,,2885.3729999761563,completion,,,,,false,,,,240263.69999998808,240263.39999997616,237360.241,237376.39999997616,237378.027,240293.226,8,400,,,
trial,html.Screen,4_33_0,2023-10-31T16:59:54.131Z,,0,1,,2982.274000000005,response,ISIC_6620377.JPG,7,ISIC_0012450.JPG,ISIC_6620377.JPG,false,1,keypress(m),500,243276.39999997616,243275.5,240276.992,240263.80000001192,240293.226,243299.149,8,400,34,,ISIC_0012450.JPG
break,html.Screen,4_33_1,2023-10-31T16:59:54.133Z,,0,,,NaN,,,,,,false,,,,243277.89999997616,243277.60000002384,,243276.80000001192,,243299.149,8,400,,,
break_continue,html.Screen,4_33_2,2023-10-31T16:59:54.133Z,,0,,,NaN,,,,,,false,,,,243278.39999997616,243278.19999998808,,243278,,243299.149,8,400,,,
sequence,flow.Sequence,4_33,2023-10-31T16:59:54.134Z,,0,,,2984.973999988084,completion,,,,,false,,,,243278.5,243278.19999998808,240276.992,240263.69999998808,240293.226,243299.149,8,400,,,
trial,html.Screen,4_34_0,2023-10-31T16:59:58.008Z,,0,1,,3853.451000023837,response,ISIC_7785723.JPG,10,ISIC_4540332.JPG,ISIC_7785723.JPG,false,1,keypress(m),500,247152.89999997616,247152.60000002384,243261.003,243278.60000002384,243299.149,247161.467,8,400,35,,ISIC_4540332.JPG
break,html.Screen,4_34_1,2023-10-31T16:59:58.009Z,,0,,,NaN,,,,,,false,,,,247154.10000002384,247153.89999997616,,247153.10000002384,,247161.467,8,400,,,
break_continue,html.Screen,4_34_2,2023-10-31T16:59:58.009Z,,0,,,NaN,,,,,,false,,,,247154.39999997616,247154.30000001192,,247154.19999998808,,247161.467,8,400,,,
sequence,flow.Sequence,4_34,2023-10-31T16:59:58.010Z,,0,,,3855.151000011916,completion,,,,,false,,,,247154.60000002384,247154.30000001192,243261.003,243278.60000002384,243299.149,247161.467,8,400,,,
trial,html.Screen,4_35_0,2023-10-31T17:00:01.100Z,,0,1,,3082.8330000119167,response,ISIC_3928910.JPG,9,ISIC_0031087.JPG,ISIC_0031087.JPG,false,0,keypress(z),500,250244.60000002384,250244.30000001192,247143.74,247154.60000002384,247161.467,250278.624,8,400,36,,ISIC_3928910.JPG
break,html.Screen,4_35_1,2023-10-31T17:00:01.101Z,,0,,,NaN,,,,,,false,,,,250245.60000002384,250245.39999997616,,250244.89999997616,,250278.624,8,400,,,
break_continue,html.Screen,4_35_2,2023-10-31T17:00:01.101Z,,0,,,NaN,,,,,,false,,,,250245.89999997616,250245.80000001192,,250245.69999998808,,250278.624,8,400,,,
sequence,flow.Sequence,4_35,2023-10-31T17:00:01.101Z,,0,,,3084.3330000119167,completion,,,,,false,,,,250246,250245.80000001192,247143.74,247154.60000002384,247161.467,250278.624,8,400,,,
trial,html.Screen,4_36_0,2023-10-31T17:00:04.755Z,,0,1,,3621.3759999999893,response,ISIC_6428021.JPG,9,ISIC_4641968.JPG,ISIC_6428021.JPG,false,1,keypress(m),500,253900.5,253900,250260.923,250246,250278.624,253913.372,8,400,37,,ISIC_4641968.JPG
break,html.Screen,4_36_1,2023-10-31T17:00:04.757Z,,0,,,NaN,,,,,,false,,,,253901.89999997616,253901.69999998808,,253900.80000001192,,253913.372,8,400,,,
break_continue,html.Screen,4_36_2,2023-10-31T17:00:04.757Z,,0,,,NaN,,,,,,false,,,,253902.30000001192,253902.19999998808,,253902,,253913.372,8,400,,,
sequence,flow.Sequence,4_36,2023-10-31T17:00:04.757Z,,0,,,3623.5759999880684,completion,,,,,false,,,,253902.39999997616,253902.19999998808,250260.923,250246,250278.624,253913.372,8,400,,,
trial,html.Screen,4_37_0,2023-10-31T17:00:09.437Z,,0,1,,4668.428000011918,response,ISIC_5498651.JPG,11,ISIC_6978997.JPG,ISIC_5498651.JPG,false,1,keypress(m),500,258582.19999998808,258581.80000001192,253893.77,253902.5,253913.372,258594.522,8,400,38,,ISIC_6978997.JPG
break,html.Screen,4_37_1,2023-10-31T17:00:09.439Z,,0,,,NaN,,,,,,false,,,,258583.60000002384,258583.5,,258582.39999997616,,258594.522,8,400,,,
break_continue,html.Screen,4_37_2,2023-10-31T17:00:09.439Z,,0,,,NaN,,,,,,false,,,,258584,258583.89999997616,,258583.69999998808,,258594.522,8,400,,,
sequence,flow.Sequence,4_37,2023-10-31T17:00:09.439Z,,0,,,4670.527999976155,completion,,,,,false,,,,258584,258583.89999997616,253893.77,253902.5,253913.372,258594.522,8,400,,,
trial,html.Screen,4_38_0,2023-10-31T17:00:15.459Z,,0,1,,6008.877999976161,response,ISIC_0033387.JPG,7,ISIC_6895016.JPG,ISIC_6895016.JPG,false,0,keypress(z),500,264603.6999999881,264603.39999997616,258577.189,258584.10000002384,258594.522,264610.822,8,400,39,,ISIC_0033387.JPG
break,html.Screen,4_38_1,2023-10-31T17:00:15.460Z,,0,,,NaN,,,,,,false,,,,264604.8000000119,264604.60000002384,,264603.89999997616,,264610.822,8,400,,,
break_continue,html.Screen,4_38_2,2023-10-31T17:00:15.460Z,,0,,,NaN,,,,,,false,,,,264605.10000002384,264605.10000002384,,264605,,264610.822,8,400,,,
sequence,flow.Sequence,4_38,2023-10-31T17:00:15.460Z,,0,,,6010.578000023845,completion,,,,,false,,,,264605.39999997616,264605.10000002384,258577.189,258584.10000002384,258594.522,264610.822,8,400,,,
trial,html.Screen,4_39_0,2023-10-31T17:00:18.397Z,,0,1,,2930.5779999761726,response,ISIC_4885444.JPG,11,ISIC_0032617.JPG,ISIC_0032617.JPG,false,0,keypress(z),500,267541.8000000119,267541.39999997616,264592.937,264605.5,264610.822,267560.221,8,400,40,,ISIC_4885444.JPG
break,html.Screen,4_39_1,2023-10-31T17:00:18.398Z,,0,,,NaN,,,,,,false,,,,267543.3000000119,267543.10000002384,,267542.10000002384,,267560.221,8,400,,,
break_continue,html.Screen,4_39_2,2023-10-31T17:00:18.399Z,,0,,,NaN,,,,,,false,,,,267543.6999999881,267543.6999999881,,267543.5,,267560.221,8,400,,,
sequence,flow.Sequence,4_39,2023-10-31T17:00:18.399Z,,0,,,2932.8779999880935,completion,,,,,false,,,,267544,267543.6999999881,264592.937,264605.5,264610.822,267560.221,8,400,,,
trial,html.Screen,4_40_0,2023-10-31T17:00:21.476Z,,0,1,,3060.8790000238223,response,ISIC_3650533.JPG,5,ISIC_0056063.JPG,ISIC_0056063.JPG,false,0,keypress(z),500,270621.39999997616,270621.10000002384,267526.861,267544.10000002384,267560.221,270628.519,8,400,41,,ISIC_3650533.JPG
break,html.Screen,4_40_1,2023-10-31T17:00:21.478Z,,0,,,NaN,,,,,,false,,,,270622.60000002384,270622.39999997616,,270621.60000002384,,270628.519,8,400,,,
break_continue,html.Screen,4_40_2,2023-10-31T17:00:21.478Z,,0,,,NaN,,,,,,false,,,,270623,270622.8000000119,,270622.6999999881,,270628.519,8,400,,,
sequence,flow.Sequence,4_40,2023-10-31T17:00:21.478Z,,0,,,3062.5790000119014,completion,,,,,false,,,,270623,270622.8000000119,267526.861,267544,267560.221,270628.519,8,400,,,
trial,html.Screen,4_41_0,2023-10-31T17:00:27.032Z,,0,1,,5548.380999976187,response,ISIC_0000313.JPG,10,ISIC_8535943.JPG,ISIC_0000313.JPG,false,1,keypress(m),500,276177.3000000119,276176.89999997616,270610.391,270623.10000002384,270628.519,276193.091,8,400,42,,ISIC_8535943.JPG
break,html.Screen,4_41_1,2023-10-31T17:00:27.034Z,,0,,,NaN,,,,,,false,,,,276178.6999999881,276178.39999997616,,276177.60000002384,,276193.091,8,400,,,
break_continue,html.Screen,4_41_2,2023-10-31T17:00:27.034Z,,0,,,NaN,,,,,,false,,,,276179.39999997616,276179.1999999881,,276178.89999997616,,276193.091,8,400,,,
sequence,flow.Sequence,4_41,2023-10-31T17:00:27.035Z,,0,,,5550.680999988108,completion,,,,,false,,,,276179.60000002384,276179.1999999881,270610.391,270623.10000002384,270628.519,276193.091,8,400,,,
trial,html.Screen,4_42_0,2023-10-31T17:00:29.950Z,,0,1,,2901.3089999761432,response,ISIC_1919324.JPG,8,ISIC_0409276.JPG,ISIC_0409276.JPG,false,0,keypress(z),500,279094.6999999881,279094.39999997616,276176.478,276179.6999999881,276193.091,279110.175,8,400,43,,ISIC_1919324.JPG
break,html.Screen,4_42_1,2023-10-31T17:00:29.951Z,,0,,,NaN,,,,,,false,,,,279095.89999997616,279095.6999999881,,279094.89999997616,,279110.175,8,400,,,
break_continue,html.Screen,4_42_2,2023-10-31T17:00:29.951Z,,0,,,NaN,,,,,,false,,,,279096.1999999881,279096.10000002384,,279096,,279110.175,8,400,,,
sequence,flow.Sequence,4_42,2023-10-31T17:00:29.951Z,,0,,,2903.009000023827,completion,,,,,false,,,,279096.3000000119,279096.10000002384,276176.478,276179.6999999881,276193.091,279110.175,8,400,,,
trial,html.Screen,4_43_0,2023-10-31T17:00:34.530Z,,0,1,,4564.9250000238535,response,ISIC_2974214.JPG,6,ISIC_0063473.JPG,ISIC_0063473.JPG,false,0,keypress(z),500,283675.5,283675.10000002384,279092.807,279096.39999997616,279110.175,283693.557,8,400,44,,ISIC_2974214.JPG
break,html.Screen,4_43_1,2023-10-31T17:00:34.532Z,,0,,,NaN,,,,,,false,,,,283676.5,283676.3000000119,,283675.6999999881,,283693.557,8,400,,,
break_continue,html.Screen,4_43_2,2023-10-31T17:00:34.532Z,,0,,,NaN,,,,,,false,,,,283676.89999997616,283676.6999999881,,283676.60000002384,,283693.557,8,400,,,
sequence,flow.Sequence,4_43,2023-10-31T17:00:34.532Z,,0,,,4566.524999988091,completion,,,,,false,,,,283677.10000002384,283676.6999999881,279092.807,279096.3000000119,279110.175,283693.557,8,400,,,
trial,html.Screen,4_44_0,2023-10-31T17:00:37.773Z,,0,1,,3223.8429999761865,response,ISIC_7921023.JPG,12,ISIC_4568425.JPG,ISIC_4568425.JPG,false,0,keypress(z),500,286917.60000002384,286917.39999997616,283676.494,283677.1999999881,283693.557,286929.013,8,400,45,,ISIC_7921023.JPG
break,html.Screen,4_44_1,2023-10-31T17:00:37.774Z,,0,,,NaN,,,,,,false,,,,286919,286918.8000000119,,286917.89999997616,,286929.013,8,400,,,
break_continue,html.Screen,4_44_2,2023-10-31T17:00:37.774Z,,0,,,NaN,,,,,,false,,,,286919.3000000119,286919.1999999881,,286919.10000002384,,286929.013,8,400,,,
sequence,flow.Sequence,4_44,2023-10-31T17:00:37.774Z,,0,,,3225.6429999881075,completion,,,,,false,,,,286919.39999997616,286919.1999999881,283676.494,283677.10000002384,283693.557,286929.013,8,400,,,
trial,html.Screen,4_45_0,2023-10-31T17:00:43.206Z,,0,1,,5421.987000000023,response,ISIC_0027091.JPG,22,ISIC_9977672.JPG,ISIC_9977672.JPG,false,0,keypress(z),500,292351.1999999881,292351,286910.117,286919.5,286929.013,292361.057,8,400,46,,ISIC_0027091.JPG
break,html.Screen,4_45_1,2023-10-31T17:00:43.207Z,,0,,,NaN,,,,,,false,,,,292352.39999997616,292352.10000002384,,292351.39999997616,,292361.057,8,400,,,
break_continue,html.Screen,4_45_2,2023-10-31T17:00:43.208Z,,0,,,NaN,,,,,,false,,,,292352.60000002384,292352.5,,292352.39999997616,,292361.057,8,400,,,
sequence,flow.Sequence,4_45,2023-10-31T17:00:43.208Z,,0,,,5423.487000000023,completion,,,,,false,,,,292352.6999999881,292352.5,286910.117,286919.5,286929.013,292361.057,8,400,,,
trial,html.Screen,4_46_0,2023-10-31T17:00:48.157Z,,0,1,,4941.04300002387,response,ISIC_9797578.JPG,9,ISIC_0000531.JPG,ISIC_9797578.JPG,false,1,keypress(m),500,297302.39999997616,297302.10000002384,292343.441,292352.8000000119,292361.057,297311.305,8,400,47,,ISIC_0000531.JPG
break,html.Screen,4_46_1,2023-10-31T17:00:48.159Z,,0,,,NaN,,,,,,false,,,,297303.8000000119,297303.39999997616,,297302.5,,297311.305,8,400,,,
break_continue,html.Screen,4_46_2,2023-10-31T17:00:48.159Z,,0,,,NaN,,,,,,false,,,,297304,297304,,297303.8000000119,,297311.305,8,400,,,
sequence,flow.Sequence,4_46,2023-10-31T17:00:48.159Z,,0,,,4942.943000000028,completion,,,,,false,,,,297304.3000000119,297304,292343.441,292352.6999999881,292361.057,297311.305,8,400,,,
trial,html.Screen,4_47_0,2023-10-31T17:00:50.993Z,,0,1,,2826.295000023849,response,ISIC_0071492.JPG,8,ISIC_7981097.JPG,ISIC_0071492.JPG,false,1,keypress(m),500,300138.10000002384,300137.60000002384,297293.28,297304.3000000119,297311.305,300144.669,8,400,48,,ISIC_7981097.JPG
break,html.Screen,4_47_1,2023-10-31T17:00:50.994Z,,0,,,NaN,,,,,,false,,,,300139.3000000119,300139.10000002384,,300138.3000000119,,300144.669,8,400,,,
break_continue,html.Screen,4_47_2,2023-10-31T17:00:50.995Z,,0,,,NaN,,,,,,false,,,,300139.60000002384,300139.5,,300139.39999997616,,300144.669,8,400,,,
sequence,flow.Sequence,4_47,2023-10-31T17:00:50.995Z,,0,,,2828.195000000007,completion,,,,,false,,,,300139.6999999881,300139.5,297293.28,297304.3000000119,297311.305,300144.669,8,400,,,
trial,html.Screen,4_48_0,2023-10-31T17:00:55.388Z,,0,1,,4388.230999976164,response,ISIC_7881017.JPG,11,ISIC_4371210.JPG,ISIC_7881017.JPG,false,1,keypress(m),500,304533.1999999881,304532.89999997616,300126.45,300139.8000000119,300144.669,304544.8,8,400,49,,ISIC_4371210.JPG
break,html.Screen,4_48_1,2023-10-31T17:00:55.389Z,,0,,,NaN,,,,,,false,,,,304534.39999997616,304534.1999999881,,304533.39999997616,,304544.8,8,400,,,
break_continue,html.Screen,4_48_2,2023-10-31T17:00:55.390Z,,0,,,NaN,,,,,,false,,,,304534.6999999881,304534.6999999881,,304534.5,,304544.8,8,400,,,
sequence,flow.Sequence,4_48,2023-10-31T17:00:55.390Z,,0,,,4390.030999988085,completion,,,,,false,,,,304534.8000000119,304534.6999999881,300126.45,300139.8000000119,300144.669,304544.8,8,400,,,
trial,html.Screen,4_49_0,2023-10-31T17:01:00.917Z,,0,1,,5516.59999997617,response,ISIC_7636321.JPG,6,ISIC_7460560.JPG,ISIC_7460560.JPG,false,0,keypress(z),500,310061.8000000119,310061.39999997616,304526.712,304535,304544.8,310092.993,8,400,50,,ISIC_7636321.JPG
break,html.Screen,4_49_1,2023-10-31T17:01:10.933Z,,0,,,10000.168000000005,timeout,,,,,false,,,,320078.1999999881,320076.949,310076.497,310062,310092.993,320093.161,8,400,,,
break_continue,html.Screen,4_49_2,2023-10-31T17:01:12.002Z,,0,,,1035.5389999880572,response,,,,,false,continue,keypress(Space),,321146.60000002384,321128.6999999881,320076.949,320078.39999997616,320093.161,321160.806,8,400,,,
sequence,flow.Sequence,4_49,2023-10-31T17:01:12.002Z,,0,,,16583.89999998809,completion,,,,,false,,,,321146.8000000119,321128.6999999881,304526.712,304535,304544.8,321160.806,8,400,,,
trial,html.Screen,4_50_0,2023-10-31T17:01:15.914Z,,0,2,,3897.7940000238596,response,ISIC_0013213.JPG,11,ISIC_0073135.JPG,ISIC_0073135.JPG,false,0,keypress(z),500,325058.8000000119,325058.60000002384,321143.495,321146.89999997616,321160.806,325076.379,8,400,1,,ISIC_0013213.JPG
break,html.Screen,4_50_1,2023-10-31T17:01:15.915Z,,0,,,NaN,,,,,,false,,,,325059.89999997616,325059.60000002384,,325059.10000002384,,325076.379,8,400,,,
break_continue,html.Screen,4_50_2,2023-10-31T17:01:15.915Z,,0,,,NaN,,,,,,false,,,,325060.1999999881,325060.10000002384,,325060,,325076.379,8,400,,,
sequence,flow.Sequence,4_50,2023-10-31T17:01:15.915Z,,0,,,3899.2940000238596,completion,,,,,false,,,,325060.39999997616,325060.10000002384,321143.495,321146.89999997616,321160.806,325076.379,8,400,,,
trial,html.Screen,4_51_0,2023-10-31T17:01:20.483Z,,0,2,,4550.921000011906,response,ISIC_6916213.JPG,11,ISIC_0010967.JPG,ISIC_0010967.JPG,false,0,keypress(z),500,329627.60000002384,329627.3000000119,325059.585,325060.5,325076.379,329642.951,8,400,2,,ISIC_6916213.JPG
break,html.Screen,4_51_1,2023-10-31T17:01:20.484Z,,0,,,NaN,,,,,,false,,,,329629,329628.5,,329627.89999997616,,329642.951,8,400,,,
break_continue,html.Screen,4_51_2,2023-10-31T17:01:20.484Z,,0,,,NaN,,,,,,false,,,,329629.39999997616,329629.1999999881,,329629.10000002384,,329642.951,8,400,,,
sequence,flow.Sequence,4_51,2023-10-31T17:01:20.484Z,,0,,,4552.820999988064,completion,,,,,false,,,,329629.5,329629.1999999881,325059.585,325060.5,325076.379,329642.951,8,400,,,
trial,html.Screen,4_52_0,2023-10-31T17:01:24.172Z,,0,2,,3673.948999976157,response,ISIC_0056260.JPG,12,ISIC_0000135.JPG,ISIC_0000135.JPG,false,0,keypress(z),500,333317.1999999881,333316.89999997616,329626.782,329629.60000002384,329642.951,333328.334,8,400,3,,ISIC_0056260.JPG
break,html.Screen,4_52_1,2023-10-31T17:01:24.173Z,,0,,,NaN,,,,,,false,,,,333318.3000000119,333318.10000002384,,333317.39999997616,,333328.334,8,400,,,
break_continue,html.Screen,4_52_2,2023-10-31T17:01:24.174Z,,0,,,NaN,,,,,,false,,,,333318.6999999881,333318.60000002384,,333318.5,,333328.334,8,400,,,
sequence,flow.Sequence,4_52,2023-10-31T17:01:24.174Z,,0,,,3675.649000023841,completion,,,,,false,,,,333318.8000000119,333318.60000002384,329626.782,329629.60000002384,329642.951,333328.334,8,400,,,
trial,html.Screen,4_53_0,2023-10-31T17:01:27.970Z,,0,2,,3786.7660000238684,response,ISIC_0005291.JPG,1,ISIC_0026239.JPG,ISIC_0005291.JPG,false,1,keypress(m),500,337115.39999997616,337115.10000002384,333309.662,333318.89999997616,333328.334,337129.369,8,400,4,,ISIC_0026239.JPG
break,html.Screen,4_53_1,2023-10-31T17:01:27.972Z,,0,,,NaN,,,,,,false,,,,337116.89999997616,337116.6999999881,,337115.60000002384,,337129.369,8,400,,,
break_continue,html.Screen,4_53_2,2023-10-31T17:01:27.972Z,,0,,,NaN,,,,,,false,,,,337117.1999999881,337117.10000002384,,337117,,337129.369,8,400,,,
sequence,flow.Sequence,4_53,2023-10-31T17:01:27.972Z,,0,,,3788.7660000238684,completion,,,,,false,,,,337117.3000000119,337117.10000002384,333309.662,333318.89999997616,333328.334,337129.369,8,400,,,
trial,html.Screen,4_54_0,2023-10-31T17:01:31.373Z,,0,2,,3388.530999976152,response,ISIC_7288818.JPG,10,ISIC_9639931.JPG,ISIC_7288818.JPG,false,1,keypress(m),500,340518.10000002384,340517.89999997616,337109.584,337117.39999997616,337129.369,340529.429,8,400,5,,ISIC_9639931.JPG
break,html.Screen,4_54_1,2023-10-31T17:01:31.374Z,,0,,,NaN,,,,,,false,,,,340519.3000000119,340519.1999999881,,340518.3000000119,,340529.429,8,400,,,
break_continue,html.Screen,4_54_2,2023-10-31T17:01:31.375Z,,0,,,NaN,,,,,,false,,,,340519.60000002384,340519.5,,340519.39999997616,,340529.429,8,400,,,
sequence,flow.Sequence,4_54,2023-10-31T17:01:31.375Z,,0,,,3390.130999999994,completion,,,,,false,,,,340519.6999999881,340519.5,337109.584,337117.39999997616,337129.369,340529.429,8,400,,,
trial,html.Screen,4_55_0,2023-10-31T17:01:36.805Z,,0,2,,5420.371000011917,response,ISIC_7215375.JPG,32,ISIC_0030845.JPG,ISIC_0030845.JPG,false,0,keypress(z),500,345950.10000002384,345949.8000000119,340510.32,340519.8000000119,340529.429,345960.925,8,400,6,,ISIC_7215375.JPG
break,html.Screen,4_55_1,2023-10-31T17:01:36.806Z,,0,,,NaN,,,,,,false,,,,345951.39999997616,345951.1999999881,,345950.39999997616,,345960.925,8,400,,,
break_continue,html.Screen,4_55_2,2023-10-31T17:01:36.807Z,,0,,,NaN,,,,,,false,,,,345951.6999999881,345951.60000002384,,345951.60000002384,,345960.925,8,400,,,
sequence,flow.Sequence,4_55,2023-10-31T17:01:36.807Z,,0,,,5422.171000023838,completion,,,,,false,,,,345951.89999997616,345951.60000002384,340510.32,340519.8000000119,340529.429,345960.925,8,400,,,
trial,html.Screen,4_56_0,2023-10-31T17:01:40.176Z,,0,2,,3359.5750000000116,response,ISIC_0062235.JPG,12,ISIC_0032522.JPG,ISIC_0032522.JPG,false,0,keypress(z),500,349320.89999997616,349320.5,345942.895,345952,345960.925,349326.073,8,400,7,,ISIC_0062235.JPG
break,html.Screen,4_56_1,2023-10-31T17:01:40.177Z,,0,,,NaN,,,,,,false,,,,349322.5,349322.1999999881,,349321.10000002384,,349326.073,8,400,,,
break_continue,html.Screen,4_56_2,2023-10-31T17:01:40.178Z,,0,,,NaN,,,,,,false,,,,349322.8000000119,349322.6999999881,,349322.60000002384,,349326.073,8,400,,,
sequence,flow.Sequence,4_56,2023-10-31T17:01:40.178Z,,0,,,3361.7749999880907,completion,,,,,false,,,,349322.89999997616,349322.6999999881,345942.895,345951.89999997616,345960.925,349326.073,8,400,,,
trial,html.Screen,4_57_0,2023-10-31T17:01:43.206Z,,0,2,,3024.927000000025,response,ISIC_0025217.JPG,20,ISIC_0009911.JPG,ISIC_0025217.JPG,false,1,keypress(m),500,352351.3000000119,352351,349309.88,349323.10000002384,349326.073,352361.215,8,400,8,,ISIC_0009911.JPG
break,html.Screen,4_57_1,2023-10-31T17:01:43.207Z,,0,,,NaN,,,,,,false,,,,352352.39999997616,352352.3000000119,,352351.5,,352361.215,8,400,,,
break_continue,html.Screen,4_57_2,2023-10-31T17:01:43.208Z,,0,,,NaN,,,,,,false,,,,352352.8000000119,352352.6999999881,,352352.60000002384,,352361.215,8,400,,,
sequence,flow.Sequence,4_57,2023-10-31T17:01:43.208Z,,0,,,3026.626999988104,completion,,,,,false,,,,352352.89999997616,352352.6999999881,349309.88,349323,349326.073,352361.215,8,400,,,
trial,html.Screen,4_58_0,2023-10-31T17:01:46.028Z,,0,2,,2811.4849999880535,response,ISIC_0010124.JPG,13,ISIC_0011641.JPG,ISIC_0011641.JPG,false,0,keypress(z),500,355173,355172.6999999881,352343.447,352353,352361.215,355176.013,8,400,9,,ISIC_0010124.JPG
break,html.Screen,4_58_1,2023-10-31T17:01:46.029Z,,0,,,NaN,,,,,,false,,,,355174.1999999881,355174.10000002384,,355173.1999999881,,355176.013,8,400,,,
break_continue,html.Screen,4_58_2,2023-10-31T17:01:46.030Z,,0,,,NaN,,,,,,false,,,,355174.60000002384,355174.5,,355174.39999997616,,355176.013,8,400,,,
sequence,flow.Sequence,4_58,2023-10-31T17:01:46.030Z,,0,,,2813.2849999999744,completion,,,,,false,,,,355174.8000000119,355174.5,352343.447,352353,352361.215,355176.013,8,400,,,
trial,html.Screen,4_59_0,2023-10-31T17:01:49.796Z,,0,2,,3764.5870000238647,response,ISIC_9625295.JPG,8,ISIC_4810500.JPG,ISIC_9625295.JPG,false,1,keypress(m),500,358941.10000002384,358940.60000002384,355159.788,355174.89999997616,355176.013,358959.786,8,400,10,,ISIC_4810500.JPG
break,html.Screen,4_59_1,2023-10-31T17:01:49.800Z,,0,,,NaN,,,,,,false,,,,358945.39999997616,358945.1999999881,,358944.6999999881,,358959.786,8,400,,,
break_continue,html.Screen,4_59_2,2023-10-31T17:01:49.801Z,,0,,,NaN,,,,,,false,,,,358946.10000002384,358946,,358945.6999999881,,358959.786,8,400,,,
sequence,flow.Sequence,4_59,2023-10-31T17:01:49.801Z,,0,,,3769.987000000023,completion,,,,,false,,,,358946.39999997616,358946,355159.788,355174.89999997616,355176.013,358959.786,8,400,,,
trial,html.Screen,4_60_0,2023-10-31T17:01:52.716Z,,0,2,,2900.81400002382,response,ISIC_0010023.JPG,5,ISIC_0698821.JPG,ISIC_0010023.JPG,false,1,keypress(m),500,361861,361860.60000002384,358943.262,358946.60000002384,358959.786,361876.579,8,400,11,,ISIC_0698821.JPG
break,html.Screen,4_60_1,2023-10-31T17:01:52.717Z,,0,,,NaN,,,,,,false,,,,361862.39999997616,361861.89999997616,,361861.3000000119,,361876.579,8,400,,,
break_continue,html.Screen,4_60_2,2023-10-31T17:01:52.718Z,,0,,,NaN,,,,,,false,,,,361862.8000000119,361862.8000000119,,361862.5,,361876.579,8,400,,,
sequence,flow.Sequence,4_60,2023-10-31T17:01:52.718Z,,0,,,2903.014000011899,completion,,,,,false,,,,361863,361862.8000000119,358943.262,358946.5,358959.786,361876.579,8,400,,,
trial,html.Screen,4_61_0,2023-10-31T17:01:57.634Z,,0,2,,4902.120999988052,response,ISIC_0055917.JPG,6,ISIC_0016033.JPG,ISIC_0016033.JPG,false,0,keypress(z),500,366779,366778.6999999881,361859.752,361863.10000002384,361876.579,366792.683,8,400,12,,ISIC_0055917.JPG
break,html.Screen,4_61_1,2023-10-31T17:01:57.635Z,,0,,,NaN,,,,,,false,,,,366780,366779.8000000119,,366779.1999999881,,366792.683,8,400,,,
break_continue,html.Screen,4_61_2,2023-10-31T17:01:57.635Z,,0,,,NaN,,,,,,false,,,,366780.39999997616,366780.3000000119,,366780.10000002384,,366792.683,8,400,,,
sequence,flow.Sequence,4_61,2023-10-31T17:01:57.636Z,,0,,,4903.721000011894,completion,,,,,false,,,,366780.5,366780.3000000119,361859.752,361863.10000002384,361876.579,366792.683,8,400,,,
trial,html.Screen,4_62_0,2023-10-31T17:02:00.541Z,,0,2,,2892.51699998806,response,ISIC_1513720.JPG,6,ISIC_6912979.JPG,ISIC_1513720.JPG,false,1,keypress(m),500,369685.5,369685.1999999881,366776.867,366780.6999999881,366792.683,369694.258,8,400,13,,ISIC_6912979.JPG
break,html.Screen,4_62_1,2023-10-31T17:02:00.542Z,,0,,,NaN,,,,,,false,,,,369687.10000002384,369686.89999997616,,369685.8000000119,,369694.258,8,400,,,
break_continue,html.Screen,4_62_2,2023-10-31T17:02:00.543Z,,0,,,NaN,,,,,,false,,,,369687.60000002384,369687.39999997616,,369687.3000000119,,369694.258,8,400,,,
sequence,flow.Sequence,4_62,2023-10-31T17:02:00.543Z,,0,,,2894.716999976139,completion,,,,,false,,,,369687.6999999881,369687.39999997616,366776.867,366780.6999999881,366792.683,369694.258,8,400,,,
trial,html.Screen,4_63_0,2023-10-31T17:02:04.771Z,,0,2,,4221.2420000000275,response,ISIC_2864893.JPG,6,ISIC_0061870.JPG,ISIC_2864893.JPG,false,1,keypress(m),500,373915.8000000119,373915.5,369676.284,369687.8000000119,369694.258,373928.289,8,400,14,,ISIC_0061870.JPG
break,html.Screen,4_63_1,2023-10-31T17:02:04.772Z,,0,,,NaN,,,,,,false,,,,373917.1999999881,373917,,373916,,373928.289,8,400,,,
break_continue,html.Screen,4_63_2,2023-10-31T17:02:04.773Z,,0,,,NaN,,,,,,false,,,,373917.60000002384,373917.39999997616,,373917.3000000119,,373928.289,8,400,,,
sequence,flow.Sequence,4_63,2023-10-31T17:02:04.773Z,,0,,,4223.141999976186,completion,,,,,false,,,,373917.6999999881,373917.39999997616,369676.284,369687.6999999881,369694.258,373928.289,8,400,,,
trial,html.Screen,4_64_0,2023-10-31T17:02:08.636Z,,0,2,,3852.811000023852,response,ISIC_0062204.JPG,13,ISIC_0032875.JPG,ISIC_0062204.JPG,false,1,keypress(m),500,377781.39999997616,377781.10000002384,373909.442,373917.6999999881,373928.289,377793.989,8,400,15,,ISIC_0032875.JPG
break,html.Screen,4_64_1,2023-10-31T17:02:08.638Z,,0,,,NaN,,,,,,false,,,,377782.60000002384,377782.3000000119,,377781.60000002384,,377793.989,8,400,,,
break_continue,html.Screen,4_64_2,2023-10-31T17:02:08.638Z,,0,,,NaN,,,,,,false,,,,377782.89999997616,377782.8000000119,,377782.6999999881,,377793.989,8,400,,,
sequence,flow.Sequence,4_64,2023-10-31T17:02:08.638Z,,0,,,3854.511000011931,completion,,,,,false,,,,377783,377782.8000000119,373909.442,373917.6999999881,373928.289,377793.989,8,400,,,
trial,html.Screen,4_65_0,2023-10-31T17:02:12.532Z,,0,2,,3882.3110000119195,response,ISIC_0055297.JPG,27,ISIC_0027072.JPG,ISIC_0027072.JPG,false,0,keypress(z),500,381676.8000000119,381676.3000000119,377776.567,377783.10000002384,377793.989,381692.601,8,400,16,,ISIC_0055297.JPG
break,html.Screen,4_65_1,2023-10-31T17:02:12.533Z,,0,,,NaN,,,,,,false,,,,381678.10000002384,381677.8000000119,,381677.10000002384,,381692.601,8,400,,,
break_continue,html.Screen,4_65_2,2023-10-31T17:02:12.534Z,,0,,,NaN,,,,,,false,,,,381678.8000000119,381678.60000002384,,381678.3000000119,,381692.601,8,400,,,
sequence,flow.Sequence,4_65,2023-10-31T17:02:12.534Z,,0,,,3884.6110000238405,completion,,,,,false,,,,381678.89999997616,381678.60000002384,377776.567,377783.10000002384,377793.989,381692.601,8,400,,,
trial,html.Screen,4_66_0,2023-10-31T17:02:17.394Z,,0,2,,4845.798999976134,response,ISIC_4459125.JPG,10,ISIC_0067120.JPG,ISIC_4459125.JPG,false,1,keypress(m),500,386538.8000000119,386538.39999997616,381676.481,381679,381692.601,386542.599,8,400,17,,ISIC_0067120.JPG
break,html.Screen,4_66_1,2023-10-31T17:02:17.395Z,,0,,,NaN,,,,,,false,,,,386540,386539.8000000119,,386538.89999997616,,386542.599,8,400,,,
break_continue,html.Screen,4_66_2,2023-10-31T17:02:17.395Z,,0,,,NaN,,,,,,false,,,,386540.1999999881,386540.1999999881,,386540.10000002384,,386542.599,8,400,,,
sequence,flow.Sequence,4_66,2023-10-31T17:02:17.395Z,,0,,,4847.598999988055,completion,,,,,false,,,,386540.3000000119,386540.1999999881,381676.481,381679,381692.601,386542.599,8,400,,,
trial,html.Screen,4_67_0,2023-10-31T17:02:21.164Z,,0,2,,3766.3009999761707,response,ISIC_0056110.JPG,1,ISIC_0016123.JPG,ISIC_0016123.JPG,false,0,keypress(z),500,390309.39999997616,390308.89999997616,386526.596,386540.39999997616,386542.599,390326.008,8,400,18,,ISIC_0056110.JPG
break,html.Screen,4_67_1,2023-10-31T17:02:21.166Z,,0,,,NaN,,,,,,false,,,,390310.60000002384,390310.3000000119,,390309.60000002384,,390326.008,8,400,,,
break_continue,html.Screen,4_67_2,2023-10-31T17:02:21.166Z,,0,,,NaN,,,,,,false,,,,390311.1999999881,390310.89999997616,,390310.8000000119,,390326.008,8,400,,,
sequence,flow.Sequence,4_67,2023-10-31T17:02:21.167Z,,0,,,3768.3009999761707,completion,,,,,false,,,,390311.60000002384,390310.89999997616,386526.596,386540.39999997616,386542.599,390326.008,8,400,,,
trial,html.Screen,4_68_0,2023-10-31T17:02:26.296Z,,0,2,,5114.891999976186,response,ISIC_9929097.JPG,6,ISIC_8838753.JPG,ISIC_9929097.JPG,false,1,keypress(m),500,395441.1999999881,395440.89999997616,390309.486,390311.6999999881,390326.008,395466.577,8,400,19,,ISIC_8838753.JPG
break,html.Screen,4_68_1,2023-10-31T17:02:26.298Z,,0,,,NaN,,,,,,false,,,,395442.60000002384,395442.1999999881,,395441.39999997616,,395466.577,8,400,,,
break_continue,html.Screen,4_68_2,2023-10-31T17:02:26.298Z,,0,,,NaN,,,,,,false,,,,395443,395442.89999997616,,395442.6999999881,,395466.577,8,400,,,
sequence,flow.Sequence,4_68,2023-10-31T17:02:26.298Z,,0,,,5116.891999976186,completion,,,,,false,,,,395443.10000002384,395442.89999997616,390309.486,390311.6999999881,390326.008,395466.577,8,400,,,
trial,html.Screen,4_69_0,2023-10-31T17:02:30.256Z,,0,2,,3934.7230000119307,response,ISIC_0030911.JPG,4,ISIC_0008055.JPG,ISIC_0030911.JPG,false,1,keypress(m),500,399401.5,399401.3000000119,395426.549,395443.3000000119,395466.577,399412.925,8,400,20,,ISIC_0008055.JPG
break,html.Screen,4_69_1,2023-10-31T17:02:30.258Z,,0,,,NaN,,,,,,false,,,,399402.60000002384,399402.39999997616,,399401.6999999881,,399412.925,8,400,,,
break_continue,html.Screen,4_69_2,2023-10-31T17:02:30.258Z,,0,,,NaN,,,,,,false,,,,399403,399402.8000000119,,399402.8000000119,,399412.925,8,400,,,
sequence,flow.Sequence,4_69,2023-10-31T17:02:30.258Z,,0,,,3936.2230000119307,completion,,,,,false,,,,399403.10000002384,399402.8000000119,395426.549,395443.1999999881,395466.577,399412.925,8,400,,,
trial,html.Screen,4_70_0,2023-10-31T17:02:35.973Z,,0,2,,5704.97499997617,response,ISIC_0056246.JPG,5,ISIC_7354733.JPG,ISIC_0056246.JPG,false,1,keypress(m),500,405118.3000000119,405117.89999997616,399393.163,399403.10000002384,399412.925,405126.737,8,400,21,,ISIC_7354733.JPG
break,html.Screen,4_70_1,2023-10-31T17:02:35.975Z,,0,,,NaN,,,,,,false,,,,405119.6999999881,405119.39999997616,,405118.39999997616,,405126.737,8,400,,,
break_continue,html.Screen,4_70_2,2023-10-31T17:02:35.975Z,,0,,,NaN,,,,,,false,,,,405120,405120,,405119.8000000119,,405126.737,8,400,,,
sequence,flow.Sequence,4_70,2023-10-31T17:02:35.975Z,,0,,,5707.075000000012,completion,,,,,false,,,,405120.1999999881,405120,399393.163,399403.10000002384,399412.925,405126.737,8,400,,,
trial,html.Screen,4_71_0,2023-10-31T17:02:39.343Z,,0,2,,3360.762999999977,response,ISIC_6443700.JPG,11,ISIC_0062812.JPG,ISIC_6443700.JPG,false,1,keypress(m),500,408488,408487.5,405110.161,405120.3000000119,405126.737,408492.723,8,400,22,,ISIC_0062812.JPG
break,html.Screen,4_71_1,2023-10-31T17:02:39.344Z,,0,,,NaN,,,,,,false,,,,408489.5,408489.3000000119,,408488.3000000119,,408492.723,8,400,,,
break_continue,html.Screen,4_71_2,2023-10-31T17:02:39.345Z,,0,,,NaN,,,,,,false,,,,408489.8000000119,408489.8000000119,,408489.6999999881,,408492.723,8,400,,,
sequence,flow.Sequence,4_71,2023-10-31T17:02:39.345Z,,0,,,3363.063000011898,completion,,,,,false,,,,408490,408489.8000000119,405110.161,405120.3000000119,405126.737,408492.723,8,400,,,
trial,html.Screen,4_72_0,2023-10-31T17:02:42.772Z,,0,2,,3424.277000000002,response,ISIC_0025626.JPG,10,ISIC_0024235.JPG,ISIC_0024235.JPG,false,0,keypress(z),500,411917.3000000119,411917,408475.569,408490.10000002384,408492.723,411929.484,8,400,23,,ISIC_0025626.JPG
break,html.Screen,4_72_1,2023-10-31T17:02:42.774Z,,0,,,NaN,,,,,,false,,,,411919.39999997616,411919.3000000119,,411918.39999997616,,411929.484,8,400,,,
break_continue,html.Screen,4_72_2,2023-10-31T17:02:42.775Z,,0,,,NaN,,,,,,false,,,,411919.8000000119,411919.6999999881,,411919.60000002384,,411929.484,8,400,,,
sequence,flow.Sequence,4_72,2023-10-31T17:02:42.775Z,,0,,,3426.976999988081,completion,,,,,false,,,,411919.89999997616,411919.6999999881,408475.569,408490.10000002384,408492.723,411929.484,8,400,,,
trial,html.Screen,4_73_0,2023-10-31T17:02:46.973Z,,0,2,,4188.215999988082,response,ISIC_1122023.JPG,10,ISIC_9257356.JPG,ISIC_1122023.JPG,false,1,keypress(m),500,416118.10000002384,416117.6999999881,411908.789,411919.89999997616,411929.484,416127.272,8,400,24,,ISIC_9257356.JPG
break,html.Screen,4_73_1,2023-10-31T17:02:46.974Z,,0,,,NaN,,,,,,false,,,,416119.39999997616,416119.10000002384,,416118.3000000119,,416127.272,8,400,,,
break_continue,html.Screen,4_73_2,2023-10-31T17:02:46.975Z,,0,,,NaN,,,,,,false,,,,416119.6999999881,416119.60000002384,,416119.5,,416127.272,8,400,,,
sequence,flow.Sequence,4_73,2023-10-31T17:02:46.975Z,,0,,,4190.116000023845,completion,,,,,false,,,,416119.89999997616,416119.60000002384,411908.789,411919.89999997616,411929.484,416127.272,8,400,,,
trial,html.Screen,4_74_0,2023-10-31T17:02:52.770Z,,0,2,,5787.127999976161,response,ISIC_0009955.JPG,31,ISIC_4874581.JPG,ISIC_4874581.JPG,false,0,keypress(z),500,421914.6999999881,421914.39999997616,416109.911,416120,416127.272,421942.837,8,400,25,,ISIC_0009955.JPG
break,html.Screen,4_74_1,2023-10-31T17:02:52.770Z,,0,,,NaN,,,,,,false,,,,421915.5,421915.3000000119,,421914.8000000119,,421942.837,8,400,,,
break_continue,html.Screen,4_74_2,2023-10-31T17:02:52.771Z,,0,,,NaN,,,,,,false,,,,421915.6999999881,421915.60000002384,,421915.60000002384,,421942.837,8,400,,,
sequence,flow.Sequence,4_74,2023-10-31T17:02:52.771Z,,0,,,5788.328000023845,completion,,,,,false,,,,421915.89999997616,421915.60000002384,416109.911,416119.89999997616,416127.272,421942.837,8,400,,,
trial,html.Screen,4_75_0,2023-10-31T17:02:56.107Z,,0,2,,3308.6630000000005,response,ISIC_6066292.JPG,6,ISIC_7976724.JPG,ISIC_6066292.JPG,false,1,keypress(m),500,425251.8000000119,425251.5,421926.344,421915.89999997616,421942.837,425262.998,8,400,26,,ISIC_7976724.JPG
break,html.Screen,4_75_1,2023-10-31T17:02:56.108Z,,0,,,NaN,,,,,,false,,,,425253.1999999881,425253.10000002384,,425252,,425262.998,8,400,,,
break_continue,html.Screen,4_75_2,2023-10-31T17:02:56.109Z,,0,,,NaN,,,,,,false,,,,425253.60000002384,425253.5,,425253.39999997616,,425262.998,8,400,,,
sequence,flow.Sequence,4_75,2023-10-31T17:02:56.109Z,,0,,,3310.6630000000005,completion,,,,,false,,,,425253.6999999881,425253.5,421926.344,421915.89999997616,421942.837,425262.998,8,400,,,
trial,html.Screen,4_76_0,2023-10-31T17:03:00.480Z,,0,2,,4361.8020000118995,response,ISIC_4911407.JPG,20,ISIC_0030342.JPG,ISIC_4911407.JPG,false,1,keypress(m),500,429625.1999999881,429624.8000000119,425242.297,425253.8000000119,425262.998,429642.509,8,400,27,,ISIC_0030342.JPG
break,html.Screen,4_76_1,2023-10-31T17:03:00.481Z,,0,,,NaN,,,,,,false,,,,429626.39999997616,429626.10000002384,,429625.39999997616,,429642.509,8,400,,,
break_continue,html.Screen,4_76_2,2023-10-31T17:03:00.482Z,,0,,,NaN,,,,,,false,,,,429626.8000000119,429626.60000002384,,429626.5,,429642.509,8,400,,,
sequence,flow.Sequence,4_76,2023-10-31T17:03:00.482Z,,0,,,4363.60200002382,completion,,,,,false,,,,429626.89999997616,429626.60000002384,425242.297,425253.8000000119,425262.998,429642.509,8,400,,,
trial,html.Screen,4_77_0,2023-10-31T17:03:06.361Z,,0,2,,5863.390999976138,response,ISIC_6828892.JPG,6,ISIC_8796456.JPG,ISIC_8796456.JPG,false,0,keypress(z),500,435506.1999999881,435505.89999997616,429625.816,429627,429642.509,435510.603,8,400,28,,ISIC_6828892.JPG
break,html.Screen,4_77_1,2023-10-31T17:03:06.362Z,,0,,,NaN,,,,,,false,,,,435507.5,435507.3000000119,,435506.3000000119,,435510.603,8,400,,,
break_continue,html.Screen,4_77_2,2023-10-31T17:03:06.363Z,,0,,,NaN,,,,,,false,,,,435507.8000000119,435507.6999999881,,435507.60000002384,,435510.603,8,400,,,
sequence,flow.Sequence,4_77,2023-10-31T17:03:06.363Z,,0,,,5865.190999988059,completion,,,,,false,,,,435507.89999997616,435507.6999999881,429625.816,429627,429642.509,435510.603,8,400,,,
trial,html.Screen,4_78_0,2023-10-31T17:03:10.063Z,,0,2,,3696.697000011918,response,ISIC_4383671.JPG,6,ISIC_1472777.JPG,ISIC_1472777.JPG,false,0,keypress(z),500,439207.6999999881,439207.3000000119,435495.091,435508,435510.603,439212.222,8,400,29,,ISIC_4383671.JPG
break,html.Screen,4_78_1,2023-10-31T17:03:10.065Z,,0,,,NaN,,,,,,false,,,,439210.3000000119,439208.6999999881,,439207.89999997616,,439212.222,8,400,,,
break_continue,html.Screen,4_78_2,2023-10-31T17:03:10.066Z,,0,,,NaN,,,,,,false,,,,439210.6999999881,439210.60000002384,,439210.39999997616,,439212.222,8,400,,,
sequence,flow.Sequence,4_78,2023-10-31T17:03:10.066Z,,0,,,3699.997000023839,completion,,,,,false,,,,439210.89999997616,439210.60000002384,435495.091,435508,435510.603,439212.222,8,400,,,
trial,html.Screen,4_79_0,2023-10-31T17:03:13.657Z,,0,2,,3589.578000011912,response,ISIC_0010785.JPG,7,ISIC_0032473.JPG,ISIC_0032473.JPG,false,0,keypress(z),500,442802.10000002384,442801.8000000119,439192.412,439211,439212.222,442811.029,8,400,30,,ISIC_0010785.JPG
break,html.Screen,4_79_1,2023-10-31T17:03:13.658Z,,0,,,NaN,,,,,,false,,,,442803.10000002384,442802.8000000119,,442802.3000000119,,442811.029,8,400,,,
break_continue,html.Screen,4_79_2,2023-10-31T17:03:13.659Z,,0,,,NaN,,,,,,false,,,,442803.60000002384,442803.5,,442803.1999999881,,442811.029,8,400,,,
sequence,flow.Sequence,4_79,2023-10-31T17:03:13.659Z,,0,,,3591.277999999991,completion,,,,,false,,,,442803.8000000119,442803.5,439192.412,439211,439212.222,442811.029,8,400,,,
trial,html.Screen,4_80_0,2023-10-31T17:03:19.550Z,,0,2,,5883.7710000119405,response,ISIC_0009100.JPG,7,ISIC_0003159.JPG,ISIC_0003159.JPG,false,0,keypress(z),500,448695.10000002384,448694.8000000119,442792.199,442804,442811.029,448709.225,8,400,31,,ISIC_0009100.JPG
break,html.Screen,4_80_1,2023-10-31T17:03:19.551Z,,0,,,NaN,,,,,,false,,,,448696.1999999881,448696,,448695.3000000119,,448709.225,8,400,,,
break_continue,html.Screen,4_80_2,2023-10-31T17:03:19.551Z,,0,,,NaN,,,,,,false,,,,448696.5,448696.5,,448696.3000000119,,448709.225,8,400,,,
sequence,flow.Sequence,4_80,2023-10-31T17:03:19.552Z,,0,,,5885.47100000002,completion,,,,,false,,,,448696.6999999881,448696.5,442792.199,442803.89999997616,442811.029,448709.225,8,400,,,
trial,html.Screen,4_81_0,2023-10-31T17:03:23.633Z,,0,2,,4068.6749999761814,response,ISIC_0030435.JPG,5,ISIC_0033250.JPG,ISIC_0033250.JPG,false,0,keypress(z),500,452778.10000002384,452777.89999997616,448692.758,448696.6999999881,448709.225,452810.225,8,400,32,,ISIC_0030435.JPG
break,html.Screen,4_81_1,2023-10-31T17:03:23.634Z,,0,,,NaN,,,,,,false,,,,452778.89999997616,452778.8000000119,,452778.39999997616,,452810.225,8,400,,,
break_continue,html.Screen,4_81_2,2023-10-31T17:03:23.634Z,,0,,,NaN,,,,,,false,,,,452779.1999999881,452779.10000002384,,452779,,452810.225,8,400,,,
sequence,flow.Sequence,4_81,2023-10-31T17:03:23.634Z,,0,,,4069.875000023865,completion,,,,,false,,,,452779.1999999881,452779.10000002384,448692.758,448696.6999999881,448709.225,452810.225,8,400,,,
trial,html.Screen,4_82_0,2023-10-31T17:03:28.406Z,,0,2,,4740.075000011944,response,ISIC_4509525.JPG,3,ISIC_0007619.JPG,ISIC_4509525.JPG,false,1,keypress(m),500,457550.60000002384,457550.3000000119,452792.918,452779.3000000119,452810.225,457562.871,8,400,33,,ISIC_0007619.JPG
break,html.Screen,4_82_1,2023-10-31T17:03:28.407Z,,0,,,NaN,,,,,,false,,,,457552.10000002384,457551.89999997616,,457550.8000000119,,457562.871,8,400,,,
break_continue,html.Screen,4_82_2,2023-10-31T17:03:28.407Z,,0,,,NaN,,,,,,false,,,,457552.5,457552.3000000119,,457552.3000000119,,457562.871,8,400,,,
sequence,flow.Sequence,4_82,2023-10-31T17:03:28.408Z,,0,,,4742.075000011944,completion,,,,,false,,,,457552.60000002384,457552.3000000119,452792.918,452779.3000000119,452810.225,457562.871,8,400,,,
trial,html.Screen,4_83_0,2023-10-31T17:03:32.495Z,,0,2,,4077.3289999880944,response,ISIC_0025812.JPG,11,ISIC_0061077.JPG,ISIC_0025812.JPG,false,1,keypress(m),500,461640.5,461640.1999999881,457542.742,457552.6999999881,457562.871,461671.812,8,400,34,,ISIC_0061077.JPG
break,html.Screen,4_83_1,2023-10-31T17:03:32.497Z,,0,,,NaN,,,,,,false,,,,461641.60000002384,461641.39999997616,,461640.60000002384,,461671.812,8,400,,,
break_continue,html.Screen,4_83_2,2023-10-31T17:03:32.497Z,,0,,,NaN,,,,,,false,,,,461641.89999997616,461641.8000000119,,461641.6999999881,,461671.812,8,400,,,
sequence,flow.Sequence,4_83,2023-10-31T17:03:32.497Z,,0,,,4078.9290000119363,completion,,,,,false,,,,461642,461641.8000000119,457542.742,457552.60000002384,457562.871,461671.812,8,400,,,
trial,html.Screen,4_84_0,2023-10-31T17:03:35.354Z,,0,2,,2826.4880000119447,response,ISIC_5312710.JPG,17,ISIC_6155981.JPG,ISIC_5312710.JPG,false,1,keypress(m),500,464498.60000002384,464498.3000000119,461625.946,461642.10000002384,461671.812,464511.197,8,400,35,,ISIC_6155981.JPG
break,html.Screen,4_84_1,2023-10-31T17:03:35.355Z,,0,,,NaN,,,,,,false,,,,464500.1999999881,464499.89999997616,,464499,,464511.197,8,400,,,
break_continue,html.Screen,4_84_2,2023-10-31T17:03:35.355Z,,0,,,NaN,,,,,,false,,,,464500.5,464500.39999997616,,464500.3000000119,,464511.197,8,400,,,
sequence,flow.Sequence,4_84,2023-10-31T17:03:35.356Z,,0,,,2828.587999976182,completion,,,,,false,,,,464500.6999999881,464500.39999997616,461625.946,461642.10000002384,461671.812,464511.197,8,400,,,
trial,html.Screen,4_85_0,2023-10-31T17:03:39.567Z,,0,2,,4200.202999976173,response,ISIC_0028759.JPG,5,ISIC_6056692.JPG,ISIC_0028759.JPG,false,1,keypress(m),500,468711.6999999881,468711.39999997616,464492.483,464500.8000000119,464511.197,468725.797,8,400,36,,ISIC_6056692.JPG
break,html.Screen,4_85_1,2023-10-31T17:03:39.568Z,,0,,,NaN,,,,,,false,,,,468712.89999997616,468712.6999999881,,468711.89999997616,,468725.797,8,400,,,
break_continue,html.Screen,4_85_2,2023-10-31T17:03:39.568Z,,0,,,NaN,,,,,,false,,,,468713.1999999881,468713.10000002384,,468713.10000002384,,468725.797,8,400,,,
sequence,flow.Sequence,4_85,2023-10-31T17:03:39.568Z,,0,,,4201.903000023856,completion,,,,,false,,,,468713.39999997616,468713.10000002384,464492.483,464500.8000000119,464511.197,468725.797,8,400,,,
trial,html.Screen,4_86_0,2023-10-31T17:03:43.064Z,,0,2,,3483.4029999880586,response,ISIC_0033879.JPG,30,ISIC_3136228.JPG,ISIC_3136228.JPG,false,0,keypress(z),500,472209.5,472209.1999999881,468709.165,468713.39999997616,468725.797,472225.984,8,400,37,,ISIC_0033879.JPG
break,html.Screen,4_86_1,2023-10-31T17:03:43.066Z,,0,,,NaN,,,,,,false,,,,472210.6999999881,472210.5,,472209.89999997616,,472225.984,8,400,,,
break_continue,html.Screen,4_86_2,2023-10-31T17:03:43.066Z,,0,,,NaN,,,,,,false,,,,472211.39999997616,472211,,472210.89999997616,,472225.984,8,400,,,
sequence,flow.Sequence,4_86,2023-10-31T17:03:43.067Z,,0,,,3485.2029999999795,completion,,,,,false,,,,472211.6999999881,472211,468709.165,468713.39999997616,468725.797,472225.984,8,400,,,
trial,html.Screen,4_87_0,2023-10-31T17:03:49.278Z,,0,2,,6196.415999976161,response,ISIC_7897925.JPG,7,ISIC_3058800.JPG,ISIC_7897925.JPG,false,1,keypress(m),500,478422.8000000119,478422.39999997616,472209.248,472211.89999997616,472225.984,478427.388,8,400,38,,ISIC_3058800.JPG
break,html.Screen,4_87_1,2023-10-31T17:03:49.279Z,,0,,,NaN,,,,,,false,,,,478423.8000000119,478423.5,,478422.89999997616,,478427.388,8,400,,,
break_continue,html.Screen,4_87_2,2023-10-31T17:03:49.279Z,,0,,,NaN,,,,,,false,,,,478424.10000002384,478424,,478423.8000000119,,478427.388,8,400,,,
sequence,flow.Sequence,4_87,2023-10-31T17:03:49.279Z,,0,,,6198.016000000003,completion,,,,,false,,,,478424.1999999881,478424,472209.248,472211.8000000119,472225.984,478427.388,8,400,,,
trial,html.Screen,4_88_0,2023-10-31T17:03:52.357Z,,0,2,,3074.011999976181,response,ISIC_0028239.JPG,7,ISIC_0059336.JPG,ISIC_0059336.JPG,false,0,keypress(z),500,481501.8000000119,481501.39999997616,478409.21,478424.1999999881,478427.388,481510.714,8,400,39,,ISIC_0028239.JPG
break,html.Screen,4_88_1,2023-10-31T17:03:52.358Z,,0,,,NaN,,,,,,false,,,,481503.3000000119,481503,,481502,,481510.714,8,400,,,
break_continue,html.Screen,4_88_2,2023-10-31T17:03:52.359Z,,0,,,NaN,,,,,,false,,,,481503.6999999881,481503.60000002384,,481503.5,,481510.714,8,400,,,
sequence,flow.Sequence,4_88,2023-10-31T17:03:52.359Z,,0,,,3076.2120000238647,completion,,,,,false,,,,481503.8000000119,481503.60000002384,478409.21,478424.1999999881,478427.388,481510.714,8,400,,,
trial,html.Screen,4_89_0,2023-10-31T17:03:55.484Z,,0,2,,3118.286000000022,response,ISIC_6410859.JPG,13,ISIC_1292607.JPG,ISIC_6410859.JPG,false,1,keypress(m),500,484629.3000000119,484629,481492.855,481503.89999997616,481510.714,484642.223,8,400,40,,ISIC_1292607.JPG
break,html.Screen,4_89_1,2023-10-31T17:03:55.485Z,,0,,,NaN,,,,,,false,,,,484630.39999997616,484630.3000000119,,484629.5,,484642.223,8,400,,,
break_continue,html.Screen,4_89_2,2023-10-31T17:03:55.486Z,,0,,,NaN,,,,,,false,,,,484630.8000000119,484630.6999999881,,484630.60000002384,,484642.223,8,400,,,
sequence,flow.Sequence,4_89,2023-10-31T17:03:55.486Z,,0,,,3119.985999988101,completion,,,,,false,,,,484630.89999997616,484630.6999999881,481492.855,481503.8000000119,481510.714,484642.223,8,400,,,
trial,html.Screen,4_90_0,2023-10-31T17:03:59.697Z,,0,2,,4199.67699997616,response,ISIC_5148474.JPG,7,ISIC_0010631.JPG,ISIC_5148474.JPG,false,1,keypress(m),500,488842.5,488841.89999997616,484625.619,484630.89999997616,484642.223,488859.286,8,400,41,,ISIC_0010631.JPG
break,html.Screen,4_90_1,2023-10-31T17:03:59.699Z,,0,,,NaN,,,,,,false,,,,488843.6999999881,488843.5,,488842.8000000119,,488859.286,8,400,,,
break_continue,html.Screen,4_90_2,2023-10-31T17:03:59.699Z,,0,,,NaN,,,,,,false,,,,488844.10000002384,488844,,488843.89999997616,,488859.286,8,400,,,
sequence,flow.Sequence,4_90,2023-10-31T17:03:59.700Z,,0,,,4201.777000000002,completion,,,,,false,,,,488844.6999999881,488844,484625.619,484630.89999997616,484642.223,488859.286,8,400,,,
trial,html.Screen,4_91_0,2023-10-31T17:04:03.022Z,,0,2,,3307.213999999978,response,ISIC_2740756.JPG,35,ISIC_9847428.JPG,ISIC_2740756.JPG,false,1,keypress(m),500,492166.89999997616,492166.5,488842.4,488844.8000000119,488859.286,492177.145,8,400,42,,ISIC_9847428.JPG
break,html.Screen,4_91_1,2023-10-31T17:04:03.023Z,,0,,,NaN,,,,,,false,,,,492168.3000000119,492168.10000002384,,492167.1999999881,,492177.145,8,400,,,
break_continue,html.Screen,4_91_2,2023-10-31T17:04:03.024Z,,0,,,NaN,,,,,,false,,,,492168.8000000119,492168.6999999881,,492168.39999997616,,492177.145,8,400,,,
sequence,flow.Sequence,4_91,2023-10-31T17:04:03.024Z,,0,,,3309.413999988057,completion,,,,,false,,,,492168.89999997616,492168.6999999881,488842.4,488844.6999999881,488859.286,492177.145,8,400,,,
trial,html.Screen,4_92_0,2023-10-31T17:04:07.235Z,,0,2,,4202.955000023823,response,ISIC_0072976.JPG,7,ISIC_0010878.JPG,ISIC_0072976.JPG,false,1,keypress(m),500,496380.39999997616,496380.10000002384,492159.478,492169,492177.145,496393.571,8,400,43,,ISIC_0010878.JPG
break,html.Screen,4_92_1,2023-10-31T17:04:07.236Z,,0,,,NaN,,,,,,false,,,,496381.6999999881,496381.3000000119,,496380.60000002384,,496393.571,8,400,,,
break_continue,html.Screen,4_92_2,2023-10-31T17:04:07.237Z,,0,,,NaN,,,,,,false,,,,496381.89999997616,496381.89999997616,,496381.6999999881,,496393.571,8,400,,,
sequence,flow.Sequence,4_92,2023-10-31T17:04:07.237Z,,0,,,4204.7549999761395,completion,,,,,false,,,,496382,496381.89999997616,492159.478,492169,492177.145,496393.571,8,400,,,
trial,html.Screen,4_93_0,2023-10-31T17:04:10.572Z,,0,2,,3322.9290000000037,response,ISIC_0031021.JPG,17,ISIC_0057759.JPG,ISIC_0057759.JPG,false,0,keypress(z),500,499716.89999997616,499716.5,496376.302,496382.10000002384,496393.571,499727.064,8,400,44,,ISIC_0031021.JPG
break,html.Screen,4_93_1,2023-10-31T17:04:10.573Z,,0,,,NaN,,,,,,false,,,,499718.39999997616,499718.10000002384,,499717.1999999881,,499727.064,8,400,,,
break_continue,html.Screen,4_93_2,2023-10-31T17:04:10.574Z,,0,,,NaN,,,,,,false,,,,499718.8000000119,499718.6999999881,,499718.5,,499727.064,8,400,,,
sequence,flow.Sequence,4_93,2023-10-31T17:04:10.574Z,,0,,,3325.128999988083,completion,,,,,false,,,,499719,499718.6999999881,496376.302,496382.10000002384,496393.571,499727.064,8,400,,,
trial,html.Screen,4_94_0,2023-10-31T17:04:13.779Z,,0,2,,3197.135999988066,response,ISIC_5546488.JPG,6,ISIC_0645477.JPG,ISIC_0645477.JPG,false,0,keypress(z),500,502924.60000002384,502924.1999999881,499709.143,499719.10000002384,499727.064,502959.343,8,400,45,,ISIC_5546488.JPG
break,html.Screen,4_94_1,2023-10-31T17:04:13.781Z,,0,,,NaN,,,,,,false,,,,502926.10000002384,502925.89999997616,,502924.8000000119,,502959.343,8,400,,,
break_continue,html.Screen,4_94_2,2023-10-31T17:04:13.781Z,,0,,,NaN,,,,,,false,,,,502926.5,502926.39999997616,,502926.3000000119,,502959.343,8,400,,,
sequence,flow.Sequence,4_94,2023-10-31T17:04:13.782Z,,0,,,3199.335999976145,completion,,,,,false,,,,502926.6999999881,502926.39999997616,499709.143,499719.10000002384,499727.064,502959.343,8,400,,,
trial,html.Screen,4_95_0,2023-10-31T17:04:16.767Z,,0,2,,2952.6570000000065,response,ISIC_0059671.JPG,13,ISIC_3289098.JPG,ISIC_0059671.JPG,false,1,keypress(m),500,505912.1999999881,505912,502942.751,502926.8000000119,502959.343,505925.651,8,400,46,,ISIC_3289098.JPG
break,html.Screen,4_95_1,2023-10-31T17:04:16.768Z,,0,,,NaN,,,,,,false,,,,505913.60000002384,505913.39999997616,,505912.5,,505925.651,8,400,,,
break_continue,html.Screen,4_95_2,2023-10-31T17:04:16.769Z,,0,,,NaN,,,,,,false,,,,505914.10000002384,505914.10000002384,,505913.8000000119,,505925.651,8,400,,,
sequence,flow.Sequence,4_95,2023-10-31T17:04:16.769Z,,0,,,2954.7570000238484,completion,,,,,false,,,,505914.3000000119,505914.10000002384,502942.751,502926.8000000119,502959.343,505925.651,8,400,,,
trial,html.Screen,4_96_0,2023-10-31T17:04:19.690Z,,0,2,,2908.8489999999874,response,ISIC_0000520.JPG,12,ISIC_9696846.JPG,ISIC_0000520.JPG,false,1,keypress(m),500,508834.8000000119,508834.5,505909.35,505914.39999997616,505925.651,508843.739,8,400,47,,ISIC_9696846.JPG
break,html.Screen,4_96_1,2023-10-31T17:04:19.691Z,,0,,,NaN,,,,,,false,,,,508836.1999999881,508835.89999997616,,508835.10000002384,,508843.739,8,400,,,
break_continue,html.Screen,4_96_2,2023-10-31T17:04:19.691Z,,0,,,NaN,,,,,,false,,,,508836.39999997616,508836.3000000119,,508836.3000000119,,508843.739,8,400,,,
sequence,flow.Sequence,4_96,2023-10-31T17:04:19.691Z,,0,,,2910.6490000119084,completion,,,,,false,,,,508836.60000002384,508836.3000000119,505909.35,505914.3000000119,505925.651,508843.739,8,400,,,
trial,html.Screen,4_97_0,2023-10-31T17:04:23.009Z,,0,2,,3310.0610000119195,response,ISIC_5557025.JPG,7,ISIC_9103090.JPG,ISIC_9103090.JPG,false,0,keypress(z),500,512154.10000002384,512153.8000000119,508825.611,508836.6999999881,508843.739,512160.34,8,400,48,,ISIC_5557025.JPG
break,html.Screen,4_97_1,2023-10-31T17:04:23.010Z,,0,,,NaN,,,,,,false,,,,512155.5,512155.1999999881,,512154.3000000119,,512160.34,8,400,,,
break_continue,html.Screen,4_97_2,2023-10-31T17:04:23.011Z,,0,,,NaN,,,,,,false,,,,512155.8000000119,512155.6999999881,,512155.60000002384,,512160.34,8,400,,,
sequence,flow.Sequence,4_97,2023-10-31T17:04:23.011Z,,0,,,3311.9609999880777,completion,,,,,false,,,,512155.89999997616,512155.6999999881,508825.611,508836.6999999881,508843.739,512160.34,8,400,,,
trial,html.Screen,4_98_0,2023-10-31T17:04:26.107Z,,0,2,,3091.0599999761325,response,ISIC_1444154.JPG,10,ISIC_9860255.JPG,ISIC_1444154.JPG,false,1,keypress(m),500,515251.6999999881,515251.39999997616,512142.341,512156.10000002384,512160.34,515258.785,8,400,49,,ISIC_9860255.JPG
break,html.Screen,4_98_1,2023-10-31T17:04:26.108Z,,0,,,NaN,,,,,,false,,,,515253.10000002384,515252.89999997616,,515252.10000002384,,515258.785,8,400,,,
break_continue,html.Screen,4_98_2,2023-10-31T17:04:26.108Z,,0,,,NaN,,,,,,false,,,,515253.39999997616,515253.1999999881,,515253.10000002384,,515258.785,8,400,,,
sequence,flow.Sequence,4_98,2023-10-31T17:04:26.108Z,,0,,,3092.8599999880535,completion,,,,,false,,,,515253.60000002384,515253.1999999881,512142.341,512156,512160.34,515258.785,8,400,,,
trial,html.Screen,4_99_0,2023-10-31T17:04:29.393Z,,0,2,,3278.9149999881047,response,ISIC_5239607.JPG,14,ISIC_0064863.JPG,ISIC_0064863.JPG,false,0,keypress(z),500,518538,518537.6999999881,515242.908,515253.8000000119,515258.785,518542.784,8,400,50,,ISIC_5239607.JPG
break,html.Screen,4_99_1,2023-10-31T17:04:39.382Z,,0,,,9999.413000000059,timeout,,,,,false,,,,528527.1999999881,528525.588,518525.746,518538.3000000119,518542.784,528542.197,8,400,,,
break_continue,html.Screen,4_99_2,2023-10-31T17:04:40.627Z,,0,,,1206.1030000118772,response,,,,,false,continue,keypress(Space),,529772.6000000238,529748.3000000119,528525.588,528527.8000000119,528542.197,529775.4,8,400,,,
sequence,flow.Sequence,4_99,2023-10-31T17:04:40.628Z,,0,,,14489.515000011947,completion,,,,,false,,,,529772.8000000119,529748.3000000119,515242.908,515253.6999999881,515258.785,529775.4,8,400,,,
trial,html.Screen,4_100_0,2023-10-31T17:04:44.299Z,,0,3,,3668.2000000238186,response,ISIC_5301938.JPG,11,ISIC_0013311.JPG,ISIC_0013311.JPG,false,0,keypress(z),500,533444,533443.6000000238,529759.192,529772.8999999762,529775.4,533458.901,8,400,1,,ISIC_5301938.JPG
break,html.Screen,4_100_1,2023-10-31T17:04:44.300Z,,0,,,NaN,,,,,,false,,,,533445.3000000119,533445,,533444.3000000119,,533458.901,8,400,,,
break_continue,html.Screen,4_100_2,2023-10-31T17:04:44.300Z,,0,,,NaN,,,,,,false,,,,533445.6000000238,533445.5,,533445.3999999762,,533458.901,8,400,,,
sequence,flow.Sequence,4_100,2023-10-31T17:04:44.301Z,,0,,,3670.0999999999767,completion,,,,,false,,,,533445.6999999881,533445.5,529759.192,529772.8999999762,529775.4,533458.901,8,400,,,
trial,html.Screen,4_101_0,2023-10-31T17:04:47.585Z,,0,3,,3271.2989999881247,response,ISIC_0006321.JPG,8,ISIC_9433388.JPG,ISIC_9433388.JPG,false,0,keypress(z),500,536730.6000000238,536730.1999999881,533442.013,533445.8000000119,533458.901,536742.24,8,400,2,,ISIC_0006321.JPG
break,html.Screen,4_101_1,2023-10-31T17:04:47.587Z,,0,,,NaN,,,,,,false,,,,536731.8999999762,536731.6999999881,,536730.8999999762,,536742.24,8,400,,,
break_continue,html.Screen,4_101_2,2023-10-31T17:04:47.587Z,,0,,,NaN,,,,,,false,,,,536732.1999999881,536732.1999999881,,536732.1000000238,,536742.24,8,400,,,
sequence,flow.Sequence,4_101,2023-10-31T17:04:47.587Z,,0,,,3273.2989999881247,completion,,,,,false,,,,536732.3000000119,536732.1999999881,533442.013,533445.8000000119,533458.901,536742.24,8,400,,,
trial,html.Screen,4_102_0,2023-10-31T17:04:50.613Z,,0,3,,3015.5600000119302,response,ISIC_0010770.JPG,4,ISIC_0062456.JPG,ISIC_0010770.JPG,false,1,keypress(m),500,539758.1000000238,539757.8000000119,536725.807,536732.5,536742.24,539775.999,8,400,3,,ISIC_0062456.JPG
break,html.Screen,4_102_1,2023-10-31T17:04:50.614Z,,0,,,NaN,,,,,,false,,,,539759.1000000238,539758.8000000119,,539758.3000000119,,539775.999,8,400,,,
break_continue,html.Screen,4_102_2,2023-10-31T17:04:50.614Z,,0,,,NaN,,,,,,false,,,,539759.5,539759.3999999762,,539759.1999999881,,539775.999,8,400,,,
sequence,flow.Sequence,4_102,2023-10-31T17:04:50.615Z,,0,,,3017.1599999761675,completion,,,,,false,,,,539759.6000000238,539759.3999999762,536725.807,536732.3999999762,536742.24,539775.999,8,400,,,
trial,html.Screen,4_103_0,2023-10-31T17:04:53.390Z,,0,3,,2759.2009999881266,response,ISIC_0953675.JPG,21,ISIC_8649055.JPG,ISIC_8649055.JPG,false,0,keypress(z),500,542535.6000000238,542535.1999999881,539759.265,539759.8000000119,539775.999,542542.478,8,400,4,,ISIC_0953675.JPG
break,html.Screen,4_103_1,2023-10-31T17:04:53.392Z,,0,,,NaN,,,,,,false,,,,542537,542536.8000000119,,542535.8000000119,,542542.478,8,400,,,
break_continue,html.Screen,4_103_2,2023-10-31T17:04:53.392Z,,0,,,NaN,,,,,,false,,,,542537.3999999762,542537.3000000119,,542537.1000000238,,542542.478,8,400,,,
sequence,flow.Sequence,4_103,2023-10-31T17:04:53.392Z,,0,,,2761.3010000119684,completion,,,,,false,,,,542537.5,542537.3000000119,539759.265,539759.8000000119,539775.999,542542.478,8,400,,,
trial,html.Screen,4_104_0,2023-10-31T17:04:57.059Z,,0,3,,3661.9219999761553,response,ISIC_5391758.JPG,6,ISIC_0004564.JPG,ISIC_5391758.JPG,false,1,keypress(m),500,546204.6000000238,546204.3999999762,542525.861,542537.6000000238,542542.478,546210.19,8,400,5,,ISIC_0004564.JPG
break,html.Screen,4_104_1,2023-10-31T17:04:57.061Z,,0,,,NaN,,,,,,false,,,,546206.1000000238,546205.8000000119,,546204.8000000119,,546210.19,8,400,,,
break_continue,html.Screen,4_104_2,2023-10-31T17:04:57.061Z,,0,,,NaN,,,,,,false,,,,546206.3000000119,546206.3000000119,,546206.1999999881,,546210.19,8,400,,,
sequence,flow.Sequence,4_104,2023-10-31T17:04:57.061Z,,0,,,3663.822000011918,completion,,,,,false,,,,546206.6000000238,546206.3000000119,542525.861,542537.6000000238,542542.478,546210.19,8,400,,,
trial,html.Screen,4_105_0,2023-10-31T17:04:59.952Z,,0,3,,2886.9100000238977,response,ISIC_0033368.JPG,20,ISIC_4692454.JPG,ISIC_0033368.JPG,false,1,keypress(m),500,549097.3999999762,549097.1000000238,546191.806,546206.8000000119,546210.19,549108.796,8,400,6,,ISIC_4692454.JPG
break,html.Screen,4_105_1,2023-10-31T17:04:59.954Z,,0,,,NaN,,,,,,false,,,,549098.8000000119,549098.5,,549097.6999999881,,549108.796,8,400,,,
break_continue,html.Screen,4_105_2,2023-10-31T17:04:59.954Z,,0,,,NaN,,,,,,false,,,,549099.1999999881,549099.1000000238,,549099,,549108.796,8,400,,,
sequence,flow.Sequence,4_105,2023-10-31T17:04:59.954Z,,0,,,2888.9100000238977,completion,,,,,false,,,,549099.3000000119,549099.1000000238,546191.806,546206.8000000119,546210.19,549108.796,8,400,,,
trial,html.Screen,4_106_0,2023-10-31T17:05:03.066Z,,0,3,,3102.204000000027,response,ISIC_0062709.JPG,9,ISIC_0058016.JPG,ISIC_0058016.JPG,false,0,keypress(z),500,552211.3999999762,552211,549091.844,549099.3000000119,549108.796,552225.394,8,400,7,,ISIC_0062709.JPG
break,html.Screen,4_106_1,2023-10-31T17:05:03.067Z,,0,,,NaN,,,,,,false,,,,552212.6999999881,552212.5,,552211.6000000238,,552225.394,8,400,,,
break_continue,html.Screen,4_106_2,2023-10-31T17:05:03.068Z,,0,,,NaN,,,,,,false,,,,552213,552212.8999999762,,552212.8000000119,,552225.394,8,400,,,
sequence,flow.Sequence,4_106,2023-10-31T17:05:03.068Z,,0,,,3104.103999976185,completion,,,,,false,,,,552213.1000000238,552212.8999999762,549091.844,549099.3000000119,549108.796,552225.394,8,400,,,
trial,html.Screen,4_107_0,2023-10-31T17:05:06.095Z,,0,3,,3014.90600001195,response,ISIC_8649055.JPG,20,ISIC_5123817.JPG,ISIC_5123817.JPG,false,0,keypress(z),500,555240.6999999881,555240.3000000119,552209.343,552213.1999999881,552225.394,555275.488,8,400,8,,ISIC_8649055.JPG
break,html.Screen,4_107_1,2023-10-31T17:05:06.097Z,,0,,,NaN,,,,,,false,,,,555242.6000000238,555242.1999999881,,555240.8999999762,,555275.488,8,400,,,
break_continue,html.Screen,4_107_2,2023-10-31T17:05:06.098Z,,0,,,NaN,,,,,,false,,,,555243.1000000238,555242.8999999762,,555242.8000000119,,555275.488,8,400,,,
sequence,flow.Sequence,4_107,2023-10-31T17:05:06.098Z,,0,,,3017.505999976187,completion,,,,,false,,,,555243.3999999762,555242.8999999762,552209.343,552213.1999999881,552225.394,555275.488,8,400,,,
trial,html.Screen,4_108_0,2023-10-31T17:05:10.139Z,,0,3,,4008.812000011909,response,ISIC_9828053.JPG,7,ISIC_8613657.JPG,ISIC_9828053.JPG,false,1,keypress(m),500,559284.6999999881,559284.3000000119,555259.101,555243.5,555275.488,559294.345,8,400,9,,ISIC_8613657.JPG
break,html.Screen,4_108_1,2023-10-31T17:05:10.141Z,,0,,,NaN,,,,,,false,,,,559286.1999999881,559285.8999999762,,559285,,559294.345,8,400,,,
break_continue,html.Screen,4_108_2,2023-10-31T17:05:10.141Z,,0,,,NaN,,,,,,false,,,,559286.5,559286.3999999762,,559286.3000000119,,559294.345,8,400,,,
sequence,flow.Sequence,4_108,2023-10-31T17:05:10.141Z,,0,,,4010.911999976146,completion,,,,,false,,,,559286.6000000238,559286.3999999762,555259.101,555243.3999999762,555275.488,559294.345,8,400,,,
trial,html.Screen,4_109_0,2023-10-31T17:05:14.242Z,,0,3,,4092.054999976186,response,ISIC_0001792.JPG,28,ISIC_0062389.JPG,ISIC_0001792.JPG,false,1,keypress(m),500,563386.8000000119,563386.3999999762,559275.833,559286.6999999881,559294.345,563393.621,8,400,10,,ISIC_0062389.JPG
break,html.Screen,4_109_1,2023-10-31T17:05:14.243Z,,0,,,NaN,,,,,,false,,,,563388.3000000119,563388.1000000238,,563387,,563393.621,8,400,,,
break_continue,html.Screen,4_109_2,2023-10-31T17:05:14.243Z,,0,,,NaN,,,,,,false,,,,563388.6999999881,563388.5,,563388.5,,563393.621,8,400,,,
sequence,flow.Sequence,4_109,2023-10-31T17:05:14.244Z,,0,,,4094.155000000028,completion,,,,,false,,,,563388.6999999881,563388.5,559275.833,559286.6999999881,559294.345,563393.621,8,400,,,
trial,html.Screen,4_110_0,2023-10-31T17:05:20.713Z,,0,3,,6463.878999999957,response,ISIC_0443835.JPG,10,ISIC_7973601.JPG,ISIC_7973601.JPG,false,0,keypress(z),500,569857.8000000119,569857.5,563375.969,563388.8999999762,563393.621,569893.354,8,400,11,,ISIC_0443835.JPG
break,html.Screen,4_110_1,2023-10-31T17:05:20.714Z,,0,,,NaN,,,,,,false,,,,569859.1000000238,569858.8999999762,,569858,,569893.354,8,400,,,
break_continue,html.Screen,4_110_2,2023-10-31T17:05:20.714Z,,0,,,NaN,,,,,,false,,,,569859.5,569859.3999999762,,569859.3000000119,,569893.354,8,400,,,
sequence,flow.Sequence,4_110,2023-10-31T17:05:20.714Z,,0,,,6465.778999976115,completion,,,,,false,,,,569859.6999999881,569859.3999999762,563375.969,563388.8999999762,563393.621,569893.354,8,400,,,
trial,html.Screen,4_111_0,2023-10-31T17:05:25.902Z,,0,3,,5153.14599999995,response,ISIC_6995731.JPG,6,ISIC_7475827.JPG,ISIC_6995731.JPG,false,1,keypress(m),500,575046.8999999762,575046.5,569875.836,569859.8000000119,569893.354,575058.717,8,400,12,,ISIC_7475827.JPG
break,html.Screen,4_111_1,2023-10-31T17:05:25.903Z,,0,,,NaN,,,,,,false,,,,575047.8999999762,575047.6999999881,,575047.1000000238,,575058.717,8,400,,,
break_continue,html.Screen,4_111_2,2023-10-31T17:05:25.903Z,,0,,,NaN,,,,,,false,,,,575048.5,575048.3000000119,,575048,,575058.717,8,400,,,
sequence,flow.Sequence,4_111,2023-10-31T17:05:25.903Z,,0,,,5154.946000011871,completion,,,,,false,,,,575048.6000000238,575048.3000000119,569875.836,569859.8000000119,569893.354,575058.717,8,400,,,
trial,html.Screen,4_112_0,2023-10-31T17:05:30.823Z,,0,3,,4909.283000000054,response,ISIC_9961652.JPG,8,ISIC_7629589.JPG,ISIC_7629589.JPG,false,0,keypress(z),500,579968.3000000119,579968,575043.207,575048.6999999881,575058.717,579976.623,8,400,13,,ISIC_9961652.JPG
break,html.Screen,4_112_1,2023-10-31T17:05:30.824Z,,0,,,NaN,,,,,,false,,,,579969.6000000238,579969.1999999881,,579968.5,,579976.623,8,400,,,
break_continue,html.Screen,4_112_2,2023-10-31T17:05:30.825Z,,0,,,NaN,,,,,,false,,,,579969.8999999762,579969.8000000119,,579969.6999999881,,579976.623,8,400,,,
sequence,flow.Sequence,4_112,2023-10-31T17:05:30.825Z,,0,,,4911.083000011975,completion,,,,,false,,,,579970,579969.8000000119,575043.207,575048.6999999881,575058.717,579976.623,8,400,,,
trial,html.Screen,4_113_0,2023-10-31T17:05:36.171Z,,0,3,,5339.6770000118995,response,ISIC_0064623.JPG,10,ISIC_5721110.JPG,ISIC_0064623.JPG,false,1,keypress(m),500,585316.5,585316.3000000119,579958.999,579970,579976.623,585325.32,8,400,14,,ISIC_5721110.JPG
break,html.Screen,4_113_1,2023-10-31T17:05:36.173Z,,0,,,NaN,,,,,,false,,,,585317.8000000119,585317.6999999881,,585316.8000000119,,585325.32,8,400,,,
break_continue,html.Screen,4_113_2,2023-10-31T17:05:36.173Z,,0,,,NaN,,,,,,false,,,,585318.1999999881,585318.1000000238,,585318,,585325.32,8,400,,,
sequence,flow.Sequence,4_113,2023-10-31T17:05:36.173Z,,0,,,5341.47700002382,completion,,,,,false,,,,585318.3000000119,585318.1000000238,579958.999,579970,579976.623,585325.32,8,400,,,
trial,html.Screen,4_114_0,2023-10-31T17:05:39.893Z,,0,3,,3712.780000023893,response,ISIC_0055287.JPG,8,ISIC_2266715.JPG,ISIC_0055287.JPG,false,1,keypress(m),500,589038.5,589038.1000000238,585309.025,585318.3999999762,585325.32,589041.883,8,400,15,,ISIC_2266715.JPG
break,html.Screen,4_114_1,2023-10-31T17:05:39.895Z,,0,,,NaN,,,,,,false,,,,589039.8999999762,589039.6000000238,,589038.8000000119,,589041.883,8,400,,,
break_continue,html.Screen,4_114_2,2023-10-31T17:05:39.895Z,,0,,,NaN,,,,,,false,,,,589040.1999999881,589040.1000000238,,589040,,589041.883,8,400,,,
sequence,flow.Sequence,4_114,2023-10-31T17:05:39.895Z,,0,,,3714.780000023893,completion,,,,,false,,,,589040.3000000119,589040.1000000238,585309.025,585318.3999999762,585325.32,589041.883,8,400,,,
trial,html.Screen,4_115_0,2023-10-31T17:05:43.693Z,,0,3,,3796.217000023811,response,ISIC_0034059.JPG,2,ISIC_0029859.JPG,ISIC_0034059.JPG,false,1,keypress(m),500,592838.3999999762,592838.1000000238,589025.34,589040.3999999762,589041.883,592841.872,8,400,16,,ISIC_0029859.JPG
break,html.Screen,4_115_1,2023-10-31T17:05:43.695Z,,0,,,NaN,,,,,,false,,,,592839.8000000119,592839.6000000238,,592838.6000000238,,592841.872,8,400,,,
break_continue,html.Screen,4_115_2,2023-10-31T17:05:43.695Z,,0,,,NaN,,,,,,false,,,,592840.1999999881,592840,,592839.8999999762,,592841.872,8,400,,,
sequence,flow.Sequence,4_115,2023-10-31T17:05:43.695Z,,0,,,3798.1169999999693,completion,,,,,false,,,,592840.1999999881,592840,589025.34,589040.3000000119,589041.883,592841.872,8,400,,,
trial,html.Screen,4_116_0,2023-10-31T17:05:48.264Z,,0,3,,4567.327999988105,response,ISIC_0072001.JPG,6,ISIC_0055081.JPG,ISIC_0055081.JPG,false,0,keypress(z),500,597409.6000000238,597409.1999999881,592825.637,592840.3000000119,592841.872,597425.234,8,400,17,,ISIC_0072001.JPG
break,html.Screen,4_116_1,2023-10-31T17:05:48.266Z,,0,,,NaN,,,,,,false,,,,597410.6999999881,597410.5,,597409.8999999762,,597425.234,8,400,,,
break_continue,html.Screen,4_116_2,2023-10-31T17:05:48.266Z,,0,,,NaN,,,,,,false,,,,597411.3999999762,597411.1999999881,,597410.8999999762,,597425.234,8,400,,,
sequence,flow.Sequence,4_116,2023-10-31T17:05:48.266Z,,0,,,4569.327999988105,completion,,,,,false,,,,597411.6000000238,597411.1999999881,592825.637,592840.3000000119,592841.872,597425.234,8,400,,,
trial,html.Screen,4_117_0,2023-10-31T17:05:51.471Z,,0,3,,3190.366000023787,response,ISIC_0032774.JPG,28,ISIC_0481702.JPG,ISIC_0032774.JPG,false,1,keypress(m),500,600616.1000000238,600615.6000000238,597409.085,597411.6999999881,597425.234,600627.544,8,400,18,,ISIC_0481702.JPG
break,html.Screen,4_117_1,2023-10-31T17:05:51.472Z,,0,,,NaN,,,,,,false,,,,600617.1999999881,600617,,600616.1999999881,,600627.544,8,400,,,
break_continue,html.Screen,4_117_2,2023-10-31T17:05:51.472Z,,0,,,NaN,,,,,,false,,,,600617.6000000238,600617.5,,600617.3999999762,,600627.544,8,400,,,
sequence,flow.Sequence,4_117,2023-10-31T17:05:51.472Z,,0,,,3192.265999999945,completion,,,,,false,,,,600617.6000000238,600617.5,597409.085,597411.6999999881,597425.234,600627.544,8,400,,,
trial,html.Screen,4_118_0,2023-10-31T17:05:55.284Z,,0,3,,3801.0560000238474,response,ISIC_0027234.JPG,6,ISIC_0032598.JPG,ISIC_0027234.JPG,false,1,keypress(m),500,604429,604428.6000000238,600608.828,600617.6999999881,600627.544,604441.904,8,400,19,,ISIC_0032598.JPG
break,html.Screen,4_118_1,2023-10-31T17:05:55.285Z,,0,,,NaN,,,,,,false,,,,604430.1999999881,604430,,604429.1999999881,,604441.904,8,400,,,
break_continue,html.Screen,4_118_2,2023-10-31T17:05:55.285Z,,0,,,NaN,,,,,,false,,,,604430.5,604430.3999999762,,604430.1999999881,,604441.904,8,400,,,
sequence,flow.Sequence,4_118,2023-10-31T17:05:55.285Z,,0,,,3802.8559999761637,completion,,,,,false,,,,604430.6000000238,604430.3999999762,600608.828,600617.6999999881,600627.544,604441.904,8,400,,,
trial,html.Screen,4_119_0,2023-10-31T17:06:00.110Z,,0,3,,4813.09600000002,response,ISIC_0025437.JPG,0,ISIC_6017985.JPG,ISIC_0025437.JPG,false,1,keypress(m),500,609255.1999999881,609255,604425.072,604430.6999999881,604441.904,609258.463,8,400,20,,ISIC_6017985.JPG
break,html.Screen,4_119_1,2023-10-31T17:06:00.111Z,,0,,,NaN,,,,,,false,,,,609256.5,609256.3000000119,,609255.3999999762,,609258.463,8,400,,,
break_continue,html.Screen,4_119_2,2023-10-31T17:06:00.112Z,,0,,,NaN,,,,,,false,,,,609256.8000000119,609256.6999999881,,609256.6000000238,,609258.463,8,400,,,
sequence,flow.Sequence,4_119,2023-10-31T17:06:00.112Z,,0,,,4814.795999988099,completion,,,,,false,,,,609256.8999999762,609256.6999999881,604425.072,604430.6000000238,604441.904,609258.463,8,400,,,
trial,html.Screen,4_120_0,2023-10-31T17:06:04.264Z,,0,3,,4150.137000023853,response,ISIC_9896801.JPG,7,ISIC_4686317.JPG,ISIC_4686317.JPG,false,0,keypress(z),500,613409,613408.6000000238,609242.363,609256.8999999762,609258.463,613425.304,8,400,21,,ISIC_9896801.JPG
break,html.Screen,4_120_1,2023-10-31T17:06:04.265Z,,0,,,NaN,,,,,,false,,,,613410,613409.8000000119,,613409.1000000238,,613425.304,8,400,,,
break_continue,html.Screen,4_120_2,2023-10-31T17:06:04.266Z,,0,,,NaN,,,,,,false,,,,613410.6999999881,613410.6000000238,,613410.3000000119,,613425.304,8,400,,,
sequence,flow.Sequence,4_120,2023-10-31T17:06:04.266Z,,0,,,4152.137000023853,completion,,,,,false,,,,613410.8000000119,613410.6000000238,609242.363,609256.8999999762,609258.463,613425.304,8,400,,,
trial,html.Screen,4_121_0,2023-10-31T17:06:07.793Z,,0,3,,3512.8959999880753,response,ISIC_0071568.JPG,16,ISIC_2166957.JPG,ISIC_0071568.JPG,false,1,keypress(m),500,616938.5,616938.1999999881,613409.032,613411,613425.304,616943.317,8,400,22,,ISIC_2166957.JPG
break,html.Screen,4_121_1,2023-10-31T17:06:07.795Z,,0,,,NaN,,,,,,false,,,,616940.1000000238,616939.8000000119,,616938.8000000119,,616943.317,8,400,,,
break_continue,html.Screen,4_121_2,2023-10-31T17:06:07.795Z,,0,,,NaN,,,,,,false,,,,616940.5,616940.3999999762,,616940.3000000119,,616943.317,8,400,,,
sequence,flow.Sequence,4_121,2023-10-31T17:06:07.795Z,,0,,,3515.0959999761544,completion,,,,,false,,,,616940.6000000238,616940.3999999762,613409.032,613411,613425.304,616943.317,8,400,,,
trial,html.Screen,4_122_0,2023-10-31T17:06:13.673Z,,0,3,,5874.283000023803,response,ISIC_2536779.JPG,10,ISIC_0015250.JPG,ISIC_2536779.JPG,false,1,keypress(m),500,622818,622817.6000000238,616925.659,616940.8000000119,616943.317,622826.161,8,400,23,,ISIC_0015250.JPG
break,html.Screen,4_122_1,2023-10-31T17:06:13.675Z,,0,,,NaN,,,,,,false,,,,622819.8000000119,622819.5,,622818.5,,622826.161,8,400,,,
break_continue,html.Screen,4_122_2,2023-10-31T17:06:13.675Z,,0,,,NaN,,,,,,false,,,,622820.5,622820.1000000238,,622819.8999999762,,622826.161,8,400,,,
sequence,flow.Sequence,4_122,2023-10-31T17:06:13.676Z,,0,,,5876.783000023803,completion,,,,,false,,,,622820.6999999881,622820.1000000238,616925.659,616940.6999999881,616943.317,622826.161,8,400,,,
trial,html.Screen,4_123_0,2023-10-31T17:06:16.592Z,,0,3,,2910.939000023878,response,ISIC_9694911.JPG,7,ISIC_0624498.JPG,ISIC_0624498.JPG,false,0,keypress(z),500,625737.3999999762,625737.1000000238,622809.183,622820.8999999762,622826.161,625742.051,8,400,24,,ISIC_9694911.JPG
break,html.Screen,4_123_1,2023-10-31T17:06:16.594Z,,0,,,NaN,,,,,,false,,,,625738.8000000119,625738.5,,625737.6000000238,,625742.051,8,400,,,
break_continue,html.Screen,4_123_2,2023-10-31T17:06:16.594Z,,0,,,NaN,,,,,,false,,,,625739.1999999881,625739.1000000238,,625738.8999999762,,625742.051,8,400,,,
sequence,flow.Sequence,4_123,2023-10-31T17:06:16.594Z,,0,,,2912.939000023878,completion,,,,,false,,,,625739.3999999762,625739.1000000238,622809.183,622820.8999999762,622826.161,625742.051,8,400,,,
trial,html.Screen,4_124_0,2023-10-31T17:06:19.709Z,,0,3,,3111.1489999881014,response,ISIC_5240648.JPG,10,ISIC_6576397.JPG,ISIC_5240648.JPG,false,1,keypress(m),500,628854.1999999881,628853.1999999881,625725.246,625739.6000000238,625742.051,628860.973,8,400,25,,ISIC_6576397.JPG
break,html.Screen,4_124_1,2023-10-31T17:06:19.710Z,,0,,,NaN,,,,,,false,,,,628855.1000000238,628855,,628854.3999999762,,628860.973,8,400,,,
break_continue,html.Screen,4_124_2,2023-10-31T17:06:19.710Z,,0,,,NaN,,,,,,false,,,,628855.5,628855.3000000119,,628855.3000000119,,628860.973,8,400,,,
sequence,flow.Sequence,4_124,2023-10-31T17:06:19.711Z,,0,,,3113.2490000119433,completion,,,,,false,,,,628855.6999999881,628855.3000000119,625725.246,625739.6000000238,625742.051,628860.973,8,400,,,
trial,html.Screen,4_125_0,2023-10-31T17:06:22.658Z,,0,3,,2941.527000000002,response,ISIC_3161477.JPG,11,ISIC_9402324.JPG,ISIC_9402324.JPG,false,0,keypress(z),500,631802.8000000119,631802.5,628841.913,628855.8000000119,628860.973,631808.391,8,400,26,,ISIC_3161477.JPG
break,html.Screen,4_125_1,2023-10-31T17:06:22.659Z,,0,,,NaN,,,,,,false,,,,631804.1000000238,631803.8999999762,,631803.1000000238,,631808.391,8,400,,,
