sender,sender_type,sender_id,timestamp,meta,,blockNo,condition,duration,ended_on,img_left,img_reveal,img_right,loser,practice,response,response_action,selection_duration,time_commit,time_end,time_render,time_run,time_show,time_switch,total_blocks,total_trials,trialNo,url,winner
informed_consent,html.Screen,0,2023-10-30T22:48:13.310Z,"{""labjs_version"":""20.2.4"",""labjs_build"":{""flavor"":""production"",""commit"":""f5b4a49f956347addd546a832a3327688c2c0fef""},""location"":""https://run.pavlovia.org/MurrayBennett/melanoma-2afc/?participant=62798&platform=sona"",""userAgent"":""Mozilla/5.0 (Macintosh; Intel Mac OS X 10_15_7) AppleWebKit/605.1.15 (KHTML, like Gecko) Version/15.4 Safari/605.1.15"",""platform"":""MacIntel"",""language"":""en-US"",""locale"":""en-US"",""timeZone"":""America/Chicago"",""timezoneOffset"":300,""screen_width"":1440,""screen_height"":900,""scroll_width"":1440,""scroll_height"":772,""window_innerWidth"":1440,""window_innerHeight"":820,""devicePixelRatio"":2}",,,,5746,response,,,,,,consent,click button,,8253,8271,2525,2522.0000000000005,2536,8300,,,,"{""participant"":""62798"",""platform"":""sona""}",
Welcome,html.Screen,1,2023-10-30T22:48:14.561Z,,,,symmetry,1254,response,,,,,,continue,click button,,9504,9521,8267,8253,8300,9550,,,,,
trial,html.Screen,2_0_0,2023-10-30T22:48:22.366Z,,0,0,,7791,response,ISIC_6997061.JPG,,ISIC_0069348.JPG,ISIC_0069348.JPG,true,0,keypress(z),500,17309,17308,9517,9505,9550,17350,1,6,1,,ISIC_6997061.JPG
sequence,flow.Sequence,2_0,2023-10-30T22:48:22.367Z,,0,,,7758,completion,,,,,true,,,,17310,17308,9517,9505,9550,17350,1,6,,,
trial,html.Screen,2_1_0,2023-10-30T22:48:26.704Z,,0,0,,4330,response,ISIC_0009529.JPG,,ISIC_0057368.JPG,ISIC_0057368.JPG,true,0,keypress(z),500,21647.000000000004,21646,17316,17310,17350,21700,1,6,2,,ISIC_0009529.JPG
sequence,flow.Sequence,2_1,2023-10-30T22:48:26.704Z,,0,,,4296,completion,,,,,true,,,,21648,21646,17316,17310,17350,21700,1,6,,,
trial,html.Screen,2_2_0,2023-10-30T22:48:28.821Z,,0,0,,2097,response,ISIC_0064954.JPG,,ISIC_9758671.JPG,ISIC_9758671.JPG,true,0,keypress(z),500,23765,23764,21667,21648,21700,23817,1,6,3,,ISIC_0064954.JPG
sequence,flow.Sequence,2_2,2023-10-30T22:48:28.822Z,,0,,,2064,completion,,,,,true,,,,23765,23764,21667,21648,21700,23817,1,6,,,
trial,html.Screen,2_3_0,2023-10-30T22:48:30.950Z,,0,0,,2110,response,ISIC_0000080.JPG,,ISIC_0005785.JPG,ISIC_0005785.JPG,true,0,keypress(z),500,25893,25893,23783,23766,23817,25933,1,6,4,,ISIC_0000080.JPG
sequence,flow.Sequence,2_3,2023-10-30T22:48:30.951Z,,0,,,2076,completion,,,,,true,,,,25894.000000000004,25893,23783,23766,23817,25933,1,6,,,
trial,html.Screen,2_4_0,2023-10-30T22:48:33.043Z,,0,0,,2087,response,ISIC_7944028.JPG,,ISIC_5390060.JPG,ISIC_5390060.JPG,true,0,keypress(z),500,27986,27986,25899,25895,25933,28033,1,6,5,,ISIC_7944028.JPG
sequence,flow.Sequence,2_4,2023-10-30T22:48:33.043Z,,0,,,2053,completion,,,,,true,,,,27987.000000000004,27986,25899,25894.000000000004,25933,28033,1,6,,,
trial,html.Screen,2_5_0,2023-10-30T22:48:36.122Z,,0,0,,3066,response,ISIC_0794216.JPG,,ISIC_0010188.JPG,ISIC_0010188.JPG,true,0,keypress(z),500,31066,31065,27999,27987.000000000004,28033,31117,1,6,6,,ISIC_0794216.JPG
sequence,flow.Sequence,2_5,2023-10-30T22:48:36.123Z,,0,,,3032,completion,,,,,true,,,,31066,31065,27999,27987.000000000004,28033,31117,1,6,,,
loop,flow.Loop,2,2023-10-30T22:48:36.123Z,,,,,21515,completion,,,,,true,,,,31067,31065,9517,9505,9550,31117,1,6,,,
exp_instructions,html.Screen,3,2023-10-30T22:48:38.943Z,,,,,2817,response,,,,,,continue,keypress(Space),,33887,33900,31083,31067,31117,33933,,,,,
trial,html.Screen,4_0_0,2023-10-30T22:48:41.240Z,,0,1,,2283,response,ISIC_2679689.JPG,7,ISIC_9125543.JPG,ISIC_2679689.JPG,false,1,keypress(m),500,36184,36183,33900,33887,33933,36233,8,400,1,,ISIC_9125543.JPG
break,html.Screen,4_0_1,2023-10-30T22:48:41.242Z,,0,,,NaN,,,,,,false,,,,36185,36185,,36184,,36233,8,400,,,
break_continue,html.Screen,4_0_2,2023-10-30T22:48:41.242Z,,0,,,NaN,,,,,,false,,,,36186,36185,,36185,,36233,8,400,,,
sequence,flow.Sequence,4_0,2023-10-30T22:48:41.242Z,,0,,,2252,completion,,,,,false,,,,36186,36185,33900,33887,33933,36233,8,400,,,
trial,html.Screen,4_1_0,2023-10-30T22:48:43.438Z,,0,1,,2180,response,ISIC_9125409.JPG,6,ISIC_1744817.JPG,ISIC_9125409.JPG,false,1,keypress(m),500,38381,38380,36200,36186,36233,38433,8,400,2,,ISIC_1744817.JPG
break,html.Screen,4_1_1,2023-10-30T22:48:43.440Z,,0,,,NaN,,,,,,false,,,,38383,38382,,38382,,38433,8,400,,,
break_continue,html.Screen,4_1_2,2023-10-30T22:48:43.440Z,,0,,,NaN,,,,,,false,,,,38384,38383,,38383,,38433,8,400,,,
sequence,flow.Sequence,4_1,2023-10-30T22:48:43.441Z,,0,,,2150,completion,,,,,false,,,,38384,38383,36200,36186,36233,38433,8,400,,,
trial,html.Screen,4_2_0,2023-10-30T22:48:45.614Z,,0,1,,2156,response,ISIC_5736979.JPG,10,ISIC_0024892.JPG,ISIC_5736979.JPG,false,1,keypress(m),500,40557,40556,38400,38384,38433,40599,8,400,3,,ISIC_0024892.JPG
break,html.Screen,4_2_1,2023-10-30T22:48:45.615Z,,0,,,NaN,,,,,,false,,,,40559,40558,,40558,,40599,8,400,,,
break_continue,html.Screen,4_2_2,2023-10-30T22:48:45.616Z,,0,,,NaN,,,,,,false,,,,40559,40559,,40559,,40599,8,400,,,
sequence,flow.Sequence,4_2,2023-10-30T22:48:45.616Z,,0,,,2126,completion,,,,,false,,,,40560,40559,38400,38384,38433,40599,8,400,,,
trial,html.Screen,4_3_0,2023-10-30T22:48:47.743Z,,0,1,,2119,response,ISIC_0059769.JPG,8,ISIC_0026394.JPG,ISIC_0059769.JPG,false,1,keypress(m),500,42686,42685,40566,40560,40599,42733,8,400,4,,ISIC_0026394.JPG
break,html.Screen,4_3_1,2023-10-30T22:48:47.745Z,,0,,,NaN,,,,,,false,,,,42688,42688,,42687,,42733,8,400,,,
break_continue,html.Screen,4_3_2,2023-10-30T22:48:47.746Z,,0,,,NaN,,,,,,false,,,,42689,42689,,42689,,42733,8,400,,,
sequence,flow.Sequence,4_3,2023-10-30T22:48:47.746Z,,0,,,2090,completion,,,,,false,,,,42690,42689,40566,40560,40599,42733,8,400,,,
trial,html.Screen,4_4_0,2023-10-30T22:48:49.927Z,,0,1,,2169,response,ISIC_0064124.JPG,6,ISIC_0060233.JPG,ISIC_0064124.JPG,false,1,keypress(m),500,44870,44869,42700,42690,42733,44917,8,400,5,,ISIC_0060233.JPG
break,html.Screen,4_4_1,2023-10-30T22:48:49.928Z,,0,,,NaN,,,,,,false,,,,44872,44871,,44871,,44917,8,400,,,
break_continue,html.Screen,4_4_2,2023-10-30T22:48:49.929Z,,0,,,NaN,,,,,,false,,,,44872,44872,,44872,,44917,8,400,,,
sequence,flow.Sequence,4_4,2023-10-30T22:48:49.929Z,,0,,,2139,completion,,,,,false,,,,44873,44872,42700,42690,42733,44917,8,400,,,
trial,html.Screen,4_5_0,2023-10-30T22:48:51.969Z,,0,1,,2028,response,ISIC_0060585.JPG,7,ISIC_0032526.JPG,ISIC_0060585.JPG,false,1,keypress(m),500,46912,46911,44883,44873,44917,46967,8,400,6,,ISIC_0032526.JPG
break,html.Screen,4_5_1,2023-10-30T22:48:51.970Z,,0,,,NaN,,,,,,false,,,,46914,46913.00000000001,,46913.00000000001,,46967,8,400,,,
break_continue,html.Screen,4_5_2,2023-10-30T22:48:51.971Z,,0,,,NaN,,,,,,false,,,,46915,46914,,46914,,46967,8,400,,,
sequence,flow.Sequence,4_5,2023-10-30T22:48:51.972Z,,0,,,1997,completion,,,,,false,,,,46915,46914,44883,44873,44917,46967,8,400,,,
trial,html.Screen,4_6_0,2023-10-30T22:48:54.157Z,,0,1,,2168,response,ISIC_2283628.JPG,7,ISIC_0633835.JPG,ISIC_2283628.JPG,false,1,keypress(m),500,49100,49100,46932,46916.00000000001,46967,49150,8,400,7,,ISIC_0633835.JPG
break,html.Screen,4_6_1,2023-10-30T22:48:54.158Z,,0,,,NaN,,,,,,false,,,,49102.00000000001,49101,,49101,,49150,8,400,,,
break_continue,html.Screen,4_6_2,2023-10-30T22:48:54.159Z,,0,,,NaN,,,,,,false,,,,49102.00000000001,49102.00000000001,,49102.00000000001,,49150,8,400,,,
sequence,flow.Sequence,4_6,2023-10-30T22:48:54.160Z,,0,,,2135.0000000000073,completion,,,,,false,,,,49103,49102.00000000001,46932,46915,46967,49150,8,400,,,
trial,html.Screen,4_7_0,2023-10-30T22:48:56.248Z,,0,1,,2073,response,ISIC_8380904.JPG,5,ISIC_0013997.JPG,ISIC_8380904.JPG,false,1,keypress(m),500,51191,51190,49117,49103,49150,51233,8,400,8,,ISIC_0013997.JPG
break,html.Screen,4_7_1,2023-10-30T22:48:56.250Z,,0,,,NaN,,,,,,false,,,,51193,51193,,51192,,51233,8,400,,,
break_continue,html.Screen,4_7_2,2023-10-30T22:48:56.250Z,,0,,,NaN,,,,,,false,,,,51194,51193,,51193,,51233,8,400,,,
sequence,flow.Sequence,4_7,2023-10-30T22:48:56.250Z,,0,,,2043,completion,,,,,false,,,,51194,51193,49117,49103,49150,51233,8,400,,,
trial,html.Screen,4_8_0,2023-10-30T22:48:58.410Z,,0,1,,2152.0000000000073,response,ISIC_1870415.JPG,3,ISIC_5352684.JPG,ISIC_1870415.JPG,false,1,keypress(m),500,53353,53352.00000000001,51200,51194,51233,53400,8,400,9,,ISIC_5352684.JPG
break,html.Screen,4_8_1,2023-10-30T22:48:58.411Z,,0,,,NaN,,,,,,false,,,,53355.00000000001,53354,,53354,,53400,8,400,,,
break_continue,html.Screen,4_8_2,2023-10-30T22:48:58.412Z,,0,,,NaN,,,,,,false,,,,53355.00000000001,53355.00000000001,,53355.00000000001,,53400,8,400,,,
sequence,flow.Sequence,4_8,2023-10-30T22:48:58.412Z,,0,,,2122.0000000000073,completion,,,,,false,,,,53356,53355.00000000001,51200,51194,51233,53400,8,400,,,
trial,html.Screen,4_9_0,2023-10-30T22:49:00.439Z,,0,1,,2015,response,ISIC_3386656.JPG,7,ISIC_5555140.JPG,ISIC_3386656.JPG,false,1,keypress(m),500,55382,55382,53367,53356,53400,55433,8,400,10,,ISIC_5555140.JPG
break,html.Screen,4_9_1,2023-10-30T22:49:00.440Z,,0,,,NaN,,,,,,false,,,,55383,55383,,55382,,55433,8,400,,,
break_continue,html.Screen,4_9_2,2023-10-30T22:49:00.440Z,,0,,,NaN,,,,,,false,,,,55384,55383,,55383,,55433,8,400,,,
sequence,flow.Sequence,4_9,2023-10-30T22:49:00.440Z,,0,,,1983,completion,,,,,false,,,,55384,55383,53367,53356,53400,55433,8,400,,,
trial,html.Screen,4_10_0,2023-10-30T22:49:02.800Z,,0,1,,2343,response,ISIC_0059943.JPG,6,ISIC_0028883.JPG,ISIC_0059943.JPG,false,1,keypress(m),500,57744,57743,55400,55384,55433,57783,8,400,11,,ISIC_0028883.JPG
break,html.Screen,4_10_1,2023-10-30T22:49:02.802Z,,0,,,NaN,,,,,,false,,,,57745.00000000001,57745.00000000001,,57744,,57783,8,400,,,
break_continue,html.Screen,4_10_2,2023-10-30T22:49:02.802Z,,0,,,NaN,,,,,,false,,,,57746,57746,,57746,,57783,8,400,,,
sequence,flow.Sequence,4_10,2023-10-30T22:49:02.803Z,,0,,,2313,completion,,,,,false,,,,57746,57746,55400,55384,55433,57783,8,400,,,
trial,html.Screen,4_11_0,2023-10-30T22:49:05.130Z,,0,1,,2323,response,ISIC_0011086.JPG,10,ISIC_0027971.JPG,ISIC_0011086.JPG,false,1,keypress(m),500,60073,60072,57749,57747,57783,60117,8,400,12,,ISIC_0027971.JPG
break,html.Screen,4_11_1,2023-10-30T22:49:05.131Z,,0,,,NaN,,,,,,false,,,,60075,60074,,60074,,60117,8,400,,,
break_continue,html.Screen,4_11_2,2023-10-30T22:49:05.132Z,,0,,,NaN,,,,,,false,,,,60075,60075,,60075,,60117,8,400,,,
sequence,flow.Sequence,4_11,2023-10-30T22:49:05.132Z,,0,,,2292,completion,,,,,false,,,,60076,60075,57749,57747,57783,60117,8,400,,,
trial,html.Screen,4_12_0,2023-10-30T22:49:07.405Z,,0,1,,2265,response,ISIC_0061825.JPG,7,ISIC_6970607.JPG,ISIC_0061825.JPG,false,1,keypress(m),500,62348,62348,60083,60076,60117,62400,8,400,13,,ISIC_6970607.JPG
break,html.Screen,4_12_1,2023-10-30T22:49:07.406Z,,0,,,NaN,,,,,,false,,,,62350,62350,,62349.00000000001,,62400,8,400,,,
break_continue,html.Screen,4_12_2,2023-10-30T22:49:07.407Z,,0,,,NaN,,,,,,false,,,,62350,62350,,62350,,62400,8,400,,,
sequence,flow.Sequence,4_12,2023-10-30T22:49:07.407Z,,0,,,2233,completion,,,,,false,,,,62351,62350,60083,60076,60117,62400,8,400,,,
trial,html.Screen,4_13_0,2023-10-30T22:49:09.757Z,,0,1,,2332,response,ISIC_0073238.JPG,0,ISIC_3000569.JPG,ISIC_0073238.JPG,false,1,keypress(m),500,64700,64699,62367,62351,62400,64750,8,400,14,,ISIC_3000569.JPG
break,html.Screen,4_13_1,2023-10-30T22:49:09.758Z,,0,,,NaN,,,,,,false,,,,64702,64701.00000000001,,64700,,64750,8,400,,,
break_continue,html.Screen,4_13_2,2023-10-30T22:49:09.759Z,,0,,,NaN,,,,,,false,,,,64702,64702,,64702,,64750,8,400,,,
sequence,flow.Sequence,4_13,2023-10-30T22:49:09.759Z,,0,,,2302,completion,,,,,false,,,,64702,64702,62367,62351,62400,64750,8,400,,,
trial,html.Screen,4_14_0,2023-10-30T22:49:12.044Z,,0,1,,2269,response,ISIC_0032531.JPG,4,ISIC_0029441.JPG,ISIC_0032531.JPG,false,1,keypress(m),500,66987,66986,64717,64703,64750,67032,8,400,15,,ISIC_0029441.JPG
break,html.Screen,4_14_1,2023-10-30T22:49:12.045Z,,0,,,NaN,,,,,,false,,,,66989,66988,,66988,,67032,8,400,,,
break_continue,html.Screen,4_14_2,2023-10-30T22:49:12.046Z,,0,,,NaN,,,,,,false,,,,66989,66989,,66989,,67032,8,400,,,
sequence,flow.Sequence,4_14,2023-10-30T22:49:12.046Z,,0,,,2239,completion,,,,,false,,,,66989,66989,64717,64703,64750,67032,8,400,,,
trial,html.Screen,4_15_0,2023-10-30T22:49:14.332Z,,0,1,,2275,response,ISIC_2122488.JPG,5,ISIC_8382969.JPG,ISIC_2122488.JPG,false,1,keypress(m),500,69276,69275,67000,66990,67032,69316,8,400,16,,ISIC_8382969.JPG
break,html.Screen,4_15_1,2023-10-30T22:49:14.334Z,,0,,,NaN,,,,,,false,,,,69277,69277,,69276,,69316,8,400,,,
break_continue,html.Screen,4_15_2,2023-10-30T22:49:14.334Z,,0,,,NaN,,,,,,false,,,,69278,69278,,69277,,69316,8,400,,,
sequence,flow.Sequence,4_15,2023-10-30T22:49:14.335Z,,0,,,2246,completion,,,,,false,,,,69278,69278,67000,66990,67032,69316,8,400,,,
trial,html.Screen,4_16_0,2023-10-30T22:49:16.607Z,,0,1,,2266,response,ISIC_0024735.JPG,2,ISIC_5046340.JPG,ISIC_0024735.JPG,false,1,keypress(m),500,71550,71549,69283,69278,69316,71600,8,400,17,,ISIC_5046340.JPG
break,html.Screen,4_16_1,2023-10-30T22:49:16.608Z,,0,,,NaN,,,,,,false,,,,71552,71551,,71551,,71600,8,400,,,
break_continue,html.Screen,4_16_2,2023-10-30T22:49:16.609Z,,0,,,NaN,,,,,,false,,,,71552,71552,,71552,,71600,8,400,,,
sequence,flow.Sequence,4_16,2023-10-30T22:49:16.609Z,,0,,,2236,completion,,,,,false,,,,71552,71552,69283,69278,69316,71600,8,400,,,
trial,html.Screen,4_17_0,2023-10-30T22:49:18.904Z,,0,1,,2281.0000000000146,response,ISIC_0064877.JPG,2,ISIC_6777714.JPG,ISIC_0064877.JPG,false,1,keypress(m),500,73848,73847.00000000001,71566,71553,71600,73900,8,400,18,,ISIC_6777714.JPG
break,html.Screen,4_17_1,2023-10-30T22:49:18.906Z,,0,,,NaN,,,,,,false,,,,73849,73849,,73848,,73900,8,400,,,
break_continue,html.Screen,4_17_2,2023-10-30T22:49:18.906Z,,0,,,NaN,,,,,,false,,,,73850.00000000001,73850.00000000001,,73849,,73900,8,400,,,
sequence,flow.Sequence,4_17,2023-10-30T22:49:18.907Z,,0,,,2250.0000000000146,completion,,,,,false,,,,73850.00000000001,73850.00000000001,71566,71553,71600,73900,8,400,,,
trial,html.Screen,4_18_0,2023-10-30T22:49:21.126Z,,0,1,,2202,response,ISIC_4752144.JPG,7,ISIC_0028469.JPG,ISIC_4752144.JPG,false,1,keypress(m),500,76069,76069,73867,73850.00000000001,73900,76116,8,400,19,,ISIC_0028469.JPG
break,html.Screen,4_18_1,2023-10-30T22:49:21.128Z,,0,,,NaN,,,,,,false,,,,76071,76071,,76070.00000000001,,76116,8,400,,,
break_continue,html.Screen,4_18_2,2023-10-30T22:49:21.128Z,,0,,,NaN,,,,,,false,,,,76071,76071,,76071,,76116,8,400,,,
sequence,flow.Sequence,4_18,2023-10-30T22:49:21.128Z,,0,,,2171,completion,,,,,false,,,,76072,76071,73867,73850.00000000001,73900,76116,8,400,,,
trial,html.Screen,4_19_0,2023-10-30T22:49:23.379Z,,0,1,,2239,response,ISIC_0033058.JPG,6,ISIC_9157162.JPG,ISIC_0033058.JPG,false,1,keypress(m),500,78322,78321,76082,76072,76116,78366,8,400,20,,ISIC_9157162.JPG
break,html.Screen,4_19_1,2023-10-30T22:49:23.380Z,,0,,,NaN,,,,,,false,,,,78324,78323.00000000001,,78323.00000000001,,78366,8,400,,,
break_continue,html.Screen,4_19_2,2023-10-30T22:49:23.381Z,,0,,,NaN,,,,,,false,,,,78324,78324,,78324,,78366,8,400,,,
sequence,flow.Sequence,4_19,2023-10-30T22:49:23.381Z,,0,,,2208,completion,,,,,false,,,,78324,78324,76082,76072,76116,78366,8,400,,,
trial,html.Screen,4_20_0,2023-10-30T22:49:25.696Z,,0,1,,2306,response,ISIC_0399142.JPG,9,ISIC_0026795.JPG,ISIC_0399142.JPG,false,1,keypress(m),500,80639,80639,78333,78325,78366,80683,8,400,21,,ISIC_0026795.JPG
break,html.Screen,4_20_1,2023-10-30T22:49:25.698Z,,0,,,NaN,,,,,,false,,,,80641,80641,,80640,,80683,8,400,,,
break_continue,html.Screen,4_20_2,2023-10-30T22:49:25.698Z,,0,,,NaN,,,,,,false,,,,80642,80642,,80641,,80683,8,400,,,
sequence,flow.Sequence,4_20,2023-10-30T22:49:25.699Z,,0,,,2276,completion,,,,,false,,,,80642,80642,78333,78325,78366,80683,8,400,,,
trial,html.Screen,4_21_0,2023-10-30T22:49:28.019Z,,0,1,,2312,response,ISIC_0024417.JPG,8,ISIC_0541345.JPG,ISIC_0024417.JPG,false,1,keypress(m),500,82963.00000000001,82962,80650,80642,80683,83016,8,400,22,,ISIC_0541345.JPG
break,html.Screen,4_21_1,2023-10-30T22:49:28.021Z,,0,,,NaN,,,,,,false,,,,82964,82964,,82963.00000000001,,83016,8,400,,,
break_continue,html.Screen,4_21_2,2023-10-30T22:49:28.021Z,,0,,,NaN,,,,,,false,,,,82965,82964,,82964,,83016,8,400,,,
sequence,flow.Sequence,4_21,2023-10-30T22:49:28.021Z,,0,,,2281,completion,,,,,false,,,,82965,82964,80650,80642,80683,83016,8,400,,,
trial,html.Screen,4_22_0,2023-10-30T22:49:30.301Z,,0,1,,2261,response,ISIC_0010962.JPG,9,ISIC_0003122.JPG,ISIC_0010962.JPG,false,1,keypress(m),500,85245,85244,82983,82965,83016,85299,8,400,23,,ISIC_0003122.JPG
break,html.Screen,4_22_1,2023-10-30T22:49:30.303Z,,0,,,NaN,,,,,,false,,,,85246,85246,,85245,,85299,8,400,,,
break_continue,html.Screen,4_22_2,2023-10-30T22:49:30.303Z,,0,,,NaN,,,,,,false,,,,85247,85247,,85246,,85299,8,400,,,
sequence,flow.Sequence,4_22,2023-10-30T22:49:30.303Z,,0,,,2231,completion,,,,,false,,,,85247,85247,82983,82965,83016,85299,8,400,,,
trial,html.Screen,4_23_0,2023-10-30T22:49:32.925Z,,0,1,,2602,response,ISIC_5964676.JPG,6,ISIC_9874512.JPG,ISIC_5964676.JPG,false,1,keypress(m),500,87868,87868,85266,85247,85299,87916,8,400,24,,ISIC_9874512.JPG
break,html.Screen,4_23_1,2023-10-30T22:49:32.926Z,,0,,,NaN,,,,,,false,,,,87870,87869,,87869,,87916,8,400,,,
break_continue,html.Screen,4_23_2,2023-10-30T22:49:32.927Z,,0,,,NaN,,,,,,false,,,,87870,87870,,87870,,87916,8,400,,,
sequence,flow.Sequence,4_23,2023-10-30T22:49:32.927Z,,0,,,2571,completion,,,,,false,,,,87870,87870,85266,85247,85299,87916,8,400,,,
trial,html.Screen,4_24_0,2023-10-30T22:49:35.289Z,,0,1,,2349,response,ISIC_9181399.JPG,8,ISIC_7489895.JPG,ISIC_9181399.JPG,false,1,keypress(m),500,90232,90232,87883,87871,87916,90282,8,400,25,,ISIC_7489895.JPG
break,html.Screen,4_24_1,2023-10-30T22:49:35.290Z,,0,,,NaN,,,,,,false,,,,90234.00000000001,90233,,90233,,90282,8,400,,,
break_continue,html.Screen,4_24_2,2023-10-30T22:49:35.291Z,,0,,,NaN,,,,,,false,,,,90234.00000000001,90234.00000000001,,90234.00000000001,,90282,8,400,,,
sequence,flow.Sequence,4_24,2023-10-30T22:49:35.291Z,,0,,,2318.0000000000146,completion,,,,,false,,,,90235,90234.00000000001,87883,87870,87916,90282,8,400,,,
trial,html.Screen,4_25_0,2023-10-30T22:49:37.607Z,,0,1,,2300,response,ISIC_5647554.JPG,10,ISIC_0053884.JPG,ISIC_5647554.JPG,false,1,keypress(m),500,92550,92550,90250,90235,90282,92600,8,400,26,,ISIC_0053884.JPG
break,html.Screen,4_25_1,2023-10-30T22:49:37.608Z,,0,,,NaN,,,,,,false,,,,92552,92551,,92551,,92600,8,400,,,
break_continue,html.Screen,4_25_2,2023-10-30T22:49:37.608Z,,0,,,NaN,,,,,,false,,,,92552,92552,,92552,,92600,8,400,,,
sequence,flow.Sequence,4_25,2023-10-30T22:49:37.609Z,,0,,,2270,completion,,,,,false,,,,92552,92552,90250,90235,90282,92600,8,400,,,
trial,html.Screen,4_26_0,2023-10-30T22:49:39.761Z,,0,1,,2137,response,ISIC_0014392.JPG,2,ISIC_2605120.JPG,ISIC_0014392.JPG,false,1,keypress(m),500,94704.00000000001,94703,92566,92552,92600,94750,8,400,27,,ISIC_2605120.JPG
break,html.Screen,4_26_1,2023-10-30T22:49:39.762Z,,0,,,NaN,,,,,,false,,,,94705,94705,,94704.00000000001,,94750,8,400,,,
break_continue,html.Screen,4_26_2,2023-10-30T22:49:39.763Z,,0,,,NaN,,,,,,false,,,,94706,94706,,94706,,94750,8,400,,,
sequence,flow.Sequence,4_26,2023-10-30T22:49:39.763Z,,0,,,2106,completion,,,,,false,,,,94706,94706,92566,92552,92600,94750,8,400,,,
trial,html.Screen,4_27_0,2023-10-30T22:49:41.982Z,,0,1,,2209,response,ISIC_0536433.JPG,6,ISIC_3289098.JPG,ISIC_3289098.JPG,false,0,keypress(z),500,96925,96925,94716,94706,94750,96966,8,400,28,,ISIC_0536433.JPG
break,html.Screen,4_27_1,2023-10-30T22:49:41.983Z,,0,,,NaN,,,,,,false,,,,96926,96926,,96925,,96966,8,400,,,
break_continue,html.Screen,4_27_2,2023-10-30T22:49:41.983Z,,0,,,NaN,,,,,,false,,,,96927,96927,,96927,,96966,8,400,,,
sequence,flow.Sequence,4_27,2023-10-30T22:49:41.984Z,,0,,,2177,completion,,,,,false,,,,96927,96927,94716,94706,94750,96966,8,400,,,
trial,html.Screen,4_28_0,2023-10-30T22:49:44.226Z,,0,1,,2236,response,ISIC_0029000.JPG,7,ISIC_4569077.JPG,ISIC_4569077.JPG,false,0,keypress(z),500,99170,99169,96933,96927,96966,99216,8,400,29,,ISIC_0029000.JPG
break,html.Screen,4_28_1,2023-10-30T22:49:44.228Z,,0,,,NaN,,,,,,false,,,,99171,99171,,99170,,99216,8,400,,,
break_continue,html.Screen,4_28_2,2023-10-30T22:49:44.228Z,,0,,,NaN,,,,,,false,,,,99172,99171,,99171,,99216,8,400,,,
sequence,flow.Sequence,4_28,2023-10-30T22:49:44.229Z,,0,,,2205,completion,,,,,false,,,,99172,99171,96933,96927,96966,99216,8,400,,,
trial,html.Screen,4_29_0,2023-10-30T22:49:46.509Z,,0,1,,2268.0000000000146,response,ISIC_3329255.JPG,4,ISIC_0072418.JPG,ISIC_0072418.JPG,false,0,keypress(z),500,101452,101451.00000000001,99183,99172,99216,101500,8,400,30,,ISIC_3329255.JPG
break,html.Screen,4_29_1,2023-10-30T22:49:46.510Z,,0,,,NaN,,,,,,false,,,,101454.00000000001,101453,,101452,,101500,8,400,,,
break_continue,html.Screen,4_29_2,2023-10-30T22:49:46.511Z,,0,,,NaN,,,,,,false,,,,101454.00000000001,101454.00000000001,,101454.00000000001,,101500,8,400,,,
sequence,flow.Sequence,4_29,2023-10-30T22:49:46.511Z,,0,,,2238.0000000000146,completion,,,,,false,,,,101454.00000000001,101454.00000000001,99183,99172,99216,101500,8,400,,,
trial,html.Screen,4_30_0,2023-10-30T22:49:48.783Z,,0,1,,2260,response,ISIC_8647900.JPG,3,ISIC_5359416.JPG,ISIC_5359416.JPG,false,0,keypress(z),500,103726,103726,101466,101455,101500,103766,8,400,31,,ISIC_8647900.JPG
break,html.Screen,4_30_1,2023-10-30T22:49:48.784Z,,0,,,NaN,,,,,,false,,,,103728.00000000001,103728.00000000001,,103727,,103766,8,400,,,
break_continue,html.Screen,4_30_2,2023-10-30T22:49:48.785Z,,0,,,NaN,,,,,,false,,,,103728.00000000001,103728.00000000001,,103728.00000000001,,103766,8,400,,,
sequence,flow.Sequence,4_30,2023-10-30T22:49:48.785Z,,0,,,2228.0000000000146,completion,,,,,false,,,,103729,103728.00000000001,101466,101455,101500,103766,8,400,,,
trial,html.Screen,4_31_0,2023-10-30T22:49:51.005Z,,0,1,,2216.0000000000146,response,ISIC_0059412.JPG,7,ISIC_0029189.JPG,ISIC_0029189.JPG,false,0,keypress(z),500,105948.00000000001,105948.00000000001,103732,103729,103766,105999,8,400,32,,ISIC_0059412.JPG
break,html.Screen,4_31_1,2023-10-30T22:49:51.006Z,,0,,,NaN,,,,,,false,,,,105950,105950,,105949,,105999,8,400,,,
break_continue,html.Screen,4_31_2,2023-10-30T22:49:51.007Z,,0,,,NaN,,,,,,false,,,,105950,105950,,105950,,105999,8,400,,,
sequence,flow.Sequence,4_31,2023-10-30T22:49:51.007Z,,0,,,2184,completion,,,,,false,,,,105951.00000000001,105950,103732,103729,103766,105999,8,400,,,
trial,html.Screen,4_32_0,2023-10-30T22:49:53.281Z,,0,1,,2258,response,ISIC_0067798.JPG,1,ISIC_5502342.JPG,ISIC_5502342.JPG,false,0,keypress(z),500,108224,108224,105966,105951.00000000001,105999,108266,8,400,33,,ISIC_0067798.JPG
break,html.Screen,4_32_1,2023-10-30T22:49:53.283Z,,0,,,NaN,,,,,,false,,,,108226,108226,,108225.00000000001,,108266,8,400,,,
break_continue,html.Screen,4_32_2,2023-10-30T22:49:53.283Z,,0,,,NaN,,,,,,false,,,,108227,108226,,108226,,108266,8,400,,,
sequence,flow.Sequence,4_32,2023-10-30T22:49:53.283Z,,0,,,2227,completion,,,,,false,,,,108227,108226,105966,105951.00000000001,105999,108266,8,400,,,
trial,html.Screen,4_33_0,2023-10-30T22:49:55.322Z,,0,1,,2032,response,ISIC_0057244.JPG,6,ISIC_7223327.JPG,ISIC_7223327.JPG,false,0,keypress(z),500,110265,110265,108233,108227,108266,110316,8,400,34,,ISIC_0057244.JPG
break,html.Screen,4_33_1,2023-10-30T22:49:55.323Z,,0,,,NaN,,,,,,false,,,,110266,110266,,110265,,110316,8,400,,,
break_continue,html.Screen,4_33_2,2023-10-30T22:49:55.324Z,,0,,,NaN,,,,,,false,,,,110267,110267,,110267,,110316,8,400,,,
sequence,flow.Sequence,4_33,2023-10-30T22:49:55.324Z,,0,,,2001,completion,,,,,false,,,,110268,110267,108233,108227,108266,110316,8,400,,,
trial,html.Screen,4_34_0,2023-10-30T22:49:57.716Z,,0,1,,2376,response,ISIC_0033193.JPG,6,ISIC_0065235.JPG,ISIC_0065235.JPG,false,0,keypress(z),500,112660,112659,110283,110268,110316,112700,8,400,35,,ISIC_0033193.JPG
break,html.Screen,4_34_1,2023-10-30T22:49:57.718Z,,0,,,NaN,,,,,,false,,,,112661,112661,,112660,,112700,8,400,,,
break_continue,html.Screen,4_34_2,2023-10-30T22:49:57.718Z,,0,,,NaN,,,,,,false,,,,112662,112662,,112661,,112700,8,400,,,
sequence,flow.Sequence,4_34,2023-10-30T22:49:57.719Z,,0,,,2346,completion,,,,,false,,,,112662,112662,110283,110268,110316,112700,8,400,,,
trial,html.Screen,4_35_0,2023-10-30T22:50:00.226Z,,0,1,,2503,response,ISIC_0011488.JPG,2,ISIC_0072977.JPG,ISIC_0072977.JPG,false,0,keypress(z),500,115169,115169,112666,112662,112700,115216,8,400,36,,ISIC_0011488.JPG
break,html.Screen,4_35_1,2023-10-30T22:50:00.227Z,,0,,,NaN,,,,,,false,,,,115171,115170,,115170,,115216,8,400,,,
break_continue,html.Screen,4_35_2,2023-10-30T22:50:00.228Z,,0,,,NaN,,,,,,false,,,,115171,115171,,115171,,115216,8,400,,,
sequence,flow.Sequence,4_35,2023-10-30T22:50:00.228Z,,0,,,2471,completion,,,,,false,,,,115172,115171,112666,112662,112700,115216,8,400,,,
trial,html.Screen,4_36_0,2023-10-30T22:50:02.584Z,,0,1,,2344,response,ISIC_0032596.JPG,2,ISIC_0027552.JPG,ISIC_0027552.JPG,false,0,keypress(z),500,117527,117527,115183,115172,115216,117566,8,400,37,,ISIC_0032596.JPG
break,html.Screen,4_36_1,2023-10-30T22:50:02.586Z,,0,,,NaN,,,,,,false,,,,117529,117529,,117528,,117566,8,400,,,
break_continue,html.Screen,4_36_2,2023-10-30T22:50:02.586Z,,0,,,NaN,,,,,,false,,,,117529,117529,,117529,,117566,8,400,,,
sequence,flow.Sequence,4_36,2023-10-30T22:50:02.586Z,,0,,,2313,completion,,,,,false,,,,117530,117529,115183,115172,115216,117566,8,400,,,
trial,html.Screen,4_37_0,2023-10-30T22:50:04.949Z,,0,1,,2359,response,ISIC_0065537.JPG,6,ISIC_1960468.JPG,ISIC_1960468.JPG,false,0,keypress(z),500,119892,119892,117533,117530,117566,119933,8,400,38,,ISIC_0065537.JPG
break,html.Screen,4_37_1,2023-10-30T22:50:04.950Z,,0,,,NaN,,,,,,false,,,,119894,119893,,119893,,119933,8,400,,,
break_continue,html.Screen,4_37_2,2023-10-30T22:50:04.951Z,,0,,,NaN,,,,,,false,,,,119894,119894,,119894,,119933,8,400,,,
sequence,flow.Sequence,4_37,2023-10-30T22:50:04.951Z,,0,,,2328,completion,,,,,false,,,,119894,119894,117533,117530,117566,119933,8,400,,,
trial,html.Screen,4_38_0,2023-10-30T22:50:07.259Z,,0,1,,2304,response,ISIC_0029571.JPG,5,ISIC_0066379.JPG,ISIC_0066379.JPG,false,0,keypress(z),500,122203,122203,119899,119895,119933,122250,8,400,39,,ISIC_0029571.JPG
break,html.Screen,4_38_1,2023-10-30T22:50:07.260Z,,0,,,NaN,,,,,,false,,,,122203,122203,,122203,,122250,8,400,,,
break_continue,html.Screen,4_38_2,2023-10-30T22:50:07.260Z,,0,,,NaN,,,,,,false,,,,122204.00000000001,122204.00000000001,,122204.00000000001,,122250,8,400,,,
sequence,flow.Sequence,4_38,2023-10-30T22:50:07.260Z,,0,,,2271.0000000000146,completion,,,,,false,,,,122204.00000000001,122204.00000000001,119899,119895,119933,122250,8,400,,,
trial,html.Screen,4_39_0,2023-10-30T22:50:09.583Z,,0,1,,2309,response,ISIC_0031611.JPG,6,ISIC_0063191.JPG,ISIC_0063191.JPG,false,0,keypress(z),500,124526,124525,122216,122204.00000000001,122250,124566,8,400,40,,ISIC_0031611.JPG
break,html.Screen,4_39_1,2023-10-30T22:50:09.584Z,,0,,,NaN,,,,,,false,,,,124527,124527,,124526,,124566,8,400,,,
break_continue,html.Screen,4_39_2,2023-10-30T22:50:09.584Z,,0,,,NaN,,,,,,false,,,,124528,124528,,124527,,124566,8,400,,,
sequence,flow.Sequence,4_39,2023-10-30T22:50:09.585Z,,0,,,2278,completion,,,,,false,,,,124528,124528,122216,122204.00000000001,122250,124566,8,400,,,
trial,html.Screen,4_40_0,2023-10-30T22:50:11.930Z,,0,1,,2341,response,ISIC_6771810.JPG,4,ISIC_9905633.JPG,ISIC_9905633.JPG,false,0,keypress(z),500,126873,126873,124532,124528,124566,126916,8,400,41,,ISIC_6771810.JPG
break,html.Screen,4_40_1,2023-10-30T22:50:11.931Z,,0,,,NaN,,,,,,false,,,,126875,126875,,126874.00000000001,,126916,8,400,,,
break_continue,html.Screen,4_40_2,2023-10-30T22:50:11.932Z,,0,,,NaN,,,,,,false,,,,126875,126875,,126875,,126916,8,400,,,
sequence,flow.Sequence,4_40,2023-10-30T22:50:11.932Z,,0,,,2309,completion,,,,,false,,,,126875,126875,124532,124528,124566,126916,8,400,,,
trial,html.Screen,4_41_0,2023-10-30T22:50:14.226Z,,0,1,,2287.0000000000146,response,ISIC_0055367.JPG,16,ISIC_0027879.JPG,ISIC_0027879.JPG,false,0,keypress(z),500,129170.00000000001,129169.00000000001,126882,126876,126916,129216,8,400,42,,ISIC_0055367.JPG
break,html.Screen,4_41_1,2023-10-30T22:50:14.228Z,,0,,,NaN,,,,,,false,,,,129170.99999999999,129170.99999999999,,129170.00000000001,,129216,8,400,,,
break_continue,html.Screen,4_41_2,2023-10-30T22:50:14.228Z,,0,,,NaN,,,,,,false,,,,129170.99999999999,129170.99999999999,,129170.99999999999,,129216,8,400,,,
sequence,flow.Sequence,4_41,2023-10-30T22:50:14.228Z,,0,,,2254.9999999999854,completion,,,,,false,,,,129172,129170.99999999999,126882,126876,126916,129216,8,400,,,
trial,html.Screen,4_42_0,2023-10-30T22:50:16.440Z,,0,1,,2200,response,ISIC_8048668.JPG,4,ISIC_0000186.JPG,ISIC_0000186.JPG,false,0,keypress(z),500,131384,131383,129183,129172,129216,131432,8,400,43,,ISIC_8048668.JPG
break,html.Screen,4_42_1,2023-10-30T22:50:16.442Z,,0,,,NaN,,,,,,false,,,,131385,131385,,131384,,131432,8,400,,,
break_continue,html.Screen,4_42_2,2023-10-30T22:50:16.442Z,,0,,,NaN,,,,,,false,,,,131386,131386,,131385,,131432,8,400,,,
sequence,flow.Sequence,4_42,2023-10-30T22:50:16.443Z,,0,,,2170,completion,,,,,false,,,,131386,131386,129183,129172,129216,131432,8,400,,,
trial,html.Screen,4_43_0,2023-10-30T22:50:18.846Z,,0,1,,2390.000000000029,response,ISIC_0024796.JPG,4,ISIC_7242542.JPG,ISIC_7242542.JPG,false,0,keypress(z),500,133789.00000000003,133789.00000000003,131399,131386,131432,133833,8,400,44,,ISIC_0024796.JPG
break,html.Screen,4_43_1,2023-10-30T22:50:18.848Z,,0,,,NaN,,,,,,false,,,,133791,133790,,133790,,133833,8,400,,,
break_continue,html.Screen,4_43_2,2023-10-30T22:50:18.848Z,,0,,,NaN,,,,,,false,,,,133791,133791,,133791,,133833,8,400,,,
sequence,flow.Sequence,4_43,2023-10-30T22:50:18.848Z,,0,,,2359,completion,,,,,false,,,,133792,133791,131399,131386,131432,133833,8,400,,,
trial,html.Screen,4_44_0,2023-10-30T22:50:21.138Z,,0,1,,2282,response,ISIC_0067253.JPG,5,ISIC_1711185.JPG,ISIC_1711185.JPG,false,0,keypress(z),500,136082,136081,133799,133792,133833,136133,8,400,45,,ISIC_0067253.JPG
break,html.Screen,4_44_1,2023-10-30T22:50:21.140Z,,0,,,NaN,,,,,,false,,,,136083,136083,,136082,,136133,8,400,,,
break_continue,html.Screen,4_44_2,2023-10-30T22:50:21.140Z,,0,,,NaN,,,,,,false,,,,136083,136083,,136083,,136133,8,400,,,
sequence,flow.Sequence,4_44,2023-10-30T22:50:21.140Z,,0,,,2250,completion,,,,,false,,,,136084,136083,133799,133792,133833,136133,8,400,,,
trial,html.Screen,4_45_0,2023-10-30T22:50:23.402Z,,0,1,,2246,response,ISIC_1619814.JPG,4,ISIC_1929937.JPG,ISIC_1929937.JPG,false,0,keypress(z),500,138346,138345,136099,136084,136133,138399,8,400,46,,ISIC_1619814.JPG
break,html.Screen,4_45_1,2023-10-30T22:50:23.404Z,,0,,,NaN,,,,,,false,,,,138347,138347,,138346,,138399,8,400,,,
break_continue,html.Screen,4_45_2,2023-10-30T22:50:23.404Z,,0,,,NaN,,,,,,false,,,,138348,138348,,138347,,138399,8,400,,,
sequence,flow.Sequence,4_45,2023-10-30T22:50:23.404Z,,0,,,2215,completion,,,,,false,,,,138348,138348,136099,136084,136133,138399,8,400,,,
trial,html.Screen,4_46_0,2023-10-30T22:50:25.703Z,,0,1,,2281.000000000029,response,ISIC_9612228.JPG,9,ISIC_8043299.JPG,ISIC_8043299.JPG,false,0,keypress(z),500,140646.00000000003,140646.00000000003,138365,138348,138399,140699,8,400,47,,ISIC_9612228.JPG
break,html.Screen,4_46_1,2023-10-30T22:50:25.705Z,,0,,,NaN,,,,,,false,,,,140648,140648,,140647,,140699,8,400,,,
break_continue,html.Screen,4_46_2,2023-10-30T22:50:25.705Z,,0,,,NaN,,,,,,false,,,,140648,140648,,140648,,140699,8,400,,,
sequence,flow.Sequence,4_46,2023-10-30T22:50:25.705Z,,0,,,2249,completion,,,,,false,,,,140649,140648,138365,138348,138399,140699,8,400,,,
trial,html.Screen,4_47_0,2023-10-30T22:50:27.985Z,,0,1,,2261,response,ISIC_7319169.JPG,3,ISIC_5358568.JPG,ISIC_5358568.JPG,false,0,keypress(z),500,142928,142927,140666,140649,140699,142983,8,400,48,,ISIC_7319169.JPG
break,html.Screen,4_47_1,2023-10-30T22:50:27.986Z,,0,,,NaN,,,,,,false,,,,142929,142929,,142928,,142983,8,400,,,
break_continue,html.Screen,4_47_2,2023-10-30T22:50:27.987Z,,0,,,NaN,,,,,,false,,,,142930,142930,,142930,,142983,8,400,,,
sequence,flow.Sequence,4_47,2023-10-30T22:50:27.987Z,,0,,,2231,completion,,,,,false,,,,142930,142930,140666,140649,140699,142983,8,400,,,
trial,html.Screen,4_48_0,2023-10-30T22:50:30.175Z,,0,1,,2168,response,ISIC_0073147.JPG,1,ISIC_1020968.JPG,ISIC_1020968.JPG,false,0,keypress(z),500,145118,145118,142950,142930,142983,145166,8,400,49,,ISIC_0073147.JPG
break,html.Screen,4_48_1,2023-10-30T22:50:30.176Z,,0,,,NaN,,,,,,false,,,,145120,145120,,145119,,145166,8,400,,,
break_continue,html.Screen,4_48_2,2023-10-30T22:50:30.177Z,,0,,,NaN,,,,,,false,,,,145120,145120,,145120,,145166,8,400,,,
sequence,flow.Sequence,4_48,2023-10-30T22:50:30.177Z,,0,,,2137,completion,,,,,false,,,,145121,145120,142950,142930,142983,145166,8,400,,,
trial,html.Screen,4_49_0,2023-10-30T22:50:33.024Z,,0,1,,2836,response,ISIC_9022005.JPG,2,ISIC_8171432.JPG,ISIC_9022005.JPG,false,1,keypress(m),500,147968,147968,145132,145121,145166,148015,8,400,50,,ISIC_8171432.JPG
break,html.Screen,4_49_1,2023-10-30T22:50:43.039Z,,0,,,10001,timeout,,,,,false,,,,157983,157982,147983,147968,148015,158016,8,400,,,
break_continue,html.Screen,4_49_2,2023-10-30T22:50:43.924Z,,0,,,895,response,,,,,false,continue,keypress(Space),,158867,158877,157982,157983,158016,158916,8,400,,,
sequence,flow.Sequence,4_49,2023-10-30T22:50:43.924Z,,0,,,13711,completion,,,,,false,,,,158867,158877,145132,145121,145166,158916,8,400,,,
trial,html.Screen,4_50_0,2023-10-30T22:50:46.045Z,,0,2,,2105,response,ISIC_3336353.JPG,15,ISIC_0029182.JPG,ISIC_3336353.JPG,false,1,keypress(m),500,160988,160987,158882,158868,158916,161033,8,400,1,,ISIC_0029182.JPG
break,html.Screen,4_50_1,2023-10-30T22:50:46.046Z,,0,,,NaN,,,,,,false,,,,160989,160989,,160988,,161033,8,400,,,
break_continue,html.Screen,4_50_2,2023-10-30T22:50:46.046Z,,0,,,NaN,,,,,,false,,,,160990,160990,,160990,,161033,8,400,,,
sequence,flow.Sequence,4_50,2023-10-30T22:50:46.047Z,,0,,,2074,completion,,,,,false,,,,160990,160990,158882,158868,158916,161033,8,400,,,
trial,html.Screen,4_51_0,2023-10-30T22:50:48.317Z,,0,2,,2261,response,ISIC_0067697.JPG,8,ISIC_4564163.JPG,ISIC_0067697.JPG,false,1,keypress(m),500,163261,163260,160999,160991,161033,163299,8,400,2,,ISIC_4564163.JPG
break,html.Screen,4_51_1,2023-10-30T22:50:48.319Z,,0,,,NaN,,,,,,false,,,,163262,163262,,163261,,163299,8,400,,,
break_continue,html.Screen,4_51_2,2023-10-30T22:50:48.319Z,,0,,,NaN,,,,,,false,,,,163263,163263,,163263,,163299,8,400,,,
sequence,flow.Sequence,4_51,2023-10-30T22:50:48.320Z,,0,,,2230,completion,,,,,false,,,,163263,163263,160999,160990,161033,163299,8,400,,,
trial,html.Screen,4_52_0,2023-10-30T22:50:50.620Z,,0,2,,2297.000000000029,response,ISIC_1693572.JPG,8,ISIC_0010478.JPG,ISIC_1693572.JPG,false,1,keypress(m),500,165563.00000000003,165563.00000000003,163266,163263,163299,165616,8,400,3,,ISIC_0010478.JPG
break,html.Screen,4_52_1,2023-10-30T22:50:50.622Z,,0,,,NaN,,,,,,false,,,,165565,165565,,165564,,165616,8,400,,,
break_continue,html.Screen,4_52_2,2023-10-30T22:50:50.622Z,,0,,,NaN,,,,,,false,,,,165565,165565,,165565,,165616,8,400,,,
sequence,flow.Sequence,4_52,2023-10-30T22:50:50.622Z,,0,,,2266,completion,,,,,false,,,,165566,165565,163266,163263,163299,165616,8,400,,,
trial,html.Screen,4_53_0,2023-10-30T22:50:52.900Z,,0,2,,2260,response,ISIC_0064860.JPG,5,ISIC_0025732.JPG,ISIC_0064860.JPG,false,1,keypress(m),500,167844,167843,165583,165566,165616,167883,8,400,4,,ISIC_0025732.JPG
break,html.Screen,4_53_1,2023-10-30T22:50:52.902Z,,0,,,NaN,,,,,,false,,,,167845,167845,,167844,,167883,8,400,,,
break_continue,html.Screen,4_53_2,2023-10-30T22:50:52.902Z,,0,,,NaN,,,,,,false,,,,167846,167845,,167845,,167883,8,400,,,
sequence,flow.Sequence,4_53,2023-10-30T22:50:52.902Z,,0,,,2229,completion,,,,,false,,,,167846,167845,165583,165566,165616,167883,8,400,,,
trial,html.Screen,4_54_0,2023-10-30T22:50:54.961Z,,0,2,,2055,response,ISIC_0010850.JPG,9,ISIC_0056226.JPG,ISIC_0010850.JPG,false,1,keypress(m),500,169905,169904,167849,167846,167883,169949,8,400,5,,ISIC_0056226.JPG
break,html.Screen,4_54_1,2023-10-30T22:50:54.963Z,,0,,,NaN,,,,,,false,,,,169906,169906,,169905,,169949,8,400,,,
break_continue,html.Screen,4_54_2,2023-10-30T22:50:54.963Z,,0,,,NaN,,,,,,false,,,,169907,169907,,169907,,169949,8,400,,,
sequence,flow.Sequence,4_54,2023-10-30T22:50:54.964Z,,0,,,2024,completion,,,,,false,,,,169907,169907,167849,167846,167883,169949,8,400,,,
trial,html.Screen,4_55_0,2023-10-30T22:50:57.277Z,,0,2,,2303,response,ISIC_4781169.JPG,3,ISIC_0005304.JPG,ISIC_4781169.JPG,false,1,keypress(m),500,172220,172219,169916,169907,169949,172265,8,400,6,,ISIC_0005304.JPG
break,html.Screen,4_55_1,2023-10-30T22:50:57.278Z,,0,,,NaN,,,,,,false,,,,172221,172221,,172220,,172265,8,400,,,
break_continue,html.Screen,4_55_2,2023-10-30T22:50:57.279Z,,0,,,NaN,,,,,,false,,,,172222,172222,,172222,,172265,8,400,,,
sequence,flow.Sequence,4_55,2023-10-30T22:50:57.279Z,,0,,,2273,completion,,,,,false,,,,172222,172222,169916,169907,169949,172265,8,400,,,
trial,html.Screen,4_56_0,2023-10-30T22:50:59.542Z,,0,2,,2253,response,ISIC_0013634.JPG,5,ISIC_0059987.JPG,ISIC_0013634.JPG,false,1,keypress(m),500,174485,174485,172232,172223,172265,174532,8,400,7,,ISIC_0059987.JPG
break,html.Screen,4_56_1,2023-10-30T22:50:59.543Z,,0,,,NaN,,,,,,false,,,,174486,174486,,174485,,174532,8,400,,,
break_continue,html.Screen,4_56_2,2023-10-30T22:50:59.543Z,,0,,,NaN,,,,,,false,,,,174487,174486,,174486,,174532,8,400,,,
sequence,flow.Sequence,4_56,2023-10-30T22:50:59.543Z,,0,,,2221,completion,,,,,false,,,,174487,174486,172232,172223,172265,174532,8,400,,,
trial,html.Screen,4_57_0,2023-10-30T22:51:01.800Z,,0,2,,2243,response,ISIC_0027822.JPG,0,ISIC_2583592.JPG,ISIC_0027822.JPG,false,1,keypress(m),500,176743,176742,174499,174487,174532,176782,8,400,8,,ISIC_2583592.JPG
break,html.Screen,4_57_1,2023-10-30T22:51:01.801Z,,0,,,NaN,,,,,,false,,,,176745,176744,,176743,,176782,8,400,,,
break_continue,html.Screen,4_57_2,2023-10-30T22:51:01.802Z,,0,,,NaN,,,,,,false,,,,176745,176745,,176745,,176782,8,400,,,
sequence,flow.Sequence,4_57,2023-10-30T22:51:01.802Z,,0,,,2213,completion,,,,,false,,,,176745,176745,174499,174487,174532,176782,8,400,,,
trial,html.Screen,4_58_0,2023-10-30T22:51:04.132Z,,0,2,,2326,response,ISIC_0033594.JPG,16,ISIC_1241817.JPG,ISIC_0033594.JPG,false,1,keypress(m),500,179075.00000000003,179074,176748,176746,176782,179116,8,400,9,,ISIC_1241817.JPG
break,html.Screen,4_58_1,2023-10-30T22:51:04.133Z,,0,,,NaN,,,,,,false,,,,179077,179076,,179075.00000000003,,179116,8,400,,,
break_continue,html.Screen,4_58_2,2023-10-30T22:51:04.134Z,,0,,,NaN,,,,,,false,,,,179077,179077,,179077,,179116,8,400,,,
sequence,flow.Sequence,4_58,2023-10-30T22:51:04.134Z,,0,,,2295,completion,,,,,false,,,,179077,179077,176748,176745,176782,179116,8,400,,,
trial,html.Screen,4_59_0,2023-10-30T22:51:07.020Z,,0,2,,2881,response,ISIC_1814941.JPG,0,ISIC_2051564.JPG,ISIC_1814941.JPG,false,1,keypress(m),500,181964,181963,179082,179078,179116,182016,8,400,10,,ISIC_2051564.JPG
break,html.Screen,4_59_1,2023-10-30T22:51:07.022Z,,0,,,NaN,,,,,,false,,,,181965,181965,,181964,,182016,8,400,,,
break_continue,html.Screen,4_59_2,2023-10-30T22:51:07.022Z,,0,,,NaN,,,,,,false,,,,181966,181965,,181965,,182016,8,400,,,
sequence,flow.Sequence,4_59,2023-10-30T22:51:07.023Z,,0,,,2849,completion,,,,,false,,,,181966,181965,179082,179078,179116,182016,8,400,,,
trial,html.Screen,4_60_0,2023-10-30T22:51:09.069Z,,0,2,,2029,response,ISIC_8781751.JPG,16,ISIC_3495799.JPG,ISIC_8781751.JPG,false,1,keypress(m),500,184012,184011,181982,181966,182016,184066,8,400,11,,ISIC_3495799.JPG
break,html.Screen,4_60_1,2023-10-30T22:51:09.070Z,,0,,,NaN,,,,,,false,,,,184013,184013,,184012,,184066,8,400,,,
break_continue,html.Screen,4_60_2,2023-10-30T22:51:09.071Z,,0,,,NaN,,,,,,false,,,,184014,184014,,184014,,184066,8,400,,,
sequence,flow.Sequence,4_60,2023-10-30T22:51:09.071Z,,0,,,1998,completion,,,,,false,,,,184014,184014,181982,181966,182016,184066,8,400,,,
trial,html.Screen,4_61_0,2023-10-30T22:51:11.464Z,,0,2,,2374,response,ISIC_0026498.JPG,8,ISIC_6805527.JPG,ISIC_0026498.JPG,false,1,keypress(m),500,186408.00000000003,186407,184033,184015.00000000003,184066,186449,8,400,12,,ISIC_6805527.JPG
break,html.Screen,4_61_1,2023-10-30T22:51:11.466Z,,0,,,NaN,,,,,,false,,,,186409,186409,,186408.00000000003,,186449,8,400,,,
break_continue,html.Screen,4_61_2,2023-10-30T22:51:11.466Z,,0,,,NaN,,,,,,false,,,,186410,186409,,186409,,186449,8,400,,,
sequence,flow.Sequence,4_61,2023-10-30T22:51:11.466Z,,0,,,2343,completion,,,,,false,,,,186410,186409,184033,184015.00000000003,184066,186449,8,400,,,
trial,html.Screen,4_62_0,2023-10-30T22:51:13.878Z,,0,2,,2405,response,ISIC_0028394.JPG,3,ISIC_5382189.JPG,ISIC_0028394.JPG,false,1,keypress(m),500,188821,188820,186415,186410,186449,188866,8,400,13,,ISIC_5382189.JPG
break,html.Screen,4_62_1,2023-10-30T22:51:13.879Z,,0,,,NaN,,,,,,false,,,,188822,188822,,188821,,188866,8,400,,,
break_continue,html.Screen,4_62_2,2023-10-30T22:51:13.879Z,,0,,,NaN,,,,,,false,,,,188823,188823,,188823,,188866,8,400,,,
sequence,flow.Sequence,4_62,2023-10-30T22:51:13.880Z,,0,,,2374,completion,,,,,false,,,,188823,188823,186415,186410,186449,188866,8,400,,,
trial,html.Screen,4_63_0,2023-10-30T22:51:16.173Z,,0,2,,2284,response,ISIC_7889838.JPG,6,ISIC_0054885.JPG,ISIC_7889838.JPG,false,1,keypress(m),500,191117,191116,188832,188823,188866,191166,8,400,14,,ISIC_0054885.JPG
break,html.Screen,4_63_1,2023-10-30T22:51:16.175Z,,0,,,NaN,,,,,,false,,,,191118,191118,,191117,,191166,8,400,,,
break_continue,html.Screen,4_63_2,2023-10-30T22:51:16.175Z,,0,,,NaN,,,,,,false,,,,191119,191119,,191119,,191166,8,400,,,
sequence,flow.Sequence,4_63,2023-10-30T22:51:16.176Z,,0,,,2253,completion,,,,,false,,,,191119,191119,188832,188823,188866,191166,8,400,,,
trial,html.Screen,4_64_0,2023-10-30T22:51:18.560Z,,0,2,,2370,response,ISIC_7938688.JPG,4,ISIC_8167374.JPG,ISIC_7938688.JPG,false,1,keypress(m),500,193503,193502,191132,191119,191166,193548,8,400,15,,ISIC_8167374.JPG
break,html.Screen,4_64_1,2023-10-30T22:51:18.562Z,,0,,,NaN,,,,,,false,,,,193505,193505,,193504,,193548,8,400,,,
break_continue,html.Screen,4_64_2,2023-10-30T22:51:18.562Z,,0,,,NaN,,,,,,false,,,,193506,193506,,193505,,193548,8,400,,,
sequence,flow.Sequence,4_64,2023-10-30T22:51:18.563Z,,0,,,2340,completion,,,,,false,,,,193506,193506,191132,191119,191166,193548,8,400,,,
trial,html.Screen,4_65_0,2023-10-30T22:51:20.908Z,,0,2,,2334,response,ISIC_0061441.JPG,2,ISIC_4472903.JPG,ISIC_0061441.JPG,false,1,keypress(m),500,195851,195850,193516,193506,193548,195899,8,400,16,,ISIC_4472903.JPG
break,html.Screen,4_65_1,2023-10-30T22:51:20.909Z,,0,,,NaN,,,,,,false,,,,195853,195852,,195852,,195899,8,400,,,
break_continue,html.Screen,4_65_2,2023-10-30T22:51:20.910Z,,0,,,NaN,,,,,,false,,,,195853,195853,,195853,,195899,8,400,,,
sequence,flow.Sequence,4_65,2023-10-30T22:51:20.910Z,,0,,,2305,completion,,,,,false,,,,195854,195853,193516,193506,193548,195899,8,400,,,
trial,html.Screen,4_66_0,2023-10-30T22:51:23.755Z,,0,2,,2833,response,ISIC_9081663.JPG,7,ISIC_0030017.JPG,ISIC_9081663.JPG,false,1,keypress(m),500,198699,198698,195865,195854,195899,198732,8,400,17,,ISIC_0030017.JPG
break,html.Screen,4_66_1,2023-10-30T22:51:23.757Z,,0,,,NaN,,,,,,false,,,,198700.00000000003,198700.00000000003,,198699,,198732,8,400,,,
break_continue,html.Screen,4_66_2,2023-10-30T22:51:23.758Z,,0,,,NaN,,,,,,false,,,,198701,198701,,198701,,198732,8,400,,,
sequence,flow.Sequence,4_66,2023-10-30T22:51:23.758Z,,0,,,2802,completion,,,,,false,,,,198701,198701,195865,195854,195899,198732,8,400,,,
trial,html.Screen,4_67_0,2023-10-30T22:51:26.305Z,,0,2,,2544,response,ISIC_0061141.JPG,8,ISIC_5415761.JPG,ISIC_0061141.JPG,false,1,keypress(m),500,201248,201248,198704,198702,198732,201299,8,400,18,,ISIC_5415761.JPG
break,html.Screen,4_67_1,2023-10-30T22:51:26.306Z,,0,,,NaN,,,,,,false,,,,201250,201249,,201248,,201299,8,400,,,
break_continue,html.Screen,4_67_2,2023-10-30T22:51:26.307Z,,0,,,NaN,,,,,,false,,,,201250,201250,,201250,,201299,8,400,,,
sequence,flow.Sequence,4_67,2023-10-30T22:51:26.307Z,,0,,,2518,completion,,,,,false,,,,201250,201250,198704,198701,198732,201299,8,400,,,
trial,html.Screen,4_68_0,2023-10-30T22:51:28.722Z,,0,2,,2398,response,ISIC_9596721.JPG,7,ISIC_0028859.JPG,ISIC_9596721.JPG,false,1,keypress(m),500,203665,203665,201267,201251,201299,203732,8,400,19,,ISIC_0028859.JPG
break,html.Screen,4_68_1,2023-10-30T22:51:28.723Z,,0,,,NaN,,,,,,false,,,,203666,203666,,203665,,203732,8,400,,,
break_continue,html.Screen,4_68_2,2023-10-30T22:51:28.723Z,,0,,,NaN,,,,,,false,,,,203667,203666,,203666,,203732,8,400,,,
sequence,flow.Sequence,4_68,2023-10-30T22:51:28.724Z,,0,,,2367,completion,,,,,false,,,,203667,203666,201267,201250,201299,203732,8,400,,,
trial,html.Screen,4_69_0,2023-10-30T22:51:30.888Z,,0,2,,2133.000000000029,response,ISIC_0472513.JPG,7,ISIC_0032547.JPG,ISIC_0472513.JPG,false,1,keypress(m),500,205832,205831.00000000003,203698,203667,203732,205882,8,400,20,,ISIC_0032547.JPG
break,html.Screen,4_69_1,2023-10-30T22:51:30.890Z,,0,,,NaN,,,,,,false,,,,205833,205833,,205832,,205882,8,400,,,
break_continue,html.Screen,4_69_2,2023-10-30T22:51:30.890Z,,0,,,NaN,,,,,,false,,,,205834,205834,,205833,,205882,8,400,,,
sequence,flow.Sequence,4_69,2023-10-30T22:51:30.891Z,,0,,,2102,completion,,,,,false,,,,205834,205834,203698,203667,203732,205882,8,400,,,
trial,html.Screen,4_70_0,2023-10-30T22:51:33.274Z,,0,2,,2367,response,ISIC_0027102.JPG,8,ISIC_0029570.JPG,ISIC_0027102.JPG,false,1,keypress(m),500,208217,208216,205849,205834,205882,208266,8,400,21,,ISIC_0029570.JPG
break,html.Screen,4_70_1,2023-10-30T22:51:33.275Z,,0,,,NaN,,,,,,false,,,,208218.00000000003,208218.00000000003,,208217,,208266,8,400,,,
break_continue,html.Screen,4_70_2,2023-10-30T22:51:33.276Z,,0,,,NaN,,,,,,false,,,,208219,208219,,208219,,208266,8,400,,,
sequence,flow.Sequence,4_70,2023-10-30T22:51:33.276Z,,0,,,2337,completion,,,,,false,,,,208219,208219,205849,205834,205882,208266,8,400,,,
trial,html.Screen,4_71_0,2023-10-30T22:51:35.290Z,,0,2,,2001,response,ISIC_4187627.JPG,3,ISIC_0028415.JPG,ISIC_4187627.JPG,false,1,keypress(m),500,210233,210233,208232,208220,208266,210282,8,400,22,,ISIC_0028415.JPG
break,html.Screen,4_71_1,2023-10-30T22:51:35.291Z,,0,,,NaN,,,,,,false,,,,210235,210234,,210234,,210282,8,400,,,
break_continue,html.Screen,4_71_2,2023-10-30T22:51:35.292Z,,0,,,NaN,,,,,,false,,,,210235,210235,,210235,,210282,8,400,,,
sequence,flow.Sequence,4_71,2023-10-30T22:51:35.292Z,,0,,,1969,completion,,,,,false,,,,210236.00000000003,210235,208232,208219,208266,210282,8,400,,,
trial,html.Screen,4_72_0,2023-10-30T22:51:37.636Z,,0,2,,2329,response,ISIC_5565517.JPG,7,ISIC_0000516.JPG,ISIC_5565517.JPG,false,1,keypress(m),500,212579,212578,210249,210236.00000000003,210282,212632,8,400,23,,ISIC_0000516.JPG
break,html.Screen,4_72_1,2023-10-30T22:51:37.637Z,,0,,,NaN,,,,,,false,,,,212580,212580,,212579,,212632,8,400,,,
break_continue,html.Screen,4_72_2,2023-10-30T22:51:37.638Z,,0,,,NaN,,,,,,false,,,,212581.00000000003,212581.00000000003,,212581.00000000003,,212632,8,400,,,
sequence,flow.Sequence,4_72,2023-10-30T22:51:37.638Z,,0,,,2299.000000000029,completion,,,,,false,,,,212581.00000000003,212581.00000000003,210249,210236.00000000003,210282,212632,8,400,,,
trial,html.Screen,4_73_0,2023-10-30T22:51:39.993Z,,0,2,,2337,response,ISIC_2740756.JPG,7,ISIC_5226353.JPG,ISIC_2740756.JPG,false,1,keypress(m),500,214937,214936,212599,212581.00000000003,212632,214982,8,400,24,,ISIC_5226353.JPG
break,html.Screen,4_73_1,2023-10-30T22:51:39.995Z,,0,,,NaN,,,,,,false,,,,214939,214938.00000000003,,214937,,214982,8,400,,,
break_continue,html.Screen,4_73_2,2023-10-30T22:51:39.996Z,,0,,,NaN,,,,,,false,,,,214939,214939,,214939,,214982,8,400,,,
sequence,flow.Sequence,4_73,2023-10-30T22:51:39.996Z,,0,,,2307,completion,,,,,false,,,,214939,214939,212599,212581.00000000003,212632,214982,8,400,,,
trial,html.Screen,4_74_0,2023-10-30T22:51:42.293Z,,0,2,,2286,response,ISIC_0055513.JPG,3,ISIC_3361955.JPG,ISIC_0055513.JPG,false,1,keypress(m),500,217236.00000000003,217235,214949,214940,214982,217282,8,400,25,,ISIC_3361955.JPG
break,html.Screen,4_74_1,2023-10-30T22:51:42.294Z,,0,,,NaN,,,,,,false,,,,217237,217237,,217236.00000000003,,217282,8,400,,,
break_continue,html.Screen,4_74_2,2023-10-30T22:51:42.294Z,,0,,,NaN,,,,,,false,,,,217238,217238,,217238,,217282,8,400,,,
sequence,flow.Sequence,4_74,2023-10-30T22:51:42.295Z,,0,,,2256,completion,,,,,false,,,,217238,217238,214949,214939,214982,217282,8,400,,,
trial,html.Screen,4_75_0,2023-10-30T22:51:44.586Z,,0,2,,2279,response,ISIC_4384341.JPG,16,ISIC_2051278.JPG,ISIC_4384341.JPG,false,1,keypress(m),500,219529,219528,217249,217238,217282,219582,8,400,26,,ISIC_2051278.JPG
break,html.Screen,4_75_1,2023-10-30T22:51:44.587Z,,0,,,NaN,,,,,,false,,,,219531,219530,,219530,,219582,8,400,,,
break_continue,html.Screen,4_75_2,2023-10-30T22:51:44.588Z,,0,,,NaN,,,,,,false,,,,219531,219531,,219531,,219582,8,400,,,
sequence,flow.Sequence,4_75,2023-10-30T22:51:44.588Z,,0,,,2249,completion,,,,,false,,,,219531,219531,217249,217238,217282,219582,8,400,,,
trial,html.Screen,4_76_0,2023-10-30T22:51:46.837Z,,0,2,,2231,response,ISIC_0013702.JPG,11,ISIC_0033845.JPG,ISIC_0013702.JPG,false,1,keypress(m),500,221781,221780,219549,219531,219582,221832,8,400,27,,ISIC_0033845.JPG
break,html.Screen,4_76_1,2023-10-30T22:51:46.839Z,,0,,,NaN,,,,,,false,,,,221782,221782,,221781,,221832,8,400,,,
break_continue,html.Screen,4_76_2,2023-10-30T22:51:46.839Z,,0,,,NaN,,,,,,false,,,,221783.00000000003,221783.00000000003,,221782,,221832,8,400,,,
sequence,flow.Sequence,4_76,2023-10-30T22:51:46.840Z,,0,,,2201.000000000029,completion,,,,,false,,,,221783.00000000003,221783.00000000003,219549,219531,219582,221832,8,400,,,
trial,html.Screen,4_77_0,2023-10-30T22:51:49.120Z,,0,2,,2263,response,ISIC_0010789.JPG,4,ISIC_0031363.JPG,ISIC_0010789.JPG,false,1,keypress(m),500,224063.00000000003,224062,221799,221783.00000000003,221832,224116,8,400,28,,ISIC_0031363.JPG
break,html.Screen,4_77_1,2023-10-30T22:51:49.121Z,,0,,,NaN,,,,,,false,,,,224064,224064,,224063.00000000003,,224116,8,400,,,
break_continue,html.Screen,4_77_2,2023-10-30T22:51:49.121Z,,0,,,NaN,,,,,,false,,,,224065,224065,,224065,,224116,8,400,,,
sequence,flow.Sequence,4_77,2023-10-30T22:51:49.122Z,,0,,,2233,completion,,,,,false,,,,224065,224065,221799,221783.00000000003,221832,224116,8,400,,,
trial,html.Screen,4_78_0,2023-10-30T22:51:51.262Z,,0,2,,2123,response,ISIC_1375476.JPG,10,ISIC_0028338.JPG,ISIC_1375476.JPG,false,1,keypress(m),500,226205,226205,224082,224065,224116,226249,8,400,29,,ISIC_0028338.JPG
break,html.Screen,4_78_1,2023-10-30T22:51:51.263Z,,0,,,NaN,,,,,,false,,,,226207,226206.00000000003,,226206.00000000003,,226249,8,400,,,
break_continue,html.Screen,4_78_2,2023-10-30T22:51:51.264Z,,0,,,NaN,,,,,,false,,,,226207,226207,,226207,,226249,8,400,,,
sequence,flow.Sequence,4_78,2023-10-30T22:51:51.264Z,,0,,,2091,completion,,,,,false,,,,226208,226207,224082,224065,224116,226249,8,400,,,
trial,html.Screen,4_79_0,2023-10-30T22:51:53.548Z,,0,2,,2276,response,ISIC_2804864.JPG,6,ISIC_0000387.JPG,ISIC_2804864.JPG,false,1,keypress(m),500,228492.00000000003,228491,226215,226208,226249,228532,8,400,30,,ISIC_0000387.JPG
break,html.Screen,4_79_1,2023-10-30T22:51:53.550Z,,0,,,NaN,,,,,,false,,,,228493,228493,,228492.00000000003,,228532,8,400,,,
break_continue,html.Screen,4_79_2,2023-10-30T22:51:53.550Z,,0,,,NaN,,,,,,false,,,,228494,228494,,228493,,228532,8,400,,,
sequence,flow.Sequence,4_79,2023-10-30T22:51:53.551Z,,0,,,2245,completion,,,,,false,,,,228494,228494,226215,226208,226249,228532,8,400,,,
trial,html.Screen,4_80_0,2023-10-30T22:51:55.841Z,,0,2,,2285.000000000029,response,ISIC_5646706.JPG,1,ISIC_9495211.JPG,ISIC_5646706.JPG,false,1,keypress(m),500,230784,230783.00000000003,228498,228494,228532,230832,8,400,31,,ISIC_9495211.JPG
break,html.Screen,4_80_1,2023-10-30T22:51:55.842Z,,0,,,NaN,,,,,,false,,,,230786,230785,,230785,,230832,8,400,,,
break_continue,html.Screen,4_80_2,2023-10-30T22:51:55.843Z,,0,,,NaN,,,,,,false,,,,230786,230786,,230786,,230832,8,400,,,
sequence,flow.Sequence,4_80,2023-10-30T22:51:55.843Z,,0,,,2254,completion,,,,,false,,,,230787,230786,228498,228494,228532,230832,8,400,,,
trial,html.Screen,4_81_0,2023-10-30T22:51:58.131Z,,0,2,,2274,response,ISIC_0011778.JPG,16,ISIC_0070136.JPG,ISIC_0011778.JPG,false,1,keypress(m),500,233074,233073,230799,230787,230832,233115,8,400,32,,ISIC_0070136.JPG
break,html.Screen,4_81_1,2023-10-30T22:51:58.132Z,,0,,,NaN,,,,,,false,,,,233076,233075.00000000003,,233074,,233115,8,400,,,
break_continue,html.Screen,4_81_2,2023-10-30T22:51:58.133Z,,0,,,NaN,,,,,,false,,,,233076,233076,,233076,,233115,8,400,,,
sequence,flow.Sequence,4_81,2023-10-30T22:51:58.133Z,,0,,,2244,completion,,,,,false,,,,233077,233076,230799,230787,230832,233115,8,400,,,
trial,html.Screen,4_82_0,2023-10-30T22:52:00.403Z,,0,2,,2264,response,ISIC_0009927.JPG,1,ISIC_0011921.JPG,ISIC_0009927.JPG,false,1,keypress(m),500,235346,235346,233082,233077,233115,235399,8,400,33,,ISIC_0011921.JPG
break,html.Screen,4_82_1,2023-10-30T22:52:00.404Z,,0,,,NaN,,,,,,false,,,,235348,235348,,235347,,235399,8,400,,,
break_continue,html.Screen,4_82_2,2023-10-30T22:52:00.405Z,,0,,,NaN,,,,,,false,,,,235348,235348,,235348,,235399,8,400,,,
sequence,flow.Sequence,4_82,2023-10-30T22:52:00.405Z,,0,,,2233,completion,,,,,false,,,,235349.00000000003,235348,233082,233077,233115,235399,8,400,,,
trial,html.Screen,4_83_0,2023-10-30T22:52:02.693Z,,0,2,,2270,response,ISIC_0055191.JPG,10,ISIC_6906476.JPG,ISIC_0055191.JPG,false,1,keypress(m),500,237636,237635,235365,235349.00000000003,235399,237681,8,400,34,,ISIC_6906476.JPG
break,html.Screen,4_83_1,2023-10-30T22:52:02.694Z,,0,,,NaN,,,,,,false,,,,237638,237637,,237636,,237681,8,400,,,
break_continue,html.Screen,4_83_2,2023-10-30T22:52:02.695Z,,0,,,NaN,,,,,,false,,,,237638,237638,,237638,,237681,8,400,,,
sequence,flow.Sequence,4_83,2023-10-30T22:52:02.695Z,,0,,,2239,completion,,,,,false,,,,237638,237638,235365,235349.00000000003,235399,237681,8,400,,,
trial,html.Screen,4_84_0,2023-10-30T22:52:04.721Z,,0,2,,2015.000000000029,response,ISIC_1146341.JPG,6,ISIC_4139260.JPG,ISIC_1146341.JPG,false,1,keypress(m),500,239665,239664.00000000003,237649,237639,237681,239715,8,400,35,,ISIC_4139260.JPG
break,html.Screen,4_84_1,2023-10-30T22:52:04.723Z,,0,,,NaN,,,,,,false,,,,239666,239666,,239665,,239715,8,400,,,
break_continue,html.Screen,4_84_2,2023-10-30T22:52:04.723Z,,0,,,NaN,,,,,,false,,,,239667,239666,,239666,,239715,8,400,,,
sequence,flow.Sequence,4_84,2023-10-30T22:52:04.724Z,,0,,,1985,completion,,,,,false,,,,239667,239666,237649,237638,237681,239715,8,400,,,
trial,html.Screen,4_85_0,2023-10-30T22:52:07.071Z,,0,2,,2332,response,ISIC_0071196.JPG,3,ISIC_0012067.JPG,ISIC_0071196.JPG,false,1,keypress(m),500,242014,242013,239681,239667,239715,242064,8,400,36,,ISIC_0012067.JPG
break,html.Screen,4_85_1,2023-10-30T22:52:07.072Z,,0,,,NaN,,,,,,false,,,,242015.00000000003,242015.00000000003,,242014,,242064,8,400,,,
break_continue,html.Screen,4_85_2,2023-10-30T22:52:07.072Z,,0,,,NaN,,,,,,false,,,,242016,242016,,242016,,242064,8,400,,,
sequence,flow.Sequence,4_85,2023-10-30T22:52:07.073Z,,0,,,2301,completion,,,,,false,,,,242016,242016,239681,239667,239715,242064,8,400,,,
trial,html.Screen,4_86_0,2023-10-30T22:52:09.183Z,,0,2,,2095,response,ISIC_9015182.JPG,4,ISIC_8849004.JPG,ISIC_9015182.JPG,false,1,keypress(m),500,244127,244126,242031,242016,242064,244165,8,400,37,,ISIC_8849004.JPG
break,html.Screen,4_86_1,2023-10-30T22:52:09.185Z,,0,,,NaN,,,,,,false,,,,244128,244128,,244127,,244165,8,400,,,
break_continue,html.Screen,4_86_2,2023-10-30T22:52:09.185Z,,0,,,NaN,,,,,,false,,,,244129.00000000003,244128,,244128,,244165,8,400,,,
sequence,flow.Sequence,4_86,2023-10-30T22:52:09.186Z,,0,,,2064,completion,,,,,false,,,,244129.00000000003,244128,242031,242016,242064,244165,8,400,,,
trial,html.Screen,4_87_0,2023-10-30T22:52:11.346Z,,0,2,,2157.000000000029,response,ISIC_0080539.JPG,7,ISIC_6247668.JPG,ISIC_0080539.JPG,false,1,keypress(m),500,246289.00000000003,246289.00000000003,244132,244129.00000000003,244165,246332,8,400,38,,ISIC_6247668.JPG
break,html.Screen,4_87_1,2023-10-30T22:52:11.347Z,,0,,,NaN,,,,,,false,,,,246291,246291,,246290,,246332,8,400,,,
break_continue,html.Screen,4_87_2,2023-10-30T22:52:11.348Z,,0,,,NaN,,,,,,false,,,,246291,246291,,246291,,246332,8,400,,,
sequence,flow.Sequence,4_87,2023-10-30T22:52:11.348Z,,0,,,2126,completion,,,,,false,,,,246292,246291,244132,244129.00000000003,244165,246332,8,400,,,
trial,html.Screen,4_88_0,2023-10-30T22:52:13.654Z,,0,2,,2299,response,ISIC_0070412.JPG,10,ISIC_0027832.JPG,ISIC_0070412.JPG,false,1,keypress(m),500,248597,248597,246298,246292,246332,248649,8,400,39,,ISIC_0027832.JPG
break,html.Screen,4_88_1,2023-10-30T22:52:13.655Z,,0,,,NaN,,,,,,false,,,,248599.00000000003,248598,,248598,,248649,8,400,,,
break_continue,html.Screen,4_88_2,2023-10-30T22:52:13.656Z,,0,,,NaN,,,,,,false,,,,248599.00000000003,248599.00000000003,,248599.00000000003,,248649,8,400,,,
sequence,flow.Sequence,4_88,2023-10-30T22:52:13.656Z,,0,,,2267.000000000029,completion,,,,,false,,,,248600,248599.00000000003,246298,246292,246332,248649,8,400,,,
trial,html.Screen,4_89_0,2023-10-30T22:52:15.909Z,,0,2,,2237,response,ISIC_0033496.JPG,3,ISIC_2171940.JPG,ISIC_0033496.JPG,false,1,keypress(m),500,250852,250852,248615,248600,248649,250899,8,400,40,,ISIC_2171940.JPG
break,html.Screen,4_89_1,2023-10-30T22:52:15.911Z,,0,,,NaN,,,,,,false,,,,250854,250854,,250853,,250899,8,400,,,
break_continue,html.Screen,4_89_2,2023-10-30T22:52:15.911Z,,0,,,NaN,,,,,,false,,,,250854,250854,,250854,,250899,8,400,,,
sequence,flow.Sequence,4_89,2023-10-30T22:52:15.911Z,,0,,,2205,completion,,,,,false,,,,250855.00000000003,250854,248615,248600,248649,250899,8,400,,,
trial,html.Screen,4_90_0,2023-10-30T22:52:18.234Z,,0,2,,2312,response,ISIC_0053686.JPG,6,ISIC_7466678.JPG,ISIC_0053686.JPG,false,1,keypress(m),500,253177,253177,250865,250855.00000000003,250899,253232,8,400,41,,ISIC_7466678.JPG
break,html.Screen,4_90_1,2023-10-30T22:52:18.235Z,,0,,,NaN,,,,,,false,,,,253179,253178,,253178,,253232,8,400,,,
break_continue,html.Screen,4_90_2,2023-10-30T22:52:18.236Z,,0,,,NaN,,,,,,false,,,,253179,253179,,253179,,253232,8,400,,,
sequence,flow.Sequence,4_90,2023-10-30T22:52:18.236Z,,0,,,2280,completion,,,,,false,,,,253179,253179,250865,250855.00000000003,250899,253232,8,400,,,
trial,html.Screen,4_91_0,2023-10-30T22:52:20.485Z,,0,2,,2230,response,ISIC_0009666.JPG,6,ISIC_7981097.JPG,ISIC_0009666.JPG,false,1,keypress(m),500,255429,255428,253198,253180,253232,255482,8,400,42,,ISIC_7981097.JPG
break,html.Screen,4_91_1,2023-10-30T22:52:20.486Z,,0,,,NaN,,,,,,false,,,,255430,255429,,255429,,255482,8,400,,,
break_continue,html.Screen,4_91_2,2023-10-30T22:52:20.487Z,,0,,,NaN,,,,,,false,,,,255430,255430,,255430,,255482,8,400,,,
sequence,flow.Sequence,4_91,2023-10-30T22:52:20.487Z,,0,,,2198,completion,,,,,false,,,,255430,255430,253198,253180,253232,255482,8,400,,,
trial,html.Screen,4_92_0,2023-10-30T22:52:22.822Z,,0,2,,2315,response,ISIC_6717727.JPG,16,ISIC_0346815.JPG,ISIC_6717727.JPG,false,1,keypress(m),500,257765,257765,255450,255431,255482,257815,8,400,43,,ISIC_0346815.JPG
break,html.Screen,4_92_1,2023-10-30T22:52:22.823Z,,0,,,NaN,,,,,,false,,,,257767,257766.00000000003,,257765,,257815,8,400,,,
break_continue,html.Screen,4_92_2,2023-10-30T22:52:22.824Z,,0,,,NaN,,,,,,false,,,,257767,257767,,257767,,257815,8,400,,,
sequence,flow.Sequence,4_92,2023-10-30T22:52:22.824Z,,0,,,2285,completion,,,,,false,,,,257767,257767,255450,255431,255482,257815,8,400,,,
trial,html.Screen,4_93_0,2023-10-30T22:52:25.133Z,,0,2,,2293,response,ISIC_0008774.JPG,9,ISIC_6831108.JPG,ISIC_0008774.JPG,false,1,keypress(m),500,260076.00000000003,260075,257782,257768.00000000003,257815,260115,8,400,44,,ISIC_6831108.JPG
break,html.Screen,4_93_1,2023-10-30T22:52:25.134Z,,0,,,NaN,,,,,,false,,,,260078.00000000003,260077,,260076.00000000003,,260115,8,400,,,
break_continue,html.Screen,4_93_2,2023-10-30T22:52:25.135Z,,0,,,NaN,,,,,,false,,,,260078.00000000003,260078.00000000003,,260078.00000000003,,260115,8,400,,,
sequence,flow.Sequence,4_93,2023-10-30T22:52:25.135Z,,0,,,2263.000000000029,completion,,,,,false,,,,260078.00000000003,260078.00000000003,257782,257768.00000000003,257815,260115,8,400,,,
trial,html.Screen,4_94_0,2023-10-30T22:52:27.413Z,,0,2,,2274,response,ISIC_6754835.JPG,13,ISIC_1067985.JPG,ISIC_6754835.JPG,false,1,keypress(m),500,262356,262355,260081,260079,260115,262399,8,400,45,,ISIC_1067985.JPG
break,html.Screen,4_94_1,2023-10-30T22:52:27.414Z,,0,,,NaN,,,,,,false,,,,262357,262357,,262356,,262399,8,400,,,
break_continue,html.Screen,4_94_2,2023-10-30T22:52:27.414Z,,0,,,NaN,,,,,,false,,,,262358,262358,,262358,,262399,8,400,,,
sequence,flow.Sequence,4_94,2023-10-30T22:52:27.415Z,,0,,,2243,completion,,,,,false,,,,262358,262358,260081,260079,260115,262399,8,400,,,
trial,html.Screen,4_95_0,2023-10-30T22:52:29.767Z,,0,2,,2344,response,ISIC_0010207.JPG,10,ISIC_4998826.JPG,ISIC_0010207.JPG,false,1,keypress(m),500,264710,264709,262365,262358,262399,264748,8,400,46,,ISIC_4998826.JPG
break,html.Screen,4_95_1,2023-10-30T22:52:29.768Z,,0,,,NaN,,,,,,false,,,,264711,264711,,264710,,264748,8,400,,,
break_continue,html.Screen,4_95_2,2023-10-30T22:52:29.768Z,,0,,,NaN,,,,,,false,,,,264712,264712,,264712,,264748,8,400,,,
sequence,flow.Sequence,4_95,2023-10-30T22:52:29.769Z,,0,,,2313,completion,,,,,false,,,,264712,264712,262365,262358,262399,264748,8,400,,,
trial,html.Screen,4_96_0,2023-10-30T22:52:32.105Z,,0,2,,2333,response,ISIC_0588322.JPG,1,ISIC_1472777.JPG,ISIC_0588322.JPG,false,1,keypress(m),500,267048,267048,264715,264712,264748,267099,8,400,47,,ISIC_1472777.JPG
break,html.Screen,4_96_1,2023-10-30T22:52:32.106Z,,0,,,NaN,,,,,,false,,,,267049,267049,,267048,,267099,8,400,,,
break_continue,html.Screen,4_96_2,2023-10-30T22:52:32.107Z,,0,,,NaN,,,,,,false,,,,267050,267050,,267050,,267099,8,400,,,
sequence,flow.Sequence,4_96,2023-10-30T22:52:32.107Z,,0,,,2302,completion,,,,,false,,,,267050,267050,264715,264712,264748,267099,8,400,,,
trial,html.Screen,4_97_0,2023-10-30T22:52:34.537Z,,0,2,,2415,response,ISIC_0059959.JPG,3,ISIC_4288845.JPG,ISIC_0059959.JPG,false,1,keypress(m),500,269481,269480,267065,267050,267099,269532,8,400,48,,ISIC_4288845.JPG
break,html.Screen,4_97_1,2023-10-30T22:52:34.539Z,,0,,,NaN,,,,,,false,,,,269482,269482,,269481,,269532,8,400,,,
break_continue,html.Screen,4_97_2,2023-10-30T22:52:34.539Z,,0,,,NaN,,,,,,false,,,,269483,269482,,269482,,269532,8,400,,,
sequence,flow.Sequence,4_97,2023-10-30T22:52:34.539Z,,0,,,2383,completion,,,,,false,,,,269483,269482,267065,267050,267099,269532,8,400,,,
trial,html.Screen,4_98_0,2023-10-30T22:52:36.813Z,,0,2,,2257,response,ISIC_0014982.JPG,9,ISIC_0060979.JPG,ISIC_0014982.JPG,false,1,keypress(m),500,271757,271756,269499,269483,269532,271799,8,400,49,,ISIC_0060979.JPG
break,html.Screen,4_98_1,2023-10-30T22:52:36.815Z,,0,,,NaN,,,,,,false,,,,271758,271758,,271757,,271799,8,400,,,
break_continue,html.Screen,4_98_2,2023-10-30T22:52:36.815Z,,0,,,NaN,,,,,,false,,,,271759,271758,,271758,,271799,8,400,,,
sequence,flow.Sequence,4_98,2023-10-30T22:52:36.815Z,,0,,,2226,completion,,,,,false,,,,271759,271758,269499,269483,269532,271799,8,400,,,
trial,html.Screen,4_99_0,2023-10-30T22:52:40.167Z,,0,2,,3343,response,ISIC_6507640.JPG,2,ISIC_5335139.JPG,ISIC_6507640.JPG,false,1,keypress(m),500,275110,275109,271766,271759,271799,275148,8,400,50,,ISIC_5335139.JPG
break,html.Screen,4_99_1,2023-10-30T22:52:50.172Z,,0,,,10000,timeout,,,,,false,,,,285116,285115,275115,275111,275148,285148,8,400,,,
break_continue,html.Screen,4_99_2,2023-10-30T22:52:54.100Z,,0,,,3935,response,,,,,false,continue,keypress(Space),,289043,289050,285115,285116,285148,289082,8,400,,,
sequence,flow.Sequence,4_99,2023-10-30T22:52:54.100Z,,0,,,17251,completion,,,,,false,,,,289043,289050,271766,271759,271799,289082,8,400,,,
trial,html.Screen,4_100_0,2023-10-30T22:53:01.727Z,,0,3,,7621,response,ISIC_1870309.JPG,1,ISIC_3503302.JPG,ISIC_1870309.JPG,false,1,keypress(m),500,296670,296669,289048,289043,289082,296715,8,400,1,,ISIC_3503302.JPG
break,html.Screen,4_100_1,2023-10-30T22:53:01.728Z,,0,,,NaN,,,,,,false,,,,296672,296671,,296670,,296715,8,400,,,
break_continue,html.Screen,4_100_2,2023-10-30T22:53:01.729Z,,0,,,NaN,,,,,,false,,,,296672,296672,,296672,,296715,8,400,,,
sequence,flow.Sequence,4_100,2023-10-30T22:53:01.729Z,,0,,,7590,completion,,,,,false,,,,296673,296672,289048,289043,289082,296715,8,400,,,
trial,html.Screen,4_101_0,2023-10-30T22:53:05.945Z,,0,3,,4205,response,ISIC_4960406.JPG,7,ISIC_2000319.JPG,ISIC_4960406.JPG,false,1,keypress(m),500,300888.00000000006,300887,296682,296673,296715,300932,8,400,2,,ISIC_2000319.JPG
break,html.Screen,4_101_1,2023-10-30T22:53:05.946Z,,0,,,NaN,,,,,,false,,,,300889,300889,,300888.00000000006,,300932,8,400,,,
break_continue,html.Screen,4_101_2,2023-10-30T22:53:05.947Z,,0,,,NaN,,,,,,false,,,,300890,300890,,300890,,300932,8,400,,,
sequence,flow.Sequence,4_101,2023-10-30T22:53:05.947Z,,0,,,4175,completion,,,,,false,,,,300890,300890,296682,296673,296715,300932,8,400,,,
trial,html.Screen,4_102_0,2023-10-30T22:53:08.328Z,,0,3,,2373,response,ISIC_0013707.JPG,10,ISIC_3065032.JPG,ISIC_0013707.JPG,false,1,keypress(m),500,303272,303271,300898,300891,300932,303315,8,400,3,,ISIC_3065032.JPG
break,html.Screen,4_102_1,2023-10-30T22:53:08.330Z,,0,,,NaN,,,,,,false,,,,303273,303273,,303272,,303315,8,400,,,
break_continue,html.Screen,4_102_2,2023-10-30T22:53:08.330Z,,0,,,NaN,,,,,,false,,,,303274,303274,,303274,,303315,8,400,,,
sequence,flow.Sequence,4_102,2023-10-30T22:53:08.331Z,,0,,,2342,completion,,,,,false,,,,303274,303274,300898,300890,300932,303315,8,400,,,
trial,html.Screen,4_103_0,2023-10-30T22:53:10.819Z,,0,3,,2481,response,ISIC_6292348.JPG,6,ISIC_0234248.JPG,ISIC_6292348.JPG,false,1,keypress(m),500,305762,305762,303281,303274,303315,305815,8,400,4,,ISIC_0234248.JPG
break,html.Screen,4_103_1,2023-10-30T22:53:10.820Z,,0,,,NaN,,,,,,false,,,,305764,305763.00000000006,,305763.00000000006,,305815,8,400,,,
break_continue,html.Screen,4_103_2,2023-10-30T22:53:10.821Z,,0,,,NaN,,,,,,false,,,,305764,305764,,305764,,305815,8,400,,,
sequence,flow.Sequence,4_103,2023-10-30T22:53:10.821Z,,0,,,2449,completion,,,,,false,,,,305765,305764,303281,303274,303315,305815,8,400,,,
trial,html.Screen,4_104_0,2023-10-30T22:53:13.229Z,,0,3,,2390,response,ISIC_0028027.JPG,12,ISIC_6637542.JPG,ISIC_0028027.JPG,false,1,keypress(m),500,308172,308172,305782,305765,305815,308215,8,400,5,,ISIC_6637542.JPG
break,html.Screen,4_104_1,2023-10-30T22:53:13.230Z,,0,,,NaN,,,,,,false,,,,308173,308173,,308172,,308215,8,400,,,
break_continue,html.Screen,4_104_2,2023-10-30T22:53:13.231Z,,0,,,NaN,,,,,,false,,,,308174,308174,,308174,,308215,8,400,,,
sequence,flow.Sequence,4_104,2023-10-30T22:53:13.231Z,,0,,,2359,completion,,,,,false,,,,308174,308174,305782,305765,305815,308215,8,400,,,
trial,html.Screen,4_105_0,2023-10-30T22:53:17.397Z,,0,3,,4158.000000000058,response,ISIC_0065468.JPG,7,ISIC_0030417.JPG,ISIC_0065468.JPG,false,1,keypress(m),500,312341,312340.00000000006,308182,308175,308215,312382,8,400,6,,ISIC_0030417.JPG
break,html.Screen,4_105_1,2023-10-30T22:53:17.399Z,,0,,,NaN,,,,,,false,,,,312342,312342,,312341,,312382,8,400,,,
break_continue,html.Screen,4_105_2,2023-10-30T22:53:17.399Z,,0,,,NaN,,,,,,false,,,,312343,312343,,312342,,312382,8,400,,,
sequence,flow.Sequence,4_105,2023-10-30T22:53:17.400Z,,0,,,4128,completion,,,,,false,,,,312343,312343,308182,308175,308215,312382,8,400,,,
trial,html.Screen,4_106_0,2023-10-30T22:53:19.629Z,,0,3,,2223,response,ISIC_5037784.JPG,4,ISIC_9142818.JPG,ISIC_5037784.JPG,false,1,keypress(m),500,314572,314571,312348,312343,312382,314615,8,400,7,,ISIC_9142818.JPG
break,html.Screen,4_106_1,2023-10-30T22:53:19.630Z,,0,,,NaN,,,,,,false,,,,314573,314573,,314572,,314615,8,400,,,
break_continue,html.Screen,4_106_2,2023-10-30T22:53:19.630Z,,0,,,NaN,,,,,,false,,,,314574,314574,,314574,,314615,8,400,,,
sequence,flow.Sequence,4_106,2023-10-30T22:53:19.631Z,,0,,,2192,completion,,,,,false,,,,314574,314574,312348,312343,312382,314615,8,400,,,
trial,html.Screen,4_107_0,2023-10-30T22:53:21.856Z,,0,3,,2217.000000000058,response,ISIC_0033258.JPG,10,ISIC_0032121.JPG,ISIC_0032121.JPG,false,0,keypress(z),500,316799.00000000006,316799.00000000006,314582,314574,314615,316848,8,400,8,,ISIC_0033258.JPG
break,html.Screen,4_107_1,2023-10-30T22:53:21.857Z,,0,,,NaN,,,,,,false,,,,316801,316800,,316800,,316848,8,400,,,
break_continue,html.Screen,4_107_2,2023-10-30T22:53:21.858Z,,0,,,NaN,,,,,,false,,,,316801,316801,,316801,,316848,8,400,,,
sequence,flow.Sequence,4_107,2023-10-30T22:53:21.858Z,,0,,,2186,completion,,,,,false,,,,316801,316801,314582,314574,314615,316848,8,400,,,
trial,html.Screen,4_108_0,2023-10-30T22:53:26.782Z,,0,3,,4910,response,ISIC_0065066.JPG,5,ISIC_0067727.JPG,ISIC_0067727.JPG,false,0,keypress(z),500,321726,321725,316815,316802,316848,321765,8,400,9,,ISIC_0065066.JPG
break,html.Screen,4_108_1,2023-10-30T22:53:26.784Z,,0,,,NaN,,,,,,false,,,,321727.00000000006,321727.00000000006,,321726,,321765,8,400,,,
break_continue,html.Screen,4_108_2,2023-10-30T22:53:26.784Z,,0,,,NaN,,,,,,false,,,,321728,321728,,321728,,321765,8,400,,,
sequence,flow.Sequence,4_108,2023-10-30T22:53:26.785Z,,0,,,4880,completion,,,,,false,,,,321728,321728,316815,316802,316848,321765,8,400,,,
trial,html.Screen,4_109_0,2023-10-30T22:53:29.228Z,,0,3,,2440,response,ISIC_2051564.JPG,17,ISIC_0033004.JPG,ISIC_0033004.JPG,false,0,keypress(z),500,324171,324171,321731,321728,321765,324215,8,400,10,,ISIC_2051564.JPG
break,html.Screen,4_109_1,2023-10-30T22:53:29.230Z,,0,,,NaN,,,,,,false,,,,324173,324173,,324172,,324215,8,400,,,
break_continue,html.Screen,4_109_2,2023-10-30T22:53:29.231Z,,0,,,NaN,,,,,,false,,,,324174.00000000006,324174.00000000006,,324174.00000000006,,324215,8,400,,,
sequence,flow.Sequence,4_109,2023-10-30T22:53:29.231Z,,0,,,2409.000000000058,completion,,,,,false,,,,324174.00000000006,324174.00000000006,321731,321728,321765,324215,8,400,,,
trial,html.Screen,4_110_0,2023-10-30T22:53:31.710Z,,0,3,,2472,response,ISIC_4842269.JPG,1,ISIC_0025535.JPG,ISIC_0025535.JPG,false,0,keypress(z),500,326653,326653,324181,324174.00000000006,324215,326698,8,400,11,,ISIC_4842269.JPG
break,html.Screen,4_110_1,2023-10-30T22:53:31.711Z,,0,,,NaN,,,,,,false,,,,326655.00000000006,326654,,326654,,326698,8,400,,,
break_continue,html.Screen,4_110_2,2023-10-30T22:53:31.712Z,,0,,,NaN,,,,,,false,,,,326655.00000000006,326655.00000000006,,326655.00000000006,,326698,8,400,,,
sequence,flow.Sequence,4_110,2023-10-30T22:53:31.712Z,,0,,,2440.000000000058,completion,,,,,false,,,,326656,326655.00000000006,324181,324174.00000000006,324215,326698,8,400,,,
trial,html.Screen,4_111_0,2023-10-30T22:53:34.274Z,,0,3,,2552,response,ISIC_0001126.JPG,10,ISIC_8325226.JPG,ISIC_8325226.JPG,false,0,keypress(z),500,329217,329217,326665,326656,326698,329265,8,400,12,,ISIC_0001126.JPG
break,html.Screen,4_111_1,2023-10-30T22:53:34.275Z,,0,,,NaN,,,,,,false,,,,329219,329219,,329218,,329265,8,400,,,
break_continue,html.Screen,4_111_2,2023-10-30T22:53:34.276Z,,0,,,NaN,,,,,,false,,,,329219,329219,,329219,,329265,8,400,,,
sequence,flow.Sequence,4_111,2023-10-30T22:53:34.276Z,,0,,,2521,completion,,,,,false,,,,329220,329219,326665,326656,326698,329265,8,400,,,
trial,html.Screen,4_112_0,2023-10-30T22:53:37.172Z,,0,3,,2883,response,ISIC_4168757.JPG,26,ISIC_0027190.JPG,ISIC_0027190.JPG,false,0,keypress(z),500,332115,332115,329232,329220,329265,332165,8,400,13,,ISIC_4168757.JPG
break,html.Screen,4_112_1,2023-10-30T22:53:37.173Z,,0,,,NaN,,,,,,false,,,,332117,332117,,332116,,332165,8,400,,,
break_continue,html.Screen,4_112_2,2023-10-30T22:53:37.174Z,,0,,,NaN,,,,,,false,,,,332117,332117,,332117,,332165,8,400,,,
sequence,flow.Sequence,4_112,2023-10-30T22:53:37.174Z,,0,,,2852,completion,,,,,false,,,,332118,332117,329232,329220,329265,332165,8,400,,,
trial,html.Screen,4_113_0,2023-10-30T22:53:39.822Z,,0,3,,2633,response,ISIC_2565986.JPG,8,ISIC_9630931.JPG,ISIC_9630931.JPG,false,0,keypress(z),500,334765,334764,332131,332118,332165,334815,8,400,14,,ISIC_2565986.JPG
break,html.Screen,4_113_1,2023-10-30T22:53:39.823Z,,0,,,NaN,,,,,,false,,,,334766,334766,,334765,,334815,8,400,,,
break_continue,html.Screen,4_113_2,2023-10-30T22:53:39.824Z,,0,,,NaN,,,,,,false,,,,334767,334767,,334767,,334815,8,400,,,
sequence,flow.Sequence,4_113,2023-10-30T22:53:39.824Z,,0,,,2602,completion,,,,,false,,,,334767,334767,332131,332118,332165,334815,8,400,,,
trial,html.Screen,4_114_0,2023-10-30T22:53:42.814Z,,0,3,,2975,response,ISIC_2222091.JPG,28,ISIC_3926019.JPG,ISIC_3926019.JPG,false,0,keypress(z),500,337758,337757,334782,334767,334815,337798,8,400,15,,ISIC_2222091.JPG
break,html.Screen,4_114_1,2023-10-30T22:53:42.816Z,,0,,,NaN,,,,,,false,,,,337759,337759,,337758,,337798,8,400,,,
break_continue,html.Screen,4_114_2,2023-10-30T22:53:42.816Z,,0,,,NaN,,,,,,false,,,,337760,337759,,337759,,337798,8,400,,,
sequence,flow.Sequence,4_114,2023-10-30T22:53:42.817Z,,0,,,2944,completion,,,,,false,,,,337760,337759,334782,334767,334815,337798,8,400,,,
trial,html.Screen,4_115_0,2023-10-30T22:53:45.148Z,,0,3,,2326.000000000058,response,ISIC_0032709.JPG,6,ISIC_4069836.JPG,ISIC_4069836.JPG,false,0,keypress(z),500,340091,340090.00000000006,337764,337760,337798,340132,8,400,16,,ISIC_0032709.JPG
break,html.Screen,4_115_1,2023-10-30T22:53:45.149Z,,0,,,NaN,,,,,,false,,,,340093,340092,,340092,,340132,8,400,,,
break_continue,html.Screen,4_115_2,2023-10-30T22:53:45.150Z,,0,,,NaN,,,,,,false,,,,340093,340093,,340093,,340132,8,400,,,
sequence,flow.Sequence,4_115,2023-10-30T22:53:45.150Z,,0,,,2295,completion,,,,,false,,,,340093,340093,337764,337760,337798,340132,8,400,,,
trial,html.Screen,4_116_0,2023-10-30T22:53:47.468Z,,0,3,,2314,response,ISIC_6967143.JPG,12,ISIC_0071303.JPG,ISIC_0071303.JPG,false,0,keypress(z),500,342411,342411,340097,340094,340132,342447,8,400,17,,ISIC_6967143.JPG
break,html.Screen,4_116_1,2023-10-30T22:53:47.469Z,,0,,,NaN,,,,,,false,,,,342413,342412.00000000006,,342412.00000000006,,342447,8,400,,,
break_continue,html.Screen,4_116_2,2023-10-30T22:53:47.470Z,,0,,,NaN,,,,,,false,,,,342414,342413,,342413,,342447,8,400,,,
sequence,flow.Sequence,4_116,2023-10-30T22:53:47.471Z,,0,,,2281,completion,,,,,false,,,,342414,342413,340097,340094,340132,342447,8,400,,,
trial,html.Screen,4_117_0,2023-10-30T22:53:49.728Z,,0,3,,2254,response,ISIC_0054073.JPG,2,ISIC_8128335.JPG,ISIC_8128335.JPG,false,0,keypress(z),500,344671,344670,342416,342414,342447,344715,8,400,18,,ISIC_0054073.JPG
break,html.Screen,4_117_1,2023-10-30T22:53:49.729Z,,0,,,NaN,,,,,,false,,,,344672,344672,,344671,,344715,8,400,,,
break_continue,html.Screen,4_117_2,2023-10-30T22:53:49.729Z,,0,,,NaN,,,,,,false,,,,344673,344673,,344673,,344715,8,400,,,
sequence,flow.Sequence,4_117,2023-10-30T22:53:49.730Z,,0,,,2226,completion,,,,,false,,,,344673,344673,342416,342414,342447,344715,8,400,,,
trial,html.Screen,4_118_0,2023-10-30T22:53:52.131Z,,0,3,,2393,response,ISIC_9096302.JPG,21,ISIC_0012066.JPG,ISIC_9096302.JPG,false,1,keypress(m),500,347075,347074,344681,344673,344715,347115,8,400,19,,ISIC_0012066.JPG
break,html.Screen,4_118_1,2023-10-30T22:53:52.133Z,,0,,,NaN,,,,,,false,,,,347076,347076,,347075,,347115,8,400,,,
break_continue,html.Screen,4_118_2,2023-10-30T22:53:52.133Z,,0,,,NaN,,,,,,false,,,,347077,347076,,347076,,347115,8,400,,,
sequence,flow.Sequence,4_118,2023-10-30T22:53:52.133Z,,0,,,2361,completion,,,,,false,,,,347077,347076,344681,344673,344715,347115,8,400,,,
trial,html.Screen,4_119_0,2023-10-30T22:53:54.264Z,,0,3,,2126,response,ISIC_0027935.JPG,19,ISIC_0032494.JPG,ISIC_0027935.JPG,false,1,keypress(m),500,349208,349207,347081,347077,347115,349248,8,400,20,,ISIC_0032494.JPG
break,html.Screen,4_119_1,2023-10-30T22:53:54.266Z,,0,,,NaN,,,,,,false,,,,349209,349209,,349208,,349248,8,400,,,
break_continue,html.Screen,4_119_2,2023-10-30T22:53:54.266Z,,0,,,NaN,,,,,,false,,,,349210,349210,,349209,,349248,8,400,,,
sequence,flow.Sequence,4_119,2023-10-30T22:53:54.267Z,,0,,,2095,completion,,,,,false,,,,349210,349210,347081,347077,347115,349248,8,400,,,
trial,html.Screen,4_120_0,2023-10-30T22:53:56.926Z,,0,3,,2655,response,ISIC_2975580.JPG,16,ISIC_0055289.JPG,ISIC_2975580.JPG,false,1,keypress(m),500,351870,351869,349214,349210,349248,351915,8,400,21,,ISIC_0055289.JPG
break,html.Screen,4_120_1,2023-10-30T22:53:56.928Z,,0,,,NaN,,,,,,false,,,,351871,351871,,351870,,351915,8,400,,,
break_continue,html.Screen,4_120_2,2023-10-30T22:53:56.928Z,,0,,,NaN,,,,,,false,,,,351872,351871,,351871,,351915,8,400,,,
sequence,flow.Sequence,4_120,2023-10-30T22:53:56.928Z,,0,,,2623,completion,,,,,false,,,,351872,351871,349214,349210,349248,351915,8,400,,,
trial,html.Screen,4_121_0,2023-10-30T22:53:59.152Z,,0,3,,2214,response,ISIC_0558485.JPG,24,ISIC_0030183.JPG,ISIC_0558485.JPG,false,1,keypress(m),500,354096,354095,351881,351872,351915,354148,8,400,22,,ISIC_0030183.JPG
break,html.Screen,4_121_1,2023-10-30T22:53:59.154Z,,0,,,NaN,,,,,,false,,,,354097,354097,,354096,,354148,8,400,,,
break_continue,html.Screen,4_121_2,2023-10-30T22:53:59.154Z,,0,,,NaN,,,,,,false,,,,354098,354097,,354097,,354148,8,400,,,
sequence,flow.Sequence,4_121,2023-10-30T22:53:59.154Z,,0,,,2182,completion,,,,,false,,,,354098,354097,351881,351872,351915,354148,8,400,,,
trial,html.Screen,4_122_0,2023-10-30T22:54:01.966Z,,0,3,,2795,response,ISIC_5226353.JPG,18,ISIC_0894785.JPG,ISIC_5226353.JPG,false,1,keypress(m),500,356909,356909,354114,354098,354148,356948,8,400,23,,ISIC_0894785.JPG
break,html.Screen,4_122_1,2023-10-30T22:54:01.967Z,,0,,,NaN,,,,,,false,,,,356911,356910,,356910,,356948,8,400,,,
break_continue,html.Screen,4_122_2,2023-10-30T22:54:01.968Z,,0,,,NaN,,,,,,false,,,,356911,356911,,356911,,356948,8,400,,,
sequence,flow.Sequence,4_122,2023-10-30T22:54:01.968Z,,0,,,2763,completion,,,,,false,,,,356911,356911,354114,354098,354148,356948,8,400,,,
trial,html.Screen,4_123_0,2023-10-30T22:54:04.699Z,,0,3,,2727,response,ISIC_7132685.JPG,24,ISIC_0027280.JPG,ISIC_7132685.JPG,false,1,keypress(m),500,359642,359642,356915,356912.00000000006,356948,359681,8,400,24,,ISIC_0027280.JPG
break,html.Screen,4_123_1,2023-10-30T22:54:04.700Z,,0,,,NaN,,,,,,false,,,,359644,359643,,359643,,359681,8,400,,,
break_continue,html.Screen,4_123_2,2023-10-30T22:54:04.701Z,,0,,,NaN,,,,,,false,,,,359644,359644,,359644,,359681,8,400,,,
sequence,flow.Sequence,4_123,2023-10-30T22:54:04.701Z,,0,,,2696,completion,,,,,false,,,,359644,359644,356915,356912.00000000006,356948,359681,8,400,,,
trial,html.Screen,4_124_0,2023-10-30T22:54:06.877Z,,0,3,,2172,response,ISIC_5388485.JPG,21,ISIC_4453506.JPG,ISIC_5388485.JPG,false,1,keypress(m),500,361820,361819,359647,359644,359681,361881,8,400,25,,ISIC_4453506.JPG
break,html.Screen,4_124_1,2023-10-30T22:54:06.878Z,,0,,,NaN,,,,,,false,,,,361821,361821,,361820,,361881,8,400,,,
break_continue,html.Screen,4_124_2,2023-10-30T22:54:06.878Z,,0,,,NaN,,,,,,false,,,,361822,361822,,361821,,361881,8,400,,,
sequence,flow.Sequence,4_124,2023-10-30T22:54:06.879Z,,0,,,2141,completion,,,,,false,,,,361822,361822,359647,359644,359681,361881,8,400,,,
trial,html.Screen,4_125_0,2023-10-30T22:54:09.406Z,,0,3,,2501,response,ISIC_3975133.JPG,4,ISIC_5230371.JPG,ISIC_3975133.JPG,false,1,keypress(m),500,364350,364349,361848,361822,361881,364398,8,400,26,,ISIC_5230371.JPG
break,html.Screen,4_125_1,2023-10-30T22:54:09.408Z,,0,,,NaN,,,,,,false,,,,364351,364351,,364350,,364398,8,400,,,
break_continue,html.Screen,4_125_2,2023-10-30T22:54:09.408Z,,0,,,NaN,,,,,,false,,,,364351,364351,,364351,,364398,8,400,,,
sequence,flow.Sequence,4_125,2023-10-30T22:54:09.408Z,,0,,,2470,completion,,,,,false,,,,364352.00000000006,364351,361848,361822,361881,364398,8,400,,,
trial,html.Screen,4_126_0,2023-10-30T22:54:13.762Z,,0,3,,4339,response,ISIC_5675703.JPG,24,ISIC_2074764.JPG,ISIC_5675703.JPG,false,1,keypress(m),500,368705,368704,364365,364352.00000000006,364398,368748,8,400,27,,ISIC_2074764.JPG
break,html.Screen,4_126_1,2023-10-30T22:54:13.763Z,,0,,,NaN,,,,,,false,,,,368707,368706,,368706,,368748,8,400,,,
break_continue,html.Screen,4_126_2,2023-10-30T22:54:13.764Z,,0,,,NaN,,,,,,false,,,,368707,368707,,368707,,368748,8,400,,,
sequence,flow.Sequence,4_126,2023-10-30T22:54:13.764Z,,0,,,4309,completion,,,,,false,,,,368707,368707,364365,364352.00000000006,364398,368748,8,400,,,
trial,html.Screen,4_127_0,2023-10-30T22:54:20.344Z,,0,3,,6572.000000000058,response,ISIC_5347727.JPG,18,ISIC_0061265.JPG,ISIC_5347727.JPG,false,1,keypress(m),500,375288,375287.00000000006,368715,368707,368748,375331,8,400,28,,ISIC_0061265.JPG
break,html.Screen,4_127_1,2023-10-30T22:54:20.346Z,,0,,,NaN,,,,,,false,,,,375289,375289,,375288,,375331,8,400,,,
break_continue,html.Screen,4_127_2,2023-10-30T22:54:20.346Z,,0,,,NaN,,,,,,false,,,,375290,375290,,375289,,375331,8,400,,,
sequence,flow.Sequence,4_127,2023-10-30T22:54:20.347Z,,0,,,6542,completion,,,,,false,,,,375290,375290,368715,368707,368748,375331,8,400,,,
trial,html.Screen,4_128_0,2023-10-30T22:54:22.496Z,,0,3,,2141,response,ISIC_6761269.JPG,5,ISIC_2211136.JPG,ISIC_6761269.JPG,false,1,keypress(m),500,377439,377439,375298,375290,375331,377481,8,400,29,,ISIC_2211136.JPG
break,html.Screen,4_128_1,2023-10-30T22:54:22.497Z,,0,,,NaN,,,,,,false,,,,377441.00000000006,377440,,377440,,377481,8,400,,,
break_continue,html.Screen,4_128_2,2023-10-30T22:54:22.498Z,,0,,,NaN,,,,,,false,,,,377441.00000000006,377441.00000000006,,377441.00000000006,,377481,8,400,,,
sequence,flow.Sequence,4_128,2023-10-30T22:54:22.498Z,,0,,,2110.000000000058,completion,,,,,false,,,,377441.00000000006,377441.00000000006,375298,375290,375331,377481,8,400,,,
trial,html.Screen,4_129_0,2023-10-30T22:54:24.926Z,,0,3,,2422,response,ISIC_7454679.JPG,13,ISIC_0025382.JPG,ISIC_7454679.JPG,false,1,keypress(m),500,379870,379869,377447,377442,377481,379915,8,400,30,,ISIC_0025382.JPG
break,html.Screen,4_129_1,2023-10-30T22:54:24.928Z,,0,,,NaN,,,,,,false,,,,379871,379871,,379870,,379915,8,400,,,
break_continue,html.Screen,4_129_2,2023-10-30T22:54:24.929Z,,0,,,NaN,,,,,,false,,,,379872,379872,,379872,,379915,8,400,,,
sequence,flow.Sequence,4_129,2023-10-30T22:54:24.929Z,,0,,,2391,completion,,,,,false,,,,379872,379872,377447,377442,377481,379915,8,400,,,
trial,html.Screen,4_130_0,2023-10-30T22:54:27.283Z,,0,3,,2345,response,ISIC_0068897.JPG,12,ISIC_0004691.JPG,ISIC_0068897.JPG,false,1,keypress(m),500,382227.00000000006,382226,379881,379872,379915,382265,8,400,31,,ISIC_0004691.JPG
break,html.Screen,4_130_1,2023-10-30T22:54:27.284Z,,0,,,NaN,,,,,,false,,,,382227.00000000006,382227.00000000006,,382227.00000000006,,382265,8,400,,,
break_continue,html.Screen,4_130_2,2023-10-30T22:54:27.284Z,,0,,,NaN,,,,,,false,,,,382228,382227.00000000006,,382227.00000000006,,382265,8,400,,,
sequence,flow.Sequence,4_130,2023-10-30T22:54:27.284Z,,0,,,2312.000000000058,completion,,,,,false,,,,382228,382227.00000000006,379881,379872,379915,382265,8,400,,,
trial,html.Screen,4_131_0,2023-10-30T22:54:33.305Z,,0,3,,6013,response,ISIC_0031863.JPG,28,ISIC_8479104.JPG,ISIC_0031863.JPG,false,1,keypress(m),500,388248,388244,382231,382228,382265,388298,8,400,32,,ISIC_8479104.JPG
break,html.Screen,4_131_1,2023-10-30T22:54:33.312Z,,0,,,NaN,,,,,,false,,,,388255,388254,,388249,,388298,8,400,,,
break_continue,html.Screen,4_131_2,2023-10-30T22:54:33.312Z,,0,,,NaN,,,,,,false,,,,388256,388255,,388255,,388298,8,400,,,
sequence,flow.Sequence,4_131,2023-10-30T22:54:33.313Z,,0,,,5990,completion,,,,,false,,,,388256,388255,382231,382228,382265,388298,8,400,,,
trial,html.Screen,4_132_0,2023-10-30T22:54:35.868Z,,0,3,,2547.000000000058,response,ISIC_2904474.JPG,0,ISIC_5656921.JPG,ISIC_2904474.JPG,false,1,keypress(m),500,390812,390811.00000000006,388264,388256,388298,390865,8,400,33,,ISIC_5656921.JPG
break,html.Screen,4_132_1,2023-10-30T22:54:35.870Z,,0,,,NaN,,,,,,false,,,,390813,390813,,390812,,390865,8,400,,,
break_continue,html.Screen,4_132_2,2023-10-30T22:54:35.871Z,,0,,,NaN,,,,,,false,,,,390814,390814,,390814,,390865,8,400,,,
sequence,flow.Sequence,4_132,2023-10-30T22:54:35.871Z,,0,,,2516,completion,,,,,false,,,,390814,390814,388264,388256,388298,390865,8,400,,,
trial,html.Screen,4_133_0,2023-10-30T22:54:38.126Z,,0,3,,2237,response,ISIC_6588853.JPG,21,ISIC_0000295.JPG,ISIC_6588853.JPG,false,1,keypress(m),500,393069,393068,390831,390814,390865,393114,8,400,34,,ISIC_0000295.JPG
break,html.Screen,4_133_1,2023-10-30T22:54:38.127Z,,0,,,NaN,,,,,,false,,,,393071,393070,,393070,,393114,8,400,,,
break_continue,html.Screen,4_133_2,2023-10-30T22:54:38.128Z,,0,,,NaN,,,,,,false,,,,393071,393071,,393071,,393114,8,400,,,
sequence,flow.Sequence,4_133,2023-10-30T22:54:38.128Z,,0,,,2206,completion,,,,,false,,,,393071,393071,390831,390814,390865,393114,8,400,,,
trial,html.Screen,4_134_0,2023-10-30T22:54:40.777Z,,0,3,,2639,response,ISIC_4081632.JPG,13,ISIC_0012025.JPG,ISIC_4081632.JPG,false,1,keypress(m),500,395720,395720,393081,393071,393114,395764,8,400,35,,ISIC_0012025.JPG
break,html.Screen,4_134_1,2023-10-30T22:54:40.778Z,,0,,,NaN,,,,,,false,,,,395722,395721,,395721,,395764,8,400,,,
break_continue,html.Screen,4_134_2,2023-10-30T22:54:40.779Z,,0,,,NaN,,,,,,false,,,,395722,395722,,395722,,395764,8,400,,,
sequence,flow.Sequence,4_134,2023-10-30T22:54:40.779Z,,0,,,2608,completion,,,,,false,,,,395723,395722,393081,393071,393114,395764,8,400,,,
trial,html.Screen,4_135_0,2023-10-30T22:54:45.709Z,,0,3,,4921,response,ISIC_8127323.JPG,3,ISIC_0008162.JPG,ISIC_8127323.JPG,false,1,keypress(m),500,400652,400652,395731,395723,395764,400698,8,400,36,,ISIC_0008162.JPG
break,html.Screen,4_135_1,2023-10-30T22:54:45.710Z,,0,,,NaN,,,,,,false,,,,400654,400654,,400653,,400698,8,400,,,
break_continue,html.Screen,4_135_2,2023-10-30T22:54:45.711Z,,0,,,NaN,,,,,,false,,,,400654,400654,,400654,,400698,8,400,,,
sequence,flow.Sequence,4_135,2023-10-30T22:54:45.711Z,,0,,,4890,completion,,,,,false,,,,400655.00000000006,400654,395731,395723,395764,400698,8,400,,,
trial,html.Screen,4_136_0,2023-10-30T22:54:49.069Z,,0,3,,3347,response,ISIC_3072382.JPG,21,ISIC_0024756.JPG,ISIC_3072382.JPG,false,1,keypress(m),500,404012,404011,400664,400655.00000000006,400698,404064,8,400,37,,ISIC_0024756.JPG
break,html.Screen,4_136_1,2023-10-30T22:54:49.070Z,,0,,,NaN,,,,,,false,,,,404013.00000000006,404013.00000000006,,404012,,404064,8,400,,,
break_continue,html.Screen,4_136_2,2023-10-30T22:54:49.070Z,,0,,,NaN,,,,,,false,,,,404014,404014,,404014,,404064,8,400,,,
sequence,flow.Sequence,4_136,2023-10-30T22:54:49.071Z,,0,,,3316,completion,,,,,false,,,,404014,404014,400664,400655.00000000006,400698,404064,8,400,,,
trial,html.Screen,4_137_0,2023-10-30T22:54:51.459Z,,0,3,,2371,response,ISIC_1452314.JPG,20,ISIC_4527661.JPG,ISIC_1452314.JPG,false,1,keypress(m),500,406402,406402,404031,404014,404064,406448,8,400,38,,ISIC_4527661.JPG
break,html.Screen,4_137_1,2023-10-30T22:54:51.460Z,,0,,,NaN,,,,,,false,,,,406404,406404,,406403,,406448,8,400,,,
break_continue,html.Screen,4_137_2,2023-10-30T22:54:51.461Z,,0,,,NaN,,,,,,false,,,,406404,406404,,406404,,406448,8,400,,,
sequence,flow.Sequence,4_137,2023-10-30T22:54:51.461Z,,0,,,2340,completion,,,,,false,,,,406404,406404,404031,404014,404064,406448,8,400,,,
trial,html.Screen,4_138_0,2023-10-30T22:54:53.696Z,,0,3,,2224.000000000058,response,ISIC_0012099.JPG,1,ISIC_8635889.JPG,ISIC_0012099.JPG,false,1,keypress(m),500,408639,408638.00000000006,406414,406405.00000000006,406448,408681,8,400,39,,ISIC_8635889.JPG
break,html.Screen,4_138_1,2023-10-30T22:54:53.697Z,,0,,,NaN,,,,,,false,,,,408640,408640,,408639,,408681,8,400,,,
break_continue,html.Screen,4_138_2,2023-10-30T22:54:53.697Z,,0,,,NaN,,,,,,false,,,,408641,408641,,408640,,408681,8,400,,,
sequence,flow.Sequence,4_138,2023-10-30T22:54:53.698Z,,0,,,2193,completion,,,,,false,,,,408641,408641,406414,406405.00000000006,406448,408681,8,400,,,
trial,html.Screen,4_139_0,2023-10-30T22:54:56.085Z,,0,3,,2380,response,ISIC_8803600.JPG,15,ISIC_0010592.JPG,ISIC_8803600.JPG,false,1,keypress(m),500,411028,411027,408647,408641,408681,411064,8,400,40,,ISIC_0010592.JPG
break,html.Screen,4_139_1,2023-10-30T22:54:56.086Z,,0,,,NaN,,,,,,false,,,,411029,411029,,411028,,411064,8,400,,,
break_continue,html.Screen,4_139_2,2023-10-30T22:54:56.086Z,,0,,,NaN,,,,,,false,,,,411030.00000000006,411030.00000000006,,411030.00000000006,,411064,8,400,,,
sequence,flow.Sequence,4_139,2023-10-30T22:54:56.087Z,,0,,,2349.000000000058,completion,,,,,false,,,,411030.00000000006,411030.00000000006,408647,408641,408681,411064,8,400,,,
trial,html.Screen,4_140_0,2023-10-30T22:54:58.687Z,,0,3,,2596,response,ISIC_0057821.JPG,25,ISIC_0066935.JPG,ISIC_0057821.JPG,false,1,keypress(m),500,413630,413629,411033,411031,411064,413681,8,400,41,,ISIC_0066935.JPG
break,html.Screen,4_140_1,2023-10-30T22:54:58.688Z,,0,,,NaN,,,,,,false,,,,413631,413631,,413630,,413681,8,400,,,
break_continue,html.Screen,4_140_2,2023-10-30T22:54:58.689Z,,0,,,NaN,,,,,,false,,,,413632,413632,,413632,,413681,8,400,,,
sequence,flow.Sequence,4_140,2023-10-30T22:54:58.689Z,,0,,,2568,completion,,,,,false,,,,413632,413632,411033,411030.00000000006,411064,413681,8,400,,,
trial,html.Screen,4_141_0,2023-10-30T22:55:01.227Z,,0,3,,2522,response,ISIC_0031070.JPG,3,ISIC_0013792.JPG,ISIC_0031070.JPG,false,1,keypress(m),500,416171,416170,413648,413632,413681,416214,8,400,42,,ISIC_0013792.JPG
break,html.Screen,4_141_1,2023-10-30T22:55:01.229Z,,0,,,NaN,,,,,,false,,,,416172,416172,,416171,,416214,8,400,,,
break_continue,html.Screen,4_141_2,2023-10-30T22:55:01.229Z,,0,,,NaN,,,,,,false,,,,416173,416173,,416172,,416214,8,400,,,
sequence,flow.Sequence,4_141,2023-10-30T22:55:01.230Z,,0,,,2492,completion,,,,,false,,,,416173,416173,413648,413632,413681,416214,8,400,,,
trial,html.Screen,4_142_0,2023-10-30T22:55:03.510Z,,0,3,,2271,response,ISIC_9382494.JPG,12,ISIC_0028129.JPG,ISIC_9382494.JPG,false,1,keypress(m),500,418453.00000000006,418452,416181,416173,416214,418498,8,400,43,,ISIC_0028129.JPG
break,html.Screen,4_142_1,2023-10-30T22:55:03.511Z,,0,,,NaN,,,,,,false,,,,418454,418454,,418453.00000000006,,418498,8,400,,,
break_continue,html.Screen,4_142_2,2023-10-30T22:55:03.511Z,,0,,,NaN,,,,,,false,,,,418455,418455,,418454,,418498,8,400,,,
sequence,flow.Sequence,4_142,2023-10-30T22:55:03.511Z,,0,,,2241,completion,,,,,false,,,,418455,418455,416181,416173,416214,418498,8,400,,,
trial,html.Screen,4_143_0,2023-10-30T22:55:05.909Z,,0,3,,2388.000000000058,response,ISIC_0064943.JPG,11,ISIC_1781273.JPG,ISIC_0064943.JPG,false,1,keypress(m),500,420853,420852.00000000006,418464,418455,418498,420898,8,400,44,,ISIC_1781273.JPG
break,html.Screen,4_143_1,2023-10-30T22:55:05.911Z,,0,,,NaN,,,,,,false,,,,420854,420854,,420853,,420898,8,400,,,
break_continue,html.Screen,4_143_2,2023-10-30T22:55:05.911Z,,0,,,NaN,,,,,,false,,,,420855,420855,,420854,,420898,8,400,,,
sequence,flow.Sequence,4_143,2023-10-30T22:55:05.912Z,,0,,,2357,completion,,,,,false,,,,420855,420855,418464,418455,418498,420898,8,400,,,
trial,html.Screen,4_144_0,2023-10-30T22:55:07.927Z,,0,3,,2006,response,ISIC_3430447.JPG,11,ISIC_0055747.JPG,ISIC_3430447.JPG,false,1,keypress(m),500,422870,422870,420864,420855,420898,422914,8,400,45,,ISIC_0055747.JPG
break,html.Screen,4_144_1,2023-10-30T22:55:07.928Z,,0,,,NaN,,,,,,false,,,,422872,422872,,422871,,422914,8,400,,,
break_continue,html.Screen,4_144_2,2023-10-30T22:55:07.929Z,,0,,,NaN,,,,,,false,,,,422872,422872,,422872,,422914,8,400,,,
sequence,flow.Sequence,4_144,2023-10-30T22:55:07.929Z,,0,,,1974,completion,,,,,false,,,,422873,422872,420864,420855,420898,422914,8,400,,,
trial,html.Screen,4_145_0,2023-10-30T22:55:10.619Z,,0,3,,2681.000000000058,response,ISIC_0004099.JPG,3,ISIC_0347984.JPG,ISIC_0004099.JPG,false,1,keypress(m),500,425562,425561.00000000006,422880,422873,422914,425614,8,400,46,,ISIC_0347984.JPG
break,html.Screen,4_145_1,2023-10-30T22:55:10.620Z,,0,,,NaN,,,,,,false,,,,425563,425563,,425562,,425614,8,400,,,
break_continue,html.Screen,4_145_2,2023-10-30T22:55:10.620Z,,0,,,NaN,,,,,,false,,,,425564,425564,,425564,,425614,8,400,,,
sequence,flow.Sequence,4_145,2023-10-30T22:55:10.621Z,,0,,,2650,completion,,,,,false,,,,425564,425564,422880,422873,422914,425614,8,400,,,
trial,html.Screen,4_146_0,2023-10-30T22:55:12.889Z,,0,3,,2251,response,ISIC_0027836.JPG,11,ISIC_0055046.JPG,ISIC_0027836.JPG,false,1,keypress(m),500,427832,427832,425581,425564,425614,427881,8,400,47,,ISIC_0055046.JPG
break,html.Screen,4_146_1,2023-10-30T22:55:12.891Z,,0,,,NaN,,,,,,false,,,,427834,427834,,427833,,427881,8,400,,,
break_continue,html.Screen,4_146_2,2023-10-30T22:55:12.891Z,,0,,,NaN,,,,,,false,,,,427834,427834,,427834,,427881,8,400,,,
sequence,flow.Sequence,4_146,2023-10-30T22:55:12.891Z,,0,,,2220,completion,,,,,false,,,,427834,427834,425581,425564,425614,427881,8,400,,,
trial,html.Screen,4_147_0,2023-10-30T22:55:15.190Z,,0,3,,2285,response,ISIC_0069791.JPG,21,ISIC_0006727.JPG,ISIC_0069791.JPG,false,1,keypress(m),500,430133,430133,427848,427835.00000000006,427881,430181,8,400,48,,ISIC_0006727.JPG
break,html.Screen,4_147_1,2023-10-30T22:55:15.192Z,,0,,,NaN,,,,,,false,,,,430135,430135,,430134,,430181,8,400,,,
break_continue,html.Screen,4_147_2,2023-10-30T22:55:15.192Z,,0,,,NaN,,,,,,false,,,,430135,430135,,430135,,430181,8,400,,,
sequence,flow.Sequence,4_147,2023-10-30T22:55:15.192Z,,0,,,2254,completion,,,,,false,,,,430136,430135,427848,427835.00000000006,427881,430181,8,400,,,
trial,html.Screen,4_148_0,2023-10-30T22:55:17.478Z,,0,3,,2273,response,ISIC_8931948.JPG,0,ISIC_0071303.JPG,ISIC_8931948.JPG,false,1,keypress(m),500,432422,432421,430148,430136,430181,432464,8,400,49,,ISIC_0071303.JPG
break,html.Screen,4_148_1,2023-10-30T22:55:17.480Z,,0,,,NaN,,,,,,false,,,,432423,432423,,432422,,432464,8,400,,,
break_continue,html.Screen,4_148_2,2023-10-30T22:55:17.480Z,,0,,,NaN,,,,,,false,,,,432424.00000000006,432423,,432423,,432464,8,400,,,
sequence,flow.Sequence,4_148,2023-10-30T22:55:17.481Z,,0,,,2242,completion,,,,,false,,,,432424.00000000006,432423,430148,430136,430181,432464,8,400,,,
trial,html.Screen,4_149_0,2023-10-30T22:55:19.771Z,,0,3,,2283,response,ISIC_7327423.JPG,21,ISIC_9772383.JPG,ISIC_7327423.JPG,false,1,keypress(m),500,434715.00000000006,434714,432431,432424.00000000006,432464,434764,8,400,50,,ISIC_9772383.JPG
break,html.Screen,4_149_1,2023-10-30T22:55:29.805Z,,0,,,10016,timeout,,,,,false,,,,444748,444747,434731,434715.00000000006,434764,444780,8,400,,,
break_continue,html.Screen,4_149_2,2023-10-30T22:55:31.265Z,,0,,,1466,response,,,,,false,continue,keypress(Space),,446208,446213,444747,444749,444780,446247,8,400,,,
sequence,flow.Sequence,4_149,2023-10-30T22:55:31.265Z,,0,,,13749,completion,,,,,false,,,,446208,446213,432431,432424.00000000006,432464,446247,8,400,,,
trial,html.Screen,4_150_0,2023-10-30T22:55:33.556Z,,0,4,,2285,response,ISIC_8666446.JPG,8,ISIC_6487809.JPG,ISIC_8666446.JPG,false,1,keypress(m),500,448499,448499,446214,446208,446247,448548,8,400,1,,ISIC_6487809.JPG
break,html.Screen,4_150_1,2023-10-30T22:55:33.557Z,,0,,,NaN,,,,,,false,,,,448501.00000000006,448501.00000000006,,448500,,448548,8,400,,,
break_continue,html.Screen,4_150_2,2023-10-30T22:55:33.558Z,,0,,,NaN,,,,,,false,,,,448501.00000000006,448501.00000000006,,448501.00000000006,,448548,8,400,,,
sequence,flow.Sequence,4_150,2023-10-30T22:55:33.558Z,,0,,,2254.000000000058,completion,,,,,false,,,,448502,448501.00000000006,446214,446208,446247,448548,8,400,,,
trial,html.Screen,4_151_0,2023-10-30T22:55:36.286Z,,0,4,,2715,response,ISIC_0033083.JPG,24,ISIC_0029626.JPG,ISIC_0033083.JPG,false,1,keypress(m),500,451230,451229,448514,448502,448548,451281,8,400,2,,ISIC_0029626.JPG
break,html.Screen,4_151_1,2023-10-30T22:55:36.287Z,,0,,,NaN,,,,,,false,,,,451231,451230,,451230,,451281,8,400,,,
break_continue,html.Screen,4_151_2,2023-10-30T22:55:36.288Z,,0,,,NaN,,,,,,false,,,,451231,451231,,451231,,451281,8,400,,,
sequence,flow.Sequence,4_151,2023-10-30T22:55:36.288Z,,0,,,2683,completion,,,,,false,,,,451231,451231,448514,448502,448548,451281,8,400,,,
trial,html.Screen,4_152_0,2023-10-30T22:55:38.984Z,,0,4,,2679,response,ISIC_0028930.JPG,24,ISIC_9765024.JPG,ISIC_0028930.JPG,false,1,keypress(m),500,453927,453926,451247,451232,451281,453981,8,400,3,,ISIC_9765024.JPG
break,html.Screen,4_152_1,2023-10-30T22:55:38.985Z,,0,,,NaN,,,,,,false,,,,453928,453928,,453927,,453981,8,400,,,
break_continue,html.Screen,4_152_2,2023-10-30T22:55:38.986Z,,0,,,NaN,,,,,,false,,,,453929.00000000006,453929.00000000006,,453929.00000000006,,453981,8,400,,,
sequence,flow.Sequence,4_152,2023-10-30T22:55:38.986Z,,0,,,2648.000000000058,completion,,,,,false,,,,453929.00000000006,453929.00000000006,451247,451232,451281,453981,8,400,,,
trial,html.Screen,4_153_0,2023-10-30T22:55:41.682Z,,0,4,,2676,response,ISIC_9000901.JPG,26,ISIC_0056784.JPG,ISIC_9000901.JPG,false,1,keypress(m),500,456625,456624,453948,453929.00000000006,453981,456664,8,400,4,,ISIC_0056784.JPG
break,html.Screen,4_153_1,2023-10-30T22:55:41.683Z,,0,,,NaN,,,,,,false,,,,456626.00000000006,456626.00000000006,,456625,,456664,8,400,,,
break_continue,html.Screen,4_153_2,2023-10-30T22:55:41.683Z,,0,,,NaN,,,,,,false,,,,456627,456627,,456626.00000000006,,456664,8,400,,,
sequence,flow.Sequence,4_153,2023-10-30T22:55:41.684Z,,0,,,2646,completion,,,,,false,,,,456627,456627,453948,453929.00000000006,453981,456664,8,400,,,
trial,html.Screen,4_154_0,2023-10-30T22:55:44.294Z,,0,4,,2607,response,ISIC_3689759.JPG,29,ISIC_9291926.JPG,ISIC_3689759.JPG,false,1,keypress(m),500,459237,459237,456630,456627,456664,459281,8,400,5,,ISIC_9291926.JPG
break,html.Screen,4_154_1,2023-10-30T22:55:44.295Z,,0,,,NaN,,,,,,false,,,,459239.00000000006,459238,,459238,,459281,8,400,,,
break_continue,html.Screen,4_154_2,2023-10-30T22:55:44.296Z,,0,,,NaN,,,,,,false,,,,459239.00000000006,459239.00000000006,,459239.00000000006,,459281,8,400,,,
sequence,flow.Sequence,4_154,2023-10-30T22:55:44.296Z,,0,,,2575.000000000058,completion,,,,,false,,,,459239.00000000006,459239.00000000006,456630,456627,456664,459281,8,400,,,
trial,html.Screen,4_155_0,2023-10-30T22:55:46.896Z,,0,4,,2591,response,ISIC_0031561.JPG,26,ISIC_9084751.JPG,ISIC_0031561.JPG,false,1,keypress(m),500,461839,461838,459247,459240,459281,461881,8,400,6,,ISIC_9084751.JPG
break,html.Screen,4_155_1,2023-10-30T22:55:46.897Z,,0,,,NaN,,,,,,false,,,,461840.00000000006,461840.00000000006,,461839,,461881,8,400,,,
break_continue,html.Screen,4_155_2,2023-10-30T22:55:46.897Z,,0,,,NaN,,,,,,false,,,,461841,461841,,461840.00000000006,,461881,8,400,,,
sequence,flow.Sequence,4_155,2023-10-30T22:55:46.898Z,,0,,,2560,completion,,,,,false,,,,461841,461841,459247,459240,459281,461881,8,400,,,
trial,html.Screen,4_156_0,2023-10-30T22:55:49.328Z,,0,4,,2424,response,ISIC_1638436.JPG,4,ISIC_2483825.JPG,ISIC_1638436.JPG,false,1,keypress(m),500,464271,464271,461847,461841,461881,464314,8,400,7,,ISIC_2483825.JPG
break,html.Screen,4_156_1,2023-10-30T22:55:49.329Z,,0,,,NaN,,,,,,false,,,,464273,464272,,464272,,464314,8,400,,,
break_continue,html.Screen,4_156_2,2023-10-30T22:55:49.330Z,,0,,,NaN,,,,,,false,,,,464273,464273,,464273,,464314,8,400,,,
sequence,flow.Sequence,4_156,2023-10-30T22:55:49.330Z,,0,,,2392,completion,,,,,false,,,,464273,464273,461847,461841,461881,464314,8,400,,,
trial,html.Screen,4_157_0,2023-10-30T22:55:52.052Z,,0,4,,2714,response,ISIC_7271718.JPG,2,ISIC_6269543.JPG,ISIC_7271718.JPG,false,1,keypress(m),500,466995,466995,464281,464273,464314,467047,8,400,8,,ISIC_6269543.JPG
break,html.Screen,4_157_1,2023-10-30T22:55:52.054Z,,0,,,NaN,,,,,,false,,,,466997,466997,,466996.00000000006,,467047,8,400,,,
break_continue,html.Screen,4_157_2,2023-10-30T22:55:52.054Z,,0,,,NaN,,,,,,false,,,,466997,466997,,466997,,467047,8,400,,,
sequence,flow.Sequence,4_157,2023-10-30T22:55:52.054Z,,0,,,2683,completion,,,,,false,,,,466998,466997,464281,464273,464314,467047,8,400,,,
trial,html.Screen,4_158_0,2023-10-30T22:55:54.583Z,,0,4,,2512,response,ISIC_0028847.JPG,8,ISIC_2987579.JPG,ISIC_0028847.JPG,false,1,keypress(m),500,469526,469526,467014,466998,467047,469563,8,400,9,,ISIC_2987579.JPG
break,html.Screen,4_158_1,2023-10-30T22:55:54.584Z,,0,,,NaN,,,,,,false,,,,469528,469527,,469527,,469563,8,400,,,
