sender,sender_type,sender_id,timestamp,meta,,blockNo,condition,duration,ended_on,img_left,img_reveal,img_right,loser,practice,response,response_action,selection_duration,time_commit,time_end,time_render,time_run,time_show,time_switch,total_blocks,total_trials,trialNo,url,winner
informed_consent,html.Screen,0,2023-11-01T16:20:32.081Z,"{""labjs_version"":""20.2.4"",""labjs_build"":{""flavor"":""production"",""commit"":""f5b4a49f956347addd546a832a3327688c2c0fef""},""location"":""https://run.pavlovia.org/MurrayBennett/melanoma-2afc/?participant=66723&platform=sona"",""userAgent"":""Mozilla/5.0 (Macintosh; Intel Mac OS X 10_15_7) AppleWebKit/537.36 (KHTML, like Gecko) Chrome/118.0.0.0 Safari/537.36"",""platform"":""MacIntel"",""language"":""en-US"",""locale"":""en-US"",""timeZone"":""America/Chicago"",""timezoneOffset"":300,""screen_width"":1470,""screen_height"":956,""scroll_width"":1405,""scroll_height"":721,""window_innerWidth"":1405,""window_innerHeight"":769,""devicePixelRatio"":2}",,,,4102.732,response,,,,,,consent,click button,,5750.699999988079,5747,1527.606,1644.5999999940395,1644.268,5761.264,,,,"{""participant"":""66723"",""platform"":""sona""}",
Welcome,html.Screen,1,2023-11-01T16:21:02.677Z,,,,asymmetry,30583.43599998808,response,,,,,,continue,click button,,36347,36344.69999998808,5744.598,5750.9000000059605,5761.264,36361.258,,,,,
trial,html.Screen,2_0_0,2023-11-01T16:21:10.477Z,,0,0,,7784.741999999998,response,ISIC_0069348.JPG,,ISIC_6997061.JPG,ISIC_0069348.JPG,true,1,keypress(m),500,44146.59999999404,44146,36344.592,36347.40000000596,36361.258,44160.946,1,6,1,,ISIC_6997061.JPG
sequence,flow.Sequence,2_0,2023-11-01T16:21:10.478Z,,0,,,7784.741999999998,completion,,,,,true,,,,44147.19999998808,44146,36344.592,36347.40000000596,36361.258,44160.946,1,6,,,
trial,html.Screen,2_1_0,2023-11-01T16:21:14.819Z,,0,0,,4327.053999999996,response,ISIC_0009529.JPG,,ISIC_0057368.JPG,ISIC_0057368.JPG,true,0,keypress(z),500,48488.5,48488,44144.28,44147.30000001192,44160.946,48494.557,1,6,2,,ISIC_0009529.JPG
sequence,flow.Sequence,2_1,2023-11-01T16:21:14.819Z,,0,,,4327.053999999996,completion,,,,,true,,,,48489,48488,44144.28,44147.30000001192,44160.946,48494.557,1,6,,,
trial,html.Screen,2_2_0,2023-11-01T16:21:22.955Z,,0,0,,8129.942999999999,response,ISIC_9758671.JPG,,ISIC_0064954.JPG,ISIC_9758671.JPG,true,1,keypress(m),500,56625.09999999404,56624.5,48477.891,48489.19999998808,48494.557,56627.732,1,6,3,,ISIC_0064954.JPG
sequence,flow.Sequence,2_2,2023-11-01T16:21:22.956Z,,0,,,8129.942999999999,completion,,,,,true,,,,56625.5,56624.5,48477.891,48489,48494.557,56627.732,1,6,,,
trial,html.Screen,2_3_0,2023-11-01T16:21:33.505Z,,0,0,,10546.068000011917,response,ISIC_0005785.JPG,,ISIC_0000080.JPG,ISIC_0000080.JPG,true,0,keypress(z),500,67174.30000001192,67173.80000001192,56611.066,56625.69999998808,56627.732,67177.612,1,6,4,,ISIC_0005785.JPG
sequence,flow.Sequence,2_3,2023-11-01T16:21:33.505Z,,0,,,10546.068000011917,completion,,,,,true,,,,67174.90000000596,67173.80000001192,56611.066,56625.69999998808,56627.732,67177.612,1,6,,,
trial,html.Screen,2_4_0,2023-11-01T16:21:37.703Z,,0,0,,4194.487999994046,response,ISIC_5390060.JPG,,ISIC_7944028.JPG,ISIC_7944028.JPG,true,0,keypress(z),500,71372.59999999404,71372.09999999404,67160.946,67175.09999999404,67177.612,71377.444,1,6,5,,ISIC_5390060.JPG
sequence,flow.Sequence,2_4,2023-11-01T16:21:37.703Z,,0,,,4194.487999994046,completion,,,,,true,,,,71373.09999999404,71372.09999999404,67160.946,67175.09999999404,67177.612,71377.444,1,6,,,
trial,html.Screen,2_5_0,2023-11-01T16:21:42.140Z,,0,0,,4431.755999988076,response,ISIC_0794216.JPG,,ISIC_0010188.JPG,ISIC_0794216.JPG,true,1,keypress(m),500,75809.69999998808,75809.19999998808,71360.778,71373.30000001192,71377.444,75827.266,1,6,6,,ISIC_0010188.JPG
sequence,flow.Sequence,2_5,2023-11-01T16:21:42.140Z,,0,,,4431.755999988076,completion,,,,,true,,,,75810.09999999404,75809.19999998808,71360.778,71373.19999998808,71377.444,75827.266,1,6,,,
loop,flow.Loop,2,2023-11-01T16:21:42.141Z,,,,,39447.94199998808,completion,,,,,true,,,,75810.30000001192,75809.19999998808,36344.592,36347.30000001192,36361.258,75827.266,1,6,,,
exp_instructions,html.Screen,3,2023-11-01T16:21:45.276Z,,,,,3112.5340000119177,response,,,,,,continue,keypress(Space),,78945.90000000596,78939.80000001192,75810.6,75810.5,75827.266,78960.474,,,,,
trial,html.Screen,4_0_0,2023-11-01T16:21:55.927Z,,0,1,,10635.426000005958,response,ISIC_8451869.JPG,8,ISIC_3556039.JPG,ISIC_3556039.JPG,false,0,keypress(z),500,89596.40000000596,89595.90000000596,78943.808,78946.30000001192,78960.474,89610.887,8,400,1,,ISIC_8451869.JPG
break,html.Screen,4_0_1,2023-11-01T16:21:55.928Z,,0,,,NaN,,,,,,false,,,,89597.69999998808,89597.40000000596,,89596.69999998808,,89610.887,8,400,,,
break_continue,html.Screen,4_0_2,2023-11-01T16:21:55.929Z,,0,,,NaN,,,,,,false,,,,89598.19999998808,89598.09999999404,,89597.90000000596,,89610.887,8,400,,,
sequence,flow.Sequence,4_0,2023-11-01T16:21:55.929Z,,0,,,10637.625999994038,completion,,,,,false,,,,89598.40000000596,89598.09999999404,78943.808,78946.19999998808,78960.474,89610.887,8,400,,,
trial,html.Screen,4_1_0,2023-11-01T16:22:01.684Z,,0,1,,5742.513000005958,response,ISIC_0013491.JPG,7,ISIC_0678758.JPG,ISIC_0678758.JPG,false,0,keypress(z),500,95353.80000001192,95353.40000000596,89594.221,89598.5,89610.887,95360.657,8,400,2,,ISIC_0013491.JPG
break,html.Screen,4_1_1,2023-11-01T16:22:01.685Z,,0,,,NaN,,,,,,false,,,,95354.80000001192,95354.59999999404,,95354.09999999404,,95360.657,8,400,,,
break_continue,html.Screen,4_1_2,2023-11-01T16:22:01.685Z,,0,,,NaN,,,,,,false,,,,95355.09999999404,95355,,95354.90000000596,,95360.657,8,400,,,
sequence,flow.Sequence,4_1,2023-11-01T16:22:01.686Z,,0,,,5744.112999999998,completion,,,,,false,,,,95355.30000001192,95355,89594.221,89598.5,89610.887,95360.657,8,400,,,
trial,html.Screen,4_2_0,2023-11-01T16:22:10.010Z,,0,1,,8318.342999999993,response,ISIC_3416324.JPG,7,ISIC_0028003.JPG,ISIC_0028003.JPG,false,0,keypress(z),500,103679.40000000596,103679,95343.991,95355.40000000596,95360.657,103694.274,8,400,3,,ISIC_3416324.JPG
break,html.Screen,4_2_1,2023-11-01T16:22:10.011Z,,0,,,NaN,,,,,,false,,,,103680.40000000596,103680.19999998808,,103679.80000001192,,103694.274,8,400,,,
break_continue,html.Screen,4_2_2,2023-11-01T16:22:10.011Z,,0,,,NaN,,,,,,false,,,,103680.80000001192,103680.69999998808,,103680.5,,103694.274,8,400,,,
sequence,flow.Sequence,4_2,2023-11-01T16:22:10.011Z,,0,,,8320.042999988073,completion,,,,,false,,,,103681,103680.69999998808,95343.991,95355.30000001192,95360.657,103694.274,8,400,,,
trial,html.Screen,4_3_0,2023-11-01T16:22:16.993Z,,0,1,,6967.825999994035,response,ISIC_6356149.JPG,8,ISIC_1745731.JPG,ISIC_6356149.JPG,false,1,keypress(m),500,110662.59999999404,110662.09999999404,103677.608,103681.09999999404,103694.274,110677.827,8,400,4,,ISIC_1745731.JPG
break,html.Screen,4_3_1,2023-11-01T16:22:16.994Z,,0,,,NaN,,,,,,false,,,,110663.59999999404,110663.30000001192,,110662.80000001192,,110677.827,8,400,,,
break_continue,html.Screen,4_3_2,2023-11-01T16:22:16.994Z,,0,,,NaN,,,,,,false,,,,110663.90000000596,110663.90000000596,,110663.59999999404,,110677.827,8,400,,,
sequence,flow.Sequence,4_3,2023-11-01T16:22:16.994Z,,0,,,6969.626000005956,completion,,,,,false,,,,110664.09999999404,110663.90000000596,103677.608,103681,103694.274,110677.827,8,400,,,
trial,html.Screen,4_4_0,2023-11-01T16:22:22.648Z,,0,1,,5639.473000011916,response,ISIC_1342117.JPG,7,ISIC_0904712.JPG,ISIC_1342117.JPG,false,1,keypress(m),500,116317.69999998808,116317.30000001192,110661.161,110664.19999998808,110677.827,116327.601,8,400,5,,ISIC_0904712.JPG
break,html.Screen,4_4_1,2023-11-01T16:22:22.649Z,,0,,,NaN,,,,,,false,,,,116318.69999998808,116318.5,,116318,,116327.601,8,400,,,
break_continue,html.Screen,4_4_2,2023-11-01T16:22:22.649Z,,0,,,NaN,,,,,,false,,,,116319,116319,,116318.80000001192,,116327.601,8,400,,,
sequence,flow.Sequence,4_4,2023-11-01T16:22:22.649Z,,0,,,5641.172999999995,completion,,,,,false,,,,116319.19999998808,116319,110661.161,110664.19999998808,110677.827,116327.601,8,400,,,
trial,html.Screen,4_5_0,2023-11-01T16:22:28.270Z,,0,1,,5611.998999994044,response,ISIC_0072631.JPG,8,ISIC_5101111.JPG,ISIC_5101111.JPG,false,0,keypress(z),500,121939.90000000596,121939.59999999404,116310.935,116319.30000001192,116327.601,121944.332,8,400,6,,ISIC_0072631.JPG
break,html.Screen,4_5_1,2023-11-01T16:22:28.271Z,,0,,,NaN,,,,,,false,,,,121941,121940.80000001192,,121940.30000001192,,121944.332,8,400,,,
break_continue,html.Screen,4_5_2,2023-11-01T16:22:28.272Z,,0,,,NaN,,,,,,false,,,,121941.30000001192,121941.19999998808,,121941.09999999404,,121944.332,8,400,,,
sequence,flow.Sequence,4_5,2023-11-01T16:22:28.272Z,,0,,,5613.598999988084,completion,,,,,false,,,,121941.5,121941.19999998808,116310.935,116319.30000001192,116327.601,121944.332,8,400,,,
trial,html.Screen,4_6_0,2023-11-01T16:22:31.766Z,,0,1,,3490.867999988084,response,ISIC_0610477.JPG,5,ISIC_0030852.JPG,ISIC_0610477.JPG,false,1,keypress(m),500,125435.69999998808,125435.19999998808,121927.666,121941.59999999404,121944.332,125444.192,8,400,7,,ISIC_0030852.JPG
break,html.Screen,4_6_1,2023-11-01T16:22:31.767Z,,0,,,NaN,,,,,,false,,,,125436.69999998808,125436.5,,125435.90000000596,,125444.192,8,400,,,
break_continue,html.Screen,4_6_2,2023-11-01T16:22:31.767Z,,0,,,NaN,,,,,,false,,,,125437.09999999404,125436.90000000596,,125436.80000001192,,125444.192,8,400,,,
sequence,flow.Sequence,4_6,2023-11-01T16:22:31.767Z,,0,,,3492.5680000059656,completion,,,,,false,,,,125437.19999998808,125436.90000000596,121927.666,121941.5,121944.332,125444.192,8,400,,,
trial,html.Screen,4_7_0,2023-11-01T16:22:36.380Z,,0,1,,4605.6080000119255,response,ISIC_0064066.JPG,8,ISIC_9412963.JPG,ISIC_9412963.JPG,false,0,keypress(z),500,130050.19999998808,130049.80000001192,125427.526,125437.30000001192,125444.192,130060.674,8,400,8,,ISIC_0064066.JPG
break,html.Screen,4_7_1,2023-11-01T16:22:36.381Z,,0,,,NaN,,,,,,false,,,,130051.30000001192,130051,,130050.5,,130060.674,8,400,,,
break_continue,html.Screen,4_7_2,2023-11-01T16:22:36.382Z,,0,,,NaN,,,,,,false,,,,130051.5,130051.40000000596,,130051.30000001192,,130060.674,8,400,,,
sequence,flow.Sequence,4_7,2023-11-01T16:22:36.382Z,,0,,,4607.208000005965,completion,,,,,false,,,,130051.69999998808,130051.40000000596,125427.526,125437.30000001192,125444.192,130060.674,8,400,,,
trial,html.Screen,4_8_0,2023-11-01T16:22:39.747Z,,0,1,,3355.7260000059614,response,ISIC_9923630.JPG,7,ISIC_0011994.JPG,ISIC_9923630.JPG,false,1,keypress(m),500,133416.69999998808,133416.40000000596,130044.008,130051.80000001192,130060.674,133427.704,8,400,9,,ISIC_0011994.JPG
break,html.Screen,4_8_1,2023-11-01T16:22:39.748Z,,0,,,NaN,,,,,,false,,,,133417.80000001192,133417.5,,133417.09999999404,,133427.704,8,400,,,
break_continue,html.Screen,4_8_2,2023-11-01T16:22:39.748Z,,0,,,NaN,,,,,,false,,,,133418.09999999404,133418,,133417.90000000596,,133427.704,8,400,,,
sequence,flow.Sequence,4_8,2023-11-01T16:22:39.749Z,,0,,,3357.326000000001,completion,,,,,false,,,,133418.30000001192,133418,130044.008,130051.80000001192,130060.674,133427.704,8,400,,,
trial,html.Screen,4_9_0,2023-11-01T16:22:46.186Z,,0,1,,6427.796000000002,response,ISIC_0272509.JPG,7,ISIC_0026103.JPG,ISIC_0026103.JPG,false,0,keypress(z),500,139855.90000000596,139855.5,133411.038,133418.40000000596,133427.704,139860.78,8,400,10,,ISIC_0272509.JPG
break,html.Screen,4_9_1,2023-11-01T16:22:46.187Z,,0,,,NaN,,,,,,false,,,,139856.90000000596,139856.69999998808,,139856.19999998808,,139860.78,8,400,,,
break_continue,html.Screen,4_9_2,2023-11-01T16:22:46.188Z,,0,,,NaN,,,,,,false,,,,139857.19999998808,139857.09999999404,,139857,,139860.78,8,400,,,
sequence,flow.Sequence,4_9,2023-11-01T16:22:46.188Z,,0,,,6429.395999994042,completion,,,,,false,,,,139857.5,139857.09999999404,133411.038,133418.40000000596,133427.704,139860.78,8,400,,,
trial,html.Screen,4_10_0,2023-11-01T16:22:57.662Z,,0,1,,11470.41999998808,response,ISIC_0024802.JPG,7,ISIC_3253098.JPG,ISIC_3253098.JPG,false,0,keypress(z),500,151331.59999999404,151331.19999998808,139844.114,139857.5,139860.78,151360.707,8,400,11,,ISIC_0024802.JPG
break,html.Screen,4_10_1,2023-11-01T16:22:57.663Z,,0,,,NaN,,,,,,false,,,,151332.40000000596,151332.19999998808,,151331.80000001192,,151360.707,8,400,,,
break_continue,html.Screen,4_10_2,2023-11-01T16:22:57.663Z,,0,,,NaN,,,,,,false,,,,151332.69999998808,151332.59999999404,,151332.59999999404,,151360.707,8,400,,,
sequence,flow.Sequence,4_10,2023-11-01T16:22:57.663Z,,0,,,11471.81999999404,completion,,,,,false,,,,151332.69999998808,151332.59999999404,139844.114,139857.5,139860.78,151360.707,8,400,,,
trial,html.Screen,4_11_0,2023-11-01T16:23:01.571Z,,0,1,,3879.093000011926,response,ISIC_0010915.JPG,8,ISIC_0065341.JPG,ISIC_0010915.JPG,false,1,keypress(m),500,155240.30000001192,155239.80000001192,151344.041,151332.80000001192,151360.707,155244.298,8,400,12,,ISIC_0065341.JPG
break,html.Screen,4_11_1,2023-11-01T16:23:01.572Z,,0,,,NaN,,,,,,false,,,,155241.30000001192,155241.09999999404,,155240.59999999404,,155244.298,8,400,,,
break_continue,html.Screen,4_11_2,2023-11-01T16:23:01.572Z,,0,,,NaN,,,,,,false,,,,155241.59999999404,155241.59999999404,,155241.40000000596,,155244.298,8,400,,,
sequence,flow.Sequence,4_11,2023-11-01T16:23:01.572Z,,0,,,3880.8929999940447,completion,,,,,false,,,,155241.80000001192,155241.59999999404,151344.041,151332.80000001192,151360.707,155244.298,8,400,,,
trial,html.Screen,4_12_0,2023-11-01T16:23:06.425Z,,0,1,,4850.102000005951,response,ISIC_2980578.JPG,6,ISIC_5584185.JPG,ISIC_5584185.JPG,false,0,keypress(z),500,160094.90000000596,160094.40000000596,155227.632,155241.90000000596,155244.298,160110.77,8,400,13,,ISIC_2980578.JPG
break,html.Screen,4_12_1,2023-11-01T16:23:06.426Z,,0,,,NaN,,,,,,false,,,,160095.90000000596,160095.59999999404,,160095.09999999404,,160110.77,8,400,,,
break_continue,html.Screen,4_12_2,2023-11-01T16:23:06.426Z,,0,,,NaN,,,,,,false,,,,160096.19999998808,160096.09999999404,,160096,,160110.77,8,400,,,
sequence,flow.Sequence,4_12,2023-11-01T16:23:06.427Z,,0,,,4851.80199999403,completion,,,,,false,,,,160096.30000001192,160096.09999999404,155227.632,155241.90000000596,155244.298,160110.77,8,400,,,
trial,html.Screen,4_13_0,2023-11-01T16:23:10.831Z,,0,1,,4388.7300000000105,response,ISIC_0033211.JPG,6,ISIC_0032342.JPG,ISIC_0032342.JPG,false,0,keypress(z),500,164501.09999999404,164499.5,160094.104,160096.5,160110.77,164510.991,8,400,14,,ISIC_0033211.JPG
break,html.Screen,4_13_1,2023-11-01T16:23:10.832Z,,0,,,NaN,,,,,,false,,,,164501.90000000596,164501.80000001192,,164501.40000000596,,164510.991,8,400,,,
break_continue,html.Screen,4_13_2,2023-11-01T16:23:10.832Z,,0,,,NaN,,,,,,false,,,,164502.19999998808,164502.09999999404,,164502.09999999404,,164510.991,8,400,,,
sequence,flow.Sequence,4_13,2023-11-01T16:23:10.832Z,,0,,,4391.32999999405,completion,,,,,false,,,,164502.19999998808,164502.09999999404,160094.104,160096.40000000596,160110.77,164510.991,8,400,,,
trial,html.Screen,4_14_0,2023-11-01T16:23:14.474Z,,0,1,,3632.1089999940305,response,ISIC_1423737.JPG,8,ISIC_0016033.JPG,ISIC_0016033.JPG,false,0,keypress(z),500,168143.40000000596,168143.09999999404,164494.325,164502.30000001192,164510.991,168144.179,8,400,15,,ISIC_1423737.JPG
break,html.Screen,4_14_1,2023-11-01T16:23:14.475Z,,0,,,NaN,,,,,,false,,,,168144.30000001192,168144.09999999404,,168143.59999999404,,168144.179,8,400,,,
break_continue,html.Screen,4_14_2,2023-11-01T16:23:14.475Z,,0,,,NaN,,,,,,false,,,,168144.80000001192,168144.59999999404,,168144.5,,168144.179,8,400,,,
sequence,flow.Sequence,4_14,2023-11-01T16:23:14.475Z,,0,,,3633.6089999940305,completion,,,,,false,,,,168145,168144.59999999404,164494.325,164502.30000001192,164510.991,168144.179,8,400,,,
trial,html.Screen,4_15_0,2023-11-01T16:23:21.169Z,,0,1,,6694.121000011917,response,ISIC_7914631.JPG,8,ISIC_0239178.JPG,ISIC_0239178.JPG,false,0,keypress(z),500,174838.69999998808,174838.30000001192,168127.513,168145.09999999404,168144.179,174844.299,8,400,16,,ISIC_7914631.JPG
break,html.Screen,4_15_1,2023-11-01T16:23:21.170Z,,0,,,NaN,,,,,,false,,,,174839.69999998808,174839.5,,174839.09999999404,,174844.299,8,400,,,
break_continue,html.Screen,4_15_2,2023-11-01T16:23:21.170Z,,0,,,NaN,,,,,,false,,,,174840,174839.90000000596,,174839.80000001192,,174844.299,8,400,,,
sequence,flow.Sequence,4_15,2023-11-01T16:23:21.170Z,,0,,,6695.721000005957,completion,,,,,false,,,,174840.19999998808,174839.90000000596,168127.513,168145.09999999404,168144.179,174844.299,8,400,,,
trial,html.Screen,4_16_0,2023-11-01T16:23:27.927Z,,0,1,,6752.201000000001,response,ISIC_0668772.JPG,8,ISIC_3898738.JPG,ISIC_3898738.JPG,false,0,keypress(z),500,181596.90000000596,181596.5,174827.633,174840.30000001192,174844.299,181610.695,8,400,17,,ISIC_0668772.JPG
break,html.Screen,4_16_1,2023-11-01T16:23:27.928Z,,0,,,NaN,,,,,,false,,,,181597.80000001192,181597.59999999404,,181597.09999999404,,181610.695,8,400,,,
break_continue,html.Screen,4_16_2,2023-11-01T16:23:27.928Z,,0,,,NaN,,,,,,false,,,,181598.09999999404,181598,,181597.80000001192,,181610.695,8,400,,,
sequence,flow.Sequence,4_16,2023-11-01T16:23:27.929Z,,0,,,6753.701000000001,completion,,,,,false,,,,181598.30000001192,181598,174827.633,174840.19999998808,174844.299,181610.695,8,400,,,
trial,html.Screen,4_17_0,2023-11-01T16:23:31.441Z,,0,1,,3499.504999988072,response,ISIC_0027265.JPG,7,ISIC_0027072.JPG,ISIC_0027265.JPG,false,1,keypress(m),500,185110.5,185110.19999998808,181594.029,181598.5,181610.695,185127.593,8,400,18,,ISIC_0027072.JPG
break,html.Screen,4_17_1,2023-11-01T16:23:31.442Z,,0,,,NaN,,,,,,false,,,,185111.40000000596,185111.30000001192,,185110.80000001192,,185127.593,8,400,,,
break_continue,html.Screen,4_17_2,2023-11-01T16:23:31.442Z,,0,,,NaN,,,,,,false,,,,185111.80000001192,185111.69999998808,,185111.5,,185127.593,8,400,,,
sequence,flow.Sequence,4_17,2023-11-01T16:23:31.442Z,,0,,,3501.004999988072,completion,,,,,false,,,,185111.90000000596,185111.69999998808,181594.029,181598.40000000596,181610.695,185127.593,8,400,,,
trial,html.Screen,4_18_0,2023-11-01T16:23:40.983Z,,0,1,,9525.006999994046,response,ISIC_1069587.JPG,9,ISIC_0011630.JPG,ISIC_0011630.JPG,false,0,keypress(z),500,194653,194652.59999999404,185110.927,185112,185127.593,194660.545,8,400,19,,ISIC_1069587.JPG
break,html.Screen,4_18_1,2023-11-01T16:23:40.984Z,,0,,,NaN,,,,,,false,,,,194653.80000001192,194653.69999998808,,194653.19999998808,,194660.545,8,400,,,
break_continue,html.Screen,4_18_2,2023-11-01T16:23:40.984Z,,0,,,NaN,,,,,,false,,,,194654.19999998808,194654.09999999404,,194653.90000000596,,194660.545,8,400,,,
sequence,flow.Sequence,4_18,2023-11-01T16:23:40.985Z,,0,,,9526.506999994046,completion,,,,,false,,,,194654.30000001192,194654.09999999404,185110.927,185112,185127.593,194660.545,8,400,,,
trial,html.Screen,4_19_0,2023-11-01T16:23:44.877Z,,0,1,,3886.1549999880663,response,ISIC_0033508.JPG,8,ISIC_0034316.JPG,ISIC_0033508.JPG,false,1,keypress(m),500,198547.09999999404,198546.69999998808,194643.879,194654.5,194660.545,198560.803,8,400,20,,ISIC_0034316.JPG
break,html.Screen,4_19_1,2023-11-01T16:23:44.878Z,,0,,,NaN,,,,,,false,,,,198548.09999999404,198547.90000000596,,198547.40000000596,,198560.803,8,400,,,
break_continue,html.Screen,4_19_2,2023-11-01T16:23:44.879Z,,0,,,NaN,,,,,,false,,,,198548.40000000596,198548.19999998808,,198548.19999998808,,198560.803,8,400,,,
sequence,flow.Sequence,4_19,2023-11-01T16:23:44.879Z,,0,,,3887.6549999880663,completion,,,,,false,,,,198548.5,198548.19999998808,194643.879,194654.5,194660.545,198560.803,8,400,,,
trial,html.Screen,4_20_0,2023-11-01T16:23:50.355Z,,0,1,,5463.896999988065,response,ISIC_5835765.JPG,7,ISIC_7430054.JPG,ISIC_7430054.JPG,false,0,keypress(z),500,204025.09999999404,204024.69999998808,198544.137,198548.69999998808,198560.803,204027.251,8,400,21,,ISIC_5835765.JPG
break,html.Screen,4_20_1,2023-11-01T16:23:50.356Z,,0,,,NaN,,,,,,false,,,,204026,204025.80000001192,,204025.30000001192,,204027.251,8,400,,,
break_continue,html.Screen,4_20_2,2023-11-01T16:23:50.357Z,,0,,,NaN,,,,,,false,,,,204026.30000001192,204026.30000001192,,204026.09999999404,,204027.251,8,400,,,
sequence,flow.Sequence,4_20,2023-11-01T16:23:50.357Z,,0,,,5465.4970000119065,completion,,,,,false,,,,204026.5,204026.30000001192,198544.137,198548.69999998808,198560.803,204027.251,8,400,,,
trial,html.Screen,4_21_0,2023-11-01T16:23:54.697Z,,0,1,,4338.649000005971,response,ISIC_0011947.JPG,7,ISIC_7404937.JPG,ISIC_7404937.JPG,false,0,keypress(z),500,208366.30000001192,208365.90000000596,204010.585,204026.59999999404,204027.251,208377.45,8,400,22,,ISIC_0011947.JPG
break,html.Screen,4_21_1,2023-11-01T16:23:54.697Z,,0,,,NaN,,,,,,false,,,,208367.19999998808,208367.09999999404,,208366.59999999404,,208377.45,8,400,,,
break_continue,html.Screen,4_21_2,2023-11-01T16:23:54.698Z,,0,,,NaN,,,,,,false,,,,208367.59999999404,208367.5,,208367.40000000596,,208377.45,8,400,,,
sequence,flow.Sequence,4_21,2023-11-01T16:23:54.698Z,,0,,,4340.249000000011,completion,,,,,false,,,,208367.69999998808,208367.5,204010.585,204026.59999999404,204027.251,208377.45,8,400,,,
trial,html.Screen,4_22_0,2023-11-01T16:24:00.143Z,,0,1,,5435.149999994028,response,ISIC_9782083.JPG,5,ISIC_0069996.JPG,ISIC_0069996.JPG,false,0,keypress(z),500,213813,213812.59999999404,208360.784,208367.90000000596,208377.45,213827.232,8,400,23,,ISIC_9782083.JPG
break,html.Screen,4_22_1,2023-11-01T16:24:00.144Z,,0,,,NaN,,,,,,false,,,,213813.90000000596,213813.69999998808,,213813.30000001192,,213827.232,8,400,,,
break_continue,html.Screen,4_22_2,2023-11-01T16:24:00.144Z,,0,,,NaN,,,,,,false,,,,213814.19999998808,213814.09999999404,,213814,,213827.232,8,400,,,
sequence,flow.Sequence,4_22,2023-11-01T16:24:00.146Z,,0,,,5436.649999994028,completion,,,,,false,,,,213815.30000001192,213814.09999999404,208360.784,208367.80000001192,208377.45,213827.232,8,400,,,
trial,html.Screen,4_23_0,2023-11-01T16:24:06.358Z,,0,1,,6200.568000011932,response,ISIC_0024686.JPG,6,ISIC_9874512.JPG,ISIC_9874512.JPG,false,0,keypress(z),500,220028.09999999404,220027.80000001192,213810.566,213815.40000000596,213827.232,220044.056,8,400,24,,ISIC_0024686.JPG
break,html.Screen,4_23_1,2023-11-01T16:24:06.359Z,,0,,,NaN,,,,,,false,,,,220029,220028.90000000596,,220028.40000000596,,220044.056,8,400,,,
break_continue,html.Screen,4_23_2,2023-11-01T16:24:06.360Z,,0,,,NaN,,,,,,false,,,,220029.5,220029.30000001192,,220029.19999998808,,220044.056,8,400,,,
sequence,flow.Sequence,4_23,2023-11-01T16:24:06.360Z,,0,,,6202.068000011932,completion,,,,,false,,,,220029.59999999404,220029.30000001192,213810.566,213815.40000000596,213827.232,220044.056,8,400,,,
trial,html.Screen,4_24_0,2023-11-01T16:24:09.789Z,,0,1,,3414.043999994028,response,ISIC_2272218.JPG,7,ISIC_0046305.JPG,ISIC_0046305.JPG,false,0,keypress(z),500,223458.5,223458.09999999404,220027.39,220029.80000001192,220044.056,223460.586,8,400,25,,ISIC_2272218.JPG
break,html.Screen,4_24_1,2023-11-01T16:24:09.790Z,,0,,,NaN,,,,,,false,,,,223459.5,223459.30000001192,,223458.80000001192,,223460.586,8,400,,,
break_continue,html.Screen,4_24_2,2023-11-01T16:24:09.790Z,,0,,,NaN,,,,,,false,,,,223459.69999998808,223459.59999999404,,223459.59999999404,,223460.586,8,400,,,
sequence,flow.Sequence,4_24,2023-11-01T16:24:09.790Z,,0,,,3415.543999994028,completion,,,,,false,,,,223459.90000000596,223459.59999999404,220027.39,220029.80000001192,220044.056,223460.586,8,400,,,
trial,html.Screen,4_25_0,2023-11-01T16:24:15.651Z,,0,1,,5859.31400000595,response,ISIC_0058033.JPG,8,ISIC_0011501.JPG,ISIC_0058033.JPG,false,1,keypress(m),500,229320.30000001192,229319.90000000596,223443.92,223460.09999999404,223460.586,229327.543,8,400,26,,ISIC_0011501.JPG
break,html.Screen,4_25_1,2023-11-01T16:24:15.651Z,,0,,,NaN,,,,,,false,,,,229321.30000001192,229321.09999999404,,229320.69999998808,,229327.543,8,400,,,
break_continue,html.Screen,4_25_2,2023-11-01T16:24:15.652Z,,0,,,NaN,,,,,,false,,,,229321.59999999404,229321.5,,229321.40000000596,,229327.543,8,400,,,
sequence,flow.Sequence,4_25,2023-11-01T16:24:15.652Z,,0,,,5860.91399999999,completion,,,,,false,,,,229321.80000001192,229321.5,223443.92,223460,223460.586,229327.543,8,400,,,
trial,html.Screen,4_26_0,2023-11-01T16:24:19.176Z,,0,1,,3517.5569999940344,response,ISIC_8249854.JPG,8,ISIC_6392478.JPG,ISIC_6392478.JPG,false,0,keypress(z),500,232845.5,232845.09999999404,229310.877,229321.90000000596,229327.543,232860.735,8,400,27,,ISIC_8249854.JPG
break,html.Screen,4_26_1,2023-11-01T16:24:19.176Z,,0,,,NaN,,,,,,false,,,,232846.30000001192,232846.09999999404,,232845.69999998808,,232860.735,8,400,,,
break_continue,html.Screen,4_26_2,2023-11-01T16:24:19.177Z,,0,,,NaN,,,,,,false,,,,232846.69999998808,232846.59999999404,,232846.40000000596,,232860.735,8,400,,,
sequence,flow.Sequence,4_26,2023-11-01T16:24:19.177Z,,0,,,3519.0569999940344,completion,,,,,false,,,,232846.80000001192,232846.59999999404,229310.877,229321.90000000596,229327.543,232860.735,8,400,,,
trial,html.Screen,4_27_0,2023-11-01T16:24:25.757Z,,0,1,,6565.765000000014,response,ISIC_0032190.JPG,6,ISIC_0061315.JPG,ISIC_0032190.JPG,false,1,keypress(m),500,239426.80000001192,239426.5,232844.069,232846.90000000596,232860.735,239444.014,8,400,28,,ISIC_0061315.JPG
break,html.Screen,4_27_1,2023-11-01T16:24:25.758Z,,0,,,NaN,,,,,,false,,,,239427.69999998808,239427.59999999404,,239427.09999999404,,239444.014,8,400,,,
break_continue,html.Screen,4_27_2,2023-11-01T16:24:25.758Z,,0,,,NaN,,,,,,false,,,,239428.09999999404,239427.90000000596,,239427.80000001192,,239444.014,8,400,,,
sequence,flow.Sequence,4_27,2023-11-01T16:24:25.758Z,,0,,,6567.165000005974,completion,,,,,false,,,,239428.19999998808,239427.90000000596,232844.069,232846.90000000596,232860.735,239444.014,8,400,,,
trial,html.Screen,4_28_0,2023-11-01T16:24:29.074Z,,0,1,,3299.6859999880835,response,ISIC_8310944.JPG,9,ISIC_0062649.JPG,ISIC_8310944.JPG,false,1,keypress(m),500,242744,242743.69999998808,239427.348,239428.40000000596,239444.014,242760.548,8,400,29,,ISIC_0062649.JPG
break,html.Screen,4_28_1,2023-11-01T16:24:29.075Z,,0,,,NaN,,,,,,false,,,,242744.80000001192,242744.69999998808,,242744.30000001192,,242760.548,8,400,,,
break_continue,html.Screen,4_28_2,2023-11-01T16:24:29.075Z,,0,,,NaN,,,,,,false,,,,242745.19999998808,242745.09999999404,,242744.90000000596,,242760.548,8,400,,,
sequence,flow.Sequence,4_28,2023-11-01T16:24:29.075Z,,0,,,3301.085999994044,completion,,,,,false,,,,242745.30000001192,242745.09999999404,239427.348,239428.30000001192,239444.014,242760.548,8,400,,,
trial,html.Screen,4_29_0,2023-11-01T16:24:33.574Z,,0,1,,4482.95199999999,response,ISIC_0012068.JPG,7,ISIC_0010965.JPG,ISIC_0012068.JPG,false,1,keypress(m),500,247243.59999999404,247243.5,242743.882,242745.5,242760.548,247260.368,8,400,30,,ISIC_0010965.JPG
break,html.Screen,4_29_1,2023-11-01T16:24:33.574Z,,0,,,NaN,,,,,,false,,,,247244.09999999404,247244,,247243.80000001192,,247260.368,8,400,,,
break_continue,html.Screen,4_29_2,2023-11-01T16:24:33.574Z,,0,,,NaN,,,,,,false,,,,247244.19999998808,247244.19999998808,,247244.09999999404,,247260.368,8,400,,,
sequence,flow.Sequence,4_29,2023-11-01T16:24:33.574Z,,0,,,4483.651999988069,completion,,,,,false,,,,247244.30000001192,247244.19999998808,242743.882,242745.40000000596,242760.548,247260.368,8,400,,,
trial,html.Screen,4_30_0,2023-11-01T16:24:36.874Z,,0,1,,3283.3319999880914,response,ISIC_0065525.JPG,7,ISIC_0000860.JPG,ISIC_0000860.JPG,false,0,keypress(z),500,250544,250543.69999998808,247243.702,247244.30000001192,247260.368,250560.777,8,400,31,,ISIC_0065525.JPG
break,html.Screen,4_30_1,2023-11-01T16:24:36.875Z,,0,,,NaN,,,,,,false,,,,250544.69999998808,250544.5,,250544.19999998808,,250560.777,8,400,,,
break_continue,html.Screen,4_30_2,2023-11-01T16:24:36.875Z,,0,,,NaN,,,,,,false,,,,250545.09999999404,250545,,250544.80000001192,,250560.777,8,400,,,
sequence,flow.Sequence,4_30,2023-11-01T16:24:36.875Z,,0,,,3284.6320000000123,completion,,,,,false,,,,250545.19999998808,250545,247243.702,247244.30000001192,247260.368,250560.777,8,400,,,
trial,html.Screen,4_31_0,2023-11-01T16:24:40.992Z,,0,1,,4100.722999999998,response,ISIC_5656921.JPG,8,ISIC_0028915.JPG,ISIC_5656921.JPG,false,1,keypress(m),500,254661.80000001192,254661.5,250544.111,250545.30000001192,250560.777,254677.279,8,400,32,,ISIC_0028915.JPG
break,html.Screen,4_31_1,2023-11-01T16:24:40.993Z,,0,,,NaN,,,,,,false,,,,254662.69999998808,254662.5,,254662.09999999404,,254677.279,8,400,,,
break_continue,html.Screen,4_31_2,2023-11-01T16:24:40.993Z,,0,,,NaN,,,,,,false,,,,254663,254662.90000000596,,254662.69999998808,,254677.279,8,400,,,
sequence,flow.Sequence,4_31,2023-11-01T16:24:40.993Z,,0,,,4102.123000005959,completion,,,,,false,,,,254663.09999999404,254662.90000000596,250544.111,250545.30000001192,250560.777,254677.279,8,400,,,
trial,html.Screen,4_32_0,2023-11-01T16:24:45.543Z,,0,1,,4535.4209999880695,response,ISIC_7881017.JPG,8,ISIC_9765760.JPG,ISIC_7881017.JPG,false,1,keypress(m),500,259213,259212.69999998808,254660.613,254663.19999998808,254677.279,259227.097,8,400,33,,ISIC_9765760.JPG
break,html.Screen,4_32_1,2023-11-01T16:24:45.544Z,,0,,,NaN,,,,,,false,,,,259214,259213.80000001192,,259213.30000001192,,259227.097,8,400,,,
break_continue,html.Screen,4_32_2,2023-11-01T16:24:45.544Z,,0,,,NaN,,,,,,false,,,,259214.30000001192,259214.19999998808,,259214.09999999404,,259227.097,8,400,,,
sequence,flow.Sequence,4_32,2023-11-01T16:24:45.545Z,,0,,,4536.9209999880695,completion,,,,,false,,,,259214.5,259214.19999998808,254660.613,254663.19999998808,254677.279,259227.097,8,400,,,
trial,html.Screen,4_33_0,2023-11-01T16:24:49.741Z,,0,1,,4183.203000011912,response,ISIC_0014336.JPG,8,ISIC_1224329.JPG,ISIC_1224329.JPG,false,0,keypress(z),500,263410.6999999881,263410.3000000119,259210.431,259214.5,259227.097,263427.361,8,400,34,,ISIC_0014336.JPG
break,html.Screen,4_33_1,2023-11-01T16:24:49.742Z,,0,,,NaN,,,,,,false,,,,263411.5,263411.40000000596,,263411,,263427.361,8,400,,,
break_continue,html.Screen,4_33_2,2023-11-01T16:24:49.742Z,,0,,,NaN,,,,,,false,,,,263411.90000000596,263411.8000000119,,263411.6999999881,,263427.361,8,400,,,
sequence,flow.Sequence,4_33,2023-11-01T16:24:49.742Z,,0,,,4184.703000011912,completion,,,,,false,,,,263412,263411.8000000119,259210.431,259214.5,259227.097,263427.361,8,400,,,
trial,html.Screen,4_34_0,2023-11-01T16:24:56.359Z,,0,1,,6600.738999994064,response,ISIC_0033607.JPG,7,ISIC_0062204.JPG,ISIC_0062204.JPG,false,0,keypress(z),500,270028.5,270028.09999999404,263410.695,263412.1999999881,263427.361,270043.763,8,400,35,,ISIC_0033607.JPG
break,html.Screen,4_34_1,2023-11-01T16:24:56.359Z,,0,,,NaN,,,,,,false,,,,270029.3000000119,270029.09999999404,,270028.6999999881,,270043.763,8,400,,,
break_continue,html.Screen,4_34_2,2023-11-01T16:24:56.360Z,,0,,,NaN,,,,,,false,,,,270029.6999999881,270029.5,,270029.40000000596,,270043.763,8,400,,,
sequence,flow.Sequence,4_34,2023-11-01T16:24:56.360Z,,0,,,6602.139000000025,completion,,,,,false,,,,270029.90000000596,270029.5,263410.695,263412.1999999881,263427.361,270043.763,8,400,,,
trial,html.Screen,4_35_0,2023-11-01T16:25:00.012Z,,0,1,,3637.737000000023,response,ISIC_0032152.JPG,8,ISIC_9390107.JPG,ISIC_9390107.JPG,false,0,keypress(z),500,273681.90000000596,273681.5,270027.097,270029.90000000596,270043.763,273693.986,8,400,36,,ISIC_0032152.JPG
break,html.Screen,4_35_1,2023-11-01T16:25:00.013Z,,0,,,NaN,,,,,,false,,,,273682.8000000119,273682.5,,273682.09999999404,,273693.986,8,400,,,
break_continue,html.Screen,4_35_2,2023-11-01T16:25:00.013Z,,0,,,NaN,,,,,,false,,,,273683,273683,,273682.90000000596,,273693.986,8,400,,,
sequence,flow.Sequence,4_35,2023-11-01T16:25:00.013Z,,0,,,3639.237000000023,completion,,,,,false,,,,273683.1999999881,273683,270027.097,270029.90000000596,270043.763,273693.986,8,400,,,
trial,html.Screen,4_36_0,2023-11-01T16:25:04.114Z,,0,1,,4089.7139999881038,response,ISIC_0054906.JPG,8,ISIC_0010618.JPG,ISIC_0054906.JPG,false,1,keypress(m),500,277784.09999999404,277783.6999999881,273677.32,273683.3000000119,273693.986,277793.822,8,400,37,,ISIC_0010618.JPG
break,html.Screen,4_36_1,2023-11-01T16:25:04.115Z,,0,,,NaN,,,,,,false,,,,277785.09999999404,277784.90000000596,,277784.3000000119,,277793.822,8,400,,,
break_continue,html.Screen,4_36_2,2023-11-01T16:25:04.115Z,,0,,,NaN,,,,,,false,,,,277785.40000000596,277785.3000000119,,277785.09999999404,,277793.822,8,400,,,
sequence,flow.Sequence,4_36,2023-11-01T16:25:04.116Z,,0,,,4091.3140000119456,completion,,,,,false,,,,277785.5,277785.3000000119,273677.32,273683.3000000119,273693.986,277793.822,8,400,,,
trial,html.Screen,4_37_0,2023-11-01T16:25:11.399Z,,0,1,,7274.8779999880935,response,ISIC_0029056.JPG,7,ISIC_0062301.JPG,ISIC_0029056.JPG,false,1,keypress(m),500,285069.09999999404,285068.6999999881,277777.156,277785.6999999881,277793.822,285077.212,8,400,38,,ISIC_0062301.JPG
break,html.Screen,4_37_1,2023-11-01T16:25:11.400Z,,0,,,NaN,,,,,,false,,,,285070,285069.90000000596,,285069.3000000119,,285077.212,8,400,,,
break_continue,html.Screen,4_37_2,2023-11-01T16:25:11.400Z,,0,,,NaN,,,,,,false,,,,285070.3000000119,285070.1999999881,,285070.09999999404,,285077.212,8,400,,,
sequence,flow.Sequence,4_37,2023-11-01T16:25:11.401Z,,0,,,7276.3779999880935,completion,,,,,false,,,,285070.5,285070.1999999881,277777.156,277785.59999999404,277793.822,285077.212,8,400,,,
trial,html.Screen,4_38_0,2023-11-01T16:25:14.846Z,,0,1,,3437.88799999404,response,ISIC_0056152.JPG,7,ISIC_0032921.JPG,ISIC_0056152.JPG,false,1,keypress(m),500,288515.5,288515.09999999404,285060.546,285070.59999999404,285077.212,288527.074,8,400,39,,ISIC_0032921.JPG
break,html.Screen,4_38_1,2023-11-01T16:25:14.846Z,,0,,,NaN,,,,,,false,,,,288516.40000000596,288516.1999999881,,288515.6999999881,,288527.074,8,400,,,
break_continue,html.Screen,4_38_2,2023-11-01T16:25:14.847Z,,0,,,NaN,,,,,,false,,,,288517,288516.8000000119,,288516.59999999404,,288527.074,8,400,,,
sequence,flow.Sequence,4_38,2023-11-01T16:25:14.847Z,,0,,,3439.5880000119214,completion,,,,,false,,,,288517.09999999404,288516.8000000119,285060.546,285070.59999999404,285077.212,288527.074,8,400,,,
trial,html.Screen,4_39_0,2023-11-01T16:25:18.133Z,,0,1,,3274.9259999999776,response,ISIC_5438156.JPG,8,ISIC_0026167.JPG,ISIC_5438156.JPG,false,1,keypress(m),500,291802.5,291802,288510.408,288517.09999999404,288527.074,291810.276,8,400,40,,ISIC_0026167.JPG
break,html.Screen,4_39_1,2023-11-01T16:25:18.133Z,,0,,,NaN,,,,,,false,,,,291803.40000000596,291803.1999999881,,291802.6999999881,,291810.276,8,400,,,
break_continue,html.Screen,4_39_2,2023-11-01T16:25:18.134Z,,0,,,NaN,,,,,,false,,,,291803.8000000119,291803.59999999404,,291803.5,,291810.276,8,400,,,
sequence,flow.Sequence,4_39,2023-11-01T16:25:18.134Z,,0,,,3276.525999994017,completion,,,,,false,,,,291804,291803.59999999404,288510.408,288517.09999999404,288527.074,291810.276,8,400,,,
trial,html.Screen,4_40_0,2023-11-01T16:25:25.067Z,,0,1,,6926.4239999880665,response,ISIC_0011802.JPG,5,ISIC_4257634.JPG,ISIC_4257634.JPG,false,0,keypress(z),500,298737,298736.6999999881,291793.61,291804.09999999404,291810.276,298743.859,8,400,41,,ISIC_0011802.JPG
break,html.Screen,4_40_1,2023-11-01T16:25:25.068Z,,0,,,NaN,,,,,,false,,,,298737.90000000596,298737.6999999881,,298737.3000000119,,298743.859,8,400,,,
break_continue,html.Screen,4_40_2,2023-11-01T16:25:25.068Z,,0,,,NaN,,,,,,false,,,,298738.3000000119,298738.09999999404,,298738,,298743.859,8,400,,,
sequence,flow.Sequence,4_40,2023-11-01T16:25:25.068Z,,0,,,6927.823999994027,completion,,,,,false,,,,298738.40000000596,298738.09999999404,291793.61,291804,291810.276,298743.859,8,400,,,
trial,html.Screen,4_41_0,2023-11-01T16:25:29.314Z,,0,1,,4239.740999994043,response,ISIC_0011648.JPG,8,ISIC_7062293.JPG,ISIC_7062293.JPG,false,0,keypress(z),500,302983.8000000119,302983.59999999404,298727.193,298738.59999999404,298743.859,302993.689,8,400,42,,ISIC_0011648.JPG
break,html.Screen,4_41_1,2023-11-01T16:25:29.314Z,,0,,,NaN,,,,,,false,,,,302984.09999999404,302984,,302983.90000000596,,302993.689,8,400,,,
break_continue,html.Screen,4_41_2,2023-11-01T16:25:29.314Z,,0,,,NaN,,,,,,false,,,,302984.1999999881,302984.1999999881,,302984.1999999881,,302993.689,8,400,,,
sequence,flow.Sequence,4_41,2023-11-01T16:25:29.314Z,,0,,,4240.340999988082,completion,,,,,false,,,,302984.3000000119,302984.1999999881,298727.193,298738.5,298743.859,302993.689,8,400,,,
trial,html.Screen,4_42_0,2023-11-01T16:25:32.852Z,,0,1,,3527.611000011908,response,ISIC_0056692.JPG,8,ISIC_7664137.JPG,ISIC_7664137.JPG,false,0,keypress(z),500,306521.6999999881,306521.3000000119,302977.023,302984.3000000119,302993.689,306527.359,8,400,43,,ISIC_0056692.JPG
break,html.Screen,4_42_1,2023-11-01T16:25:32.853Z,,0,,,NaN,,,,,,false,,,,306522.40000000596,306522.3000000119,,306521.90000000596,,306527.359,8,400,,,
break_continue,html.Screen,4_42_2,2023-11-01T16:25:32.853Z,,0,,,NaN,,,,,,false,,,,306522.8000000119,306522.59999999404,,306522.59999999404,,306527.359,8,400,,,
sequence,flow.Sequence,4_42,2023-11-01T16:25:32.853Z,,0,,,3528.9109999940265,completion,,,,,false,,,,306523,306522.59999999404,302977.023,302984.3000000119,302993.689,306527.359,8,400,,,
trial,html.Screen,4_43_0,2023-11-01T16:25:37.882Z,,0,1,,5024.541000005964,response,ISIC_5705973.JPG,5,ISIC_0519719.JPG,ISIC_5705973.JPG,false,1,keypress(m),500,311552.1999999881,311551.90000000596,306510.693,306523,306527.359,311560.491,8,400,44,,ISIC_0519719.JPG
break,html.Screen,4_43_1,2023-11-01T16:25:37.883Z,,0,,,NaN,,,,,,false,,,,311553,311552.90000000596,,311552.40000000596,,311560.491,8,400,,,
break_continue,html.Screen,4_43_2,2023-11-01T16:25:37.883Z,,0,,,NaN,,,,,,false,,,,311553.40000000596,311553.1999999881,,311553.1999999881,,311560.491,8,400,,,
sequence,flow.Sequence,4_43,2023-11-01T16:25:37.884Z,,0,,,5025.840999988082,completion,,,,,false,,,,311553.5,311553.1999999881,306510.693,306523,306527.359,311560.491,8,400,,,
trial,html.Screen,4_44_0,2023-11-01T16:25:41.265Z,,0,1,,3374.00900000002,response,ISIC_7587869.JPG,8,ISIC_6806124.JPG,ISIC_6806124.JPG,false,0,keypress(z),500,314934.90000000596,314934.5,311543.825,311553.59999999404,311560.491,314943.689,8,400,45,,ISIC_7587869.JPG
break,html.Screen,4_44_1,2023-11-01T16:25:41.266Z,,0,,,NaN,,,,,,false,,,,314935.6999999881,314935.5,,314935.09999999404,,314943.689,8,400,,,
break_continue,html.Screen,4_44_2,2023-11-01T16:25:41.266Z,,0,,,NaN,,,,,,false,,,,314936,314936,,314935.8000000119,,314943.689,8,400,,,
sequence,flow.Sequence,4_44,2023-11-01T16:25:41.266Z,,0,,,3375.50900000002,completion,,,,,false,,,,314936.1999999881,314936,311543.825,311553.59999999404,311560.491,314943.689,8,400,,,
trial,html.Screen,4_45_0,2023-11-01T16:25:45.431Z,,0,1,,4157.310999999987,response,ISIC_5354202.JPG,8,ISIC_5028203.JPG,ISIC_5028203.JPG,false,0,keypress(z),500,319101.3000000119,319101,314927.023,314936.3000000119,314943.689,319110.563,8,400,46,,ISIC_5354202.JPG
break,html.Screen,4_45_1,2023-11-01T16:25:45.432Z,,0,,,NaN,,,,,,false,,,,319102.1999999881,319101.90000000596,,319101.59999999404,,319110.563,8,400,,,
break_continue,html.Screen,4_45_2,2023-11-01T16:25:45.433Z,,0,,,NaN,,,,,,false,,,,319102.40000000596,319102.3000000119,,319102.3000000119,,319110.563,8,400,,,
sequence,flow.Sequence,4_45,2023-11-01T16:25:45.433Z,,0,,,4158.611000011908,completion,,,,,false,,,,319102.59999999404,319102.3000000119,314927.023,314936.1999999881,314943.689,319110.563,8,400,,,
trial,html.Screen,4_46_0,2023-11-01T16:25:48.782Z,,0,1,,3340.737000011897,response,ISIC_5442578.JPG,7,ISIC_0072876.JPG,ISIC_5442578.JPG,false,1,keypress(m),500,322451.6999999881,322451.3000000119,319093.897,319102.8000000119,319110.563,322460.429,8,400,47,,ISIC_0072876.JPG
break,html.Screen,4_46_1,2023-11-01T16:25:48.783Z,,0,,,NaN,,,,,,false,,,,322452.6999999881,322452.5,,322452.09999999404,,322460.429,8,400,,,
break_continue,html.Screen,4_46_2,2023-11-01T16:25:48.783Z,,0,,,NaN,,,,,,false,,,,322453.09999999404,322453,,322452.8000000119,,322460.429,8,400,,,
sequence,flow.Sequence,4_46,2023-11-01T16:25:48.783Z,,0,,,3342.4369999999763,completion,,,,,false,,,,322453.1999999881,322453,319093.897,319102.6999999881,319110.563,322460.429,8,400,,,
trial,html.Screen,4_47_0,2023-11-01T16:25:51.877Z,,0,1,,3085.7709999880753,response,ISIC_0060975.JPG,6,ISIC_1971254.JPG,ISIC_1971254.JPG,false,0,keypress(z),500,325546.59999999404,325546.1999999881,322443.763,322453.3000000119,322460.429,325560.305,8,400,48,,ISIC_0060975.JPG
break,html.Screen,4_47_1,2023-11-01T16:25:51.877Z,,0,,,NaN,,,,,,false,,,,325547.3000000119,325547.09999999404,,325546.6999999881,,325560.305,8,400,,,
break_continue,html.Screen,4_47_2,2023-11-01T16:25:51.878Z,,0,,,NaN,,,,,,false,,,,325547.5,325547.5,,325547.3000000119,,325560.305,8,400,,,
sequence,flow.Sequence,4_47,2023-11-01T16:25:51.878Z,,0,,,3087.0709999999963,completion,,,,,false,,,,325547.6999999881,325547.5,322443.763,322453.3000000119,322460.429,325560.305,8,400,,,
trial,html.Screen,4_48_0,2023-11-01T16:25:57.614Z,,0,1,,5723.2949999940465,response,ISIC_0011073.JPG,7,ISIC_0061509.JPG,ISIC_0011073.JPG,false,1,keypress(m),500,331283.90000000596,331283.59999999404,325543.639,325547.8000000119,325560.305,331293.77,8,400,49,,ISIC_0061509.JPG
break,html.Screen,4_48_1,2023-11-01T16:25:57.615Z,,0,,,NaN,,,,,,false,,,,331284.90000000596,331284.59999999404,,331284.3000000119,,331293.77,8,400,,,
break_continue,html.Screen,4_48_2,2023-11-01T16:25:57.615Z,,0,,,NaN,,,,,,false,,,,331285.09999999404,331285.09999999404,,331284.90000000596,,331293.77,8,400,,,
sequence,flow.Sequence,4_48,2023-11-01T16:25:57.615Z,,0,,,5724.7949999940465,completion,,,,,false,,,,331285.3000000119,331285.09999999404,325543.639,325547.6999999881,325560.305,331293.77,8,400,,,
trial,html.Screen,4_49_0,2023-11-01T16:26:02.036Z,,0,1,,4411.829999994021,response,ISIC_3323866.JPG,8,ISIC_0032052.JPG,ISIC_0032052.JPG,false,0,keypress(z),500,335706,335705.59999999404,331277.104,331285.40000000596,331293.77,335710.26,8,400,50,,ISIC_3323866.JPG
break,html.Screen,4_49_1,2023-11-01T16:26:12.025Z,,0,,,9999.955000000016,timeout,,,,,false,,,,345694.59999999404,345693.549,335693.594,335706.1999999881,335710.26,345710.215,8,400,,,
break_continue,html.Screen,4_49_2,2023-11-01T16:26:12.864Z,,0,,,811.3849999940139,response,,,,,false,continue,keypress(Space),,346534.5,346521.59999999404,345693.549,345694.90000000596,345710.215,346543.515,8,400,,,
sequence,flow.Sequence,4_49,2023-11-01T16:26:12.865Z,,0,,,15227.82999999402,completion,,,,,false,,,,346534.59999999404,346521.59999999404,331277.104,331285.40000000596,331293.77,346543.515,8,400,,,
trial,html.Screen,4_50_0,2023-11-01T16:26:18.245Z,,0,2,,5371.484999999986,response,ISIC_0033427.JPG,7,ISIC_0056141.JPG,ISIC_0033427.JPG,false,1,keypress(m),500,351915.3000000119,351915,346526.849,346534.6999999881,346543.515,351927.044,8,400,1,,ISIC_0056141.JPG
break,html.Screen,4_50_1,2023-11-01T16:26:18.246Z,,0,,,NaN,,,,,,false,,,,351916.1999999881,351916.09999999404,,351915.59999999404,,351927.044,8,400,,,
break_continue,html.Screen,4_50_2,2023-11-01T16:26:18.247Z,,0,,,NaN,,,,,,false,,,,351916.59999999404,351916.40000000596,,351916.40000000596,,351927.044,8,400,,,
sequence,flow.Sequence,4_50,2023-11-01T16:26:18.247Z,,0,,,5372.8850000059465,completion,,,,,false,,,,351916.6999999881,351916.40000000596,346526.849,346534.6999999881,346543.515,351927.044,8,400,,,
trial,html.Screen,4_51_0,2023-11-01T16:26:22.668Z,,0,2,,4410.856000005966,response,ISIC_0025735.JPG,8,ISIC_0068126.JPG,ISIC_0025735.JPG,false,1,keypress(m),500,356338.3000000119,356337.90000000596,351910.378,351916.90000000596,351927.044,356343.534,8,400,2,,ISIC_0068126.JPG
break,html.Screen,4_51_1,2023-11-01T16:26:22.669Z,,0,,,NaN,,,,,,false,,,,356339.1999999881,356339,,356338.59999999404,,356343.534,8,400,,,
break_continue,html.Screen,4_51_2,2023-11-01T16:26:22.670Z,,0,,,NaN,,,,,,false,,,,356339.5,356339.40000000596,,356339.3000000119,,356343.534,8,400,,,
sequence,flow.Sequence,4_51,2023-11-01T16:26:22.670Z,,0,,,4412.356000005966,completion,,,,,false,,,,356339.6999999881,356339.40000000596,351910.378,351916.8000000119,351927.044,356343.534,8,400,,,
trial,html.Screen,4_52_0,2023-11-01T16:26:25.943Z,,0,2,,3269.266000011936,response,ISIC_0046900.JPG,8,ISIC_0000129.JPG,ISIC_0000129.JPG,false,0,keypress(z),500,359613.09999999404,359612.8000000119,356326.868,356339.8000000119,356343.534,359627.185,8,400,3,,ISIC_0046900.JPG
break,html.Screen,4_52_1,2023-11-01T16:26:25.944Z,,0,,,NaN,,,,,,false,,,,359614,359613.90000000596,,359613.40000000596,,359627.185,8,400,,,
break_continue,html.Screen,4_52_2,2023-11-01T16:26:25.944Z,,0,,,NaN,,,,,,false,,,,359614.3000000119,359614.1999999881,,359614.09999999404,,359627.185,8,400,,,
sequence,flow.Sequence,4_52,2023-11-01T16:26:25.944Z,,0,,,3270.665999988094,completion,,,,,false,,,,359614.5,359614.1999999881,356326.868,356339.8000000119,356343.534,359627.185,8,400,,,
trial,html.Screen,4_53_0,2023-11-01T16:26:29.970Z,,0,2,,4012.914999994042,response,ISIC_0063692.JPG,7,ISIC_0032810.JPG,ISIC_0032810.JPG,false,0,keypress(z),500,363640.40000000596,363640.09999999404,359610.519,359614.59999999404,359627.185,363643.691,8,400,4,,ISIC_0063692.JPG
break,html.Screen,4_53_1,2023-11-01T16:26:29.971Z,,0,,,NaN,,,,,,false,,,,363641.3000000119,363641.1999999881,,363640.6999999881,,363643.691,8,400,,,
break_continue,html.Screen,4_53_2,2023-11-01T16:26:29.972Z,,0,,,NaN,,,,,,false,,,,363641.6999999881,363641.5,,363641.40000000596,,363643.691,8,400,,,
sequence,flow.Sequence,4_53,2023-11-01T16:26:29.972Z,,0,,,4014.3150000000023,completion,,,,,false,,,,363641.8000000119,363641.5,359610.519,359614.59999999404,359627.185,363643.691,8,400,,,
trial,html.Screen,4_54_0,2023-11-01T16:26:33.639Z,,0,2,,3665.3090000000084,response,ISIC_0082348.JPG,6,ISIC_3819893.JPG,ISIC_0082348.JPG,false,1,keypress(m),500,367309.5,367309,363627.025,363642,363643.691,367310.211,8,400,5,,ISIC_3819893.JPG
break,html.Screen,4_54_1,2023-11-01T16:26:33.640Z,,0,,,NaN,,,,,,false,,,,367310.40000000596,367310.1999999881,,367309.6999999881,,367310.211,8,400,,,
break_continue,html.Screen,4_54_2,2023-11-01T16:26:33.641Z,,0,,,NaN,,,,,,false,,,,367310.8000000119,367310.6999999881,,367310.5,,367310.211,8,400,,,
sequence,flow.Sequence,4_54,2023-11-01T16:26:33.641Z,,0,,,3667.0089999880875,completion,,,,,false,,,,367310.90000000596,367310.6999999881,363627.025,363641.90000000596,363643.691,367310.211,8,400,,,
trial,html.Screen,4_55_0,2023-11-01T16:26:37.086Z,,0,2,,3445.488999988069,response,ISIC_0013365.JPG,7,ISIC_9203914.JPG,ISIC_9203914.JPG,false,0,keypress(z),500,370756,370755.6999999881,367293.545,367311.09999999404,367310.211,370760.463,8,400,6,,ISIC_0013365.JPG
break,html.Screen,4_55_1,2023-11-01T16:26:37.087Z,,0,,,NaN,,,,,,false,,,,370756.90000000596,370756.8000000119,,370756.3000000119,,370760.463,8,400,,,
break_continue,html.Screen,4_55_2,2023-11-01T16:26:37.087Z,,0,,,NaN,,,,,,false,,,,370757.3000000119,370757.1999999881,,370757.09999999404,,370760.463,8,400,,,
sequence,flow.Sequence,4_55,2023-11-01T16:26:37.087Z,,0,,,3446.988999988069,completion,,,,,false,,,,370757.5,370757.1999999881,367293.545,367311.09999999404,367310.211,370760.463,8,400,,,
trial,html.Screen,4_56_0,2023-11-01T16:26:40.834Z,,0,2,,3743.337000011932,response,ISIC_9159730.JPG,9,ISIC_1944650.JPG,ISIC_1944650.JPG,false,0,keypress(z),500,374504.1999999881,374503.8000000119,370743.797,370757.59999999404,370760.463,374510.313,8,400,7,,ISIC_9159730.JPG
break,html.Screen,4_56_1,2023-11-01T16:26:40.835Z,,0,,,NaN,,,,,,false,,,,374505.09999999404,374504.8000000119,,374504.40000000596,,374510.313,8,400,,,
break_continue,html.Screen,4_56_2,2023-11-01T16:26:40.835Z,,0,,,NaN,,,,,,false,,,,374505.40000000596,374505.3000000119,,374505.1999999881,,374510.313,8,400,,,
sequence,flow.Sequence,4_56,2023-11-01T16:26:40.836Z,,0,,,3744.837000011932,completion,,,,,false,,,,374505.5,374505.3000000119,370743.797,370757.5,370760.463,374510.313,8,400,,,
trial,html.Screen,4_57_0,2023-11-01T16:26:44.205Z,,0,2,,3364.487000011897,response,ISIC_5897799.JPG,8,ISIC_3319229.JPG,ISIC_5897799.JPG,false,1,keypress(m),500,377875.09999999404,377874.8000000119,374493.647,374505.6999999881,374510.313,377876.845,8,400,8,,ISIC_3319229.JPG
break,html.Screen,4_57_1,2023-11-01T16:26:44.206Z,,0,,,NaN,,,,,,false,,,,377876.09999999404,377875.90000000596,,377875.40000000596,,377876.845,8,400,,,
break_continue,html.Screen,4_57_2,2023-11-01T16:26:44.206Z,,0,,,NaN,,,,,,false,,,,377876.40000000596,377876.3000000119,,377876.09999999404,,377876.845,8,400,,,
sequence,flow.Sequence,4_57,2023-11-01T16:26:44.207Z,,0,,,3365.987000011897,completion,,,,,false,,,,377876.59999999404,377876.3000000119,374493.647,374505.59999999404,374510.313,377876.845,8,400,,,
trial,html.Screen,4_58_0,2023-11-01T16:26:47.026Z,,0,2,,2818.955000011949,response,ISIC_0029353.JPG,8,ISIC_0066240.JPG,ISIC_0029353.JPG,false,1,keypress(m),500,380696.09999999404,380695.8000000119,377860.179,377876.59999999404,377876.845,380710.428,8,400,9,,ISIC_0066240.JPG
break,html.Screen,4_58_1,2023-11-01T16:26:47.027Z,,0,,,NaN,,,,,,false,,,,380697.09999999404,380696.90000000596,,380696.5,,380710.428,8,400,,,
break_continue,html.Screen,4_58_2,2023-11-01T16:26:47.027Z,,0,,,NaN,,,,,,false,,,,380697.40000000596,380697.40000000596,,380697.1999999881,,380710.428,8,400,,,
sequence,flow.Sequence,4_58,2023-11-01T16:26:47.028Z,,0,,,2820.5550000059884,completion,,,,,false,,,,380697.59999999404,380697.40000000596,377860.179,377876.59999999404,377876.845,380710.428,8,400,,,
trial,html.Screen,4_59_0,2023-11-01T16:26:51.272Z,,0,2,,4231.472000005946,response,ISIC_0033007.JPG,6,ISIC_9780632.JPG,ISIC_9780632.JPG,false,0,keypress(z),500,384942.3000000119,384941.90000000596,380693.762,380697.6999999881,380710.428,384943.592,8,400,10,,ISIC_0033007.JPG
break,html.Screen,4_59_1,2023-11-01T16:26:51.273Z,,0,,,NaN,,,,,,false,,,,384943.1999999881,384943,,384942.59999999404,,384943.592,8,400,,,
break_continue,html.Screen,4_59_2,2023-11-01T16:26:51.274Z,,0,,,NaN,,,,,,false,,,,384943.5,384943.5,,384943.3000000119,,384943.592,8,400,,,
sequence,flow.Sequence,4_59,2023-11-01T16:26:51.274Z,,0,,,4233.071999999986,completion,,,,,false,,,,384943.6999999881,384943.5,380693.762,380697.6999999881,380710.428,384943.592,8,400,,,
trial,html.Screen,4_60_0,2023-11-01T16:26:53.938Z,,0,2,,2663.907999999996,response,ISIC_0942056.JPG,5,ISIC_6101007.JPG,ISIC_0942056.JPG,false,1,keypress(m),500,387607.8000000119,387607.5,384926.926,384944,384943.592,387610.152,8,400,11,,ISIC_6101007.JPG
break,html.Screen,4_60_1,2023-11-01T16:26:53.939Z,,0,,,NaN,,,,,,false,,,,387608.6999999881,387608.5,,387608.09999999404,,387610.152,8,400,,,
break_continue,html.Screen,4_60_2,2023-11-01T16:26:53.939Z,,0,,,NaN,,,,,,false,,,,387609.09999999404,387608.90000000596,,387608.8000000119,,387610.152,8,400,,,
sequence,flow.Sequence,4_60,2023-11-01T16:26:53.939Z,,0,,,2665.3080000059563,completion,,,,,false,,,,387609.1999999881,387608.90000000596,384926.926,384943.90000000596,384943.592,387610.152,8,400,,,
trial,html.Screen,4_61_0,2023-11-01T16:27:00.040Z,,0,2,,6099.447999994038,response,ISIC_0068314.JPG,7,ISIC_8483458.JPG,ISIC_8483458.JPG,false,0,keypress(z),500,393709.90000000596,393709.59999999404,387593.486,387609.3000000119,387610.152,393726.978,8,400,12,,ISIC_0068314.JPG
break,html.Screen,4_61_1,2023-11-01T16:27:00.041Z,,0,,,NaN,,,,,,false,,,,393710.90000000596,393710.6999999881,,393710.1999999881,,393726.978,8,400,,,
break_continue,html.Screen,4_61_2,2023-11-01T16:27:00.041Z,,0,,,NaN,,,,,,false,,,,393711.3000000119,393711.1999999881,,393711,,393726.978,8,400,,,
sequence,flow.Sequence,4_61,2023-11-01T16:27:00.041Z,,0,,,6101.047999988077,completion,,,,,false,,,,393711.40000000596,393711.1999999881,387593.486,387609.3000000119,387610.152,393726.978,8,400,,,
trial,html.Screen,4_62_0,2023-11-01T16:27:04.752Z,,0,2,,4694.922000005958,response,ISIC_5239856.JPG,8,ISIC_0057496.JPG,ISIC_0057496.JPG,false,0,keypress(z),500,398422.09999999404,398421.90000000596,393710.312,393711.59999999404,393726.978,398426.79,8,400,13,,ISIC_5239856.JPG
break,html.Screen,4_62_1,2023-11-01T16:27:04.753Z,,0,,,NaN,,,,,,false,,,,398423.09999999404,398422.90000000596,,398422.40000000596,,398426.79,8,400,,,
break_continue,html.Screen,4_62_2,2023-11-01T16:27:04.753Z,,0,,,NaN,,,,,,false,,,,398423.5,398423.40000000596,,398423.1999999881,,398426.79,8,400,,,
sequence,flow.Sequence,4_62,2023-11-01T16:27:04.754Z,,0,,,4696.422000005958,completion,,,,,false,,,,398423.6999999881,398423.40000000596,393710.312,393711.59999999404,393726.978,398426.79,8,400,,,
trial,html.Screen,4_63_0,2023-11-01T16:27:07.944Z,,0,2,,3186.6100000059814,response,ISIC_2693412.JPG,7,ISIC_0069668.JPG,ISIC_2693412.JPG,false,1,keypress(m),500,401613.6999999881,401613.40000000596,398410.124,398423.8000000119,398426.79,401627.069,8,400,14,,ISIC_0069668.JPG
break,html.Screen,4_63_1,2023-11-01T16:27:07.945Z,,0,,,NaN,,,,,,false,,,,401614.59999999404,401614.5,,401614,,401627.069,8,400,,,
break_continue,html.Screen,4_63_2,2023-11-01T16:27:07.945Z,,0,,,NaN,,,,,,false,,,,401615,401614.90000000596,,401614.8000000119,,401627.069,8,400,,,
sequence,flow.Sequence,4_63,2023-11-01T16:27:07.945Z,,0,,,3188.1100000059814,completion,,,,,false,,,,401615.09999999404,401614.90000000596,398410.124,398423.6999999881,398426.79,401627.069,8,400,,,
trial,html.Screen,4_64_0,2023-11-01T16:27:15.181Z,,0,2,,7223.331000005943,response,ISIC_5772144.JPG,6,ISIC_2680640.JPG,ISIC_2680640.JPG,false,0,keypress(z),500,408850.8000000119,408850.40000000596,401610.403,401615.3000000119,401627.069,408860.113,8,400,15,,ISIC_5772144.JPG
break,html.Screen,4_64_1,2023-11-01T16:27:15.182Z,,0,,,NaN,,,,,,false,,,,408851.8000000119,408851.59999999404,,408851.09999999404,,408860.113,8,400,,,
break_continue,html.Screen,4_64_2,2023-11-01T16:27:15.182Z,,0,,,NaN,,,,,,false,,,,408852.1999999881,408852,,408851.90000000596,,408860.113,8,400,,,
sequence,flow.Sequence,4_64,2023-11-01T16:27:15.182Z,,0,,,7224.930999999982,completion,,,,,false,,,,408852.3000000119,408852,401610.403,401615.1999999881,401627.069,408860.113,8,400,,,
trial,html.Screen,4_65_0,2023-11-01T16:27:19.060Z,,0,2,,3869.586999988067,response,ISIC_0067564.JPG,8,ISIC_0053841.JPG,ISIC_0053841.JPG,false,0,keypress(z),500,412730,412729.6999999881,408843.447,408852.40000000596,408860.113,412743.683,8,400,16,,ISIC_0067564.JPG
break,html.Screen,4_65_1,2023-11-01T16:27:19.061Z,,0,,,NaN,,,,,,false,,,,412731,412730.90000000596,,412730.40000000596,,412743.683,8,400,,,
break_continue,html.Screen,4_65_2,2023-11-01T16:27:19.061Z,,0,,,NaN,,,,,,false,,,,412731.40000000596,412731.3000000119,,412731.09999999404,,412743.683,8,400,,,
sequence,flow.Sequence,4_65,2023-11-01T16:27:19.061Z,,0,,,3871.187000011909,completion,,,,,false,,,,412731.5,412731.3000000119,408843.447,408852.40000000596,408860.113,412743.683,8,400,,,
trial,html.Screen,4_66_0,2023-11-01T16:27:22.432Z,,0,2,,3358.316999999981,response,ISIC_0003851.JPG,9,ISIC_0025597.JPG,ISIC_0003851.JPG,false,1,keypress(m),500,416102.40000000596,416102,412727.017,412731.59999999404,412743.683,416110.215,8,400,17,,ISIC_0025597.JPG
break,html.Screen,4_66_1,2023-11-01T16:27:22.433Z,,0,,,NaN,,,,,,false,,,,416103.3000000119,416103.09999999404,,416102.59999999404,,416110.215,8,400,,,
break_continue,html.Screen,4_66_2,2023-11-01T16:27:22.434Z,,0,,,NaN,,,,,,false,,,,416103.6999999881,416103.5,,416103.40000000596,,416110.215,8,400,,,
sequence,flow.Sequence,4_66,2023-11-01T16:27:22.434Z,,0,,,3359.816999999981,completion,,,,,false,,,,416103.90000000596,416103.5,412727.017,412731.59999999404,412743.683,416110.215,8,400,,,
trial,html.Screen,4_67_0,2023-11-01T16:27:26.199Z,,0,2,,3758.2849999999744,response,ISIC_7870290.JPG,7,ISIC_0029163.JPG,ISIC_7870290.JPG,false,1,keypress(m),500,419868.90000000596,419868.5,416093.549,416104,416110.215,419876.731,8,400,18,,ISIC_0029163.JPG
break,html.Screen,4_67_1,2023-11-01T16:27:26.200Z,,0,,,NaN,,,,,,false,,,,419869.90000000596,419869.6999999881,,419869.1999999881,,419876.731,8,400,,,
break_continue,html.Screen,4_67_2,2023-11-01T16:27:26.200Z,,0,,,NaN,,,,,,false,,,,419870.1999999881,419870.09999999404,,419870,,419876.731,8,400,,,
sequence,flow.Sequence,4_67,2023-11-01T16:27:26.200Z,,0,,,3759.884999994014,completion,,,,,false,,,,419870.5,419870.09999999404,416093.549,416103.90000000596,416110.215,419876.731,8,400,,,
trial,html.Screen,4_68_0,2023-11-01T16:27:29.756Z,,0,2,,3548.6690000059316,response,ISIC_0033024.JPG,8,ISIC_0033325.JPG,ISIC_0033024.JPG,false,1,keypress(m),500,423425.6999999881,423425.40000000596,419860.065,419870.59999999404,419876.731,423426.966,8,400,19,,ISIC_0033325.JPG
break,html.Screen,4_68_1,2023-11-01T16:27:29.757Z,,0,,,NaN,,,,,,false,,,,423426.6999999881,423426.5,,423426,,423426.966,8,400,,,
break_continue,html.Screen,4_68_2,2023-11-01T16:27:29.757Z,,0,,,NaN,,,,,,false,,,,423427.09999999404,423427,,423426.90000000596,,423426.966,8,400,,,
sequence,flow.Sequence,4_68,2023-11-01T16:27:29.757Z,,0,,,3550.268999999971,completion,,,,,false,,,,423427.3000000119,423427,419860.065,419870.59999999404,419876.731,423426.966,8,400,,,
trial,html.Screen,4_69_0,2023-11-01T16:27:32.758Z,,0,2,,3000.6339999940246,response,ISIC_0033533.JPG,8,ISIC_8029613.JPG,ISIC_8029613.JPG,false,0,keypress(z),500,426427.90000000596,426427.59999999404,423410.3,423427.40000000596,423426.966,426443.512,8,400,20,,ISIC_0033533.JPG
break,html.Screen,4_69_1,2023-11-01T16:27:32.759Z,,0,,,NaN,,,,,,false,,,,426428.8000000119,426428.59999999404,,426428.1999999881,,426443.512,8,400,,,
break_continue,html.Screen,4_69_2,2023-11-01T16:27:32.759Z,,0,,,NaN,,,,,,false,,,,426429.1999999881,426429.09999999404,,426428.90000000596,,426443.512,8,400,,,
sequence,flow.Sequence,4_69,2023-11-01T16:27:32.759Z,,0,,,3002.1339999940246,completion,,,,,false,,,,426429.40000000596,426429.09999999404,423410.3,423427.40000000596,423426.966,426443.512,8,400,,,
trial,html.Screen,4_70_0,2023-11-01T16:27:36.478Z,,0,2,,3703.788000011933,response,ISIC_0061379.JPG,8,ISIC_9104982.JPG,ISIC_9104982.JPG,false,0,keypress(z),500,430147.59999999404,430147.3000000119,426426.846,426429.5,426443.512,430160.03,8,400,21,,ISIC_0061379.JPG
break,html.Screen,4_70_1,2023-11-01T16:27:36.479Z,,0,,,NaN,,,,,,false,,,,430148.59999999404,430148.5,,430147.90000000596,,430160.03,8,400,,,
break_continue,html.Screen,4_70_2,2023-11-01T16:27:36.479Z,,0,,,NaN,,,,,,false,,,,430149,430148.8000000119,,430148.6999999881,,430160.03,8,400,,,
sequence,flow.Sequence,4_70,2023-11-01T16:27:36.479Z,,0,,,3705.288000011933,completion,,,,,false,,,,430149.1999999881,430148.8000000119,426426.846,426429.40000000596,426443.512,430160.03,8,400,,,
trial,html.Screen,4_71_0,2023-11-01T16:27:39.954Z,,0,2,,3463.669999988051,response,ISIC_0032751.JPG,8,ISIC_0026470.JPG,ISIC_0026470.JPG,false,0,keypress(z),500,433624.09999999404,433623.6999999881,430143.364,430149.1999999881,430160.03,433626.925,8,400,22,,ISIC_0032751.JPG
break,html.Screen,4_71_1,2023-11-01T16:27:39.955Z,,0,,,NaN,,,,,,false,,,,433625,433624.8000000119,,433624.40000000596,,433626.925,8,400,,,
break_continue,html.Screen,4_71_2,2023-11-01T16:27:39.955Z,,0,,,NaN,,,,,,false,,,,433625.40000000596,433625.3000000119,,433625.1999999881,,433626.925,8,400,,,
sequence,flow.Sequence,4_71,2023-11-01T16:27:39.955Z,,0,,,3465.270000011893,completion,,,,,false,,,,433625.5,433625.3000000119,430143.364,430149.1999999881,430160.03,433626.925,8,400,,,
trial,html.Screen,4_72_0,2023-11-01T16:27:43.576Z,,0,2,,3618.475000005972,response,ISIC_0073102.JPG,8,ISIC_6375439.JPG,ISIC_6375439.JPG,false,0,keypress(z),500,437245.8000000119,437245.40000000596,433610.259,433625.6999999881,433626.925,437260.113,8,400,23,,ISIC_0073102.JPG
break,html.Screen,4_72_1,2023-11-01T16:27:43.577Z,,0,,,NaN,,,,,,false,,,,437246.8000000119,437246.59999999404,,437246.09999999404,,437260.113,8,400,,,
break_continue,html.Screen,4_72_2,2023-11-01T16:27:43.577Z,,0,,,NaN,,,,,,false,,,,437247.09999999404,437247,,437246.90000000596,,437260.113,8,400,,,
sequence,flow.Sequence,4_72,2023-11-01T16:27:43.577Z,,0,,,3620.0750000000116,completion,,,,,false,,,,437247.1999999881,437247,433610.259,433625.6999999881,433626.925,437260.113,8,400,,,
trial,html.Screen,4_73_0,2023-11-01T16:27:48.014Z,,0,2,,4424.086999988067,response,ISIC_0014527.JPG,6,ISIC_1641823.JPG,ISIC_0014527.JPG,false,1,keypress(m),500,441684.5,441684.1999999881,437243.447,437247.40000000596,437260.113,441693.703,8,400,24,,ISIC_1641823.JPG
break,html.Screen,4_73_1,2023-11-01T16:27:48.015Z,,0,,,NaN,,,,,,false,,,,441685.5,441685.3000000119,,441684.8000000119,,441693.703,8,400,,,
break_continue,html.Screen,4_73_2,2023-11-01T16:27:48.016Z,,0,,,NaN,,,,,,false,,,,441685.8000000119,441685.6999999881,,441685.59999999404,,441693.703,8,400,,,
sequence,flow.Sequence,4_73,2023-11-01T16:27:48.016Z,,0,,,4425.586999988067,completion,,,,,false,,,,441686,441685.6999999881,437243.447,437247.3000000119,437260.113,441693.703,8,400,,,
trial,html.Screen,4_74_0,2023-11-01T16:27:52.214Z,,0,2,,4190.097000011941,response,ISIC_0015136.JPG,8,ISIC_0084086.JPG,ISIC_0084086.JPG,false,0,keypress(z),500,445884.1999999881,445883.8000000119,441677.037,441686.09999999404,441693.703,445893.535,8,400,25,,ISIC_0015136.JPG
break,html.Screen,4_74_1,2023-11-01T16:27:52.215Z,,0,,,NaN,,,,,,false,,,,445885.1999999881,445884.90000000596,,445884.5,,445893.535,8,400,,,
break_continue,html.Screen,4_74_2,2023-11-01T16:27:52.215Z,,0,,,NaN,,,,,,false,,,,445885.5,445885.40000000596,,445885.3000000119,,445893.535,8,400,,,
sequence,flow.Sequence,4_74,2023-11-01T16:27:52.216Z,,0,,,4191.697000005981,completion,,,,,false,,,,445885.59999999404,445885.40000000596,441677.037,441686.09999999404,441693.703,445893.535,8,400,,,
trial,html.Screen,4_75_0,2023-11-01T16:27:55.602Z,,0,2,,3378.4650000000256,response,ISIC_0028944.JPG,8,ISIC_3564136.JPG,ISIC_3564136.JPG,false,0,keypress(z),500,449272.3000000119,449272,445876.869,445885.8000000119,445893.535,449276.733,8,400,26,,ISIC_0028944.JPG
break,html.Screen,4_75_1,2023-11-01T16:27:55.603Z,,0,,,NaN,,,,,,false,,,,449273.3000000119,449273.09999999404,,449272.59999999404,,449276.733,8,400,,,
break_continue,html.Screen,4_75_2,2023-11-01T16:27:55.604Z,,0,,,NaN,,,,,,false,,,,449273.6999999881,449273.59999999404,,449273.5,,449276.733,8,400,,,
sequence,flow.Sequence,4_75,2023-11-01T16:27:55.604Z,,0,,,3380.064999994065,completion,,,,,false,,,,449273.8000000119,449273.59999999404,445876.869,445885.6999999881,445893.535,449276.733,8,400,,,
trial,html.Screen,4_76_0,2023-11-01T16:27:59.834Z,,0,2,,4226.466999988072,response,ISIC_0011994.JPG,6,ISIC_7833178.JPG,ISIC_0011994.JPG,false,1,keypress(m),500,453503.6999999881,453503.1999999881,449260.067,449274,449276.733,453510.259,8,400,27,,ISIC_7833178.JPG
break,html.Screen,4_76_1,2023-11-01T16:27:59.835Z,,0,,,NaN,,,,,,false,,,,453504.6999999881,453504.5,,453504,,453510.259,8,400,,,
break_continue,html.Screen,4_76_2,2023-11-01T16:27:59.835Z,,0,,,NaN,,,,,,false,,,,453505.09999999404,453504.90000000596,,453504.8000000119,,453510.259,8,400,,,
sequence,flow.Sequence,4_76,2023-11-01T16:27:59.835Z,,0,,,4228.167000005953,completion,,,,,false,,,,453505.1999999881,453504.90000000596,449260.067,449274,449276.733,453510.259,8,400,,,
trial,html.Screen,4_77_0,2023-11-01T16:28:02.976Z,,0,2,,3135.1410000059404,response,ISIC_0005762.JPG,8,ISIC_0068218.JPG,ISIC_0005762.JPG,false,1,keypress(m),500,456645.6999999881,456645.40000000596,453493.593,453505.3000000119,453510.259,456660.133,8,400,28,,ISIC_0068218.JPG
break,html.Screen,4_77_1,2023-11-01T16:28:02.977Z,,0,,,NaN,,,,,,false,,,,456646.6999999881,456646.59999999404,,456646,,456660.133,8,400,,,
break_continue,html.Screen,4_77_2,2023-11-01T16:28:02.977Z,,0,,,NaN,,,,,,false,,,,456647,456647,,456646.8000000119,,456660.133,8,400,,,
sequence,flow.Sequence,4_77,2023-11-01T16:28:02.977Z,,0,,,3136.74099999998,completion,,,,,false,,,,456647.3000000119,456647,453493.593,453505.3000000119,453510.259,456660.133,8,400,,,
trial,html.Screen,4_78_0,2023-11-01T16:28:06.379Z,,0,2,,3388.6670000119484,response,ISIC_4538661.JPG,8,ISIC_3559222.JPG,ISIC_3559222.JPG,false,0,keypress(z),500,460049.09999999404,460048.8000000119,456643.467,456647.40000000596,456660.133,460059.997,8,400,29,,ISIC_4538661.JPG
break,html.Screen,4_78_1,2023-11-01T16:28:06.380Z,,0,,,NaN,,,,,,false,,,,460050.09999999404,460049.8000000119,,460049.40000000596,,460059.997,8,400,,,
break_continue,html.Screen,4_78_2,2023-11-01T16:28:06.380Z,,0,,,NaN,,,,,,false,,,,460050.40000000596,460050.3000000119,,460050.1999999881,,460059.997,8,400,,,
sequence,flow.Sequence,4_78,2023-11-01T16:28:06.380Z,,0,,,3390.1670000119484,completion,,,,,false,,,,460050.59999999404,460050.3000000119,456643.467,456647.40000000596,456660.133,460059.997,8,400,,,
trial,html.Screen,4_79_0,2023-11-01T16:28:10.050Z,,0,2,,3659.803000011947,response,ISIC_0010213.JPG,8,ISIC_0002901.JPG,ISIC_0002901.JPG,false,0,keypress(z),500,463720,463719.8000000119,460043.331,460050.6999999881,460059.997,463726.923,8,400,30,,ISIC_0010213.JPG
break,html.Screen,4_79_1,2023-11-01T16:28:10.051Z,,0,,,NaN,,,,,,false,,,,463720.6999999881,463720.5,,463720.1999999881,,463726.923,8,400,,,
break_continue,html.Screen,4_79_2,2023-11-01T16:28:10.051Z,,0,,,NaN,,,,,,false,,,,463720.8000000119,463720.6999999881,,463720.6999999881,,463726.923,8,400,,,
sequence,flow.Sequence,4_79,2023-11-01T16:28:10.051Z,,0,,,3660.702999988105,completion,,,,,false,,,,463720.90000000596,463720.6999999881,460043.331,460050.59999999404,460059.997,463726.923,8,400,,,
trial,html.Screen,4_80_0,2023-11-01T16:28:14.375Z,,0,2,,4317.776999988069,response,ISIC_0033959.JPG,8,ISIC_4459528.JPG,ISIC_0033959.JPG,false,1,keypress(m),500,468045.09999999404,468044.6999999881,463710.257,463721,463726.923,468060.083,8,400,31,,ISIC_4459528.JPG
break,html.Screen,4_80_1,2023-11-01T16:28:14.376Z,,0,,,NaN,,,,,,false,,,,468046.09999999404,468045.8000000119,,468045.40000000596,,468060.083,8,400,,,
break_continue,html.Screen,4_80_2,2023-11-01T16:28:14.376Z,,0,,,NaN,,,,,,false,,,,468046.40000000596,468046.3000000119,,468046.1999999881,,468060.083,8,400,,,
sequence,flow.Sequence,4_80,2023-11-01T16:28:14.376Z,,0,,,4319.377000011911,completion,,,,,false,,,,468046.59999999404,468046.3000000119,463710.257,463721,463726.923,468060.083,8,400,,,
trial,html.Screen,4_81_0,2023-11-01T16:28:18.540Z,,0,2,,4150.016999994055,response,ISIC_0054673.JPG,9,ISIC_0033454.JPG,ISIC_0033454.JPG,false,0,keypress(z),500,472210.5,472210.09999999404,468043.417,468046.59999999404,468060.083,472226.964,8,400,32,,ISIC_0054673.JPG
break,html.Screen,4_81_1,2023-11-01T16:28:18.541Z,,0,,,NaN,,,,,,false,,,,472211.40000000596,472211.1999999881,,472210.6999999881,,472226.964,8,400,,,
break_continue,html.Screen,4_81_2,2023-11-01T16:28:18.542Z,,0,,,NaN,,,,,,false,,,,472211.6999999881,472211.59999999404,,472211.5,,472226.964,8,400,,,
sequence,flow.Sequence,4_81,2023-11-01T16:28:18.542Z,,0,,,4151.516999994055,completion,,,,,false,,,,472211.90000000596,472211.59999999404,468043.417,468046.59999999404,468060.083,472226.964,8,400,,,
trial,html.Screen,4_82_0,2023-11-01T16:28:21.553Z,,0,2,,2996.1359999940614,response,ISIC_0006158.JPG,4,ISIC_0711360.JPG,ISIC_0006158.JPG,false,1,keypress(m),500,475223.40000000596,475223.09999999404,472210.298,472212,472226.964,475226.844,8,400,33,,ISIC_0711360.JPG
break,html.Screen,4_82_1,2023-11-01T16:28:21.554Z,,0,,,NaN,,,,,,false,,,,475224.40000000596,475224.3000000119,,475223.8000000119,,475226.844,8,400,,,
break_continue,html.Screen,4_82_2,2023-11-01T16:28:21.555Z,,0,,,NaN,,,,,,false,,,,475224.8000000119,475224.59999999404,,475224.59999999404,,475226.844,8,400,,,
sequence,flow.Sequence,4_82,2023-11-01T16:28:21.555Z,,0,,,2997.6359999940614,completion,,,,,false,,,,475224.90000000596,475224.59999999404,472210.298,472212,472226.964,475226.844,8,400,,,
trial,html.Screen,4_83_0,2023-11-01T16:28:25.174Z,,0,2,,3616.956000011938,response,ISIC_7022381.JPG,7,ISIC_0010671.JPG,ISIC_0010671.JPG,false,0,keypress(z),500,478844.1999999881,478843.8000000119,475210.178,475225.09999999404,475226.844,478860.032,8,400,34,,ISIC_7022381.JPG
break,html.Screen,4_83_1,2023-11-01T16:28:25.175Z,,0,,,NaN,,,,,,false,,,,478845.09999999404,478845,,478844.5,,478860.032,8,400,,,
break_continue,html.Screen,4_83_2,2023-11-01T16:28:25.175Z,,0,,,NaN,,,,,,false,,,,478845.5,478845.40000000596,,478845.3000000119,,478860.032,8,400,,,
sequence,flow.Sequence,4_83,2023-11-01T16:28:25.176Z,,0,,,3618.5560000059777,completion,,,,,false,,,,478845.59999999404,478845.40000000596,475210.178,475225.09999999404,475226.844,478860.032,8,400,,,
trial,html.Screen,4_84_0,2023-11-01T16:28:32.685Z,,0,2,,7494.268000011914,response,ISIC_5552381.JPG,8,ISIC_0032721.JPG,ISIC_0032721.JPG,false,0,keypress(z),500,486354.59999999404,486354.3000000119,478843.366,478845.8000000119,478860.032,486360.058,8,400,35,,ISIC_5552381.JPG
break,html.Screen,4_84_1,2023-11-01T16:28:32.685Z,,0,,,NaN,,,,,,false,,,,486355.59999999404,486355.40000000596,,486355,,486360.058,8,400,,,
break_continue,html.Screen,4_84_2,2023-11-01T16:28:32.686Z,,0,,,NaN,,,,,,false,,,,486355.90000000596,486355.8000000119,,486355.6999999881,,486360.058,8,400,,,
sequence,flow.Sequence,4_84,2023-11-01T16:28:32.686Z,,0,,,7495.768000011914,completion,,,,,false,,,,486356,486355.8000000119,478843.366,478845.8000000119,478860.032,486360.058,8,400,,,
trial,html.Screen,4_85_0,2023-11-01T16:28:35.954Z,,0,2,,3263.64199998806,response,ISIC_0012048.JPG,8,ISIC_0032244.JPG,ISIC_0012048.JPG,false,1,keypress(m),500,489624.09999999404,489623.6999999881,486343.392,486356.1999999881,486360.058,489626.594,8,400,36,,ISIC_0032244.JPG
break,html.Screen,4_85_1,2023-11-01T16:28:35.955Z,,0,,,NaN,,,,,,false,,,,489625,489624.8000000119,,489624.40000000596,,489626.594,8,400,,,
break_continue,html.Screen,4_85_2,2023-11-01T16:28:35.955Z,,0,,,NaN,,,,,,false,,,,489625.40000000596,489625.1999999881,,489625.09999999404,,489626.594,8,400,,,
sequence,flow.Sequence,4_85,2023-11-01T16:28:35.955Z,,0,,,3265.14199998806,completion,,,,,false,,,,489625.5,489625.1999999881,486343.392,486356.1999999881,486360.058,489626.594,8,400,,,
trial,html.Screen,4_86_0,2023-11-01T16:28:40.728Z,,0,2,,4770.806000005978,response,ISIC_5602826.JPG,8,ISIC_2050512.JPG,ISIC_2050512.JPG,false,0,keypress(z),500,494397.6999999881,494397.40000000596,489609.928,489625.59999999404,489626.594,494410.141,8,400,37,,ISIC_5602826.JPG
break,html.Screen,4_86_1,2023-11-01T16:28:40.729Z,,0,,,NaN,,,,,,false,,,,494398.6999999881,494398.5,,494398,,494410.141,8,400,,,
break_continue,html.Screen,4_86_2,2023-11-01T16:28:40.729Z,,0,,,NaN,,,,,,false,,,,494399,494398.90000000596,,494398.8000000119,,494410.141,8,400,,,
sequence,flow.Sequence,4_86,2023-11-01T16:28:40.729Z,,0,,,4772.306000005978,completion,,,,,false,,,,494399.3000000119,494398.90000000596,489609.928,489625.59999999404,489626.594,494410.141,8,400,,,
trial,html.Screen,4_87_0,2023-11-01T16:28:44.146Z,,0,2,,3405.1590000119177,response,ISIC_0014766.JPG,6,ISIC_4507700.JPG,ISIC_4507700.JPG,false,0,keypress(z),500,497815.6999999881,497815.3000000119,494393.475,494399.40000000596,494410.141,497826.671,8,400,38,,ISIC_0014766.JPG
break,html.Screen,4_87_1,2023-11-01T16:28:44.146Z,,0,,,NaN,,,,,,false,,,,497816.59999999404,497816.40000000596,,497816,,497826.671,8,400,,,
break_continue,html.Screen,4_87_2,2023-11-01T16:28:44.147Z,,0,,,NaN,,,,,,false,,,,497817,497816.8000000119,,497816.8000000119,,497826.671,8,400,,,
sequence,flow.Sequence,4_87,2023-11-01T16:28:44.147Z,,0,,,3406.6590000119177,completion,,,,,false,,,,497817.09999999404,497816.8000000119,494393.475,494399.40000000596,494410.141,497826.671,8,400,,,
trial,html.Screen,4_88_0,2023-11-01T16:28:48.589Z,,0,2,,4431.7290000059875,response,ISIC_8575769.JPG,8,ISIC_7433993.JPG,ISIC_8575769.JPG,false,1,keypress(m),500,502258.6999999881,502258.40000000596,497810.005,497817.1999999881,497826.671,502259.827,8,400,39,,ISIC_7433993.JPG
break,html.Screen,4_88_1,2023-11-01T16:28:48.590Z,,0,,,NaN,,,,,,false,,,,502259.6999999881,502259.5,,502259.09999999404,,502259.827,8,400,,,
break_continue,html.Screen,4_88_2,2023-11-01T16:28:48.590Z,,0,,,NaN,,,,,,false,,,,502260,502259.90000000596,,502259.8000000119,,502259.827,8,400,,,
sequence,flow.Sequence,4_88,2023-11-01T16:28:48.591Z,,0,,,4433.2290000059875,completion,,,,,false,,,,502261.40000000596,502259.90000000596,497810.005,497817.1999999881,497826.671,502259.827,8,400,,,
trial,html.Screen,4_89_0,2023-11-01T16:28:52.180Z,,0,2,,3590.372999988089,response,ISIC_4384341.JPG,9,ISIC_5830274.JPG,ISIC_4384341.JPG,false,1,keypress(m),500,505850.59999999404,505850.1999999881,502243.161,502261.5,502259.827,505860.159,8,400,40,,ISIC_5830274.JPG
break,html.Screen,4_89_1,2023-11-01T16:28:52.181Z,,0,,,NaN,,,,,,false,,,,505851.5,505851.3000000119,,505850.90000000596,,505860.159,8,400,,,
break_continue,html.Screen,4_89_2,2023-11-01T16:28:52.182Z,,0,,,NaN,,,,,,false,,,,505852,505851.8000000119,,505851.6999999881,,505860.159,8,400,,,
sequence,flow.Sequence,4_89,2023-11-01T16:28:52.182Z,,0,,,3591.9730000119307,completion,,,,,false,,,,505852,505851.8000000119,502243.161,502261.5,502259.827,505860.159,8,400,,,
trial,html.Screen,4_90_0,2023-11-01T16:28:55.211Z,,0,2,,3021.040999988094,response,ISIC_0058768.JPG,7,ISIC_4212044.JPG,ISIC_4212044.JPG,false,0,keypress(z),500,508881.59999999404,508881.1999999881,505843.493,505852.1999999881,505860.159,508893.371,8,400,41,,ISIC_0058768.JPG
break,html.Screen,4_90_1,2023-11-01T16:28:55.212Z,,0,,,NaN,,,,,,false,,,,508882.59999999404,508882.5,,508881.90000000596,,508893.371,8,400,,,
break_continue,html.Screen,4_90_2,2023-11-01T16:28:55.213Z,,0,,,NaN,,,,,,false,,,,508883,508882.90000000596,,508882.8000000119,,508893.371,8,400,,,
sequence,flow.Sequence,4_90,2023-11-01T16:28:55.213Z,,0,,,3022.7410000059754,completion,,,,,false,,,,508883.09999999404,508882.90000000596,505843.493,505852.1999999881,505860.159,508893.371,8,400,,,
trial,html.Screen,4_91_0,2023-11-01T16:28:59.143Z,,0,2,,3919.029000005976,response,ISIC_0032187.JPG,8,ISIC_6404049.JPG,ISIC_6404049.JPG,false,0,keypress(z),500,512812.6999999881,512812.40000000596,508876.705,508883.3000000119,508893.371,512826.547,8,400,42,,ISIC_0032187.JPG
break,html.Screen,4_91_1,2023-11-01T16:28:59.144Z,,0,,,NaN,,,,,,false,,,,512813.6999999881,512813.5,,512813,,512826.547,8,400,,,
break_continue,html.Screen,4_91_2,2023-11-01T16:28:59.144Z,,0,,,NaN,,,,,,false,,,,512814.09999999404,512814,,512813.90000000596,,512826.547,8,400,,,
sequence,flow.Sequence,4_91,2023-11-01T16:28:59.144Z,,0,,,3920.6290000000154,completion,,,,,false,,,,512814.1999999881,512814,508876.705,508883.1999999881,508893.371,512826.547,8,400,,,
trial,html.Screen,4_92_0,2023-11-01T16:29:03.213Z,,0,2,,4055.85300000594,response,ISIC_0058408.JPG,7,ISIC_7763831.JPG,ISIC_7763831.JPG,false,0,keypress(z),500,516882.8000000119,516882.40000000596,512809.881,512814.40000000596,512826.547,516893.429,8,400,43,,ISIC_0058408.JPG
break,html.Screen,4_92_1,2023-11-01T16:29:03.214Z,,0,,,NaN,,,,,,false,,,,516883.6999999881,516883.5,,516883,,516893.429,8,400,,,
break_continue,html.Screen,4_92_2,2023-11-01T16:29:03.214Z,,0,,,NaN,,,,,,false,,,,516884.09999999404,516884,,516883.90000000596,,516893.429,8,400,,,
sequence,flow.Sequence,4_92,2023-11-01T16:29:03.214Z,,0,,,4057.4529999999795,completion,,,,,false,,,,516884.1999999881,516884,512809.881,512814.40000000596,512826.547,516893.429,8,400,,,
trial,html.Screen,4_93_0,2023-11-01T16:29:07.574Z,,0,2,,4350.371000011917,response,ISIC_0011530.JPG,8,ISIC_6269414.JPG,ISIC_6269414.JPG,false,0,keypress(z),500,521244.1999999881,521243.8000000119,516876.763,516884.40000000596,516893.429,521259.921,8,400,44,,ISIC_0011530.JPG
break,html.Screen,4_93_1,2023-11-01T16:29:07.575Z,,0,,,NaN,,,,,,false,,,,521245.1999999881,521245,,521244.40000000596,,521259.921,8,400,,,
break_continue,html.Screen,4_93_2,2023-11-01T16:29:07.575Z,,0,,,NaN,,,,,,false,,,,521245.5,521245.40000000596,,521245.3000000119,,521259.921,8,400,,,
sequence,flow.Sequence,4_93,2023-11-01T16:29:07.575Z,,0,,,4351.971000005957,completion,,,,,false,,,,521245.6999999881,521245.40000000596,516876.763,516884.3000000119,516893.429,521259.921,8,400,,,
trial,html.Screen,4_94_0,2023-11-01T16:29:11.100Z,,0,2,,3509.879000011948,response,ISIC_6732560.JPG,6,ISIC_0070585.JPG,ISIC_6732560.JPG,false,1,keypress(m),500,524770.1999999881,524769.8000000119,521243.255,521245.6999999881,521259.921,524776.447,8,400,45,,ISIC_0070585.JPG
break,html.Screen,4_94_1,2023-11-01T16:29:11.101Z,,0,,,NaN,,,,,,false,,,,524771.099999994,524770.900000006,,524770.5,,524776.447,8,400,,,
break_continue,html.Screen,4_94_2,2023-11-01T16:29:11.101Z,,0,,,NaN,,,,,,false,,,,524771.5,524771.400000006,,524771.1999999881,,524776.447,8,400,,,
sequence,flow.Sequence,4_94,2023-11-01T16:29:11.101Z,,0,,,3511.4790000059875,completion,,,,,false,,,,524771.6999999881,524771.400000006,521243.255,521245.6999999881,521259.921,524776.447,8,400,,,
trial,html.Screen,4_95_0,2023-11-01T16:29:14.706Z,,0,2,,3599.4530000059167,response,ISIC_0025327.JPG,8,ISIC_0032965.JPG,ISIC_0032965.JPG,false,0,keypress(z),500,528376.3000000119,528375.900000006,524759.781,524771.8000000119,524776.447,528393.362,8,400,46,,ISIC_0025327.JPG
break,html.Screen,4_95_1,2023-11-01T16:29:14.707Z,,0,,,NaN,,,,,,false,,,,528377.1999999881,528377,,528376.5,,528393.362,8,400,,,
break_continue,html.Screen,4_95_2,2023-11-01T16:29:14.707Z,,0,,,NaN,,,,,,false,,,,528377.6999999881,528377.400000006,,528377.3000000119,,528393.362,8,400,,,
sequence,flow.Sequence,4_95,2023-11-01T16:29:14.708Z,,0,,,3600.9530000059167,completion,,,,,false,,,,528377.8000000119,528377.400000006,524759.781,524771.8000000119,524776.447,528393.362,8,400,,,
trial,html.Screen,4_96_0,2023-11-01T16:29:18.969Z,,0,2,,4245.3379999881145,response,ISIC_6544382.JPG,6,ISIC_7777873.JPG,ISIC_7777873.JPG,false,0,keypress(z),500,532639.1999999881,532638.6999999881,528376.696,528377.900000006,528393.362,532643.192,8,400,47,,ISIC_6544382.JPG
break,html.Screen,4_96_1,2023-11-01T16:29:18.970Z,,0,,,NaN,,,,,,false,,,,532640.1999999881,532640,,532639.400000006,,532643.192,8,400,,,
break_continue,html.Screen,4_96_2,2023-11-01T16:29:18.970Z,,0,,,NaN,,,,,,false,,,,532640.5,532640.400000006,,532640.3000000119,,532643.192,8,400,,,
sequence,flow.Sequence,4_96,2023-11-01T16:29:18.970Z,,0,,,4247.038000005996,completion,,,,,false,,,,532640.6999999881,532640.400000006,528376.696,528377.900000006,528393.362,532643.192,8,400,,,
trial,html.Screen,4_97_0,2023-11-01T16:29:23.791Z,,0,2,,4817.108000011882,response,ISIC_0000552.JPG,5,ISIC_0032033.JPG,ISIC_0032033.JPG,false,0,keypress(z),500,537460.8000000119,537460.3000000119,532626.526,532640.8000000119,532643.192,537476.809,8,400,48,,ISIC_0000552.JPG
break,html.Screen,4_97_1,2023-11-01T16:29:23.792Z,,0,,,NaN,,,,,,false,,,,537461.6999999881,537461.5,,537461.099999994,,537476.809,8,400,,,
break_continue,html.Screen,4_97_2,2023-11-01T16:29:23.792Z,,0,,,NaN,,,,,,false,,,,537462.099999994,537461.900000006,,537461.900000006,,537476.809,8,400,,,
sequence,flow.Sequence,4_97,2023-11-01T16:29:23.792Z,,0,,,4818.708000005921,completion,,,,,false,,,,537462.3000000119,537461.900000006,532626.526,532640.6999999881,532643.192,537476.809,8,400,,,
trial,html.Screen,4_98_0,2023-11-01T16:30:17.700Z,,0,2,,53899.724000000046,timeout,ISIC_0013778.JPG,916,ISIC_0024624.JPG,,false,,,500,591350.8000000119,591350.5,537460.143,537462.400000006,537476.809,591376.533,8,400,49,,
break,html.Screen,4_98_1,2023-11-01T16:30:17.701Z,,0,,,NaN,,,,,,false,,,,591351.1999999881,591351.099999994,,591350.900000006,,591376.533,8,400,,,
break_continue,html.Screen,4_98_2,2023-11-01T16:30:17.701Z,,0,,,NaN,,,,,,false,,,,591351.3000000119,591351.1999999881,,591351.1999999881,,591376.533,8,400,,,
sequence,flow.Sequence,4_98,2023-11-01T16:30:17.701Z,,0,,,53874.39099998807,completion,,,,,false,,,,591351.400000006,591351.1999999881,537460.143,537462.3000000119,537476.809,591376.533,8,400,,,
trial,html.Screen,4_99_0,2023-11-01T16:30:22.394Z,,0,2,,4666.966999999946,response,ISIC_0063295.JPG,8,ISIC_0068407.JPG,ISIC_0063295.JPG,false,1,keypress(m),500,596043.8000000119,596043.5,591359.867,591351.400000006,591376.533,596059.679,8,400,50,,ISIC_0068407.JPG
break,html.Screen,4_99_1,2023-11-01T16:30:32.399Z,,0,,,9999.97900000005,timeout,,,,,false,,,,606048.5,606042.992,596043.013,596043.8000000119,596059.679,606059.658,8,400,,,
break_continue,html.Screen,4_99_2,2023-11-01T16:30:33.389Z,,0,,,962.341999999946,response,,,,,false,continue,keypress(Space),,607038.400000006,607022,606042.992,606048.6999999881,606059.658,607042.952,8,400,,,
sequence,flow.Sequence,4_99,2023-11-01T16:30:33.389Z,,0,,,15645.466999999946,completion,,,,,false,,,,607038.6999999881,607022,591359.867,591351.400000006,591376.533,607042.952,8,400,,,
trial,html.Screen,4_100_0,2023-11-01T16:30:37.080Z,,0,3,,3685.647999993991,response,ISIC_8853902.JPG,8,ISIC_0066878.JPG,ISIC_8853902.JPG,false,1,keypress(m),500,610729.099999994,610728.599999994,607026.286,607038.6999999881,607042.952,610743.238,8,400,1,,ISIC_0066878.JPG
break,html.Screen,4_100_1,2023-11-01T16:30:37.081Z,,0,,,NaN,,,,,,false,,,,610730.099999994,610729.900000006,,610729.5,,610743.238,8,400,,,
break_continue,html.Screen,4_100_2,2023-11-01T16:30:37.082Z,,0,,,NaN,,,,,,false,,,,610730.5,610730.3000000119,,610730.1999999881,,610743.238,8,400,,,
sequence,flow.Sequence,4_100,2023-11-01T16:30:37.082Z,,0,,,3687.3480000118725,completion,,,,,false,,,,610730.599999994,610730.3000000119,607026.286,607038.6999999881,607042.952,610743.238,8,400,,,
trial,html.Screen,4_101_0,2023-11-01T16:30:40.693Z,,0,3,,3597.761999999988,response,ISIC_9860895.JPG,7,ISIC_2563948.JPG,ISIC_9860895.JPG,false,1,keypress(m),500,614341.400000006,614341,610726.572,610730.6999999881,610743.238,614343.094,8,400,2,,ISIC_2563948.JPG
break,html.Screen,4_101_1,2023-11-01T16:30:40.693Z,,0,,,NaN,,,,,,false,,,,614342.3000000119,614342.099999994,,614341.599999994,,614343.094,8,400,,,
break_continue,html.Screen,4_101_2,2023-11-01T16:30:40.694Z,,0,,,NaN,,,,,,false,,,,614342.6999999881,614342.5,,614342.400000006,,614343.094,8,400,,,
sequence,flow.Sequence,4_101,2023-11-01T16:30:40.694Z,,0,,,3599.261999999988,completion,,,,,false,,,,614342.8000000119,614342.5,610726.572,610730.6999999881,610743.238,614343.094,8,400,,,
trial,html.Screen,4_102_0,2023-11-01T16:30:43.471Z,,0,3,,2776.20600001188,response,ISIC_0026531.JPG,7,ISIC_1403974.JPG,ISIC_1403974.JPG,false,0,keypress(z),500,617119.6999999881,617119.3000000119,614326.428,614342.900000006,614343.094,617126.316,8,400,3,,ISIC_0026531.JPG
break,html.Screen,4_102_1,2023-11-01T16:30:43.472Z,,0,,,NaN,,,,,,false,,,,617120.6999999881,617120.400000006,,617119.900000006,,617126.316,8,400,,,
break_continue,html.Screen,4_102_2,2023-11-01T16:30:43.472Z,,0,,,NaN,,,,,,false,,,,617121.099999994,617120.900000006,,617120.6999999881,,617126.316,8,400,,,
sequence,flow.Sequence,4_102,2023-11-01T16:30:43.472Z,,0,,,2777.8060000059195,completion,,,,,false,,,,617121.1999999881,617120.900000006,614326.428,614342.900000006,614343.094,617126.316,8,400,,,
trial,html.Screen,4_103_0,2023-11-01T16:30:47.272Z,,0,3,,3793.9840000119293,response,ISIC_0011356.JPG,8,ISIC_6790780.JPG,ISIC_6790780.JPG,false,0,keypress(z),500,620920.6999999881,620920.3000000119,617109.65,617121.3000000119,617126.316,620926.543,8,400,4,,ISIC_0011356.JPG
break,html.Screen,4_103_1,2023-11-01T16:30:47.273Z,,0,,,NaN,,,,,,false,,,,620921.599999994,620921.400000006,,620921,,620926.543,8,400,,,
break_continue,html.Screen,4_103_2,2023-11-01T16:30:47.273Z,,0,,,NaN,,,,,,false,,,,620922,620921.8000000119,,620921.6999999881,,620926.543,8,400,,,
sequence,flow.Sequence,4_103,2023-11-01T16:30:47.274Z,,0,,,3795.4840000119293,completion,,,,,false,,,,620922.099999994,620921.8000000119,617109.65,617121.3000000119,617126.316,620926.543,8,400,,,
trial,html.Screen,4_104_0,2023-11-01T16:30:50.846Z,,0,3,,3568.156999988132,response,ISIC_0429825.JPG,6,ISIC_2748873.JPG,ISIC_0429825.JPG,false,1,keypress(m),500,624495,624494.6999999881,620909.877,620922.1999999881,620926.543,624509.733,8,400,5,,ISIC_2748873.JPG
break,html.Screen,4_104_1,2023-11-01T16:30:50.847Z,,0,,,NaN,,,,,,false,,,,624495.900000006,624495.6999999881,,624495.3000000119,,624509.733,8,400,,,
break_continue,html.Screen,4_104_2,2023-11-01T16:30:50.848Z,,0,,,NaN,,,,,,false,,,,624496.3000000119,624496.099999994,,624496,,624509.733,8,400,,,
sequence,flow.Sequence,4_104,2023-11-01T16:30:50.848Z,,0,,,3569.5569999940926,completion,,,,,false,,,,624496.400000006,624496.099999994,620909.877,620922.1999999881,620926.543,624509.733,8,400,,,
trial,html.Screen,4_105_0,2023-11-01T16:30:54.167Z,,0,3,,3305.0670000119135,response,ISIC_7942881.JPG,7,ISIC_2468509.JPG,ISIC_2468509.JPG,false,0,keypress(z),500,627815.099999994,627814.8000000119,624493.067,624496.5,624509.733,627826.267,8,400,6,,ISIC_7942881.JPG
break,html.Screen,4_105_1,2023-11-01T16:30:54.167Z,,0,,,NaN,,,,,,false,,,,627815.900000006,627815.6999999881,,627815.3000000119,,627826.267,8,400,,,
break_continue,html.Screen,4_105_2,2023-11-01T16:30:54.168Z,,0,,,NaN,,,,,,false,,,,627816.099999994,627816.099999994,,627816,,627826.267,8,400,,,
sequence,flow.Sequence,4_105,2023-11-01T16:30:54.168Z,,0,,,3306.366999994032,completion,,,,,false,,,,627816.3000000119,627816.099999994,624493.067,624496.5,624509.733,627826.267,8,400,,,
trial,html.Screen,4_106_0,2023-11-01T16:30:56.957Z,,0,3,,2778.832999994047,response,ISIC_0072371.JPG,8,ISIC_0055289.JPG,ISIC_0072371.JPG,false,1,keypress(m),500,630605.5,630605.099999994,627809.601,627816.3000000119,627826.267,630609.489,8,400,7,,ISIC_0055289.JPG
break,html.Screen,4_106_1,2023-11-01T16:30:56.958Z,,0,,,NaN,,,,,,false,,,,630606.400000006,630606.1999999881,,630605.6999999881,,630609.489,8,400,,,
break_continue,html.Screen,4_106_2,2023-11-01T16:30:56.958Z,,0,,,NaN,,,,,,false,,,,630606.6999999881,630606.599999994,,630606.5,,630609.489,8,400,,,
sequence,flow.Sequence,4_106,2023-11-01T16:30:56.958Z,,0,,,2780.332999994047,completion,,,,,false,,,,630606.900000006,630606.599999994,627809.601,627816.3000000119,627826.267,630609.489,8,400,,,
trial,html.Screen,4_107_0,2023-11-01T16:31:00.322Z,,0,3,,3361.011000000057,response,ISIC_7340247.JPG,8,ISIC_1241817.JPG,ISIC_7340247.JPG,false,1,keypress(m),500,633970.900000006,633970.5,630592.823,630607,630609.489,633976.452,8,400,8,,ISIC_1241817.JPG
break,html.Screen,4_107_1,2023-11-01T16:31:00.323Z,,0,,,NaN,,,,,,false,,,,633971.8000000119,633971.599999994,,633971.1999999881,,633976.452,8,400,,,
break_continue,html.Screen,4_107_2,2023-11-01T16:31:00.324Z,,0,,,NaN,,,,,,false,,,,633972.1999999881,633972.099999994,,633971.900000006,,633976.452,8,400,,,
sequence,flow.Sequence,4_107,2023-11-01T16:31:00.324Z,,0,,,3362.6109999940963,completion,,,,,false,,,,633972.3000000119,633972.099999994,630592.823,630607,630609.489,633976.452,8,400,,,
trial,html.Screen,4_108_0,2023-11-01T16:31:03.407Z,,0,3,,3078.147999993991,response,ISIC_0030747.JPG,6,ISIC_0011750.JPG,ISIC_0030747.JPG,false,1,keypress(m),500,637055,637054.599999994,633959.786,633972.400000006,633976.452,637059.662,8,400,9,,ISIC_0011750.JPG
break,html.Screen,4_108_1,2023-11-01T16:31:03.408Z,,0,,,NaN,,,,,,false,,,,637055.900000006,637055.6999999881,,637055.3000000119,,637059.662,8,400,,,
break_continue,html.Screen,4_108_2,2023-11-01T16:31:03.408Z,,0,,,NaN,,,,,,false,,,,637056.3000000119,637056.1999999881,,637056.099999994,,637059.662,8,400,,,
sequence,flow.Sequence,4_108,2023-11-01T16:31:03.408Z,,0,,,3079.7479999880306,completion,,,,,false,,,,637056.5,637056.1999999881,633959.786,633972.400000006,633976.452,637059.662,8,400,,,
trial,html.Screen,4_109_0,2023-11-01T16:31:07.322Z,,0,3,,3910.537999988068,response,ISIC_0009289.JPG,8,ISIC_0025472.JPG,ISIC_0009289.JPG,false,1,keypress(m),500,640970.599999994,640970.1999999881,637042.996,637056.599999994,637059.662,640976.172,8,400,10,,ISIC_0025472.JPG
break,html.Screen,4_109_1,2023-11-01T16:31:07.323Z,,0,,,NaN,,,,,,false,,,,640971.5,640971.3000000119,,640970.8000000119,,640976.172,8,400,,,
break_continue,html.Screen,4_109_2,2023-11-01T16:31:07.324Z,,0,,,NaN,,,,,,false,,,,640971.8000000119,640971.8000000119,,640971.599999994,,640976.172,8,400,,,
sequence,flow.Sequence,4_109,2023-11-01T16:31:07.324Z,,0,,,3912.1380000119098,completion,,,,,false,,,,640972,640971.8000000119,637042.996,637056.599999994,637059.662,640976.172,8,400,,,
trial,html.Screen,4_110_0,2023-11-01T16:31:10.725Z,,0,3,,3397.1280000119004,response,ISIC_6913045.JPG,8,ISIC_3136228.JPG,ISIC_6913045.JPG,false,1,keypress(m),500,644373.6999999881,644373.3000000119,640959.506,640972.099999994,640976.172,644376.427,8,400,11,,ISIC_3136228.JPG
break,html.Screen,4_110_1,2023-11-01T16:31:10.726Z,,0,,,NaN,,,,,,false,,,,644374.6999999881,644374.400000006,,644374,,644376.427,8,400,,,
break_continue,html.Screen,4_110_2,2023-11-01T16:31:10.727Z,,0,,,NaN,,,,,,false,,,,644375.099999994,644374.900000006,,644374.8000000119,,644376.427,8,400,,,
sequence,flow.Sequence,4_110,2023-11-01T16:31:10.727Z,,0,,,3398.72800000594,completion,,,,,false,,,,644375.099999994,644374.900000006,640959.506,640972.099999994,640976.172,644376.427,8,400,,,
trial,html.Screen,4_111_0,2023-11-01T16:31:16.959Z,,0,3,,6230.072999999975,response,ISIC_0033501.JPG,8,ISIC_4468129.JPG,ISIC_4468129.JPG,false,0,keypress(z),500,650606.900000006,650606.5,644359.761,644375.3000000119,644376.427,650609.511,8,400,12,,ISIC_0033501.JPG
break,html.Screen,4_111_1,2023-11-01T16:31:16.960Z,,0,,,NaN,,,,,,false,,,,650607.900000006,650607.6999999881,,650607.1999999881,,650609.511,8,400,,,
break_continue,html.Screen,4_111_2,2023-11-01T16:31:16.960Z,,0,,,NaN,,,,,,false,,,,650608.3000000119,650608.1999999881,,650608.099999994,,650609.511,8,400,,,
sequence,flow.Sequence,4_111,2023-11-01T16:31:16.960Z,,0,,,6231.772999988054,completion,,,,,false,,,,650608.5,650608.1999999881,644359.761,644375.3000000119,644376.427,650609.511,8,400,,,
trial,html.Screen,4_112_0,2023-11-01T16:31:21.046Z,,0,3,,4084.3890000059037,response,ISIC_3234899.JPG,7,ISIC_0056444.JPG,ISIC_3234899.JPG,false,1,keypress(m),500,654694.3000000119,654693.900000006,650592.845,650608.599999994,650609.511,654709.765,8,400,13,,ISIC_0056444.JPG
break,html.Screen,4_112_1,2023-11-01T16:31:21.047Z,,0,,,NaN,,,,,,false,,,,654695.3000000119,654695.099999994,,654694.5,,654709.765,8,400,,,
break_continue,html.Screen,4_112_2,2023-11-01T16:31:21.047Z,,0,,,NaN,,,,,,false,,,,654695.6999999881,654695.5,,654695.400000006,,654709.765,8,400,,,
sequence,flow.Sequence,4_112,2023-11-01T16:31:21.048Z,,0,,,4085.988999999943,completion,,,,,false,,,,654695.8000000119,654695.5,650592.845,650608.5,650609.511,654709.765,8,400,,,
trial,html.Screen,4_113_0,2023-11-01T16:31:24.045Z,,0,3,,2982.535000011907,response,ISIC_0897526.JPG,8,ISIC_2466892.JPG,ISIC_2466892.JPG,false,0,keypress(z),500,657692.6999999881,657692.3000000119,654693.099,654695.900000006,654709.765,657709.645,8,400,14,,ISIC_0897526.JPG
break,html.Screen,4_113_1,2023-11-01T16:31:24.046Z,,0,,,NaN,,,,,,false,,,,657693.6999999881,657693.400000006,,657693,,657709.645,8,400,,,
break_continue,html.Screen,4_113_2,2023-11-01T16:31:24.046Z,,0,,,NaN,,,,,,false,,,,657694,657694,,657693.8000000119,,657709.645,8,400,,,
sequence,flow.Sequence,4_113,2023-11-01T16:31:24.046Z,,0,,,2984.234999999986,completion,,,,,false,,,,657694.1999999881,657694,654693.099,654695.8000000119,654709.765,657709.645,8,400,,,
trial,html.Screen,4_114_0,2023-11-01T16:31:28.421Z,,0,3,,4358.55499998806,response,ISIC_1722909.JPG,8,ISIC_0029409.JPG,ISIC_0029409.JPG,false,0,keypress(z),500,662068.599999994,662068.1999999881,657692.979,657694.3000000119,657709.645,662076.137,8,400,15,,ISIC_1722909.JPG
break,html.Screen,4_114_1,2023-11-01T16:31:28.422Z,,0,,,NaN,,,,,,false,,,,662069.599999994,662069.400000006,,662069,,662076.137,8,400,,,
break_continue,html.Screen,4_114_2,2023-11-01T16:31:28.422Z,,0,,,NaN,,,,,,false,,,,662070,662069.900000006,,662069.8000000119,,662076.137,8,400,,,
sequence,flow.Sequence,4_114,2023-11-01T16:31:28.422Z,,0,,,4360.255000005942,completion,,,,,false,,,,662070.1999999881,662069.900000006,657692.979,657694.3000000119,657709.645,662076.137,8,400,,,
trial,html.Screen,4_115_0,2023-11-01T16:31:31.482Z,,0,3,,3053.562999988091,response,ISIC_9058340.JPG,6,ISIC_0033638.JPG,ISIC_0033638.JPG,false,0,keypress(z),500,665130.099999994,665129.6999999881,662059.471,662070.1999999881,662076.137,665143.055,8,400,16,,ISIC_9058340.JPG
break,html.Screen,4_115_1,2023-11-01T16:31:31.483Z,,0,,,NaN,,,,,,false,,,,665131.099999994,665130.900000006,,665130.400000006,,665143.055,8,400,,,
break_continue,html.Screen,4_115_2,2023-11-01T16:31:31.483Z,,0,,,NaN,,,,,,false,,,,665131.400000006,665131.3000000119,,665131.1999999881,,665143.055,8,400,,,
sequence,flow.Sequence,4_115,2023-11-01T16:31:31.483Z,,0,,,3055.163000011933,completion,,,,,false,,,,665131.5,665131.3000000119,662059.471,662070.1999999881,662076.137,665143.055,8,400,,,
trial,html.Screen,4_116_0,2023-11-01T16:31:34.785Z,,0,3,,3289.644999988028,response,ISIC_0033278.JPG,8,ISIC_4417495.JPG,ISIC_4417495.JPG,false,0,keypress(z),500,668433.1999999881,668432.6999999881,665126.389,665131.6999999881,665143.055,668442.923,8,400,17,,ISIC_0033278.JPG
break,html.Screen,4_116_1,2023-11-01T16:31:34.786Z,,0,,,NaN,,,,,,false,,,,668434.099999994,668434,,668433.5,,668442.923,8,400,,,
break_continue,html.Screen,4_116_2,2023-11-01T16:31:34.787Z,,0,,,NaN,,,,,,false,,,,668434.599999994,668434.3000000119,,668434.3000000119,,668442.923,8,400,,,
sequence,flow.Sequence,4_116,2023-11-01T16:31:34.787Z,,0,,,3291.2450000118697,completion,,,,,false,,,,668434.6999999881,668434.3000000119,665126.389,665131.599999994,665143.055,668442.923,8,400,,,
trial,html.Screen,4_117_0,2023-11-01T16:31:38.856Z,,0,3,,4060.477000006009,response,ISIC_2876073.JPG,8,ISIC_8060329.JPG,ISIC_2876073.JPG,false,1,keypress(m),500,672503.6999999881,672503.400000006,668426.257,668434.900000006,668442.923,672509.427,8,400,18,,ISIC_8060329.JPG
break,html.Screen,4_117_1,2023-11-01T16:31:38.857Z,,0,,,NaN,,,,,,false,,,,672504.6999999881,672504.400000006,,672504,,672509.427,8,400,,,
break_continue,html.Screen,4_117_2,2023-11-01T16:31:38.857Z,,0,,,NaN,,,,,,false,,,,672505,672504.900000006,,672504.8000000119,,672509.427,8,400,,,
sequence,flow.Sequence,4_117,2023-11-01T16:31:38.857Z,,0,,,4061.977000006009,completion,,,,,false,,,,672505.1999999881,672504.900000006,668426.257,668434.8000000119,668442.923,672509.427,8,400,,,
trial,html.Screen,4_118_0,2023-11-01T16:31:42.766Z,,0,3,,3904.6729999940144,response,ISIC_0011627.JPG,8,ISIC_0032690.JPG,ISIC_0032690.JPG,false,0,keypress(z),500,676414.5,676414.099999994,672492.761,672505.3000000119,672509.427,676426.33,8,400,19,,ISIC_0011627.JPG
break,html.Screen,4_118_1,2023-11-01T16:31:42.767Z,,0,,,NaN,,,,,,false,,,,676415.5,676415.3000000119,,676414.8000000119,,676426.33,8,400,,,
break_continue,html.Screen,4_118_2,2023-11-01T16:31:42.768Z,,0,,,NaN,,,,,,false,,,,676415.8000000119,676415.6999999881,,676415.599999994,,676426.33,8,400,,,
sequence,flow.Sequence,4_118,2023-11-01T16:31:42.768Z,,0,,,3906.272999988054,completion,,,,,false,,,,676416,676415.6999999881,672492.761,672505.3000000119,672509.427,676426.33,8,400,,,
trial,html.Screen,4_119_0,2023-11-01T16:31:46.069Z,,0,3,,3290.7699999940814,response,ISIC_0000541.JPG,7,ISIC_7693995.JPG,ISIC_0000541.JPG,false,1,keypress(m),500,679717.5,679717.099999994,676409.664,676416.099999994,676426.33,679726.198,8,400,20,,ISIC_7693995.JPG
break,html.Screen,4_119_1,2023-11-01T16:31:46.070Z,,0,,,NaN,,,,,,false,,,,679718.599999994,679718.3000000119,,679717.8000000119,,679726.198,8,400,,,
break_continue,html.Screen,4_119_2,2023-11-01T16:31:46.071Z,,0,,,NaN,,,,,,false,,,,679718.8000000119,679718.6999999881,,679718.599999994,,679726.198,8,400,,,
sequence,flow.Sequence,4_119,2023-11-01T16:31:46.071Z,,0,,,3292.369999988121,completion,,,,,false,,,,679719,679718.6999999881,676409.664,676416.099999994,676426.33,679726.198,8,400,,,
trial,html.Screen,4_120_0,2023-11-01T16:31:49.119Z,,0,3,,3040.302000000025,response,ISIC_0010658.JPG,7,ISIC_0057344.JPG,ISIC_0057344.JPG,false,0,keypress(z),500,682766.900000006,682766.5,679709.532,679719.099999994,679726.198,682776.076,8,400,21,,ISIC_0010658.JPG
break,html.Screen,4_120_1,2023-11-01T16:31:49.120Z,,0,,,NaN,,,,,,false,,,,682767.900000006,682767.599999994,,682767.1999999881,,682776.076,8,400,,,
break_continue,html.Screen,4_120_2,2023-11-01T16:31:49.120Z,,0,,,NaN,,,,,,false,,,,682768.1999999881,682768.099999994,,682768,,682776.076,8,400,,,
sequence,flow.Sequence,4_120,2023-11-01T16:31:49.120Z,,0,,,3041.9019999940647,completion,,,,,false,,,,682768.400000006,682768.099999994,679709.532,679719.099999994,679726.198,682776.076,8,400,,,
trial,html.Screen,4_121_0,2023-11-01T16:31:52.201Z,,0,3,,3072.623999988078,response,ISIC_4836699.JPG,9,ISIC_0063926.JPG,ISIC_4836699.JPG,false,1,keypress(m),500,685849.099999994,685848.6999999881,682759.41,682768.5,682776.076,685859.69,8,400,22,,ISIC_0063926.JPG
break,html.Screen,4_121_1,2023-11-01T16:31:52.202Z,,0,,,NaN,,,,,,false,,,,685850.099999994,685849.900000006,,685849.400000006,,685859.69,8,400,,,
break_continue,html.Screen,4_121_2,2023-11-01T16:31:52.203Z,,0,,,NaN,,,,,,false,,,,685850.5,685850.400000006,,685850.1999999881,,685859.69,8,400,,,
sequence,flow.Sequence,4_121,2023-11-01T16:31:52.203Z,,0,,,3074.3240000059595,completion,,,,,false,,,,685850.6999999881,685850.400000006,682759.41,682768.5,682776.076,685859.69,8,400,,,
trial,html.Screen,4_122_0,2023-11-01T16:31:55.647Z,,0,3,,3435.2100000060163,response,ISIC_7835257.JPG,8,ISIC_0057362.JPG,ISIC_7835257.JPG,false,1,keypress(m),500,689295.400000006,689294.900000006,685843.024,685850.8000000119,685859.69,689309.552,8,400,23,,ISIC_0057362.JPG
break,html.Screen,4_122_1,2023-11-01T16:31:55.648Z,,0,,,NaN,,,,,,false,,,,689296.400000006,689296.1999999881,,689295.6999999881,,689309.552,8,400,,,
break_continue,html.Screen,4_122_2,2023-11-01T16:31:55.649Z,,0,,,NaN,,,,,,false,,,,689296.900000006,689296.6999999881,,689296.599999994,,689309.552,8,400,,,
sequence,flow.Sequence,4_122,2023-11-01T16:31:55.649Z,,0,,,3437.009999988135,completion,,,,,false,,,,689297,689296.6999999881,685843.024,685850.8000000119,685859.69,689309.552,8,400,,,
trial,html.Screen,4_123_0,2023-11-01T16:32:00.535Z,,0,3,,4872.748000011896,response,ISIC_0034087.JPG,7,ISIC_0026371.JPG,ISIC_0026371.JPG,false,0,keypress(z),500,694182.599999994,694182.3000000119,689292.886,689297.099999994,689309.552,694193,8,400,24,,ISIC_0034087.JPG
break,html.Screen,4_123_1,2023-11-01T16:32:00.536Z,,0,,,NaN,,,,,,false,,,,694183.599999994,694183.400000006,,694183,,694193,8,400,,,
break_continue,html.Screen,4_123_2,2023-11-01T16:32:00.536Z,,0,,,NaN,,,,,,false,,,,694184.099999994,694184,,694183.8000000119,,694193,8,400,,,
sequence,flow.Sequence,4_123,2023-11-01T16:32:00.536Z,,0,,,4874.447999999975,completion,,,,,false,,,,694184.3000000119,694184,689292.886,689297.099999994,689309.552,694193,8,400,,,
trial,html.Screen,4_124_0,2023-11-01T16:32:03.647Z,,0,3,,3101.199999988079,response,ISIC_0033724.JPG,8,ISIC_0239949.JPG,ISIC_0033724.JPG,false,1,keypress(m),500,697294.6999999881,697294.1999999881,694176.334,694184.3000000119,694193,697309.542,8,400,25,,ISIC_0239949.JPG
break,html.Screen,4_124_1,2023-11-01T16:32:03.648Z,,0,,,NaN,,,,,,false,,,,697295.6999999881,697295.400000006,,697295,,697309.542,8,400,,,
break_continue,html.Screen,4_124_2,2023-11-01T16:32:03.648Z,,0,,,NaN,,,,,,false,,,,697296,697295.900000006,,697295.6999999881,,697309.542,8,400,,,
sequence,flow.Sequence,4_124,2023-11-01T16:32:03.648Z,,0,,,3102.9000000059605,completion,,,,,false,,,,697296.1999999881,697295.900000006,694176.334,694184.3000000119,694193,697309.542,8,400,,,
trial,html.Screen,4_125_0,2023-11-01T16:32:08.663Z,,0,3,,5001.358000005945,response,ISIC_0905367.JPG,8,ISIC_8959928.JPG,ISIC_8959928.JPG,false,0,keypress(z),500,702311.400000006,702310.900000006,697292.876,697296.1999999881,697309.542,702326.008,8,400,26,,ISIC_0905367.JPG
break,html.Screen,4_125_1,2023-11-01T16:32:08.664Z,,0,,,NaN,,,,,,false,,,,702312.3000000119,702312.099999994,,702311.599999994,,702326.008,8,400,,,
break_continue,html.Screen,4_125_2,2023-11-01T16:32:08.665Z,,0,,,NaN,,,,,,false,,,,702312.6999999881,702312.599999994,,702312.400000006,,702326.008,8,400,,,
sequence,flow.Sequence,4_125,2023-11-01T16:32:08.665Z,,0,,,5003.057999994024,completion,,,,,false,,,,702313,702312.599999994,697292.876,697296.1999999881,697309.542,702326.008,8,400,,,
