sender,sender_type,sender_id,timestamp,meta,,blockNo,condition,duration,ended_on,img_left,img_reveal,img_right,loser,practice,response,response_action,selection_duration,time_commit,time_end,time_render,time_run,time_show,time_switch,total_blocks,total_trials,trialNo,url,winner
informed_consent,html.Screen,0,2023-11-05T19:30:56.288Z,"{""labjs_version"":""20.2.4"",""labjs_build"":{""flavor"":""production"",""commit"":""f5b4a49f956347addd546a832a3327688c2c0fef""},""location"":""https://run.pavlovia.org/MurrayBennett/melanoma-2afc/?participant=67598&platform=sona"",""userAgent"":""Mozilla/5.0 (Windows NT 10.0; Win64; x64) AppleWebKit/537.36 (KHTML, like Gecko) Chrome/118.0.0.0 Safari/537.36 Edg/118.0.2088.69"",""platform"":""Win32"",""language"":""en-US"",""locale"":""en-US"",""timeZone"":""America/Chicago"",""timezoneOffset"":360,""screen_width"":1536,""screen_height"":864,""scroll_width"":1528,""scroll_height"":690,""window_innerWidth"":1528,""window_innerHeight"":738,""devicePixelRatio"":1.25}",,,,2829.143000047684,response,,,,,,consent,click button,,4494.600000023842,4493.200000047684,1630.702,1619.3999999761581,1664.057,4530.725,,,,"{""participant"":""67598"",""platform"":""sona""}",
Welcome,html.Screen,1,2023-11-05T19:30:57.800Z,,,,uniform,1474.3750000238415,response,,,,,,continue,click button,,6006.100000023842,6005.100000023842,4497.378,4494.600000023842,4530.725,6030.793,,,,,
trial,html.Screen,2_0_0,2023-11-05T19:31:02.061Z,,0,0,,4236.6069999761585,response,ISIC_0063388.JPG,,ISIC_0025593.JPG,ISIC_0025593.JPG,true,0,keypress(z),500,10267.5,10267.399999976158,5997.251,6006.300000071526,6030.793,10297.303,1,6,1,,ISIC_0063388.JPG
sequence,flow.Sequence,2_0,2023-11-05T19:31:02.061Z,,0,,,4236.6069999761585,completion,,,,,true,,,,10267.700000047684,10267.399999976158,5997.251,6006.300000071526,6030.793,10297.303,1,6,,,
trial,html.Screen,2_1_0,2023-11-05T19:31:06.326Z,,0,0,,4234.497000071526,response,ISIC_0028178.JPG,,ISIC_1309015.JPG,ISIC_1309015.JPG,true,0,keypress(z),500,14532,14531.800000071526,10263.943,10267.700000047684,10297.303,14563.878,1,6,2,,ISIC_0028178.JPG
sequence,flow.Sequence,2_1,2023-11-05T19:31:06.326Z,,0,,,4234.497000071526,completion,,,,,true,,,,14532.100000023842,14531.800000071526,10263.943,10267.700000047684,10297.303,14563.878,1,6,,,
trial,html.Screen,2_2_0,2023-11-05T19:31:10.552Z,,0,0,,4194.0219999761575,response,ISIC_0031128.JPG,,ISIC_3314853.JPG,ISIC_0031128.JPG,true,1,keypress(m),500,18758,18757.899999976158,14530.393,14532.200000047684,14563.878,18763.758,1,6,3,,ISIC_3314853.JPG
sequence,flow.Sequence,2_2,2023-11-05T19:31:10.552Z,,0,,,4194.0219999761575,completion,,,,,true,,,,18758.100000023842,18757.899999976158,14530.393,14532.100000023842,14563.878,18763.758,1,6,,,
trial,html.Screen,2_3_0,2023-11-05T19:31:13.790Z,,0,0,,3232.542000071524,response,ISIC_8980141.JPG,,ISIC_0031612.JPG,ISIC_0031612.JPG,true,0,keypress(z),500,21996.399999976158,21996.300000071526,18747.223,18758.100000023842,18763.758,22030.404,1,6,4,,ISIC_8980141.JPG
sequence,flow.Sequence,2_3,2023-11-05T19:31:13.790Z,,0,,,3232.542000071524,completion,,,,,true,,,,21996.700000047684,21996.300000071526,18747.223,18758.100000023842,18763.758,22030.404,1,6,,,
trial,html.Screen,2_4_0,2023-11-05T19:31:17.170Z,,0,0,,3345.896000071527,response,ISIC_1197737.JPG,,ISIC_9721604.JPG,ISIC_1197737.JPG,true,1,keypress(m),500,25376.399999976158,25376.300000071526,21996.977,21996.700000047684,22030.404,25396.933,1,6,5,,ISIC_9721604.JPG
sequence,flow.Sequence,2_4,2023-11-05T19:31:17.170Z,,0,,,3345.896000071527,completion,,,,,true,,,,25376.5,25376.300000071526,21996.977,21996.700000047684,22030.404,25396.933,1,6,,,
trial,html.Screen,2_5_0,2023-11-05T19:31:20.281Z,,0,0,,3089.9669999761572,response,ISIC_0010681.JPG,,ISIC_0025346.JPG,ISIC_0025346.JPG,true,0,keypress(z),500,28487,28486.899999976158,25363.636,25376.5,25396.933,28513.587,1,6,6,,ISIC_0010681.JPG
sequence,flow.Sequence,2_5,2023-11-05T19:31:20.281Z,,0,,,3089.9669999761572,completion,,,,,true,,,,28487.300000071526,28486.899999976158,25363.636,25376.5,25396.933,28513.587,1,6,,,
loop,flow.Loop,2,2023-11-05T19:31:20.281Z,,,,,22456.10699997616,completion,,,,,true,,,,28487.600000023842,28486.899999976158,5997.251,6006.200000047684,6030.793,28513.587,1,6,,,
exp_instructions,html.Screen,3,2023-11-05T19:31:23.289Z,,,,,2981.5130000238423,response,,,,,,continue,keypress(Space),,31495.800000071526,31495.100000023842,28480.375,28487.800000071526,28513.587,31518.096,,,,,
trial,html.Screen,4_0_0,2023-11-05T19:31:26.847Z,,0,1,,3535.1040000476823,response,ISIC_5884700.JPG,7,ISIC_6250970.JPG,ISIC_5884700.JPG,false,1,keypress(m),500,35053.39999997616,35053.200000047684,31480.124,31496,31518.096,35080.862,8,400,1,,ISIC_6250970.JPG
break,html.Screen,4_0_1,2023-11-05T19:31:26.848Z,,0,,,NaN,,,,,,false,,,,35054.5,35054.200000047684,,35053.60000002384,,35080.862,8,400,,,
break_continue,html.Screen,4_0_2,2023-11-05T19:31:26.848Z,,0,,,NaN,,,,,,false,,,,35054.800000071526,35054.700000047684,,35054.60000002384,,35080.862,8,400,,,
sequence,flow.Sequence,4_0,2023-11-05T19:31:26.848Z,,0,,,3536.6040000476823,completion,,,,,false,,,,35055,35054.700000047684,31480.124,31496,31518.096,35080.862,8,400,,,
trial,html.Screen,4_1_0,2023-11-05T19:31:29.923Z,,0,1,,3048.137999999999,response,ISIC_1300967.JPG,258,ISIC_5550263.JPG,ISIC_1300967.JPG,false,1,keypress(m),500,38129.200000047684,38129,35046.894,35055.10000002384,35080.862,38153.602,8,400,2,,ISIC_5550263.JPG
break,html.Screen,4_1_1,2023-11-05T19:31:29.924Z,,0,,,NaN,,,,,,false,,,,38130.200000047684,38129.89999997616,,38129.39999997616,,38153.602,8,400,,,
break_continue,html.Screen,4_1_2,2023-11-05T19:31:29.924Z,,0,,,NaN,,,,,,false,,,,38130.5,38130.39999997616,,38130.300000071526,,38153.602,8,400,,,
sequence,flow.Sequence,4_1,2023-11-05T19:31:29.924Z,,0,,,3049.537999976157,completion,,,,,false,,,,38130.60000002384,38130.39999997616,35046.894,35055.10000002384,35080.862,38153.602,8,400,,,
trial,html.Screen,4_2_0,2023-11-05T19:31:32.967Z,,0,1,,3019.6980000715266,response,ISIC_9921747.JPG,12,ISIC_0058998.JPG,ISIC_0058998.JPG,false,0,keypress(z),500,41173.5,41173.300000071526,38113.532,38130.700000047684,38153.602,41196.892,8,400,3,,ISIC_9921747.JPG
break,html.Screen,4_2_1,2023-11-05T19:31:32.968Z,,0,,,NaN,,,,,,false,,,,41174.5,41174.300000071526,,41173.700000047684,,41196.892,8,400,,,
break_continue,html.Screen,4_2_2,2023-11-05T19:31:32.969Z,,0,,,NaN,,,,,,false,,,,41175.39999997616,41174.700000047684,,41174.5,,41196.892,8,400,,,
sequence,flow.Sequence,4_2,2023-11-05T19:31:32.969Z,,0,,,3021.0980000476848,completion,,,,,false,,,,41175.39999997616,41174.700000047684,38113.532,38130.60000002384,38153.602,41196.892,8,400,,,
trial,html.Screen,4_3_0,2023-11-05T19:31:35.870Z,,0,1,,2879.308000047684,response,ISIC_0025448.JPG,133,ISIC_0046416.JPG,ISIC_0046416.JPG,false,0,keypress(z),500,44076.39999997616,44076.200000047684,41164.425,41175.60000002384,41196.892,44096.705,8,400,4,,ISIC_0025448.JPG
break,html.Screen,4_3_1,2023-11-05T19:31:35.871Z,,0,,,NaN,,,,,,false,,,,44077.200000047684,44076.89999997616,,44076.5,,44096.705,8,400,,,
break_continue,html.Screen,4_3_2,2023-11-05T19:31:35.871Z,,0,,,NaN,,,,,,false,,,,44077.5,44077.39999997616,,44077.300000071526,,44096.705,8,400,,,
sequence,flow.Sequence,4_3,2023-11-05T19:31:35.871Z,,0,,,2880.5079999761583,completion,,,,,false,,,,44077.60000002384,44077.39999997616,41164.425,41175.60000002384,41196.892,44096.705,8,400,,,
trial,html.Screen,4_4_0,2023-11-05T19:31:38.514Z,,0,1,,2623.39500002384,response,ISIC_0003664.JPG,8,ISIC_2445765.JPG,ISIC_0003664.JPG,false,1,keypress(m),500,46720.200000047684,46720.10000002384,44063.703,44077.60000002384,44096.705,46747.301,8,400,5,,ISIC_2445765.JPG
break,html.Screen,4_4_1,2023-11-05T19:31:38.515Z,,0,,,NaN,,,,,,false,,,,46721.10000002384,46721,,46720.39999997616,,46747.301,8,400,,,
break_continue,html.Screen,4_4_2,2023-11-05T19:31:38.515Z,,0,,,NaN,,,,,,false,,,,46721.39999997616,46721.39999997616,,46721.200000047684,,46747.301,8,400,,,
sequence,flow.Sequence,4_4,2023-11-05T19:31:38.515Z,,0,,,2624.6949999761564,completion,,,,,false,,,,46721.5,46721.39999997616,44063.703,44077.60000002384,44096.705,46747.301,8,400,,,
trial,html.Screen,4_5_0,2023-11-05T19:31:41.190Z,,0,1,,2648.7990000238424,response,ISIC_2202486.JPG,6,ISIC_4791589.JPG,ISIC_4791589.JPG,false,0,keypress(z),500,49396.300000071526,49396.10000002384,46713.258,46721.5,46747.301,49413.167,8,400,6,,ISIC_2202486.JPG
break,html.Screen,4_5_1,2023-11-05T19:31:41.191Z,,0,,,NaN,,,,,,false,,,,49397.39999997616,49397.200000047684,,49396.60000002384,,49413.167,8,400,,,
break_continue,html.Screen,4_5_2,2023-11-05T19:31:41.192Z,,0,,,NaN,,,,,,false,,,,49397.800000071526,49397.700000047684,,49397.5,,49413.167,8,400,,,
sequence,flow.Sequence,4_5,2023-11-05T19:31:41.192Z,,0,,,2650.3990000476842,completion,,,,,false,,,,49397.800000071526,49397.700000047684,46713.258,46721.5,46747.301,49413.167,8,400,,,
trial,html.Screen,4_6_0,2023-11-05T19:31:43.993Z,,0,1,,2786.1330000715243,response,ISIC_0654846.JPG,12,ISIC_4921413.JPG,ISIC_0654846.JPG,false,1,keypress(m),500,52199.5,52199.300000071526,49382.587,49397.89999997616,49413.167,52230.542,8,400,7,,ISIC_4921413.JPG
break,html.Screen,4_6_1,2023-11-05T19:31:43.994Z,,0,,,NaN,,,,,,false,,,,52200.39999997616,52200.200000047684,,52199.60000002384,,52230.542,8,400,,,
break_continue,html.Screen,4_6_2,2023-11-05T19:31:43.995Z,,0,,,NaN,,,,,,false,,,,52200.800000071526,52200.700000047684,,52200.5,,52230.542,8,400,,,
sequence,flow.Sequence,4_6,2023-11-05T19:31:43.995Z,,0,,,2787.5330000476824,completion,,,,,false,,,,52200.800000071526,52200.700000047684,49382.587,49397.89999997616,49413.167,52230.542,8,400,,,
trial,html.Screen,4_7_0,2023-11-05T19:31:46.849Z,,0,1,,2823.9579999999987,response,ISIC_7057495.JPG,6,ISIC_0010476.JPG,ISIC_7057495.JPG,false,1,keypress(m),500,55054.800000071526,55054.5,52196.369,52200.89999997616,52230.542,55080.448,8,400,8,,ISIC_0010476.JPG
break,html.Screen,4_7_1,2023-11-05T19:31:46.850Z,,0,,,NaN,,,,,,false,,,,55056.300000071526,55056.10000002384,,55054.89999997616,,55080.448,8,400,,,
break_continue,html.Screen,4_7_2,2023-11-05T19:31:46.851Z,,0,,,NaN,,,,,,false,,,,55056.700000047684,55056.60000002384,,55056.5,,55080.448,8,400,,,
sequence,flow.Sequence,4_7,2023-11-05T19:31:46.851Z,,0,,,2826.0580000238406,completion,,,,,false,,,,55056.700000047684,55056.60000002384,52196.369,52200.89999997616,52230.542,55080.448,8,400,,,
trial,html.Screen,4_8_0,2023-11-05T19:31:49.653Z,,0,1,,2778.152000023845,response,ISIC_4212044.JPG,7,ISIC_0026094.JPG,ISIC_4212044.JPG,false,1,keypress(m),500,57858.800000071526,57858.60000002384,55046.301,55056.800000071526,55080.448,57879.799,8,400,9,,ISIC_0026094.JPG
break,html.Screen,4_8_1,2023-11-05T19:31:49.653Z,,0,,,NaN,,,,,,false,,,,57859.5,57859.300000071526,,57858.800000071526,,57879.799,8,400,,,
break_continue,html.Screen,4_8_2,2023-11-05T19:31:49.654Z,,0,,,NaN,,,,,,false,,,,57859.700000047684,57859.700000047684,,57859.700000047684,,57879.799,8,400,,,
sequence,flow.Sequence,4_8,2023-11-05T19:31:49.654Z,,0,,,2779.252000047687,completion,,,,,false,,,,57859.89999997616,57859.700000047684,55046.301,55056.800000071526,55080.448,57879.799,8,400,,,
trial,html.Screen,4_9_0,2023-11-05T19:31:53.512Z,,0,1,,3838.201000000001,response,ISIC_5005869.JPG,7,ISIC_7714981.JPG,ISIC_5005869.JPG,false,1,keypress(m),500,61718.200000047684,61718,57847,57859.89999997616,57879.799,61729.723,8,400,10,,ISIC_7714981.JPG
break,html.Screen,4_9_1,2023-11-05T19:31:53.513Z,,0,,,NaN,,,,,,false,,,,61719,61718.800000071526,,61718.300000071526,,61729.723,8,400,,,
break_continue,html.Screen,4_9_2,2023-11-05T19:31:53.513Z,,0,,,NaN,,,,,,false,,,,61719.300000071526,61719.300000071526,,61719.10000002384,,61729.723,8,400,,,
sequence,flow.Sequence,4_9,2023-11-05T19:31:53.513Z,,0,,,3839.5010000715265,completion,,,,,false,,,,61719.39999997616,61719.300000071526,57847,57859.89999997616,57879.799,61729.723,8,400,,,
trial,html.Screen,4_10_0,2023-11-05T19:31:56.317Z,,0,1,,2793.17699997616,response,ISIC_0014548.JPG,8,ISIC_1140410.JPG,ISIC_1140410.JPG,false,0,keypress(z),500,64523.10000002384,64522.89999997616,61713.248,61719.5,61729.723,64546.259,8,400,11,,ISIC_0014548.JPG
break,html.Screen,4_10_1,2023-11-05T19:31:56.318Z,,0,,,NaN,,,,,,false,,,,64523.89999997616,64523.700000047684,,64523.200000047684,,64546.259,8,400,,,
break_continue,html.Screen,4_10_2,2023-11-05T19:31:56.318Z,,0,,,NaN,,,,,,false,,,,64524.200000047684,64524.200000047684,,64524.10000002384,,64546.259,8,400,,,
sequence,flow.Sequence,4_10,2023-11-05T19:31:56.318Z,,0,,,2794.4770000476856,completion,,,,,false,,,,64524.300000071526,64524.200000047684,61713.248,61719.39999997616,61729.723,64546.259,8,400,,,
trial,html.Screen,4_11_0,2023-11-05T19:31:59.619Z,,0,1,,3278.9410000476855,response,ISIC_3520709.JPG,793,ISIC_0015023.JPG,ISIC_0015023.JPG,false,0,keypress(z),500,67825.5,67825.20000004768,64512.797,64524.300000071526,64546.259,67862.888,8,400,12,,ISIC_3520709.JPG
break,html.Screen,4_11_1,2023-11-05T19:31:59.620Z,,0,,,NaN,,,,,,false,,,,67826.20000004768,67826,,67825.60000002384,,67862.888,8,400,,,
break_continue,html.Screen,4_11_2,2023-11-05T19:31:59.620Z,,0,,,NaN,,,,,,false,,,,67826.39999997616,67826.30000007153,,67826.20000004768,,67862.888,8,400,,,
sequence,flow.Sequence,4_11,2023-11-05T19:31:59.620Z,,0,,,3280.0410000715274,completion,,,,,false,,,,67826.5,67826.30000007153,64512.797,64524.300000071526,64546.259,67862.888,8,400,,,
trial,html.Screen,4_12_0,2023-11-05T19:32:02.234Z,,0,1,,2577.1119999999937,response,ISIC_3914140.JPG,5,ISIC_0030929.JPG,ISIC_3914140.JPG,false,1,keypress(m),500,70440.10000002384,70440,67830.065,67826.5,67862.888,70462.805,8,400,13,,ISIC_0030929.JPG
break,html.Screen,4_12_1,2023-11-05T19:32:02.236Z,,0,,,NaN,,,,,,false,,,,70441.60000002384,70441.60000002384,,70440.89999997616,,70462.805,8,400,,,
break_continue,html.Screen,4_12_2,2023-11-05T19:32:02.236Z,,0,,,NaN,,,,,,false,,,,70442,70441.89999997616,,70441.80000007153,,70462.805,8,400,,,
sequence,flow.Sequence,4_12,2023-11-05T19:32:02.236Z,,0,,,2579.011999976152,completion,,,,,false,,,,70442.10000002384,70441.89999997616,67830.065,67826.5,67862.888,70462.805,8,400,,,
trial,html.Screen,4_13_0,2023-11-05T19:32:04.898Z,,0,1,,2641.195000000007,response,ISIC_3474681.JPG,7,ISIC_8764927.JPG,ISIC_3474681.JPG,false,1,keypress(m),500,73104.30000007153,73104,70430.439,70442.10000002384,70462.805,73130.355,8,400,14,,ISIC_8764927.JPG
break,html.Screen,4_13_1,2023-11-05T19:32:04.899Z,,0,,,NaN,,,,,,false,,,,73105.20000004768,73105,,73104.39999997616,,73130.355,8,400,,,
break_continue,html.Screen,4_13_2,2023-11-05T19:32:04.899Z,,0,,,NaN,,,,,,false,,,,73105.5,73105.39999997616,,73105.30000007153,,73130.355,8,400,,,
sequence,flow.Sequence,4_13,2023-11-05T19:32:04.900Z,,0,,,2642.594999976165,completion,,,,,false,,,,73105.70000004768,73105.39999997616,70430.439,70442.10000002384,70462.805,73130.355,8,400,,,
trial,html.Screen,4_14_0,2023-11-05T19:32:07.498Z,,0,1,,2573.845000047688,response,ISIC_1590725.JPG,8,ISIC_0010775.JPG,ISIC_0010775.JPG,false,0,keypress(z),500,75704.39999997616,75704.20000004768,73096.224,73105.70000004768,73130.355,75730.99,8,400,15,,ISIC_1590725.JPG
break,html.Screen,4_14_1,2023-11-05T19:32:07.499Z,,0,,,NaN,,,,,,false,,,,75705.30000007153,75705.10000002384,,75704.5,,75730.99,8,400,,,
break_continue,html.Screen,4_14_2,2023-11-05T19:32:07.499Z,,0,,,NaN,,,,,,false,,,,75705.60000002384,75705.5,,75705.39999997616,,75730.99,8,400,,,
sequence,flow.Sequence,4_14,2023-11-05T19:32:07.500Z,,0,,,2575.145000000004,completion,,,,,false,,,,75705.70000004768,75705.5,73096.224,73105.70000004768,73130.355,75730.99,8,400,,,
trial,html.Screen,4_15_0,2023-11-05T19:32:10.082Z,,0,1,,2557.1100000238366,response,ISIC_0024586.JPG,10,ISIC_9486313.JPG,ISIC_0024586.JPG,false,1,keypress(m),500,78288.5,78288.10000002384,75696.067,75705.80000007153,75730.99,78314.042,8,400,16,,ISIC_9486313.JPG
break,html.Screen,4_15_1,2023-11-05T19:32:10.083Z,,0,,,NaN,,,,,,false,,,,78289.39999997616,78289.20000004768,,78288.60000002384,,78314.042,8,400,,,
break_continue,html.Screen,4_15_2,2023-11-05T19:32:10.084Z,,0,,,NaN,,,,,,false,,,,78289.70000004768,78289.60000002384,,78289.5,,78314.042,8,400,,,
sequence,flow.Sequence,4_15,2023-11-05T19:32:10.084Z,,0,,,2558.6100000238366,completion,,,,,false,,,,78289.80000007153,78289.60000002384,75696.067,75705.70000004768,75730.99,78314.042,8,400,,,
trial,html.Screen,4_16_0,2023-11-05T19:32:12.681Z,,0,1,,2572.857999976157,response,ISIC_0027155.JPG,8,ISIC_0651353.JPG,ISIC_0651353.JPG,false,0,keypress(z),500,80887.10000002384,80886.89999997616,78279.312,78289.89999997616,78314.042,80913.061,8,400,17,,ISIC_0027155.JPG
break,html.Screen,4_16_1,2023-11-05T19:32:12.682Z,,0,,,NaN,,,,,,false,,,,80887.89999997616,80887.70000004768,,80887.20000004768,,80913.061,8,400,,,
break_continue,html.Screen,4_16_2,2023-11-05T19:32:12.682Z,,0,,,NaN,,,,,,false,,,,80888.10000002384,80888.10000002384,,80887.89999997616,,80913.061,8,400,,,
sequence,flow.Sequence,4_16,2023-11-05T19:32:12.682Z,,0,,,2574.0580000238406,completion,,,,,false,,,,80888.20000004768,80888.10000002384,78279.312,78289.89999997616,78314.042,80913.061,8,400,,,
trial,html.Screen,4_17_0,2023-11-05T19:32:15.147Z,,0,1,,2439.9389999999985,response,ISIC_0706692.JPG,7,ISIC_3833013.JPG,ISIC_0706692.JPG,false,1,keypress(m),500,83353.20000004768,83353,80879.173,80888.30000007153,80913.061,83379.834,8,400,18,,ISIC_3833013.JPG
break,html.Screen,4_17_1,2023-11-05T19:32:15.148Z,,0,,,NaN,,,,,,false,,,,83354.20000004768,83354,,83353.30000007153,,83379.834,8,400,,,
break_continue,html.Screen,4_17_2,2023-11-05T19:32:15.148Z,,0,,,NaN,,,,,,false,,,,83354.39999997616,83354.30000007153,,83354.30000007153,,83379.834,8,400,,,
sequence,flow.Sequence,4_17,2023-11-05T19:32:15.148Z,,0,,,2441.239000071524,completion,,,,,false,,,,83354.60000002384,83354.30000007153,80879.173,80888.30000007153,80913.061,83379.834,8,400,,,
trial,html.Screen,4_18_0,2023-11-05T19:32:17.716Z,,0,1,,2542.5659999761556,response,ISIC_1615485.JPG,11,ISIC_0061441.JPG,ISIC_0061441.JPG,false,0,keypress(z),500,85922.5,85922.39999997616,83346.088,83354.60000002384,83379.834,85945.872,8,400,19,,ISIC_1615485.JPG
break,html.Screen,4_18_1,2023-11-05T19:32:17.717Z,,0,,,NaN,,,,,,false,,,,85923.5,85923.39999997616,,85922.70000004768,,85945.872,8,400,,,
break_continue,html.Screen,4_18_2,2023-11-05T19:32:17.718Z,,0,,,NaN,,,,,,false,,,,85923.89999997616,85923.80000007153,,85923.60000002384,,85945.872,8,400,,,
sequence,flow.Sequence,4_18,2023-11-05T19:32:17.718Z,,0,,,2543.966000071523,completion,,,,,false,,,,85923.89999997616,85923.80000007153,83346.088,83354.60000002384,83379.834,85945.872,8,400,,,
trial,html.Screen,4_19_0,2023-11-05T19:32:21.468Z,,0,1,,3728.527999976155,response,ISIC_0060975.JPG,5,ISIC_7839741.JPG,ISIC_0060975.JPG,false,1,keypress(m),500,89674.60000002384,89674.39999997616,85912.538,85924,85945.872,89695.958,8,400,20,,ISIC_7839741.JPG
break,html.Screen,4_19_1,2023-11-05T19:32:21.469Z,,0,,,NaN,,,,,,false,,,,89675.39999997616,89675.30000007153,,89674.70000004768,,89695.958,8,400,,,
break_continue,html.Screen,4_19_2,2023-11-05T19:32:21.470Z,,0,,,NaN,,,,,,false,,,,89675.80000007153,89675.80000007153,,89675.60000002384,,89695.958,8,400,,,
sequence,flow.Sequence,4_19,2023-11-05T19:32:21.470Z,,0,,,3729.9280000715225,completion,,,,,false,,,,89675.89999997616,89675.80000007153,85912.538,85924,85945.872,89695.958,8,400,,,
trial,html.Screen,4_20_0,2023-11-05T19:32:24.436Z,,0,1,,2946.142000023843,response,ISIC_0072174.JPG,7,ISIC_2565986.JPG,ISIC_0072174.JPG,false,1,keypress(m),500,92642.39999997616,92642.10000002384,89662.849,89675.89999997616,89695.958,92662.512,8,400,21,,ISIC_2565986.JPG
break,html.Screen,4_20_1,2023-11-05T19:32:24.437Z,,0,,,NaN,,,,,,false,,,,92643.30000007153,92643.10000002384,,92642.5,,92662.512,8,400,,,
break_continue,html.Screen,4_20_2,2023-11-05T19:32:24.437Z,,0,,,NaN,,,,,,false,,,,92643.5,92643.5,,92643.30000007153,,92662.512,8,400,,,
sequence,flow.Sequence,4_20,2023-11-05T19:32:24.437Z,,0,,,2947.5420000000013,completion,,,,,false,,,,92643.70000004768,92643.5,89662.849,89675.89999997616,89695.958,92662.512,8,400,,,
trial,html.Screen,4_21_0,2023-11-05T19:32:27.178Z,,0,1,,2721.4879999999976,response,ISIC_6460137.JPG,6,ISIC_0070651.JPG,ISIC_0070651.JPG,false,0,keypress(z),500,95384.30000007153,95384,92629.793,92643.70000004768,92662.512,95413.499,8,400,22,,ISIC_6460137.JPG
break,html.Screen,4_21_1,2023-11-05T19:32:27.179Z,,0,,,NaN,,,,,,false,,,,95385.70000004768,95385.5,,95384.60000002384,,95413.499,8,400,,,
break_continue,html.Screen,4_21_2,2023-11-05T19:32:27.180Z,,0,,,NaN,,,,,,false,,,,95386,95385.89999997616,,95385.70000004768,,95413.499,8,400,,,
sequence,flow.Sequence,4_21,2023-11-05T19:32:27.180Z,,0,,,2723.3879999761557,completion,,,,,false,,,,95386.10000002384,95385.89999997616,92629.793,92643.70000004768,92662.512,95413.499,8,400,,,
trial,html.Screen,4_22_0,2023-11-05T19:32:30.130Z,,0,1,,2922.1010000238457,response,ISIC_0003217.JPG,12,ISIC_5611515.JPG,ISIC_0003217.JPG,false,1,keypress(m),500,98335.80000007153,98335.60000002384,95380.545,95386.20000004768,95413.499,98359.404,8,400,23,,ISIC_5611515.JPG
break,html.Screen,4_22_1,2023-11-05T19:32:30.131Z,,0,,,NaN,,,,,,false,,,,98336.80000007153,98336.70000004768,,98336,,98359.404,8,400,,,
break_continue,html.Screen,4_22_2,2023-11-05T19:32:30.131Z,,0,,,NaN,,,,,,false,,,,98337.20000004768,98337.10000002384,,98336.89999997616,,98359.404,8,400,,,
sequence,flow.Sequence,4_22,2023-11-05T19:32:30.131Z,,0,,,2923.6010000238457,completion,,,,,false,,,,98337.20000004768,98337.10000002384,95380.545,95386.20000004768,95413.499,98359.404,8,400,,,
trial,html.Screen,4_23_0,2023-11-05T19:32:33.109Z,,0,1,,2955.696000023847,response,ISIC_6278273.JPG,5,ISIC_1597566.JPG,ISIC_6278273.JPG,false,1,keypress(m),500,101315.20000004768,101315.10000002384,98329.334,98337.39999997616,98359.404,101330.916,8,400,24,,ISIC_1597566.JPG
break,html.Screen,4_23_1,2023-11-05T19:32:33.110Z,,0,,,NaN,,,,,,false,,,,101316.10000002384,101316,,101315.39999997616,,101330.916,8,400,,,
break_continue,html.Screen,4_23_2,2023-11-05T19:32:33.110Z,,0,,,NaN,,,,,,false,,,,101316.5,101316.39999997616,,101316.30000007153,,101330.916,8,400,,,
sequence,flow.Sequence,4_23,2023-11-05T19:32:33.110Z,,0,,,2956.995999976163,completion,,,,,false,,,,101316.60000002384,101316.39999997616,98329.334,98337.30000007153,98359.404,101330.916,8,400,,,
trial,html.Screen,4_24_0,2023-11-05T19:32:35.869Z,,0,1,,2744.384000071528,response,ISIC_0029189.JPG,9,ISIC_0010044.JPG,ISIC_0010044.JPG,false,0,keypress(z),500,104075.60000002384,104075.30000007153,101314.472,101316.70000004768,101330.916,104123.288,8,400,25,,ISIC_0029189.JPG
break,html.Screen,4_24_1,2023-11-05T19:32:35.870Z,,0,,,NaN,,,,,,false,,,,104076.5,104076.30000007153,,104075.80000007153,,104123.288,8,400,,,
break_continue,html.Screen,4_24_2,2023-11-05T19:32:35.871Z,,0,,,NaN,,,,,,false,,,,104076.80000007153,104076.70000004768,,104076.60000002384,,104123.288,8,400,,,
sequence,flow.Sequence,4_24,2023-11-05T19:32:35.871Z,,0,,,2745.7840000476863,completion,,,,,false,,,,104076.89999997616,104076.70000004768,101314.472,101316.70000004768,101330.916,104123.288,8,400,,,
trial,html.Screen,4_25_0,2023-11-05T19:32:38.563Z,,0,1,,2645.4120000476833,response,ISIC_0061067.JPG,11,ISIC_0033213.JPG,ISIC_0061067.JPG,false,1,keypress(m),500,106768.89999997616,106768.70000004768,104096.96,104077,104123.288,106795.358,8,400,26,,ISIC_0033213.JPG
break,html.Screen,4_25_1,2023-11-05T19:32:38.563Z,,0,,,NaN,,,,,,false,,,,106769.60000002384,106769.5,,106769.10000002384,,106795.358,8,400,,,
break_continue,html.Screen,4_25_2,2023-11-05T19:32:38.564Z,,0,,,NaN,,,,,,false,,,,106769.89999997616,106769.80000007153,,106769.70000004768,,106795.358,8,400,,,
sequence,flow.Sequence,4_25,2023-11-05T19:32:38.564Z,,0,,,2646.512000071525,completion,,,,,false,,,,106770,106769.80000007153,104096.96,104077,104123.288,106795.358,8,400,,,
trial,html.Screen,4_26_0,2023-11-05T19:32:41.575Z,,0,1,,2984.9420000715327,response,ISIC_0025580.JPG,11,ISIC_5413788.JPG,ISIC_0025580.JPG,false,1,keypress(m),500,109780.89999997616,109780.30000007153,106763.277,106770,106795.358,109796.044,8,400,27,,ISIC_5413788.JPG
break,html.Screen,4_26_1,2023-11-05T19:32:41.577Z,,0,,,NaN,,,,,,false,,,,109783.20000004768,109782.70000004768,,109781.20000004768,,109796.044,8,400,,,
break_continue,html.Screen,4_26_2,2023-11-05T19:32:41.578Z,,0,,,NaN,,,,,,false,,,,109783.80000007153,109783.60000002384,,109783.39999997616,,109796.044,8,400,,,
sequence,flow.Sequence,4_26,2023-11-05T19:32:41.578Z,,0,,,2988.242000023849,completion,,,,,false,,,,109783.89999997616,109783.60000002384,106763.277,106770,106795.358,109796.044,8,400,,,
trial,html.Screen,4_27_0,2023-11-05T19:32:44.852Z,,0,1,,3261.5560000238474,response,ISIC_5416978.JPG,529,ISIC_0057026.JPG,ISIC_5416978.JPG,false,1,keypress(m),500,113057.80000007153,113057.60000002384,109779.227,109784.10000002384,109796.044,113080.038,8,400,28,,ISIC_0057026.JPG
break,html.Screen,4_27_1,2023-11-05T19:32:44.852Z,,0,,,NaN,,,,,,false,,,,113058.60000002384,113058.39999997616,,113057.89999997616,,113080.038,8,400,,,
break_continue,html.Screen,4_27_2,2023-11-05T19:32:44.853Z,,0,,,NaN,,,,,,false,,,,113059,113058.89999997616,,113058.70000004768,,113080.038,8,400,,,
sequence,flow.Sequence,4_27,2023-11-05T19:32:44.853Z,,0,,,3262.8559999761637,completion,,,,,false,,,,113059.10000002384,113058.89999997616,109779.227,109784,109796.044,113080.038,8,400,,,
trial,html.Screen,4_28_0,2023-11-05T19:32:47.447Z,,0,1,,2572.4619999999995,response,ISIC_9568138.JPG,9,ISIC_7190243.JPG,ISIC_9568138.JPG,false,1,keypress(m),500,115652.70000004768,115652.5,113045.761,113059.10000002384,113080.038,115678.928,8,400,29,,ISIC_7190243.JPG
break,html.Screen,4_28_1,2023-11-05T19:32:47.447Z,,0,,,NaN,,,,,,false,,,,115653.60000002384,115653.5,,115653,,115678.928,8,400,,,
break_continue,html.Screen,4_28_2,2023-11-05T19:32:47.448Z,,0,,,NaN,,,,,,false,,,,115654,115653.89999997616,,115653.70000004768,,115678.928,8,400,,,
sequence,flow.Sequence,4_28,2023-11-05T19:32:47.448Z,,0,,,2573.8619999761577,completion,,,,,false,,,,115654,115653.89999997616,113045.761,113059.10000002384,113080.038,115678.928,8,400,,,
trial,html.Screen,4_29_0,2023-11-05T19:32:50.524Z,,0,1,,3050.8720000715257,response,ISIC_0024697.JPG,10,ISIC_0027263.JPG,ISIC_0024697.JPG,false,1,keypress(m),500,118730,118729.80000007153,115645.359,115654.10000002384,115678.928,118761.983,8,400,30,,ISIC_0027263.JPG
break,html.Screen,4_29_1,2023-11-05T19:32:50.525Z,,0,,,NaN,,,,,,false,,,,118731.10000002384,118730.80000007153,,118730.20000004768,,118761.983,8,400,,,
break_continue,html.Screen,4_29_2,2023-11-05T19:32:50.525Z,,0,,,NaN,,,,,,false,,,,118731.5,118731.5,,118731.30000007153,,118761.983,8,400,,,
sequence,flow.Sequence,4_29,2023-11-05T19:32:50.525Z,,0,,,3052.572,completion,,,,,false,,,,118731.70000004768,118731.5,115645.359,115654.10000002384,115678.928,118761.983,8,400,,,
trial,html.Screen,4_30_0,2023-11-05T19:32:53.046Z,,0,1,,2489.717000047691,response,ISIC_0001121.JPG,7,ISIC_3882374.JPG,ISIC_3882374.JPG,false,0,keypress(z),500,121252,121251.70000004768,118728.894,118731.80000007153,118761.983,121286.206,8,400,31,,ISIC_0001121.JPG
break,html.Screen,4_30_1,2023-11-05T19:32:53.047Z,,0,,,NaN,,,,,,false,,,,121253,121252.80000007153,,121252.20000004768,,121286.206,8,400,,,
break_continue,html.Screen,4_30_2,2023-11-05T19:32:53.047Z,,0,,,NaN,,,,,,false,,,,121253.39999997616,121253.20000004768,,121253.10000002384,,121286.206,8,400,,,
sequence,flow.Sequence,4_30,2023-11-05T19:32:53.047Z,,0,,,2491.217000047691,completion,,,,,false,,,,121253.5,121253.20000004768,118728.894,118731.70000004768,118761.983,121286.206,8,400,,,
trial,html.Screen,4_31_0,2023-11-05T19:32:55.611Z,,0,1,,2530.3940000238363,response,ISIC_0032537.JPG,11,ISIC_7881017.JPG,ISIC_7881017.JPG,false,0,keypress(z),500,123816.80000007153,123816.60000002384,121245.688,121253.5,121286.206,123845.642,8,400,32,,ISIC_0032537.JPG
break,html.Screen,4_31_1,2023-11-05T19:32:55.611Z,,0,,,NaN,,,,,,false,,,,123817.70000004768,123817.60000002384,,123817,,123845.642,8,400,,,
break_continue,html.Screen,4_31_2,2023-11-05T19:32:55.612Z,,0,,,NaN,,,,,,false,,,,123818,123818,,123817.80000007153,,123845.642,8,400,,,
sequence,flow.Sequence,4_31,2023-11-05T19:32:55.612Z,,0,,,2531.7939999999944,completion,,,,,false,,,,123818.20000004768,123818,121245.688,121253.5,121286.206,123845.642,8,400,,,
trial,html.Screen,4_32_0,2023-11-05T19:32:58.162Z,,0,1,,2522.257999976151,response,ISIC_5476277.JPG,7,ISIC_0066476.JPG,ISIC_0066476.JPG,false,0,keypress(z),500,126368,126367.89999997616,123812.914,123818.20000004768,123845.642,126378.448,8,400,33,,ISIC_5476277.JPG
break,html.Screen,4_32_1,2023-11-05T19:32:58.162Z,,0,,,NaN,,,,,,false,,,,126368.60000002384,126368.5,,126368.10000002384,,126378.448,8,400,,,
break_continue,html.Screen,4_32_2,2023-11-05T19:32:58.163Z,,0,,,NaN,,,,,,false,,,,126368.80000007153,126368.80000007153,,126368.70000004768,,126378.448,8,400,,,
sequence,flow.Sequence,4_32,2023-11-05T19:32:58.163Z,,0,,,2523.1580000715185,completion,,,,,false,,,,126369,126368.80000007153,123812.914,123818.20000004768,123845.642,126378.448,8,400,,,
trial,html.Screen,4_33_0,2023-11-05T19:33:00.873Z,,0,1,,2700.951999976154,response,ISIC_0059501.JPG,8,ISIC_7801289.JPG,ISIC_0059501.JPG,false,1,keypress(m),500,129079.5,129079.39999997616,126362.436,126369,126378.448,129110.219,8,400,34,,ISIC_7801289.JPG
break,html.Screen,4_33_1,2023-11-05T19:33:00.874Z,,0,,,NaN,,,,,,false,,,,129080.20000004768,129080.10000002384,,129079.60000002384,,129110.219,8,400,,,
break_continue,html.Screen,4_33_2,2023-11-05T19:33:00.874Z,,0,,,NaN,,,,,,false,,,,129080.5,129080.5,,129080.30000007153,,129110.219,8,400,,,
sequence,flow.Sequence,4_33,2023-11-05T19:33:00.874Z,,0,,,2702.051999999996,completion,,,,,false,,,,129080.60000002384,129080.5,126362.436,126369,126378.448,129110.219,8,400,,,
trial,html.Screen,4_34_0,2023-11-05T19:33:03.390Z,,0,1,,2485.180999976161,response,ISIC_0010156.JPG,10,ISIC_9199158.JPG,ISIC_9199158.JPG,false,0,keypress(z),500,131595.80000007153,131595.39999997616,129082.334,129080.70000004768,129110.219,131628.398,8,400,35,,ISIC_0010156.JPG
break,html.Screen,4_34_1,2023-11-05T19:33:03.392Z,,0,,,NaN,,,,,,false,,,,131597.89999997616,131597.5,,131596.10000002384,,131628.398,8,400,,,
break_continue,html.Screen,4_34_2,2023-11-05T19:33:03.392Z,,0,,,NaN,,,,,,false,,,,131598.5,131598.30000007153,,131598,,131628.398,8,400,,,
sequence,flow.Sequence,4_34,2023-11-05T19:33:03.392Z,,0,,,2488.0810000715283,completion,,,,,false,,,,131598.70000004768,131598.30000007153,129082.334,129080.60000002384,129110.219,131628.398,8,400,,,
trial,html.Screen,4_35_0,2023-11-05T19:33:05.987Z,,0,1,,2564.6020000000135,response,ISIC_9288923.JPG,5,ISIC_0010581.JPG,ISIC_9288923.JPG,false,1,keypress(m),500,134193.20000004768,134193,131594.998,131598.80000007153,131628.398,134214.656,8,400,36,,ISIC_0010581.JPG
break,html.Screen,4_35_1,2023-11-05T19:33:05.988Z,,0,,,NaN,,,,,,false,,,,134193.89999997616,134193.80000007153,,134193.39999997616,,134214.656,8,400,,,
break_continue,html.Screen,4_35_2,2023-11-05T19:33:05.988Z,,0,,,NaN,,,,,,false,,,,134194.20000004768,134194.20000004768,,134194.10000002384,,134214.656,8,400,,,
sequence,flow.Sequence,4_35,2023-11-05T19:33:05.988Z,,0,,,2565.802000047697,completion,,,,,false,,,,134194.30000007153,134194.20000004768,131594.998,131598.70000004768,131628.398,134214.656,8,400,,,
trial,html.Screen,4_36_0,2023-11-05T19:33:08.588Z,,0,1,,2579.844000000012,response,ISIC_7912183.JPG,6,ISIC_6220953.JPG,ISIC_6220953.JPG,false,0,keypress(z),500,136794.70000004768,136794.5,134195.402,134194.30000007153,134214.656,136829.017,8,400,37,,ISIC_7912183.JPG
break,html.Screen,4_36_1,2023-11-05T19:33:08.590Z,,0,,,NaN,,,,,,false,,,,136796.5,136796.39999997616,,136795.89999997616,,136829.017,8,400,,,
break_continue,html.Screen,4_36_2,2023-11-05T19:33:08.591Z,,0,,,NaN,,,,,,false,,,,136796.80000007153,136796.70000004768,,136796.60000002384,,136829.017,8,400,,,
sequence,flow.Sequence,4_36,2023-11-05T19:33:08.591Z,,0,,,2582.0440000476956,completion,,,,,false,,,,136796.89999997616,136796.70000004768,134195.402,134194.30000007153,134214.656,136829.017,8,400,,,
trial,html.Screen,4_37_0,2023-11-05T19:33:11.223Z,,0,1,,2598.9830000000075,response,ISIC_2964397.JPG,10,ISIC_0031184.JPG,ISIC_2964397.JPG,false,1,keypress(m),500,139429.30000007153,139428,136794.886,136797,136829.017,139456.76,8,400,38,,ISIC_0031184.JPG
break,html.Screen,4_37_1,2023-11-05T19:33:11.224Z,,0,,,NaN,,,,,,false,,,,139430.10000002384,139430,,139429.39999997616,,139456.76,8,400,,,
break_continue,html.Screen,4_37_2,2023-11-05T19:33:11.224Z,,0,,,NaN,,,,,,false,,,,139430.5,139430.39999997616,,139430.20000004768,,139456.76,8,400,,,
sequence,flow.Sequence,4_37,2023-11-05T19:33:11.224Z,,0,,,2601.3829999761656,completion,,,,,false,,,,139430.5,139430.39999997616,136794.886,136796.89999997616,136829.017,139456.76,8,400,,,
trial,html.Screen,4_38_0,2023-11-05T19:33:16.176Z,,0,1,,4924.940000047674,response,ISIC_3397377.JPG,7,ISIC_6447663.JPG,ISIC_3397377.JPG,false,1,keypress(m),500,144381.89999997616,144381.70000004768,139428.516,139430.60000002384,139456.76,144412.096,8,400,39,,ISIC_6447663.JPG
break,html.Screen,4_38_1,2023-11-05T19:33:16.177Z,,0,,,NaN,,,,,,false,,,,144382.89999997616,144382.70000004768,,144382.20000004768,,144412.096,8,400,,,
break_continue,html.Screen,4_38_2,2023-11-05T19:33:16.177Z,,0,,,NaN,,,,,,false,,,,144383.20000004768,144383.20000004768,,144383,,144412.096,8,400,,,
sequence,flow.Sequence,4_38,2023-11-05T19:33:16.177Z,,0,,,4926.440000047674,completion,,,,,false,,,,144383.30000007153,144383.20000004768,139428.516,139430.60000002384,139456.76,144412.096,8,400,,,
trial,html.Screen,4_39_0,2023-11-05T19:33:18.761Z,,0,1,,2555.204000071535,response,ISIC_0032072.JPG,8,ISIC_4038618.JPG,ISIC_4038618.JPG,false,0,keypress(z),500,146967.60000002384,146967.30000007153,144379.598,144383.39999997616,144412.096,146978.197,8,400,40,,ISIC_0032072.JPG
break,html.Screen,4_39_1,2023-11-05T19:33:18.763Z,,0,,,NaN,,,,,,false,,,,146969.20000004768,146968.89999997616,,146967.80000007153,,146978.197,8,400,,,
break_continue,html.Screen,4_39_2,2023-11-05T19:33:18.763Z,,0,,,NaN,,,,,,false,,,,146969.70000004768,146969.60000002384,,146969.39999997616,,146978.197,8,400,,,
sequence,flow.Sequence,4_39,2023-11-05T19:33:18.764Z,,0,,,2557.5040000238514,completion,,,,,false,,,,146969.80000007153,146969.60000002384,144379.598,144383.39999997616,144412.096,146978.197,8,400,,,
trial,html.Screen,4_40_0,2023-11-05T19:33:21.382Z,,0,1,,2609.3030000000144,response,ISIC_0024811.JPG,8,ISIC_0026671.JPG,ISIC_0026671.JPG,false,0,keypress(z),500,149587.80000007153,149587.5,146962.264,146969.89999997616,146978.197,149603.547,8,400,41,,ISIC_0024811.JPG
break,html.Screen,4_40_1,2023-11-05T19:33:21.383Z,,0,,,NaN,,,,,,false,,,,149588.80000007153,149588.70000004768,,149588,,149603.547,8,400,,,
break_continue,html.Screen,4_40_2,2023-11-05T19:33:21.383Z,,0,,,NaN,,,,,,false,,,,149589.20000004768,149589.20000004768,,149589,,149603.547,8,400,,,
sequence,flow.Sequence,4_40,2023-11-05T19:33:21.383Z,,0,,,2611.003000047698,completion,,,,,false,,,,149589.30000007153,149589.20000004768,146962.264,146969.80000007153,146978.197,149603.547,8,400,,,
trial,html.Screen,4_41_0,2023-11-05T19:33:24.268Z,,0,1,,2870.753000071534,response,ISIC_6208508.JPG,10,ISIC_5732487.JPG,ISIC_6208508.JPG,false,1,keypress(m),500,152474.5,152474.30000007153,149579.537,149589.39999997616,149603.547,152506.684,8,400,42,,ISIC_5732487.JPG
break,html.Screen,4_41_1,2023-11-05T19:33:24.269Z,,0,,,NaN,,,,,,false,,,,152475.5,152475.20000004768,,152474.70000004768,,152506.684,8,400,,,
break_continue,html.Screen,4_41_2,2023-11-05T19:33:24.269Z,,0,,,NaN,,,,,,false,,,,152475.70000004768,152475.60000002384,,152475.5,,152506.684,8,400,,,
sequence,flow.Sequence,4_41,2023-11-05T19:33:24.270Z,,0,,,2872.0530000238505,completion,,,,,false,,,,152475.80000007153,152475.60000002384,149579.537,149589.30000007153,149603.547,152506.684,8,400,,,
trial,html.Screen,4_42_0,2023-11-05T19:33:28.224Z,,0,1,,3923.5160000476753,response,ISIC_0012681.JPG,7,ISIC_0054963.JPG,ISIC_0054963.JPG,false,0,keypress(z),500,156430.5,156430.20000004768,152478.5,152475.89999997616,152506.684,156469.961,8,400,43,,ISIC_0012681.JPG
break,html.Screen,4_42_1,2023-11-05T19:33:28.225Z,,0,,,NaN,,,,,,false,,,,156431.30000007153,156431.10000002384,,156430.60000002384,,156469.961,8,400,,,
break_continue,html.Screen,4_42_2,2023-11-05T19:33:28.225Z,,0,,,NaN,,,,,,false,,,,156431.60000002384,156431.5,,156431.39999997616,,156469.961,8,400,,,
sequence,flow.Sequence,4_42,2023-11-05T19:33:28.225Z,,0,,,3924.8159999999916,completion,,,,,false,,,,156431.70000004768,156431.5,152478.5,152475.89999997616,152506.684,156469.961,8,400,,,
trial,html.Screen,4_43_0,2023-11-05T19:33:30.890Z,,0,1,,2625.938999976148,response,ISIC_0062864.JPG,14,ISIC_9358630.JPG,ISIC_0062864.JPG,false,1,keypress(m),500,159096.10000002384,159095.89999997616,156428.34,156431.80000007153,156469.961,159113.165,8,400,44,,ISIC_9358630.JPG
break,html.Screen,4_43_1,2023-11-05T19:33:30.891Z,,0,,,NaN,,,,,,false,,,,159097,159096.80000007153,,159096.20000004768,,159113.165,8,400,,,
break_continue,html.Screen,4_43_2,2023-11-05T19:33:30.891Z,,0,,,NaN,,,,,,false,,,,159097.20000004768,159097.10000002384,,159097,,159113.165,8,400,,,
sequence,flow.Sequence,4_43,2023-11-05T19:33:30.891Z,,0,,,2627.1390000238316,completion,,,,,false,,,,159097.30000007153,159097.10000002384,156428.34,156431.80000007153,156469.961,159113.165,8,400,,,
trial,html.Screen,4_44_0,2023-11-05T19:33:34.014Z,,0,1,,3107.23499997615,response,ISIC_0032430.JPG,214,ISIC_6806124.JPG,ISIC_0032430.JPG,false,1,keypress(m),500,162220.5,162220.39999997616,159094.841,159097.39999997616,159113.165,162246.025,8,400,45,,ISIC_6806124.JPG
break,html.Screen,4_44_1,2023-11-05T19:33:34.015Z,,0,,,NaN,,,,,,false,,,,162221.20000004768,162221,,162220.60000002384,,162246.025,8,400,,,
break_continue,html.Screen,4_44_2,2023-11-05T19:33:34.015Z,,0,,,NaN,,,,,,false,,,,162221.39999997616,162221.39999997616,,162221.30000007153,,162246.025,8,400,,,
sequence,flow.Sequence,4_44,2023-11-05T19:33:34.015Z,,0,,,3108.23499997615,completion,,,,,false,,,,162221.60000002384,162221.39999997616,159094.841,159097.30000007153,159113.165,162246.025,8,400,,,
trial,html.Screen,4_45_0,2023-11-05T19:33:36.629Z,,0,1,,2589.0750000238477,response,ISIC_0014684.JPG,12,ISIC_4404772.JPG,ISIC_4404772.JPG,false,0,keypress(z),500,164835.39999997616,164835.10000002384,162211.122,162221.60000002384,162246.025,164866.892,8,400,46,,ISIC_0014684.JPG
break,html.Screen,4_45_1,2023-11-05T19:33:36.630Z,,0,,,NaN,,,,,,false,,,,164836.30000007153,164836.10000002384,,164835.5,,164866.892,8,400,,,
break_continue,html.Screen,4_45_2,2023-11-05T19:33:36.630Z,,0,,,NaN,,,,,,false,,,,164836.60000002384,164836.5,,164836.39999997616,,164866.892,8,400,,,
sequence,flow.Sequence,4_45,2023-11-05T19:33:36.630Z,,0,,,2590.475000000006,completion,,,,,false,,,,164836.70000004768,164836.5,162211.122,162221.60000002384,162246.025,164866.892,8,400,,,
trial,html.Screen,4_46_0,2023-11-05T19:33:39.182Z,,0,1,,2521.1080000000075,response,ISIC_7508320.JPG,9,ISIC_0029078.JPG,ISIC_0029078.JPG,false,0,keypress(z),500,167388.30000007153,167388,164828.143,164836.80000007153,164866.892,167412.898,8,400,47,,ISIC_7508320.JPG
break,html.Screen,4_46_1,2023-11-05T19:33:39.184Z,,0,,,NaN,,,,,,false,,,,167390,167389.80000007153,,167388.60000002384,,167412.898,8,400,,,
break_continue,html.Screen,4_46_2,2023-11-05T19:33:39.184Z,,0,,,NaN,,,,,,false,,,,167390.39999997616,167390.30000007153,,167390.10000002384,,167412.898,8,400,,,
sequence,flow.Sequence,4_46,2023-11-05T19:33:39.184Z,,0,,,2523.408000071533,completion,,,,,false,,,,167390.60000002384,167390.30000007153,164828.143,164836.70000004768,164866.892,167412.898,8,400,,,
trial,html.Screen,4_47_0,2023-11-05T19:33:41.864Z,,0,1,,2657.302000047697,response,ISIC_0059840.JPG,9,ISIC_9268141.JPG,ISIC_9268141.JPG,false,0,keypress(z),500,170070.39999997616,170070.20000004768,167377.598,167390.70000004768,167412.898,170093.974,8,400,48,,ISIC_0059840.JPG
break,html.Screen,4_47_1,2023-11-05T19:33:41.865Z,,0,,,NaN,,,,,,false,,,,170071.30000007153,170071.20000004768,,170070.60000002384,,170093.974,8,400,,,
break_continue,html.Screen,4_47_2,2023-11-05T19:33:41.865Z,,0,,,NaN,,,,,,false,,,,170071.60000002384,170071.5,,170071.39999997616,,170093.974,8,400,,,
sequence,flow.Sequence,4_47,2023-11-05T19:33:41.865Z,,0,,,2658.6020000000135,completion,,,,,false,,,,170071.70000004768,170071.5,167377.598,167390.60000002384,167412.898,170093.974,8,400,,,
trial,html.Screen,4_48_0,2023-11-05T19:33:45.231Z,,0,1,,3342.9259999761707,response,ISIC_5951430.JPG,6,ISIC_0071913.JPG,ISIC_5951430.JPG,false,1,keypress(m),500,173437.10000002384,173436.89999997616,170061.062,170071.80000007153,170093.974,173453.004,8,400,49,,ISIC_0071913.JPG
break,html.Screen,4_48_1,2023-11-05T19:33:45.231Z,,0,,,NaN,,,,,,false,,,,173437.70000004768,173437.60000002384,,173437.20000004768,,173453.004,8,400,,,
break_continue,html.Screen,4_48_2,2023-11-05T19:33:45.232Z,,0,,,NaN,,,,,,false,,,,173437.89999997616,173437.89999997616,,173437.80000007153,,173453.004,8,400,,,
sequence,flow.Sequence,4_48,2023-11-05T19:33:45.232Z,,0,,,3343.9259999761707,completion,,,,,false,,,,173438,173437.89999997616,170061.062,170071.80000007153,170093.974,173453.004,8,400,,,
trial,html.Screen,4_49_0,2023-11-05T19:33:47.785Z,,0,1,,2538.2960000715393,response,ISIC_0032955.JPG,11,ISIC_3690890.JPG,ISIC_3690890.JPG,false,0,keypress(z),500,175991.39999997616,175991.30000007153,173428.277,173438.10000002384,173453.004,176012.258,8,400,50,,ISIC_0032955.JPG
break,html.Screen,4_49_1,2023-11-05T19:33:58.603Z,,0,,,10798.901000000013,timeout,,,,,false,,,,186809.10000002384,186808.89999997616,175978.475,175991.60000002384,176012.258,186811.159,8,400,,,
break_continue,html.Screen,4_49_2,2023-11-05T19:44:44.593Z,,0,,,645969.341,response,,,,,false,continue,keypress(Space),,832798.8000000715,832780.5,186808.89999997616,186809.30000007153,186811.159,832812.183,8,400,,,
sequence,flow.Sequence,4_49,2023-11-05T19:44:44.593Z,,0,,,659327.496,completion,,,,,false,,,,832799.1000000238,832780.5,173428.277,173438.10000002384,173453.004,832812.183,8,400,,,
trial,html.Screen,4_50_0,2023-11-05T19:44:48.840Z,,0,2,,4234.017000047723,response,ISIC_0046725.JPG,6,ISIC_0011196.JPG,ISIC_0011196.JPG,false,0,keypress(z),500,837046.6000000238,837046.2000000477,832792.889,832799.2000000477,832812.183,837075.185,8,400,1,,ISIC_0046725.JPG
break,html.Screen,4_50_1,2023-11-05T19:44:48.842Z,,0,,,NaN,,,,,,false,,,,837048.2000000477,837047.7000000477,,837046.8000000715,,837075.185,8,400,,,
break_continue,html.Screen,4_50_2,2023-11-05T19:44:48.843Z,,0,,,NaN,,,,,,false,,,,837048.8000000715,837048.6000000238,,837048.3999999762,,837075.185,8,400,,,
sequence,flow.Sequence,4_50,2023-11-05T19:44:48.843Z,,0,,,4236.417000023881,completion,,,,,false,,,,837049.1000000238,837048.6000000238,832792.889,832799.2000000477,832812.183,837075.185,8,400,,,
trial,html.Screen,4_51_0,2023-11-05T19:44:51.709Z,,0,2,,2840.2149999761023,response,ISIC_1342117.JPG,262,ISIC_5198780.JPG,ISIC_1342117.JPG,false,1,keypress(m),500,839915.7000000477,839915.3999999762,837042.494,837049.1000000238,837075.185,839942.766,8,400,2,,ISIC_5198780.JPG
break,html.Screen,4_51_1,2023-11-05T19:44:51.710Z,,0,,,NaN,,,,,,false,,,,839916.3000000715,839916.2000000477,,839915.8000000715,,839942.766,8,400,,,
break_continue,html.Screen,4_51_2,2023-11-05T19:44:51.710Z,,0,,,NaN,,,,,,false,,,,839916.6000000238,839916.6000000238,,839916.5,,839942.766,8,400,,,
sequence,flow.Sequence,4_51,2023-11-05T19:44:51.710Z,,0,,,2841.415000023786,completion,,,,,false,,,,839916.7000000477,839916.6000000238,837042.494,837049.1000000238,837075.185,839942.766,8,400,,,
trial,html.Screen,4_52_0,2023-11-05T19:44:54.294Z,,0,2,,2557.0340000715805,response,ISIC_0010648.JPG,7,ISIC_5275138.JPG,ISIC_5275138.JPG,false,0,keypress(z),500,842500.1000000238,842499.8000000715,839908.739,839916.8000000715,839942.766,842515.674,8,400,3,,ISIC_0010648.JPG
break,html.Screen,4_52_1,2023-11-05T19:44:54.295Z,,0,,,NaN,,,,,,false,,,,842500.8000000715,842500.7000000477,,842500.2000000477,,842515.674,8,400,,,
break_continue,html.Screen,4_52_2,2023-11-05T19:44:54.295Z,,0,,,NaN,,,,,,false,,,,842501.1000000238,842501,,842500.8999999762,,842515.674,8,400,,,
sequence,flow.Sequence,4_52,2023-11-05T19:44:54.295Z,,0,,,2558.234000000055,completion,,,,,false,,,,842501.1000000238,842501,839908.739,839916.8000000715,839942.766,842515.674,8,400,,,
trial,html.Screen,4_53_0,2023-11-05T19:44:56.832Z,,0,2,,2522.426000023843,response,ISIC_8617084.JPG,6,ISIC_0027627.JPG,ISIC_0027627.JPG,false,0,keypress(z),500,845038.5,845038.1000000238,842491.901,842501.2000000477,842515.674,845043.949,8,400,4,,ISIC_8617084.JPG
break,html.Screen,4_53_1,2023-11-05T19:44:56.833Z,,0,,,NaN,,,,,,false,,,,845039.3999999762,845039.2000000477,,845038.6000000238,,845043.949,8,400,,,
break_continue,html.Screen,4_53_2,2023-11-05T19:44:56.834Z,,0,,,NaN,,,,,,false,,,,845039.8999999762,845039.7000000477,,845039.5,,845043.949,8,400,,,
sequence,flow.Sequence,4_53,2023-11-05T19:44:56.834Z,,0,,,2524.0260000476846,completion,,,,,false,,,,845040,845039.7000000477,842491.901,842501.2000000477,842515.674,845043.949,8,400,,,
trial,html.Screen,4_54_0,2023-11-05T19:45:00.085Z,,0,2,,3247.0509999999776,response,ISIC_0062524.JPG,11,ISIC_2940684.JPG,ISIC_2940684.JPG,false,0,keypress(z),500,848291.3999999762,848291,845024.931,845040.1000000238,845043.949,848308.437,8,400,5,,ISIC_0062524.JPG
break,html.Screen,4_54_1,2023-11-05T19:45:00.087Z,,0,,,NaN,,,,,,false,,,,848293.3000000715,848293,,848291.7000000477,,848308.437,8,400,,,
break_continue,html.Screen,4_54_2,2023-11-05T19:45:00.088Z,,0,,,NaN,,,,,,false,,,,848293.8000000715,848293.7000000477,,848293.3999999762,,848308.437,8,400,,,
sequence,flow.Sequence,4_54,2023-11-05T19:45:00.088Z,,0,,,3249.7510000476614,completion,,,,,false,,,,848293.8999999762,848293.7000000477,845024.931,845040,845043.949,848308.437,8,400,,,
trial,html.Screen,4_55_0,2023-11-05T19:45:02.703Z,,0,2,,2599.4629999761237,response,ISIC_0028412.JPG,11,ISIC_6828892.JPG,ISIC_6828892.JPG,false,0,keypress(z),500,850909,850907.8999999762,848292.255,848294,848308.437,850939.757,8,400,6,,ISIC_0028412.JPG
break,html.Screen,4_55_1,2023-11-05T19:45:02.704Z,,0,,,NaN,,,,,,false,,,,850909.8000000715,850909.7000000477,,850909.2000000477,,850939.757,8,400,,,
break_continue,html.Screen,4_55_2,2023-11-05T19:45:02.704Z,,0,,,NaN,,,,,,false,,,,850910.2000000477,850910.1000000238,,850910,,850939.757,8,400,,,
sequence,flow.Sequence,4_55,2023-11-05T19:45:02.704Z,,0,,,2601.6630000238074,completion,,,,,false,,,,850910.2000000477,850910.1000000238,848292.255,848294,848308.437,850939.757,8,400,,,
trial,html.Screen,4_56_0,2023-11-05T19:45:05.189Z,,0,2,,2454.8430000238586,response,ISIC_0010587.JPG,9,ISIC_0011530.JPG,ISIC_0010587.JPG,false,1,keypress(m),500,853394.8000000715,853394.6000000238,850908.376,850910.3000000715,850939.757,853436.901,8,400,7,,ISIC_0011530.JPG
break,html.Screen,4_56_1,2023-11-05T19:45:05.189Z,,0,,,NaN,,,,,,false,,,,853395.6000000238,853395.3999999762,,853394.8999999762,,853436.901,8,400,,,
break_continue,html.Screen,4_56_2,2023-11-05T19:45:05.191Z,,0,,,NaN,,,,,,false,,,,853396.8999999762,853396.8000000715,,853396.7000000477,,853436.901,8,400,,,
sequence,flow.Sequence,4_56,2023-11-05T19:45:05.191Z,,0,,,2457.0430000715423,completion,,,,,false,,,,853397.1000000238,853396.8000000715,850908.376,850910.2000000477,850939.757,853436.901,8,400,,,
trial,html.Screen,4_57_0,2023-11-05T19:45:07.836Z,,0,2,,2605.2990000477294,response,ISIC_0679553.JPG,8,ISIC_0031203.JPG,ISIC_0679553.JPG,false,1,keypress(m),500,856042.5,856042.2000000477,853391.798,853397.1000000238,853436.901,856075.043,8,400,8,,ISIC_0031203.JPG
break,html.Screen,4_57_1,2023-11-05T19:45:07.838Z,,0,,,NaN,,,,,,false,,,,856043.8999999762,856043.6000000238,,856042.7000000477,,856075.043,8,400,,,
break_continue,html.Screen,4_57_2,2023-11-05T19:45:07.838Z,,0,,,NaN,,,,,,false,,,,856044.3000000715,856044.2000000477,,856044,,856075.043,8,400,,,
sequence,flow.Sequence,4_57,2023-11-05T19:45:07.838Z,,0,,,2607.2990000477294,completion,,,,,false,,,,856044.3999999762,856044.2000000477,853391.798,853397.1000000238,853436.901,856075.043,8,400,,,
trial,html.Screen,4_58_0,2023-11-05T19:45:10.675Z,,0,2,,2806.2570000715787,response,ISIC_2197722.JPG,10,ISIC_0028915.JPG,ISIC_2197722.JPG,false,1,keypress(m),500,858881.5,858881.3000000715,856042.074,856044.5,856075.043,858920.811,8,400,9,,ISIC_0028915.JPG
break,html.Screen,4_58_1,2023-11-05T19:45:10.676Z,,0,,,NaN,,,,,,false,,,,858882.3999999762,858882.3000000715,,858881.7000000477,,858920.811,8,400,,,
break_continue,html.Screen,4_58_2,2023-11-05T19:45:10.677Z,,0,,,NaN,,,,,,false,,,,858882.7000000477,858882.7000000477,,858882.5,,858920.811,8,400,,,
sequence,flow.Sequence,4_58,2023-11-05T19:45:10.677Z,,0,,,2807.657000047737,completion,,,,,false,,,,858882.8999999762,858882.7000000477,856042.074,856044.5,856075.043,858920.811,8,400,,,
trial,html.Screen,4_59_0,2023-11-05T19:45:15.309Z,,0,2,,4594.189000000013,response,ISIC_0003703.JPG,11,ISIC_2324728.JPG,ISIC_0003703.JPG,false,1,keypress(m),500,863515.2000000477,863515,858875.19,858882.8999999762,858920.811,863525.307,8,400,10,,ISIC_2324728.JPG
break,html.Screen,4_59_1,2023-11-05T19:45:15.310Z,,0,,,NaN,,,,,,false,,,,863516,863515.8000000715,,863515.3999999762,,863525.307,8,400,,,
break_continue,html.Screen,4_59_2,2023-11-05T19:45:15.310Z,,0,,,NaN,,,,,,false,,,,863516.3000000715,863516.3000000715,,863516.1000000238,,863525.307,8,400,,,
sequence,flow.Sequence,4_59,2023-11-05T19:45:15.310Z,,0,,,4595.489000071539,completion,,,,,false,,,,863516.5,863516.3000000715,858875.19,858882.8999999762,858920.811,863525.307,8,400,,,
trial,html.Screen,4_60_0,2023-11-05T19:45:18.036Z,,0,2,,2716.69299999997,response,ISIC_0010597.JPG,4,ISIC_4614129.JPG,ISIC_4614129.JPG,false,0,keypress(z),500,866242.3000000715,866242,863509.098,863516.6000000238,863525.307,866273.019,8,400,11,,ISIC_0010597.JPG
break,html.Screen,4_60_1,2023-11-05T19:45:18.037Z,,0,,,NaN,,,,,,false,,,,866243,866242.8000000715,,866242.3000000715,,866273.019,8,400,,,
break_continue,html.Screen,4_60_2,2023-11-05T19:45:18.037Z,,0,,,NaN,,,,,,false,,,,866243.1000000238,866243,,866243,,866273.019,8,400,,,
sequence,flow.Sequence,4_60,2023-11-05T19:45:18.037Z,,0,,,2717.69299999997,completion,,,,,false,,,,866243.2000000477,866243,863509.098,863516.6000000238,863525.307,866273.019,8,400,,,
trial,html.Screen,4_61_0,2023-11-05T19:45:20.925Z,,0,2,,2857.7810000715544,response,ISIC_1915890.JPG,10,ISIC_3701563.JPG,ISIC_3701563.JPG,false,0,keypress(z),500,869131.2000000477,869130.8000000715,866241.895,866243.3000000715,866273.019,869141.648,8,400,12,,ISIC_1915890.JPG
break,html.Screen,4_61_1,2023-11-05T19:45:20.927Z,,0,,,NaN,,,,,,false,,,,869133.2000000477,869132.8999999762,,869132.3000000715,,869141.648,8,400,,,
break_continue,html.Screen,4_61_2,2023-11-05T19:45:20.927Z,,0,,,NaN,,,,,,false,,,,869133.7000000477,869133.6000000238,,869133.3999999762,,869141.648,8,400,,,
sequence,flow.Sequence,4_61,2023-11-05T19:45:20.928Z,,0,,,2860.5810000238707,completion,,,,,false,,,,869133.8000000715,869133.6000000238,866241.895,866243.3000000715,866273.019,869141.648,8,400,,,
trial,html.Screen,4_62_0,2023-11-05T19:45:24.243Z,,0,2,,3307.052000047639,response,ISIC_0030434.JPG,9,ISIC_0013917.JPG,ISIC_0013917.JPG,false,0,keypress(z),500,872448.8999999762,872448.7000000477,869125.665,869133.8999999762,869141.648,872457.992,8,400,13,,ISIC_0030434.JPG
break,html.Screen,4_62_1,2023-11-05T19:45:24.244Z,,0,,,NaN,,,,,,false,,,,872450,872449.8000000715,,872449,,872457.992,8,400,,,
break_continue,html.Screen,4_62_2,2023-11-05T19:45:24.244Z,,0,,,NaN,,,,,,false,,,,872450.3999999762,872450.3000000715,,872450.2000000477,,872457.992,8,400,,,
sequence,flow.Sequence,4_62,2023-11-05T19:45:24.244Z,,0,,,3308.652000071481,completion,,,,,false,,,,872450.5,872450.3000000715,869125.665,869133.8999999762,869141.648,872457.992,8,400,,,
trial,html.Screen,4_63_0,2023-11-05T19:45:28.392Z,,0,2,,4140.208000047714,response,ISIC_0025931.JPG,854,ISIC_0060351.JPG,ISIC_0025931.JPG,false,1,keypress(m),500,876598.5,876598.2000000477,872441.756,872450.6000000238,872457.992,876622.179,8,400,14,,ISIC_0060351.JPG
break,html.Screen,4_63_1,2023-11-05T19:45:28.394Z,,0,,,NaN,,,,,,false,,,,876600.3000000715,876600.1000000238,,876598.7000000477,,876622.179,8,400,,,
break_continue,html.Screen,4_63_2,2023-11-05T19:45:28.395Z,,0,,,NaN,,,,,,false,,,,876600.6000000238,876600.5,,876600.3999999762,,876622.179,8,400,,,
sequence,flow.Sequence,4_63,2023-11-05T19:45:28.395Z,,0,,,4142.508000000031,completion,,,,,false,,,,876600.8000000715,876600.5,872441.756,872450.6000000238,872457.992,876622.179,8,400,,,
trial,html.Screen,4_64_0,2023-11-05T19:45:31.475Z,,0,2,,3058.421000023838,response,ISIC_0024574.JPG,12,ISIC_7320371.JPG,ISIC_0024574.JPG,false,1,keypress(m),500,879680.8999999762,879680.6000000238,876591.917,876600.8000000715,876622.179,879712.493,8,400,15,,ISIC_7320371.JPG
break,html.Screen,4_64_1,2023-11-05T19:45:31.476Z,,0,,,NaN,,,,,,false,,,,879681.7000000477,879681.6000000238,,879681,,879712.493,8,400,,,
break_continue,html.Screen,4_64_2,2023-11-05T19:45:31.476Z,,0,,,NaN,,,,,,false,,,,879682.1000000238,879682,,879681.8999999762,,879712.493,8,400,,,
sequence,flow.Sequence,4_64,2023-11-05T19:45:31.476Z,,0,,,3059.8209999999963,completion,,,,,false,,,,879682.2000000477,879682,876591.917,876600.8000000715,876622.179,879712.493,8,400,,,
trial,html.Screen,4_65_0,2023-11-05T19:45:34.938Z,,0,2,,3431.5069999999832,response,ISIC_9256438.JPG,626,ISIC_2364150.JPG,ISIC_9256438.JPG,false,1,keypress(m),500,883144.3000000715,883144,879674.266,879682.3000000715,879712.493,883176.183,8,400,16,,ISIC_2364150.JPG
break,html.Screen,4_65_1,2023-11-05T19:45:34.939Z,,0,,,NaN,,,,,,false,,,,883145.2000000477,883145.1000000238,,883144.5,,883176.183,8,400,,,
break_continue,html.Screen,4_65_2,2023-11-05T19:45:34.939Z,,0,,,NaN,,,,,,false,,,,883145.6000000238,883145.5,,883145.3000000715,,883176.183,8,400,,,
sequence,flow.Sequence,4_65,2023-11-05T19:45:34.940Z,,0,,,3433.0069999999832,completion,,,,,false,,,,883145.7000000477,883145.5,879674.266,879682.2000000477,879712.493,883176.183,8,400,,,
trial,html.Screen,4_66_0,2023-11-05T19:45:38.690Z,,0,2,,3720.2169999761973,response,ISIC_0000179.JPG,13,ISIC_3026660.JPG,ISIC_0000179.JPG,false,1,keypress(m),500,886896.5,886896.3999999762,883141.698,883145.7000000477,883176.183,886907.654,8,400,17,,ISIC_3026660.JPG
break,html.Screen,4_66_1,2023-11-05T19:45:38.691Z,,0,,,NaN,,,,,,false,,,,886897.2000000477,886897,,886896.6000000238,,886907.654,8,400,,,
break_continue,html.Screen,4_66_2,2023-11-05T19:45:38.691Z,,0,,,NaN,,,,,,false,,,,886897.3999999762,886897.3999999762,,886897.2000000477,,886907.654,8,400,,,
sequence,flow.Sequence,4_66,2023-11-05T19:45:38.691Z,,0,,,3721.2169999761973,completion,,,,,false,,,,886897.5,886897.3999999762,883141.698,883145.7000000477,883176.183,886907.654,8,400,,,
trial,html.Screen,4_67_0,2023-11-05T19:45:42.011Z,,0,2,,3309.5460000477033,response,ISIC_0011709.JPG,411,ISIC_0046537.JPG,ISIC_0046537.JPG,false,0,keypress(z),500,890217.3999999762,890217.2000000477,886891.643,886897.5,886907.654,890225.71,8,400,18,,ISIC_0011709.JPG
break,html.Screen,4_67_1,2023-11-05T19:45:42.012Z,,0,,,NaN,,,,,,false,,,,890218.6000000238,890218.3000000715,,890217.6000000238,,890225.71,8,400,,,
break_continue,html.Screen,4_67_2,2023-11-05T19:45:42.013Z,,0,,,NaN,,,,,,false,,,,890219,890218.8000000715,,890218.6000000238,,890225.71,8,400,,,
sequence,flow.Sequence,4_67,2023-11-05T19:45:42.013Z,,0,,,3311.146000071545,completion,,,,,false,,,,890219.1000000238,890218.8000000715,886891.643,886897.5,886907.654,890225.71,8,400,,,
trial,html.Screen,4_68_0,2023-11-05T19:45:44.767Z,,0,2,,2747.090000071563,response,ISIC_0068633.JPG,12,ISIC_5850699.JPG,ISIC_0068633.JPG,false,1,keypress(m),500,892973,892972.8000000715,890207.57,890219.2000000477,890225.71,893004.913,8,400,19,,ISIC_5850699.JPG
break,html.Screen,4_68_1,2023-11-05T19:45:44.768Z,,0,,,NaN,,,,,,false,,,,892974,892973.8000000715,,892973.3000000715,,893004.913,8,400,,,
break_continue,html.Screen,4_68_2,2023-11-05T19:45:44.769Z,,0,,,NaN,,,,,,false,,,,892975.1000000238,892975,,892974,,893004.913,8,400,,,
sequence,flow.Sequence,4_68,2023-11-05T19:45:44.769Z,,0,,,2749.2900000000373,completion,,,,,false,,,,892975.2000000477,892975,890207.57,890219.2000000477,890225.71,893004.913,8,400,,,
trial,html.Screen,4_69_0,2023-11-05T19:45:47.530Z,,0,2,,2731.2870000477415,response,ISIC_3267196.JPG,5,ISIC_0032955.JPG,ISIC_3267196.JPG,false,1,keypress(m),500,895736.3999999762,895736.2000000477,892975.201,892975.2000000477,893004.913,895741.952,8,400,20,,ISIC_0032955.JPG
break,html.Screen,4_69_1,2023-11-05T19:45:47.531Z,,0,,,NaN,,,,,,false,,,,895737.2000000477,895737,,895736.5,,895741.952,8,400,,,
break_continue,html.Screen,4_69_2,2023-11-05T19:45:47.531Z,,0,,,NaN,,,,,,false,,,,895737.5,895737.3999999762,,895737.2000000477,,895741.952,8,400,,,
sequence,flow.Sequence,4_69,2023-11-05T19:45:47.532Z,,0,,,2732.486999976216,completion,,,,,false,,,,895737.5,895737.3999999762,892975.201,892975.2000000477,893004.913,895741.952,8,400,,,
trial,html.Screen,4_70_0,2023-11-05T19:45:50.177Z,,0,2,,2641.2480000476353,response,ISIC_0013244.JPG,6,ISIC_2283509.JPG,ISIC_2283509.JPG,false,0,keypress(z),500,898383.5,898383.2000000477,895725.589,895737.7000000477,895741.952,898399.189,8,400,21,,ISIC_0013244.JPG
break,html.Screen,4_70_1,2023-11-05T19:45:50.178Z,,0,,,NaN,,,,,,false,,,,898384.3000000715,898384.1000000238,,898383.7000000477,,898399.189,8,400,,,
break_continue,html.Screen,4_70_2,2023-11-05T19:45:50.179Z,,0,,,NaN,,,,,,false,,,,898384.7000000477,898384.5,,898384.5,,898399.189,8,400,,,
sequence,flow.Sequence,4_70,2023-11-05T19:45:50.179Z,,0,,,2642.5479999999516,completion,,,,,false,,,,898384.7000000477,898384.5,895725.589,895737.7000000477,895741.952,898399.189,8,400,,,
trial,html.Screen,4_71_0,2023-11-05T19:45:52.838Z,,0,2,,2645.0110000476707,response,ISIC_3635014.JPG,9,ISIC_0032887.JPG,ISIC_3635014.JPG,false,1,keypress(m),500,901044.5,901044.2000000477,898374.757,898384.8999999762,898399.189,901076.015,8,400,22,,ISIC_0032887.JPG
break,html.Screen,4_71_1,2023-11-05T19:45:52.839Z,,0,,,NaN,,,,,,false,,,,901045.3000000715,901045.2000000477,,901044.6000000238,,901076.015,8,400,,,
break_continue,html.Screen,4_71_2,2023-11-05T19:45:52.840Z,,0,,,NaN,,,,,,false,,,,901045.6000000238,901045.5,,901045.5,,901076.015,8,400,,,
sequence,flow.Sequence,4_71,2023-11-05T19:45:52.840Z,,0,,,2646.310999999987,completion,,,,,false,,,,901045.8000000715,901045.5,898374.757,898384.8000000715,898399.189,901076.015,8,400,,,
trial,html.Screen,4_72_0,2023-11-05T19:45:56.057Z,,0,2,,3187.2850000715116,response,ISIC_1945381.JPG,8,ISIC_8133871.JPG,ISIC_1945381.JPG,false,1,keypress(m),500,904263.5,904263.3000000715,901041.364,901045.8999999762,901076.015,904291.195,8,400,23,,ISIC_8133871.JPG
break,html.Screen,4_72_1,2023-11-05T19:45:56.058Z,,0,,,NaN,,,,,,false,,,,904264.3999999762,904264.3000000715,,904263.7000000477,,904291.195,8,400,,,
break_continue,html.Screen,4_72_2,2023-11-05T19:45:56.059Z,,0,,,NaN,,,,,,false,,,,904264.8000000715,904264.7000000477,,904264.6000000238,,904291.195,8,400,,,
sequence,flow.Sequence,4_72,2023-11-05T19:45:56.059Z,,0,,,3188.6850000476697,completion,,,,,false,,,,904264.8000000715,904264.7000000477,901041.364,901045.8000000715,901076.015,904291.195,8,400,,,
trial,html.Screen,4_73_0,2023-11-05T19:46:00.940Z,,0,2,,4855.005000047735,response,ISIC_0059303.JPG,41,ISIC_0072382.JPG,ISIC_0072382.JPG,false,0,keypress(z),500,909146.3999999762,909146.2000000477,904258.221,904264.8999999762,904291.195,909174.835,8,400,24,,ISIC_0059303.JPG
break,html.Screen,4_73_1,2023-11-05T19:46:00.941Z,,0,,,NaN,,,,,,false,,,,909147.2000000477,909147,,909146.6000000238,,909174.835,8,400,,,
break_continue,html.Screen,4_73_2,2023-11-05T19:46:00.941Z,,0,,,NaN,,,,,,false,,,,909147.5,909147.3000000715,,909147.3000000715,,909174.835,8,400,,,
sequence,flow.Sequence,4_73,2023-11-05T19:46:00.941Z,,0,,,4856.105000071577,completion,,,,,false,,,,909147.5,909147.3000000715,904258.221,904264.8999999762,904291.195,909174.835,8,400,,,
trial,html.Screen,4_74_0,2023-11-05T19:46:04.609Z,,0,2,,3640.0649999761954,response,ISIC_3649766.JPG,12,ISIC_0028512.JPG,ISIC_0028512.JPG,false,0,keypress(z),500,912815.1000000238,912814.8999999762,909140.916,909147.6000000238,909174.835,912830.802,8,400,25,,ISIC_3649766.JPG
break,html.Screen,4_74_1,2023-11-05T19:46:04.610Z,,0,,,NaN,,,,,,false,,,,912815.8000000715,912815.7000000477,,912815.3000000715,,912830.802,8,400,,,
break_continue,html.Screen,4_74_2,2023-11-05T19:46:04.610Z,,0,,,NaN,,,,,,false,,,,912816,912816,,912815.8999999762,,912830.802,8,400,,,
sequence,flow.Sequence,4_74,2023-11-05T19:46:04.610Z,,0,,,3641.1650000000373,completion,,,,,false,,,,912816.2000000477,912816,909140.916,909147.6000000238,909174.835,912830.802,8,400,,,
trial,html.Screen,4_75_0,2023-11-05T19:46:08.071Z,,0,2,,3445.4980000715004,response,ISIC_0054229.JPG,488,ISIC_0071069.JPG,ISIC_0071069.JPG,false,0,keypress(z),500,916276.5,916276.3000000715,912808.001,912816.2000000477,912830.802,916290.792,8,400,26,,ISIC_0054229.JPG
break,html.Screen,4_75_1,2023-11-05T19:46:08.072Z,,0,,,NaN,,,,,,false,,,,916278.1000000238,916277.7000000477,,916276.8000000715,,916290.792,8,400,,,
break_continue,html.Screen,4_75_2,2023-11-05T19:46:08.072Z,,0,,,NaN,,,,,,false,,,,916278.6000000238,916278.3999999762,,916278.3000000715,,916290.792,8,400,,,
sequence,flow.Sequence,4_75,2023-11-05T19:46:08.073Z,,0,,,3447.597999976133,completion,,,,,false,,,,916278.6000000238,916278.3999999762,912808.001,912816.2000000477,912830.802,916290.792,8,400,,,
trial,html.Screen,4_76_0,2023-11-05T19:46:14.994Z,,0,2,,6909.308000023826,response,ISIC_0029470.JPG,8,ISIC_6178099.JPG,ISIC_0029470.JPG,false,1,keypress(m),500,923200.3999999762,923200.1000000238,916274.191,916278.8000000715,916290.792,923226.372,8,400,27,,ISIC_6178099.JPG
break,html.Screen,4_76_1,2023-11-05T19:46:14.995Z,,0,,,NaN,,,,,,false,,,,923201.3000000715,923201.1000000238,,923200.5,,923226.372,8,400,,,
break_continue,html.Screen,4_76_2,2023-11-05T19:46:14.995Z,,0,,,NaN,,,,,,false,,,,923201.6000000238,923201.5,,923201.3000000715,,923226.372,8,400,,,
sequence,flow.Sequence,4_76,2023-11-05T19:46:14.996Z,,0,,,6910.707999999984,completion,,,,,false,,,,923201.7000000477,923201.5,916274.191,916278.7000000477,916290.792,923226.372,8,400,,,
trial,html.Screen,4_77_0,2023-11-05T19:46:18.185Z,,0,2,,3164.9280000715517,response,ISIC_0316668.JPG,12,ISIC_1461068.JPG,ISIC_1461068.JPG,false,0,keypress(z),500,926391.5,926391.3000000715,923190.85,923201.7000000477,923226.372,926422.26,8,400,28,,ISIC_0316668.JPG
break,html.Screen,4_77_1,2023-11-05T19:46:18.186Z,,0,,,NaN,,,,,,false,,,,926392.2000000477,926392.1000000238,,926391.6000000238,,926422.26,8,400,,,
break_continue,html.Screen,4_77_2,2023-11-05T19:46:18.186Z,,0,,,NaN,,,,,,false,,,,926392.5,926392.3000000715,,926392.3000000715,,926422.26,8,400,,,
sequence,flow.Sequence,4_77,2023-11-05T19:46:18.186Z,,0,,,3165.9280000715517,completion,,,,,false,,,,926392.5,926392.3000000715,923190.85,923201.7000000477,923226.372,926422.26,8,400,,,
trial,html.Screen,4_78_0,2023-11-05T19:46:21.844Z,,0,2,,3627.7399999999907,response,ISIC_0029212.JPG,915,ISIC_0027043.JPG,ISIC_0029212.JPG,false,1,keypress(m),500,930050.2000000477,930050,926390.521,926392.6000000238,926422.26,930081.797,8,400,29,,ISIC_0027043.JPG
break,html.Screen,4_78_1,2023-11-05T19:46:21.845Z,,0,,,NaN,,,,,,false,,,,930051,930050.8000000715,,930050.3999999762,,930081.797,8,400,,,
break_continue,html.Screen,4_78_2,2023-11-05T19:46:21.845Z,,0,,,NaN,,,,,,false,,,,930051.3000000715,930051.2000000477,,930051.1000000238,,930081.797,8,400,,,
sequence,flow.Sequence,4_78,2023-11-05T19:46:21.845Z,,0,,,3628.9400000476744,completion,,,,,false,,,,930051.3999999762,930051.2000000477,926390.521,926392.6000000238,926422.26,930081.797,8,400,,,
trial,html.Screen,4_79_0,2023-11-05T19:46:24.571Z,,0,2,,2695.003000071505,response,ISIC_0011428.JPG,6,ISIC_0413804.JPG,ISIC_0011428.JPG,false,1,keypress(m),500,932777.1000000238,932776.8000000715,930040.198,930051.5,930081.797,932809.001,8,400,30,,ISIC_0413804.JPG
break,html.Screen,4_79_1,2023-11-05T19:46:24.572Z,,0,,,NaN,,,,,,false,,,,932778,932777.8000000715,,932777.3000000715,,932809.001,8,400,,,
break_continue,html.Screen,4_79_2,2023-11-05T19:46:24.572Z,,0,,,NaN,,,,,,false,,,,932778.2000000477,932778.2000000477,,932778,,932809.001,8,400,,,
sequence,flow.Sequence,4_79,2023-11-05T19:46:24.572Z,,0,,,2696.403000047663,completion,,,,,false,,,,932778.3999999762,932778.2000000477,930040.198,930051.3999999762,930081.797,932809.001,8,400,,,
trial,html.Screen,4_80_0,2023-11-05T19:46:28.894Z,,0,2,,4290.4989999999525,response,ISIC_4887995.JPG,10,ISIC_0034118.JPG,ISIC_4887995.JPG,false,1,keypress(m),500,937099.8000000715,937099.5,932774.03,932778.5,932809.001,937107.805,8,400,31,,ISIC_0034118.JPG
break,html.Screen,4_80_1,2023-11-05T19:46:28.894Z,,0,,,NaN,,,,,,false,,,,937100.3999999762,937100.3000000715,,937099.8999999762,,937107.805,8,400,,,
break_continue,html.Screen,4_80_2,2023-11-05T19:46:28.895Z,,0,,,NaN,,,,,,false,,,,937100.7000000477,937100.6000000238,,937100.5,,937107.805,8,400,,,
sequence,flow.Sequence,4_80,2023-11-05T19:46:28.895Z,,0,,,4291.599000023794,completion,,,,,false,,,,937100.8000000715,937100.6000000238,932774.03,932778.3999999762,932809.001,937107.805,8,400,,,
trial,html.Screen,4_81_0,2023-11-05T19:46:33.972Z,,0,2,,5070.495000071474,response,ISIC_0645454.JPG,7,ISIC_8969883.JPG,ISIC_8969883.JPG,false,0,keypress(z),500,942178.6000000238,942178.3000000715,937090.733,937100.8999999762,937107.805,942190.525,8,400,32,,ISIC_0645454.JPG
break,html.Screen,4_81_1,2023-11-05T19:46:33.973Z,,0,,,NaN,,,,,,false,,,,942179.3000000715,942179.2000000477,,942178.7000000477,,942190.525,8,400,,,
break_continue,html.Screen,4_81_2,2023-11-05T19:46:33.974Z,,0,,,NaN,,,,,,false,,,,942179.6000000238,942179.6000000238,,942179.5,,942190.525,8,400,,,
sequence,flow.Sequence,4_81,2023-11-05T19:46:33.974Z,,0,,,5071.795000023791,completion,,,,,false,,,,942179.8000000715,942179.6000000238,937090.733,937100.8999999762,937107.805,942190.525,8,400,,,
trial,html.Screen,4_82_0,2023-11-05T19:46:36.903Z,,0,2,,2918.374999976135,response,ISIC_0757147.JPG,5,ISIC_8397077.JPG,ISIC_8397077.JPG,false,0,keypress(z),500,945109.2000000477,945108.8999999762,942174.148,942179.8000000715,942190.525,945125.496,8,400,33,,ISIC_0757147.JPG
break,html.Screen,4_82_1,2023-11-05T19:46:36.904Z,,0,,,NaN,,,,,,false,,,,945110.1000000238,945110,,945109.3000000715,,945125.496,8,400,,,
break_continue,html.Screen,4_82_2,2023-11-05T19:46:36.904Z,,0,,,NaN,,,,,,false,,,,945110.6000000238,945110.5,,945110.3000000715,,945125.496,8,400,,,
sequence,flow.Sequence,4_82,2023-11-05T19:46:36.905Z,,0,,,2919.9749999999767,completion,,,,,false,,,,945110.7000000477,945110.5,942174.148,942179.8000000715,942190.525,945125.496,8,400,,,
trial,html.Screen,4_83_0,2023-11-05T19:46:39.709Z,,0,2,,2789.503999999957,response,ISIC_1216139.JPG,10,ISIC_8064866.JPG,ISIC_1216139.JPG,false,1,keypress(m),500,947915.3000000715,947915,945107.203,945110.8000000715,945125.496,947940.596,8,400,34,,ISIC_8064866.JPG
break,html.Screen,4_83_1,2023-11-05T19:46:39.710Z,,0,,,NaN,,,,,,false,,,,947916,947915.8000000715,,947915.3999999762,,947940.596,8,400,,,
break_continue,html.Screen,4_83_2,2023-11-05T19:46:39.710Z,,0,,,NaN,,,,,,false,,,,947916.3000000715,947916.2000000477,,947916.1000000238,,947940.596,8,400,,,
sequence,flow.Sequence,4_83,2023-11-05T19:46:39.710Z,,0,,,2790.704000047641,completion,,,,,false,,,,947916.3999999762,947916.2000000477,945107.203,945110.8000000715,945125.496,947940.596,8,400,,,
trial,html.Screen,4_84_0,2023-11-05T19:46:46.852Z,,0,2,,7117.504000023822,response,ISIC_0024661.JPG,10,ISIC_0032396.JPG,ISIC_0032396.JPG,false,0,keypress(z),500,955058.5,955058.1000000238,947906.791,947916.5,947940.596,955089.762,8,400,35,,ISIC_0024661.JPG
break,html.Screen,4_84_1,2023-11-05T19:46:46.853Z,,0,,,NaN,,,,,,false,,,,955059.3000000715,955059.1000000238,,955058.7000000477,,955089.762,8,400,,,
break_continue,html.Screen,4_84_2,2023-11-05T19:46:46.853Z,,0,,,NaN,,,,,,false,,,,955059.5,955059.5,,955059.3999999762,,955089.762,8,400,,,
sequence,flow.Sequence,4_84,2023-11-05T19:46:46.854Z,,0,,,7118.90399999998,completion,,,,,false,,,,955059.7000000477,955059.5,947906.791,947916.3999999762,947940.596,955089.762,8,400,,,
trial,html.Screen,4_85_0,2023-11-05T19:46:49.819Z,,0,2,,2935.1379999761702,response,ISIC_0061141.JPG,12,ISIC_0015258.JPG,ISIC_0061141.JPG,false,1,keypress(m),500,958025.1000000238,958024.8999999762,955073.646,955059.8000000715,955089.762,958041.11,8,400,36,,ISIC_0015258.JPG
break,html.Screen,4_85_1,2023-11-05T19:46:49.820Z,,0,,,NaN,,,,,,false,,,,958026.3999999762,958026.1000000238,,958025.2000000477,,958041.11,8,400,,,
break_continue,html.Screen,4_85_2,2023-11-05T19:46:49.821Z,,0,,,NaN,,,,,,false,,,,958026.8000000715,958026.7000000477,,958026.5,,958041.11,8,400,,,
sequence,flow.Sequence,4_85,2023-11-05T19:46:49.821Z,,0,,,2936.938000047696,completion,,,,,false,,,,958027,958026.7000000477,955073.646,955059.8000000715,955089.762,958041.11,8,400,,,
trial,html.Screen,4_86_0,2023-11-05T19:47:01.604Z,,0,2,,11782.891999999993,timeout,ISIC_5895384.JPG,5,ISIC_6829008.JPG,,false,,,500,969810.3999999762,969810.2000000477,958024.583,958027,958041.11,969824.002,8,400,37,,
break,html.Screen,4_86_1,2023-11-05T19:47:01.605Z,,0,,,NaN,,,,,,false,,,,969811.2000000477,969811.1000000238,,969810.6000000238,,969824.002,8,400,,,
break_continue,html.Screen,4_86_2,2023-11-05T19:47:01.605Z,,0,,,NaN,,,,,,false,,,,969811.6000000238,969811.5,,969811.3999999762,,969824.002,8,400,,,
sequence,flow.Sequence,4_86,2023-11-05T19:47:01.606Z,,0,,,11770.390000000014,completion,,,,,false,,,,969811.7000000477,969811.5,958024.583,958027,958041.11,969824.002,8,400,,,
trial,html.Screen,4_87_0,2023-11-05T19:47:08.541Z,,0,2,,6922.698000047705,response,ISIC_6400714.JPG,496,ISIC_0746397.JPG,ISIC_0746397.JPG,false,0,keypress(z),500,976746.8999999762,976746.7000000477,969797.581,969811.8000000715,969824.002,976756.607,8,400,38,,ISIC_6400714.JPG
break,html.Screen,4_87_1,2023-11-05T19:47:08.542Z,,0,,,NaN,,,,,,false,,,,976747.7000000477,976747.6000000238,,976747.1000000238,,976756.607,8,400,,,
break_continue,html.Screen,4_87_2,2023-11-05T19:47:08.542Z,,0,,,NaN,,,,,,false,,,,976748,976747.8999999762,,976747.8000000715,,976756.607,8,400,,,
sequence,flow.Sequence,4_87,2023-11-05T19:47:08.542Z,,0,,,6923.89799997618,completion,,,,,false,,,,976748.1000000238,976747.8999999762,969797.581,969811.8000000715,969824.002,976756.607,8,400,,,
trial,html.Screen,4_88_0,2023-11-05T19:47:12.403Z,,0,2,,3852.0930000477238,response,ISIC_0024987.JPG,6,ISIC_0027749.JPG,ISIC_0024987.JPG,false,1,keypress(m),500,980609,980608.7000000477,976739.427,976748.1000000238,976756.607,980639.269,8,400,39,,ISIC_0027749.JPG
break,html.Screen,4_88_1,2023-11-05T19:47:12.404Z,,0,,,NaN,,,,,,false,,,,980610,980609.8000000715,,980609.1000000238,,980639.269,8,400,,,
break_continue,html.Screen,4_88_2,2023-11-05T19:47:12.404Z,,0,,,NaN,,,,,,false,,,,980610.3999999762,980610.3000000715,,980610.2000000477,,980639.269,8,400,,,
sequence,flow.Sequence,4_88,2023-11-05T19:47:12.404Z,,0,,,3853.6930000715656,completion,,,,,false,,,,980610.6000000238,980610.3000000715,976739.427,976748.1000000238,976756.607,980639.269,8,400,,,
trial,html.Screen,4_89_0,2023-11-05T19:47:15.739Z,,0,2,,3305.731000000029,response,ISIC_4663883.JPG,705,ISIC_2860618.JPG,ISIC_2860618.JPG,false,0,keypress(z),500,983945.3000000715,983945,980605.902,980610.7000000477,980639.269,983972.661,8,400,40,,ISIC_4663883.JPG
break,html.Screen,4_89_1,2023-11-05T19:47:15.740Z,,0,,,NaN,,,,,,false,,,,983946.1000000238,983945.8999999762,,983945.3999999762,,983972.661,8,400,,,
break_continue,html.Screen,4_89_2,2023-11-05T19:47:15.740Z,,0,,,NaN,,,,,,false,,,,983946.3999999762,983946.3000000715,,983946.2000000477,,983972.661,8,400,,,
sequence,flow.Sequence,4_89,2023-11-05T19:47:15.740Z,,0,,,3307.0310000715544,completion,,,,,false,,,,983946.3999999762,983946.3000000715,980605.902,980610.7000000477,980639.269,983972.661,8,400,,,
trial,html.Screen,4_90_0,2023-11-05T19:47:19.507Z,,0,2,,3740.53900004772,response,ISIC_7533216.JPG,8,ISIC_0033806.JPG,ISIC_7533216.JPG,false,1,keypress(m),500,987713.5,987713.2000000477,983939.619,983946.6000000238,983972.661,987723.072,8,400,41,,ISIC_0033806.JPG
break,html.Screen,4_90_1,2023-11-05T19:47:19.508Z,,0,,,NaN,,,,,,false,,,,987714.3999999762,987714.3000000715,,987713.7000000477,,987723.072,8,400,,,
break_continue,html.Screen,4_90_2,2023-11-05T19:47:19.509Z,,0,,,NaN,,,,,,false,,,,987714.7000000477,987714.6000000238,,987714.5,,987723.072,8,400,,,
sequence,flow.Sequence,4_90,2023-11-05T19:47:19.509Z,,0,,,3741.939000023878,completion,,,,,false,,,,987714.8000000715,987714.6000000238,983939.619,983946.6000000238,983972.661,987723.072,8,400,,,
trial,html.Screen,4_91_0,2023-11-05T19:47:31.600Z,,0,2,,12116.20399999991,timeout,ISIC_0010995.JPG,597,ISIC_0072601.JPG,,false,,,500,999806.2000000477,999805.8999999762,987705.905,987714.8999999762,987723.072,999839.276,8,400,42,,
break,html.Screen,4_91_1,2023-11-05T19:47:31.602Z,,0,,,NaN,,,,,,false,,,,999808.1000000238,999807.8999999762,,999806.3999999762,,999839.276,8,400,,,
break_continue,html.Screen,4_91_2,2023-11-05T19:47:31.602Z,,0,,,NaN,,,,,,false,,,,999808.5,999808.3999999762,,999808.2000000477,,999839.276,8,400,,,
sequence,flow.Sequence,4_91,2023-11-05T19:47:31.602Z,,0,,,12085.327999976114,completion,,,,,false,,,,999808.6000000238,999808.3999999762,987705.905,987714.8999999762,987723.072,999839.276,8,400,,,
trial,html.Screen,4_92_0,2023-11-05T19:47:36.980Z,,0,2,,5346.424000047729,response,ISIC_0032357.JPG,498,ISIC_9685928.JPG,ISIC_9685928.JPG,false,0,keypress(z),500,1005186,1005185.7000000477,999803.502,999808.7000000477,999839.276,1005206.81,8,400,43,,ISIC_0032357.JPG
break,html.Screen,4_92_1,2023-11-05T19:47:36.981Z,,0,,,NaN,,,,,,false,,,,1005186.8000000715,1005186.7000000477,,1005186.2000000477,,1005206.81,8,400,,,
break_continue,html.Screen,4_92_2,2023-11-05T19:47:36.981Z,,0,,,NaN,,,,,,false,,,,1005187,1005187,,1005186.8999999762,,1005206.81,8,400,,,
sequence,flow.Sequence,4_92,2023-11-05T19:47:36.981Z,,0,,,5347.724000000046,completion,,,,,false,,,,1005187.2000000477,1005187,999803.502,999808.6000000238,999839.276,1005206.81,8,400,,,
trial,html.Screen,4_93_0,2023-11-05T19:47:39.287Z,,0,2,,2286.390000047628,response,ISIC_0030656.JPG,6,ISIC_0025355.JPG,ISIC_0025355.JPG,false,0,keypress(z),500,1007493.3999999762,1007493.2000000477,1005172.281,1005187.2000000477,1005206.81,1007508.93,8,400,44,,ISIC_0030656.JPG
break,html.Screen,4_93_1,2023-11-05T19:47:39.288Z,,0,,,NaN,,,,,,false,,,,1007494.3000000715,1007494.1000000238,,1007493.6000000238,,1007508.93,8,400,,,
break_continue,html.Screen,4_93_2,2023-11-05T19:47:39.288Z,,0,,,NaN,,,,,,false,,,,1007494.6000000238,1007494.5,,1007494.3999999762,,1007508.93,8,400,,,
sequence,flow.Sequence,4_93,2023-11-05T19:47:39.289Z,,0,,,2287.689999999944,completion,,,,,false,,,,1007494.7000000477,1007494.5,1005172.281,1005187.2000000477,1005206.81,1007508.93,8,400,,,
trial,html.Screen,4_94_0,2023-11-05T19:47:48.750Z,,0,2,,9446.270000047632,response,ISIC_7339533.JPG,12,ISIC_1525284.JPG,ISIC_7339533.JPG,false,1,keypress(m),500,1016956.2000000477,1016955.2000000477,1007489.978,1007494.7000000477,1007508.93,1016992.055,8,400,45,,ISIC_1525284.JPG
break,html.Screen,4_94_1,2023-11-05T19:47:48.751Z,,0,,,NaN,,,,,,false,,,,1016956.8999999762,1016956.7000000477,,1016956.3000000715,,1016992.055,8,400,,,
break_continue,html.Screen,4_94_2,2023-11-05T19:47:48.751Z,,0,,,NaN,,,,,,false,,,,1016957.1000000238,1016957,,1016957,,1016992.055,8,400,,,
sequence,flow.Sequence,4_94,2023-11-05T19:47:48.751Z,,0,,,9448.069999999949,completion,,,,,false,,,,1016957.2000000477,1016957,1007489.978,1007494.7000000477,1007508.93,1016992.055,8,400,,,
trial,html.Screen,4_95_0,2023-11-05T19:47:54.020Z,,0,2,,5233.844999976107,response,ISIC_0067274.JPG,8,ISIC_0026627.JPG,ISIC_0067274.JPG,false,1,keypress(m),500,1022226.1000000238,1022225.8999999762,1016955.837,1016957.2000000477,1016992.055,1022238.443,8,400,46,,ISIC_0026627.JPG
break,html.Screen,4_95_1,2023-11-05T19:47:54.021Z,,0,,,NaN,,,,,,false,,,,1022227.1000000238,1022226.8999999762,,1022226.2000000477,,1022238.443,8,400,,,
break_continue,html.Screen,4_95_2,2023-11-05T19:47:54.021Z,,0,,,NaN,,,,,,false,,,,1022227.6000000238,1022227.3999999762,,1022227.3000000715,,1022238.443,8,400,,,
sequence,flow.Sequence,4_95,2023-11-05T19:47:54.022Z,,0,,,5235.344999976107,completion,,,,,false,,,,1022228.5,1022227.3999999762,1016955.837,1016957.2000000477,1016992.055,1022238.443,8,400,,,
trial,html.Screen,4_96_0,2023-11-05T19:47:59.168Z,,0,2,,5134.956999976188,response,ISIC_3926305.JPG,9,ISIC_0026559.JPG,ISIC_0026559.JPG,false,0,keypress(z),500,1027373.7000000477,1027373.3999999762,1022222.22,1022228.6000000238,1022238.443,1027405.783,8,400,47,,ISIC_3926305.JPG
break,html.Screen,4_96_1,2023-11-05T19:47:59.168Z,,0,,,NaN,,,,,,false,,,,1027374.5,1027374.3000000715,,1027373.8000000715,,1027405.783,8,400,,,
break_continue,html.Screen,4_96_2,2023-11-05T19:47:59.169Z,,0,,,NaN,,,,,,false,,,,1027374.7000000477,1027374.7000000477,,1027374.5,,1027405.783,8,400,,,
sequence,flow.Sequence,4_96,2023-11-05T19:47:59.169Z,,0,,,5136.2570000477135,completion,,,,,false,,,,1027374.8999999762,1027374.7000000477,1022222.22,1022228.5,1022238.443,1027405.783,8,400,,,
trial,html.Screen,4_97_0,2023-11-05T19:48:02.280Z,,0,2,,3079.5170000714716,response,ISIC_2260249.JPG,12,ISIC_0024398.JPG,ISIC_0024398.JPG,false,0,keypress(z),500,1030486,1030485.3000000715,1027371.696,1027374.8999999762,1027405.783,1030489.5,8,400,48,,ISIC_2260249.JPG
break,html.Screen,4_97_1,2023-11-05T19:48:02.281Z,,0,,,NaN,,,,,,false,,,,1030487.3000000715,1030487.1000000238,,1030486.1000000238,,1030489.5,8,400,,,
break_continue,html.Screen,4_97_2,2023-11-05T19:48:02.282Z,,0,,,NaN,,,,,,false,,,,1030488.2000000477,1030487.7000000477,,1030487.5,,1030489.5,8,400,,,
sequence,flow.Sequence,4_97,2023-11-05T19:48:02.282Z,,0,,,3081.9170000476297,completion,,,,,false,,,,1030488.3999999762,1030487.7000000477,1027371.696,1027374.8999999762,1027405.783,1030489.5,8,400,,,
trial,html.Screen,4_98_0,2023-11-05T19:48:05.872Z,,0,2,,3588.399999976158,response,ISIC_8794567.JPG,831,ISIC_5979783.JPG,ISIC_8794567.JPG,false,1,keypress(m),500,1034078.2000000477,1034077.8999999762,1030472.658,1030488.5,1030489.5,1034088.253,8,400,49,,ISIC_5979783.JPG
break,html.Screen,4_98_1,2023-11-05T19:48:05.873Z,,0,,,NaN,,,,,,false,,,,1034079.2000000477,1034079,,1034078.3000000715,,1034088.253,8,400,,,
break_continue,html.Screen,4_98_2,2023-11-05T19:48:05.873Z,,0,,,NaN,,,,,,false,,,,1034079.3999999762,1034079.3000000715,,1034079.3000000715,,1034088.253,8,400,,,
sequence,flow.Sequence,4_98,2023-11-05T19:48:05.874Z,,0,,,3589.8000000715256,completion,,,,,false,,,,1034079.7000000477,1034079.3000000715,1030472.658,1030488.5,1030489.5,1034088.253,8,400,,,
trial,html.Screen,4_99_0,2023-11-05T19:48:08.458Z,,0,2,,2575.746999999974,response,ISIC_0014722.JPG,12,ISIC_4695051.JPG,ISIC_0014722.JPG,false,1,keypress(m),500,1036664.3000000715,1036664,1034071.913,1034080.1000000238,1034088.253,1036689.25,8,400,50,,ISIC_4695051.JPG
break,html.Screen,4_99_1,2023-11-05T19:48:18.605Z,,0,,,10116.97199999995,timeout,,,,,false,,,,1046811.1000000238,1046810.8999999762,1036655.606,1036664.3999999762,1036689.25,1046806.222,8,400,,,
break_continue,html.Screen,4_99_2,2023-11-05T19:49:42.968Z,,0,,,84347.47800004773,response,,,,,false,continue,keypress(Space),,1131174.5,1131153.7000000477,1046810.8999999762,1046811.2000000477,1046806.222,1131203.702,8,400,,,
sequence,flow.Sequence,4_99,2023-11-05T19:49:42.969Z,,0,,,97065.44700004766,completion,,,,,false,,,,1131174.7000000477,1131153.7000000477,1034071.913,1034080.1000000238,1034088.253,1131203.702,8,400,,,
trial,html.Screen,4_100_0,2023-11-05T19:49:54.601Z,,0,3,,11632.58899999992,timeout,ISIC_0031972.JPG,10,ISIC_9596721.JPG,,false,,,500,1142807.3999999762,1142807.2000000477,1131169.703,1131174.7000000477,1131203.702,1142836.291,8,400,1,,
break,html.Screen,4_100_1,2023-11-05T19:49:54.602Z,,0,,,NaN,,,,,,false,,,,1142808.3000000715,1142808.2000000477,,1142807.5,,1142836.291,8,400,,,
break_continue,html.Screen,4_100_2,2023-11-05T19:49:54.603Z,,0,,,NaN,,,,,,false,,,,1142808.6000000238,1142808.5,,1142808.3999999762,,1142836.291,8,400,,,
sequence,flow.Sequence,4_100,2023-11-05T19:49:54.603Z,,0,,,11604.797999999952,completion,,,,,false,,,,1142808.7000000477,1142808.5,1131169.703,1131174.7000000477,1131203.702,1142836.291,8,400,,,
trial,html.Screen,4_101_0,2023-11-05T19:50:06.606Z,,0,3,,12000.699999999953,timeout,ISIC_0062530.JPG,504,ISIC_0034194.JPG,,false,,,500,1154812.6000000238,1154812.3000000715,1142803.209,1142808.8000000715,1142836.291,1154836.991,8,400,2,,
break,html.Screen,4_101_1,2023-11-05T19:50:06.607Z,,0,,,NaN,,,,,,false,,,,1154813.3000000715,1154813,,1154812.7000000477,,1154836.991,8,400,,,
break_continue,html.Screen,4_101_2,2023-11-05T19:50:06.607Z,,0,,,NaN,,,,,,false,,,,1154813.5,1154813.5,,1154813.3999999762,,1154836.991,8,400,,,
sequence,flow.Sequence,4_101,2023-11-05T19:50:06.608Z,,0,,,11977.209000000032,completion,,,,,false,,,,1154813.7000000477,1154813.5,1142803.209,1142808.8000000715,1142836.291,1154836.991,8,400,,,
trial,html.Screen,4_102_0,2023-11-05T19:50:18.606Z,,0,3,,11998.894000000088,timeout,ISIC_0026272.JPG,492,ISIC_8366864.JPG,,false,,,500,1166811.7000000477,1166811.6000000238,1154803.162,1154813.7000000477,1154836.991,1166835.885,8,400,3,,
break,html.Screen,4_102_1,2023-11-05T19:50:18.606Z,,0,,,NaN,,,,,,false,,,,1166812.5,1166812.2000000477,,1166811.7000000477,,1166835.885,8,400,,,
break_continue,html.Screen,4_102_2,2023-11-05T19:50:18.607Z,,0,,,NaN,,,,,,false,,,,1166812.7000000477,1166812.7000000477,,1166812.5,,1166835.885,8,400,,,
sequence,flow.Sequence,4_102,2023-11-05T19:50:18.607Z,,0,,,11975.709000047762,completion,,,,,false,,,,1166812.7000000477,1166812.7000000477,1154803.162,1154813.7000000477,1154836.991,1166835.885,8,400,,,
trial,html.Screen,4_103_0,2023-11-05T19:50:30.604Z,,0,3,,12000.387000000104,timeout,ISIC_0031800.JPG,496,ISIC_4573624.JPG,,false,,,500,1178809.7000000477,1178809.3999999762,1166802.873,1166812.8000000715,1166835.885,1178836.272,8,400,4,,
break,html.Screen,4_103_1,2023-11-05T19:50:30.604Z,,0,,,NaN,,,,,,false,,,,1178810.3999999762,1178810.3000000715,,1178809.8000000715,,1178836.272,8,400,,,
break_continue,html.Screen,4_103_2,2023-11-05T19:50:30.605Z,,0,,,NaN,,,,,,false,,,,1178810.8000000715,1178810.6000000238,,1178810.5,,1178836.272,8,400,,,
sequence,flow.Sequence,4_103,2023-11-05T19:50:30.605Z,,0,,,11974.715000023833,completion,,,,,false,,,,1178810.8999999762,1178810.6000000238,1166802.873,1166812.8000000715,1166835.885,1178836.272,8,400,,,
trial,html.Screen,4_104_0,2023-11-05T19:50:35.011Z,,0,3,,4381.028000071412,response,ISIC_0032790.JPG,499,ISIC_0058033.JPG,ISIC_0058033.JPG,false,0,keypress(z),500,1183217.5,1183217.3000000715,1178803.696,1178810.8999999762,1178836.272,1183251.663,8,400,5,,ISIC_0032790.JPG
break,html.Screen,4_104_1,2023-11-05T19:50:35.012Z,,0,,,NaN,,,,,,false,,,,1183218.3999999762,1183218.2000000477,,1183217.7000000477,,1183251.663,8,400,,,
break_continue,html.Screen,4_104_2,2023-11-05T19:50:35.013Z,,0,,,NaN,,,,,,false,,,,1183218.7000000477,1183218.7000000477,,1183218.6000000238,,1183251.663,8,400,,,
sequence,flow.Sequence,4_104,2023-11-05T19:50:35.014Z,,0,,,4382.42800004757,completion,,,,,false,,,,1183219.8000000715,1183218.7000000477,1178803.696,1178810.8999999762,1178836.272,1183251.663,8,400,,,
trial,html.Screen,4_105_0,2023-11-05T19:50:37.608Z,,0,3,,2561.8370000000577,response,ISIC_0059440.JPG,11,ISIC_0029906.JPG,ISIC_0059440.JPG,false,1,keypress(m),500,1185813.8000000715,1185813.5,1183219.921,1183219.8000000715,1183251.663,1185836.956,8,400,6,,ISIC_0029906.JPG
break,html.Screen,4_105_1,2023-11-05T19:50:37.609Z,,0,,,NaN,,,,,,false,,,,1185814.7000000477,1185814.5,,1185813.8999999762,,1185836.956,8,400,,,
break_continue,html.Screen,4_105_2,2023-11-05T19:50:37.609Z,,0,,,NaN,,,,,,false,,,,1185814.8999999762,1185814.8000000715,,1185814.8000000715,,1185836.956,8,400,,,
sequence,flow.Sequence,4_105,2023-11-05T19:50:37.609Z,,0,,,2563.1370000715833,completion,,,,,false,,,,1185815,1185814.8000000715,1183219.921,1183219.8000000715,1183251.663,1185836.956,8,400,,,
trial,html.Screen,4_106_0,2023-11-05T19:50:40.398Z,,0,3,,2766.9439999761526,response,ISIC_2638895.JPG,12,ISIC_0027253.JPG,ISIC_2638895.JPG,false,1,keypress(m),500,1188604.1000000238,1188603.8999999762,1185802.331,1185815.1000000238,1185836.956,1188635.769,8,400,7,,ISIC_0027253.JPG
break,html.Screen,4_106_1,2023-11-05T19:50:40.399Z,,0,,,NaN,,,,,,false,,,,1188605,1188604.8000000715,,1188604.2000000477,,1188635.769,8,400,,,
break_continue,html.Screen,4_106_2,2023-11-05T19:50:40.399Z,,0,,,NaN,,,,,,false,,,,1188605.3999999762,1188605.3000000715,,1188605.2000000477,,1188635.769,8,400,,,
sequence,flow.Sequence,4_106,2023-11-05T19:50:40.399Z,,0,,,2768.34400007152,completion,,,,,false,,,,1188605.5,1188605.3000000715,1185802.331,1185815.1000000238,1185836.956,1188635.769,8,400,,,
trial,html.Screen,4_107_0,2023-11-05T19:50:43.059Z,,0,3,,2628.931000047596,response,ISIC_0504730.JPG,6,ISIC_2260249.JPG,ISIC_2260249.JPG,false,0,keypress(z),500,1191265.1000000238,1191264.7000000477,1188603.245,1188605.5,1188635.769,1191286.07,8,400,8,,ISIC_0504730.JPG
break,html.Screen,4_107_1,2023-11-05T19:50:43.061Z,,0,,,NaN,,,,,,false,,,,1191266.8000000715,1191266.3999999762,,1191265.3000000715,,1191286.07,8,400,,,
break_continue,html.Screen,4_107_2,2023-11-05T19:50:43.061Z,,0,,,NaN,,,,,,false,,,,1191267.3999999762,1191267.2000000477,,1191266.8999999762,,1191286.07,8,400,,,
sequence,flow.Sequence,4_107,2023-11-05T19:50:43.061Z,,0,,,2631.431000047596,completion,,,,,false,,,,1191267.5,1191267.2000000477,1188603.245,1188605.5,1188635.769,1191286.07,8,400,,,
trial,html.Screen,4_108_0,2023-11-05T19:50:45.435Z,,0,3,,2354.929999999935,response,ISIC_3559222.JPG,13,ISIC_0010255.JPG,ISIC_3559222.JPG,false,1,keypress(m),500,1193641.3000000715,1193641,1191252.284,1191267.7000000477,1191286.07,1193664.397,8,400,9,,ISIC_0010255.JPG
break,html.Screen,4_108_1,2023-11-05T19:50:45.436Z,,0,,,NaN,,,,,,false,,,,1193642,1193641.8999999762,,1193641.3000000715,,1193664.397,8,400,,,
break_continue,html.Screen,4_108_2,2023-11-05T19:50:45.436Z,,0,,,NaN,,,,,,false,,,,1193642.3000000715,1193642.2000000477,,1193642.1000000238,,1193664.397,8,400,,,
sequence,flow.Sequence,4_108,2023-11-05T19:50:45.436Z,,0,,,2356.1300000476185,completion,,,,,false,,,,1193642.3999999762,1193642.2000000477,1191252.284,1191267.6000000238,1191286.07,1193664.397,8,400,,,
trial,html.Screen,4_109_0,2023-11-05T19:50:47.744Z,,0,3,,2285.0029999760445,response,ISIC_5595054.JPG,7,ISIC_0011694.JPG,ISIC_0011694.JPG,false,0,keypress(z),500,1195949.6000000238,1195949.3999999762,1193635.763,1193642.3999999762,1193664.397,1195985.361,8,400,10,,ISIC_5595054.JPG
break,html.Screen,4_109_1,2023-11-05T19:50:47.744Z,,0,,,NaN,,,,,,false,,,,1195950.5,1195950.3000000715,,1195949.8000000715,,1195985.361,8,400,,,
break_continue,html.Screen,4_109_2,2023-11-05T19:50:47.745Z,,0,,,NaN,,,,,,false,,,,1195950.8000000715,1195950.7000000477,,1195950.5,,1195985.361,8,400,,,
sequence,flow.Sequence,4_109,2023-11-05T19:50:47.745Z,,0,,,2286.30300004757,completion,,,,,false,,,,1195950.8999999762,1195950.7000000477,1193635.763,1193642.3999999762,1193664.397,1195985.361,8,400,,,
trial,html.Screen,4_110_0,2023-11-05T19:50:50.606Z,,0,3,,2826.83900004765,response,ISIC_7210296.JPG,9,ISIC_0046340.JPG,ISIC_0046340.JPG,false,0,keypress(z),500,1198812.3999999762,1198812.2000000477,1195953.273,1195951,1195985.361,1198826.873,8,400,11,,ISIC_7210296.JPG
break,html.Screen,4_110_1,2023-11-05T19:50:50.607Z,,0,,,NaN,,,,,,false,,,,1198813.1000000238,1198813,,1198812.5,,1198826.873,8,400,,,
break_continue,html.Screen,4_110_2,2023-11-05T19:50:50.607Z,,0,,,NaN,,,,,,false,,,,1198813.3999999762,1198813.3000000715,,1198813.1000000238,,1198826.873,8,400,,,
sequence,flow.Sequence,4_110,2023-11-05T19:50:50.607Z,,0,,,2827.939000071492,completion,,,,,false,,,,1198813.5,1198813.3000000715,1195953.273,1195951,1195985.361,1198826.873,8,400,,,
trial,html.Screen,4_111_0,2023-11-05T19:50:53.465Z,,0,3,,2843.8270000477787,response,ISIC_4519298.JPG,498,ISIC_5951430.JPG,ISIC_4519298.JPG,false,1,keypress(m),500,1201670.8999999762,1201670.7000000477,1198801.723,1198813.5,1198826.873,1201702.668,8,400,12,,ISIC_5951430.JPG
break,html.Screen,4_111_1,2023-11-05T19:50:53.466Z,,0,,,NaN,,,,,,false,,,,1201671.8000000715,1201671.6000000238,,1201671.2000000477,,1201702.668,8,400,,,
break_continue,html.Screen,4_111_2,2023-11-05T19:50:53.466Z,,0,,,NaN,,,,,,false,,,,1201672.3000000715,1201672.1000000238,,1201672,,1201702.668,8,400,,,
sequence,flow.Sequence,4_111,2023-11-05T19:50:53.466Z,,0,,,2845.227000023937,completion,,,,,false,,,,1201672.3000000715,1201672.1000000238,1198801.723,1198813.5,1198826.873,1201702.668,8,400,,,
trial,html.Screen,4_112_0,2023-11-05T19:50:55.986Z,,0,3,,2489.231999976095,response,ISIC_2997601.JPG,9,ISIC_5097947.JPG,ISIC_2997601.JPG,false,1,keypress(m),500,1204192.2000000477,1204191.8999999762,1201669.091,1201672.3999999762,1201702.668,1204219.672,8,400,13,,ISIC_5097947.JPG
break,html.Screen,4_112_1,2023-11-05T19:50:55.987Z,,0,,,NaN,,,,,,false,,,,1204193,1204192.8000000715,,1204192.3000000715,,1204219.672,8,400,,,
break_continue,html.Screen,4_112_2,2023-11-05T19:50:55.987Z,,0,,,NaN,,,,,,false,,,,1204193.3000000715,1204193.2000000477,,1204193.1000000238,,1204219.672,8,400,,,
sequence,flow.Sequence,4_112,2023-11-05T19:50:55.987Z,,0,,,2490.5320000476204,completion,,,,,false,,,,1204193.3999999762,1204193.2000000477,1201669.091,1201672.3999999762,1201702.668,1204219.672,8,400,,,
trial,html.Screen,4_113_0,2023-11-05T19:50:59.911Z,,0,3,,3897.028000047663,response,ISIC_0062325.JPG,10,ISIC_0025702.JPG,ISIC_0062325.JPG,false,1,keypress(m),500,1208116.8999999762,1208116.7000000477,1204185.802,1204193.6000000238,1204219.672,1208148.759,8,400,14,,ISIC_0025702.JPG
break,html.Screen,4_113_1,2023-11-05T19:50:59.912Z,,0,,,NaN,,,,,,false,,,,1208117.8000000715,1208117.7000000477,,1208117.1000000238,,1208148.759,8,400,,,
break_continue,html.Screen,4_113_2,2023-11-05T19:50:59.912Z,,0,,,NaN,,,,,,false,,,,1208118.1000000238,1208118,,1208117.8999999762,,1208148.759,8,400,,,
sequence,flow.Sequence,4_113,2023-11-05T19:50:59.912Z,,0,,,3898.3279999999795,completion,,,,,false,,,,1208118.2000000477,1208118,1204185.802,1204193.5,1204219.672,1208148.759,8,400,,,
trial,html.Screen,4_114_0,2023-11-05T19:51:03.054Z,,0,3,,3111.2409999999218,response,ISIC_0063151.JPG,10,ISIC_5110133.JPG,ISIC_0063151.JPG,false,1,keypress(m),500,1211260.2000000477,1211260,1208119.034,1208118.3000000715,1208148.759,1211285.59,8,400,15,,ISIC_5110133.JPG
break,html.Screen,4_114_1,2023-11-05T19:51:03.055Z,,0,,,NaN,,,,,,false,,,,1211261,1211260.8999999762,,1211260.3999999762,,1211285.59,8,400,,,
break_continue,html.Screen,4_114_2,2023-11-05T19:51:03.055Z,,0,,,NaN,,,,,,false,,,,1211261.3000000715,1211261.2000000477,,1211261.1000000238,,1211285.59,8,400,,,
sequence,flow.Sequence,4_114,2023-11-05T19:51:03.055Z,,0,,,3112.4410000476055,completion,,,,,false,,,,1211261.3999999762,1211261.2000000477,1208119.034,1208118.3000000715,1208148.759,1211285.59,8,400,,,
trial,html.Screen,4_115_0,2023-11-05T19:51:06.788Z,,0,3,,3708.1100000476,response,ISIC_5758316.JPG,51,ISIC_7518798.JPG,ISIC_7518798.JPG,false,0,keypress(z),500,1214994,1214993.7000000477,1211252.283,1211261.5,1211285.59,1215002.336,8,400,16,,ISIC_5758316.JPG
break,html.Screen,4_115_1,2023-11-05T19:51:06.789Z,,0,,,NaN,,,,,,false,,,,1214994.8999999762,1214994.6000000238,,1214994.1000000238,,1215002.336,8,400,,,
break_continue,html.Screen,4_115_2,2023-11-05T19:51:06.789Z,,0,,,NaN,,,,,,false,,,,1214995.1000000238,1214995,,1214994.8999999762,,1215002.336,8,400,,,
sequence,flow.Sequence,4_115,2023-11-05T19:51:06.789Z,,0,,,3709.409999999916,completion,,,,,false,,,,1214995.3000000715,1214995,1211252.283,1211261.3999999762,1211285.59,1215002.336,8,400,,,
trial,html.Screen,4_116_0,2023-11-05T19:51:10.859Z,,0,3,,4062.164000000106,response,ISIC_5884700.JPG,7,ISIC_3225754.JPG,ISIC_5884700.JPG,false,1,keypress(m),500,1219064.8000000715,1219064.5,1214985.226,1214995.3000000715,1215002.336,1219102.167,8,400,17,,ISIC_3225754.JPG
break,html.Screen,4_116_1,2023-11-05T19:51:10.860Z,,0,,,NaN,,,,,,false,,,,1219065.8000000715,1219065.6000000238,,1219065,,1219102.167,8,400,,,
break_continue,html.Screen,4_116_2,2023-11-05T19:51:10.860Z,,0,,,NaN,,,,,,false,,,,1219066.1000000238,1219066,,1219065.8999999762,,1219102.167,8,400,,,
sequence,flow.Sequence,4_116,2023-11-05T19:51:10.860Z,,0,,,4063.664000000106,completion,,,,,false,,,,1219066.2000000477,1219066,1214985.226,1214995.3000000715,1215002.336,1219102.167,8,400,,,
trial,html.Screen,4_117_0,2023-11-05T19:51:22.604Z,,0,3,,11716.888000000035,timeout,ISIC_9354965.JPG,242,ISIC_0058198.JPG,,false,,,500,1230810,1230809.8000000715,1219068.627,1219066.3000000715,1219102.167,1230819.055,8,400,18,,
break,html.Screen,4_117_1,2023-11-05T19:51:22.605Z,,0,,,NaN,,,,,,false,,,,1230810.8000000715,1230810.7000000477,,1230810.2000000477,,1230819.055,8,400,,,
break_continue,html.Screen,4_117_2,2023-11-05T19:51:22.605Z,,0,,,NaN,,,,,,false,,,,1230811.1000000238,1230811,,1230810.8999999762,,1230819.055,8,400,,,
sequence,flow.Sequence,4_117,2023-11-05T19:51:22.605Z,,0,,,11708.8330000001,completion,,,,,false,,,,1230811.2000000477,1230811,1219068.627,1219066.2000000477,1219102.167,1230819.055,8,400,,,
trial,html.Screen,4_118_0,2023-11-05T19:51:34.606Z,,0,3,,12016.844999999972,timeout,ISIC_9860895.JPG,500,ISIC_4723378.JPG,,false,,,500,1242812,1242811.7000000477,1230805.726,1230811.2000000477,1230819.055,1242835.9,8,400,19,,
break,html.Screen,4_118_1,2023-11-05T19:51:34.607Z,,0,,,NaN,,,,,,false,,,,1242813,1242812.7000000477,,1242812.1000000238,,1242835.9,8,400,,,
break_continue,html.Screen,4_118_2,2023-11-05T19:51:34.607Z,,0,,,NaN,,,,,,false,,,,1242813.3000000715,1242813.2000000477,,1242813.1000000238,,1242835.9,8,400,,,
sequence,flow.Sequence,4_118,2023-11-05T19:51:34.607Z,,0,,,11994.145000047749,completion,,,,,false,,,,1242813.3000000715,1242813.2000000477,1230805.726,1230811.2000000477,1230819.055,1242835.9,8,400,,,
trial,html.Screen,4_119_0,2023-11-05T19:51:46.608Z,,0,3,,12032.070000000065,timeout,ISIC_0025464.JPG,502,ISIC_1507583.JPG,,false,,,500,1254813.7000000477,1254813.5,1242802.433,1242813.3999999762,1242835.9,1254867.97,8,400,20,,
break,html.Screen,4_119_1,2023-11-05T19:51:46.609Z,,0,,,NaN,,,,,,false,,,,1254814.7000000477,1254814.5,,1254813.8000000715,,1254867.97,8,400,,,
break_continue,html.Screen,4_119_2,2023-11-05T19:51:46.609Z,,0,,,NaN,,,,,,false,,,,1254815,1254814.8999999762,,1254814.8000000715,,1254867.97,8,400,,,
sequence,flow.Sequence,4_119,2023-11-05T19:51:46.609Z,,0,,,11978.999999976251,completion,,,,,false,,,,1254815.1000000238,1254814.8999999762,1242802.433,1242813.3999999762,1242835.9,1254867.97,8,400,,,
trial,html.Screen,4_120_0,2023-11-05T19:51:58.600Z,,0,3,,11966.405000000028,timeout,ISIC_9667908.JPG,495,ISIC_6442221.JPG,,false,,,500,1266806.2000000477,1266806,1254835.404,1254815.1000000238,1254867.97,1266834.375,8,400,21,,
break,html.Screen,4_120_1,2023-11-05T19:51:58.601Z,,0,,,NaN,,,,,,false,,,,1266807,1266806.8999999762,,1266806.3999999762,,1266834.375,8,400,,,
break_continue,html.Screen,4_120_2,2023-11-05T19:51:58.601Z,,0,,,NaN,,,,,,false,,,,1266807.3000000715,1266807.2000000477,,1266807.1000000238,,1266834.375,8,400,,,
sequence,flow.Sequence,4_120,2023-11-05T19:51:58.601Z,,0,,,11939.230000047712,completion,,,,,false,,,,1266807.3999999762,1266807.2000000477,1254835.404,1254815.1000000238,1254867.97,1266834.375,8,400,,,
trial,html.Screen,4_121_0,2023-11-05T19:52:10.603Z,,0,3,,11999.69200000004,timeout,ISIC_2245325.JPG,502,ISIC_0013617.JPG,,false,,,500,1278809.3000000715,1278809.1000000238,1266801.597,1266807.3999999762,1266834.375,1278834.067,8,400,22,,
break,html.Screen,4_121_1,2023-11-05T19:52:10.604Z,,0,,,NaN,,,,,,false,,,,1278810.5,1278810.3000000715,,1278809.3999999762,,1278834.067,8,400,,,
break_continue,html.Screen,4_121_2,2023-11-05T19:52:10.605Z,,0,,,NaN,,,,,,false,,,,1278811.1000000238,1278811,,1278810.7000000477,,1278834.067,8,400,,,
sequence,flow.Sequence,4_121,2023-11-05T19:52:10.605Z,,0,,,11976.625,completion,,,,,false,,,,1278811.3000000715,1278811,1266801.597,1266807.3999999762,1266834.375,1278834.067,8,400,,,
trial,html.Screen,4_122_0,2023-11-05T19:52:22.600Z,,0,3,,12000.337999999989,timeout,ISIC_0030798.JPG,497,ISIC_0013079.JPG,,false,,,500,1290806,1290805.8000000715,1278800.217,1278811.3000000715,1278834.067,1290834.405,8,400,23,,
break,html.Screen,4_122_1,2023-11-05T19:52:22.601Z,,0,,,NaN,,,,,,false,,,,1290806.8000000715,1290806.6000000238,,1290806.1000000238,,1290834.405,8,400,,,
break_continue,html.Screen,4_122_2,2023-11-05T19:52:22.601Z,,0,,,NaN,,,,,,false,,,,1290807.2000000477,1290807.1000000238,,1290806.8999999762,,1290834.405,8,400,,,
sequence,flow.Sequence,4_122,2023-11-05T19:52:22.601Z,,0,,,11973.033000023803,completion,,,,,false,,,,1290807.3000000715,1290807.1000000238,1278800.217,1278811.3000000715,1278834.067,1290834.405,8,400,,,
trial,html.Screen,4_123_0,2023-11-05T19:52:31.660Z,,0,3,,9031.295000047656,response,ISIC_0057199.JPG,498,ISIC_3110909.JPG,ISIC_3110909.JPG,false,0,keypress(z),500,1299865.8999999762,1299865.7000000477,1290800.555,1290807.3000000715,1290834.405,1299884.358,8,400,24,,ISIC_0057199.JPG
break,html.Screen,4_123_1,2023-11-05T19:52:31.661Z,,0,,,NaN,,,,,,false,,,,1299866.7000000477,1299866.5,,1299866,,1299884.358,8,400,,,
break_continue,html.Screen,4_123_2,2023-11-05T19:52:31.662Z,,0,,,NaN,,,,,,false,,,,1299867.8999999762,1299867.8000000715,,1299867.7000000477,,1299884.358,8,400,,,
sequence,flow.Sequence,4_123,2023-11-05T19:52:31.662Z,,0,,,9033.395000071498,completion,,,,,false,,,,1299868,1299867.8000000715,1290800.555,1290807.3000000715,1290834.405,1299884.358,8,400,,,
trial,html.Screen,4_124_0,2023-11-05T19:52:34.817Z,,0,3,,3138.3420000476763,response,ISIC_0058024.JPG,12,ISIC_0029106.JPG,ISIC_0058024.JPG,false,1,keypress(m),500,1303022.8999999762,1303022.7000000477,1299867.629,1299868.1000000238,1299884.358,1303050.236,8,400,25,,ISIC_0029106.JPG
break,html.Screen,4_124_1,2023-11-05T19:52:34.818Z,,0,,,NaN,,,,,,false,,,,1303023.8999999762,1303023.7000000477,,1303023.2000000477,,1303050.236,8,400,,,
break_continue,html.Screen,4_124_2,2023-11-05T19:52:34.818Z,,0,,,NaN,,,,,,false,,,,1303024.2000000477,1303024.1000000238,,1303024,,1303050.236,8,400,,,
sequence,flow.Sequence,4_124,2023-11-05T19:52:34.818Z,,0,,,3139.7420000238344,completion,,,,,false,,,,1303024.3999999762,1303024.1000000238,1299867.629,1299868,1299884.358,1303050.236,8,400,,,
trial,html.Screen,4_125_0,2023-11-05T19:52:37.910Z,,0,3,,3065.46400004765,response,ISIC_4619789.JPG,284,ISIC_0060585.JPG,ISIC_0060585.JPG,false,0,keypress(z),500,1306116,1306115.7000000477,1303017.452,1303024.5,1303050.236,1306134.799,8,400,26,,ISIC_4619789.JPG
break,html.Screen,4_125_1,2023-11-05T19:52:37.912Z,,0,,,NaN,,,,,,false,,,,1306117.8000000715,1306117.5,,1306116.2000000477,,1306134.799,8,400,,,
break_continue,html.Screen,4_125_2,2023-11-05T19:52:37.912Z,,0,,,NaN,,,,,,false,,,,1306118.1000000238,1306118,,1306117.8999999762,,1306134.799,8,400,,,
sequence,flow.Sequence,4_125,2023-11-05T19:52:37.912Z,,0,,,3067.7639999999665,completion,,,,,false,,,,1306118.3000000715,1306118,1303017.452,1303024.3999999762,1303050.236,1306134.799,8,400,,,
trial,html.Screen,4_126_0,2023-11-05T19:52:43.505Z,,0,3,,5575.7009999998845,response,ISIC_0908367.JPG,9,ISIC_2635051.JPG,ISIC_0908367.JPG,false,1,keypress(m),500,1311710.8999999762,1311710.5,1306117.614,1306118.3000000715,1306134.799,1311717.871,8,400,27,,ISIC_2635051.JPG
