sender,sender_type,sender_id,timestamp,meta,,blockNo,condition,duration,ended_on,img_left,img_reveal,img_right,loser,practice,response,response_action,selection_duration,time_commit,time_end,time_render,time_run,time_show,time_switch,total_blocks,total_trials,trialNo,url,winner
informed_consent,html.Screen,0,2023-09-15T20:20:14.284Z,"{""labjs_version"":""20.2.4"",""labjs_build"":{""flavor"":""production"",""commit"":""f5b4a49f956347addd546a832a3327688c2c0fef""},""location"":""https://run.pavlovia.org/MurrayBennett/melanoma-2afc/?participant=66281&platform=sona"",""userAgent"":""Mozilla/5.0 (Macintosh; Intel Mac OS X 10_15_7) AppleWebKit/537.36 (KHTML, like Gecko) Chrome/116.0.0.0 Safari/537.36"",""platform"":""MacIntel"",""language"":""en-US"",""locale"":""en-US"",""timeZone"":""America/Chicago"",""timezoneOffset"":300,""screen_width"":1440,""screen_height"":900,""scroll_width"":1440,""scroll_height"":735,""window_innerWidth"":1440,""window_innerHeight"":783,""devicePixelRatio"":2}",,,,3837.825000011921,response,,,,,,consent,click button,,5702.5999999940395,5698.300000011921,1843.809,1856.4000000059605,1860.475,5710.321,,,,"{""participant"":""66281"",""platform"":""sona""}",
Welcome,html.Screen,1,2023-09-15T20:20:22.550Z,,,,irregular,8254.679,response,,,,,,continue,click button,,13968.300000011921,13965,5693.655,5702.9000000059605,5710.321,13977.044,,,,,
trial,html.Screen,2_0_0,2023-09-15T20:20:34.048Z,,0,0,,11516.829,timeout,ISIC_4679428.JPG,,ISIC_0061792.JPG,,true,,,500,25466.5,25465.80000001192,13960.378,13968.59999999404,13977.044,25493.873,1,6,1,,
sequence,flow.Sequence,2_0,2023-09-15T20:20:34.048Z,,0,,,11488.756000011921,completion,,,,,true,,,,25467,25465.80000001192,13960.378,13968.5,13977.044,25493.873,1,6,,,
trial,html.Screen,2_1_0,2023-09-15T20:20:39.731Z,,0,0,,5655.627,response,ISIC_5199497.JPG,,ISIC_0776486.JPG,ISIC_0776486.JPG,true,0,keypress(z),500,31150,31149.5,25477.207,25467.19999998808,25493.873,31160.313,1,6,2,,ISIC_5199497.JPG
sequence,flow.Sequence,2_1,2023-09-15T20:20:39.732Z,,0,,,5655.627,completion,,,,,true,,,,31150.40000000596,31149.5,25477.207,25467.09999999404,25493.873,31160.313,1,6,,,
trial,html.Screen,2_2_0,2023-09-15T20:20:43.841Z,,0,0,,4098.987000011923,response,ISIC_8575776.JPG,,ISIC_2556187.JPG,ISIC_2556187.JPG,true,0,keypress(z),500,35260,35259.30000001192,31143.647,31150.69999998808,31160.313,35276.815,1,6,3,,ISIC_8575776.JPG
sequence,flow.Sequence,2_2,2023-09-15T20:20:43.842Z,,0,,,4098.987000011923,completion,,,,,true,,,,35260.59999999404,35259.30000001192,31143.647,31150.5,31160.313,35276.815,1,6,,,
trial,html.Screen,2_3_0,2023-09-15T20:20:47.617Z,,0,0,,3758.6849999999977,response,ISIC_9238366.JPG,,ISIC_8141769.JPG,ISIC_9238366.JPG,true,1,keypress(m),500,39036,39035.5,35260.149,35260.90000000596,35276.815,39043.827,1,6,4,,ISIC_8141769.JPG
sequence,flow.Sequence,2_3,2023-09-15T20:20:47.618Z,,0,,,3758.6849999999977,completion,,,,,true,,,,39036.59999999404,39035.5,35260.149,35260.80000001192,35276.815,39043.827,1,6,,,
trial,html.Screen,2_4_0,2023-09-15T20:20:50.736Z,,0,0,,3110.3729999880816,response,ISIC_9959593.JPG,,ISIC_8949026.JPG,ISIC_8949026.JPG,true,0,keypress(z),500,42154.59999999404,42154.19999998808,39027.161,39036.80000001192,39043.827,42160.369,1,6,5,,ISIC_9959593.JPG
sequence,flow.Sequence,2_4,2023-09-15T20:20:50.736Z,,0,,,3110.3729999880816,completion,,,,,true,,,,42154.90000000596,42154.19999998808,39027.161,39036.69999998808,39043.827,42160.369,1,6,,,
trial,html.Screen,2_5_0,2023-09-15T20:20:53.714Z,,0,0,,2972.0310000059617,response,ISIC_0460240.JPG,,ISIC_0010479.JPG,ISIC_0460240.JPG,true,1,keypress(m),500,45132.90000000596,45132.40000000596,42143.703,42155.19999998808,42160.369,45143.583,1,6,6,,ISIC_0010479.JPG
sequence,flow.Sequence,2_5,2023-09-15T20:20:53.715Z,,0,,,2972.0310000059617,completion,,,,,true,,,,45133.40000000596,45132.40000000596,42143.703,42155.19999998808,42160.369,45143.583,1,6,,,
loop,flow.Loop,2,2023-09-15T20:20:53.715Z,,,,,31155.35600000596,completion,,,,,true,,,,45133.80000001192,45132.40000000596,13960.378,13968.5,13977.044,45143.583,1,6,,,
exp_instructions,html.Screen,3,2023-09-15T20:20:57.264Z,,,,,3527.3170000059617,response,,,,,,continue,keypress(Space),,48682.69999998808,48670.90000000596,45126.917,45133.90000000596,45143.583,48693.441,,,,,
trial,html.Screen,4_0_0,2023-09-15T20:21:00.002Z,,0,1,,2727.359000011922,response,ISIC_3390057.JPG,8,ISIC_0004961.JPG,ISIC_0004961.JPG,false,0,keypress(z),500,51421.19999998808,51420.80000001192,48676.775,48683,48693.441,51427.102,8,400,1,,ISIC_3390057.JPG
break,html.Screen,4_0_1,2023-09-15T20:21:00.004Z,,0,,,NaN,,,,,,false,,,,51422.80000001192,51422.40000000596,,51421.40000000596,,51427.102,8,400,,,
break_continue,html.Screen,4_0_2,2023-09-15T20:21:00.004Z,,0,,,NaN,,,,,,false,,,,51423.09999999404,51423.09999999404,,51422.90000000596,,51427.102,8,400,,,
sequence,flow.Sequence,4_0,2023-09-15T20:21:00.004Z,,0,,,2729.6589999940406,completion,,,,,false,,,,51423.30000001192,51423.09999999404,48676.775,48683,48693.441,51427.102,8,400,,,
trial,html.Screen,4_1_0,2023-09-15T20:21:02.888Z,,0,1,,2879.59799998808,response,ISIC_7440724.JPG,8,ISIC_0653706.JPG,ISIC_7440724.JPG,false,1,keypress(m),500,54307.09999999404,54306.69999998808,51410.436,51423.5,51427.102,54310.32,8,400,2,,ISIC_0653706.JPG
break,html.Screen,4_1_1,2023-09-15T20:21:02.890Z,,0,,,NaN,,,,,,false,,,,54308.40000000596,54308.19999998808,,54307.40000000596,,54310.32,8,400,,,
break_continue,html.Screen,4_1_2,2023-09-15T20:21:02.890Z,,0,,,NaN,,,,,,false,,,,54308.80000001192,54308.69999998808,,54308.59999999404,,54310.32,8,400,,,
sequence,flow.Sequence,4_1,2023-09-15T20:21:02.890Z,,0,,,2881.59799998808,completion,,,,,false,,,,54309,54308.69999998808,51410.436,51423.30000001192,51427.102,54310.32,8,400,,,
trial,html.Screen,4_2_0,2023-09-15T20:21:06.272Z,,0,1,,3380.0800000059608,response,ISIC_7138875.JPG,8,ISIC_7487840.JPG,ISIC_7138875.JPG,false,1,keypress(m),500,57690.59999999404,57690.40000000596,54293.654,54309.09999999404,54310.32,57693.518,8,400,3,,ISIC_7487840.JPG
break,html.Screen,4_2_1,2023-09-15T20:21:06.272Z,,0,,,NaN,,,,,,false,,,,57691.09999999404,57690.90000000596,,57690.69999998808,,57693.518,8,400,,,
break_continue,html.Screen,4_2_2,2023-09-15T20:21:06.272Z,,0,,,NaN,,,,,,false,,,,57691.19999998808,57691.19999998808,,57691.09999999404,,57693.518,8,400,,,
sequence,flow.Sequence,4_2,2023-09-15T20:21:06.272Z,,0,,,3380.8799999880794,completion,,,,,false,,,,57691.19999998808,57691.19999998808,54293.654,54309,54310.32,57693.518,8,400,,,
trial,html.Screen,4_3_0,2023-09-15T20:21:09.236Z,,0,1,,2960.6819999880827,response,ISIC_0029050.JPG,7,ISIC_8417873.JPG,ISIC_8417873.JPG,false,0,keypress(z),500,60654.59999999404,60654.19999998808,57676.852,57691.19999998808,57693.518,60660.667,8,400,4,,ISIC_0029050.JPG
break,html.Screen,4_3_1,2023-09-15T20:21:09.237Z,,0,,,NaN,,,,,,false,,,,60656.09999999404,60655.80000001192,,60655,,60660.667,8,400,,,
break_continue,html.Screen,4_3_2,2023-09-15T20:21:09.238Z,,0,,,NaN,,,,,,false,,,,60656.59999999404,60656.5,,60656.30000001192,,60660.667,8,400,,,
sequence,flow.Sequence,4_3,2023-09-15T20:21:09.238Z,,0,,,2962.9820000000036,completion,,,,,false,,,,60656.80000001192,60656.5,57676.852,57691.19999998808,57693.518,60660.667,8,400,,,
trial,html.Screen,4_4_0,2023-09-15T20:21:11.898Z,,0,1,,2655.4329999940383,response,ISIC_9241599.JPG,7,ISIC_9458746.JPG,ISIC_9458746.JPG,false,0,keypress(z),500,63316.59999999404,63316.09999999404,60644.001,60657,60660.667,63327.227,8,400,5,,ISIC_9241599.JPG
break,html.Screen,4_4_1,2023-09-15T20:21:11.899Z,,0,,,NaN,,,,,,false,,,,63318.19999998808,63317.90000000596,,63317,,63327.227,8,400,,,
break_continue,html.Screen,4_4_2,2023-09-15T20:21:11.900Z,,0,,,NaN,,,,,,false,,,,63318.59999999404,63318.5,,63318.30000001192,,63327.227,8,400,,,
sequence,flow.Sequence,4_4,2023-09-15T20:21:11.900Z,,0,,,2657.8329999999987,completion,,,,,false,,,,63318.80000001192,63318.5,60644.001,60656.90000000596,60660.667,63327.227,8,400,,,
trial,html.Screen,4_5_0,2023-09-15T20:21:14.640Z,,0,1,,2731.3729999940406,response,ISIC_0026475.JPG,6,ISIC_0034262.JPG,ISIC_0026475.JPG,false,1,keypress(m),500,66059.09999999404,66058.59999999404,63310.561,63319,63327.227,66060.451,8,400,6,,ISIC_0034262.JPG
break,html.Screen,4_5_1,2023-09-15T20:21:14.642Z,,0,,,NaN,,,,,,false,,,,66061,66060.59999999404,,66059.5,,66060.451,8,400,,,
break_continue,html.Screen,4_5_2,2023-09-15T20:21:14.642Z,,0,,,NaN,,,,,,false,,,,66061.40000000596,66061.30000001192,,66061,,66060.451,8,400,,,
sequence,flow.Sequence,4_5,2023-09-15T20:21:14.643Z,,0,,,2734.073000011922,completion,,,,,false,,,,66061.5,66061.30000001192,63310.561,63318.90000000596,63327.227,66060.451,8,400,,,
trial,html.Screen,4_6_0,2023-09-15T20:21:17.237Z,,0,1,,2595.548999999999,response,ISIC_5933341.JPG,5,ISIC_9045601.JPG,ISIC_9045601.JPG,false,0,keypress(z),500,68656.5,68656,66043.785,66061.69999998808,66060.451,68660.347,8,400,7,,ISIC_5933341.JPG
break,html.Screen,4_6_1,2023-09-15T20:21:17.239Z,,0,,,NaN,,,,,,false,,,,68658.09999999404,68657.80000001192,,68656.69999998808,,68660.347,8,400,,,
break_continue,html.Screen,4_6_2,2023-09-15T20:21:17.240Z,,0,,,NaN,,,,,,false,,,,68658.69999998808,68658.59999999404,,68658.30000001192,,68660.347,8,400,,,
sequence,flow.Sequence,4_6,2023-09-15T20:21:17.240Z,,0,,,2598.1489999940386,completion,,,,,false,,,,68658.90000000596,68658.59999999404,66043.785,66061.69999998808,66060.451,68660.347,8,400,,,
trial,html.Screen,4_7_0,2023-09-15T20:21:19.786Z,,0,1,,2544.553000005966,response,ISIC_5966190.JPG,5,ISIC_0032617.JPG,ISIC_5966190.JPG,false,1,keypress(m),500,71205.30000001192,71204.90000000596,68643.681,68659,68660.347,71210.731,8,400,8,,ISIC_0032617.JPG
break,html.Screen,4_7_1,2023-09-15T20:21:19.788Z,,0,,,NaN,,,,,,false,,,,71206.80000001192,71206.5,,71205.59999999404,,71210.731,8,400,,,
break_continue,html.Screen,4_7_2,2023-09-15T20:21:19.788Z,,0,,,NaN,,,,,,false,,,,71207.09999999404,71207.09999999404,,71206.90000000596,,71210.731,8,400,,,
sequence,flow.Sequence,4_7,2023-09-15T20:21:19.788Z,,0,,,2546.7529999940452,completion,,,,,false,,,,71207.19999998808,71207.09999999404,68643.681,68659,68660.347,71210.731,8,400,,,
trial,html.Screen,4_8_0,2023-09-15T20:21:22.657Z,,0,1,,2865.069000011921,response,ISIC_0072843.JPG,6,ISIC_4536709.JPG,ISIC_0072843.JPG,false,1,keypress(m),500,74076.30000001192,74075.80000001192,71194.065,71207.40000000596,71210.731,74093.949,8,400,9,,ISIC_4536709.JPG
break,html.Screen,4_8_1,2023-09-15T20:21:22.659Z,,0,,,NaN,,,,,,false,,,,74077.90000000596,74077.69999998808,,74076.59999999404,,74093.949,8,400,,,
break_continue,html.Screen,4_8_2,2023-09-15T20:21:22.659Z,,0,,,NaN,,,,,,false,,,,74078.30000001192,74078.19999998808,,74078,,74093.949,8,400,,,
sequence,flow.Sequence,4_8,2023-09-15T20:21:22.659Z,,0,,,2867.4689999880793,completion,,,,,false,,,,74078.5,74078.19999998808,71194.065,71207.40000000596,71210.731,74093.949,8,400,,,
trial,html.Screen,4_9_0,2023-09-15T20:21:25.368Z,,0,1,,2692.951000005967,response,ISIC_1996356.JPG,6,ISIC_1638436.JPG,ISIC_1996356.JPG,false,1,keypress(m),500,76787.40000000596,76786.90000000596,74077.283,74078.59999999404,74093.949,76793.841,8,400,10,,ISIC_1638436.JPG
break,html.Screen,4_9_1,2023-09-15T20:21:25.370Z,,0,,,NaN,,,,,,false,,,,76788.90000000596,76788.59999999404,,76787.69999998808,,76793.841,8,400,,,
break_continue,html.Screen,4_9_2,2023-09-15T20:21:25.370Z,,0,,,NaN,,,,,,false,,,,76789.30000001192,76789.19999998808,,76789,,76793.841,8,400,,,
sequence,flow.Sequence,4_9,2023-09-15T20:21:25.370Z,,0,,,2695.250999988086,completion,,,,,false,,,,76789.40000000596,76789.19999998808,74077.283,74078.5,74093.949,76793.841,8,400,,,
trial,html.Screen,4_10_0,2023-09-15T20:21:28.352Z,,0,1,,2977.1589999999997,response,ISIC_0062505.JPG,8,ISIC_0033713.JPG,ISIC_0033713.JPG,false,0,keypress(z),500,79771.5,79771,76777.175,76789.5,76793.841,79777.055,8,400,11,,ISIC_0062505.JPG
break,html.Screen,4_10_1,2023-09-15T20:21:28.354Z,,0,,,NaN,,,,,,false,,,,79773.09999999404,79772.69999998808,,79771.80000001192,,79777.055,8,400,,,
break_continue,html.Screen,4_10_2,2023-09-15T20:21:28.354Z,,0,,,NaN,,,,,,false,,,,79773.59999999404,79773.40000000596,,79773.19999998808,,79777.055,8,400,,,
sequence,flow.Sequence,4_10,2023-09-15T20:21:28.355Z,,0,,,2979.55900000596,completion,,,,,false,,,,79773.69999998808,79773.40000000596,76777.175,76789.5,76793.841,79777.055,8,400,,,
trial,html.Screen,4_11_0,2023-09-15T20:21:31.062Z,,0,1,,2703.3450000059674,response,ISIC_7840728.JPG,6,ISIC_9244047.JPG,ISIC_9244047.JPG,false,0,keypress(z),500,82480.90000000596,82480.40000000596,79760.389,79773.90000000596,79777.055,82494.04,8,400,12,,ISIC_7840728.JPG
break,html.Screen,4_11_1,2023-09-15T20:21:31.063Z,,0,,,NaN,,,,,,false,,,,82482.5,82482.09999999404,,82481.09999999404,,82494.04,8,400,,,
break_continue,html.Screen,4_11_2,2023-09-15T20:21:31.064Z,,0,,,NaN,,,,,,false,,,,82482.90000000596,82482.80000001192,,82482.59999999404,,82494.04,8,400,,,
sequence,flow.Sequence,4_11,2023-09-15T20:21:31.064Z,,0,,,2705.745000011928,completion,,,,,false,,,,82483.09999999404,82482.80000001192,79760.389,79773.80000001192,79777.055,82494.04,8,400,,,
trial,html.Screen,4_12_0,2023-09-15T20:21:34.827Z,,0,1,,3751.360000005967,response,ISIC_0028018.JPG,6,ISIC_0027436.JPG,ISIC_0027436.JPG,false,0,keypress(z),500,86245.90000000596,86245.40000000596,82477.374,82483.19999998808,82494.04,86260.556,8,400,13,,ISIC_0028018.JPG
break,html.Screen,4_12_1,2023-09-15T20:21:34.828Z,,0,,,NaN,,,,,,false,,,,86247.40000000596,86247.19999998808,,86246.19999998808,,86260.556,8,400,,,
break_continue,html.Screen,4_12_2,2023-09-15T20:21:34.829Z,,0,,,NaN,,,,,,false,,,,86247.80000001192,86247.69999998808,,86247.59999999404,,86260.556,8,400,,,
sequence,flow.Sequence,4_12,2023-09-15T20:21:34.829Z,,0,,,3753.6599999880855,completion,,,,,false,,,,86248,86247.69999998808,82477.374,82483.19999998808,82494.04,86260.556,8,400,,,
trial,html.Screen,4_13_0,2023-09-15T20:21:38.039Z,,0,1,,3197.643999988082,response,ISIC_3073634.JPG,8,ISIC_9125543.JPG,ISIC_3073634.JPG,false,1,keypress(m),500,89458.59999999404,89458.19999998808,86243.89,86248,86260.556,89460.428,8,400,14,,ISIC_9125543.JPG
break,html.Screen,4_13_1,2023-09-15T20:21:38.041Z,,0,,,NaN,,,,,,false,,,,89460.30000001192,89460.09999999404,,89459,,89460.428,8,400,,,
break_continue,html.Screen,4_13_2,2023-09-15T20:21:38.041Z,,0,,,NaN,,,,,,false,,,,89460.69999998808,89460.5,,89460.40000000596,,89460.428,8,400,,,
sequence,flow.Sequence,4_13,2023-09-15T20:21:38.041Z,,0,,,3199.944000000003,completion,,,,,false,,,,89460.80000001192,89460.5,86243.89,86248,86260.556,89460.428,8,400,,,
trial,html.Screen,4_14_0,2023-09-15T20:21:41.214Z,,0,1,,3172.572,response,ISIC_0013427.JPG,9,ISIC_5457889.JPG,ISIC_5457889.JPG,false,0,keypress(z),500,92633.40000000596,92633,89443.762,89460.90000000596,89460.428,92644.087,8,400,15,,ISIC_0013427.JPG
break,html.Screen,4_14_1,2023-09-15T20:21:41.216Z,,0,,,NaN,,,,,,false,,,,92634.90000000596,92634.69999998808,,92633.80000001192,,92644.087,8,400,,,
break_continue,html.Screen,4_14_2,2023-09-15T20:21:41.216Z,,0,,,NaN,,,,,,false,,,,92635.40000000596,92635.30000001192,,92635.19999998808,,92644.087,8,400,,,
sequence,flow.Sequence,4_14,2023-09-15T20:21:41.216Z,,0,,,3174.872000011921,completion,,,,,false,,,,92635.69999998808,92635.30000001192,89443.762,89460.90000000596,89460.428,92644.087,8,400,,,
trial,html.Screen,4_15_0,2023-09-15T20:21:44.196Z,,0,1,,2970.2130000119214,response,ISIC_0024427.JPG,8,ISIC_0068576.JPG,ISIC_0068576.JPG,false,0,keypress(z),500,95614.80000001192,95614.30000001192,92627.421,92635.80000001192,92644.087,95627.301,8,400,16,,ISIC_0024427.JPG
break,html.Screen,4_15_1,2023-09-15T20:21:44.197Z,,0,,,NaN,,,,,,false,,,,95616.5,95616.19999998808,,95615.19999998808,,95627.301,8,400,,,
break_continue,html.Screen,4_15_2,2023-09-15T20:21:44.198Z,,0,,,NaN,,,,,,false,,,,95617,95616.80000001192,,95616.59999999404,,95627.301,8,400,,,
sequence,flow.Sequence,4_15,2023-09-15T20:21:44.198Z,,0,,,2972.7130000119214,completion,,,,,false,,,,95617.09999999404,95616.80000001192,92627.421,92635.80000001192,92644.087,95627.301,8,400,,,
trial,html.Screen,4_16_0,2023-09-15T20:21:47.136Z,,0,1,,2927.3989999880723,response,ISIC_0015411.JPG,5,ISIC_4371210.JPG,ISIC_4371210.JPG,false,0,keypress(z),500,98555.19999998808,98554.69999998808,95610.635,95617.30000001192,95627.301,98560.517,8,400,17,,ISIC_0015411.JPG
break,html.Screen,4_16_1,2023-09-15T20:21:47.137Z,,0,,,NaN,,,,,,false,,,,98556.69999998808,98556.40000000596,,98555.5,,98560.517,8,400,,,
break_continue,html.Screen,4_16_2,2023-09-15T20:21:47.138Z,,0,,,NaN,,,,,,false,,,,98557.19999998808,98557,,98556.90000000596,,98560.517,8,400,,,
sequence,flow.Sequence,4_16,2023-09-15T20:21:47.138Z,,0,,,2929.6989999999932,completion,,,,,false,,,,98557.30000001192,98557,95610.635,95617.30000001192,95627.301,98560.517,8,400,,,
trial,html.Screen,4_17_0,2023-09-15T20:21:49.796Z,,0,1,,2654.482999999993,response,ISIC_4237064.JPG,8,ISIC_0029318.JPG,ISIC_4237064.JPG,false,1,keypress(m),500,101215.59999999404,101215,98543.851,98557.5,98560.517,101227.577,8,400,18,,ISIC_0029318.JPG
break,html.Screen,4_17_1,2023-09-15T20:21:49.798Z,,0,,,NaN,,,,,,false,,,,101217.09999999404,101216.80000001192,,101215.80000001192,,101227.577,8,400,,,
break_continue,html.Screen,4_17_2,2023-09-15T20:21:49.798Z,,0,,,NaN,,,,,,false,,,,101217.5,101217.40000000596,,101217.19999998808,,101227.577,8,400,,,
sequence,flow.Sequence,4_17,2023-09-15T20:21:49.798Z,,0,,,2656.8830000059534,completion,,,,,false,,,,101217.59999999404,101217.40000000596,98543.851,98557.40000000596,98560.517,101227.577,8,400,,,
trial,html.Screen,4_18_0,2023-09-15T20:21:52.666Z,,0,1,,2857.6229999880743,response,ISIC_6951506.JPG,8,ISIC_1957685.JPG,ISIC_6951506.JPG,false,1,keypress(m),500,104085.59999999404,104085.19999998808,101210.911,101217.90000000596,101227.577,104094.129,8,400,19,,ISIC_1957685.JPG
break,html.Screen,4_18_1,2023-09-15T20:21:52.668Z,,0,,,NaN,,,,,,false,,,,104087.09999999404,104086.90000000596,,104086,,104094.129,8,400,,,
break_continue,html.Screen,4_18_2,2023-09-15T20:21:52.668Z,,0,,,NaN,,,,,,false,,,,104087.80000001192,104087.69999998808,,104087.30000001192,,104094.129,8,400,,,
sequence,flow.Sequence,4_18,2023-09-15T20:21:52.669Z,,0,,,2860.1229999880743,completion,,,,,false,,,,104088,104087.69999998808,101210.911,101217.80000001192,101227.577,104094.129,8,400,,,
trial,html.Screen,4_19_0,2023-09-15T20:21:56.935Z,,0,1,,4260.17100001192,response,ISIC_0058021.JPG,5,ISIC_0758797.JPG,ISIC_0758797.JPG,false,0,keypress(z),500,108354.80000001192,108354.30000001192,104077.463,104088.19999998808,104094.129,108360.625,8,400,20,,ISIC_0058021.JPG
break,html.Screen,4_19_1,2023-09-15T20:21:56.937Z,,0,,,NaN,,,,,,false,,,,108356.30000001192,108356,,108355.09999999404,,108360.625,8,400,,,
break_continue,html.Screen,4_19_2,2023-09-15T20:21:56.937Z,,0,,,NaN,,,,,,false,,,,108356.80000001192,108356.69999998808,,108356.5,,108360.625,8,400,,,
sequence,flow.Sequence,4_19,2023-09-15T20:21:56.938Z,,0,,,4262.570999988078,completion,,,,,false,,,,108357,108356.69999998808,104077.463,104088.09999999404,104094.129,108360.625,8,400,,,
trial,html.Screen,4_20_0,2023-09-15T20:22:00.158Z,,0,1,,3216.375,response,ISIC_7438013.JPG,7,ISIC_0029942.JPG,ISIC_0029942.JPG,false,0,keypress(z),500,111577.5,111577,108343.959,108357.09999999404,108360.625,111594.236,8,400,21,,ISIC_7438013.JPG
break,html.Screen,4_20_1,2023-09-15T20:22:00.160Z,,0,,,NaN,,,,,,false,,,,111579,111578.69999998808,,111577.80000001192,,111594.236,8,400,,,
break_continue,html.Screen,4_20_2,2023-09-15T20:22:00.160Z,,0,,,NaN,,,,,,false,,,,111579.5,111579.40000000596,,111579.09999999404,,111594.236,8,400,,,
sequence,flow.Sequence,4_20,2023-09-15T20:22:00.160Z,,0,,,3218.7750000059605,completion,,,,,false,,,,111579.69999998808,111579.40000000596,108343.959,108357.09999999404,108360.625,111594.236,8,400,,,
trial,html.Screen,4_21_0,2023-09-15T20:22:03.254Z,,0,1,,3078.664000005956,response,ISIC_0024512.JPG,7,ISIC_0030860.JPG,ISIC_0030860.JPG,false,0,keypress(z),500,114673.30000001192,114672.90000000596,111577.57,111579.80000001192,111594.236,114677.446,8,400,22,,ISIC_0024512.JPG
break,html.Screen,4_21_1,2023-09-15T20:22:03.255Z,,0,,,NaN,,,,,,false,,,,114674.30000001192,114674.19999998808,,114673.40000000596,,114677.446,8,400,,,
break_continue,html.Screen,4_21_2,2023-09-15T20:22:03.255Z,,0,,,NaN,,,,,,false,,,,114674.69999998808,114674.59999999404,,114674.40000000596,,114677.446,8,400,,,
sequence,flow.Sequence,4_21,2023-09-15T20:22:03.255Z,,0,,,3080.363999994035,completion,,,,,false,,,,114674.90000000596,114674.59999999404,111577.57,111579.80000001192,111594.236,114677.446,8,400,,,
trial,html.Screen,4_22_0,2023-09-15T20:22:06.539Z,,0,1,,3280.0540000000037,response,ISIC_5258657.JPG,8,ISIC_8812781.JPG,ISIC_8812781.JPG,false,0,keypress(z),500,117958,117957.5,114660.78,114675,114677.446,117960.648,8,400,23,,ISIC_5258657.JPG
break,html.Screen,4_22_1,2023-09-15T20:22:06.540Z,,0,,,NaN,,,,,,false,,,,117959.5,117959.30000001192,,117958.40000000596,,117960.648,8,400,,,
break_continue,html.Screen,4_22_2,2023-09-15T20:22:06.540Z,,0,,,NaN,,,,,,false,,,,117960,117959.80000001192,,117959.69999998808,,117960.648,8,400,,,
sequence,flow.Sequence,4_22,2023-09-15T20:22:06.541Z,,0,,,3282.3540000119247,completion,,,,,false,,,,117960.19999998808,117959.80000001192,114660.78,114675,114677.446,117960.648,8,400,,,
trial,html.Screen,4_23_0,2023-09-15T20:22:09.863Z,,0,1,,3321.7520000059594,response,ISIC_0000162.JPG,8,ISIC_0519719.JPG,ISIC_0519719.JPG,false,0,keypress(z),500,121282.90000000596,121282.40000000596,117943.982,117960.40000000596,117960.648,121293.848,8,400,24,,ISIC_0000162.JPG
break,html.Screen,4_23_1,2023-09-15T20:22:09.865Z,,0,,,NaN,,,,,,false,,,,121284.5,121284.19999998808,,121283.30000001192,,121293.848,8,400,,,
break_continue,html.Screen,4_23_2,2023-09-15T20:22:09.865Z,,0,,,NaN,,,,,,false,,,,121285,121284.90000000596,,121284.59999999404,,121293.848,8,400,,,
sequence,flow.Sequence,4_23,2023-09-15T20:22:09.866Z,,0,,,3324.2520000059594,completion,,,,,false,,,,121285.09999999404,121284.90000000596,117943.982,117960.19999998808,117960.648,121293.848,8,400,,,
trial,html.Screen,4_24_0,2023-09-15T20:22:13.486Z,,0,1,,3611.5520000059623,response,ISIC_0033574.JPG,9,ISIC_0070447.JPG,ISIC_0033574.JPG,false,1,keypress(m),500,124905.80000001192,124905.40000000596,121277.182,121285.19999998808,121293.848,124910.877,8,400,25,,ISIC_0070447.JPG
break,html.Screen,4_24_1,2023-09-15T20:22:13.488Z,,0,,,NaN,,,,,,false,,,,124907.19999998808,124906.90000000596,,124906.09999999404,,124910.877,8,400,,,
break_continue,html.Screen,4_24_2,2023-09-15T20:22:13.488Z,,0,,,NaN,,,,,,false,,,,124907.5,124907.40000000596,,124907.19999998808,,124910.877,8,400,,,
sequence,flow.Sequence,4_24,2023-09-15T20:22:13.488Z,,0,,,3613.5520000059623,completion,,,,,false,,,,124907.69999998808,124907.40000000596,121277.182,121285.19999998808,121293.848,124910.877,8,400,,,
trial,html.Screen,4_25_0,2023-09-15T20:22:16.792Z,,0,1,,3299.822999988086,response,ISIC_7050122.JPG,7,ISIC_1894133.JPG,ISIC_7050122.JPG,false,1,keypress(m),500,128211.30000001192,128210.69999998808,124894.211,124907.80000001192,124910.877,128227.411,8,400,26,,ISIC_1894133.JPG
break,html.Screen,4_25_1,2023-09-15T20:22:16.793Z,,0,,,NaN,,,,,,false,,,,128212.80000001192,128212.5,,128211.59999999404,,128227.411,8,400,,,
break_continue,html.Screen,4_25_2,2023-09-15T20:22:16.794Z,,0,,,NaN,,,,,,false,,,,128213.19999998808,128213.09999999404,,128212.90000000596,,128227.411,8,400,,,
sequence,flow.Sequence,4_25,2023-09-15T20:22:16.794Z,,0,,,3302.2229999940464,completion,,,,,false,,,,128213.30000001192,128213.09999999404,124894.211,124907.69999998808,124910.877,128227.411,8,400,,,
trial,html.Screen,4_26_0,2023-09-15T20:22:20.223Z,,0,1,,3415.089000000007,response,ISIC_0031680.JPG,7,ISIC_8956001.JPG,ISIC_8956001.JPG,false,0,keypress(z),500,131642.90000000596,131642.5,128210.745,128213.5,128227.411,131643.941,8,400,27,,ISIC_0031680.JPG
break,html.Screen,4_26_1,2023-09-15T20:22:20.224Z,,0,,,NaN,,,,,,false,,,,131644,131643.80000001192,,131643.09999999404,,131643.941,8,400,,,
break_continue,html.Screen,4_26_2,2023-09-15T20:22:20.225Z,,0,,,NaN,,,,,,false,,,,131644.19999998808,131644.19999998808,,131644,,131643.941,8,400,,,
sequence,flow.Sequence,4_26,2023-09-15T20:22:20.225Z,,0,,,3416.7889999880863,completion,,,,,false,,,,131644.30000001192,131644.19999998808,128210.745,128213.40000000596,128227.411,131643.941,8,400,,,
trial,html.Screen,4_27_0,2023-09-15T20:22:23.396Z,,0,1,,3171.0590000000084,response,ISIC_1543544.JPG,8,ISIC_5964173.JPG,ISIC_1543544.JPG,false,1,keypress(m),500,134815.40000000596,134815,131627.275,131644.59999999404,131643.941,134844.251,8,400,28,,ISIC_5964173.JPG
break,html.Screen,4_27_1,2023-09-15T20:22:23.398Z,,0,,,NaN,,,,,,false,,,,134817.09999999404,134816.90000000596,,134815.80000001192,,134844.251,8,400,,,
break_continue,html.Screen,4_27_2,2023-09-15T20:22:23.398Z,,0,,,NaN,,,,,,false,,,,134817.5,134817.5,,134817.19999998808,,134844.251,8,400,,,
sequence,flow.Sequence,4_27,2023-09-15T20:22:23.398Z,,0,,,3173.5590000000084,completion,,,,,false,,,,134817.69999998808,134817.5,131627.275,131644.5,131643.941,134844.251,8,400,,,
trial,html.Screen,4_28_0,2023-09-15T20:22:26.383Z,,0,1,,2958.2490000000107,response,ISIC_0011126.JPG,6,ISIC_0031626.JPG,ISIC_0031626.JPG,false,0,keypress(z),500,137803.09999999404,137802.5,134827.585,134817.80000001192,134844.251,137810.799,8,400,29,,ISIC_0011126.JPG
break,html.Screen,4_28_1,2023-09-15T20:22:26.385Z,,0,,,NaN,,,,,,false,,,,137804.69999998808,137804.40000000596,,137803.40000000596,,137810.799,8,400,,,
break_continue,html.Screen,4_28_2,2023-09-15T20:22:26.385Z,,0,,,NaN,,,,,,false,,,,137805.19999998808,137805,,137804.80000001192,,137810.799,8,400,,,
sequence,flow.Sequence,4_28,2023-09-15T20:22:26.386Z,,0,,,2960.7490000000107,completion,,,,,false,,,,137805.30000001192,137805,134827.585,134817.80000001192,134844.251,137810.799,8,400,,,
trial,html.Screen,4_29_0,2023-09-15T20:22:29.716Z,,0,1,,3324.90099998808,response,ISIC_1431777.JPG,9,ISIC_0032939.JPG,ISIC_1431777.JPG,false,1,keypress(m),500,141135.90000000596,141135.69999998808,137794.133,137805.30000001192,137810.799,141143.999,8,400,30,,ISIC_0032939.JPG
break,html.Screen,4_29_1,2023-09-15T20:22:29.717Z,,0,,,NaN,,,,,,false,,,,141136.80000001192,141136.69999998808,,141136.09999999404,,141143.999,8,400,,,
break_continue,html.Screen,4_29_2,2023-09-15T20:22:29.718Z,,0,,,NaN,,,,,,false,,,,141138.09999999404,141138,,141137.80000001192,,141143.999,8,400,,,
sequence,flow.Sequence,4_29,2023-09-15T20:22:29.718Z,,0,,,3327.201000000001,completion,,,,,false,,,,141138.09999999404,141138,137794.133,137805.30000001192,137810.799,141143.999,8,400,,,
trial,html.Screen,4_30_0,2023-09-15T20:22:33.113Z,,0,1,,3388.30100001191,response,ISIC_0030828.JPG,8,ISIC_1496194.JPG,ISIC_1496194.JPG,false,0,keypress(z),500,144532.69999998808,144532.30000001192,141127.333,141138.19999998808,141143.999,144544.352,8,400,31,,ISIC_0030828.JPG
break,html.Screen,4_30_1,2023-09-15T20:22:33.115Z,,0,,,NaN,,,,,,false,,,,144534.30000001192,144534.09999999404,,144533,,144544.352,8,400,,,
break_continue,html.Screen,4_30_2,2023-09-15T20:22:33.115Z,,0,,,NaN,,,,,,false,,,,144534.80000001192,144534.59999999404,,144534.5,,144544.352,8,400,,,
sequence,flow.Sequence,4_30,2023-09-15T20:22:33.115Z,,0,,,3390.600999994029,completion,,,,,false,,,,144535,144534.59999999404,141127.333,141138.19999998808,141143.999,144544.352,8,400,,,
trial,html.Screen,4_31_0,2023-09-15T20:22:35.793Z,,0,1,,2668.1479999999865,response,ISIC_8282404.JPG,8,ISIC_9050826.JPG,ISIC_8282404.JPG,false,1,keypress(m),500,147213,147212.5,144527.686,144535.19999998808,144544.352,147227.578,8,400,32,,ISIC_9050826.JPG
break,html.Screen,4_31_1,2023-09-15T20:22:35.795Z,,0,,,NaN,,,,,,false,,,,147214.40000000596,147214.19999998808,,147213.19999998808,,147227.578,8,400,,,
break_continue,html.Screen,4_31_2,2023-09-15T20:22:35.795Z,,0,,,NaN,,,,,,false,,,,147214.90000000596,147214.80000001192,,147214.59999999404,,147227.578,8,400,,,
sequence,flow.Sequence,4_31,2023-09-15T20:22:35.795Z,,0,,,2670.4480000119074,completion,,,,,false,,,,147215.09999999404,147214.80000001192,144527.686,144535.19999998808,144544.352,147227.578,8,400,,,
trial,html.Screen,4_32_0,2023-09-15T20:22:38.585Z,,0,1,,2776.4219999999914,response,ISIC_8525786.JPG,8,ISIC_0058138.JPG,ISIC_8525786.JPG,false,1,keypress(m),500,150004.5,150004,147210.912,147215.30000001192,147227.578,150010.8,8,400,33,,ISIC_0058138.JPG
break,html.Screen,4_32_1,2023-09-15T20:22:38.586Z,,0,,,NaN,,,,,,false,,,,150006,150005.69999998808,,150004.80000001192,,150010.8,8,400,,,
break_continue,html.Screen,4_32_2,2023-09-15T20:22:38.587Z,,0,,,NaN,,,,,,false,,,,150006.40000000596,150006.19999998808,,150006.09999999404,,150010.8,8,400,,,
sequence,flow.Sequence,4_32,2023-09-15T20:22:38.587Z,,0,,,2778.6219999880705,completion,,,,,false,,,,150006.5,150006.19999998808,147210.912,147215.19999998808,147227.578,150010.8,8,400,,,
trial,html.Screen,4_33_0,2023-09-15T20:22:41.312Z,,0,1,,2720.3999999880907,response,ISIC_3336353.JPG,8,ISIC_0066476.JPG,ISIC_3336353.JPG,false,1,keypress(m),500,152731.80000001192,152731.19999998808,149994.134,150006.69999998808,150010.8,152744.439,8,400,34,,ISIC_0066476.JPG
break,html.Screen,4_33_1,2023-09-15T20:22:41.314Z,,0,,,NaN,,,,,,false,,,,152733.30000001192,152733.09999999404,,152732,,152744.439,8,400,,,
break_continue,html.Screen,4_33_2,2023-09-15T20:22:41.314Z,,0,,,NaN,,,,,,false,,,,152733.69999998808,152733.69999998808,,152733.40000000596,,152744.439,8,400,,,
sequence,flow.Sequence,4_33,2023-09-15T20:22:41.314Z,,0,,,2722.8999999880907,completion,,,,,false,,,,152733.90000000596,152733.69999998808,149994.134,150006.59999999404,150010.8,152744.439,8,400,,,
trial,html.Screen,4_34_0,2023-09-15T20:22:44.120Z,,0,1,,2795.1609999940265,response,ISIC_0010863.JPG,5,ISIC_0012070.JPG,ISIC_0012070.JPG,false,0,keypress(z),500,155540.09999999404,155539.59999999404,152727.773,152734,152744.439,155544.327,8,400,35,,ISIC_0010863.JPG
break,html.Screen,4_34_1,2023-09-15T20:22:44.122Z,,0,,,NaN,,,,,,false,,,,155541.69999998808,155541.5,,155540.40000000596,,155544.327,8,400,,,
break_continue,html.Screen,4_34_2,2023-09-15T20:22:44.122Z,,0,,,NaN,,,,,,false,,,,155542.09999999404,155542.09999999404,,155541.80000001192,,155544.327,8,400,,,
sequence,flow.Sequence,4_34,2023-09-15T20:22:44.123Z,,0,,,2797.6609999940265,completion,,,,,false,,,,155542.40000000596,155542.09999999404,152727.773,152734,152744.439,155544.327,8,400,,,
trial,html.Screen,4_35_0,2023-09-15T20:22:47.903Z,,0,1,,3778.17300000001,response,ISIC_0033206.JPG,8,ISIC_0071913.JPG,ISIC_0033206.JPG,false,1,keypress(m),500,159322.90000000596,159322.5,155527.661,155542.5,155544.327,159327.509,8,400,36,,ISIC_0071913.JPG
break,html.Screen,4_35_1,2023-09-15T20:22:47.905Z,,0,,,NaN,,,,,,false,,,,159324.40000000596,159324.09999999404,,159323.09999999404,,159327.509,8,400,,,
break_continue,html.Screen,4_35_2,2023-09-15T20:22:47.905Z,,0,,,NaN,,,,,,false,,,,159324.80000001192,159324.69999998808,,159324.5,,159327.509,8,400,,,
sequence,flow.Sequence,4_35,2023-09-15T20:22:47.905Z,,0,,,3780.372999988089,completion,,,,,false,,,,159324.90000000596,159324.69999998808,155527.661,155542.40000000596,155544.327,159327.509,8,400,,,
trial,html.Screen,4_36_0,2023-09-15T20:22:50.823Z,,0,1,,2914.5909999940486,response,ISIC_0028109.JPG,6,ISIC_2002605.JPG,ISIC_0028109.JPG,false,1,keypress(m),500,162242.5,162242.09999999404,159310.843,159325,159327.509,162244.059,8,400,37,,ISIC_2002605.JPG
break,html.Screen,4_36_1,2023-09-15T20:22:50.824Z,,0,,,NaN,,,,,,false,,,,162244.19999998808,162243.90000000596,,162242.80000001192,,162244.059,8,400,,,
break_continue,html.Screen,4_36_2,2023-09-15T20:22:50.825Z,,0,,,NaN,,,,,,false,,,,162244.59999999404,162244.5,,162244.30000001192,,162244.059,8,400,,,
sequence,flow.Sequence,4_36,2023-09-15T20:22:50.825Z,,0,,,2916.991000000009,completion,,,,,false,,,,162244.80000001192,162244.5,159310.843,159325,159327.509,162244.059,8,400,,,
trial,html.Screen,4_37_0,2023-09-15T20:22:53.772Z,,0,1,,2947.040999994031,response,ISIC_1142962.JPG,4,ISIC_2937642.JPG,ISIC_1142962.JPG,false,1,keypress(m),500,165191.59999999404,165191.09999999404,162227.393,162244.90000000596,162244.059,165194.418,8,400,38,,ISIC_2937642.JPG
break,html.Screen,4_37_1,2023-09-15T20:22:53.773Z,,0,,,NaN,,,,,,false,,,,165193.19999998808,165192.90000000596,,165191.90000000596,,165194.418,8,400,,,
break_continue,html.Screen,4_37_2,2023-09-15T20:22:53.774Z,,0,,,NaN,,,,,,false,,,,165193.5,165193.5,,165193.30000001192,,165194.418,8,400,,,
sequence,flow.Sequence,4_37,2023-09-15T20:22:53.774Z,,0,,,2949.4409999999916,completion,,,,,false,,,,165193.80000001192,165193.5,162227.393,162244.80000001192,162244.059,165194.418,8,400,,,
trial,html.Screen,4_38_0,2023-09-15T20:22:56.547Z,,0,1,,2771.9820000059553,response,ISIC_0030780.JPG,5,ISIC_2241388.JPG,ISIC_2241388.JPG,false,0,keypress(z),500,167966.90000000596,167966.40000000596,165177.752,165194,165194.418,167977.64,8,400,39,,ISIC_0030780.JPG
break,html.Screen,4_38_1,2023-09-15T20:22:56.549Z,,0,,,NaN,,,,,,false,,,,167968.5,167968.09999999404,,167967.19999998808,,167977.64,8,400,,,
break_continue,html.Screen,4_38_2,2023-09-15T20:22:56.549Z,,0,,,NaN,,,,,,false,,,,167968.90000000596,167968.80000001192,,167968.59999999404,,167977.64,8,400,,,
sequence,flow.Sequence,4_38,2023-09-15T20:22:56.549Z,,0,,,2774.382000011916,completion,,,,,false,,,,167969.09999999404,167968.80000001192,165177.752,165193.90000000596,165194.418,167977.64,8,400,,,
trial,html.Screen,4_39_0,2023-09-15T20:22:59.386Z,,0,1,,2827.559999988065,response,ISIC_0015251.JPG,8,ISIC_3374533.JPG,ISIC_3374533.JPG,false,0,keypress(z),500,170805.69999998808,170805.19999998808,167960.974,167969.30000001192,167977.64,170810.86,8,400,40,,ISIC_0015251.JPG
break,html.Screen,4_39_1,2023-09-15T20:22:59.387Z,,0,,,NaN,,,,,,false,,,,170807.09999999404,170806.80000001192,,170806,,170810.86,8,400,,,
break_continue,html.Screen,4_39_2,2023-09-15T20:22:59.388Z,,0,,,NaN,,,,,,false,,,,170807.59999999404,170807.5,,170807.19999998808,,170810.86,8,400,,,
sequence,flow.Sequence,4_39,2023-09-15T20:22:59.388Z,,0,,,2829.859999999986,completion,,,,,false,,,,170807.80000001192,170807.5,167960.974,167969.19999998808,167977.64,170810.86,8,400,,,
trial,html.Screen,4_40_0,2023-09-15T20:23:02.760Z,,0,1,,3368.5400000059744,response,ISIC_0033168.JPG,8,ISIC_9029813.JPG,ISIC_9029813.JPG,false,0,keypress(z),500,174179.90000000596,174179.40000000596,170794.194,170807.90000000596,170810.86,174194.505,8,400,41,,ISIC_0033168.JPG
break,html.Screen,4_40_1,2023-09-15T20:23:02.761Z,,0,,,NaN,,,,,,false,,,,174181.30000001192,174181.09999999404,,174180.09999999404,,174194.505,8,400,,,
break_continue,html.Screen,4_40_2,2023-09-15T20:23:02.762Z,,0,,,NaN,,,,,,false,,,,174181.80000001192,174181.69999998808,,174181.40000000596,,174194.505,8,400,,,
sequence,flow.Sequence,4_40,2023-09-15T20:23:02.762Z,,0,,,3370.839999988093,completion,,,,,false,,,,174182,174181.69999998808,170794.194,170807.90000000596,170810.86,174194.505,8,400,,,
trial,html.Screen,4_41_0,2023-09-15T20:23:07.688Z,,0,1,,4912.795000011916,response,ISIC_0060962.JPG,8,ISIC_0030732.JPG,ISIC_0030732.JPG,false,0,keypress(z),500,179107.5,179107.30000001192,174177.839,174182.19999998808,174194.505,179110.975,8,400,42,,ISIC_0060962.JPG
break,html.Screen,4_41_1,2023-09-15T20:23:07.688Z,,0,,,NaN,,,,,,false,,,,179108.40000000596,179108.30000001192,,179107.69999998808,,179110.975,8,400,,,
break_continue,html.Screen,4_41_2,2023-09-15T20:23:07.689Z,,0,,,NaN,,,,,,false,,,,179108.69999998808,179108.59999999404,,179108.5,,179110.975,8,400,,,
sequence,flow.Sequence,4_41,2023-09-15T20:23:07.689Z,,0,,,4914.094999994035,completion,,,,,false,,,,179108.80000001192,179108.59999999404,174177.839,174182.09999999404,174194.505,179110.975,8,400,,,
trial,html.Screen,4_42_0,2023-09-15T20:23:10.589Z,,0,1,,2898.024999999994,response,ISIC_6268546.JPG,8,ISIC_0029383.JPG,ISIC_6268546.JPG,false,1,keypress(m),500,182009.5,182009,179094.309,179108.90000000596,179110.975,182010.859,8,400,43,,ISIC_0029383.JPG
break,html.Screen,4_42_1,2023-09-15T20:23:10.591Z,,0,,,NaN,,,,,,false,,,,182011,182010.69999998808,,182009.69999998808,,182010.859,8,400,,,
break_continue,html.Screen,4_42_2,2023-09-15T20:23:10.591Z,,0,,,NaN,,,,,,false,,,,182011.40000000596,182011.30000001192,,182011.09999999404,,182010.859,8,400,,,
sequence,flow.Sequence,4_42,2023-09-15T20:23:10.592Z,,0,,,2900.325000011915,completion,,,,,false,,,,182011.59999999404,182011.30000001192,179094.309,179108.80000001192,179110.975,182010.859,8,400,,,
trial,html.Screen,4_43_0,2023-09-15T20:23:13.205Z,,0,1,,2613.8409999880823,response,ISIC_9209245.JPG,7,ISIC_7846309.JPG,ISIC_7846309.JPG,false,0,keypress(z),500,184625.19999998808,184624.69999998808,181994.193,182011.69999998808,182010.859,184627.876,8,400,44,,ISIC_9209245.JPG
break,html.Screen,4_43_1,2023-09-15T20:23:13.207Z,,0,,,NaN,,,,,,false,,,,184626.69999998808,184626.5,,184625.5,,184627.876,8,400,,,
break_continue,html.Screen,4_43_2,2023-09-15T20:23:13.207Z,,0,,,NaN,,,,,,false,,,,184627.19999998808,184627,,184626.90000000596,,184627.876,8,400,,,
sequence,flow.Sequence,4_43,2023-09-15T20:23:13.207Z,,0,,,2616.1410000000033,completion,,,,,false,,,,184627.40000000596,184627,181994.193,182011.69999998808,182010.859,184627.876,8,400,,,
trial,html.Screen,4_44_0,2023-09-15T20:23:16.621Z,,0,1,,3412.4240000119316,response,ISIC_0055169.JPG,8,ISIC_6673956.JPG,ISIC_6673956.JPG,false,0,keypress(z),500,188040.80000001192,188040.30000001192,184611.21,184627.5,184627.876,188044.406,8,400,45,,ISIC_0055169.JPG
break,html.Screen,4_44_1,2023-09-15T20:23:16.622Z,,0,,,NaN,,,,,,false,,,,188042.30000001192,188042.09999999404,,188041.19999998808,,188044.406,8,400,,,
break_continue,html.Screen,4_44_2,2023-09-15T20:23:16.623Z,,0,,,NaN,,,,,,false,,,,188042.90000000596,188042.69999998808,,188042.40000000596,,188044.406,8,400,,,
sequence,flow.Sequence,4_44,2023-09-15T20:23:16.623Z,,0,,,3414.82399998809,completion,,,,,false,,,,188043,188042.69999998808,184611.21,184627.5,184627.876,188044.406,8,400,,,
trial,html.Screen,4_45_0,2023-09-15T20:23:19.713Z,,0,1,,3088.6939999940514,response,ISIC_0029626.JPG,5,ISIC_3885808.JPG,ISIC_3885808.JPG,false,0,keypress(z),500,191133.5,191133.09999999404,188027.74,188043.19999998808,188044.406,191144.282,8,400,46,,ISIC_0029626.JPG
break,html.Screen,4_45_1,2023-09-15T20:23:19.715Z,,0,,,NaN,,,,,,false,,,,191135.09999999404,191134.90000000596,,191133.90000000596,,191144.282,8,400,,,
break_continue,html.Screen,4_45_2,2023-09-15T20:23:19.715Z,,0,,,NaN,,,,,,false,,,,191135.59999999404,191135.40000000596,,191135.30000001192,,191144.282,8,400,,,
sequence,flow.Sequence,4_45,2023-09-15T20:23:19.716Z,,0,,,3090.9940000059723,completion,,,,,false,,,,191135.69999998808,191135.40000000596,188027.74,188043.09999999404,188044.406,191144.282,8,400,,,
trial,html.Screen,4_46_0,2023-09-15T20:23:22.863Z,,0,1,,3138.5180000119144,response,ISIC_0071735.JPG,7,ISIC_6358752.JPG,ISIC_0071735.JPG,false,1,keypress(m),500,194283.40000000596,194282.80000001192,191127.616,191136,191144.282,194294.655,8,400,47,,ISIC_6358752.JPG
break,html.Screen,4_46_1,2023-09-15T20:23:22.865Z,,0,,,NaN,,,,,,false,,,,194284.90000000596,194284.59999999404,,194283.59999999404,,194294.655,8,400,,,
break_continue,html.Screen,4_46_2,2023-09-15T20:23:22.865Z,,0,,,NaN,,,,,,false,,,,194285.40000000596,194285.19999998808,,194285,,194294.655,8,400,,,
sequence,flow.Sequence,4_46,2023-09-15T20:23:22.865Z,,0,,,3140.9179999880726,completion,,,,,false,,,,194285.5,194285.19999998808,191127.616,191135.90000000596,191144.282,194294.655,8,400,,,
trial,html.Screen,4_47_0,2023-09-15T20:23:25.668Z,,0,1,,2793.2450000059616,response,ISIC_4980079.JPG,10,ISIC_3966064.JPG,ISIC_4980079.JPG,false,1,keypress(m),500,197088.40000000596,197087.90000000596,194277.989,194285.69999998808,194294.655,197094.543,8,400,48,,ISIC_3966064.JPG
break,html.Screen,4_47_1,2023-09-15T20:23:25.670Z,,0,,,NaN,,,,,,false,,,,197089.80000001192,197089.5,,197088.59999999404,,197094.543,8,400,,,
break_continue,html.Screen,4_47_2,2023-09-15T20:23:25.670Z,,0,,,NaN,,,,,,false,,,,197090.19999998808,197090.09999999404,,197090,,197094.543,8,400,,,
sequence,flow.Sequence,4_47,2023-09-15T20:23:25.670Z,,0,,,2795.4449999940407,completion,,,,,false,,,,197090.40000000596,197090.09999999404,194277.989,194285.69999998808,194294.655,197094.543,8,400,,,
trial,html.Screen,4_48_0,2023-09-15T20:23:28.910Z,,0,1,,3235.257000011916,response,ISIC_7381224.JPG,9,ISIC_9574101.JPG,ISIC_9574101.JPG,false,0,keypress(z),500,200330.5,200329.80000001192,197077.877,197090.59999999404,197094.543,200344.413,8,400,49,,ISIC_7381224.JPG
break,html.Screen,4_48_1,2023-09-15T20:23:28.912Z,,0,,,NaN,,,,,,false,,,,200332.09999999404,200331.80000001192,,200330.80000001192,,200344.413,8,400,,,
break_continue,html.Screen,4_48_2,2023-09-15T20:23:28.912Z,,0,,,NaN,,,,,,false,,,,200332.5,200332.40000000596,,200332.19999998808,,200344.413,8,400,,,
sequence,flow.Sequence,4_48,2023-09-15T20:23:28.913Z,,0,,,3237.8570000059553,completion,,,,,false,,,,200332.69999998808,200332.40000000596,197077.877,197090.5,197094.543,200344.413,8,400,,,
trial,html.Screen,4_49_0,2023-09-15T20:23:31.494Z,,0,1,,2569.3870000119205,response,ISIC_0030663.JPG,6,ISIC_9754098.JPG,ISIC_0030663.JPG,false,1,keypress(m),500,202914.30000001192,202913.80000001192,200327.747,200332.90000000596,200344.413,202927.643,8,400,50,,ISIC_9754098.JPG
break,html.Screen,4_49_1,2023-09-15T20:23:41.495Z,,0,,,10000.048999999999,timeout,,,,,false,,,,212915.19999998808,212911.026,202910.977,202914.59999999404,202927.643,212927.692,8,400,,,
break_continue,html.Screen,4_49_2,2023-09-15T20:23:43.491Z,,0,,,1970.007999988069,response,,,,,false,continue,keypress(Space),,214911.19999998808,214897.69999998808,212911.026,212915.5,212927.692,214927.612,8,400,,,
sequence,flow.Sequence,4_49,2023-09-15T20:23:43.491Z,,0,,,14553.286999988079,completion,,,,,false,,,,214911.40000000596,214897.69999998808,200327.747,200332.90000000596,200344.413,214927.612,8,400,,,
trial,html.Screen,4_50_0,2023-09-15T20:23:46.255Z,,0,2,,2747.487999994046,response,ISIC_0032724.JPG,8,ISIC_5065245.JPG,ISIC_0032724.JPG,false,1,keypress(m),500,217675.19999998808,217675.09999999404,214910.946,214911.40000000596,214927.612,217677.998,8,400,1,,ISIC_5065245.JPG
break,html.Screen,4_50_1,2023-09-15T20:23:46.256Z,,0,,,NaN,,,,,,false,,,,217675.90000000596,217675.80000001192,,217675.40000000596,,217677.998,8,400,,,
break_continue,html.Screen,4_50_2,2023-09-15T20:23:46.256Z,,0,,,NaN,,,,,,false,,,,217676,217676,,217675.90000000596,,217677.998,8,400,,,
sequence,flow.Sequence,4_50,2023-09-15T20:23:46.256Z,,0,,,2748.3880000000063,completion,,,,,false,,,,217676.09999999404,217676,214910.946,214911.40000000596,214927.612,217677.998,8,400,,,
trial,html.Screen,4_51_0,2023-09-15T20:23:48.977Z,,0,2,,2718.902000005968,response,ISIC_0068015.JPG,8,ISIC_0011704.JPG,ISIC_0068015.JPG,false,1,keypress(m),500,220397.40000000596,220396.90000000596,217661.332,217676.19999998808,217677.998,220411.222,8,400,2,,ISIC_0011704.JPG
break,html.Screen,4_51_1,2023-09-15T20:23:48.979Z,,0,,,NaN,,,,,,false,,,,220399.09999999404,220398.90000000596,,220397.69999998808,,220411.222,8,400,,,
break_continue,html.Screen,4_51_2,2023-09-15T20:23:48.979Z,,0,,,NaN,,,,,,false,,,,220399.5,220399.40000000596,,220399.19999998808,,220411.222,8,400,,,
sequence,flow.Sequence,4_51,2023-09-15T20:23:48.979Z,,0,,,2721.402000005968,completion,,,,,false,,,,220399.69999998808,220399.40000000596,217661.332,217676.19999998808,217677.998,220411.222,8,400,,,
trial,html.Screen,4_52_0,2023-09-15T20:23:51.631Z,,0,2,,2639.47799998807,response,ISIC_0013472.JPG,7,ISIC_0010611.JPG,ISIC_0013472.JPG,false,1,keypress(m),500,223051.19999998808,223050.69999998808,220394.556,220399.80000001192,220411.222,223061.116,8,400,3,,ISIC_0010611.JPG
break,html.Screen,4_52_1,2023-09-15T20:23:51.632Z,,0,,,NaN,,,,,,false,,,,223052.80000001192,223052.5,,223051.69999998808,,223061.116,8,400,,,
break_continue,html.Screen,4_52_2,2023-09-15T20:23:51.633Z,,0,,,NaN,,,,,,false,,,,223053.30000001192,223053.19999998808,,223052.90000000596,,223061.116,8,400,,,
sequence,flow.Sequence,4_52,2023-09-15T20:23:51.633Z,,0,,,2641.97799998807,completion,,,,,false,,,,223053.5,223053.19999998808,220394.556,220399.80000001192,220411.222,223061.116,8,400,,,
trial,html.Screen,4_53_0,2023-09-15T20:23:54.084Z,,0,2,,2442.7840000059514,response,ISIC_0027951.JPG,8,ISIC_2259861.JPG,ISIC_2259861.JPG,false,0,keypress(z),500,225504.30000001192,225503.90000000596,223044.45,223053.59999999404,223061.116,225511.465,8,400,4,,ISIC_0027951.JPG
break,html.Screen,4_53_1,2023-09-15T20:23:54.085Z,,0,,,NaN,,,,,,false,,,,225505.90000000596,225505.59999999404,,225504.69999998808,,225511.465,8,400,,,
break_continue,html.Screen,4_53_2,2023-09-15T20:23:54.086Z,,0,,,NaN,,,,,,false,,,,225506.30000001192,225506.19999998808,,225506,,225511.465,8,400,,,
sequence,flow.Sequence,4_53,2023-09-15T20:23:54.086Z,,0,,,2445.08399998807,completion,,,,,false,,,,225506.5,225506.19999998808,223044.45,223053.5,223061.116,225511.465,8,400,,,
trial,html.Screen,4_54_0,2023-09-15T20:23:56.572Z,,0,2,,2480.5350000000035,response,ISIC_4915897.JPG,9,ISIC_7517082.JPG,ISIC_7517082.JPG,false,0,keypress(z),500,227992.59999999404,227992,225494.799,225506.59999999404,225511.465,227994.699,8,400,5,,ISIC_4915897.JPG
break,html.Screen,4_54_1,2023-09-15T20:23:56.574Z,,0,,,NaN,,,,,,false,,,,227994.09999999404,227993.80000001192,,227992.80000001192,,227994.699,8,400,,,
break_continue,html.Screen,4_54_2,2023-09-15T20:23:56.574Z,,0,,,NaN,,,,,,false,,,,227994.5,227994.40000000596,,227994.19999998808,,227994.699,8,400,,,
sequence,flow.Sequence,4_54,2023-09-15T20:23:56.574Z,,0,,,2482.935000005964,completion,,,,,false,,,,227994.59999999404,227994.40000000596,225494.799,225506.59999999404,225511.465,227994.699,8,400,,,
trial,html.Screen,4_55_0,2023-09-15T20:23:59.088Z,,0,2,,2513.8010000000068,response,ISIC_0000553.JPG,5,ISIC_1149693.JPG,ISIC_1149693.JPG,false,0,keypress(z),500,230508.90000000596,230508.5,227978.033,227994.80000001192,227994.699,230511.265,8,400,6,,ISIC_0000553.JPG
break,html.Screen,4_55_1,2023-09-15T20:23:59.090Z,,0,,,NaN,,,,,,false,,,,230510.5,230510.19999998808,,230509.19999998808,,230511.265,8,400,,,
break_continue,html.Screen,4_55_2,2023-09-15T20:23:59.090Z,,0,,,NaN,,,,,,false,,,,230510.90000000596,230510.69999998808,,230510.59999999404,,230511.265,8,400,,,
sequence,flow.Sequence,4_55,2023-09-15T20:23:59.091Z,,0,,,2516.000999988086,completion,,,,,false,,,,230511.09999999404,230510.69999998808,227978.033,227994.80000001192,227994.699,230511.265,8,400,,,
trial,html.Screen,4_56_0,2023-09-15T20:24:01.913Z,,0,2,,2822.035000011907,response,ISIC_4890201.JPG,8,ISIC_0025001.JPG,ISIC_0025001.JPG,false,0,keypress(z),500,233333.80000001192,233333.30000001192,230494.599,230511.19999998808,230511.265,233344.485,8,400,7,,ISIC_4890201.JPG
break,html.Screen,4_56_1,2023-09-15T20:24:01.915Z,,0,,,NaN,,,,,,false,,,,233335.40000000596,233335,,233334.09999999404,,233344.485,8,400,,,
break_continue,html.Screen,4_56_2,2023-09-15T20:24:01.915Z,,0,,,NaN,,,,,,false,,,,233335.90000000596,233335.69999998808,,233335.5,,233344.485,8,400,,,
sequence,flow.Sequence,4_56,2023-09-15T20:24:01.915Z,,0,,,2824.434999988065,completion,,,,,false,,,,233336,233335.69999998808,230494.599,230511.19999998808,230511.265,233344.485,8,400,,,
trial,html.Screen,4_57_0,2023-09-15T20:24:04.583Z,,0,2,,2658.6149999940535,response,ISIC_0071457.JPG,7,ISIC_0072507.JPG,ISIC_0071457.JPG,false,1,keypress(m),500,236003.5,236003.09999999404,233327.819,233336.09999999404,233344.485,236011.483,8,400,8,,ISIC_0072507.JPG
break,html.Screen,4_57_1,2023-09-15T20:24:04.585Z,,0,,,NaN,,,,,,false,,,,236005,236004.80000001192,,236003.90000000596,,236011.483,8,400,,,
break_continue,html.Screen,4_57_2,2023-09-15T20:24:04.585Z,,0,,,NaN,,,,,,false,,,,236005.30000001192,236005.30000001192,,236005.19999998808,,236011.483,8,400,,,
sequence,flow.Sequence,4_57,2023-09-15T20:24:04.585Z,,0,,,2660.815000011935,completion,,,,,false,,,,236005.5,236005.30000001192,233327.819,233336.09999999404,233344.485,236011.483,8,400,,,
trial,html.Screen,4_58_0,2023-09-15T20:24:07.144Z,,0,2,,2552.3170000119135,response,ISIC_9052604.JPG,8,ISIC_0034236.JPG,ISIC_9052604.JPG,false,1,keypress(m),500,238564.40000000596,238563.80000001192,235994.817,236005.59999999404,236011.483,238578.047,8,400,9,,ISIC_0034236.JPG
break,html.Screen,4_58_1,2023-09-15T20:24:07.145Z,,0,,,NaN,,,,,,false,,,,238566,238565.69999998808,,238564.69999998808,,238578.047,8,400,,,
break_continue,html.Screen,4_58_2,2023-09-15T20:24:07.146Z,,0,,,NaN,,,,,,false,,,,238566.30000001192,238566.30000001192,,238566.09999999404,,238578.047,8,400,,,
sequence,flow.Sequence,4_58,2023-09-15T20:24:07.146Z,,0,,,2554.8170000119135,completion,,,,,false,,,,238566.59999999404,238566.30000001192,235994.817,236005.59999999404,236011.483,238578.047,8,400,,,
trial,html.Screen,4_59_0,2023-09-15T20:24:09.758Z,,0,2,,2600.4530000000086,response,ISIC_6255113.JPG,7,ISIC_7766007.JPG,ISIC_7766007.JPG,false,0,keypress(z),500,241179,241178.5,238561.381,238566.80000001192,238578.047,241194.609,8,400,10,,ISIC_6255113.JPG
break,html.Screen,4_59_1,2023-09-15T20:24:09.760Z,,0,,,NaN,,,,,,false,,,,241180.5,241180.19999998808,,241179.19999998808,,241194.609,8,400,,,
break_continue,html.Screen,4_59_2,2023-09-15T20:24:09.760Z,,0,,,NaN,,,,,,false,,,,241180.90000000596,241180.80000001192,,241180.69999998808,,241194.609,8,400,,,
sequence,flow.Sequence,4_59,2023-09-15T20:24:09.761Z,,0,,,2602.7530000119295,completion,,,,,false,,,,241181.09999999404,241180.80000001192,238561.381,238566.59999999404,238578.047,241194.609,8,400,,,
trial,html.Screen,4_60_0,2023-09-15T20:24:13.254Z,,0,2,,3479.191000011924,response,ISIC_9259989.JPG,8,ISIC_9436034.JPG,ISIC_9436034.JPG,false,0,keypress(z),500,244674.30000001192,244673.80000001192,241177.943,241181.19999998808,241194.609,244677.803,8,400,11,,ISIC_9259989.JPG
break,html.Screen,4_60_1,2023-09-15T20:24:13.255Z,,0,,,NaN,,,,,,false,,,,244675.80000001192,244675.59999999404,,244674.59999999404,,244677.803,8,400,,,
break_continue,html.Screen,4_60_2,2023-09-15T20:24:13.256Z,,0,,,NaN,,,,,,false,,,,244676.30000001192,244676.09999999404,,244675.90000000596,,244677.803,8,400,,,
sequence,flow.Sequence,4_60,2023-09-15T20:24:13.256Z,,0,,,3481.490999994043,completion,,,,,false,,,,244676.5,244676.09999999404,241177.943,241181.19999998808,241194.609,244677.803,8,400,,,
trial,html.Screen,4_61_0,2023-09-15T20:24:15.884Z,,0,2,,2626.6969999999856,response,ISIC_0027749.JPG,5,ISIC_4001990.JPG,ISIC_4001990.JPG,false,0,keypress(z),500,247305,247304.5,244661.137,244676.59999999404,244677.803,247311.469,8,400,12,,ISIC_0027749.JPG
break,html.Screen,4_61_1,2023-09-15T20:24:15.886Z,,0,,,NaN,,,,,,false,,,,247306.59999999404,247306.30000001192,,247305.30000001192,,247311.469,8,400,,,
break_continue,html.Screen,4_61_2,2023-09-15T20:24:15.886Z,,0,,,NaN,,,,,,false,,,,247307,247306.80000001192,,247306.59999999404,,247311.469,8,400,,,
sequence,flow.Sequence,4_61,2023-09-15T20:24:15.886Z,,0,,,2628.9970000119065,completion,,,,,false,,,,247307.09999999404,247306.80000001192,244661.137,244676.5,244677.803,247311.469,8,400,,,
trial,html.Screen,4_62_0,2023-09-15T20:24:18.884Z,,0,2,,2992.730999988067,response,ISIC_7466175.JPG,5,ISIC_0000516.JPG,ISIC_7466175.JPG,false,1,keypress(m),500,250304.69999998808,250304.19999998808,247294.803,247307.30000001192,247311.469,250311.349,8,400,13,,ISIC_0000516.JPG
break,html.Screen,4_62_1,2023-09-15T20:24:18.886Z,,0,,,NaN,,,,,,false,,,,250306.19999998808,250306,,250304.90000000596,,250311.349,8,400,,,
break_continue,html.Screen,4_62_2,2023-09-15T20:24:18.886Z,,0,,,NaN,,,,,,false,,,,250306.59999999404,250306.5,,250306.30000001192,,250311.349,8,400,,,
sequence,flow.Sequence,4_62,2023-09-15T20:24:18.886Z,,0,,,2995.030999999988,completion,,,,,false,,,,250306.69999998808,250306.5,247294.803,247307.19999998808,247311.469,250311.349,8,400,,,
trial,html.Screen,4_63_0,2023-09-15T20:24:23.113Z,,0,2,,4221.651000000013,response,ISIC_1396767.JPG,5,ISIC_0878793.JPG,ISIC_0878793.JPG,false,0,keypress(z),500,254533.30000001192,254533,250294.683,250306.80000001192,250311.349,254561.179,8,400,14,,ISIC_1396767.JPG
break,html.Screen,4_63_1,2023-09-15T20:24:23.114Z,,0,,,NaN,,,,,,false,,,,254535,254534.80000001192,,254533.59999999404,,254561.179,8,400,,,
break_continue,html.Screen,4_63_2,2023-09-15T20:24:23.115Z,,0,,,NaN,,,,,,false,,,,254535.5,254535.40000000596,,254535.19999998808,,254561.179,8,400,,,
sequence,flow.Sequence,4_63,2023-09-15T20:24:23.115Z,,0,,,4224.051000005973,completion,,,,,false,,,,254535.69999998808,254535.40000000596,250294.683,250306.69999998808,250311.349,254561.179,8,400,,,
trial,html.Screen,4_64_0,2023-09-15T20:24:26.014Z,,0,2,,2873.2210000059567,response,ISIC_0056692.JPG,9,ISIC_0028469.JPG,ISIC_0028469.JPG,false,0,keypress(z),500,257434.90000000596,257434.40000000596,254544.513,254535.80000001192,254561.179,257444.903,8,400,15,,ISIC_0056692.JPG
break,html.Screen,4_64_1,2023-09-15T20:24:26.016Z,,0,,,NaN,,,,,,false,,,,257436.30000001192,257436.09999999404,,257435.09999999404,,257444.903,8,400,,,
break_continue,html.Screen,4_64_2,2023-09-15T20:24:26.016Z,,0,,,NaN,,,,,,false,,,,257436.80000001192,257436.59999999404,,257436.40000000596,,257444.903,8,400,,,
sequence,flow.Sequence,4_64,2023-09-15T20:24:26.016Z,,0,,,2875.420999994036,completion,,,,,false,,,,257437,257436.59999999404,254544.513,254535.80000001192,254561.179,257444.903,8,400,,,
trial,html.Screen,4_65_0,2023-09-15T20:24:28.788Z,,0,2,,2762.89700001193,response,ISIC_8527092.JPG,9,ISIC_5934239.JPG,ISIC_8527092.JPG,false,1,keypress(m),500,260208.30000001192,260207.80000001192,257428.237,257437.09999999404,257444.903,260228.125,8,400,16,,ISIC_5934239.JPG
break,html.Screen,4_65_1,2023-09-15T20:24:28.789Z,,0,,,NaN,,,,,,false,,,,260209.80000001192,260209.59999999404,,260208.5,,260228.125,8,400,,,
break_continue,html.Screen,4_65_2,2023-09-15T20:24:28.790Z,,0,,,NaN,,,,,,false,,,,260210.19999998808,260210.19999998808,,260209.90000000596,,260228.125,8,400,,,
sequence,flow.Sequence,4_65,2023-09-15T20:24:28.790Z,,0,,,2765.296999988088,completion,,,,,false,,,,260210.40000000596,260210.19999998808,257428.237,257437,257444.903,260228.125,8,400,,,
trial,html.Screen,4_66_0,2023-09-15T20:24:31.966Z,,0,2,,3158.375,response,ISIC_3688407.JPG,6,ISIC_0941085.JPG,ISIC_0941085.JPG,false,0,keypress(z),500,263387,263386.5,260211.459,260210.59999999404,260228.125,263394.665,8,400,17,,ISIC_3688407.JPG
break,html.Screen,4_66_1,2023-09-15T20:24:31.968Z,,0,,,NaN,,,,,,false,,,,263388.40000000596,263388.09999999404,,263387.1999999881,,263394.665,8,400,,,
break_continue,html.Screen,4_66_2,2023-09-15T20:24:31.968Z,,0,,,NaN,,,,,,false,,,,263388.8000000119,263388.6999999881,,263388.5,,263394.665,8,400,,,
sequence,flow.Sequence,4_66,2023-09-15T20:24:31.968Z,,0,,,3160.574999988079,completion,,,,,false,,,,263389,263388.6999999881,260211.459,260210.5,260228.125,263394.665,8,400,,,
trial,html.Screen,4_67_0,2023-09-15T20:24:34.661Z,,0,2,,2687.135000011942,response,ISIC_0064742.JPG,5,ISIC_7694028.JPG,ISIC_0064742.JPG,false,1,keypress(m),500,266082.1999999881,266081.8000000119,263377.999,263389.09999999404,263394.665,266094.557,8,400,18,,ISIC_7694028.JPG
break,html.Screen,4_67_1,2023-09-15T20:24:34.663Z,,0,,,NaN,,,,,,false,,,,266083.59999999404,266083.40000000596,,266082.40000000596,,266094.557,8,400,,,
break_continue,html.Screen,4_67_2,2023-09-15T20:24:34.663Z,,0,,,NaN,,,,,,false,,,,266083.8000000119,266083.8000000119,,266083.6999999881,,266094.557,8,400,,,
sequence,flow.Sequence,4_67,2023-09-15T20:24:34.663Z,,0,,,2689.135000011942,completion,,,,,false,,,,266084,266083.8000000119,263377.999,263389,263394.665,266094.557,8,400,,,
trial,html.Screen,4_68_0,2023-09-15T20:24:37.838Z,,0,2,,3163.9430000000284,response,ISIC_1507583.JPG,8,ISIC_7035368.JPG,ISIC_1507583.JPG,false,1,keypress(m),500,269259.09999999404,269258.5,266077.891,266084,266094.557,269261.544,8,400,19,,ISIC_7035368.JPG
break,html.Screen,4_68_1,2023-09-15T20:24:37.840Z,,0,,,NaN,,,,,,false,,,,269260.59999999404,269260.40000000596,,269259.3000000119,,269261.544,8,400,,,
break_continue,html.Screen,4_68_2,2023-09-15T20:24:37.840Z,,0,,,NaN,,,,,,false,,,,269261.09999999404,269260.90000000596,,269260.6999999881,,269261.544,8,400,,,
sequence,flow.Sequence,4_68,2023-09-15T20:24:37.840Z,,0,,,3166.343000005989,completion,,,,,false,,,,269261.1999999881,269260.90000000596,266077.891,266084,266094.557,269261.544,8,400,,,
trial,html.Screen,4_69_0,2023-09-15T20:24:40.624Z,,0,2,,2782.4560000000056,response,ISIC_1978947.JPG,8,ISIC_1280780.JPG,ISIC_1280780.JPG,false,0,keypress(z),500,272044.5,272044,269244.878,269261.40000000596,269261.544,272061.432,8,400,20,,ISIC_1978947.JPG
break,html.Screen,4_69_1,2023-09-15T20:24:40.625Z,,0,,,NaN,,,,,,false,,,,272046,272045.6999999881,,272044.6999999881,,272061.432,8,400,,,
break_continue,html.Screen,4_69_2,2023-09-15T20:24:40.626Z,,0,,,NaN,,,,,,false,,,,272046.40000000596,272046.3000000119,,272046.1999999881,,272061.432,8,400,,,
sequence,flow.Sequence,4_69,2023-09-15T20:24:40.626Z,,0,,,2784.7560000119265,completion,,,,,false,,,,272046.59999999404,272046.3000000119,269244.878,269261.3000000119,269261.544,272061.432,8,400,,,
trial,html.Screen,4_70_0,2023-09-15T20:24:43.406Z,,0,2,,2764.968000005989,response,ISIC_3060145.JPG,6,ISIC_5659295.JPG,ISIC_3060145.JPG,false,1,keypress(m),500,274827,274826.40000000596,272044.766,272046.8000000119,272061.432,274827.988,8,400,21,,ISIC_5659295.JPG
break,html.Screen,4_70_1,2023-09-15T20:24:43.408Z,,0,,,NaN,,,,,,false,,,,274828.40000000596,274828.3000000119,,274827.3000000119,,274827.988,8,400,,,
break_continue,html.Screen,4_70_2,2023-09-15T20:24:43.408Z,,0,,,NaN,,,,,,false,,,,274828.90000000596,274828.8000000119,,274828.59999999404,,274827.988,8,400,,,
sequence,flow.Sequence,4_70,2023-09-15T20:24:43.408Z,,0,,,2767.3680000119493,completion,,,,,false,,,,274829.09999999404,274828.8000000119,272044.766,272046.6999999881,272061.432,274827.988,8,400,,,
trial,html.Screen,4_71_0,2023-09-15T20:24:46.262Z,,0,2,,2854.511999999988,response,ISIC_9223156.JPG,8,ISIC_9023152.JPG,ISIC_9023152.JPG,false,0,keypress(z),500,277682.90000000596,277682.5,274811.322,274829.1999999881,274827.988,277694.974,8,400,22,,ISIC_9223156.JPG
break,html.Screen,4_71_1,2023-09-15T20:24:46.264Z,,0,,,NaN,,,,,,false,,,,277684.40000000596,277684.09999999404,,277683.09999999404,,277694.974,8,400,,,
break_continue,html.Screen,4_71_2,2023-09-15T20:24:46.264Z,,0,,,NaN,,,,,,false,,,,277684.8000000119,277684.6999999881,,277684.5,,277694.974,8,400,,,
sequence,flow.Sequence,4_71,2023-09-15T20:24:46.264Z,,0,,,2856.711999988067,completion,,,,,false,,,,277685,277684.6999999881,274811.322,274829.1999999881,274827.988,277694.974,8,400,,,
trial,html.Screen,4_72_0,2023-09-15T20:24:49.194Z,,0,2,,2919.2259999880916,response,ISIC_0032342.JPG,8,ISIC_5190484.JPG,ISIC_0032342.JPG,false,1,keypress(m),500,280614.6999999881,280614.1999999881,277678.308,277685.09999999404,277694.974,280628.19,8,400,23,,ISIC_5190484.JPG
break,html.Screen,4_72_1,2023-09-15T20:24:49.195Z,,0,,,NaN,,,,,,false,,,,280616.1999999881,280616,,280614.90000000596,,280628.19,8,400,,,
break_continue,html.Screen,4_72_2,2023-09-15T20:24:49.196Z,,0,,,NaN,,,,,,false,,,,280616.6999999881,280616.5,,280616.40000000596,,280628.19,8,400,,,
sequence,flow.Sequence,4_72,2023-09-15T20:24:49.196Z,,0,,,2921.5260000000126,completion,,,,,false,,,,280616.8000000119,280616.5,277678.308,277685,277694.974,280628.19,8,400,,,
trial,html.Screen,4_73_0,2023-09-15T20:24:51.810Z,,0,2,,2602.6100000119186,response,ISIC_0027260.JPG,9,ISIC_7299025.JPG,ISIC_0027260.JPG,false,1,keypress(m),500,283231.3000000119,283230.8000000119,280611.524,280617,280628.19,283244.752,8,400,24,,ISIC_7299025.JPG
break,html.Screen,4_73_1,2023-09-15T20:24:51.812Z,,0,,,NaN,,,,,,false,,,,283232.8000000119,283232.5,,283231.59999999404,,283244.752,8,400,,,
break_continue,html.Screen,4_73_2,2023-09-15T20:24:51.812Z,,0,,,NaN,,,,,,false,,,,283233.3000000119,283233.09999999404,,283232.90000000596,,283244.752,8,400,,,
sequence,flow.Sequence,4_73,2023-09-15T20:24:51.812Z,,0,,,2604.909999994037,completion,,,,,false,,,,283233.40000000596,283233.09999999404,280611.524,280616.90000000596,280628.19,283244.752,8,400,,,
trial,html.Screen,4_74_0,2023-09-15T20:24:54.713Z,,0,2,,2888.847999994061,response,ISIC_5611010.JPG,6,ISIC_9690263.JPG,ISIC_5611010.JPG,false,1,keypress(m),500,286134,286133.59999999404,283228.086,283233.5,283244.752,286144.636,8,400,25,,ISIC_9690263.JPG
break,html.Screen,4_74_1,2023-09-15T20:24:54.715Z,,0,,,NaN,,,,,,false,,,,286135.5,286135.1999999881,,286134.3000000119,,286144.636,8,400,,,
break_continue,html.Screen,4_74_2,2023-09-15T20:24:54.715Z,,0,,,NaN,,,,,,false,,,,286135.90000000596,286135.8000000119,,286135.6999999881,,286144.636,8,400,,,
sequence,flow.Sequence,4_74,2023-09-15T20:24:54.715Z,,0,,,2891.0480000119423,completion,,,,,false,,,,286136.09999999404,286135.8000000119,283228.086,283233.5,283244.752,286144.636,8,400,,,
trial,html.Screen,4_75_0,2023-09-15T20:24:57.350Z,,0,2,,2625.463999994041,response,ISIC_0063899.JPG,6,ISIC_9441572.JPG,ISIC_0063899.JPG,false,1,keypress(m),500,288770.6999999881,288770.09999999404,286127.97,286136.3000000119,286144.636,288778.367,8,400,26,,ISIC_9441572.JPG
break,html.Screen,4_75_1,2023-09-15T20:24:57.351Z,,0,,,NaN,,,,,,false,,,,288772.09999999404,288771.90000000596,,288771,,288778.367,8,400,,,
break_continue,html.Screen,4_75_2,2023-09-15T20:24:57.352Z,,0,,,NaN,,,,,,false,,,,288772.59999999404,288772.40000000596,,288772.3000000119,,288778.367,8,400,,,
sequence,flow.Sequence,4_75,2023-09-15T20:24:57.352Z,,0,,,2627.764000005962,completion,,,,,false,,,,288772.6999999881,288772.40000000596,286127.97,286136.3000000119,286144.636,288778.367,8,400,,,
trial,html.Screen,4_76_0,2023-09-15T20:25:00.045Z,,0,2,,2686.9330000118935,response,ISIC_7763042.JPG,5,ISIC_0058428.JPG,ISIC_7763042.JPG,false,1,keypress(m),500,291465.90000000596,291465.3000000119,288761.701,288772.90000000596,288778.367,291478.259,8,400,27,,ISIC_0058428.JPG
break,html.Screen,4_76_1,2023-09-15T20:25:00.046Z,,0,,,NaN,,,,,,false,,,,291467.40000000596,291467.09999999404,,291466.09999999404,,291478.259,8,400,,,
break_continue,html.Screen,4_76_2,2023-09-15T20:25:00.047Z,,0,,,NaN,,,,,,false,,,,291467.90000000596,291467.8000000119,,291467.59999999404,,291478.259,8,400,,,
sequence,flow.Sequence,4_76,2023-09-15T20:25:00.047Z,,0,,,2689.4330000118935,completion,,,,,false,,,,291468.09999999404,291467.8000000119,288761.701,288772.90000000596,288778.367,291478.259,8,400,,,
trial,html.Screen,4_77_0,2023-09-15T20:25:02.687Z,,0,2,,2629.6410000059404,response,ISIC_0024367.JPG,8,ISIC_0054892.JPG,ISIC_0024367.JPG,false,1,keypress(m),500,294108.40000000596,294107.90000000596,291461.593,291468.3000000119,291478.259,294111.487,8,400,28,,ISIC_0054892.JPG
break,html.Screen,4_77_1,2023-09-15T20:25:02.689Z,,0,,,NaN,,,,,,false,,,,294109.90000000596,294109.6999999881,,294108.6999999881,,294111.487,8,400,,,
break_continue,html.Screen,4_77_2,2023-09-15T20:25:02.689Z,,0,,,NaN,,,,,,false,,,,294110.40000000596,294110.1999999881,,294110,,294111.487,8,400,,,
sequence,flow.Sequence,4_77,2023-09-15T20:25:02.690Z,,0,,,2631.940999988059,completion,,,,,false,,,,294110.59999999404,294110.1999999881,291461.593,291468.1999999881,291478.259,294111.487,8,400,,,
trial,html.Screen,4_78_0,2023-09-15T20:25:05.581Z,,0,2,,2890.7129999880563,response,ISIC_0185547.JPG,8,ISIC_1438269.JPG,ISIC_1438269.JPG,false,0,keypress(z),500,297002.5,297002.1999999881,294094.821,294110.6999999881,294111.487,297011.371,8,400,29,,ISIC_0185547.JPG
break,html.Screen,4_78_1,2023-09-15T20:25:05.583Z,,0,,,NaN,,,,,,false,,,,297003.8000000119,297003.6999999881,,297002.8000000119,,297011.371,8,400,,,
break_continue,html.Screen,4_78_2,2023-09-15T20:25:05.583Z,,0,,,NaN,,,,,,false,,,,297004.3000000119,297004.09999999404,,297004,,297011.371,8,400,,,
sequence,flow.Sequence,4_78,2023-09-15T20:25:05.583Z,,0,,,2892.6129999940167,completion,,,,,false,,,,297004.40000000596,297004.09999999404,294094.821,294110.59999999404,294111.487,297011.371,8,400,,,
trial,html.Screen,4_79_0,2023-09-15T20:25:08.404Z,,0,2,,2813.6290000000154,response,ISIC_9713706.JPG,8,ISIC_0008636.JPG,ISIC_9713706.JPG,false,1,keypress(m),500,299825.5,299825,296994.705,297004.5,297011.371,299828.409,8,400,30,,ISIC_0008636.JPG
break,html.Screen,4_79_1,2023-09-15T20:25:08.406Z,,0,,,NaN,,,,,,false,,,,299827.09999999404,299826.90000000596,,299825.90000000596,,299828.409,8,400,,,
break_continue,html.Screen,4_79_2,2023-09-15T20:25:08.406Z,,0,,,NaN,,,,,,false,,,,299827.59999999404,299827.5,,299827.1999999881,,299828.409,8,400,,,
sequence,flow.Sequence,4_79,2023-09-15T20:25:08.407Z,,0,,,2816.1290000000154,completion,,,,,false,,,,299827.6999999881,299827.5,296994.705,297004.5,297011.371,299828.409,8,400,,,
trial,html.Screen,4_80_0,2023-09-15T20:25:11.178Z,,0,2,,2770.091000000015,response,ISIC_5425721.JPG,5,ISIC_0064836.JPG,ISIC_5425721.JPG,false,1,keypress(m),500,302598.6999999881,302598.5,299811.743,299827.90000000596,299828.409,302611.631,8,400,31,,ISIC_0064836.JPG
break,html.Screen,4_80_1,2023-09-15T20:25:11.178Z,,0,,,NaN,,,,,,false,,,,302599.5,302599.40000000596,,302598.90000000596,,302611.631,8,400,,,
break_continue,html.Screen,4_80_2,2023-09-15T20:25:11.179Z,,0,,,NaN,,,,,,false,,,,302599.8000000119,302599.8000000119,,302599.59999999404,,302611.631,8,400,,,
sequence,flow.Sequence,4_80,2023-09-15T20:25:11.179Z,,0,,,2771.391000011936,completion,,,,,false,,,,302599.90000000596,302599.8000000119,299811.743,299827.90000000596,299828.409,302611.631,8,400,,,
trial,html.Screen,4_81_0,2023-09-15T20:25:13.879Z,,0,2,,2687.669000011927,response,ISIC_0034173.JPG,6,ISIC_0062547.JPG,ISIC_0062547.JPG,false,0,keypress(z),500,305299.8000000119,305299.3000000119,302594.965,302600,302611.631,305311.523,8,400,32,,ISIC_0034173.JPG
break,html.Screen,4_81_1,2023-09-15T20:25:13.880Z,,0,,,NaN,,,,,,false,,,,305301.5,305301.09999999404,,305300.09999999404,,305311.523,8,400,,,
break_continue,html.Screen,4_81_2,2023-09-15T20:25:13.881Z,,0,,,NaN,,,,,,false,,,,305301.90000000596,305301.6999999881,,305301.59999999404,,305311.523,8,400,,,
sequence,flow.Sequence,4_81,2023-09-15T20:25:13.881Z,,0,,,2690.068999988085,completion,,,,,false,,,,305302,305301.6999999881,302594.965,302600,302611.631,305311.523,8,400,,,
trial,html.Screen,4_82_0,2023-09-15T20:25:16.462Z,,0,2,,2571.1769999880926,response,ISIC_3474472.JPG,6,ISIC_0014994.JPG,ISIC_3474472.JPG,false,1,keypress(m),500,307883.1999999881,307882.6999999881,305294.857,305302.1999999881,305311.523,307894.753,8,400,33,,ISIC_0014994.JPG
break,html.Screen,4_82_1,2023-09-15T20:25:16.464Z,,0,,,NaN,,,,,,false,,,,307884.6999999881,307884.40000000596,,307883.59999999404,,307894.753,8,400,,,
break_continue,html.Screen,4_82_2,2023-09-15T20:25:16.464Z,,0,,,NaN,,,,,,false,,,,307885.09999999404,307885,,307884.8000000119,,307894.753,8,400,,,
sequence,flow.Sequence,4_82,2023-09-15T20:25:16.464Z,,0,,,2573.4770000000135,completion,,,,,false,,,,307885.3000000119,307885,305294.857,305302.09999999404,305311.523,307894.753,8,400,,,
trial,html.Screen,4_83_0,2023-09-15T20:25:19.106Z,,0,2,,2632.547000011895,response,ISIC_0014903.JPG,8,ISIC_0951519.JPG,ISIC_0951519.JPG,false,0,keypress(z),500,310527.6999999881,310527.3000000119,307878.087,307885.40000000596,307894.753,310545.132,8,400,34,,ISIC_0014903.JPG
break,html.Screen,4_83_1,2023-09-15T20:25:19.108Z,,0,,,NaN,,,,,,false,,,,310529.1999999881,310528.8000000119,,310528,,310545.132,8,400,,,
break_continue,html.Screen,4_83_2,2023-09-15T20:25:19.108Z,,0,,,NaN,,,,,,false,,,,310529.5,310529.5,,310529.3000000119,,310545.132,8,400,,,
sequence,flow.Sequence,4_83,2023-09-15T20:25:19.109Z,,0,,,2634.746999999974,completion,,,,,false,,,,310529.8000000119,310529.5,307878.087,307885.40000000596,307894.753,310545.132,8,400,,,
trial,html.Screen,4_84_0,2023-09-15T20:25:21.722Z,,0,2,,2597.3680000000168,response,ISIC_0064034.JPG,8,ISIC_0029898.JPG,ISIC_0064034.JPG,false,1,keypress(m),500,313143,313142.5,310528.466,310529.90000000596,310545.132,313145.028,8,400,35,,ISIC_0029898.JPG
break,html.Screen,4_84_1,2023-09-15T20:25:21.723Z,,0,,,NaN,,,,,,false,,,,313144.6999999881,313144.3000000119,,313143.3000000119,,313145.028,8,400,,,
break_continue,html.Screen,4_84_2,2023-09-15T20:25:21.724Z,,0,,,NaN,,,,,,false,,,,313145.09999999404,313145,,313144.8000000119,,313145.028,8,400,,,
sequence,flow.Sequence,4_84,2023-09-15T20:25:21.724Z,,0,,,2599.8680000000168,completion,,,,,false,,,,313145.3000000119,313145,310528.466,310529.90000000596,310545.132,313145.028,8,400,,,
trial,html.Screen,4_85_0,2023-09-15T20:25:24.576Z,,0,2,,2851.77200001193,response,ISIC_0066506.JPG,8,ISIC_8483382.JPG,ISIC_8483382.JPG,false,0,keypress(z),500,315997.3000000119,315996.8000000119,313128.362,313145.5,313145.028,316011.58,8,400,36,,ISIC_0066506.JPG
break,html.Screen,4_85_1,2023-09-15T20:25:24.578Z,,0,,,NaN,,,,,,false,,,,315999,315998.59999999404,,315997.6999999881,,316011.58,8,400,,,
break_continue,html.Screen,4_85_2,2023-09-15T20:25:24.578Z,,0,,,NaN,,,,,,false,,,,315999.40000000596,315999.1999999881,,315999,,316011.58,8,400,,,
sequence,flow.Sequence,4_85,2023-09-15T20:25:24.578Z,,0,,,2854.171999988088,completion,,,,,false,,,,315999.5,315999.1999999881,313128.362,313145.40000000596,313145.028,316011.58,8,400,,,
trial,html.Screen,4_86_0,2023-09-15T20:25:27.334Z,,0,2,,2743.4199999999837,response,ISIC_0640806.JPG,8,ISIC_0033681.JPG,ISIC_0640806.JPG,false,1,keypress(m),500,318755.5,318755,315994.914,315999.6999999881,316011.58,318761.47,8,400,37,,ISIC_0033681.JPG
break,html.Screen,4_86_1,2023-09-15T20:25:27.336Z,,0,,,NaN,,,,,,false,,,,318757,318756.8000000119,,318755.6999999881,,318761.47,8,400,,,
break_continue,html.Screen,4_86_2,2023-09-15T20:25:27.336Z,,0,,,NaN,,,,,,false,,,,318757.40000000596,318757.3000000119,,318757.09999999404,,318761.47,8,400,,,
sequence,flow.Sequence,4_86,2023-09-15T20:25:27.336Z,,0,,,2745.7200000119046,completion,,,,,false,,,,318757.5,318757.3000000119,315994.914,315999.59999999404,316011.58,318761.47,8,400,,,
trial,html.Screen,4_87_0,2023-09-15T20:25:30.478Z,,0,2,,3136.830000011949,response,ISIC_0024826.JPG,8,ISIC_0055081.JPG,ISIC_0055081.JPG,false,0,keypress(z),500,321898.8000000119,321898.3000000119,318744.804,318757.59999999404,318761.47,321911.828,8,400,38,,ISIC_0024826.JPG
break,html.Screen,4_87_1,2023-09-15T20:25:30.479Z,,0,,,NaN,,,,,,false,,,,321900.40000000596,321900.09999999404,,321899.09999999404,,321911.828,8,400,,,
break_continue,html.Screen,4_87_2,2023-09-15T20:25:30.480Z,,0,,,NaN,,,,,,false,,,,321900.90000000596,321900.6999999881,,321900.59999999404,,321911.828,8,400,,,
sequence,flow.Sequence,4_87,2023-09-15T20:25:30.480Z,,0,,,3139.229999988107,completion,,,,,false,,,,321901.09999999404,321900.6999999881,318744.804,318757.59999999404,318761.47,321911.828,8,400,,,
trial,html.Screen,4_88_0,2023-09-15T20:25:33.742Z,,0,2,,3251.072000005981,response,ISIC_0032645.JPG,5,ISIC_4448959.JPG,ISIC_4448959.JPG,false,0,keypress(z),500,325163.40000000596,325162.90000000596,321895.162,321901.3000000119,321911.828,325178.364,8,400,39,,ISIC_0032645.JPG
break,html.Screen,4_88_1,2023-09-15T20:25:33.744Z,,0,,,NaN,,,,,,false,,,,325165,325164.6999999881,,325163.6999999881,,325178.364,8,400,,,
break_continue,html.Screen,4_88_2,2023-09-15T20:25:33.744Z,,0,,,NaN,,,,,,false,,,,325165.40000000596,325165.1999999881,,325165.09999999404,,325178.364,8,400,,,
sequence,flow.Sequence,4_88,2023-09-15T20:25:33.744Z,,0,,,3253.3719999880996,completion,,,,,false,,,,325165.59999999404,325165.1999999881,321895.162,321901.1999999881,321911.828,325178.364,8,400,,,
trial,html.Screen,4_89_0,2023-09-15T20:25:36.981Z,,0,2,,3223.735999994038,response,ISIC_0030029.JPG,9,ISIC_0009871.JPG,ISIC_0030029.JPG,false,1,keypress(m),500,328402.59999999404,328402.09999999404,325161.698,325165.8000000119,325178.364,328411.568,8,400,40,,ISIC_0009871.JPG
break,html.Screen,4_89_1,2023-09-15T20:25:36.983Z,,0,,,NaN,,,,,,false,,,,328404.1999999881,328403.90000000596,,328403,,328411.568,8,400,,,
break_continue,html.Screen,4_89_2,2023-09-15T20:25:36.983Z,,0,,,NaN,,,,,,false,,,,328404.6999999881,328404.59999999404,,328404.40000000596,,328411.568,8,400,,,
sequence,flow.Sequence,4_89,2023-09-15T20:25:36.983Z,,0,,,3226.235999994038,completion,,,,,false,,,,328404.8000000119,328404.59999999404,325161.698,325165.6999999881,325178.364,328411.568,8,400,,,
trial,html.Screen,4_90_0,2023-09-15T20:25:39.607Z,,0,2,,2616.2320000118925,response,ISIC_0056723.JPG,8,ISIC_0065807.JPG,ISIC_0065807.JPG,false,0,keypress(z),500,331028.3000000119,331027.8000000119,328394.902,328405,328411.568,331045.249,8,400,41,,ISIC_0056723.JPG
break,html.Screen,4_90_1,2023-09-15T20:25:39.608Z,,0,,,NaN,,,,,,false,,,,331029.8000000119,331029.5,,331028.5,,331045.249,8,400,,,
break_continue,html.Screen,4_90_2,2023-09-15T20:25:39.609Z,,0,,,NaN,,,,,,false,,,,331030.3000000119,331030.09999999404,,331029.90000000596,,331045.249,8,400,,,
sequence,flow.Sequence,4_90,2023-09-15T20:25:39.609Z,,0,,,2618.531999994011,completion,,,,,false,,,,331030.40000000596,331030.09999999404,328394.902,328405,328411.568,331045.249,8,400,,,
trial,html.Screen,4_91_0,2023-09-15T20:25:42.445Z,,0,2,,2820.350999994029,response,ISIC_0014114.JPG,8,ISIC_8687105.JPG,ISIC_0014114.JPG,false,1,keypress(m),500,333866,333865.59999999404,331028.583,331030.59999999404,331045.249,333878.469,8,400,42,,ISIC_8687105.JPG
break,html.Screen,4_91_1,2023-09-15T20:25:42.446Z,,0,,,NaN,,,,,,false,,,,333867.59999999404,333867.3000000119,,333866.3000000119,,333878.469,8,400,,,
break_continue,html.Screen,4_91_2,2023-09-15T20:25:42.447Z,,0,,,NaN,,,,,,false,,,,333868,333867.90000000596,,333867.6999999881,,333878.469,8,400,,,
sequence,flow.Sequence,4_91,2023-09-15T20:25:42.447Z,,0,,,2822.6510000059498,completion,,,,,false,,,,333868.1999999881,333867.90000000596,331028.583,331030.59999999404,331045.249,333878.469,8,400,,,
trial,html.Screen,4_92_0,2023-09-15T20:25:45.125Z,,0,2,,2667.0310000000172,response,ISIC_0465476.JPG,8,ISIC_9445196.JPG,ISIC_9445196.JPG,false,0,keypress(z),500,336546,336545.5,333861.803,333868.40000000596,333878.469,336561.695,8,400,43,,ISIC_0465476.JPG
break,html.Screen,4_92_1,2023-09-15T20:25:45.126Z,,0,,,NaN,,,,,,false,,,,336547.8000000119,336547.5,,336546.40000000596,,336561.695,8,400,,,
break_continue,html.Screen,4_92_2,2023-09-15T20:25:45.127Z,,0,,,NaN,,,,,,false,,,,336548.09999999404,336548.09999999404,,336547.90000000596,,336561.695,8,400,,,
sequence,flow.Sequence,4_92,2023-09-15T20:25:45.127Z,,0,,,2669.6309999940568,completion,,,,,false,,,,336548.3000000119,336548.09999999404,333861.803,333868.3000000119,333878.469,336561.695,8,400,,,
trial,html.Screen,4_93_0,2023-09-15T20:25:48.298Z,,0,2,,3157.804999999993,response,ISIC_0033268.JPG,8,ISIC_0552911.JPG,ISIC_0033268.JPG,false,1,keypress(m),500,339719.90000000596,339719.5,336545.029,336548.5,336561.695,339728.235,8,400,44,,ISIC_0552911.JPG
break,html.Screen,4_93_1,2023-09-15T20:25:48.300Z,,0,,,NaN,,,,,,false,,,,339721.59999999404,339721.1999999881,,339720.3000000119,,339728.235,8,400,,,
break_continue,html.Screen,4_93_2,2023-09-15T20:25:48.300Z,,0,,,NaN,,,,,,false,,,,339722,339721.8000000119,,339721.6999999881,,339728.235,8,400,,,
sequence,flow.Sequence,4_93,2023-09-15T20:25:48.301Z,,0,,,3160.105000011914,completion,,,,,false,,,,339722.09999999404,339721.8000000119,336545.029,336548.40000000596,336561.695,339728.235,8,400,,,
trial,html.Screen,4_94_0,2023-09-15T20:25:50.885Z,,0,2,,2578.1650000059744,response,ISIC_6676776.JPG,8,ISIC_0030129.JPG,ISIC_6676776.JPG,false,1,keypress(m),500,342306.90000000596,342306.40000000596,339711.569,339722.1999999881,339728.235,342311.946,8,400,45,,ISIC_0030129.JPG
break,html.Screen,4_94_1,2023-09-15T20:25:50.887Z,,0,,,NaN,,,,,,false,,,,342308.40000000596,342308.09999999404,,342307.1999999881,,342311.946,8,400,,,
break_continue,html.Screen,4_94_2,2023-09-15T20:25:50.887Z,,0,,,NaN,,,,,,false,,,,342308.6999999881,342308.6999999881,,342308.40000000596,,342311.946,8,400,,,
sequence,flow.Sequence,4_94,2023-09-15T20:25:50.887Z,,0,,,2580.464999988093,completion,,,,,false,,,,342308.90000000596,342308.6999999881,339711.569,339722.1999999881,339728.235,342311.946,8,400,,,
trial,html.Screen,4_95_0,2023-09-15T20:25:54.173Z,,0,2,,3282.1539999940433,response,ISIC_7102028.JPG,5,ISIC_0055022.JPG,ISIC_7102028.JPG,false,1,keypress(m),500,345594.59999999404,345594.09999999404,342295.28,342309.09999999404,342311.946,345611.814,8,400,46,,ISIC_0055022.JPG
break,html.Screen,4_95_1,2023-09-15T20:25:54.175Z,,0,,,NaN,,,,,,false,,,,345596.1999999881,345596,,345594.90000000596,,345611.814,8,400,,,
break_continue,html.Screen,4_95_2,2023-09-15T20:25:54.175Z,,0,,,NaN,,,,,,false,,,,345596.8000000119,345596.6999999881,,345596.3000000119,,345611.814,8,400,,,
sequence,flow.Sequence,4_95,2023-09-15T20:25:54.175Z,,0,,,3284.753999988083,completion,,,,,false,,,,345597,345596.6999999881,342295.28,342309,342311.946,345611.814,8,400,,,
trial,html.Screen,4_96_0,2023-09-15T20:25:57.811Z,,0,2,,3619.986000011908,response,ISIC_0067008.JPG,8,ISIC_5885403.JPG,ISIC_5885403.JPG,false,0,keypress(z),500,349232.3000000119,349231.8000000119,345595.148,345597.09999999404,345611.814,349245.002,8,400,47,,ISIC_0067008.JPG
break,html.Screen,4_96_1,2023-09-15T20:25:57.812Z,,0,,,NaN,,,,,,false,,,,349233.8000000119,349233.59999999404,,349232.59999999404,,349245.002,8,400,,,
break_continue,html.Screen,4_96_2,2023-09-15T20:25:57.813Z,,0,,,NaN,,,,,,false,,,,349234.3000000119,349234.09999999404,,349234,,349245.002,8,400,,,
sequence,flow.Sequence,4_96,2023-09-15T20:25:57.813Z,,0,,,3622.2859999940265,completion,,,,,false,,,,349234.40000000596,349234.09999999404,345595.148,345597.09999999404,345611.814,349245.002,8,400,,,
trial,html.Screen,4_97_0,2023-09-15T20:26:00.366Z,,0,2,,2542.2980000119423,response,ISIC_7681490.JPG,7,ISIC_4523565.JPG,ISIC_7681490.JPG,false,1,keypress(m),500,351787.6999999881,351787.3000000119,349228.336,349234.5,349245.002,351795.348,8,400,48,,ISIC_4523565.JPG
break,html.Screen,4_97_1,2023-09-15T20:26:00.368Z,,0,,,NaN,,,,,,false,,,,351789.3000000119,351789,,351788,,351795.348,8,400,,,
break_continue,html.Screen,4_97_2,2023-09-15T20:26:00.368Z,,0,,,NaN,,,,,,false,,,,351789.8000000119,351789.6999999881,,351789.5,,351795.348,8,400,,,
sequence,flow.Sequence,4_97,2023-09-15T20:26:00.368Z,,0,,,2544.6979999881005,completion,,,,,false,,,,351790,351789.6999999881,349228.336,349234.5,349245.002,351795.348,8,400,,,
trial,html.Screen,4_98_0,2023-09-15T20:26:03.139Z,,0,2,,2764.5520000059623,response,ISIC_1253960.JPG,7,ISIC_0027113.JPG,ISIC_0027113.JPG,false,0,keypress(z),500,354560.3000000119,354559.90000000596,351778.682,351790.1999999881,351795.348,354561.904,8,400,49,,ISIC_1253960.JPG
break,html.Screen,4_98_1,2023-09-15T20:26:03.140Z,,0,,,NaN,,,,,,false,,,,354561.90000000596,354561.6999999881,,354560.6999999881,,354561.904,8,400,,,
break_continue,html.Screen,4_98_2,2023-09-15T20:26:03.141Z,,0,,,NaN,,,,,,false,,,,354562.40000000596,354562.3000000119,,354562.09999999404,,354561.904,8,400,,,
sequence,flow.Sequence,4_98,2023-09-15T20:26:03.141Z,,0,,,2766.952000011923,completion,,,,,false,,,,354562.59999999404,354562.3000000119,351778.682,351790.09999999404,351795.348,354561.904,8,400,,,
trial,html.Screen,4_99_0,2023-09-15T20:26:07.047Z,,0,2,,3906.695999994059,response,ISIC_0011504.JPG,8,ISIC_1720856.JPG,ISIC_1720856.JPG,false,0,keypress(z),500,358469,358468.59999999404,354545.238,354562.6999999881,354561.904,358478.414,8,400,50,,ISIC_0011504.JPG
break,html.Screen,4_99_1,2023-09-15T20:26:17.045Z,,0,,,10000.048999999999,timeout,,,,,false,,,,368466.6999999881,368461.797,358461.748,358469.40000000596,358478.414,368478.463,8,400,,,
break_continue,html.Screen,4_99_2,2023-09-15T22:09:09.868Z,,0,,,5828793.1369999945,response,,,,,false,continue,keypress(Space),,6197321.400000006,6197271.599999994,368461.797,368467,368478.463,6197332.756,8,400,,,
sequence,flow.Sequence,4_99,2023-09-15T22:09:09.868Z,,0,,,5842709.695999994,completion,,,,,false,,,,6197321.800000012,6197271.599999994,354545.238,354562.59999999404,354561.904,6197332.756,8,400,,,
trial,html.Screen,4_100_0,2023-09-15T22:09:12.894Z,,0,3,,3014.3439999939874,response,ISIC_8120622.JPG,6,ISIC_5313574.JPG,ISIC_8120622.JPG,false,1,keypress(m),500,6200347.699999988,6200347.099999994,6197316.09,6197322,6197332.756,6200349.745,8,400,1,,ISIC_5313574.JPG
break,html.Screen,4_100_1,2023-09-15T22:09:12.895Z,,0,,,NaN,,,,,,false,,,,6200349.099999994,6200348.800000012,,6200348,,6200349.745,8,400,,,
break_continue,html.Screen,4_100_2,2023-09-15T22:09:12.896Z,,0,,,NaN,,,,,,false,,,,6200349.599999994,6200349.5,,6200349.300000012,,6200349.745,8,400,,,
sequence,flow.Sequence,4_100,2023-09-15T22:09:12.896Z,,0,,,3016.743999999948,completion,,,,,false,,,,6200349.800000012,6200349.5,6197316.09,6197321.900000006,6197332.756,6200349.745,8,400,,,
trial,html.Screen,4_101_0,2023-09-15T22:09:16.611Z,,0,3,,3714.6550000058487,response,ISIC_0058071.JPG,9,ISIC_3651451.JPG,ISIC_0058071.JPG,false,1,keypress(m),500,6204065,6204064.400000006,6200333.079,6200350,6200349.745,6204066.263,8,400,2,,ISIC_3651451.JPG
break,html.Screen,4_101_1,2023-09-15T22:09:16.613Z,,0,,,NaN,,,,,,false,,,,6204066.5,6204066.199999988,,6204065.300000012,,6204066.263,8,400,,,
break_continue,html.Screen,4_101_2,2023-09-15T22:09:16.613Z,,0,,,NaN,,,,,,false,,,,6204066.800000012,6204066.699999988,,6204066.599999994,,6204066.263,8,400,,,
sequence,flow.Sequence,4_101,2023-09-15T22:09:16.613Z,,0,,,3716.9549999879673,completion,,,,,false,,,,6204066.900000006,6204066.699999988,6200333.079,6200350,6200349.745,6204066.263,8,400,,,
trial,html.Screen,4_102_0,2023-09-15T22:09:19.435Z,,0,3,,2822.0370000116527,response,ISIC_3246746.JPG,8,ISIC_0030440.JPG,ISIC_3246746.JPG,false,1,keypress(m),500,6206888.800000012,6206888.300000012,6204049.597,6204067,6204066.263,6206899.483,8,400,3,,ISIC_0030440.JPG
break,html.Screen,4_102_1,2023-09-15T22:09:19.436Z,,0,,,NaN,,,,,,false,,,,6206890.300000012,6206890.099999994,,6206889,,6206899.483,8,400,,,
break_continue,html.Screen,4_102_2,2023-09-15T22:09:19.437Z,,0,,,NaN,,,,,,false,,,,6206890.599999994,6206890.5,,6206890.400000006,,6206899.483,8,400,,,
sequence,flow.Sequence,4_102,2023-09-15T22:09:19.437Z,,0,,,2824.236999999732,completion,,,,,false,,,,6206890.699999988,6206890.5,6204049.597,6204067,6204066.263,6206899.483,8,400,,,
trial,html.Screen,4_103_0,2023-09-15T22:09:22.081Z,,0,3,,2635.417000005953,response,ISIC_8330906.JPG,7,ISIC_2558816.JPG,ISIC_8330906.JPG,false,1,keypress(m),500,6209535.400000006,6209534.900000006,6206882.817,6206890.900000006,6206899.483,6209549.377,8,400,4,,ISIC_2558816.JPG
break,html.Screen,4_103_1,2023-09-15T22:09:22.083Z,,0,,,NaN,,,,,,false,,,,6209536.900000006,6209536.599999994,,6209535.699999988,,6209549.377,8,400,,,
break_continue,html.Screen,4_103_2,2023-09-15T22:09:22.083Z,,0,,,NaN,,,,,,false,,,,6209537.400000006,6209537.199999988,,6209537.099999994,,6209549.377,8,400,,,
sequence,flow.Sequence,4_103,2023-09-15T22:09:22.084Z,,0,,,2637.7169999880716,completion,,,,,false,,,,6209537.5,6209537.199999988,6206882.817,6206890.800000012,6206899.483,6209549.377,8,400,,,
trial,html.Screen,4_104_0,2023-09-15T22:09:25.768Z,,0,3,,3671.7229999937117,response,ISIC_0059041.JPG,5,ISIC_0024519.JPG,ISIC_0024519.JPG,false,0,keypress(z),500,6213221.599999994,6213221.099999994,6209532.711,6209537.699999988,6209549.377,6213232.996,8,400,5,,ISIC_0059041.JPG
break,html.Screen,4_104_1,2023-09-15T22:09:25.769Z,,0,,,NaN,,,,,,false,,,,6213223.199999988,6213223,,6213222,,6213232.996,8,400,,,
break_continue,html.Screen,4_104_2,2023-09-15T22:09:25.770Z,,0,,,NaN,,,,,,false,,,,6213223.599999994,6213223.5,,6213223.300000012,,6213232.996,8,400,,,
sequence,flow.Sequence,4_104,2023-09-15T22:09:25.770Z,,0,,,3674.122999999672,completion,,,,,false,,,,6213223.800000012,6213223.5,6209532.711,6209537.599999994,6209549.377,6213232.996,8,400,,,
trial,html.Screen,4_105_0,2023-09-15T22:09:28.240Z,,0,3,,2460.3040000116453,response,ISIC_3521671.JPG,7,ISIC_0014428.JPG,ISIC_3521671.JPG,false,1,keypress(m),500,6215693.800000012,6215693.300000012,6213216.33,6213224,6213232.996,6215699.564,8,400,6,,ISIC_0014428.JPG
break,html.Screen,4_105_1,2023-09-15T22:09:28.241Z,,0,,,NaN,,,,,,false,,,,6215695.400000006,6215695.099999994,,6215694.099999994,,6215699.564,8,400,,,
break_continue,html.Screen,4_105_2,2023-09-15T22:09:28.242Z,,0,,,NaN,,,,,,false,,,,6215695.699999988,6215695.599999994,,6215695.5,,6215699.564,8,400,,,
sequence,flow.Sequence,4_105,2023-09-15T22:09:28.242Z,,0,,,2462.603999993764,completion,,,,,false,,,,6215695.900000006,6215695.599999994,6213216.33,6213223.900000006,6213232.996,6215699.564,8,400,,,
trial,html.Screen,4_106_0,2023-09-15T22:09:30.797Z,,0,3,,2551.3360000057146,response,ISIC_0012887.JPG,7,ISIC_1113265.JPG,ISIC_0012887.JPG,false,1,keypress(m),500,6218251.300000012,6218250.900000006,6215682.898,6215696.099999994,6215699.564,6218266.128,8,400,7,,ISIC_1113265.JPG
break,html.Screen,4_106_1,2023-09-15T22:09:30.799Z,,0,,,NaN,,,,,,false,,,,6218252.800000012,6218252.400000006,,6218251.599999994,,6218266.128,8,400,,,
break_continue,html.Screen,4_106_2,2023-09-15T22:09:30.799Z,,0,,,NaN,,,,,,false,,,,6218253.199999988,6218253.099999994,,6218252.900000006,,6218266.128,8,400,,,
sequence,flow.Sequence,4_106,2023-09-15T22:09:30.799Z,,0,,,2553.5359999937937,completion,,,,,false,,,,6218253.400000006,6218253.099999994,6215682.898,6215696,6215699.564,6218266.128,8,400,,,
trial,html.Screen,4_107_0,2023-09-15T22:09:33.364Z,,0,3,,2551.6720000123605,response,ISIC_4212044.JPG,6,ISIC_9699238.JPG,ISIC_4212044.JPG,false,1,keypress(m),500,6220818.300000012,6220817.800000012,6218249.462,6218253.699999988,6218266.128,6220833.172,8,400,8,,ISIC_9699238.JPG
break,html.Screen,4_107_1,2023-09-15T22:09:33.366Z,,0,,,NaN,,,,,,false,,,,6220819.900000006,6220819.599999994,,6220818.599999994,,6220833.172,8,400,,,
break_continue,html.Screen,4_107_2,2023-09-15T22:09:33.366Z,,0,,,NaN,,,,,,false,,,,6220820.300000012,6220820.199999988,,6220820,,6220833.172,8,400,,,
sequence,flow.Sequence,4_107,2023-09-15T22:09:33.366Z,,0,,,2554.0719999885187,completion,,,,,false,,,,6220820.400000006,6220820.199999988,6218249.462,6218253.5,6218266.128,6220833.172,8,400,,,
trial,html.Screen,4_108_0,2023-09-15T22:09:36.072Z,,0,3,,2692.927999993786,response,ISIC_0029736.JPG,5,ISIC_0033692.JPG,ISIC_0033692.JPG,false,0,keypress(z),500,6223526.599999994,6223526.099999994,6220816.506,6220820.5,6220833.172,6223533.064,8,400,9,,ISIC_0029736.JPG
break,html.Screen,4_108_1,2023-09-15T22:09:36.074Z,,0,,,NaN,,,,,,false,,,,6223528.199999988,6223527.900000006,,6223526.900000006,,6223533.064,8,400,,,
break_continue,html.Screen,4_108_2,2023-09-15T22:09:36.074Z,,0,,,NaN,,,,,,false,,,,6223528.599999994,6223528.400000006,,6223528.300000012,,6223533.064,8,400,,,
sequence,flow.Sequence,4_108,2023-09-15T22:09:36.074Z,,0,,,2695.228000005707,completion,,,,,false,,,,6223528.699999988,6223528.400000006,6220816.506,6220820.5,6220833.172,6223533.064,8,400,,,
trial,html.Screen,4_109_0,2023-09-15T22:09:39.070Z,,0,3,,2990.935999999754,response,ISIC_0026392.JPG,9,ISIC_0033325.JPG,ISIC_0033325.JPG,false,0,keypress(z),500,6226524.599999994,6226524,6223516.398,6223528.800000012,6223533.064,6226532.944,8,400,10,,ISIC_0026392.JPG
break,html.Screen,4_109_1,2023-09-15T22:09:39.072Z,,0,,,NaN,,,,,,false,,,,6226526.099999994,6226525.800000012,,6226524.900000006,,6226532.944,8,400,,,
break_continue,html.Screen,4_109_2,2023-09-15T22:09:39.072Z,,0,,,NaN,,,,,,false,,,,6226526.5,6226526.400000006,,6226526.300000012,,6226532.944,8,400,,,
sequence,flow.Sequence,4_109,2023-09-15T22:09:39.072Z,,0,,,2993.3360000057146,completion,,,,,false,,,,6226526.699999988,6226526.400000006,6223516.398,6223528.800000012,6223533.064,6226532.944,8,400,,,
trial,html.Screen,4_110_0,2023-09-15T22:09:41.564Z,,0,3,,2485.555999999866,response,ISIC_3065032.JPG,8,ISIC_7095615.JPG,ISIC_3065032.JPG,false,1,keypress(m),500,6229019,6229018.5,6226516.278,6226526.800000012,6226532.944,6229032.844,8,400,11,,ISIC_7095615.JPG
break,html.Screen,4_110_1,2023-09-15T22:09:41.566Z,,0,,,NaN,,,,,,false,,,,6229020.599999994,6229020.300000012,,6229019.300000012,,6229032.844,8,400,,,
break_continue,html.Screen,4_110_2,2023-09-15T22:09:41.566Z,,0,,,NaN,,,,,,false,,,,6229021,6229020.800000012,,6229020.599999994,,6229032.844,8,400,,,
sequence,flow.Sequence,4_110,2023-09-15T22:09:41.567Z,,0,,,2487.856000011787,completion,,,,,false,,,,6229021.099999994,6229020.800000012,6226516.278,6226526.699999988,6226532.944,6229032.844,8,400,,,
trial,html.Screen,4_111_0,2023-09-15T22:09:44.210Z,,0,3,,2632.056000006385,response,ISIC_0025927.JPG,5,ISIC_0046659.JPG,ISIC_0046659.JPG,false,0,keypress(z),500,6231665.099999994,6231664.900000006,6229016.178,6229021.400000006,6229032.844,6231666.505,8,400,12,,ISIC_0025927.JPG
break,html.Screen,4_111_1,2023-09-15T22:09:44.211Z,,0,,,NaN,,,,,,false,,,,6231665.900000006,6231665.800000012,,6231665.300000012,,6231666.505,8,400,,,
break_continue,html.Screen,4_111_2,2023-09-15T22:09:44.211Z,,0,,,NaN,,,,,,false,,,,6231666.099999994,6231666.099999994,,6231666,,6231666.505,8,400,,,
sequence,flow.Sequence,4_111,2023-09-15T22:09:44.212Z,,0,,,2633.255999994464,completion,,,,,false,,,,6231666.300000012,6231666.099999994,6229016.178,6229021.300000012,6229032.844,6231666.505,8,400,,,
trial,html.Screen,4_112_0,2023-09-15T22:09:46.729Z,,0,3,,2516.694999988191,response,ISIC_4705662.JPG,7,ISIC_0010478.JPG,ISIC_4705662.JPG,false,1,keypress(m),500,6234183.5,6234183.199999988,6231649.839,6231666.300000012,6231666.505,6234199.737,8,400,13,,ISIC_0010478.JPG
break,html.Screen,4_112_1,2023-09-15T22:09:46.730Z,,0,,,NaN,,,,,,false,,,,6234184.699999988,6234184.400000006,,6234183.699999988,,6234199.737,8,400,,,
break_continue,html.Screen,4_112_2,2023-09-15T22:09:46.730Z,,0,,,NaN,,,,,,false,,,,6234184.900000006,6234184.800000012,,6234184.699999988,,6234199.737,8,400,,,
sequence,flow.Sequence,4_112,2023-09-15T22:09:46.730Z,,0,,,2518.2950000120327,completion,,,,,false,,,,6234185,6234184.800000012,6231649.839,6231666.300000012,6231666.505,6234199.737,8,400,,,
trial,html.Screen,4_113_0,2023-09-15T22:09:49.776Z,,0,3,,3030.763000000268,response,ISIC_0033956.JPG,5,ISIC_0025458.JPG,ISIC_0025458.JPG,false,0,keypress(z),500,6237231.099999994,6237230.5,6234183.071,6234185,6234199.737,6237232.949,8,400,14,,ISIC_0033956.JPG
break,html.Screen,4_113_1,2023-09-15T22:09:49.778Z,,0,,,NaN,,,,,,false,,,,6237232.699999988,6237232.400000006,,6237231.400000006,,6237232.949,8,400,,,
break_continue,html.Screen,4_113_2,2023-09-15T22:09:49.778Z,,0,,,NaN,,,,,,false,,,,6237233.199999988,6237233,,6237232.900000006,,6237232.949,8,400,,,
sequence,flow.Sequence,4_113,2023-09-15T22:09:49.778Z,,0,,,3033.263000000268,completion,,,,,false,,,,6237233.300000012,6237233,6234183.071,6234185,6234199.737,6237232.949,8,400,,,
trial,html.Screen,4_114_0,2023-09-15T22:09:52.229Z,,0,3,,2451.150999994017,response,ISIC_0206758.JPG,8,ISIC_0062639.JPG,ISIC_0206758.JPG,false,1,keypress(m),500,6239684.300000012,6239684.099999994,6237216.283,6237233.400000006,6237232.949,6239699.517,8,400,15,,ISIC_0062639.JPG
break,html.Screen,4_114_1,2023-09-15T22:09:52.230Z,,0,,,NaN,,,,,,false,,,,6239685,6239684.900000006,,6239684.400000006,,6239699.517,8,400,,,
break_continue,html.Screen,4_114_2,2023-09-15T22:09:52.230Z,,0,,,NaN,,,,,,false,,,,6239685.199999988,6239685.199999988,,6239685,,6239699.517,8,400,,,
sequence,flow.Sequence,4_114,2023-09-15T22:09:52.230Z,,0,,,2452.2509999880567,completion,,,,,false,,,,6239685.199999988,6239685.199999988,6237216.283,6237233.400000006,6237232.949,6239699.517,8,400,,,
trial,html.Screen,4_115_0,2023-09-15T22:09:55.691Z,,0,3,,3445.582999994047,response,ISIC_4393521.JPG,8,ISIC_0008864.JPG,ISIC_0008864.JPG,false,0,keypress(z),500,6243145.599999994,6243145.099999994,6239682.851,6239685.300000012,6239699.517,6243149.81,8,400,16,,ISIC_4393521.JPG
break,html.Screen,4_115_1,2023-09-15T22:09:55.692Z,,0,,,NaN,,,,,,false,,,,6243147,6243146.800000012,,6243145.900000006,,6243149.81,8,400,,,
break_continue,html.Screen,4_115_2,2023-09-15T22:09:55.692Z,,0,,,NaN,,,,,,false,,,,6243147.5,6243147.400000006,,6243147.199999988,,6243149.81,8,400,,,
sequence,flow.Sequence,4_115,2023-09-15T22:09:55.693Z,,0,,,3447.883000005968,completion,,,,,false,,,,6243147.699999988,6243147.400000006,6239682.851,6239685.300000012,6239699.517,6243149.81,8,400,,,
trial,html.Screen,4_116_0,2023-09-15T22:09:58.221Z,,0,3,,2525.4900000123307,response,ISIC_0013969.JPG,5,ISIC_0034236.JPG,ISIC_0013969.JPG,false,1,keypress(m),500,6245675.800000012,6245675.300000012,6243133.144,6243147.800000012,6243149.81,6245683.042,8,400,17,,ISIC_0034236.JPG
break,html.Screen,4_116_1,2023-09-15T22:09:58.222Z,,0,,,NaN,,,,,,false,,,,6245677.400000006,6245677.099999994,,6245676.099999994,,6245683.042,8,400,,,
break_continue,html.Screen,4_116_2,2023-09-15T22:09:58.223Z,,0,,,NaN,,,,,,false,,,,6245677.800000012,6245677.599999994,,6245677.5,,6245683.042,8,400,,,
sequence,flow.Sequence,4_116,2023-09-15T22:09:58.223Z,,0,,,2527.7899999944493,completion,,,,,false,,,,6245677.900000006,6245677.599999994,6243133.144,6243147.699999988,6243149.81,6245683.042,8,400,,,
trial,html.Screen,4_117_0,2023-09-15T22:10:00.834Z,,0,3,,2605.157999987714,response,ISIC_0071693.JPG,7,ISIC_0014324.JPG,ISIC_0014324.JPG,false,0,keypress(z),500,6248288.800000012,6248288.199999988,6245666.376,6245678.099999994,6245683.042,6248299.604,8,400,18,,ISIC_0071693.JPG
break,html.Screen,4_117_1,2023-09-15T22:10:00.835Z,,0,,,NaN,,,,,,false,,,,6248290.300000012,6248290,,6248289,,6248299.604,8,400,,,
break_continue,html.Screen,4_117_2,2023-09-15T22:10:00.835Z,,0,,,NaN,,,,,,false,,,,6248290.699999988,6248290.599999994,,6248290.400000006,,6248299.604,8,400,,,
sequence,flow.Sequence,4_117,2023-09-15T22:10:00.836Z,,0,,,2607.5579999936745,completion,,,,,false,,,,6248290.900000006,6248290.599999994,6245666.376,6245678.099999994,6245683.042,6248299.604,8,400,,,
trial,html.Screen,4_118_0,2023-09-15T22:10:03.398Z,,0,3,,2553.395999999717,response,ISIC_0069891.JPG,7,ISIC_9059311.JPG,ISIC_9059311.JPG,false,0,keypress(z),500,6250853.599999994,6250853,6248282.938,6248291.099999994,6248299.604,6250866.168,8,400,19,,ISIC_0069891.JPG
break,html.Screen,4_118_1,2023-09-15T22:10:03.400Z,,0,,,NaN,,,,,,false,,,,6250855.199999988,6250854.900000006,,6250853.900000006,,6250866.168,8,400,,,
break_continue,html.Screen,4_118_2,2023-09-15T22:10:03.400Z,,0,,,NaN,,,,,,false,,,,6250855.5,6250855.5,,6250855.300000012,,6250866.168,8,400,,,
sequence,flow.Sequence,4_118,2023-09-15T22:10:03.400Z,,0,,,2555.895999999717,completion,,,,,false,,,,6250855.699999988,6250855.5,6248282.938,6248291,6248299.604,6250866.168,8,400,,,
trial,html.Screen,4_119_0,2023-09-15T22:10:05.956Z,,0,3,,2545.1320000123233,response,ISIC_0034094.JPG,8,ISIC_2276141.JPG,ISIC_2276141.JPG,false,0,keypress(z),500,6253411.699999988,6253411.300000012,6250849.502,6250855.900000006,6250866.168,6253416.565,8,400,20,,ISIC_0034094.JPG
break,html.Screen,4_119_1,2023-09-15T22:10:05.958Z,,0,,,NaN,,,,,,false,,,,6253413.199999988,6253413,,6253412.099999994,,6253416.565,8,400,,,
break_continue,html.Screen,4_119_2,2023-09-15T22:10:05.958Z,,0,,,NaN,,,,,,false,,,,6253413.699999988,6253413.599999994,,6253413.400000006,,6253416.565,8,400,,,
sequence,flow.Sequence,4_119,2023-09-15T22:10:05.959Z,,0,,,2547.431999994442,completion,,,,,false,,,,6253413.900000006,6253413.599999994,6250849.502,6250855.800000012,6250866.168,6253416.565,8,400,,,
trial,html.Screen,4_120_0,2023-09-15T22:10:08.508Z,,0,3,,2546.5349999936298,response,ISIC_0010719.JPG,7,ISIC_0031021.JPG,ISIC_0031021.JPG,false,0,keypress(z),500,6255963.599999994,6255963.099999994,6253399.899,6253414,6253416.565,6255966.463,8,400,21,,ISIC_0010719.JPG
break,html.Screen,4_120_1,2023-09-15T22:10:08.510Z,,0,,,NaN,,,,,,false,,,,6255965.099999994,6255964.800000012,,6255963.900000006,,6255966.463,8,400,,,
break_continue,html.Screen,4_120_2,2023-09-15T22:10:08.510Z,,0,,,NaN,,,,,,false,,,,6255965.5,6255965.400000006,,6255965.199999988,,6255966.463,8,400,,,
sequence,flow.Sequence,4_120,2023-09-15T22:10:08.510Z,,0,,,2548.8350000055507,completion,,,,,false,,,,6255965.699999988,6255965.400000006,6253399.899,6253414,6253416.565,6255966.463,8,400,,,
trial,html.Screen,4_121_0,2023-09-15T22:10:11.106Z,,0,3,,2594.437000005506,response,ISIC_0057059.JPG,6,ISIC_0026655.JPG,ISIC_0026655.JPG,false,0,keypress(z),500,6258561.300000012,6258560.900000006,6255949.797,6255965.900000006,6255966.463,6258566.359,8,400,22,,ISIC_0057059.JPG
break,html.Screen,4_121_1,2023-09-15T22:10:11.107Z,,0,,,NaN,,,,,,false,,,,6258562.699999988,6258562.400000006,,6258561.599999994,,6258566.359,8,400,,,
break_continue,html.Screen,4_121_2,2023-09-15T22:10:11.108Z,,0,,,NaN,,,,,,false,,,,6258563.199999988,6258563.099999994,,6258562.800000012,,6258566.359,8,400,,,
sequence,flow.Sequence,4_121,2023-09-15T22:10:11.108Z,,0,,,2596.636999993585,completion,,,,,false,,,,6258563.300000012,6258563.099999994,6255949.797,6255965.800000012,6255966.463,6258566.359,8,400,,,
trial,html.Screen,4_122_0,2023-09-15T22:10:13.799Z,,0,3,,2687.3409999879077,response,ISIC_0069556.JPG,8,ISIC_0032907.JPG,ISIC_0032907.JPG,false,0,keypress(z),500,6261254.199999988,6261253.699999988,6258549.693,6258563.5,6258566.359,6261266.251,8,400,23,,ISIC_0069556.JPG
break,html.Screen,4_122_1,2023-09-15T22:10:13.800Z,,0,,,NaN,,,,,,false,,,,6261255.699999988,6261255.400000006,,6261254.5,,6261266.251,8,400,,,
break_continue,html.Screen,4_122_2,2023-09-15T22:10:13.801Z,,0,,,NaN,,,,,,false,,,,6261256.199999988,6261256,,6261255.900000006,,6261266.251,8,400,,,
sequence,flow.Sequence,4_122,2023-09-15T22:10:13.801Z,,0,,,2689.6409999998286,completion,,,,,false,,,,6261256.400000006,6261256,6258549.693,6258563.5,6258566.359,6261266.251,8,400,,,
trial,html.Screen,4_123_0,2023-09-15T22:10:16.452Z,,0,3,,2640.6490000057966,response,ISIC_0026113.JPG,8,ISIC_0026730.JPG,ISIC_0026730.JPG,false,0,keypress(z),500,6263907.400000006,6263906.900000006,6261249.585,6261256.5,6261266.251,6263916.609,8,400,24,,ISIC_0026113.JPG
break,html.Screen,4_123_1,2023-09-15T22:10:16.453Z,,0,,,NaN,,,,,,false,,,,6263909,6263908.699999988,,6263907.800000012,,6263916.609,8,400,,,
break_continue,html.Screen,4_123_2,2023-09-15T22:10:16.454Z,,0,,,NaN,,,,,,false,,,,6263909.300000012,6263909.199999988,,6263909.099999994,,6263916.609,8,400,,,
sequence,flow.Sequence,4_123,2023-09-15T22:10:16.454Z,,0,,,2642.948999987915,completion,,,,,false,,,,6263909.5,6263909.199999988,6261249.585,6261256.5,6261266.251,6263916.609,8,400,,,
trial,html.Screen,4_124_0,2023-09-15T22:10:19.192Z,,0,3,,2730.8909999998286,response,ISIC_0068798.JPG,7,ISIC_4672131.JPG,ISIC_4672131.JPG,false,0,keypress(z),500,6266648,6266647.5,6263899.943,6263909.599999994,6263916.609,6266649.833,8,400,25,,ISIC_0068798.JPG
break,html.Screen,4_124_1,2023-09-15T22:10:19.193Z,,0,,,NaN,,,,,,false,,,,6266649.199999988,6266648.900000006,,6266648.300000012,,6266649.833,8,400,,,
break_continue,html.Screen,4_124_2,2023-09-15T22:10:19.194Z,,0,,,NaN,,,,,,false,,,,6266649.5,6266649.5,,6266649.300000012,,6266649.833,8,400,,,
sequence,flow.Sequence,4_124,2023-09-15T22:10:19.194Z,,0,,,2732.8909999998286,completion,,,,,false,,,,6266649.599999994,6266649.5,6263899.943,6263909.599999994,6263916.609,6266649.833,8,400,,,
trial,html.Screen,4_125_0,2023-09-15T22:10:22.317Z,,0,3,,3122.967000012286,response,ISIC_6375439.JPG,7,ISIC_5662381.JPG,ISIC_6375439.JPG,false,1,keypress(m),500,6269773.300000012,6269772.800000012,6266633.167,6266649.800000012,6266649.833,6269783.041,8,400,26,,ISIC_5662381.JPG
break,html.Screen,4_125_1,2023-09-15T22:10:22.319Z,,0,,,NaN,,,,,,false,,,,6269774.800000012,6269774.5,,6269773.599999994,,6269783.041,8,400,,,
break_continue,html.Screen,4_125_2,2023-09-15T22:10:22.319Z,,0,,,NaN,,,,,,false,,,,6269775.199999988,6269775.099999994,,6269774.900000006,,6269783.041,8,400,,,
sequence,flow.Sequence,4_125,2023-09-15T22:10:22.320Z,,0,,,3125.2669999944046,completion,,,,,false,,,,6269775.5,6269775.099999994,6266633.167,6266649.800000012,6266649.833,6269783.041,8,400,,,
