sender,sender_type,sender_id,timestamp,meta,,blockNo,condition,duration,ended_on,img_left,img_reveal,img_right,loser,practice,response,response_action,selection_duration,time_commit,time_end,time_render,time_run,time_show,time_switch,total_blocks,total_trials,trialNo,url,winner
informed_consent,html.Screen,0,2023-05-01T22:21:19.187Z,"{""labjs_version"":""20.2.4"",""labjs_build"":{""flavor"":""production"",""commit"":""f5b4a49f956347addd546a832a3327688c2c0fef""},""location"":""https://run.pavlovia.org/MurrayBennett/melanoma-2afc/?participant=63576"",""userAgent"":""Mozilla/5.0 (Windows NT 10.0; Win64; x64) AppleWebKit/537.36 (KHTML, like Gecko) Chrome/112.0.0.0 Safari/537.36"",""platform"":""Win32"",""language"":""en-US"",""locale"":""en-US"",""timeZone"":""America/Chicago"",""timezoneOffset"":300,""screen_width"":1536,""screen_height"":864,""scroll_width"":1536,""scroll_height"":666,""window_innerWidth"":1536,""window_innerHeight"":714,""devicePixelRatio"":1.25}",,,,14477.68499961853,response,,,,,,consent,click button,,17539.800000190735,17538.89999961853,3044.493,3048,3061.215,17544.18,,,,"{""participant"":""63576""}",
Welcome,html.Screen,1,2023-05-01T22:22:06.507Z,,,,irregular,47314.92000038147,response,,,,,,continue,click button,,64859.800000190735,64859.10000038147,17527.69,17540,17544.18,64882.099,,,,,
trial,html.Screen,2_0_0,2023-05-01T22:22:13.405Z,,0,0,,6874.800999618528,response,ISIC_0061792.JPG,,ISIC_4679428.JPG,ISIC_0061792.JPG,true,1,keypress(m),500,71757.39999961853,71756.89999961853,64843.296,64859.89999961853,64882.099,71778.696,1,6,1,,ISIC_4679428.JPG
sequence,flow.Sequence,2_0,2023-05-01T22:22:13.406Z,,0,,,6874.800999618528,completion,,,,,true,,,,71758.30000019073,71756.89999961853,64843.296,64859.800000190735,64882.099,71778.696,1,6,,,
trial,html.Screen,2_1_0,2023-05-01T22:22:18.612Z,,0,0,,5185.003999809269,response,ISIC_0776486.JPG,,ISIC_5199497.JPG,ISIC_5199497.JPG,true,0,keypress(z),500,76964.19999980927,76963.69999980927,71743.372,71758.60000038147,71778.696,76976.506,1,6,2,,ISIC_0776486.JPG
sequence,flow.Sequence,2_1,2023-05-01T22:22:18.612Z,,0,,,5185.003999809269,completion,,,,,true,,,,76964.69999980927,76963.69999980927,71743.372,71758.5,71778.696,76976.506,1,6,,,
trial,html.Screen,2_2_0,2023-05-01T22:22:23.523Z,,0,0,,4897.893999618536,response,ISIC_2556187.JPG,,ISIC_8575776.JPG,ISIC_8575776.JPG,true,0,keypress(z),500,81874.89999961853,81874.39999961853,76959.83,76965,76976.506,81893.09,1,6,3,,ISIC_2556187.JPG
sequence,flow.Sequence,2_2,2023-05-01T22:22:23.523Z,,0,,,4897.893999618536,completion,,,,,true,,,,81875.39999961853,81874.39999961853,76959.83,76964.89999961853,76976.506,81893.09,1,6,,,
trial,html.Screen,2_3_0,2023-05-01T22:22:28.461Z,,0,0,,4919.609999809269,response,ISIC_8141769.JPG,,ISIC_9238366.JPG,ISIC_9238366.JPG,true,0,keypress(z),500,86813.10000038147,86812.69999980927,81859.919,81875.69999980927,81893.09,86826.323,1,6,4,,ISIC_8141769.JPG
sequence,flow.Sequence,2_3,2023-05-01T22:22:28.461Z,,0,,,4919.609999809269,completion,,,,,true,,,,86813.69999980927,86812.69999980927,81859.919,81875.69999980927,81893.09,86826.323,1,6,,,
trial,html.Screen,2_4_0,2023-05-01T22:22:35.281Z,,0,0,,6806.277000381466,response,ISIC_8949026.JPG,,ISIC_9959593.JPG,ISIC_9959593.JPG,true,0,keypress(z),500,93633.19999980927,93632.60000038147,86809.685,86814.10000038147,86826.323,93642.838,1,6,5,,ISIC_8949026.JPG
sequence,flow.Sequence,2_4,2023-05-01T22:22:35.281Z,,0,,,6806.277000381466,completion,,,,,true,,,,93633.69999980927,93632.60000038147,86809.685,86814,86826.323,93642.838,1,6,,,
trial,html.Screen,2_5_0,2023-05-01T22:22:39.056Z,,0,0,,3765.2620003814664,response,ISIC_0010479.JPG,,ISIC_0460240.JPG,ISIC_0460240.JPG,true,0,keypress(z),500,97408.69999980927,97408.10000038147,93626.257,93634.10000038147,93642.838,97426.108,1,6,6,,ISIC_0010479.JPG
sequence,flow.Sequence,2_5,2023-05-01T22:22:39.057Z,,0,,,3765.2620003814664,completion,,,,,true,,,,97409.19999980927,97408.10000038147,93626.257,93634,93642.838,97426.108,1,6,,,
loop,flow.Loop,2,2023-05-01T22:22:39.057Z,,,,,32526.001000381468,completion,,,,,true,,,,97409.60000038147,97408.10000038147,64843.296,64859.800000190735,64882.099,97426.108,1,6,,,
exp_instructions,html.Screen,3,2023-05-01T22:22:45.148Z,,,,,6073.492000381477,response,,,,,,continue,keypress(Space),,103500.60000038147,103499.60000038147,97409.585,97409.80000019073,97426.108,103509.401,,,,,
trial,html.Screen,4_0_0,2023-05-01T22:22:51.471Z,,0,1,,6313.498999618532,response,ISIC_2468509.JPG,,ISIC_9917640.JPG,ISIC_2468509.JPG,false,1,keypress(m),500,109823,109822.89999961853,103492.736,103501.10000038147,103509.401,109825.808,8,400,1,,ISIC_9917640.JPG
break,html.Screen,4_0_1,2023-05-01T22:22:51.471Z,,0,,,NaN,,,,,,false,,,,109823.69999980927,109823.5,,109823.10000038147,,109825.808,8,400,,,
break_continue,html.Screen,4_0_2,2023-05-01T22:22:51.472Z,,0,,,NaN,,,,,,false,,,,109824,109824,,109823.80000019073,,109825.808,8,400,,,
sequence,flow.Sequence,4_0,2023-05-01T22:22:51.472Z,,0,,,6314.599000000002,completion,,,,,false,,,,109824.10000038147,109824,103492.736,103501,103509.401,109825.808,8,400,,,
trial,html.Screen,4_1_0,2023-05-01T22:22:59.767Z,,0,1,,8293.191999999995,response,ISIC_0011086.JPG,,ISIC_0033087.JPG,ISIC_0011086.JPG,false,1,keypress(m),500,118119.39999961853,118119,109809.39,109824.10000038147,109825.808,118125.736,8,400,2,,ISIC_0033087.JPG
break,html.Screen,4_1_1,2023-05-01T22:22:59.769Z,,0,,,NaN,,,,,,false,,,,118121.19999980927,118120.60000038147,,118119.69999980927,,118125.736,8,400,,,
break_continue,html.Screen,4_1_2,2023-05-01T22:22:59.770Z,,0,,,NaN,,,,,,false,,,,118121.89999961853,118121.60000038147,,118121.30000019073,,118125.736,8,400,,,
sequence,flow.Sequence,4_1,2023-05-01T22:22:59.770Z,,0,,,8295.792000381465,completion,,,,,false,,,,118122.19999980927,118121.60000038147,109809.39,109824.10000038147,109825.808,118125.736,8,400,,,
trial,html.Screen,4_2_0,2023-05-01T22:23:04.090Z,,0,1,,4316.06400019073,response,ISIC_9720518.JPG,,ISIC_1076091.JPG,ISIC_1076091.JPG,false,0,keypress(z),500,122442.30000019073,122441.80000019073,118109.073,118122.5,118125.736,122458.96,8,400,3,,ISIC_9720518.JPG
break,html.Screen,4_2_1,2023-05-01T22:23:04.092Z,,0,,,NaN,,,,,,false,,,,122444.10000038147,122443.69999980927,,122442.80000019073,,122458.96,8,400,,,
break_continue,html.Screen,4_2_2,2023-05-01T22:23:04.093Z,,0,,,NaN,,,,,,false,,,,122444.89999961853,122444.60000038147,,122444.30000019073,,122458.96,8,400,,,
sequence,flow.Sequence,4_2,2023-05-01T22:23:04.093Z,,0,,,4318.864000381465,completion,,,,,false,,,,122445.19999980927,122444.60000038147,118109.073,118122.39999961853,118125.736,122458.96,8,400,,,
trial,html.Screen,4_3_0,2023-05-01T22:23:09.516Z,,0,1,,5408.939999618524,response,ISIC_5831880.JPG,,ISIC_0182730.JPG,ISIC_5831880.JPG,false,1,keypress(m),500,127868.30000019073,127867.89999961853,122442.486,122445.5,122458.96,127875.568,8,400,4,,ISIC_0182730.JPG
break,html.Screen,4_3_1,2023-05-01T22:23:09.518Z,,0,,,NaN,,,,,,false,,,,127869.80000019073,127869.39999961853,,127868.60000038147,,127875.568,8,400,,,
break_continue,html.Screen,4_3_2,2023-05-01T22:23:09.518Z,,0,,,NaN,,,,,,false,,,,127870.60000038147,127870.39999961853,,127870.10000038147,,127875.568,8,400,,,
sequence,flow.Sequence,4_3,2023-05-01T22:23:09.519Z,,0,,,5411.439999618524,completion,,,,,false,,,,127870.89999961853,127870.39999961853,122442.486,122445.39999961853,122458.96,127875.568,8,400,,,
trial,html.Screen,4_4_0,2023-05-01T22:23:13.543Z,,0,1,,4019.131999809266,response,ISIC_2700320.JPG,,ISIC_0069257.JPG,ISIC_0069257.JPG,false,0,keypress(z),500,131895,131894.69999980927,127859.006,127871.19999980927,127875.568,131908.813,8,400,5,,ISIC_2700320.JPG
break,html.Screen,4_4_1,2023-05-01T22:23:13.544Z,,0,,,NaN,,,,,,false,,,,131896.80000019073,131896.19999980927,,131895.39999961853,,131908.813,8,400,,,
break_continue,html.Screen,4_4_2,2023-05-01T22:23:13.545Z,,0,,,NaN,,,,,,false,,,,131897.60000038147,131897.39999961853,,131897.10000038147,,131908.813,8,400,,,
sequence,flow.Sequence,4_4,2023-05-01T22:23:13.546Z,,0,,,4021.831999618531,completion,,,,,false,,,,131897.89999961853,131897.39999961853,127859.006,127871.10000038147,127875.568,131908.813,8,400,,,
trial,html.Screen,4_5_0,2023-05-01T22:23:23.846Z,,0,1,,10289.187000000005,response,ISIC_8694181.JPG,,ISIC_0014308.JPG,ISIC_8694181.JPG,false,1,keypress(m),500,142198.39999961853,142198,131892.215,131898.19999980927,131908.813,142208.583,8,400,6,,ISIC_0014308.JPG
break,html.Screen,4_5_1,2023-05-01T22:23:23.848Z,,0,,,NaN,,,,,,false,,,,142199.89999961853,142199.5,,142198.60000038147,,142208.583,8,400,,,
break_continue,html.Screen,4_5_2,2023-05-01T22:23:23.848Z,,0,,,NaN,,,,,,false,,,,142200.60000038147,142200.39999961853,,142200.19999980927,,142208.583,8,400,,,
sequence,flow.Sequence,4_5,2023-05-01T22:23:23.849Z,,0,,,10291.586999618536,completion,,,,,false,,,,142201,142200.39999961853,131892.215,131898.10000038147,131908.813,142208.583,8,400,,,
trial,html.Screen,4_6_0,2023-05-01T22:23:29.446Z,,0,1,,5589.916999999987,response,ISIC_0033533.JPG,,ISIC_0030119.JPG,ISIC_0033533.JPG,false,1,keypress(m),500,147798.60000038147,147798.5,142192.099,142201.19999980927,142208.583,147808.594,8,400,7,,ISIC_0030119.JPG
break,html.Screen,4_6_1,2023-05-01T22:23:29.447Z,,0,,,NaN,,,,,,false,,,,147799.19999980927,147799.10000038147,,147798.69999980927,,147808.594,8,400,,,
break_continue,html.Screen,4_6_2,2023-05-01T22:23:29.447Z,,0,,,NaN,,,,,,false,,,,147799.39999961853,147799.30000019073,,147799.30000019073,,147808.594,8,400,,,
sequence,flow.Sequence,4_6,2023-05-01T22:23:29.447Z,,0,,,5590.717000190722,completion,,,,,false,,,,147799.5,147799.30000019073,142192.099,142201.19999980927,142208.583,147808.594,8,400,,,
trial,html.Screen,4_7_0,2023-05-01T22:23:34.093Z,,0,1,,4636.805999618518,response,ISIC_8624049.JPG,,ISIC_0030336.JPG,ISIC_0030336.JPG,false,0,keypress(z),500,152445.60000038147,152445.39999961853,147792.048,147799.5,147808.594,152458.503,8,400,8,,ISIC_8624049.JPG
break,html.Screen,4_7_1,2023-05-01T22:23:34.094Z,,0,,,NaN,,,,,,false,,,,152446.60000038147,152446.30000019073,,152445.80000019073,,152458.503,8,400,,,
break_continue,html.Screen,4_7_2,2023-05-01T22:23:34.095Z,,0,,,NaN,,,,,,false,,,,152447,152446.89999961853,,152446.69999980927,,152458.503,8,400,,,
sequence,flow.Sequence,4_7,2023-05-01T22:23:34.095Z,,0,,,4638.305999618518,completion,,,,,false,,,,152447.19999980927,152446.89999961853,147792.048,147799.5,147808.594,152458.503,8,400,,,
trial,html.Screen,4_8_0,2023-05-01T22:23:38.101Z,,0,1,,3994.196999809268,response,ISIC_0056466.JPG,,ISIC_0056406.JPG,ISIC_0056466.JPG,false,1,keypress(m),500,156453.10000038147,156452.69999980927,152441.914,152447.30000019073,152458.503,156458.285,8,400,9,,ISIC_0056406.JPG
break,html.Screen,4_8_1,2023-05-01T22:23:38.102Z,,0,,,NaN,,,,,,false,,,,156454.60000038147,156454.19999980927,,156453.39999961853,,156458.285,8,400,,,
break_continue,html.Screen,4_8_2,2023-05-01T22:23:38.103Z,,0,,,NaN,,,,,,false,,,,156455.39999961853,156455.19999980927,,156454.89999961853,,156458.285,8,400,,,
sequence,flow.Sequence,4_8,2023-05-01T22:23:38.103Z,,0,,,3996.696999809268,completion,,,,,false,,,,156455.60000038147,156455.19999980927,152441.914,152447.19999980927,152458.503,156458.285,8,400,,,
trial,html.Screen,4_9_0,2023-05-01T22:23:41.800Z,,0,1,,3694.2149999999965,response,ISIC_6559840.JPG,,ISIC_0068166.JPG,ISIC_6559840.JPG,false,1,keypress(m),500,160152.80000019073,160152.5,156441.671,156455.89999961853,156458.285,160158.229,8,400,10,,ISIC_0068166.JPG
break,html.Screen,4_9_1,2023-05-01T22:23:41.802Z,,0,,,NaN,,,,,,false,,,,160154.10000038147,160153.80000019073,,160153.10000038147,,160158.229,8,400,,,
break_continue,html.Screen,4_9_2,2023-05-01T22:23:41.802Z,,0,,,NaN,,,,,,false,,,,160154.69999980927,160154.5,,160154.19999980927,,160158.229,8,400,,,
sequence,flow.Sequence,4_9,2023-05-01T22:23:41.802Z,,0,,,3696.2149999999965,completion,,,,,false,,,,160154.89999961853,160154.5,156441.671,156455.80000019073,156458.285,160158.229,8,400,,,
trial,html.Screen,4_10_0,2023-05-01T22:23:46.401Z,,0,1,,4594.571000190743,response,ISIC_0015046.JPG,,ISIC_0058666.JPG,ISIC_0015046.JPG,false,1,keypress(m),500,164753.30000019073,164752.80000019073,160141.694,160155,160158.229,164758.231,8,400,11,,ISIC_0058666.JPG
break,html.Screen,4_10_1,2023-05-01T22:23:46.403Z,,0,,,NaN,,,,,,false,,,,164754.89999961853,164754.5,,164753.5,,164758.231,8,400,,,
break_continue,html.Screen,4_10_2,2023-05-01T22:23:46.403Z,,0,,,NaN,,,,,,false,,,,164755.69999980927,164755.5,,164755.10000038147,,164758.231,8,400,,,
sequence,flow.Sequence,4_10,2023-05-01T22:23:46.404Z,,0,,,4597.271000000008,completion,,,,,false,,,,164756,164755.5,160141.694,160155,160158.229,164758.231,8,400,,,
trial,html.Screen,4_11_0,2023-05-01T22:23:50.024Z,,0,1,,3618.069000190735,response,ISIC_0014936.JPG,,ISIC_0026727.JPG,ISIC_0026727.JPG,false,0,keypress(z),500,168376.69999980927,168376.30000019073,164741.606,164756.19999980927,164758.231,168391.499,8,400,12,,ISIC_0014936.JPG
break,html.Screen,4_11_1,2023-05-01T22:23:50.026Z,,0,,,NaN,,,,,,false,,,,168378.30000019073,168377.89999961853,,168376.89999961853,,168391.499,8,400,,,
break_continue,html.Screen,4_11_2,2023-05-01T22:23:50.027Z,,0,,,NaN,,,,,,false,,,,168379.10000038147,168378.80000019073,,168378.5,,168391.499,8,400,,,
sequence,flow.Sequence,4_11,2023-05-01T22:23:50.027Z,,0,,,3620.569000190735,completion,,,,,false,,,,168379.39999961853,168378.80000019073,164741.606,164756.19999980927,164758.231,168391.499,8,400,,,
trial,html.Screen,4_12_0,2023-05-01T22:23:58.270Z,,0,1,,8230.200999809254,response,ISIC_3767325.JPG,,ISIC_4574865.JPG,ISIC_3767325.JPG,false,1,keypress(m),500,176622.10000038147,176621.69999980927,168374.956,168379.69999980927,168391.499,176624.656,8,400,13,,ISIC_4574865.JPG
break,html.Screen,4_12_1,2023-05-01T22:23:58.271Z,,0,,,NaN,,,,,,false,,,,176623.80000019073,176623.39999961853,,176622.5,,176624.656,8,400,,,
break_continue,html.Screen,4_12_2,2023-05-01T22:23:58.272Z,,0,,,NaN,,,,,,false,,,,176624.60000038147,176624.39999961853,,176624,,176624.656,8,400,,,
sequence,flow.Sequence,4_12,2023-05-01T22:23:58.273Z,,0,,,8232.90099961852,completion,,,,,false,,,,176624.89999961853,176624.39999961853,168374.956,168379.60000038147,168391.499,176624.656,8,400,,,
trial,html.Screen,4_13_0,2023-05-01T22:24:03.081Z,,0,1,,4808.543999809277,response,ISIC_0010174.JPG,,ISIC_0032922.JPG,ISIC_0032922.JPG,false,0,keypress(z),500,181433.39999961853,181433.19999980927,176608.036,176625.10000038147,176624.656,181441.168,8,400,14,,ISIC_0010174.JPG
break,html.Screen,4_13_1,2023-05-01T22:24:03.082Z,,0,,,NaN,,,,,,false,,,,181434,181433.89999961853,,181433.5,,181441.168,8,400,,,
break_continue,html.Screen,4_13_2,2023-05-01T22:24:03.082Z,,0,,,NaN,,,,,,false,,,,181434.39999961853,181434.30000019073,,181434.10000038147,,181441.168,8,400,,,
sequence,flow.Sequence,4_13,2023-05-01T22:24:03.082Z,,0,,,4809.644000190747,completion,,,,,false,,,,181434.39999961853,181434.30000019073,176608.036,176625,176624.656,181441.168,8,400,,,
trial,html.Screen,4_14_0,2023-05-01T22:24:06.830Z,,0,1,,3740.9320003814646,response,ISIC_0065525.JPG,,ISIC_0068128.JPG,ISIC_0068128.JPG,false,0,keypress(z),500,185182.30000019073,185182.10000038147,181424.659,181434.5,181441.168,185191.131,8,400,15,,ISIC_0065525.JPG
break,html.Screen,4_14_1,2023-05-01T22:24:06.831Z,,0,,,NaN,,,,,,false,,,,185183.19999980927,185183,,185182.39999961853,,185191.131,8,400,,,
break_continue,html.Screen,4_14_2,2023-05-01T22:24:06.831Z,,0,,,NaN,,,,,,false,,,,185183.69999980927,185183.5,,185183.30000019073,,185191.131,8,400,,,
sequence,flow.Sequence,4_14,2023-05-01T22:24:06.831Z,,0,,,3742.331999999995,completion,,,,,false,,,,185183.80000019073,185183.5,181424.659,181434.5,181441.168,185191.131,8,400,,,
trial,html.Screen,4_15_0,2023-05-01T22:24:11.710Z,,0,1,,4871.568999809271,response,ISIC_5798331.JPG,,ISIC_0067156.JPG,ISIC_0067156.JPG,false,0,keypress(z),500,190062.80000019073,190062.69999980927,185174.546,185183.89999961853,185191.131,190091.04,8,400,16,,ISIC_5798331.JPG
break,html.Screen,4_15_1,2023-05-01T22:24:11.711Z,,0,,,NaN,,,,,,false,,,,190063.19999980927,190063.10000038147,,190062.89999961853,,190091.04,8,400,,,
break_continue,html.Screen,4_15_2,2023-05-01T22:24:11.711Z,,0,,,NaN,,,,,,false,,,,190063.39999961853,190063.39999961853,,190063.30000019073,,190091.04,8,400,,,
sequence,flow.Sequence,4_15,2023-05-01T22:24:11.711Z,,0,,,4872.268999618536,completion,,,,,false,,,,190063.60000038147,190063.39999961853,185174.546,185183.89999961853,185191.131,190091.04,8,400,,,
trial,html.Screen,4_16_0,2023-05-01T22:24:21.207Z,,0,1,,9468.359999618522,response,ISIC_0062443.JPG,,ISIC_0029933.JPG,ISIC_0029933.JPG,false,0,keypress(z),500,199559.69999980927,199559.39999961853,190074.46,190063.60000038147,190091.04,199574.246,8,400,17,,ISIC_0062443.JPG
break,html.Screen,4_16_1,2023-05-01T22:24:21.209Z,,0,,,NaN,,,,,,false,,,,199561.5,199561.10000038147,,199560.19999980927,,199574.246,8,400,,,
break_continue,html.Screen,4_16_2,2023-05-01T22:24:21.210Z,,0,,,NaN,,,,,,false,,,,199562.30000019073,199562,,199561.60000038147,,199574.246,8,400,,,
sequence,flow.Sequence,4_16,2023-05-01T22:24:21.210Z,,0,,,9470.959999999992,completion,,,,,false,,,,199562.5,199562,190074.46,190063.60000038147,190091.04,199574.246,8,400,,,
trial,html.Screen,4_17_0,2023-05-01T22:24:26.173Z,,0,1,,4950.6539996185165,response,ISIC_2395624.JPG,,ISIC_0067338.JPG,ISIC_0067338.JPG,false,0,keypress(z),500,204525.30000019073,204524.89999961853,199557.627,199562.80000019073,199574.246,204557.55,8,400,18,,ISIC_2395624.JPG
break,html.Screen,4_17_1,2023-05-01T22:24:26.174Z,,0,,,NaN,,,,,,false,,,,204526.89999961853,204526.5,,204525.69999980927,,204557.55,8,400,,,
break_continue,html.Screen,4_17_2,2023-05-01T22:24:26.175Z,,0,,,NaN,,,,,,false,,,,204527.60000038147,204527.39999961853,,204527.10000038147,,204557.55,8,400,,,
sequence,flow.Sequence,4_17,2023-05-01T22:24:26.175Z,,0,,,4953.1539996185165,completion,,,,,false,,,,204528,204527.39999961853,199557.627,199562.69999980927,199574.246,204557.55,8,400,,,
trial,html.Screen,4_18_0,2023-05-01T22:24:37.689Z,,0,1,,11516.360000000015,timeout,ISIC_1223849.JPG,,ISIC_0028181.JPG,,false,,,500,216041.69999980927,216041.30000019073,204540.825,204528.19999980927,204557.55,216073.91,8,400,19,,
break,html.Screen,4_18_1,2023-05-01T22:24:37.691Z,,0,,,NaN,,,,,,false,,,,216043.19999980927,216042.80000019073,,216042,,216073.91,8,400,,,
break_continue,html.Screen,4_18_2,2023-05-01T22:24:37.691Z,,0,,,NaN,,,,,,false,,,,216043.89999961853,216043.69999980927,,216043.39999961853,,216073.91,8,400,,,
sequence,flow.Sequence,4_18,2023-05-01T22:24:37.692Z,,0,,,11486.149999809277,completion,,,,,false,,,,216044.30000019073,216043.69999980927,204540.825,204528.10000038147,204557.55,216073.91,8,400,,,
trial,html.Screen,4_19_0,2023-05-01T22:24:42.560Z,,0,1,,4838.289999809262,response,ISIC_9923630.JPG,,ISIC_5176419.JPG,ISIC_9923630.JPG,false,1,keypress(m),500,220912.39999961853,220912.19999980927,216057.254,216044.39999961853,216073.91,220940.554,8,400,20,,ISIC_5176419.JPG
break,html.Screen,4_19_1,2023-05-01T22:24:42.561Z,,0,,,NaN,,,,,,false,,,,220913.19999980927,220913,,220912.5,,220940.554,8,400,,,
break_continue,html.Screen,4_19_2,2023-05-01T22:24:42.561Z,,0,,,NaN,,,,,,false,,,,220913.5,220913.39999961853,,220913.30000019073,,220940.554,8,400,,,
sequence,flow.Sequence,4_19,2023-05-01T22:24:42.561Z,,0,,,4839.489999618527,completion,,,,,false,,,,220913.80000019073,220913.39999961853,216057.254,216044.39999961853,216073.91,220940.554,8,400,,,
trial,html.Screen,4_20_0,2023-05-01T22:24:46.600Z,,0,1,,4012.1459998092614,response,ISIC_0806138.JPG,,ISIC_1135213.JPG,ISIC_1135213.JPG,false,0,keypress(z),500,224952.80000019073,224952.69999980927,220923.886,220913.80000019073,220940.554,224957.032,8,400,21,,ISIC_0806138.JPG
break,html.Screen,4_20_1,2023-05-01T22:24:46.601Z,,0,,,NaN,,,,,,false,,,,224953.5,224953.30000019073,,224952.89999961853,,224957.032,8,400,,,
break_continue,html.Screen,4_20_2,2023-05-01T22:24:46.601Z,,0,,,NaN,,,,,,false,,,,224953.80000019073,224953.80000019073,,224953.60000038147,,224957.032,8,400,,,
sequence,flow.Sequence,4_20,2023-05-01T22:24:46.601Z,,0,,,4013.246000190731,completion,,,,,false,,,,224954,224953.80000019073,220923.886,220913.80000019073,220940.554,224957.032,8,400,,,
trial,html.Screen,4_21_0,2023-05-01T22:24:50.535Z,,0,1,,3930.068000381463,response,ISIC_0028239.JPG,,ISIC_3474472.JPG,ISIC_0028239.JPG,false,1,keypress(m),500,228887.39999961853,228887.10000038147,224940.426,224954,224957.032,228890.331,8,400,22,,ISIC_3474472.JPG
break,html.Screen,4_21_1,2023-05-01T22:24:50.537Z,,0,,,NaN,,,,,,false,,,,228889.19999980927,228888.69999980927,,228887.80000019073,,228890.331,8,400,,,
break_continue,html.Screen,4_21_2,2023-05-01T22:24:50.537Z,,0,,,NaN,,,,,,false,,,,228889.89999961853,228889.69999980927,,228889.30000019073,,228890.331,8,400,,,
sequence,flow.Sequence,4_21,2023-05-01T22:24:50.538Z,,0,,,3932.6679998092586,completion,,,,,false,,,,228890.19999980927,228889.69999980927,224940.426,224954,224957.032,228890.331,8,400,,,
trial,html.Screen,4_22_0,2023-05-01T22:24:54.705Z,,0,1,,4166.668999999994,response,ISIC_2131962.JPG,,ISIC_7505369.JPG,ISIC_2131962.JPG,false,1,keypress(m),500,233057.30000019073,233057,228873.756,228890.39999961853,228890.331,233073.653,8,400,23,,ISIC_7505369.JPG
break,html.Screen,4_22_1,2023-05-01T22:24:54.706Z,,0,,,NaN,,,,,,false,,,,233058.69999980927,233058.30000019073,,233057.60000038147,,233073.653,8,400,,,
break_continue,html.Screen,4_22_2,2023-05-01T22:24:54.707Z,,0,,,NaN,,,,,,false,,,,233059.30000019073,233059.19999980927,,233058.89999961853,,233073.653,8,400,,,
sequence,flow.Sequence,4_22,2023-05-01T22:24:54.707Z,,0,,,4168.86899980926,completion,,,,,false,,,,233059.60000038147,233059.19999980927,228873.756,228890.39999961853,228890.331,233073.653,8,400,,,
trial,html.Screen,4_23_0,2023-05-01T22:24:59.754Z,,0,1,,5032.947000381479,response,ISIC_0030718.JPG,,ISIC_0027436.JPG,ISIC_0030718.JPG,false,1,keypress(m),500,238106.89999961853,238106.60000038147,233057.085,233059.80000019073,233073.653,238123.551,8,400,24,,ISIC_0027436.JPG
break,html.Screen,4_23_1,2023-05-01T22:24:59.756Z,,0,,,NaN,,,,,,false,,,,238108.10000038147,238107.80000019073,,238107.10000038147,,238123.551,8,400,,,
break_continue,html.Screen,4_23_2,2023-05-01T22:24:59.756Z,,0,,,NaN,,,,,,false,,,,238108.60000038147,238108.39999961853,,238108.30000019073,,238123.551,8,400,,,
sequence,flow.Sequence,4_23,2023-05-01T22:24:59.756Z,,0,,,5034.746999618539,completion,,,,,false,,,,238108.80000019073,238108.39999961853,233057.085,233059.69999980927,233073.653,238123.551,8,400,,,
trial,html.Screen,4_24_0,2023-05-01T22:25:03.121Z,,0,1,,3349.749000190728,response,ISIC_1739667.JPG,,ISIC_0026089.JPG,ISIC_1739667.JPG,false,1,keypress(m),500,241473.39999961853,241473.30000019073,238106.907,238109,238123.551,241490.193,8,400,25,,ISIC_0026089.JPG
break,html.Screen,4_24_1,2023-05-01T22:25:03.122Z,,0,,,NaN,,,,,,false,,,,241474.10000038147,241473.89999961853,,241473.60000038147,,241490.193,8,400,,,
break_continue,html.Screen,4_24_2,2023-05-01T22:25:03.122Z,,0,,,NaN,,,,,,false,,,,241474.30000019073,241474.30000019073,,241474.10000038147,,241490.193,8,400,,,
sequence,flow.Sequence,4_24,2023-05-01T22:25:03.122Z,,0,,,3350.749000190728,completion,,,,,false,,,,241474.39999961853,241474.30000019073,238106.907,238109,238123.551,241490.193,8,400,,,
trial,html.Screen,4_25_0,2023-05-01T22:25:09.119Z,,0,1,,5980.807000000001,response,ISIC_0061606.JPG,,ISIC_0032160.JPG,ISIC_0032160.JPG,false,0,keypress(z),500,247471.39999961853,247471,241473.555,241474.5,241490.193,247494.646,8,400,26,,ISIC_0061606.JPG
break,html.Screen,4_25_1,2023-05-01T22:25:09.121Z,,0,,,NaN,,,,,,false,,,,247473.10000038147,247472.69999980927,,247471.80000019073,,247494.646,8,400,,,
break_continue,html.Screen,4_25_2,2023-05-01T22:25:09.121Z,,0,,,NaN,,,,,,false,,,,247473.89999961853,247473.60000038147,,247473.39999961853,,247494.646,8,400,,,
sequence,flow.Sequence,4_25,2023-05-01T22:25:09.122Z,,0,,,5983.40700038147,completion,,,,,false,,,,247474.19999980927,247473.60000038147,241473.555,241474.5,241490.193,247494.646,8,400,,,
trial,html.Screen,4_26_0,2023-05-01T22:25:13.147Z,,0,1,,4004.154000190727,response,ISIC_0062524.JPG,,ISIC_0063300.JPG,ISIC_0062524.JPG,false,1,keypress(m),500,251498.89999961853,251498.80000019073,247456.787,247474.39999961853,247494.646,251506.617,8,400,27,,ISIC_0063300.JPG
break,html.Screen,4_26_1,2023-05-01T22:25:13.148Z,,0,,,NaN,,,,,,false,,,,251499.5,251499.39999961853,,251499,,251506.617,8,400,,,
break_continue,html.Screen,4_26_2,2023-05-01T22:25:13.148Z,,0,,,NaN,,,,,,false,,,,251499.69999980927,251499.60000038147,,251499.5,,251506.617,8,400,,,
sequence,flow.Sequence,4_26,2023-05-01T22:25:13.148Z,,0,,,4004.954000381462,completion,,,,,false,,,,251499.69999980927,251499.60000038147,247456.787,247474.30000019073,247494.646,251506.617,8,400,,,
trial,html.Screen,4_27_0,2023-05-01T22:25:16.367Z,,0,1,,3211.3830000000016,response,ISIC_0919467.JPG,,ISIC_0026208.JPG,ISIC_0919467.JPG,false,1,keypress(m),500,254718.5,254718,251490.088,251499.80000019073,251506.617,254723.175,8,400,28,,ISIC_0026208.JPG
break,html.Screen,4_27_1,2023-05-01T22:25:16.368Z,,0,,,NaN,,,,,,false,,,,254720.10000038147,254719.69999980927,,254718.80000019073,,254723.175,8,400,,,
break_continue,html.Screen,4_27_2,2023-05-01T22:25:16.369Z,,0,,,NaN,,,,,,false,,,,254720.80000019073,254720.69999980927,,254720.30000019073,,254723.175,8,400,,,
sequence,flow.Sequence,4_27,2023-05-01T22:25:16.369Z,,0,,,3214.0829998092668,completion,,,,,false,,,,254721.10000038147,254720.69999980927,251490.088,251499.69999980927,251506.617,254723.175,8,400,,,
trial,html.Screen,4_28_0,2023-05-01T22:25:25.641Z,,0,1,,9269.425000381481,response,ISIC_7973296.JPG,,ISIC_0056228.JPG,ISIC_7973296.JPG,false,1,keypress(m),500,263993,263992.60000038147,254706.597,254721.30000019073,254723.175,264006.453,8,400,29,,ISIC_0056228.JPG
break,html.Screen,4_28_1,2023-05-01T22:25:25.643Z,,0,,,NaN,,,,,,false,,,,263994.5,263994.10000038147,,263993.30000019073,,264006.453,8,400,,,
break_continue,html.Screen,4_28_2,2023-05-01T22:25:25.643Z,,0,,,NaN,,,,,,false,,,,263995.19999980927,263995.10000038147,,263994.69999980927,,264006.453,8,400,,,
sequence,flow.Sequence,4_28,2023-05-01T22:25:25.644Z,,0,,,9271.925000381481,completion,,,,,false,,,,263995.60000038147,263995.10000038147,254706.597,254721.30000019073,254723.175,264006.453,8,400,,,
trial,html.Screen,4_29_0,2023-05-01T22:25:30.118Z,,0,1,,4463.446999618551,response,ISIC_9294799.JPG,,ISIC_2741857.JPG,ISIC_2741857.JPG,false,0,keypress(z),500,268470.10000038147,268469.89999961853,263989.751,263995.69999980927,264006.453,268472.868,8,400,30,,ISIC_9294799.JPG
break,html.Screen,4_29_1,2023-05-01T22:25:30.119Z,,0,,,NaN,,,,,,false,,,,268470.60000038147,268470.39999961853,,268470.10000038147,,268472.868,8,400,,,
break_continue,html.Screen,4_29_2,2023-05-01T22:25:30.119Z,,0,,,NaN,,,,,,false,,,,268471,268470.89999961853,,268470.80000019073,,268472.868,8,400,,,
sequence,flow.Sequence,4_29,2023-05-01T22:25:30.119Z,,0,,,4464.446999618551,completion,,,,,false,,,,268471.10000038147,268470.89999961853,263989.751,263995.69999980927,264006.453,268472.868,8,400,,,
trial,html.Screen,4_30_0,2023-05-01T22:25:33.561Z,,0,1,,3439.5319996185135,response,ISIC_0056572.JPG,,ISIC_2124213.JPG,ISIC_2124213.JPG,false,0,keypress(z),500,271912.69999980927,271912.39999961853,268456.395,268471.10000038147,268472.868,271922.886,8,400,31,,ISIC_0056572.JPG
break,html.Screen,4_30_1,2023-05-01T22:25:33.562Z,,0,,,NaN,,,,,,false,,,,271913.89999961853,271913.60000038147,,271913,,271922.886,8,400,,,
break_continue,html.Screen,4_30_2,2023-05-01T22:25:33.563Z,,0,,,NaN,,,,,,false,,,,271914.39999961853,271914.30000019073,,271914.10000038147,,271922.886,8,400,,,
sequence,flow.Sequence,4_30,2023-05-01T22:25:33.563Z,,0,,,3441.432000190718,completion,,,,,false,,,,271914.60000038147,271914.30000019073,268456.395,268471.10000038147,268472.868,271922.886,8,400,,,
trial,html.Screen,4_31_0,2023-05-01T22:25:39.841Z,,0,1,,6269.8139998092665,response,ISIC_0031501.JPG,,ISIC_0067804.JPG,ISIC_0031501.JPG,false,1,keypress(m),500,278193.10000038147,278192.69999980927,271906.414,271914.80000019073,271922.886,278206.118,8,400,32,,ISIC_0067804.JPG
break,html.Screen,4_31_1,2023-05-01T22:25:39.843Z,,0,,,NaN,,,,,,false,,,,278194.69999980927,278194.19999980927,,278193.39999961853,,278206.118,8,400,,,
break_continue,html.Screen,4_31_2,2023-05-01T22:25:39.843Z,,0,,,NaN,,,,,,false,,,,278195.39999961853,278195.19999980927,,278194.89999961853,,278206.118,8,400,,,
sequence,flow.Sequence,4_31,2023-05-01T22:25:39.844Z,,0,,,6272.3139998092665,completion,,,,,false,,,,278195.69999980927,278195.19999980927,271906.414,271914.69999980927,271922.886,278206.118,8,400,,,
trial,html.Screen,4_32_0,2023-05-01T22:25:43.653Z,,0,1,,3798.8819999999832,response,ISIC_0009913.JPG,,ISIC_0031561.JPG,ISIC_0031561.JPG,false,0,keypress(z),500,282005.19999980927,282005,278189.461,278195.89999961853,278206.118,282023.629,8,400,33,,ISIC_0009913.JPG
break,html.Screen,4_32_1,2023-05-01T22:25:43.654Z,,0,,,NaN,,,,,,false,,,,282005.80000019073,282005.60000038147,,282005.30000019073,,282023.629,8,400,,,
break_continue,html.Screen,4_32_2,2023-05-01T22:25:43.654Z,,0,,,NaN,,,,,,false,,,,282006,282006,,282005.80000019073,,282023.629,8,400,,,
sequence,flow.Sequence,4_32,2023-05-01T22:25:43.654Z,,0,,,3799.8819999999832,completion,,,,,false,,,,282006.10000038147,282006,278189.461,278195.80000019073,278206.118,282023.629,8,400,,,
trial,html.Screen,4_33_0,2023-05-01T22:25:49.072Z,,0,1,,5400.07099980925,response,ISIC_7633960.JPG,,ISIC_8165906.JPG,ISIC_8165906.JPG,false,0,keypress(z),500,287424,287423.69999980927,281989.449,282006.19999980927,282023.629,287439.366,8,400,34,,ISIC_7633960.JPG
break,html.Screen,4_33_1,2023-05-01T22:25:49.074Z,,0,,,NaN,,,,,,false,,,,287425.69999980927,287425.30000019073,,287424.30000019073,,287439.366,8,400,,,
break_continue,html.Screen,4_33_2,2023-05-01T22:25:49.075Z,,0,,,NaN,,,,,,false,,,,287426.5,287426.30000019073,,287425.89999961853,,287439.366,8,400,,,
sequence,flow.Sequence,4_33,2023-05-01T22:25:49.075Z,,0,,,5402.6710001907195,completion,,,,,false,,,,287426.80000019073,287426.30000019073,281989.449,282006.19999980927,282023.629,287439.366,8,400,,,
trial,html.Screen,4_34_0,2023-05-01T22:25:57.139Z,,0,1,,8051.434000190755,response,ISIC_0331124.JPG,,ISIC_5309572.JPG,ISIC_5309572.JPG,false,0,keypress(z),500,295490.89999961853,295490.80000019073,287422.771,287427,287439.366,295505.85,8,400,35,,ISIC_0331124.JPG
break,html.Screen,4_34_1,2023-05-01T22:25:57.139Z,,0,,,NaN,,,,,,false,,,,295491.39999961853,295491.30000019073,,295491,,295505.85,8,400,,,
break_continue,html.Screen,4_34_2,2023-05-01T22:25:57.140Z,,0,,,NaN,,,,,,false,,,,295491.5,295491.5,,295491.5,,295505.85,8,400,,,
sequence,flow.Sequence,4_34,2023-05-01T22:25:57.140Z,,0,,,8052.13400000002,completion,,,,,false,,,,295491.69999980927,295491.5,287422.771,287427,287439.366,295505.85,8,400,,,
trial,html.Screen,4_35_0,2023-05-01T22:26:00.139Z,,0,1,,2984.250000381493,response,ISIC_1869829.JPG,,ISIC_0009908.JPG,ISIC_1869829.JPG,false,1,keypress(m),500,298490.39999961853,298490.10000038147,295489.101,295491.69999980927,295505.85,298505.796,8,400,36,,ISIC_0009908.JPG
break,html.Screen,4_35_1,2023-05-01T22:26:00.140Z,,0,,,NaN,,,,,,false,,,,298492.19999980927,298491.80000019073,,298490.80000019073,,298505.796,8,400,,,
break_continue,html.Screen,4_35_2,2023-05-01T22:26:00.141Z,,0,,,NaN,,,,,,false,,,,298492.89999961853,298492.80000019073,,298492.39999961853,,298505.796,8,400,,,
sequence,flow.Sequence,4_35,2023-05-01T22:26:00.141Z,,0,,,2986.950000190758,completion,,,,,false,,,,298493.30000019073,298492.80000019073,295489.101,295491.69999980927,295505.85,298505.796,8,400,,,
trial,html.Screen,4_36_0,2023-05-01T22:26:03.186Z,,0,1,,3031.3040003814967,response,ISIC_0057192.JPG,,ISIC_8382969.JPG,ISIC_8382969.JPG,false,0,keypress(z),500,301537.5,301537.10000038147,298489.162,298493.5,298505.796,301560.503,8,400,37,,ISIC_0057192.JPG
break,html.Screen,4_36_1,2023-05-01T22:26:03.187Z,,0,,,NaN,,,,,,false,,,,301539.10000038147,301538.60000038147,,301537.89999961853,,301560.503,8,400,,,
break_continue,html.Screen,4_36_2,2023-05-01T22:26:03.188Z,,0,,,NaN,,,,,,false,,,,301539.80000019073,301539.60000038147,,301539.30000019073,,301560.503,8,400,,,
sequence,flow.Sequence,4_36,2023-05-01T22:26:03.188Z,,0,,,3033.8040003814967,completion,,,,,false,,,,301540.10000038147,301539.60000038147,298489.162,298493.39999961853,298505.796,301560.503,8,400,,,
trial,html.Screen,4_37_0,2023-05-01T22:26:07.544Z,,0,1,,4335.297000190709,response,ISIC_0032954.JPG,,ISIC_0053686.JPG,ISIC_0032954.JPG,false,1,keypress(m),500,305896.10000038147,305895.80000019073,301522.414,301540.39999961853,301560.503,305905.61,8,400,38,,ISIC_0053686.JPG
break,html.Screen,4_37_1,2023-05-01T22:26:07.546Z,,0,,,NaN,,,,,,false,,,,305897.69999980927,305897.19999980927,,305896.39999961853,,305905.61,8,400,,,
break_continue,html.Screen,4_37_2,2023-05-01T22:26:07.547Z,,0,,,NaN,,,,,,false,,,,305898.5,305898.19999980927,,305898,,305905.61,8,400,,,
sequence,flow.Sequence,4_37,2023-05-01T22:26:07.547Z,,0,,,4337.696999809239,completion,,,,,false,,,,305898.80000019073,305898.19999980927,301522.414,301540.30000019073,301560.503,305905.61,8,400,,,
trial,html.Screen,4_38_0,2023-05-01T22:26:11.853Z,,0,1,,4299.190000190749,response,ISIC_0533930.JPG,,ISIC_0004075.JPG,ISIC_0533930.JPG,false,1,keypress(m),500,310205.19999980927,310204.80000019073,305889.12,305899,305905.61,310222.272,8,400,39,,ISIC_0004075.JPG
break,html.Screen,4_38_1,2023-05-01T22:26:11.855Z,,0,,,NaN,,,,,,false,,,,310206.69999980927,310206.39999961853,,310205.5,,310222.272,8,400,,,
break_continue,html.Screen,4_38_2,2023-05-01T22:26:11.856Z,,0,,,NaN,,,,,,false,,,,310207.5,310207.30000019073,,310207,,310222.272,8,400,,,
sequence,flow.Sequence,4_38,2023-05-01T22:26:11.856Z,,0,,,4301.690000190749,completion,,,,,false,,,,310207.80000019073,310207.30000019073,305889.12,305898.89999961853,305905.61,310222.272,8,400,,,
trial,html.Screen,4_39_0,2023-05-01T22:26:15.114Z,,0,1,,3243.427999809268,response,ISIC_0003333.JPG,,ISIC_0062575.JPG,ISIC_0003333.JPG,false,1,keypress(m),500,313466,313465.69999980927,310205.666,310208,310222.272,313472.129,8,400,40,,ISIC_0062575.JPG
break,html.Screen,4_39_1,2023-05-01T22:26:15.116Z,,0,,,NaN,,,,,,false,,,,313467.69999980927,313467.30000019073,,313466.39999961853,,313472.129,8,400,,,
break_continue,html.Screen,4_39_2,2023-05-01T22:26:15.117Z,,0,,,NaN,,,,,,false,,,,313468.5,313468.30000019073,,313467.80000019073,,313472.129,8,400,,,
sequence,flow.Sequence,4_39,2023-05-01T22:26:15.117Z,,0,,,3246.0280001907377,completion,,,,,false,,,,313468.80000019073,313468.30000019073,310205.666,310207.89999961853,310222.272,313472.129,8,400,,,
trial,html.Screen,4_40_0,2023-05-01T22:26:18.458Z,,0,1,,3337.6710001907195,response,ISIC_6668197.JPG,,ISIC_8866896.JPG,ISIC_8866896.JPG,false,0,keypress(z),500,316810.19999980927,316809.80000019073,313455.542,313469,313472.129,316822.049,8,400,41,,ISIC_6668197.JPG
break,html.Screen,4_40_1,2023-05-01T22:26:18.460Z,,0,,,NaN,,,,,,false,,,,316811.80000019073,316811.30000019073,,316810.5,,316822.049,8,400,,,
break_continue,html.Screen,4_40_2,2023-05-01T22:26:18.461Z,,0,,,NaN,,,,,,false,,,,316812.39999961853,316812.30000019073,,316812,,316822.049,8,400,,,
sequence,flow.Sequence,4_40,2023-05-01T22:26:18.461Z,,0,,,3340.1710001907195,completion,,,,,false,,,,316812.80000019073,316812.30000019073,313455.542,313468.89999961853,313472.129,316822.049,8,400,,,
trial,html.Screen,4_41_0,2023-05-01T22:26:21.152Z,,0,1,,2681.951000000001,response,ISIC_0034243.JPG,,ISIC_9008095.JPG,ISIC_0034243.JPG,false,1,keypress(m),500,319504,319504,316805.492,316813,316822.049,319523.552,8,400,42,,ISIC_9008095.JPG
break,html.Screen,4_41_1,2023-05-01T22:26:21.153Z,,0,,,NaN,,,,,,false,,,,319504.80000019073,319504.60000038147,,319504.19999980927,,319523.552,8,400,,,
break_continue,html.Screen,4_41_2,2023-05-01T22:26:21.153Z,,0,,,NaN,,,,,,false,,,,319505.10000038147,319505,,319504.89999961853,,319523.552,8,400,,,
sequence,flow.Sequence,4_41,2023-05-01T22:26:21.153Z,,0,,,2682.951000000001,completion,,,,,false,,,,319505.19999980927,319505,316805.492,316813,316822.049,319523.552,8,400,,,
trial,html.Screen,4_42_0,2023-05-01T22:26:24.256Z,,0,1,,3084.2480001907097,response,ISIC_6672654.JPG,,ISIC_6605122.JPG,ISIC_6672654.JPG,false,1,keypress(m),500,322608.10000038147,322607.80000019073,319488.821,319505.30000019073,319523.552,322621.964,8,400,43,,ISIC_6605122.JPG
break,html.Screen,4_42_1,2023-05-01T22:26:24.258Z,,0,,,NaN,,,,,,false,,,,322609.80000019073,322609.30000019073,,322608.39999961853,,322621.964,8,400,,,
break_continue,html.Screen,4_42_2,2023-05-01T22:26:24.259Z,,0,,,NaN,,,,,,false,,,,322610.60000038147,322610.30000019073,,322610,,322621.964,8,400,,,
sequence,flow.Sequence,4_42,2023-05-01T22:26:24.259Z,,0,,,3086.7480001907097,completion,,,,,false,,,,322610.89999961853,322610.30000019073,319488.821,319505.30000019073,319523.552,322621.964,8,400,,,
trial,html.Screen,4_43_0,2023-05-01T22:26:28.571Z,,0,1,,4300.235999809287,response,ISIC_0031621.JPG,,ISIC_8064866.JPG,ISIC_0031621.JPG,false,1,keypress(m),500,326922.30000019073,326922.19999980927,322605.444,322611.10000038147,322621.964,326938.606,8,400,44,,ISIC_8064866.JPG
break,html.Screen,4_43_1,2023-05-01T22:26:28.571Z,,0,,,NaN,,,,,,false,,,,326922.89999961853,326922.69999980927,,326922.39999961853,,326938.606,8,400,,,
break_continue,html.Screen,4_43_2,2023-05-01T22:26:28.571Z,,0,,,NaN,,,,,,false,,,,326923.10000038147,326923.10000038147,,326922.89999961853,,326938.606,8,400,,,
sequence,flow.Sequence,4_43,2023-05-01T22:26:28.571Z,,0,,,4301.136000381492,completion,,,,,false,,,,326923.19999980927,326923.10000038147,322605.444,322611,322621.964,326938.606,8,400,,,
trial,html.Screen,4_44_0,2023-05-01T22:26:31.910Z,,0,1,,3322.994000381441,response,ISIC_6991849.JPG,,ISIC_8692950.JPG,ISIC_8692950.JPG,false,0,keypress(z),500,330261.80000019073,330261.60000038147,326921.911,326923.30000019073,326938.606,330271.883,8,400,45,,ISIC_6991849.JPG
break,html.Screen,4_44_1,2023-05-01T22:26:31.911Z,,0,,,NaN,,,,,,false,,,,330262.39999961853,330262.19999980927,,330261.80000019073,,330271.883,8,400,,,
break_continue,html.Screen,4_44_2,2023-05-01T22:26:31.911Z,,0,,,NaN,,,,,,false,,,,330262.60000038147,330262.5,,330262.39999961853,,330271.883,8,400,,,
sequence,flow.Sequence,4_44,2023-05-01T22:26:31.911Z,,0,,,3323.893999999971,completion,,,,,false,,,,330262.69999980927,330262.5,326921.911,326923.30000019073,326938.606,330271.883,8,400,,,
trial,html.Screen,4_45_0,2023-05-01T22:26:35.353Z,,0,1,,3432.9170001907623,response,ISIC_9482039.JPG,,ISIC_0071947.JPG,ISIC_0071947.JPG,false,0,keypress(z),500,333705.19999980927,333704.80000019073,330255.271,330262.69999980927,330271.883,333721.766,8,400,46,,ISIC_9482039.JPG
break,html.Screen,4_45_1,2023-05-01T22:26:35.355Z,,0,,,NaN,,,,,,false,,,,333706.60000038147,333706.30000019073,,333705.39999961853,,333721.766,8,400,,,
break_continue,html.Screen,4_45_2,2023-05-01T22:26:35.356Z,,0,,,NaN,,,,,,false,,,,333707.39999961853,333707.19999980927,,333706.89999961853,,333721.766,8,400,,,
sequence,flow.Sequence,4_45,2023-05-01T22:26:35.356Z,,0,,,3435.3169998092926,completion,,,,,false,,,,333707.69999980927,333707.19999980927,330255.271,330262.69999980927,330271.883,333721.766,8,400,,,
trial,html.Screen,4_46_0,2023-05-01T22:26:39.658Z,,0,1,,4287.534000190732,response,ISIC_0063617.JPG,,ISIC_8036544.JPG,ISIC_8036544.JPG,false,0,keypress(z),500,338009.60000038147,338009.30000019073,333705.278,333708,333721.766,338021.717,8,400,47,,ISIC_0063617.JPG
break,html.Screen,4_46_1,2023-05-01T22:26:39.660Z,,0,,,NaN,,,,,,false,,,,338011.30000019073,338010.89999961853,,338009.89999961853,,338021.717,8,400,,,
break_continue,html.Screen,4_46_2,2023-05-01T22:26:39.660Z,,0,,,NaN,,,,,,false,,,,338012,338011.80000019073,,338011.5,,338021.717,8,400,,,
sequence,flow.Sequence,4_46,2023-05-01T22:26:39.661Z,,0,,,4290.034000190732,completion,,,,,false,,,,338012.30000019073,338011.80000019073,333705.278,333707.89999961853,333721.766,338021.717,8,400,,,
trial,html.Screen,4_47_0,2023-05-01T22:26:51.154Z,,0,1,,11516.474999999977,timeout,ISIC_7618133.JPG,,ISIC_0031463.JPG,,false,,,500,349505.80000019073,349505.5,338005.189,338012.5,338021.717,349538.192,8,400,48,,
break,html.Screen,4_47_1,2023-05-01T22:26:51.155Z,,0,,,NaN,,,,,,false,,,,349507.19999980927,349506.80000019073,,349506.10000038147,,349538.192,8,400,,,
break_continue,html.Screen,4_47_2,2023-05-01T22:26:51.156Z,,0,,,NaN,,,,,,false,,,,349507.89999961853,349507.69999980927,,349507.5,,349538.192,8,400,,,
sequence,flow.Sequence,4_47,2023-05-01T22:26:51.156Z,,0,,,11485.982999809261,completion,,,,,false,,,,349508.30000019073,349507.69999980927,338005.189,338012.39999961853,338021.717,349538.192,8,400,,,
trial,html.Screen,4_48_0,2023-05-01T22:26:56.094Z,,0,1,,4907.608000190754,response,ISIC_2746860.JPG,,ISIC_0034100.JPG,ISIC_2746860.JPG,false,1,keypress(m),500,354446.10000038147,354445.80000019073,349521.454,349508.5,349538.192,354471.398,8,400,49,,ISIC_0034100.JPG
break,html.Screen,4_48_1,2023-05-01T22:26:56.096Z,,0,,,NaN,,,,,,false,,,,354447.89999961853,354447.5,,354446.60000038147,,354471.398,8,400,,,
break_continue,html.Screen,4_48_2,2023-05-01T22:26:56.097Z,,0,,,NaN,,,,,,false,,,,354448.69999980927,354448.5,,354448.10000038147,,354471.398,8,400,,,
sequence,flow.Sequence,4_48,2023-05-01T22:26:56.097Z,,0,,,4910.308000000019,completion,,,,,false,,,,354449,354448.5,349521.454,349508.39999961853,349538.192,354471.398,8,400,,,
trial,html.Screen,4_49_0,2023-05-01T22:26:59.336Z,,0,1,,3216.1020000000135,response,ISIC_0061705.JPG,,ISIC_0024385.JPG,ISIC_0061705.JPG,false,1,keypress(m),500,357688,357687.5,354454.762,354449.30000019073,354471.398,357704.733,8,400,50,,ISIC_0024385.JPG
break,html.Screen,4_49_1,2023-05-01T22:27:04.337Z,,0,,,4999.831000000006,timeout,,,,,false,,,,362689,362687.976,357688.002,357688.19999980927,357704.733,362704.564,8,400,,,
break_continue,html.Screen,4_49_2,2023-05-01T22:27:05.880Z,,0,,,1523.0360003814567,response,,,,,false,continue,keypress(Space),,364232.10000038147,364227.60000038147,362687.976,362689.19999980927,362704.564,364237.813,8,400,,,
sequence,flow.Sequence,4_49,2023-05-01T22:27:05.880Z,,0,,,9756.202000381483,completion,,,,,false,,,,364232.19999980927,364227.60000038147,354454.762,354449.19999980927,354471.398,364237.813,8,400,,,
trial,html.Screen,4_50_0,2023-05-01T22:27:09.114Z,,0,2,,3227.987000190711,response,ISIC_0032134.JPG,,ISIC_7409889.JPG,ISIC_7409889.JPG,false,0,keypress(z),500,367466.19999980927,367465.80000019073,364221.114,364232.19999980927,364237.813,367471.135,8,400,1,,ISIC_0032134.JPG
break,html.Screen,4_50_1,2023-05-01T22:27:09.116Z,,0,,,NaN,,,,,,false,,,,367468,367467.5,,367466.69999980927,,367471.135,8,400,,,
break_continue,html.Screen,4_50_2,2023-05-01T22:27:09.117Z,,0,,,NaN,,,,,,false,,,,367468.80000019073,367468.5,,367468.19999980927,,367471.135,8,400,,,
sequence,flow.Sequence,4_50,2023-05-01T22:27:09.117Z,,0,,,3230.6869999999763,completion,,,,,false,,,,367469.10000038147,367468.5,364221.114,364232.19999980927,364237.813,367471.135,8,400,,,
trial,html.Screen,4_51_0,2023-05-01T22:27:11.678Z,,0,2,,2557.9650003814604,response,ISIC_0056309.JPG,,ISIC_6443700.JPG,ISIC_6443700.JPG,false,0,keypress(z),500,370029.39999961853,370029.10000038147,367454.499,367469.19999980927,367471.135,370037.721,8,400,2,,ISIC_0056309.JPG
break,html.Screen,4_51_1,2023-05-01T22:27:11.679Z,,0,,,NaN,,,,,,false,,,,370031.19999980927,370030.69999980927,,370029.69999980927,,370037.721,8,400,,,
break_continue,html.Screen,4_51_2,2023-05-01T22:27:11.680Z,,0,,,NaN,,,,,,false,,,,370031.89999961853,370031.69999980927,,370031.39999961853,,370037.721,8,400,,,
sequence,flow.Sequence,4_51,2023-05-01T22:27:11.680Z,,0,,,2560.564999809256,completion,,,,,false,,,,370032.19999980927,370031.69999980927,367454.499,367469.19999980927,367471.135,370037.721,8,400,,,
trial,html.Screen,4_52_0,2023-05-01T22:27:14.681Z,,0,2,,2995.37900038145,response,ISIC_5588968.JPG,,ISIC_0011092.JPG,ISIC_5588968.JPG,false,1,keypress(m),500,373033.5,373033.10000038147,370021.166,370032.5,370037.721,373037.695,8,400,3,,ISIC_0011092.JPG
break,html.Screen,4_52_1,2023-05-01T22:27:14.683Z,,0,,,NaN,,,,,,false,,,,373035.10000038147,373034.69999980927,,373033.80000019073,,373037.695,8,400,,,
break_continue,html.Screen,4_52_2,2023-05-01T22:27:14.684Z,,0,,,NaN,,,,,,false,,,,373035.80000019073,373035.60000038147,,373035.30000019073,,373037.695,8,400,,,
sequence,flow.Sequence,4_52,2023-05-01T22:27:14.684Z,,0,,,2997.87900038145,completion,,,,,false,,,,373036.10000038147,373035.60000038147,370021.166,370032.39999961853,370037.721,373037.695,8,400,,,
trial,html.Screen,4_53_0,2023-05-01T22:27:17.423Z,,0,2,,2736.7049996185233,response,ISIC_6692344.JPG,,ISIC_0062318.JPG,ISIC_6692344.JPG,false,1,keypress(m),500,375774.89999961853,375774.39999961853,373021.07,373036.30000019073,373037.695,375787.625,8,400,4,,ISIC_0062318.JPG
break,html.Screen,4_53_1,2023-05-01T22:27:17.424Z,,0,,,NaN,,,,,,false,,,,375776.39999961853,375776,,375775.19999980927,,375787.625,8,400,,,
break_continue,html.Screen,4_53_2,2023-05-01T22:27:17.425Z,,0,,,NaN,,,,,,false,,,,375777.19999980927,375776.89999961853,,375776.60000038147,,375787.625,8,400,,,
sequence,flow.Sequence,4_53,2023-05-01T22:27:17.425Z,,0,,,2739.2049996185233,completion,,,,,false,,,,375777.39999961853,375776.89999961853,373021.07,373036.30000019073,373037.695,375787.625,8,400,,,
trial,html.Screen,4_54_0,2023-05-01T22:27:20.261Z,,0,2,,2825.074999809265,response,ISIC_0765584.JPG,,ISIC_4062017.JPG,ISIC_0765584.JPG,false,1,keypress(m),500,378612.89999961853,378612.69999980927,375770.998,375777.69999980927,375787.625,378620.92,8,400,5,,ISIC_4062017.JPG
break,html.Screen,4_54_1,2023-05-01T22:27:20.262Z,,0,,,NaN,,,,,,false,,,,378613.69999980927,378613.5,,378613.10000038147,,378620.92,8,400,,,
break_continue,html.Screen,4_54_2,2023-05-01T22:27:20.262Z,,0,,,NaN,,,,,,false,,,,378614,378614,,378613.80000019073,,378620.92,8,400,,,
sequence,flow.Sequence,4_54,2023-05-01T22:27:20.262Z,,0,,,2826.375,completion,,,,,false,,,,378614.19999980927,378614,375770.998,375777.60000038147,375787.625,378620.92,8,400,,,
trial,html.Screen,4_55_0,2023-05-01T22:27:22.814Z,,0,2,,2544.5800000000163,response,ISIC_0060403.JPG,,ISIC_9204678.JPG,ISIC_9204678.JPG,false,0,keypress(z),500,381166,381165.5,378604.264,378614.30000019073,378620.92,381170.858,8,400,6,,ISIC_0060403.JPG
break,html.Screen,4_55_1,2023-05-01T22:27:22.816Z,,0,,,NaN,,,,,,false,,,,381167.5,381167.10000038147,,381166.30000019073,,381170.858,8,400,,,
break_continue,html.Screen,4_55_2,2023-05-01T22:27:22.816Z,,0,,,NaN,,,,,,false,,,,381168.30000019073,381168.10000038147,,381167.69999980927,,381170.858,8,400,,,
sequence,flow.Sequence,4_55,2023-05-01T22:27:22.817Z,,0,,,2547.180000381486,completion,,,,,false,,,,381168.69999980927,381168.10000038147,378604.264,378614.30000019073,378620.92,381170.858,8,400,,,
trial,html.Screen,4_56_0,2023-05-01T22:27:25.379Z,,0,2,,2560.041999618523,response,ISIC_9317483.JPG,,ISIC_0010587.JPG,ISIC_0010587.JPG,false,0,keypress(z),500,383731.19999980927,383730.89999961853,381154.189,381169.10000038147,381170.858,383737.509,8,400,7,,ISIC_9317483.JPG
break,html.Screen,4_56_1,2023-05-01T22:27:25.381Z,,0,,,NaN,,,,,,false,,,,383733.19999980927,383732.60000038147,,383731.5,,383737.509,8,400,,,
break_continue,html.Screen,4_56_2,2023-05-01T22:27:25.382Z,,0,,,NaN,,,,,,false,,,,383734,383733.69999980927,,383733.39999961853,,383737.509,8,400,,,
sequence,flow.Sequence,4_56,2023-05-01T22:27:25.382Z,,0,,,2562.8419998092577,completion,,,,,false,,,,383734.30000019073,383733.69999980927,381154.189,381169.10000038147,381170.858,383737.509,8,400,,,
trial,html.Screen,4_57_0,2023-05-01T22:27:28.038Z,,0,2,,2651.99099999998,response,ISIC_0011612.JPG,,ISIC_0056309.JPG,ISIC_0011612.JPG,false,1,keypress(m),500,386389.89999961853,386389.5,383720.839,383734.39999961853,383737.509,386404.109,8,400,8,,ISIC_0056309.JPG
break,html.Screen,4_57_1,2023-05-01T22:27:28.040Z,,0,,,NaN,,,,,,false,,,,386391.60000038147,386391.19999980927,,386390.30000019073,,386404.109,8,400,,,
break_continue,html.Screen,4_57_2,2023-05-01T22:27:28.040Z,,0,,,NaN,,,,,,false,,,,386392.39999961853,386392.10000038147,,386391.89999961853,,386404.109,8,400,,,
sequence,flow.Sequence,4_57,2023-05-01T22:27:28.041Z,,0,,,2654.5910003814497,completion,,,,,false,,,,386392.69999980927,386392.10000038147,383720.839,383734.30000019073,383737.509,386404.109,8,400,,,
trial,html.Screen,4_58_0,2023-05-01T22:27:30.765Z,,0,2,,2713.2909996185335,response,ISIC_9001948.JPG,,ISIC_2904474.JPG,ISIC_9001948.JPG,false,1,keypress(m),500,389117.5,389117.39999961853,386387.484,386393,386404.109,389120.659,8,400,9,,ISIC_2904474.JPG
break,html.Screen,4_58_1,2023-05-01T22:27:30.766Z,,0,,,NaN,,,,,,false,,,,389118.10000038147,389117.89999961853,,389117.69999980927,,389120.659,8,400,,,
break_continue,html.Screen,4_58_2,2023-05-01T22:27:30.766Z,,0,,,NaN,,,,,,false,,,,389118.39999961853,389118.30000019073,,389118.19999980927,,389120.659,8,400,,,
sequence,flow.Sequence,4_58,2023-05-01T22:27:30.766Z,,0,,,2714.191000190738,completion,,,,,false,,,,389118.5,389118.30000019073,386387.484,386392.89999961853,386404.109,389120.659,8,400,,,
trial,html.Screen,4_59_0,2023-05-01T22:27:33.354Z,,0,2,,2584.841000000015,response,ISIC_0011700.JPG,,ISIC_0065714.JPG,ISIC_0065714.JPG,false,0,keypress(z),500,391706,391705.5,389104.078,389118.5,389120.659,391720.744,8,400,10,,ISIC_0011700.JPG
break,html.Screen,4_59_1,2023-05-01T22:27:33.356Z,,0,,,NaN,,,,,,false,,,,391707.89999961853,391707.5,,391706.5,,391720.744,8,400,,,
break_continue,html.Screen,4_59_2,2023-05-01T22:27:33.357Z,,0,,,NaN,,,,,,false,,,,391708.69999980927,391708.5,,391708.10000038147,,391720.744,8,400,,,
sequence,flow.Sequence,4_59,2023-05-01T22:27:33.357Z,,0,,,2587.841000000015,completion,,,,,false,,,,391709,391708.5,389104.078,389118.5,389120.659,391720.744,8,400,,,
trial,html.Screen,4_60_0,2023-05-01T22:27:36.356Z,,0,2,,2986.755999999994,response,ISIC_0000513.JPG,,ISIC_9631669.JPG,ISIC_0000513.JPG,false,1,keypress(m),500,394707.89999961853,394707.5,391704.034,391709.30000019073,391720.744,394720.629,8,400,11,,ISIC_9631669.JPG
break,html.Screen,4_60_1,2023-05-01T22:27:36.358Z,,0,,,NaN,,,,,,false,,,,394709.5,394709.10000038147,,394708.19999980927,,394720.629,8,400,,,
break_continue,html.Screen,4_60_2,2023-05-01T22:27:36.358Z,,0,,,NaN,,,,,,false,,,,394710.39999961853,394710.10000038147,,394709.80000019073,,394720.629,8,400,,,
sequence,flow.Sequence,4_60,2023-05-01T22:27:36.359Z,,0,,,2989.3560003814637,completion,,,,,false,,,,394710.69999980927,394710.10000038147,391704.034,391709.10000038147,391720.744,394720.629,8,400,,,
trial,html.Screen,4_61_0,2023-05-01T22:27:39.934Z,,0,2,,3565.270999618515,response,ISIC_0030910.JPG,,ISIC_0013861.JPG,ISIC_0030910.JPG,false,1,keypress(m),500,398286.19999980927,398285.89999961853,394703.998,394711,394720.629,398320.644,8,400,12,,ISIC_0013861.JPG
break,html.Screen,4_61_1,2023-05-01T22:27:39.936Z,,0,,,NaN,,,,,,false,,,,398287.80000019073,398287.39999961853,,398286.60000038147,,398320.644,8,400,,,
break_continue,html.Screen,4_61_2,2023-05-01T22:27:39.937Z,,0,,,NaN,,,,,,false,,,,398288.60000038147,398288.39999961853,,398288,,398320.644,8,400,,,
sequence,flow.Sequence,4_61,2023-05-01T22:27:39.937Z,,0,,,3567.770999618515,completion,,,,,false,,,,398289,398288.39999961853,394703.998,394710.89999961853,394720.629,398320.644,8,400,,,
trial,html.Screen,4_62_0,2023-05-01T22:27:42.814Z,,0,2,,2845.055999809294,response,ISIC_0069638.JPG,,ISIC_0032774.JPG,ISIC_0032774.JPG,false,0,keypress(z),500,401165.69999980927,401165.69999980927,398303.934,398289.30000019073,398320.644,401170.41,8,400,13,,ISIC_0069638.JPG
break,html.Screen,4_62_1,2023-05-01T22:27:42.814Z,,0,,,NaN,,,,,,false,,,,401166.19999980927,401166.10000038147,,401165.80000019073,,401170.41,8,400,,,
break_continue,html.Screen,4_62_2,2023-05-01T22:27:42.814Z,,0,,,NaN,,,,,,false,,,,401166.5,401166.5,,401166.30000019073,,401170.41,8,400,,,
sequence,flow.Sequence,4_62,2023-05-01T22:27:42.815Z,,0,,,2845.856000000029,completion,,,,,false,,,,401166.60000038147,401166.5,398303.934,398289.19999980927,398320.644,401170.41,8,400,,,
trial,html.Screen,4_63_0,2023-05-01T22:27:45.972Z,,0,2,,3153.3900001907605,response,ISIC_0026812.JPG,,ISIC_0002162.JPG,ISIC_0002162.JPG,false,0,keypress(z),500,404324,404323.80000019073,401153.877,401166.60000038147,401170.41,404337.027,8,400,14,,ISIC_0026812.JPG
break,html.Screen,4_63_1,2023-05-01T22:27:45.972Z,,0,,,NaN,,,,,,false,,,,404324.5,404324.30000019073,,404324.10000038147,,404337.027,8,400,,,
break_continue,html.Screen,4_63_2,2023-05-01T22:27:45.973Z,,0,,,NaN,,,,,,false,,,,404324.60000038147,404324.5,,404324.5,,404337.027,8,400,,,
sequence,flow.Sequence,4_63,2023-05-01T22:27:45.973Z,,0,,,3154.0900000000256,completion,,,,,false,,,,404324.60000038147,404324.5,401153.877,401166.60000038147,401170.41,404337.027,8,400,,,
trial,html.Screen,4_64_0,2023-05-01T22:27:57.469Z,,0,2,,11516.61499999999,timeout,ISIC_0071957.JPG,,ISIC_0032531.JPG,,false,,,500,415821.30000019073,415821,404320.405,404324.69999980927,404337.027,415853.642,8,400,15,,
break,html.Screen,4_64_1,2023-05-01T22:27:57.471Z,,0,,,NaN,,,,,,false,,,,415822.80000019073,415822.30000019073,,415821.60000038147,,415853.642,8,400,,,
break_continue,html.Screen,4_64_2,2023-05-01T22:27:57.472Z,,0,,,NaN,,,,,,false,,,,415823.69999980927,415823.5,,415823.10000038147,,415853.642,8,400,,,
sequence,flow.Sequence,4_64,2023-05-01T22:27:57.472Z,,0,,,11486.472999999998,completion,,,,,false,,,,415824,415823.5,404320.405,404324.69999980927,404337.027,415853.642,8,400,,,
trial,html.Screen,4_65_0,2023-05-01T22:28:04.114Z,,0,2,,6612.658000190742,response,ISIC_9542544.JPG,,ISIC_8592235.JPG,ISIC_8592235.JPG,false,0,keypress(z),500,422466.5,422466.30000019073,415836.887,415824.19999980927,415853.642,422470.07,8,400,16,,ISIC_9542544.JPG
break,html.Screen,4_65_1,2023-05-01T22:28:04.115Z,,0,,,NaN,,,,,,false,,,,422466.89999961853,422466.89999961853,,422466.5,,422470.07,8,400,,,
break_continue,html.Screen,4_65_2,2023-05-01T22:28:04.115Z,,0,,,NaN,,,,,,false,,,,422467.19999980927,422467.19999980927,,422467,,422470.07,8,400,,,
sequence,flow.Sequence,4_65,2023-05-01T22:28:04.115Z,,0,,,6613.557999809273,completion,,,,,false,,,,422467.30000019073,422467.19999980927,415836.887,415824.19999980927,415853.642,422470.07,8,400,,,
trial,html.Screen,4_66_0,2023-05-01T22:28:14.359Z,,0,2,,10240.730000190728,response,ISIC_0009940.JPG,,ISIC_0032233.JPG,ISIC_0032233.JPG,false,0,keypress(z),500,432711.19999980927,432710.80000019073,422453.516,422467.30000019073,422470.07,432719.947,8,400,17,,ISIC_0009940.JPG
break,html.Screen,4_66_1,2023-05-01T22:28:14.360Z,,0,,,NaN,,,,,,false,,,,432712.69999980927,432712.30000019073,,432711.5,,432719.947,8,400,,,
break_continue,html.Screen,4_66_2,2023-05-01T22:28:14.361Z,,0,,,NaN,,,,,,false,,,,432713.39999961853,432713.19999980927,,432712.89999961853,,432719.947,8,400,,,
sequence,flow.Sequence,4_66,2023-05-01T22:28:14.361Z,,0,,,10243.129999809258,completion,,,,,false,,,,432713.80000019073,432713.19999980927,422453.516,422467.30000019073,422470.07,432719.947,8,400,,,
trial,html.Screen,4_67_0,2023-05-01T22:28:18.239Z,,0,2,,3870.8530001907493,response,ISIC_0013588.JPG,,ISIC_0067390.JPG,ISIC_0067390.JPG,false,0,keypress(z),500,436591.19999980927,436590.80000019073,432703.299,432713.89999961853,432719.947,436603.19,8,400,18,,ISIC_0013588.JPG
break,html.Screen,4_67_1,2023-05-01T22:28:18.240Z,,0,,,NaN,,,,,,false,,,,436592.69999980927,436592.30000019073,,436591.5,,436603.19,8,400,,,
break_continue,html.Screen,4_67_2,2023-05-01T22:28:18.241Z,,0,,,NaN,,,,,,false,,,,436593.5,436593.19999980927,,436592.89999961853,,436603.19,8,400,,,
sequence,flow.Sequence,4_67,2023-05-01T22:28:18.241Z,,0,,,3873.2529998092796,completion,,,,,false,,,,436593.80000019073,436593.19999980927,432703.299,432713.89999961853,432719.947,436603.19,8,400,,,
trial,html.Screen,4_68_0,2023-05-01T22:28:21.612Z,,0,2,,3360.4100003814674,response,ISIC_0579562.JPG,,ISIC_2430137.JPG,ISIC_2430137.JPG,false,0,keypress(z),500,439963.80000019073,439963.60000038147,436586.453,436594,436603.19,439969.789,8,400,19,,ISIC_0579562.JPG
break,html.Screen,4_68_1,2023-05-01T22:28:21.612Z,,0,,,NaN,,,,,,false,,,,439964.69999980927,439964.5,,439964,,439969.789,8,400,,,
break_continue,html.Screen,4_68_2,2023-05-01T22:28:21.613Z,,0,,,NaN,,,,,,false,,,,439965.19999980927,439965,,439964.80000019073,,439969.789,8,400,,,
sequence,flow.Sequence,4_68,2023-05-01T22:28:21.613Z,,0,,,3361.8099999999977,completion,,,,,false,,,,439965.30000019073,439965,436586.453,436593.89999961853,436603.19,439969.789,8,400,,,
trial,html.Screen,4_69_0,2023-05-01T22:28:26.850Z,,0,2,,5231.910999809275,response,ISIC_8021960.JPG,,ISIC_0409276.JPG,ISIC_0409276.JPG,false,0,keypress(z),500,445201.89999961853,445201.69999980927,439953.128,439965.39999961853,439969.789,445233.993,8,400,20,,ISIC_8021960.JPG
break,html.Screen,4_69_1,2023-05-01T22:28:26.850Z,,0,,,NaN,,,,,,false,,,,445202.80000019073,445202.5,,445202,,445233.993,8,400,,,
break_continue,html.Screen,4_69_2,2023-05-01T22:28:26.851Z,,0,,,NaN,,,,,,false,,,,445203.19999980927,445203,,445202.80000019073,,445233.993,8,400,,,
sequence,flow.Sequence,4_69,2023-05-01T22:28:26.851Z,,0,,,5233.21100000001,completion,,,,,false,,,,445203.30000019073,445203,439953.128,439965.39999961853,439969.789,445233.993,8,400,,,
trial,html.Screen,4_70_0,2023-05-01T22:28:31.167Z,,0,2,,4284.9069996185135,response,ISIC_0059303.JPG,,ISIC_8296881.JPG,ISIC_8296881.JPG,false,0,keypress(z),500,449519.30000019073,449518.89999961853,445186.376,445203.39999961853,445233.993,449536.287,8,400,21,,ISIC_0059303.JPG
break,html.Screen,4_70_1,2023-05-01T22:28:31.168Z,,0,,,NaN,,,,,,false,,,,449520.69999980927,449520.39999961853,,449519.5,,449536.287,8,400,,,
break_continue,html.Screen,4_70_2,2023-05-01T22:28:31.169Z,,0,,,NaN,,,,,,false,,,,449521.5,449521.30000019073,,449521,,449536.287,8,400,,,
sequence,flow.Sequence,4_70,2023-05-01T22:28:31.169Z,,0,,,4287.307000190718,completion,,,,,false,,,,449521.80000019073,449521.30000019073,445186.376,445203.39999961853,445233.993,449536.287,8,400,,,
trial,html.Screen,4_71_0,2023-05-01T22:28:42.668Z,,0,2,,11516.467000000004,timeout,ISIC_6036959.JPG,,ISIC_0014347.JPG,,false,,,500,461020.39999961853,461020.10000038147,449519.653,449522,449536.287,461052.754,8,400,22,,
break,html.Screen,4_71_1,2023-05-01T22:28:42.670Z,,0,,,NaN,,,,,,false,,,,461021.80000019073,461021.39999961853,,461020.69999980927,,461052.754,8,400,,,
break_continue,html.Screen,4_71_2,2023-05-01T22:28:42.670Z,,0,,,NaN,,,,,,false,,,,461022.60000038147,461022.39999961853,,461022,,461052.754,8,400,,,
sequence,flow.Sequence,4_71,2023-05-01T22:28:42.671Z,,0,,,11486.11299961852,completion,,,,,false,,,,461022.89999961853,461022.39999961853,449519.653,449521.89999961853,449536.287,461052.754,8,400,,,
trial,html.Screen,4_72_0,2023-05-01T22:28:54.185Z,,0,2,,11516.497999999963,timeout,ISIC_0008055.JPG,,ISIC_9066201.JPG,,false,,,500,472536.89999961853,472536.5,461036.081,461023.10000038147,461052.754,472569.252,8,400,23,,
break,html.Screen,4_72_1,2023-05-01T22:28:54.186Z,,0,,,NaN,,,,,,false,,,,472538.19999980927,472537.89999961853,,472537.10000038147,,472569.252,8,400,,,
break_continue,html.Screen,4_72_2,2023-05-01T22:28:54.187Z,,0,,,NaN,,,,,,false,,,,472539,472538.69999980927,,472538.39999961853,,472569.252,8,400,,,
sequence,flow.Sequence,4_72,2023-05-01T22:28:54.187Z,,0,,,11485.94599980925,completion,,,,,false,,,,472539.19999980927,472538.69999980927,461036.081,461023.10000038147,461052.754,472569.252,8,400,,,
trial,html.Screen,4_73_0,2023-05-01T22:28:59.222Z,,0,2,,5004.947999809287,response,ISIC_0561634.JPG,,ISIC_0064964.JPG,ISIC_0561634.JPG,false,1,keypress(m),500,477574.5,477574.19999980927,472552.529,472539.39999961853,472569.252,477585.78,8,400,24,,ISIC_0064964.JPG
break,html.Screen,4_73_1,2023-05-01T22:28:59.224Z,,0,,,NaN,,,,,,false,,,,477576.10000038147,477575.69999980927,,477574.80000019073,,477585.78,8,400,,,
break_continue,html.Screen,4_73_2,2023-05-01T22:28:59.224Z,,0,,,NaN,,,,,,false,,,,477576.80000019073,477576.60000038147,,477576.30000019073,,477585.78,8,400,,,
sequence,flow.Sequence,4_73,2023-05-01T22:28:59.225Z,,0,,,5007.348000381491,completion,,,,,false,,,,477577.10000038147,477576.60000038147,472552.529,472539.39999961853,472569.252,477585.78,8,400,,,
trial,html.Screen,4_74_0,2023-05-01T22:29:02.460Z,,0,2,,3226.1199996185023,response,ISIC_0030535.JPG,,ISIC_0033876.JPG,ISIC_0030535.JPG,false,1,keypress(m),500,480812.19999980927,480811.89999961853,477569.105,477577.30000019073,477585.78,480819.056,8,400,25,,ISIC_0033876.JPG
break,html.Screen,4_74_1,2023-05-01T22:29:02.461Z,,0,,,NaN,,,,,,false,,,,480813.69999980927,480813.39999961853,,480812.5,,480819.056,8,400,,,
break_continue,html.Screen,4_74_2,2023-05-01T22:29:02.462Z,,0,,,NaN,,,,,,false,,,,480814.10000038147,480814.10000038147,,480813.89999961853,,480819.056,8,400,,,
sequence,flow.Sequence,4_74,2023-05-01T22:29:02.462Z,,0,,,3228.320000381442,completion,,,,,false,,,,480814.10000038147,480814.10000038147,477569.105,477577.19999980927,477585.78,480819.056,8,400,,,
trial,html.Screen,4_75_0,2023-05-01T22:29:05.695Z,,0,2,,3227.843999618548,response,ISIC_5104731.JPG,,ISIC_0061623.JPG,ISIC_5104731.JPG,false,1,keypress(m),500,484047.30000019073,484046.89999961853,480802.402,480814.10000038147,480819.056,484052.301,8,400,26,,ISIC_0061623.JPG
break,html.Screen,4_75_1,2023-05-01T22:29:05.697Z,,0,,,NaN,,,,,,false,,,,484048.89999961853,484048.5,,484047.60000038147,,484052.301,8,400,,,
break_continue,html.Screen,4_75_2,2023-05-01T22:29:05.697Z,,0,,,NaN,,,,,,false,,,,484049.60000038147,484049.30000019073,,484049,,484052.301,8,400,,,
sequence,flow.Sequence,4_75,2023-05-01T22:29:05.698Z,,0,,,3230.2440001907526,completion,,,,,false,,,,484049.89999961853,484049.30000019073,480802.402,480814.10000038147,480819.056,484052.301,8,400,,,
trial,html.Screen,4_76_0,2023-05-01T22:29:08.995Z,,0,2,,3294.8989998092875,response,ISIC_0030597.JPG,,ISIC_0033831.JPG,ISIC_0033831.JPG,false,0,keypress(z),500,487347.5,487347.19999980927,484035.711,484050.10000038147,484052.301,487352.22,8,400,27,,ISIC_0030597.JPG
break,html.Screen,4_76_1,2023-05-01T22:29:08.997Z,,0,,,NaN,,,,,,false,,,,487349.10000038147,487348.69999980927,,487347.80000019073,,487352.22,8,400,,,
break_continue,html.Screen,4_76_2,2023-05-01T22:29:08.998Z,,0,,,NaN,,,,,,false,,,,487349.80000019073,487349.60000038147,,487349.30000019073,,487352.22,8,400,,,
sequence,flow.Sequence,4_76,2023-05-01T22:29:08.998Z,,0,,,3297.299000381492,completion,,,,,false,,,,487350.10000038147,487349.60000038147,484035.711,484050,484052.301,487352.22,8,400,,,
trial,html.Screen,4_77_0,2023-05-01T22:29:12.873Z,,0,2,,3872.3800003814977,response,ISIC_0009713.JPG,,ISIC_0014013.JPG,ISIC_0009713.JPG,false,1,keypress(m),500,491225,491224.60000038147,487335.653,487350.5,487352.22,491235.566,8,400,28,,ISIC_0014013.JPG
break,html.Screen,4_77_1,2023-05-01T22:29:12.874Z,,0,,,NaN,,,,,,false,,,,491226.60000038147,491226.19999980927,,491225.30000019073,,491235.566,8,400,,,
break_continue,html.Screen,4_77_2,2023-05-01T22:29:12.875Z,,0,,,NaN,,,,,,false,,,,491227.39999961853,491227.10000038147,,491226.80000019073,,491235.566,8,400,,,
sequence,flow.Sequence,4_77,2023-05-01T22:29:12.875Z,,0,,,3874.8800003814977,completion,,,,,false,,,,491227.60000038147,491227.10000038147,487335.653,487350.39999961853,487352.22,491235.566,8,400,,,
trial,html.Screen,4_78_0,2023-05-01T22:29:24.367Z,,0,2,,11516.472999999998,timeout,ISIC_1961064.JPG,,ISIC_8820668.JPG,ISIC_1961064.JPG,false,,,500,502719.69999980927,502719.30000019073,491218.909,491227.89999961853,491235.566,502752.039,8,400,29,,ISIC_8820668.JPG
break,html.Screen,4_78_1,2023-05-01T22:29:24.369Z,,0,,,NaN,,,,,,false,,,,502721.19999980927,502720.80000019073,,502720,,502752.039,8,400,,,
break_continue,html.Screen,4_78_2,2023-05-01T22:29:24.370Z,,0,,,NaN,,,,,,false,,,,502722,502721.80000019073,,502721.5,,502752.039,8,400,,,
sequence,flow.Sequence,4_78,2023-05-01T22:29:24.370Z,,0,,,11486.234000190743,completion,,,,,false,,,,502722.39999961853,502721.80000019073,491218.909,491227.80000019073,491235.566,502752.039,8,400,,,
trial,html.Screen,4_79_0,2023-05-01T22:29:27.201Z,,0,2,,2801.1609998092754,response,ISIC_2482653.JPG,,ISIC_0059216.JPG,ISIC_2482653.JPG,false,1,keypress(m),500,505553.39999961853,505553.19999980927,502735.291,502722.60000038147,502752.039,505568.617,8,400,30,,ISIC_0059216.JPG
break,html.Screen,4_79_1,2023-05-01T22:29:27.202Z,,0,,,NaN,,,,,,false,,,,505554,505553.80000019073,,505553.5,,505568.617,8,400,,,
break_continue,html.Screen,4_79_2,2023-05-01T22:29:27.202Z,,0,,,NaN,,,,,,false,,,,505554.19999980927,505554.19999980927,,505554.10000038147,,505568.617,8,400,,,
sequence,flow.Sequence,4_79,2023-05-01T22:29:27.202Z,,0,,,2802.1609998092754,completion,,,,,false,,,,505554.30000019073,505554.19999980927,502735.291,502722.5,502752.039,505568.617,8,400,,,
trial,html.Screen,4_80_0,2023-05-01T22:29:30.456Z,,0,2,,3239.782999618503,response,ISIC_1605945.JPG,,ISIC_0070805.JPG,ISIC_0070805.JPG,false,0,keypress(z),500,508808.60000038147,508808.39999961853,505551.933,505554.39999961853,505568.617,508818.603,8,400,31,,ISIC_1605945.JPG
break,html.Screen,4_80_1,2023-05-01T22:29:30.457Z,,0,,,NaN,,,,,,false,,,,508809.5,508809.30000019073,,508808.80000019073,,508818.603,8,400,,,
break_continue,html.Screen,4_80_2,2023-05-01T22:29:30.458Z,,0,,,NaN,,,,,,false,,,,508809.89999961853,508809.80000019073,,508809.60000038147,,508818.603,8,400,,,
sequence,flow.Sequence,4_80,2023-05-01T22:29:30.458Z,,0,,,3241.1830001907074,completion,,,,,false,,,,508810,508809.80000019073,505551.933,505554.39999961853,505568.617,508818.603,8,400,,,
trial,html.Screen,4_81_0,2023-05-01T22:29:33.687Z,,0,2,,3220.0969998092623,response,ISIC_9407690.JPG,,ISIC_0028528.JPG,ISIC_9407690.JPG,false,1,keypress(m),500,512039.10000038147,512038.69999980927,508801.853,508810.10000038147,508818.603,512051.758,8,400,32,,ISIC_0028528.JPG
break,html.Screen,4_81_1,2023-05-01T22:29:33.689Z,,0,,,NaN,,,,,,false,,,,512040.89999961853,512040.39999961853,,512039.5,,512051.758,8,400,,,
break_continue,html.Screen,4_81_2,2023-05-01T22:29:33.689Z,,0,,,NaN,,,,,,false,,,,512041.60000038147,512041.39999961853,,512041.10000038147,,512051.758,8,400,,,
sequence,flow.Sequence,4_81,2023-05-01T22:29:33.690Z,,0,,,3222.7969996185275,completion,,,,,false,,,,512041.89999961853,512041.39999961853,508801.853,508810.10000038147,508818.603,512051.758,8,400,,,
trial,html.Screen,4_82_0,2023-05-01T22:29:36.720Z,,0,2,,3019.842000381497,response,ISIC_0025186.JPG,,ISIC_0034069.JPG,ISIC_0034069.JPG,false,0,keypress(z),500,515072.10000038147,515071.60000038147,512035.176,512042.19999980927,512051.758,515085.064,8,400,33,,ISIC_0025186.JPG
break,html.Screen,4_82_1,2023-05-01T22:29:36.721Z,,0,,,NaN,,,,,,false,,,,515073.60000038147,515073.19999980927,,515072.30000019073,,515085.064,8,400,,,
break_continue,html.Screen,4_82_2,2023-05-01T22:29:36.722Z,,0,,,NaN,,,,,,false,,,,515074.39999961853,515074.19999980927,,515073.89999961853,,515085.064,8,400,,,
sequence,flow.Sequence,4_82,2023-05-01T22:29:36.722Z,,0,,,3022.4419998092926,completion,,,,,false,,,,515074.69999980927,515074.19999980927,512035.176,512042.10000038147,512051.758,515085.064,8,400,,,
trial,html.Screen,4_83_0,2023-05-01T22:29:40.748Z,,0,2,,4014.8359996185172,response,ISIC_0064393.JPG,,ISIC_0057259.JPG,ISIC_0064393.JPG,false,1,keypress(m),500,519100.30000019073,519099.89999961853,515068.305,515075,515085.064,519123.988,8,400,34,,ISIC_0057259.JPG
break,html.Screen,4_83_1,2023-05-01T22:29:40.750Z,,0,,,NaN,,,,,,false,,,,519101.80000019073,519101.5,,519100.60000038147,,519123.988,8,400,,,
break_continue,html.Screen,4_83_2,2023-05-01T22:29:40.750Z,,0,,,NaN,,,,,,false,,,,519102.69999980927,519102.5,,519102.10000038147,,519123.988,8,400,,,
sequence,flow.Sequence,4_83,2023-05-01T22:29:40.751Z,,0,,,4017.435999999987,completion,,,,,false,,,,519103,519102.5,515068.305,515074.89999961853,515085.064,519123.988,8,400,,,
trial,html.Screen,4_84_0,2023-05-01T22:29:52.250Z,,0,2,,11510.771999999997,timeout,ISIC_1076091.JPG,,ISIC_0030900.JPG,,false,,,500,530602.3000001907,530602,519085.067,519103.19999980927,519123.988,530634.76,8,400,35,,
break,html.Screen,4_84_1,2023-05-01T22:29:52.252Z,,0,,,NaN,,,,,,false,,,,530603.8999996185,530603.3999996185,,530602.6999998093,,530634.76,8,400,,,
break_continue,html.Screen,4_84_2,2023-05-01T22:29:52.252Z,,0,,,NaN,,,,,,false,,,,530604.6000003815,530604.3999996185,,530604.1000003815,,530634.76,8,400,,,
sequence,flow.Sequence,4_84,2023-05-01T22:29:52.253Z,,0,,,11480.411999618518,completion,,,,,false,,,,530604.8999996185,530604.3999996185,519085.067,519103.10000038147,519123.988,530634.76,8,400,,,
trial,html.Screen,4_85_0,2023-05-01T22:30:03.766Z,,0,2,,11516.418999999994,timeout,ISIC_0055450.JPG,,ISIC_8692006.JPG,,false,,,500,542118.3999996185,542118.3000001907,530618.112,530605.1000003815,530634.76,542151.179,8,400,36,,
break,html.Screen,4_85_1,2023-05-01T22:30:03.767Z,,0,,,NaN,,,,,,false,,,,542118.8000001907,542118.6999998093,,542118.5,,542151.179,8,400,,,
break_continue,html.Screen,4_85_2,2023-05-01T22:30:03.767Z,,0,,,NaN,,,,,,false,,,,542119,542119,,542118.8999996185,,542151.179,8,400,,,
sequence,flow.Sequence,4_85,2023-05-01T22:30:03.767Z,,0,,,11484.23999999999,completion,,,,,false,,,,542119.1000003815,542119,530618.112,530605.1000003815,530634.76,542151.179,8,400,,,
trial,html.Screen,4_86_0,2023-05-01T22:30:08.985Z,,0,2,,5186.020999809261,response,ISIC_0034232.JPG,,ISIC_4900077.JPG,ISIC_0034232.JPG,false,1,keypress(m),500,547337.5,547337.1999998093,542134.625,542119.1999998093,542151.179,547351.111,8,400,37,,ISIC_4900077.JPG
break,html.Screen,4_86_1,2023-05-01T22:30:08.987Z,,0,,,NaN,,,,,,false,,,,547339.1999998093,547338.6999998093,,547337.8000001907,,547351.111,8,400,,,
break_continue,html.Screen,4_86_2,2023-05-01T22:30:08.988Z,,0,,,NaN,,,,,,false,,,,547340,547339.8000001907,,547339.5,,547351.111,8,400,,,
sequence,flow.Sequence,4_86,2023-05-01T22:30:08.988Z,,0,,,5188.621000190731,completion,,,,,false,,,,547340.3999996185,547339.8000001907,542134.625,542119.1000003815,542151.179,547351.111,8,400,,,
trial,html.Screen,4_87_0,2023-05-01T22:30:20.483Z,,0,2,,11516.532999999938,timeout,ISIC_0029303.JPG,,ISIC_0002041.JPG,,false,,,500,558834.6999998093,558834.6000003815,547334.598,547340.6000003815,547351.111,558867.644,8,400,38,,
break,html.Screen,4_87_1,2023-05-01T22:30:20.483Z,,0,,,NaN,,,,,,false,,,,558835.1999998093,558835,,558834.6999998093,,558867.644,8,400,,,
break_continue,html.Screen,4_87_2,2023-05-01T22:30:20.483Z,,0,,,NaN,,,,,,false,,,,558835.5,558835.3999996185,,558835.3000001907,,558867.644,8,400,,,
sequence,flow.Sequence,4_87,2023-05-01T22:30:20.483Z,,0,,,11484.288999618497,completion,,,,,false,,,,558835.5,558835.3999996185,547334.598,547340.5,547351.111,558867.644,8,400,,,
trial,html.Screen,4_88_0,2023-05-01T22:30:24.981Z,,0,2,,4465.055999809294,response,ISIC_0026438.JPG,,ISIC_0011139.JPG,ISIC_0026438.JPG,false,1,keypress(m),500,563333.1000003815,563332.6999998093,558850.985,558835.6000003815,558867.644,563350.755,8,400,39,,ISIC_0011139.JPG
break,html.Screen,4_88_1,2023-05-01T22:30:24.983Z,,0,,,NaN,,,,,,false,,,,563334.8000001907,563334.3999996185,,563333.3999996185,,563350.755,8,400,,,
break_continue,html.Screen,4_88_2,2023-05-01T22:30:24.983Z,,0,,,NaN,,,,,,false,,,,563335.6000003815,563335.3000001907,,563335,,563350.755,8,400,,,
sequence,flow.Sequence,4_88,2023-05-01T22:30:24.984Z,,0,,,4467.656000190764,completion,,,,,false,,,,563335.8999996185,563335.3000001907,558850.985,558835.5,558867.644,563350.755,8,400,,,
trial,html.Screen,4_89_0,2023-05-01T22:30:36.483Z,,0,2,,11516.592999999993,timeout,ISIC_0000163.JPG,,ISIC_3544821.JPG,,false,,,500,574835,574834.6000003815,563317.559,563336.1999998093,563350.755,574867.348,8,400,40,,
break,html.Screen,4_89_1,2023-05-01T22:30:36.484Z,,0,,,NaN,,,,,,false,,,,574836.5,574836,,574835.1999998093,,574867.348,8,400,,,
break_continue,html.Screen,4_89_2,2023-05-01T22:30:36.485Z,,0,,,NaN,,,,,,false,,,,574837.1000003815,574836.8999996185,,574836.6999998093,,574867.348,8,400,,,
sequence,flow.Sequence,4_89,2023-05-01T22:30:36.485Z,,0,,,11486.144999618526,completion,,,,,false,,,,574837.5,574836.8999996185,563317.559,563336.1000003815,563350.755,574867.348,8,400,,,
trial,html.Screen,4_90_0,2023-05-01T22:30:40.303Z,,0,2,,3787.351999809267,response,ISIC_6313487.JPG,,ISIC_8298434.JPG,ISIC_8298434.JPG,false,0,keypress(z),500,578655,578654.6999998093,574850.667,574837.6999998093,574867.348,578667.294,8,400,41,,ISIC_6313487.JPG
break,html.Screen,4_90_1,2023-05-01T22:30:40.305Z,,0,,,NaN,,,,,,false,,,,578657.1000003815,578656.5,,578655.3000001907,,578667.294,8,400,,,
break_continue,html.Screen,4_90_2,2023-05-01T22:30:40.306Z,,0,,,NaN,,,,,,false,,,,578657.8999996185,578657.6000003815,,578657.1999998093,,578667.294,8,400,,,
sequence,flow.Sequence,4_90,2023-05-01T22:30:40.306Z,,0,,,3790.2520003814716,completion,,,,,false,,,,578658.1999998093,578657.6000003815,574850.667,574837.6999998093,574867.348,578667.294,8,400,,,
trial,html.Screen,4_91_0,2023-05-01T22:30:48.726Z,,0,2,,8410.706000000006,response,ISIC_3912838.JPG,,ISIC_0014181.JPG,ISIC_3912838.JPG,false,1,keypress(m),500,587078.3000001907,587078,578650.606,578658.3999996185,578667.294,587083.755,8,400,42,,ISIC_0014181.JPG
break,html.Screen,4_91_1,2023-05-01T22:30:48.728Z,,0,,,NaN,,,,,,false,,,,587080,587079.3999996185,,587078.6999998093,,587083.755,8,400,,,
break_continue,html.Screen,4_91_2,2023-05-01T22:30:48.728Z,,0,,,NaN,,,,,,false,,,,587080.6999998093,587080.3999996185,,587080.1000003815,,587083.755,8,400,,,
sequence,flow.Sequence,4_91,2023-05-01T22:30:48.729Z,,0,,,8413.105999618536,completion,,,,,false,,,,587081,587080.3999996185,578650.606,578658.3000001907,578667.294,587083.755,8,400,,,
trial,html.Screen,4_92_0,2023-05-01T22:30:53.504Z,,0,2,,4771.9449998092605,response,ISIC_4348994.JPG,,ISIC_3757004.JPG,ISIC_4348994.JPG,false,1,keypress(m),500,591855.8000001907,591855.6999998093,587067.168,587081.1999998093,587083.755,591867.087,8,400,43,,ISIC_3757004.JPG
break,html.Screen,4_92_1,2023-05-01T22:30:53.504Z,,0,,,NaN,,,,,,false,,,,591856.3000001907,591856.1999998093,,591855.8000001907,,591867.087,8,400,,,
break_continue,html.Screen,4_92_2,2023-05-01T22:30:53.504Z,,0,,,NaN,,,,,,false,,,,591856.3999996185,591856.3000001907,,591856.3000001907,,591867.087,8,400,,,
sequence,flow.Sequence,4_92,2023-05-01T22:30:53.504Z,,0,,,4772.54500019073,completion,,,,,false,,,,591856.5,591856.3000001907,587067.168,587081.1999998093,587083.755,591867.087,8,400,,,
trial,html.Screen,4_93_0,2023-05-01T22:31:04.518Z,,0,2,,11003.112999809207,response,ISIC_0028967.JPG,,ISIC_7253401.JPG,ISIC_7253401.JPG,false,0,keypress(z),500,602870.6000003815,602870.1999998093,591850.359,591856.5,591867.087,602883.533,8,400,44,,ISIC_0028967.JPG
break,html.Screen,4_93_1,2023-05-01T22:31:04.520Z,,0,,,NaN,,,,,,false,,,,602872.1999998093,602871.6999998093,,602870.8999996185,,602883.533,8,400,,,
break_continue,html.Screen,4_93_2,2023-05-01T22:31:04.521Z,,0,,,NaN,,,,,,false,,,,602873,602872.8000001907,,602872.3999996185,,602883.533,8,400,,,
sequence,flow.Sequence,4_93,2023-05-01T22:31:04.521Z,,0,,,11005.713000190677,completion,,,,,false,,,,602873.3000001907,602872.8000001907,591850.359,591856.5,591867.087,602883.533,8,400,,,
trial,html.Screen,4_94_0,2023-05-01T22:31:09.427Z,,0,2,,4895.067000381416,response,ISIC_2565154.JPG,,ISIC_0013549.JPG,ISIC_2565154.JPG,false,1,keypress(m),500,607779,607778.6000003815,602866.784,602873.3999996185,602883.533,607800.024,8,400,45,,ISIC_0013549.JPG
break,html.Screen,4_94_1,2023-05-01T22:31:09.428Z,,0,,,NaN,,,,,,false,,,,607780.6000003815,607780.1000003815,,607779.3000001907,,607800.024,8,400,,,
break_continue,html.Screen,4_94_2,2023-05-01T22:31:09.429Z,,0,,,NaN,,,,,,false,,,,607781.3000001907,607781.1000003815,,607780.8000001907,,607800.024,8,400,,,
sequence,flow.Sequence,4_94,2023-05-01T22:31:09.429Z,,0,,,4897.567000381416,completion,,,,,false,,,,607781.6000003815,607781.1000003815,602866.784,602873.3999996185,602883.533,607800.024,8,400,,,
trial,html.Screen,4_95_0,2023-05-01T22:31:17.686Z,,0,2,,8238.276000190759,response,ISIC_0059987.JPG,,ISIC_0830217.JPG,ISIC_0830217.JPG,false,0,keypress(z),500,616038.5,616038.3000001907,607783.288,607781.8000001907,607800.024,616049.808,8,400,46,,ISIC_0059987.JPG
break,html.Screen,4_95_1,2023-05-01T22:31:17.687Z,,0,,,NaN,,,,,,false,,,,616039.6000003815,616039.3000001907,,616038.6999998093,,616049.808,8,400,,,
break_continue,html.Screen,4_95_2,2023-05-01T22:31:17.688Z,,0,,,NaN,,,,,,false,,,,616039.8999996185,616039.8000001907,,616039.6000003815,,616049.808,8,400,,,
sequence,flow.Sequence,4_95,2023-05-01T22:31:17.688Z,,0,,,8239.776000190759,completion,,,,,false,,,,616040.1000003815,616039.8000001907,607783.288,607781.8000001907,607800.024,616049.808,8,400,,,
trial,html.Screen,4_96_0,2023-05-01T22:31:21.492Z,,0,2,,3793.692000000039,response,ISIC_0012018.JPG,,ISIC_0011012.JPG,ISIC_0012018.JPG,false,1,keypress(m),500,619843.6999998093,619843.5,616033.289,616040.1999998093,616049.808,619849.763,8,400,47,,ISIC_0011012.JPG
break,html.Screen,4_96_1,2023-05-01T22:31:21.492Z,,0,,,NaN,,,,,,false,,,,619844.3999996185,619844.3000001907,,619843.8999996185,,619849.763,8,400,,,
break_continue,html.Screen,4_96_2,2023-05-01T22:31:21.493Z,,0,,,NaN,,,,,,false,,,,619844.6999998093,619844.6000003815,,619844.6000003815,,619849.763,8,400,,,
sequence,flow.Sequence,4_96,2023-05-01T22:31:21.493Z,,0,,,3794.792000381509,completion,,,,,false,,,,619844.8999996185,619844.6000003815,616033.289,616040.1999998093,616049.808,619849.763,8,400,,,
trial,html.Screen,4_97_0,2023-05-01T22:31:25.198Z,,0,2,,3699.5370001906995,response,ISIC_9801917.JPG,,ISIC_0054705.JPG,ISIC_9801917.JPG,false,1,keypress(m),500,623549.8000001907,623549.3000001907,619833.207,619844.8999996185,619849.763,623566.5,8,400,48,,ISIC_0054705.JPG
break,html.Screen,4_97_1,2023-05-01T22:31:25.200Z,,0,,,NaN,,,,,,false,,,,623551.8999996185,623551.3999996185,,623550.1999998093,,623566.5,8,400,,,
break_continue,html.Screen,4_97_2,2023-05-01T22:31:25.201Z,,0,,,NaN,,,,,,false,,,,623552.8000001907,623552.5,,623552.1999998093,,623566.5,8,400,,,
sequence,flow.Sequence,4_97,2023-05-01T22:31:25.201Z,,0,,,3702.7369999999646,completion,,,,,false,,,,623553.1000003815,623552.5,619833.207,619844.8999996185,619849.763,623566.5,8,400,,,
trial,html.Screen,4_98_0,2023-05-01T22:31:28.590Z,,0,2,,3374.8999996185303,response,ISIC_4323070.JPG,,ISIC_1389141.JPG,ISIC_1389141.JPG,false,0,keypress(z),500,626941.6999998093,626941.3999996185,623549.716,623553.3999996185,623566.5,626949.618,8,400,49,,ISIC_4323070.JPG
break,html.Screen,4_98_1,2023-05-01T22:31:28.591Z,,0,,,NaN,,,,,,false,,,,626943.3000001907,626943,,626942,,626949.618,8,400,,,
break_continue,html.Screen,4_98_2,2023-05-01T22:31:28.592Z,,0,,,NaN,,,,,,false,,,,626944.1000003815,626943.8999996185,,626943.5,,626949.618,8,400,,,
sequence,flow.Sequence,4_98,2023-05-01T22:31:28.592Z,,0,,,3377.3999996185303,completion,,,,,false,,,,626944.3999996185,626943.8999996185,623549.716,623553.3000001907,623566.5,626949.618,8,400,,,
trial,html.Screen,4_99_0,2023-05-01T22:31:34.539Z,,0,2,,5940.7819996185135,response,ISIC_9181399.JPG,,ISIC_5923430.JPG,ISIC_5923430.JPG,false,0,keypress(z),500,632890.8000001907,632890.3999996185,626933.045,626944.6999998093,626949.618,632899.532,8,400,50,,ISIC_9181399.JPG
break,html.Screen,4_99_1,2023-05-01T22:31:39.532Z,,0,,,5000.025000000023,timeout,,,,,false,,,,637883.6999998093,637882.831,632882.971,632891.1999998093,632899.532,637899.557,8,400,,,
break_continue,html.Screen,4_99_2,2023-05-01T22:31:41.551Z,,0,,,1992.3429996185005,response,,,,,false,continue,keypress(Space),,639902.6000003815,639891.8999996185,637882.831,637884,637899.557,639916.147,8,400,,,
sequence,flow.Sequence,4_99,2023-05-01T22:31:41.551Z,,0,,,12942.281999618514,completion,,,,,false,,,,639902.8000001907,639891.8999996185,626933.045,626944.6000003815,626949.618,639916.147,8,400,,,
trial,html.Screen,4_100_0,2023-05-01T22:31:45.070Z,,0,3,,3505.6530001907377,response,ISIC_4658487.JPG,,ISIC_5714285.JPG,ISIC_4658487.JPG,false,1,keypress(m),500,643422.1999998093,643421.8000001907,639899.258,639902.8000001907,639916.147,643432.67,8,400,1,,ISIC_5714285.JPG
break,html.Screen,4_100_1,2023-05-01T22:31:45.072Z,,0,,,NaN,,,,,,false,,,,643423.8000001907,643423.3999996185,,643422.5,,643432.67,8,400,,,
break_continue,html.Screen,4_100_2,2023-05-01T22:31:45.073Z,,0,,,NaN,,,,,,false,,,,643424.6000003815,643424.5,,643424.1000003815,,643432.67,8,400,,,
sequence,flow.Sequence,4_100,2023-05-01T22:31:45.073Z,,0,,,3508.353000000003,completion,,,,,false,,,,643424.8999996185,643424.5,639899.258,639902.8000001907,639916.147,643432.67,8,400,,,
trial,html.Screen,4_101_0,2023-05-01T22:31:48.025Z,,0,3,,2944.029999809223,response,ISIC_0033584.JPG,,ISIC_5993530.JPG,ISIC_5993530.JPG,false,0,keypress(z),500,646376.8999996185,646376.6999998093,643416.117,643425.1999998093,643432.67,646382.608,8,400,2,,ISIC_0033584.JPG
break,html.Screen,4_101_1,2023-05-01T22:31:48.026Z,,0,,,NaN,,,,,,false,,,,646377.6000003815,646377.3999996185,,646377,,646382.608,8,400,,,
break_continue,html.Screen,4_101_2,2023-05-01T22:31:48.026Z,,0,,,NaN,,,,,,false,,,,646378,646377.8999996185,,646377.6999998093,,646382.608,8,400,,,
sequence,flow.Sequence,4_101,2023-05-01T22:31:48.026Z,,0,,,2945.2299996184884,completion,,,,,false,,,,646378.1000003815,646377.8999996185,643416.117,643425.1000003815,643432.67,646382.608,8,400,,,
trial,html.Screen,4_102_0,2023-05-01T22:31:51.303Z,,0,3,,3272.5919998092577,response,ISIC_7180096.JPG,,ISIC_0033196.JPG,ISIC_0033196.JPG,false,0,keypress(z),500,649655.3999996185,649655.1999998093,646366.056,646378.1999998093,646382.608,649666.018,8,400,3,,ISIC_7180096.JPG
break,html.Screen,4_102_1,2023-05-01T22:31:51.304Z,,0,,,NaN,,,,,,false,,,,649655.8999996185,649655.6999998093,,649655.3999996185,,649666.018,8,400,,,
break_continue,html.Screen,4_102_2,2023-05-01T22:31:51.304Z,,0,,,NaN,,,,,,false,,,,649656.1999998093,649656.1000003815,,649656,,649666.018,8,400,,,
sequence,flow.Sequence,4_102,2023-05-01T22:31:51.304Z,,0,,,3273.4920003814623,completion,,,,,false,,,,649656.1999998093,649656.1000003815,646366.056,646378.1000003815,646382.608,649666.018,8,400,,,
trial,html.Screen,4_103_0,2023-05-01T22:31:57.123Z,,0,3,,5808.38199961849,response,ISIC_2801008.JPG,,ISIC_0000490.JPG,ISIC_0000490.JPG,false,0,keypress(z),500,655474.6999998093,655474.3999996185,649649.263,649656.3000001907,649666.018,655482.433,8,400,4,,ISIC_2801008.JPG
break,html.Screen,4_103_1,2023-05-01T22:31:57.123Z,,0,,,NaN,,,,,,false,,,,655475.5,655475.3000001907,,655474.8000001907,,655482.433,8,400,,,
break_continue,html.Screen,4_103_2,2023-05-01T22:31:57.124Z,,0,,,NaN,,,,,,false,,,,655475.8999996185,655475.6999998093,,655475.6999998093,,655482.433,8,400,,,
sequence,flow.Sequence,4_103,2023-05-01T22:31:57.124Z,,0,,,5809.681999809225,completion,,,,,false,,,,655476,655475.6999998093,649649.263,649656.1999998093,649666.018,655482.433,8,400,,,
trial,html.Screen,4_104_0,2023-05-01T22:32:00.467Z,,0,3,,3336.567000000039,response,ISIC_0016114.JPG,,ISIC_0060297.JPG,ISIC_0016114.JPG,false,1,keypress(m),500,658819.3999996185,658819,655465.847,655476.1000003815,655482.433,658832.423,8,400,5,,ISIC_0060297.JPG
break,html.Screen,4_104_1,2023-05-01T22:32:00.469Z,,0,,,NaN,,,,,,false,,,,658821.3999996185,658820.6000003815,,658819.6999998093,,658832.423,8,400,,,
break_continue,html.Screen,4_104_2,2023-05-01T22:32:00.470Z,,0,,,NaN,,,,,,false,,,,658822.3999996185,658822.1000003815,,658821.6999998093,,658832.423,8,400,,,
sequence,flow.Sequence,4_104,2023-05-01T22:32:00.471Z,,0,,,3339.667000381509,completion,,,,,false,,,,658822.8000001907,658822.1000003815,655465.847,655476.1000003815,655482.433,658832.423,8,400,,,
trial,html.Screen,4_105_0,2023-05-01T22:32:10.498Z,,0,3,,10017.276999809314,response,ISIC_0066992.JPG,,ISIC_8325226.JPG,ISIC_8325226.JPG,false,0,keypress(z),500,668850.1000003815,668849.6999998093,658815.769,658823,658832.423,668865.637,8,400,6,,ISIC_0066992.JPG
break,html.Screen,4_105_1,2023-05-01T22:32:10.500Z,,0,,,NaN,,,,,,false,,,,668851.6999998093,668851.1000003815,,668850.3000001907,,668865.637,8,400,,,
break_continue,html.Screen,4_105_2,2023-05-01T22:32:10.500Z,,0,,,NaN,,,,,,false,,,,668852.5,668852.1999998093,,668851.8999996185,,668865.637,8,400,,,
sequence,flow.Sequence,4_105,2023-05-01T22:32:10.501Z,,0,,,10019.776999809314,completion,,,,,false,,,,668852.8000001907,668852.1999998093,658815.769,658822.8999996185,658832.423,668865.637,8,400,,,
trial,html.Screen,4_106_0,2023-05-01T22:32:14.701Z,,0,3,,4187.663000190747,response,ISIC_3300710.JPG,,ISIC_3448630.JPG,ISIC_3300710.JPG,false,1,keypress(m),500,673053.3999996185,673053.3000001907,668848.967,668852.8999996185,668865.637,673065.413,8,400,7,,ISIC_3448630.JPG
break,html.Screen,4_106_1,2023-05-01T22:32:14.702Z,,0,,,NaN,,,,,,false,,,,673054,673053.8000001907,,673053.6000003815,,673065.413,8,400,,,
break_continue,html.Screen,4_106_2,2023-05-01T22:32:14.702Z,,0,,,NaN,,,,,,false,,,,673054.1000003815,673054,,673054,,673065.413,8,400,,,
sequence,flow.Sequence,4_106,2023-05-01T22:32:14.702Z,,0,,,4188.363000000012,completion,,,,,false,,,,673054.1999998093,673054,668848.967,668852.8999996185,668865.637,673065.413,8,400,,,
trial,html.Screen,4_107_0,2023-05-01T22:32:26.198Z,,0,3,,11516.564000000013,timeout,ISIC_1968421.JPG,,ISIC_0010416.JPG,,false,,,500,684549.6000003815,684549.1999998093,673048.727,673054.3000001907,673065.413,684581.977,8,400,8,,
break,html.Screen,4_107_1,2023-05-01T22:32:26.199Z,,0,,,NaN,,,,,,false,,,,684551,684550.6000003815,,684549.8999996185,,684581.977,8,400,,,
break_continue,html.Screen,4_107_2,2023-05-01T22:32:26.200Z,,0,,,NaN,,,,,,false,,,,684551.8999996185,684551.6000003815,,684551.1999998093,,684581.977,8,400,,,
sequence,flow.Sequence,4_107,2023-05-01T22:32:26.200Z,,0,,,11486.187000381527,completion,,,,,false,,,,684552.1999998093,684551.6000003815,673048.727,673054.1999998093,673065.413,684581.977,8,400,,,
trial,html.Screen,4_108_0,2023-05-01T22:32:30.145Z,,0,3,,3914.922999618575,response,ISIC_0057259.JPG,,ISIC_0822116.JPG,ISIC_0822116.JPG,false,0,keypress(z),500,688497.1999998093,688496.8999996185,684565.283,684552.3999996185,684581.977,688515.253,8,400,9,,ISIC_0057259.JPG
break,html.Screen,4_108_1,2023-05-01T22:32:30.147Z,,0,,,NaN,,,,,,false,,,,688498.8999996185,688498.5,,688497.6999998093,,688515.253,8,400,,,
break_continue,html.Screen,4_108_2,2023-05-01T22:32:30.148Z,,0,,,NaN,,,,,,false,,,,688499.6000003815,688499.5,,688499.1000003815,,688515.253,8,400,,,
sequence,flow.Sequence,4_108,2023-05-01T22:32:30.148Z,,0,,,3917.5230000000447,completion,,,,,false,,,,688499.8999996185,688499.5,684565.283,684552.3000001907,684581.977,688515.253,8,400,,,
trial,html.Screen,4_109_0,2023-05-01T22:32:34.445Z,,0,3,,4281.047000190709,response,ISIC_9280171.JPG,,ISIC_1039970.JPG,ISIC_1039970.JPG,false,0,keypress(z),500,692796.6000003815,692796.3000001907,688481.913,688500.3000001907,688515.253,692823.619,8,400,10,,ISIC_9280171.JPG
break,html.Screen,4_109_1,2023-05-01T22:32:34.446Z,,0,,,NaN,,,,,,false,,,,692798.3000001907,692797.8999996185,,692797,,692823.619,8,400,,,
break_continue,html.Screen,4_109_2,2023-05-01T22:32:34.447Z,,0,,,NaN,,,,,,false,,,,692799,692798.8000001907,,692798.5,,692823.619,8,400,,,
sequence,flow.Sequence,4_109,2023-05-01T22:32:34.447Z,,0,,,4283.547000190709,completion,,,,,false,,,,692799.3000001907,692798.8000001907,688481.913,688500.1999998093,688515.253,692823.619,8,400,,,
trial,html.Screen,4_110_0,2023-05-01T22:32:39.140Z,,0,3,,4668.481000381522,response,ISIC_5028203.JPG,,ISIC_9936773.JPG,ISIC_5028203.JPG,false,1,keypress(m),500,697492.5,697492.1000003815,692781.823,692799.6000003815,692823.619,697498.357,8,400,11,,ISIC_9936773.JPG
break,html.Screen,4_110_1,2023-05-01T22:32:39.142Z,,0,,,NaN,,,,,,false,,,,697493.8000001907,697493.5,,697492.6999998093,,697498.357,8,400,,,
break_continue,html.Screen,4_110_2,2023-05-01T22:32:39.142Z,,0,,,NaN,,,,,,false,,,,697494.3000001907,697494.1000003815,,697493.8999996185,,697498.357,8,400,,,
sequence,flow.Sequence,4_110,2023-05-01T22:32:39.143Z,,0,,,4670.481000381522,completion,,,,,false,,,,697494.5,697494.1000003815,692781.823,692799.5,692823.619,697498.357,8,400,,,
trial,html.Screen,4_111_0,2023-05-01T22:32:43.765Z,,0,3,,4618.74300038151,response,ISIC_9100933.JPG,,ISIC_0000554.JPG,ISIC_9100933.JPG,false,1,keypress(m),500,702117.3000001907,702117.1000003815,697481.786,697494.6999998093,697498.357,702131.657,8,400,12,,ISIC_0000554.JPG
break,html.Screen,4_111_1,2023-05-01T22:32:43.766Z,,0,,,NaN,,,,,,false,,,,702117.8999996185,702117.6999998093,,702117.3000001907,,702131.657,8,400,,,
break_continue,html.Screen,4_111_2,2023-05-01T22:32:43.766Z,,0,,,NaN,,,,,,false,,,,702118.1000003815,702118.1000003815,,702118,,702131.657,8,400,,,
sequence,flow.Sequence,4_111,2023-05-01T22:32:43.766Z,,0,,,4619.74300038151,completion,,,,,false,,,,702118.1999998093,702118.1000003815,697481.786,697494.6999998093,697498.357,702131.657,8,400,,,
trial,html.Screen,4_112_0,2023-05-01T22:32:47.027Z,,0,3,,3247.2429996185238,response,ISIC_0026505.JPG,,ISIC_0054134.JPG,ISIC_0026505.JPG,false,1,keypress(m),500,705379.1999998093,705378.8999996185,702114.91,702118.1999998093,702131.657,705381.519,8,400,13,,ISIC_0054134.JPG
break,html.Screen,4_112_1,2023-05-01T22:32:47.028Z,,0,,,NaN,,,,,,false,,,,705380.3000001907,705380,,705379.3000001907,,705381.519,8,400,,,
break_continue,html.Screen,4_112_2,2023-05-01T22:32:47.029Z,,0,,,NaN,,,,,,false,,,,705380.8999996185,705380.6000003815,,705380.3999996185,,705381.519,8,400,,,
sequence,flow.Sequence,4_112,2023-05-01T22:32:47.029Z,,0,,,3248.943000381463,completion,,,,,false,,,,705381,705380.6000003815,702114.91,702118.1999998093,702131.657,705381.519,8,400,,,
trial,html.Screen,4_113_0,2023-05-01T22:32:50.201Z,,0,3,,3171.5810003814986,response,ISIC_0011130.JPG,,ISIC_0064060.JPG,ISIC_0064060.JPG,false,0,keypress(z),500,708553.5,708553.1000003815,705364.877,705381.1000003815,705381.519,708564.813,8,400,14,,ISIC_0011130.JPG
break,html.Screen,4_113_1,2023-05-01T22:32:50.203Z,,0,,,NaN,,,,,,false,,,,708555.1000003815,708554.6999998093,,708553.8000001907,,708564.813,8,400,,,
break_continue,html.Screen,4_113_2,2023-05-01T22:32:50.204Z,,0,,,NaN,,,,,,false,,,,708555.8000001907,708555.6000003815,,708555.3000001907,,708564.813,8,400,,,
sequence,flow.Sequence,4_113,2023-05-01T22:32:50.204Z,,0,,,3174.0810003814986,completion,,,,,false,,,,708556.1999998093,708555.6000003815,705364.877,705381.1000003815,705381.519,708564.813,8,400,,,
trial,html.Screen,4_114_0,2023-05-01T22:32:53.556Z,,0,3,,3342.9870001907693,response,ISIC_7558912.JPG,,ISIC_0010306.JPG,ISIC_0010306.JPG,false,0,keypress(z),500,711908.1000003815,711907.8000001907,708548.212,708556.3999996185,708564.813,711914.766,8,400,15,,ISIC_7558912.JPG
break,html.Screen,4_114_1,2023-05-01T22:32:53.558Z,,0,,,NaN,,,,,,false,,,,711909.8000001907,711909.3000001907,,711908.5,,711914.766,8,400,,,
break_continue,html.Screen,4_114_2,2023-05-01T22:32:53.558Z,,0,,,NaN,,,,,,false,,,,711910.5,711910.3000001907,,711910,,711914.766,8,400,,,
sequence,flow.Sequence,4_114,2023-05-01T22:32:53.559Z,,0,,,3345.4870001907693,completion,,,,,false,,,,711910.8000001907,711910.3000001907,708548.212,708556.3000001907,708564.813,711914.766,8,400,,,
trial,html.Screen,4_115_0,2023-05-01T22:32:59.664Z,,0,3,,6101.133999618585,response,ISIC_0001102.JPG,,ISIC_0046683.JPG,ISIC_0046683.JPG,false,0,keypress(z),500,718016.1999998093,718015.8999996185,711898.078,711911.1000003815,711914.766,718031.298,8,400,16,,ISIC_0001102.JPG
break,html.Screen,4_115_1,2023-05-01T22:32:59.666Z,,0,,,NaN,,,,,,false,,,,718018,718017.5,,718016.6000003815,,718031.298,8,400,,,
break_continue,html.Screen,4_115_2,2023-05-01T22:32:59.667Z,,0,,,NaN,,,,,,false,,,,718018.6999998093,718018.5,,718018.1000003815,,718031.298,8,400,,,
sequence,flow.Sequence,4_115,2023-05-01T22:32:59.667Z,,0,,,6103.734000000055,completion,,,,,false,,,,718018.8999996185,718018.5,711898.078,711911,711914.766,718031.298,8,400,,,
trial,html.Screen,4_116_0,2023-05-01T22:33:03.060Z,,0,3,,3380.5020001907833,response,ISIC_0011490.JPG,,ISIC_2222879.JPG,ISIC_2222879.JPG,false,0,keypress(z),500,721412.1999998093,721411.8000001907,718014.701,718019.1000003815,718031.298,721414.585,8,400,17,,ISIC_0011490.JPG
break,html.Screen,4_116_1,2023-05-01T22:33:03.062Z,,0,,,NaN,,,,,,false,,,,721413.8000001907,721413.5,,721412.5,,721414.585,8,400,,,
break_continue,html.Screen,4_116_2,2023-05-01T22:33:03.063Z,,0,,,NaN,,,,,,false,,,,721414.6000003815,721414.3000001907,,721414.1000003815,,721414.585,8,400,,,
sequence,flow.Sequence,4_116,2023-05-01T22:33:03.063Z,,0,,,3383.0020001907833,completion,,,,,false,,,,721414.8000001907,721414.3000001907,718014.701,718019.1000003815,718031.298,721414.585,8,400,,,
trial,html.Screen,4_117_0,2023-05-01T22:33:06.232Z,,0,3,,3169.1149998093024,response,ISIC_5581297.JPG,,ISIC_0000168.JPG,ISIC_5581297.JPG,false,1,keypress(m),500,724584,724583.6999998093,721397.909,721415,721414.585,724597.854,8,400,18,,ISIC_0000168.JPG
break,html.Screen,4_117_1,2023-05-01T22:33:06.234Z,,0,,,NaN,,,,,,false,,,,724585.8000001907,724585.3999996185,,724584.3999996185,,724597.854,8,400,,,
break_continue,html.Screen,4_117_2,2023-05-01T22:33:06.235Z,,0,,,NaN,,,,,,false,,,,724586.5,724586.3000001907,,724586,,724597.854,8,400,,,
sequence,flow.Sequence,4_117,2023-05-01T22:33:06.235Z,,0,,,3171.715000190772,completion,,,,,false,,,,724586.8000001907,724586.3000001907,721397.909,721415,721414.585,724597.854,8,400,,,
trial,html.Screen,4_118_0,2023-05-01T22:33:10.922Z,,0,3,,4675.446000190685,response,ISIC_6225409.JPG,,ISIC_3440004.JPG,ISIC_3440004.JPG,false,0,keypress(z),500,729273.6999998093,729273.3000001907,724581.243,724587,724597.854,729281.13,8,400,19,,ISIC_6225409.JPG
break,html.Screen,4_118_1,2023-05-01T22:33:10.923Z,,0,,,NaN,,,,,,false,,,,729275.5,729275,,729274,,729281.13,8,400,,,
break_continue,html.Screen,4_118_2,2023-05-01T22:33:10.924Z,,0,,,NaN,,,,,,false,,,,729276.1999998093,729276,,729275.6999998093,,729281.13,8,400,,,
sequence,flow.Sequence,4_118,2023-05-01T22:33:10.924Z,,0,,,4678.14599999995,completion,,,,,false,,,,729276.5,729276,724581.243,724587,724597.854,729281.13,8,400,,,
trial,html.Screen,4_119_0,2023-05-01T22:33:13.902Z,,0,3,,2972.8699999999953,response,ISIC_0032742.JPG,,ISIC_0028698.JPG,ISIC_0032742.JPG,false,1,keypress(m),500,732254.3000001907,732254,729264.484,729276.6999998093,729281.13,732264.468,8,400,20,,ISIC_0028698.JPG
break,html.Screen,4_119_1,2023-05-01T22:33:13.904Z,,0,,,NaN,,,,,,false,,,,732255.6999998093,732255.3000001907,,732254.5,,732264.468,8,400,,,
break_continue,html.Screen,4_119_2,2023-05-01T22:33:13.904Z,,0,,,NaN,,,,,,false,,,,732256.3000001907,732256.1000003815,,732255.8000001907,,732264.468,8,400,,,
sequence,flow.Sequence,4_119,2023-05-01T22:33:13.905Z,,0,,,2974.970000381465,completion,,,,,false,,,,732256.5,732256.1000003815,729264.484,729276.6000003815,729281.13,732264.468,8,400,,,
trial,html.Screen,4_120_0,2023-05-01T22:33:16.737Z,,0,3,,2823.931999618537,response,ISIC_7662993.JPG,,ISIC_0616491.JPG,ISIC_0616491.JPG,false,0,keypress(z),500,735088.8000001907,735088.3999996185,732247.7,732256.6999998093,732264.468,735097.657,8,400,21,,ISIC_7662993.JPG
break,html.Screen,4_120_1,2023-05-01T22:33:16.739Z,,0,,,NaN,,,,,,false,,,,735090.5,735090.1999998093,,735089.3000001907,,735097.657,8,400,,,
break_continue,html.Screen,4_120_2,2023-05-01T22:33:16.739Z,,0,,,NaN,,,,,,false,,,,735091.3000001907,735091.1000003815,,735090.8000001907,,735097.657,8,400,,,
sequence,flow.Sequence,4_120,2023-05-01T22:33:16.740Z,,0,,,2826.6320003814762,completion,,,,,false,,,,735091.6000003815,735091.1000003815,732247.7,732256.6999998093,732264.468,735097.657,8,400,,,
trial,html.Screen,4_121_0,2023-05-01T22:33:21.397Z,,0,3,,4650.8429999999935,response,ISIC_0029189.JPG,,ISIC_7068674.JPG,ISIC_7068674.JPG,false,0,keypress(z),500,739748.6999998093,739748.5,735081.052,735091.8999996185,735097.657,739764.312,8,400,22,,ISIC_0029189.JPG
break,html.Screen,4_121_1,2023-05-01T22:33:21.398Z,,0,,,NaN,,,,,,false,,,,739749.6000003815,739749.3000001907,,739748.8999996185,,739764.312,8,400,,,
break_continue,html.Screen,4_121_2,2023-05-01T22:33:21.398Z,,0,,,NaN,,,,,,false,,,,739749.8999996185,739749.8999996185,,739749.6999998093,,739764.312,8,400,,,
sequence,flow.Sequence,4_121,2023-05-01T22:33:21.398Z,,0,,,4652.242999618524,completion,,,,,false,,,,739750.1000003815,739749.8999996185,735081.052,735091.8000001907,735097.657,739764.312,8,400,,,
trial,html.Screen,4_122_0,2023-05-01T22:33:24.020Z,,0,3,,2607.1879999999655,response,ISIC_0011684.JPG,,ISIC_0553932.JPG,ISIC_0553932.JPG,false,0,keypress(z),500,742371.8999996185,742371.5,739747.523,739750.1999998093,739764.312,742380.795,8,400,23,,ISIC_0011684.JPG
break,html.Screen,4_122_1,2023-05-01T22:33:24.021Z,,0,,,NaN,,,,,,false,,,,742373.5,742373,,742372.1999998093,,742380.795,8,400,,,
break_continue,html.Screen,4_122_2,2023-05-01T22:33:24.022Z,,0,,,NaN,,,,,,false,,,,742374.3000001907,742374.1000003815,,742373.6999998093,,742380.795,8,400,,,
sequence,flow.Sequence,4_122,2023-05-01T22:33:24.023Z,,0,,,2609.7880003814353,completion,,,,,false,,,,742374.6000003815,742374.1000003815,739747.523,739750.1999998093,739764.312,742380.795,8,400,,,
trial,html.Screen,4_123_0,2023-05-01T22:33:35.512Z,,0,3,,11516.53899999999,timeout,ISIC_0032680.JPG,,ISIC_0055526.JPG,,false,,,500,753864.5,753864.3000001907,742364.228,742374.8000001907,742380.795,753897.334,8,400,24,,
break,html.Screen,4_123_1,2023-05-01T22:33:35.513Z,,0,,,NaN,,,,,,false,,,,753864.8999996185,753864.6999998093,,753864.5,,753897.334,8,400,,,
break_continue,html.Screen,4_123_2,2023-05-01T22:33:35.513Z,,0,,,NaN,,,,,,false,,,,753865.1000003815,753865.1000003815,,753865,,753897.334,8,400,,,
sequence,flow.Sequence,4_123,2023-05-01T22:33:35.513Z,,0,,,11484.305000381428,completion,,,,,false,,,,753865.1999998093,753865.1000003815,742364.228,742374.6999998093,742380.795,753897.334,8,400,,,
trial,html.Screen,4_124_0,2023-05-01T22:33:47.030Z,,0,3,,11516.525999999954,timeout,ISIC_2682861.JPG,,ISIC_2253931.JPG,,false,,,500,765381.5,765381.1000003815,753880.594,753865.1999998093,753897.334,765413.86,8,400,25,,
break,html.Screen,4_124_1,2023-05-01T22:33:47.031Z,,0,,,NaN,,,,,,false,,,,765382.8000001907,765382.3999996185,,765381.6999998093,,765413.86,8,400,,,
break_continue,html.Screen,4_124_2,2023-05-01T22:33:47.032Z,,0,,,NaN,,,,,,false,,,,765383.6000003815,765383.3999996185,,765383,,765413.86,8,400,,,
sequence,flow.Sequence,4_124,2023-05-01T22:33:47.032Z,,0,,,11486.065999618499,completion,,,,,false,,,,765383.8000001907,765383.3999996185,753880.594,753865.1999998093,753897.334,765413.86,8,400,,,
trial,html.Screen,4_125_0,2023-05-01T22:33:56.192Z,,0,3,,9129.539999618544,response,ISIC_2489146.JPG,,ISIC_4580926.JPG,ISIC_4580926.JPG,false,0,keypress(z),500,774543.8000001907,774543.3999996185,765397.076,765384,765413.86,774546.948,8,400,26,,ISIC_2489146.JPG
break,html.Screen,4_125_1,2023-05-01T22:33:56.193Z,,0,,,NaN,,,,,,false,,,,774545.3000001907,774544.8999996185,,774544.1000003815,,774546.948,8,400,,,
break_continue,html.Screen,4_125_2,2023-05-01T22:33:56.194Z,,0,,,NaN,,,,,,false,,,,774546.1000003815,774545.8000001907,,774545.5,,774546.948,8,400,,,
sequence,flow.Sequence,4_125,2023-05-01T22:33:56.194Z,,0,,,9131.940000190749,completion,,,,,false,,,,774546.3000001907,774545.8000001907,765397.076,765383.8999996185,765413.86,774546.948,8,400,,,
trial,html.Screen,4_126_0,2023-05-01T22:34:02.753Z,,0,3,,6557.85200019076,response,ISIC_0072748.JPG,,ISIC_0069933.JPG,ISIC_0069933.JPG,false,0,keypress(z),500,781105.1000003815,781104.8000001907,774530.306,774546.6000003815,774546.948,781113.447,8,400,27,,ISIC_0072748.JPG
break,html.Screen,4_126_1,2023-05-01T22:34:02.755Z,,0,,,NaN,,,,,,false,,,,781106.6999998093,781106.3000001907,,781105.3999996185,,781113.447,8,400,,,
