sender,sender_type,sender_id,timestamp,meta,,blockNo,condition,duration,ended_on,img_left,img_reveal,img_right,loser,practice,response,response_action,selection_duration,time_commit,time_end,time_render,time_run,time_show,time_switch,total_blocks,total_trials,trialNo,url,winner
informed_consent,html.Screen,0,2023-09-16T02:39:29.342Z,"{""labjs_version"":""20.2.4"",""labjs_build"":{""flavor"":""production"",""commit"":""f5b4a49f956347addd546a832a3327688c2c0fef""},""location"":""https://run.pavlovia.org/MurrayBennett/melanoma-2afc/?participant=66741&platform=sona"",""userAgent"":""Mozilla/5.0 (Macintosh; Intel Mac OS X 10_15_7) AppleWebKit/537.36 (KHTML, like Gecko) Chrome/116.0.0.0 Safari/537.36"",""platform"":""MacIntel"",""language"":""en-US"",""locale"":""en-US"",""timeZone"":""America/Chicago"",""timezoneOffset"":300,""screen_width"":1470,""screen_height"":956,""scroll_width"":1470,""scroll_height"":787,""window_innerWidth"":1470,""window_innerHeight"":835,""devicePixelRatio"":2}",,,,44654.36499998808,response,,,,,,consent,click button,,68126.59999996424,68121.19999998808,23450.169,2387.7999999523163,23466.835,68150.032,,,,"{""participant"":""66741"",""platform"":""sona""}",
Welcome,html.Screen,1,2023-09-16T02:40:11.623Z,,,,irregular,42254.16799998807,response,,,,,,continue,click button,,110407.19999998808,110404.19999998808,68116.7,68127,68150.032,110416.792,,,,,
trial,html.Screen,2_0_0,2023-09-16T02:40:17.108Z,,0,0,,5474.807999964236,response,ISIC_4679428.JPG,,ISIC_0061792.JPG,ISIC_4679428.JPG,true,1,keypress(m),500,115892.09999996424,115891.59999996424,110400.126,110407.5,110416.792,115899.906,1,6,1,,ISIC_0061792.JPG
sequence,flow.Sequence,2_0,2023-09-16T02:40:17.108Z,,0,,,5474.807999964236,completion,,,,,true,,,,115892.79999995232,115891.59999996424,110400.126,110407.5,110416.792,115899.906,1,6,,,
trial,html.Screen,2_1_0,2023-09-16T02:40:23.464Z,,0,0,,6347.593999999997,response,ISIC_5199497.JPG,,ISIC_0776486.JPG,ISIC_0776486.JPG,true,0,keypress(z),500,122248,122247.5,115883.24,115892.89999997616,115899.906,122250.11,1,6,2,,ISIC_5199497.JPG
sequence,flow.Sequence,2_1,2023-09-16T02:40:23.464Z,,0,,,6347.593999999997,completion,,,,,true,,,,122248.29999995232,122247.5,115883.24,115892.89999997616,115899.906,122250.11,1,6,,,
trial,html.Screen,2_2_0,2023-09-16T02:40:27.292Z,,0,0,,3825.4899999642366,response,ISIC_2556187.JPG,,ISIC_8575776.JPG,ISIC_8575776.JPG,true,0,keypress(z),500,126076.09999996424,126075.59999996424,122233.444,122248.5,122250.11,126083.29,1,6,3,,ISIC_2556187.JPG
sequence,flow.Sequence,2_2,2023-09-16T02:40:27.292Z,,0,,,3825.4899999642366,completion,,,,,true,,,,126076.39999997616,126075.59999996424,122233.444,122248.5,122250.11,126083.29,1,6,,,
trial,html.Screen,2_3_0,2023-09-16T02:40:30.431Z,,0,0,,3131.0099999523227,response,ISIC_9238366.JPG,,ISIC_8141769.JPG,ISIC_9238366.JPG,true,1,keypress(m),500,129214.89999997616,129214.29999995232,126066.624,126076.69999998808,126083.29,129216.917,1,6,4,,ISIC_8141769.JPG
sequence,flow.Sequence,2_3,2023-09-16T02:40:30.431Z,,0,,,3131.0099999523227,completion,,,,,true,,,,129215.39999997616,129214.29999995232,126066.624,126076.59999996424,126083.29,129216.917,1,6,,,
trial,html.Screen,2_4_0,2023-09-16T02:40:33.996Z,,0,0,,3562.382999952315,response,ISIC_8949026.JPG,,ISIC_9959593.JPG,ISIC_8949026.JPG,true,1,keypress(m),500,132779.89999997616,132779.29999995232,129200.251,129215.59999996424,129216.917,132783.441,1,6,5,,ISIC_9959593.JPG
sequence,flow.Sequence,2_4,2023-09-16T02:40:33.996Z,,0,,,3562.382999952315,completion,,,,,true,,,,132780.39999997616,132779.29999995232,129200.251,129215.5,129216.917,132783.441,1,6,,,
trial,html.Screen,2_5_0,2023-09-16T02:40:36.927Z,,0,0,,2927.2589999880875,response,ISIC_0010479.JPG,,ISIC_0460240.JPG,ISIC_0460240.JPG,true,0,keypress(z),500,135711.29999995232,135710.69999998808,132766.775,132780.59999996424,132783.441,135716.657,1,6,6,,ISIC_0010479.JPG
sequence,flow.Sequence,2_5,2023-09-16T02:40:36.927Z,,0,,,2927.2589999880875,completion,,,,,true,,,,135711.69999998808,135710.69999998808,132766.775,132780.5,132783.441,135716.657,1,6,,,
loop,flow.Loop,2,2023-09-16T02:40:36.928Z,,,,,25293.907999988078,completion,,,,,true,,,,135712,135710.69999998808,110400.126,110407.5,110416.792,135716.657,1,6,,,
exp_instructions,html.Screen,3,2023-09-16T02:40:52.661Z,,,,,15724.342999999993,response,,,,,,continue,keypress(Space),,151444.69999998808,151441,135699.991,135712.09999996424,135716.657,151450.164,,,,,
trial,html.Screen,4_0_0,2023-09-16T02:40:55.529Z,,0,1,,2862.4359999642475,response,ISIC_0062906.JPG,8,ISIC_0056228.JPG,ISIC_0062906.JPG,false,1,keypress(m),500,154312.89999997616,154312.59999996424,151433.498,151445,151450.164,154316.716,8,400,1,,ISIC_0056228.JPG
break,html.Screen,4_0_1,2023-09-16T02:40:55.530Z,,0,,,NaN,,,,,,false,,,,154314.19999998808,154313.89999997616,,154313.19999998808,,154316.716,8,400,,,
break_continue,html.Screen,4_0_2,2023-09-16T02:40:55.531Z,,0,,,NaN,,,,,,false,,,,154314.69999998808,154314.59999996424,,154314.39999997616,,154316.716,8,400,,,
sequence,flow.Sequence,4_0,2023-09-16T02:40:55.531Z,,0,,,2864.4359999642475,completion,,,,,false,,,,154314.89999997616,154314.59999996424,151433.498,151444.89999997616,151450.164,154316.716,8,400,,,
trial,html.Screen,4_1_0,2023-09-16T02:40:59.552Z,,0,1,,4019.3839999642514,response,ISIC_0025535.JPG,7,ISIC_6383486.JPG,ISIC_6383486.JPG,false,0,keypress(z),500,158336.5,158336.09999996424,154300.05,154315,154316.716,158350.347,8,400,2,,ISIC_0025535.JPG
break,html.Screen,4_1_1,2023-09-16T02:40:59.553Z,,0,,,NaN,,,,,,false,,,,158337.39999997616,158337.19999998808,,158336.69999998808,,158350.347,8,400,,,
break_continue,html.Screen,4_1_2,2023-09-16T02:40:59.554Z,,0,,,NaN,,,,,,false,,,,158337.79999995232,158337.59999996424,,158337.59999996424,,158350.347,8,400,,,
sequence,flow.Sequence,4_1,2023-09-16T02:40:59.554Z,,0,,,4020.8839999642514,completion,,,,,false,,,,158338,158337.59999996424,154300.05,154315,154316.716,158350.347,8,400,,,
trial,html.Screen,4_2_0,2023-09-16T02:41:02.843Z,,0,1,,3276.35299998807,response,ISIC_7984569.JPG,7,ISIC_0024280.JPG,ISIC_0024280.JPG,false,0,keypress(z),500,161627.09999996424,161626.69999998808,158333.681,158338.19999998808,158350.347,161633.549,8,400,3,,ISIC_7984569.JPG
break,html.Screen,4_2_1,2023-09-16T02:41:02.844Z,,0,,,NaN,,,,,,false,,,,161628.19999998808,161627.89999997616,,161627.39999997616,,161633.549,8,400,,,
break_continue,html.Screen,4_2_2,2023-09-16T02:41:02.844Z,,0,,,NaN,,,,,,false,,,,161628.59999996424,161628.5,,161628.29999995232,,161633.549,8,400,,,
sequence,flow.Sequence,4_2,2023-09-16T02:41:02.845Z,,0,,,3278.152999999991,completion,,,,,false,,,,161628.69999998808,161628.5,158333.681,158338,158350.347,161633.549,8,400,,,
trial,html.Screen,4_3_0,2023-09-16T02:41:05.662Z,,0,1,,2812.550999964238,response,ISIC_0029092.JPG,8,ISIC_0310134.JPG,ISIC_0310134.JPG,false,0,keypress(z),500,164446.39999997616,164446.09999996424,161616.883,161628.79999995232,161633.549,164450.103,8,400,4,,ISIC_0029092.JPG
break,html.Screen,4_3_1,2023-09-16T02:41:05.663Z,,0,,,NaN,,,,,,false,,,,164447.39999997616,164447.19999998808,,164446.69999998808,,164450.103,8,400,,,
break_continue,html.Screen,4_3_2,2023-09-16T02:41:05.664Z,,0,,,NaN,,,,,,false,,,,164447.79999995232,164447.69999998808,,164447.5,,164450.103,8,400,,,
sequence,flow.Sequence,4_3,2023-09-16T02:41:05.664Z,,0,,,2814.15099998808,completion,,,,,false,,,,164447.89999997616,164447.69999998808,161616.883,161628.69999998808,161633.549,164450.103,8,400,,,
trial,html.Screen,4_4_0,2023-09-16T02:41:08.636Z,,0,1,,2969.2969999761553,response,ISIC_2449919.JPG,8,ISIC_5852396.JPG,ISIC_2449919.JPG,false,1,keypress(m),500,167419.69999998808,167419.39999997616,164433.437,164448.09999996424,164450.103,167433.317,8,400,5,,ISIC_5852396.JPG
break,html.Screen,4_4_1,2023-09-16T02:41:08.637Z,,0,,,NaN,,,,,,false,,,,167420.69999998808,167420.5,,167420.09999996424,,167433.317,8,400,,,
break_continue,html.Screen,4_4_2,2023-09-16T02:41:08.637Z,,0,,,NaN,,,,,,false,,,,167421.09999996424,167421,,167420.79999995232,,167433.317,8,400,,,
sequence,flow.Sequence,4_4,2023-09-16T02:41:08.637Z,,0,,,2970.896999999997,completion,,,,,false,,,,167421.19999998808,167421,164433.437,164448,164450.103,167433.317,8,400,,,
trial,html.Screen,4_5_0,2023-09-16T02:41:11.647Z,,0,1,,2997.68299999999,response,ISIC_0413173.JPG,8,ISIC_0060481.JPG,ISIC_0413173.JPG,false,1,keypress(m),500,170431.29999995232,170431,167416.651,167421.39999997616,167433.317,170433.603,8,400,6,,ISIC_0060481.JPG
break,html.Screen,4_5_1,2023-09-16T02:41:11.648Z,,0,,,NaN,,,,,,false,,,,170432.29999995232,170432.09999996424,,170431.59999996424,,170433.603,8,400,,,
break_continue,html.Screen,4_5_2,2023-09-16T02:41:11.649Z,,0,,,NaN,,,,,,false,,,,170432.69999998808,170432.5,,170432.39999997616,,170433.603,8,400,,,
sequence,flow.Sequence,4_5,2023-09-16T02:41:11.649Z,,0,,,2999.18299999999,completion,,,,,false,,,,170432.89999997616,170432.5,167416.651,167421.39999997616,167433.317,170433.603,8,400,,,
trial,html.Screen,4_6_0,2023-09-16T02:41:14.428Z,,0,1,,2778.0969999880763,response,ISIC_0027072.JPG,9,ISIC_2256461.JPG,ISIC_2256461.JPG,false,0,keypress(z),500,173212.09999996424,173211.69999998808,170416.937,170433.09999996424,170433.603,173216.825,8,400,7,,ISIC_0027072.JPG
break,html.Screen,4_6_1,2023-09-16T02:41:14.429Z,,0,,,NaN,,,,,,false,,,,173213,173212.79999995232,,173212.39999997616,,173216.825,8,400,,,
break_continue,html.Screen,4_6_2,2023-09-16T02:41:14.429Z,,0,,,NaN,,,,,,false,,,,173213.39999997616,173213.29999995232,,173213.09999996424,,173216.825,8,400,,,
sequence,flow.Sequence,4_6,2023-09-16T02:41:14.429Z,,0,,,2779.6969999523135,completion,,,,,false,,,,173213.59999996424,173213.29999995232,170416.937,170432.89999997616,170433.603,173216.825,8,400,,,
trial,html.Screen,4_7_0,2023-09-16T02:41:17.139Z,,0,1,,2705.9749999523046,response,ISIC_1402840.JPG,7,ISIC_0024525.JPG,ISIC_1402840.JPG,false,1,keypress(m),500,175923.19999998808,175922.79999995232,173200.159,173213.69999998808,173216.825,175933.383,8,400,8,,ISIC_0024525.JPG
break,html.Screen,4_7_1,2023-09-16T02:41:17.140Z,,0,,,NaN,,,,,,false,,,,175924.29999995232,175924,,175923.5,,175933.383,8,400,,,
break_continue,html.Screen,4_7_2,2023-09-16T02:41:17.141Z,,0,,,NaN,,,,,,false,,,,175924.69999998808,175924.59999996424,,175924.29999995232,,175933.383,8,400,,,
sequence,flow.Sequence,4_7,2023-09-16T02:41:17.141Z,,0,,,2707.7749999642256,completion,,,,,false,,,,175924.79999995232,175924.59999996424,173200.159,173213.69999998808,173216.825,175933.383,8,400,,,
trial,html.Screen,4_8_0,2023-09-16T02:41:20.042Z,,0,1,,2892.2169999642356,response,ISIC_4525317.JPG,6,ISIC_0032635.JPG,ISIC_0032635.JPG,false,0,keypress(z),500,178826.09999996424,178825.59999996424,175916.717,175925,175933.383,178833.704,8,400,9,,ISIC_4525317.JPG
break,html.Screen,4_8_1,2023-09-16T02:41:20.043Z,,0,,,NaN,,,,,,false,,,,178827,178826.79999995232,,178826.19999998808,,178833.704,8,400,,,
break_continue,html.Screen,4_8_2,2023-09-16T02:41:20.043Z,,0,,,NaN,,,,,,false,,,,178827.39999997616,178827.19999998808,,178827.09999996424,,178833.704,8,400,,,
sequence,flow.Sequence,4_8,2023-09-16T02:41:20.043Z,,0,,,2893.8169999880774,completion,,,,,false,,,,178827.59999996424,178827.19999998808,175916.717,175924.89999997616,175933.383,178833.704,8,400,,,
trial,html.Screen,4_9_0,2023-09-16T02:41:22.832Z,,0,1,,2782.1959999761602,response,ISIC_0033119.JPG,6,ISIC_4692454.JPG,ISIC_4692454.JPG,false,0,keypress(z),500,181616.29999995232,181615.89999997616,178817.038,178827.69999998808,178833.704,181633.592,8,400,10,,ISIC_0033119.JPG
break,html.Screen,4_9_1,2023-09-16T02:41:22.833Z,,0,,,NaN,,,,,,false,,,,181617.29999995232,181617,,181616.5,,181633.592,8,400,,,
break_continue,html.Screen,4_9_2,2023-09-16T02:41:22.834Z,,0,,,NaN,,,,,,false,,,,181617.69999998808,181617.59999996424,,181617.39999997616,,181633.592,8,400,,,
sequence,flow.Sequence,4_9,2023-09-16T02:41:22.834Z,,0,,,2783.8959999642393,completion,,,,,false,,,,181617.79999995232,181617.59999996424,178817.038,178827.69999998808,178833.704,181633.592,8,400,,,
trial,html.Screen,4_10_0,2023-09-16T02:41:26.132Z,,0,1,,3282.207999952312,response,ISIC_7004652.JPG,5,ISIC_3256887.JPG,ISIC_7004652.JPG,false,1,keypress(m),500,184915.89999997616,184915.79999995232,181616.926,181618,181633.592,184916.794,8,400,11,,ISIC_3256887.JPG
break,html.Screen,4_10_1,2023-09-16T02:41:26.132Z,,0,,,NaN,,,,,,false,,,,184916.39999997616,184916.29999995232,,184916.09999996424,,184916.794,8,400,,,
break_continue,html.Screen,4_10_2,2023-09-16T02:41:26.132Z,,0,,,NaN,,,,,,false,,,,184916.59999996424,184916.5,,184916.5,,184916.794,8,400,,,
sequence,flow.Sequence,4_10,2023-09-16T02:41:26.133Z,,0,,,3282.907999999996,completion,,,,,false,,,,184916.59999996424,184916.5,181616.926,181617.89999997616,181633.592,184916.794,8,400,,,
trial,html.Screen,4_11_0,2023-09-16T02:41:30.234Z,,0,1,,4100.505999952322,response,ISIC_8278458.JPG,7,ISIC_0028612.JPG,ISIC_0028612.JPG,false,0,keypress(z),500,189017.69999998808,189017.29999995232,184900.128,184916.69999998808,184916.794,189033.713,8,400,12,,ISIC_8278458.JPG
break,html.Screen,4_11_1,2023-09-16T02:41:30.234Z,,0,,,NaN,,,,,,false,,,,189018.5,189018.39999997616,,189017.89999997616,,189033.713,8,400,,,
break_continue,html.Screen,4_11_2,2023-09-16T02:41:30.235Z,,0,,,NaN,,,,,,false,,,,189018.89999997616,189018.79999995232,,189018.59999996424,,189033.713,8,400,,,
sequence,flow.Sequence,4_11,2023-09-16T02:41:30.235Z,,0,,,4102.005999952322,completion,,,,,false,,,,189019,189018.79999995232,184900.128,184916.59999996424,184916.794,189033.713,8,400,,,
trial,html.Screen,4_12_0,2023-09-16T02:41:35.088Z,,0,1,,4837.886999964248,response,ISIC_0072286.JPG,8,ISIC_0034242.JPG,ISIC_0034242.JPG,false,0,keypress(z),500,193871.79999995232,193871.59999996424,189017.047,189019.19999998808,189033.713,193883.519,8,400,13,,ISIC_0072286.JPG
break,html.Screen,4_12_1,2023-09-16T02:41:35.088Z,,0,,,NaN,,,,,,false,,,,193872.19999998808,193872.19999998808,,193871.89999997616,,193883.519,8,400,,,
break_continue,html.Screen,4_12_2,2023-09-16T02:41:35.088Z,,0,,,NaN,,,,,,false,,,,193872.39999997616,193872.39999997616,,193872.29999995232,,193883.519,8,400,,,
sequence,flow.Sequence,4_12,2023-09-16T02:41:35.088Z,,0,,,4838.686999976169,completion,,,,,false,,,,193872.5,193872.39999997616,189017.047,189019.19999998808,189033.713,193883.519,8,400,,,
trial,html.Screen,4_13_0,2023-09-16T02:41:37.907Z,,0,1,,2807.580999964237,response,ISIC_0483289.JPG,5,ISIC_0063061.JPG,ISIC_0483289.JPG,false,1,keypress(m),500,196691.19999998808,196691.09999996424,193866.853,193872.59999996424,193883.519,196700.073,8,400,14,,ISIC_0063061.JPG
break,html.Screen,4_13_1,2023-09-16T02:41:37.907Z,,0,,,NaN,,,,,,false,,,,196691.5,196691.39999997616,,196691.29999995232,,196700.073,8,400,,,
break_continue,html.Screen,4_13_2,2023-09-16T02:41:37.908Z,,0,,,NaN,,,,,,false,,,,196691.69999998808,196691.59999996424,,196691.5,,196700.073,8,400,,,
sequence,flow.Sequence,4_13,2023-09-16T02:41:37.908Z,,0,,,2808.080999964237,completion,,,,,false,,,,196691.69999998808,196691.59999996424,193866.853,193872.5,193883.519,196700.073,8,400,,,
trial,html.Screen,4_14_0,2023-09-16T02:41:40.748Z,,0,1,,2831.426999999996,response,ISIC_7282415.JPG,8,ISIC_0027022.JPG,ISIC_7282415.JPG,false,1,keypress(m),500,199531.79999995232,199531.5,196683.407,196691.79999995232,196700.073,199533.694,8,400,15,,ISIC_0027022.JPG
break,html.Screen,4_14_1,2023-09-16T02:41:40.749Z,,0,,,NaN,,,,,,false,,,,199532.79999995232,199532.59999996424,,199532.09999996424,,199533.694,8,400,,,
break_continue,html.Screen,4_14_2,2023-09-16T02:41:40.749Z,,0,,,NaN,,,,,,false,,,,199533.09999996424,199533,,199532.89999997616,,199533.694,8,400,,,
sequence,flow.Sequence,4_14,2023-09-16T02:41:40.749Z,,0,,,2832.926999999996,completion,,,,,false,,,,199533.29999995232,199533,196683.407,196691.79999995232,196700.073,199533.694,8,400,,,
trial,html.Screen,4_15_0,2023-09-16T02:41:43.458Z,,0,1,,2708.0059999880905,response,ISIC_7034769.JPG,8,ISIC_0060972.JPG,ISIC_7034769.JPG,false,1,keypress(m),500,202242.09999996424,202241.69999998808,199517.028,199533.5,199533.694,202250.252,8,400,16,,ISIC_0060972.JPG
break,html.Screen,4_15_1,2023-09-16T02:41:43.459Z,,0,,,NaN,,,,,,false,,,,202243,202242.79999995232,,202242.39999997616,,202250.252,8,400,,,
break_continue,html.Screen,4_15_2,2023-09-16T02:41:43.459Z,,0,,,NaN,,,,,,false,,,,202243.39999997616,202243.29999995232,,202243.19999998808,,202250.252,8,400,,,
sequence,flow.Sequence,4_15,2023-09-16T02:41:43.460Z,,0,,,2709.6059999523277,completion,,,,,false,,,,202243.59999996424,202243.29999995232,199517.028,199533.39999997616,199533.694,202250.252,8,400,,,
trial,html.Screen,4_16_0,2023-09-16T02:41:47.545Z,,0,1,,4077.9479999880714,response,ISIC_7798358.JPG,8,ISIC_0032965.JPG,ISIC_0032965.JPG,false,0,keypress(z),500,206328.59999996424,206328.19999998808,202233.586,202243.69999998808,202250.252,206333.422,8,400,17,,ISIC_7798358.JPG
break,html.Screen,4_16_1,2023-09-16T02:41:47.545Z,,0,,,NaN,,,,,,false,,,,206329.39999997616,206329.29999995232,,206328.79999995232,,206333.422,8,400,,,
break_continue,html.Screen,4_16_2,2023-09-16T02:41:47.546Z,,0,,,NaN,,,,,,false,,,,206329.79999995232,206329.69999998808,,206329.59999996424,,206333.422,8,400,,,
sequence,flow.Sequence,4_16,2023-09-16T02:41:47.546Z,,0,,,4079.4479999880714,completion,,,,,false,,,,206329.89999997616,206329.69999998808,202233.586,202243.59999996424,202250.252,206333.422,8,400,,,
trial,html.Screen,4_17_0,2023-09-16T02:41:50.735Z,,0,1,,3184.9779999761668,response,ISIC_0033779.JPG,9,ISIC_0029478.JPG,ISIC_0033779.JPG,false,1,keypress(m),500,209518.79999995232,209518.39999997616,206316.756,206330.09999996424,206333.422,209533.724,8,400,18,,ISIC_0029478.JPG
break,html.Screen,4_17_1,2023-09-16T02:41:50.736Z,,0,,,NaN,,,,,,false,,,,209519.69999998808,209519.59999996424,,209519.09999996424,,209533.724,8,400,,,
break_continue,html.Screen,4_17_2,2023-09-16T02:41:50.736Z,,0,,,NaN,,,,,,false,,,,209520.09999996424,209519.89999997616,,209519.79999995232,,209533.724,8,400,,,
sequence,flow.Sequence,4_17,2023-09-16T02:41:50.736Z,,0,,,3186.4779999761668,completion,,,,,false,,,,209520.19999998808,209519.89999997616,206316.756,206330.09999996424,206333.422,209533.724,8,400,,,
trial,html.Screen,4_18_0,2023-09-16T02:41:53.860Z,,0,1,,3109.4759999880916,response,ISIC_8152423.JPG,5,ISIC_4666619.JPG,ISIC_8152423.JPG,false,1,keypress(m),500,212643.59999996424,212643.19999998808,209517.058,209520.29999995232,209533.724,212650.266,8,400,19,,ISIC_4666619.JPG
break,html.Screen,4_18_1,2023-09-16T02:41:53.861Z,,0,,,NaN,,,,,,false,,,,212644.59999996424,212644.39999997616,,212643.89999997616,,212650.266,8,400,,,
break_continue,html.Screen,4_18_2,2023-09-16T02:41:53.861Z,,0,,,NaN,,,,,,false,,,,212644.89999997616,212644.79999995232,,212644.69999998808,,212650.266,8,400,,,
sequence,flow.Sequence,4_18,2023-09-16T02:41:53.861Z,,0,,,3111.075999952329,completion,,,,,false,,,,212645.09999996424,212644.79999995232,209517.058,209520.29999995232,209533.724,212650.266,8,400,,,
trial,html.Screen,4_19_0,2023-09-16T02:41:57.111Z,,0,1,,3244.7339999999967,response,ISIC_3478473.JPG,8,ISIC_0012883.JPG,ISIC_0012883.JPG,false,0,keypress(z),500,215895.29999995232,215895,212633.6,212645.29999995232,212650.266,215900.136,8,400,20,,ISIC_3478473.JPG
break,html.Screen,4_19_1,2023-09-16T02:41:57.112Z,,0,,,NaN,,,,,,false,,,,215896.29999995232,215896,,215895.59999996424,,215900.136,8,400,,,
break_continue,html.Screen,4_19_2,2023-09-16T02:41:57.113Z,,0,,,NaN,,,,,,false,,,,215896.69999998808,215896.5,,215896.39999997616,,215900.136,8,400,,,
sequence,flow.Sequence,4_19,2023-09-16T02:41:57.113Z,,0,,,3246.2339999999967,completion,,,,,false,,,,215896.79999995232,215896.5,212633.6,212645.19999998808,212650.266,215900.136,8,400,,,
trial,html.Screen,4_20_0,2023-09-16T02:42:01.147Z,,0,1,,4030.6639999523177,response,ISIC_6557642.JPG,5,ISIC_2197722.JPG,ISIC_2197722.JPG,false,0,keypress(z),500,219931.09999996424,219930.79999995232,215883.47,215897,215900.136,219933.739,8,400,21,,ISIC_6557642.JPG
break,html.Screen,4_20_1,2023-09-16T02:42:01.148Z,,0,,,NaN,,,,,,false,,,,219931.79999995232,219931.59999996424,,219931.29999995232,,219933.739,8,400,,,
break_continue,html.Screen,4_20_2,2023-09-16T02:42:01.148Z,,0,,,NaN,,,,,,false,,,,219932,219931.89999997616,,219931.79999995232,,219933.739,8,400,,,
sequence,flow.Sequence,4_20,2023-09-16T02:42:01.148Z,,0,,,4031.7639999761595,completion,,,,,false,,,,219932.09999996424,219931.89999997616,215883.47,215897,215900.136,219933.739,8,400,,,
trial,html.Screen,4_21_0,2023-09-16T02:42:04.078Z,,0,1,,2928.060999952315,response,ISIC_8073555.JPG,8,ISIC_0054570.JPG,ISIC_0054570.JPG,false,0,keypress(z),500,222862.09999996424,222861.79999995232,219917.073,219932.09999996424,219933.739,222866.955,8,400,22,,ISIC_8073555.JPG
break,html.Screen,4_21_1,2023-09-16T02:42:04.079Z,,0,,,NaN,,,,,,false,,,,222863,222862.79999995232,,222862.39999997616,,222866.955,8,400,,,
break_continue,html.Screen,4_21_2,2023-09-16T02:42:04.079Z,,0,,,NaN,,,,,,false,,,,222863.39999997616,222863.29999995232,,222863.19999998808,,222866.955,8,400,,,
sequence,flow.Sequence,4_21,2023-09-16T02:42:04.080Z,,0,,,2929.560999952315,completion,,,,,false,,,,222863.59999996424,222863.29999995232,219917.073,219932.09999996424,219933.739,222866.955,8,400,,,
trial,html.Screen,4_22_0,2023-09-16T02:42:08.661Z,,0,1,,4577.844999952329,response,ISIC_6038490.JPG,7,ISIC_0011649.JPG,ISIC_6038490.JPG,false,1,keypress(m),500,227445.29999995232,227444.79999995232,222850.289,222863.69999998808,222866.955,227450.105,8,400,23,,ISIC_0011649.JPG
break,html.Screen,4_22_1,2023-09-16T02:42:08.662Z,,0,,,NaN,,,,,,false,,,,227446.29999995232,227446,,227445.59999996424,,227450.105,8,400,,,
break_continue,html.Screen,4_22_2,2023-09-16T02:42:08.663Z,,0,,,NaN,,,,,,false,,,,227446.59999996424,227446.5,,227446.39999997616,,227450.105,8,400,,,
sequence,flow.Sequence,4_22,2023-09-16T02:42:08.663Z,,0,,,4579.545000000013,completion,,,,,false,,,,227446.79999995232,227446.5,222850.289,222863.69999998808,222866.955,227450.105,8,400,,,
trial,html.Screen,4_23_0,2023-09-16T02:42:11.404Z,,0,1,,2737.7949999761477,response,ISIC_4958578.JPG,8,ISIC_0024701.JPG,ISIC_4958578.JPG,false,1,keypress(m),500,230188.29999995232,230187.89999997616,227433.439,227447,227450.105,230200.422,8,400,24,,ISIC_0024701.JPG
break,html.Screen,4_23_1,2023-09-16T02:42:11.405Z,,0,,,NaN,,,,,,false,,,,230189.29999995232,230189.09999996424,,230188.59999996424,,230200.422,8,400,,,
break_continue,html.Screen,4_23_2,2023-09-16T02:42:11.406Z,,0,,,NaN,,,,,,false,,,,230189.59999996424,230189.59999996424,,230189.39999997616,,230200.422,8,400,,,
sequence,flow.Sequence,4_23,2023-09-16T02:42:11.406Z,,0,,,2739.4949999642267,completion,,,,,false,,,,230189.89999997616,230189.59999996424,227433.439,227446.89999997616,227450.105,230200.422,8,400,,,
trial,html.Screen,4_24_0,2023-09-16T02:42:14.483Z,,0,1,,3065.5780000000086,response,ISIC_3799267.JPG,9,ISIC_0032790.JPG,ISIC_3799267.JPG,false,1,keypress(m),500,233266.5,233266,230183.756,230189.89999997616,230200.422,233283.632,8,400,25,,ISIC_0032790.JPG
break,html.Screen,4_24_1,2023-09-16T02:42:14.484Z,,0,,,NaN,,,,,,false,,,,233267.39999997616,233267.29999995232,,233266.79999995232,,233283.632,8,400,,,
break_continue,html.Screen,4_24_2,2023-09-16T02:42:14.484Z,,0,,,NaN,,,,,,false,,,,233267.79999995232,233267.69999998808,,233267.59999996424,,233283.632,8,400,,,
sequence,flow.Sequence,4_24,2023-09-16T02:42:14.484Z,,0,,,3067.2779999880877,completion,,,,,false,,,,233268,233267.69999998808,230183.756,230189.89999997616,230200.422,233283.632,8,400,,,
trial,html.Screen,4_25_0,2023-09-16T02:42:17.963Z,,0,1,,3463.267999976146,response,ISIC_4425766.JPG,8,ISIC_0033616.JPG,ISIC_4425766.JPG,false,1,keypress(m),500,236747.29999995232,236746.89999997616,233266.966,233268.09999996424,233283.632,236750.16,8,400,26,,ISIC_0033616.JPG
break,html.Screen,4_25_1,2023-09-16T02:42:17.964Z,,0,,,NaN,,,,,,false,,,,236748.29999995232,236748.19999998808,,236747.59999996424,,236750.16,8,400,,,
break_continue,html.Screen,4_25_2,2023-09-16T02:42:17.965Z,,0,,,NaN,,,,,,false,,,,236748.69999998808,236748.5,,236748.39999997616,,236750.16,8,400,,,
sequence,flow.Sequence,4_25,2023-09-16T02:42:17.965Z,,0,,,3464.8679999999877,completion,,,,,false,,,,236748.89999997616,236748.5,233266.966,233268.09999996424,233283.632,236750.16,8,400,,,
trial,html.Screen,4_26_0,2023-09-16T02:42:21.857Z,,0,1,,3890.8399999999965,response,ISIC_0009947.JPG,8,ISIC_0031005.JPG,ISIC_0009947.JPG,false,1,keypress(m),500,240641.39999997616,240641,236733.494,236749,236750.16,240650.394,8,400,27,,ISIC_0031005.JPG
break,html.Screen,4_26_1,2023-09-16T02:42:21.858Z,,0,,,NaN,,,,,,false,,,,240642.29999995232,240642.09999996424,,240641.59999996424,,240650.394,8,400,,,
break_continue,html.Screen,4_26_2,2023-09-16T02:42:21.859Z,,0,,,NaN,,,,,,false,,,,240642.69999998808,240642.59999996424,,240642.5,,240650.394,8,400,,,
sequence,flow.Sequence,4_26,2023-09-16T02:42:21.859Z,,0,,,3892.4399999642337,completion,,,,,false,,,,240642.79999995232,240642.59999996424,236733.494,236749,236750.16,240650.394,8,400,,,
trial,html.Screen,4_27_0,2023-09-16T02:42:25.174Z,,0,1,,3306.805999988079,response,ISIC_0008055.JPG,8,ISIC_4897852.JPG,ISIC_0008055.JPG,false,1,keypress(m),500,243957.69999998808,243957.19999998808,240633.728,240643,240650.394,243966.928,8,400,28,,ISIC_4897852.JPG
break,html.Screen,4_27_1,2023-09-16T02:42:25.175Z,,0,,,NaN,,,,,,false,,,,243958.59999996424,243958.39999997616,,243958,,243966.928,8,400,,,
break_continue,html.Screen,4_27_2,2023-09-16T02:42:25.175Z,,0,,,NaN,,,,,,false,,,,243959,243958.89999997616,,243958.79999995232,,243966.928,8,400,,,
sequence,flow.Sequence,4_27,2023-09-16T02:42:25.175Z,,0,,,3308.505999976158,completion,,,,,false,,,,243959.19999998808,243958.89999997616,240633.728,240642.89999997616,240650.394,243966.928,8,400,,,
trial,html.Screen,4_28_0,2023-09-16T02:42:29.588Z,,0,1,,4404.671999964223,response,ISIC_0069056.JPG,7,ISIC_0015023.JPG,ISIC_0069056.JPG,false,1,keypress(m),500,248372,248371.59999996424,243950.262,243959.39999997616,243966.928,248383.418,8,400,29,,ISIC_0015023.JPG
break,html.Screen,4_28_1,2023-09-16T02:42:29.589Z,,0,,,NaN,,,,,,false,,,,248373,248372.69999998808,,248372.29999995232,,248383.418,8,400,,,
break_continue,html.Screen,4_28_2,2023-09-16T02:42:29.589Z,,0,,,NaN,,,,,,false,,,,248373.29999995232,248373.19999998808,,248373.09999996424,,248383.418,8,400,,,
sequence,flow.Sequence,4_28,2023-09-16T02:42:29.590Z,,0,,,4406.271999988065,completion,,,,,false,,,,248373.5,248373.19999998808,243950.262,243959.29999995232,243966.928,248383.418,8,400,,,
trial,html.Screen,4_29_0,2023-09-16T02:42:32.363Z,,0,1,,2763.181999964232,response,ISIC_0010724.JPG,8,ISIC_0027145.JPG,ISIC_0027145.JPG,false,0,keypress(z),500,251146.89999997616,251146.59999996424,248366.752,248373.59999996424,248383.418,251150.412,8,400,30,,ISIC_0010724.JPG
break,html.Screen,4_29_1,2023-09-16T02:42:32.364Z,,0,,,NaN,,,,,,false,,,,251147.59999996424,251147.5,,251147.09999996424,,251150.412,8,400,,,
break_continue,html.Screen,4_29_2,2023-09-16T02:42:32.364Z,,0,,,NaN,,,,,,false,,,,251147.69999998808,251147.69999998808,,251147.59999996424,,251150.412,8,400,,,
sequence,flow.Sequence,4_29,2023-09-16T02:42:32.364Z,,0,,,2764.281999988074,completion,,,,,false,,,,251147.89999997616,251147.69999998808,248366.752,248373.59999996424,248383.418,251150.412,8,400,,,
trial,html.Screen,4_30_0,2023-09-16T02:42:35.425Z,,0,1,,3057.787999988068,response,ISIC_4407580.JPG,8,ISIC_8190708.JPG,ISIC_8190708.JPG,false,0,keypress(z),500,254208.59999996424,254208.19999998808,251133.746,251147.89999997616,251150.412,254216.956,8,400,31,,ISIC_4407580.JPG
break,html.Screen,4_30_1,2023-09-16T02:42:35.426Z,,0,,,NaN,,,,,,false,,,,254209.69999998808,254209.5,,254208.89999997616,,254216.956,8,400,,,
break_continue,html.Screen,4_30_2,2023-09-16T02:42:35.426Z,,0,,,NaN,,,,,,false,,,,254210.09999996424,254210,,254209.79999995232,,254216.956,8,400,,,
sequence,flow.Sequence,4_30,2023-09-16T02:42:35.426Z,,0,,,3059.587999999989,completion,,,,,false,,,,254210.19999998808,254210,251133.746,251147.89999997616,251150.412,254216.956,8,400,,,
trial,html.Screen,4_31_0,2023-09-16T02:42:39.093Z,,0,1,,3659.6439999642316,response,ISIC_7763042.JPG,7,ISIC_0064344.JPG,ISIC_0064344.JPG,false,0,keypress(z),500,257877,257876.59999996424,254200.29,254210.39999997616,254216.956,257883.476,8,400,32,,ISIC_7763042.JPG
break,html.Screen,4_31_1,2023-09-16T02:42:39.094Z,,0,,,NaN,,,,,,false,,,,257878,257877.79999995232,,257877.39999997616,,257883.476,8,400,,,
break_continue,html.Screen,4_31_2,2023-09-16T02:42:39.095Z,,0,,,NaN,,,,,,false,,,,257878.39999997616,257878.29999995232,,257878.09999996424,,257883.476,8,400,,,
sequence,flow.Sequence,4_31,2023-09-16T02:42:39.095Z,,0,,,3661.3439999523107,completion,,,,,false,,,,257878.59999996424,257878.29999995232,254200.29,254210.39999997616,254216.956,257883.476,8,400,,,
trial,html.Screen,4_32_0,2023-09-16T02:42:42.724Z,,0,1,,3624.223999988084,response,ISIC_1175170.JPG,7,ISIC_8551124.JPG,ISIC_1175170.JPG,false,1,keypress(m),500,261508.09999996424,261507.69999998808,257866.81,257878.69999998808,257883.476,261517.092,8,400,33,,ISIC_8551124.JPG
break,html.Screen,4_32_1,2023-09-16T02:42:42.725Z,,0,,,NaN,,,,,,false,,,,261509.09999996424,261508.79999995232,,261508.39999997616,,261517.092,8,400,,,
break_continue,html.Screen,4_32_2,2023-09-16T02:42:42.726Z,,0,,,NaN,,,,,,false,,,,261509.5,261509.39999997616,,261509.29999995232,,261517.092,8,400,,,
sequence,flow.Sequence,4_32,2023-09-16T02:42:42.726Z,,0,,,3625.923999976163,completion,,,,,false,,,,261509.69999998808,261509.39999997616,257866.81,257878.69999998808,257883.476,261517.092,8,400,,,
trial,html.Screen,4_33_0,2023-09-16T02:42:46.073Z,,0,1,,3339.407999999996,response,ISIC_0000547.JPG,8,ISIC_1343302.JPG,ISIC_1343302.JPG,false,0,keypress(z),500,264856.89999997616,264856.5,261500.426,261509.79999995232,261517.092,264866.958,8,400,34,,ISIC_0000547.JPG
break,html.Screen,4_33_1,2023-09-16T02:42:46.074Z,,0,,,NaN,,,,,,false,,,,264857.7999999523,264857.6999999881,,264857.1999999881,,264866.958,8,400,,,
break_continue,html.Screen,4_33_2,2023-09-16T02:42:46.075Z,,0,,,NaN,,,,,,false,,,,264858.2999999523,264858.1999999881,,264858.09999996424,,264866.958,8,400,,,
sequence,flow.Sequence,4_33,2023-09-16T02:42:46.075Z,,0,,,3341.107999988075,completion,,,,,false,,,,264858.39999997616,264858.1999999881,261500.426,261509.79999995232,261517.092,264866.958,8,400,,,
trial,html.Screen,4_34_0,2023-09-16T02:42:49.936Z,,0,1,,3852.042000000016,response,ISIC_4358550.JPG,8,ISIC_0262770.JPG,ISIC_4358550.JPG,false,1,keypress(m),500,268719.5,268719,264850.292,264858.59999996424,264866.958,268733.47,8,400,35,,ISIC_0262770.JPG
break,html.Screen,4_34_1,2023-09-16T02:42:49.937Z,,0,,,NaN,,,,,,false,,,,268720.5,268720.2999999523,,268719.7999999523,,268733.47,8,400,,,
break_continue,html.Screen,4_34_2,2023-09-16T02:42:49.937Z,,0,,,NaN,,,,,,false,,,,268720.7999999523,268720.6999999881,,268720.6999999881,,268733.47,8,400,,,
sequence,flow.Sequence,4_34,2023-09-16T02:42:49.937Z,,0,,,3853.741999988095,completion,,,,,false,,,,268721.09999996424,268720.6999999881,264850.292,264858.5,264866.958,268733.47,8,400,,,
trial,html.Screen,4_35_0,2023-09-16T02:42:53.110Z,,0,1,,3159.530000000028,response,ISIC_6620377.JPG,8,ISIC_0071168.JPG,ISIC_0071168.JPG,false,0,keypress(z),500,271893.39999997616,271893,268716.804,268721.09999996424,268733.47,271900.441,8,400,36,,ISIC_6620377.JPG
break,html.Screen,4_35_1,2023-09-16T02:42:53.111Z,,0,,,NaN,,,,,,false,,,,271894.39999997616,271894.09999996424,,271893.6999999881,,271900.441,8,400,,,
break_continue,html.Screen,4_35_2,2023-09-16T02:42:53.111Z,,0,,,NaN,,,,,,false,,,,271894.7999999523,271894.59999996424,,271894.5,,271900.441,8,400,,,
sequence,flow.Sequence,4_35,2023-09-16T02:42:53.111Z,,0,,,3161.129999964265,completion,,,,,false,,,,271894.89999997616,271894.59999996424,268716.804,268721.09999996424,268733.47,271900.441,8,400,,,
trial,html.Screen,4_36_0,2023-09-16T02:42:55.898Z,,0,1,,2780.9589999761665,response,ISIC_8190708.JPG,8,ISIC_0000144.JPG,ISIC_8190708.JPG,false,1,keypress(m),500,274681.6999999881,274681.39999997616,271883.775,271895.09999996424,271900.441,274683.663,8,400,37,,ISIC_0000144.JPG
break,html.Screen,4_36_1,2023-09-16T02:42:55.899Z,,0,,,NaN,,,,,,false,,,,274682.6999999881,274682.59999996424,,274682.09999996424,,274683.663,8,400,,,
break_continue,html.Screen,4_36_2,2023-09-16T02:42:55.899Z,,0,,,NaN,,,,,,false,,,,274683,274683,,274682.7999999523,,274683.663,8,400,,,
sequence,flow.Sequence,4_36,2023-09-16T02:42:55.900Z,,0,,,2782.5590000000084,completion,,,,,false,,,,274683.1999999881,274683,271883.775,271895,271900.441,274683.663,8,400,,,
trial,html.Screen,4_37_0,2023-09-16T02:42:58.672Z,,0,1,,2771.5369999880786,response,ISIC_4978039.JPG,8,ISIC_6486856.JPG,ISIC_4978039.JPG,false,1,keypress(m),500,277455.6999999881,277455.1999999881,274666.997,274683.39999997616,274683.663,277466.885,8,400,38,,ISIC_6486856.JPG
break,html.Screen,4_37_1,2023-09-16T02:42:58.673Z,,0,,,NaN,,,,,,false,,,,277456.59999996424,277456.5,,277456,,277466.885,8,400,,,
break_continue,html.Screen,4_37_2,2023-09-16T02:42:58.673Z,,0,,,NaN,,,,,,false,,,,277457.09999996424,277456.89999997616,,277456.7999999523,,277466.885,8,400,,,
sequence,flow.Sequence,4_37,2023-09-16T02:42:58.674Z,,0,,,2773.2369999761577,completion,,,,,false,,,,277457.1999999881,277456.89999997616,274666.997,274683.39999997616,274683.663,277466.885,8,400,,,
trial,html.Screen,4_38_0,2023-09-16T02:43:01.687Z,,0,1,,3003.714999964228,response,ISIC_8626909.JPG,6,ISIC_4745475.JPG,ISIC_4745475.JPG,false,0,keypress(z),500,280471,280470.59999996424,277450.219,277457.39999997616,277466.885,280483.431,8,400,39,,ISIC_8626909.JPG
break,html.Screen,4_38_1,2023-09-16T02:43:01.688Z,,0,,,NaN,,,,,,false,,,,280472,280471.7999999523,,280471.2999999523,,280483.431,8,400,,,
break_continue,html.Screen,4_38_2,2023-09-16T02:43:01.689Z,,0,,,NaN,,,,,,false,,,,280472.39999997616,280472.1999999881,,280472.09999996424,,280483.431,8,400,,,
sequence,flow.Sequence,4_38,2023-09-16T02:43:01.689Z,,0,,,3005.3149999880698,completion,,,,,false,,,,280472.5,280472.1999999881,277450.219,277457.2999999523,277466.885,280483.431,8,400,,,
trial,html.Screen,4_39_0,2023-09-16T02:43:04.380Z,,0,1,,2679.868999952334,response,ISIC_0065582.JPG,5,ISIC_6792899.JPG,ISIC_6792899.JPG,false,0,keypress(z),500,283163.6999999881,283163.2999999523,280466.765,280472.6999999881,280483.431,283167.087,8,400,40,,ISIC_0065582.JPG
break,html.Screen,4_39_1,2023-09-16T02:43:04.381Z,,0,,,NaN,,,,,,false,,,,283164.59999996424,283164.5,,283164,,283167.087,8,400,,,
break_continue,html.Screen,4_39_2,2023-09-16T02:43:04.382Z,,0,,,NaN,,,,,,false,,,,283165.09999996424,283165,,283164.89999997616,,283167.087,8,400,,,
sequence,flow.Sequence,4_39,2023-09-16T02:43:04.382Z,,0,,,2681.5690000000177,completion,,,,,false,,,,283165.2999999523,283165,280466.765,280472.6999999881,280483.431,283167.087,8,400,,,
trial,html.Screen,4_40_0,2023-09-16T02:43:07.074Z,,0,1,,2690.6129999880795,response,ISIC_0011855.JPG,5,ISIC_0010965.JPG,ISIC_0011855.JPG,false,1,keypress(m),500,285858.09999996424,285857.6999999881,283150.421,283165.5,283167.087,285866.979,8,400,41,,ISIC_0010965.JPG
break,html.Screen,4_40_1,2023-09-16T02:43:07.075Z,,0,,,NaN,,,,,,false,,,,285859.09999996424,285858.89999997616,,285858.2999999523,,285866.979,8,400,,,
break_continue,html.Screen,4_40_2,2023-09-16T02:43:07.076Z,,0,,,NaN,,,,,,false,,,,285859.39999997616,285859.2999999523,,285859.09999996424,,285866.979,8,400,,,
sequence,flow.Sequence,4_40,2023-09-16T02:43:07.076Z,,0,,,2692.2129999523167,completion,,,,,false,,,,285859.6999999881,285859.2999999523,283150.421,283165.5,283167.087,285866.979,8,400,,,
trial,html.Screen,4_41_0,2023-09-16T02:43:09.786Z,,0,1,,2701.920999976166,response,ISIC_8133871.JPG,5,ISIC_0071040.JPG,ISIC_8133871.JPG,false,1,keypress(m),500,288569.2999999523,288568.89999997616,285850.313,285859.7999999523,285866.979,288583.537,8,400,42,,ISIC_0071040.JPG
break,html.Screen,4_41_1,2023-09-16T02:43:09.787Z,,0,,,NaN,,,,,,false,,,,288570.1999999881,288570.09999996424,,288569.5,,288583.537,8,400,,,
break_continue,html.Screen,4_41_2,2023-09-16T02:43:09.787Z,,0,,,NaN,,,,,,false,,,,288570.59999996424,288570.5,,288570.39999997616,,288583.537,8,400,,,
sequence,flow.Sequence,4_41,2023-09-16T02:43:09.787Z,,0,,,2703.521000000008,completion,,,,,false,,,,288570.7999999523,288570.5,285850.313,285859.7999999523,285866.979,288583.537,8,400,,,
trial,html.Screen,4_42_0,2023-09-16T02:43:12.561Z,,0,1,,2760.462999999989,response,ISIC_8713330.JPG,8,ISIC_5239856.JPG,ISIC_8713330.JPG,false,1,keypress(m),500,291344.2999999523,291344,288566.871,288571,288583.537,291350.093,8,400,43,,ISIC_5239856.JPG
break,html.Screen,4_42_1,2023-09-16T02:43:12.562Z,,0,,,NaN,,,,,,false,,,,291345.2999999523,291345.09999996424,,291344.59999996424,,291350.093,8,400,,,
break_continue,html.Screen,4_42_2,2023-09-16T02:43:12.562Z,,0,,,NaN,,,,,,false,,,,291345.6999999881,291345.59999996424,,291345.5,,291350.093,8,400,,,
sequence,flow.Sequence,4_42,2023-09-16T02:43:12.562Z,,0,,,2762.062999964226,completion,,,,,false,,,,291345.89999997616,291345.59999996424,288566.871,288570.7999999523,288583.537,291350.093,8,400,,,
trial,html.Screen,4_43_0,2023-09-16T02:43:15.403Z,,0,1,,2836.4070000000065,response,ISIC_0011286.JPG,8,ISIC_0031891.JPG,ISIC_0031891.JPG,false,0,keypress(z),500,294186.7999999523,294186.5,291333.427,291346.09999996424,291350.093,294200.427,8,400,44,,ISIC_0011286.JPG
break,html.Screen,4_43_1,2023-09-16T02:43:15.404Z,,0,,,NaN,,,,,,false,,,,294187.5,294187.2999999523,,294187,,294200.427,8,400,,,
break_continue,html.Screen,4_43_2,2023-09-16T02:43:15.404Z,,0,,,NaN,,,,,,false,,,,294187.7999999523,294187.7999999523,,294187.59999996424,,294200.427,8,400,,,
sequence,flow.Sequence,4_43,2023-09-16T02:43:15.404Z,,0,,,2837.706999952323,completion,,,,,false,,,,294187.89999997616,294187.7999999523,291333.427,291345.89999997616,291350.093,294200.427,8,400,,,
trial,html.Screen,4_44_0,2023-09-16T02:43:18.172Z,,0,1,,2755.072999999975,response,ISIC_0068950.JPG,8,ISIC_0030922.JPG,ISIC_0030922.JPG,false,0,keypress(z),500,296956,296955.5,294183.761,294188.09999996424,294200.427,296966.983,8,400,45,,ISIC_0068950.JPG
break,html.Screen,4_44_1,2023-09-16T02:43:18.173Z,,0,,,NaN,,,,,,false,,,,296957,296956.6999999881,,296956.2999999523,,296966.983,8,400,,,
break_continue,html.Screen,4_44_2,2023-09-16T02:43:18.174Z,,0,,,NaN,,,,,,false,,,,296957.39999997616,296957.1999999881,,296957.09999996424,,296966.983,8,400,,,
sequence,flow.Sequence,4_44,2023-09-16T02:43:18.174Z,,0,,,2756.772999988054,completion,,,,,false,,,,296957.5,296957.1999999881,294183.761,294188.09999996424,294200.427,296966.983,8,400,,,
trial,html.Screen,4_45_0,2023-09-16T02:43:20.882Z,,0,1,,2697.9169999761507,response,ISIC_4875370.JPG,7,ISIC_0025355.JPG,ISIC_4875370.JPG,false,1,keypress(m),500,299665.2999999523,299664.89999997616,296950.317,296957.59999996424,296966.983,299666.875,8,400,46,,ISIC_0025355.JPG
break,html.Screen,4_45_1,2023-09-16T02:43:20.883Z,,0,,,NaN,,,,,,false,,,,299666.2999999523,299666.09999996424,,299665.59999996424,,299666.875,8,400,,,
break_continue,html.Screen,4_45_2,2023-09-16T02:43:20.883Z,,0,,,NaN,,,,,,false,,,,299666.6999999881,299666.59999996424,,299666.5,,299666.875,8,400,,,
sequence,flow.Sequence,4_45,2023-09-16T02:43:20.883Z,,0,,,2699.6169999642298,completion,,,,,false,,,,299666.89999997616,299666.59999996424,296950.317,296957.59999996424,296966.983,299666.875,8,400,,,
trial,html.Screen,4_46_0,2023-09-16T02:43:23.704Z,,0,1,,2820.024999976158,response,ISIC_0011398.JPG,8,ISIC_0046345.JPG,ISIC_0046345.JPG,false,0,keypress(z),500,302487.1999999881,302486.89999997616,299650.209,299667,299666.875,302500.095,8,400,47,,ISIC_0011398.JPG
break,html.Screen,4_46_1,2023-09-16T02:43:23.705Z,,0,,,NaN,,,,,,false,,,,302488.39999997616,302488.09999996424,,302487.59999996424,,302500.095,8,400,,,
break_continue,html.Screen,4_46_2,2023-09-16T02:43:23.705Z,,0,,,NaN,,,,,,false,,,,302488.7999999523,302488.6999999881,,302488.5,,302500.095,8,400,,,
sequence,flow.Sequence,4_46,2023-09-16T02:43:23.705Z,,0,,,2821.824999988079,completion,,,,,false,,,,302489,302488.6999999881,299650.209,299666.89999997616,299666.875,302500.095,8,400,,,
trial,html.Screen,4_47_0,2023-09-16T02:43:26.671Z,,0,1,,2953.604999988107,response,ISIC_3952694.JPG,8,ISIC_7658729.JPG,ISIC_7658729.JPG,false,0,keypress(z),500,305454.1999999881,305453.6999999881,302483.429,302489.09999996424,302500.095,305467.057,8,400,48,,ISIC_3952694.JPG
break,html.Screen,4_47_1,2023-09-16T02:43:26.672Z,,0,,,NaN,,,,,,false,,,,305455.1999999881,305454.89999997616,,305454.5,,305467.057,8,400,,,
break_continue,html.Screen,4_47_2,2023-09-16T02:43:26.672Z,,0,,,NaN,,,,,,false,,,,305455.5,305455.5,,305455.2999999523,,305467.057,8,400,,,
sequence,flow.Sequence,4_47,2023-09-16T02:43:26.672Z,,0,,,2955.405000000028,completion,,,,,false,,,,305455.6999999881,305455.5,302483.429,302489.09999996424,302500.095,305467.057,8,400,,,
trial,html.Screen,4_48_0,2023-09-16T02:43:29.420Z,,0,1,,2735.7429999523447,response,ISIC_0000077.JPG,6,ISIC_0056092.JPG,ISIC_0056092.JPG,false,0,keypress(z),500,308203.1999999881,308202.7999999523,305450.391,305455.89999997616,305467.057,308216.947,8,400,49,,ISIC_0000077.JPG
break,html.Screen,4_48_1,2023-09-16T02:43:29.421Z,,0,,,NaN,,,,,,false,,,,308204.1999999881,308203.89999997616,,308203.5,,308216.947,8,400,,,
break_continue,html.Screen,4_48_2,2023-09-16T02:43:29.421Z,,0,,,NaN,,,,,,false,,,,308204.5,308204.5,,308204.2999999523,,308216.947,8,400,,,
sequence,flow.Sequence,4_48,2023-09-16T02:43:29.421Z,,0,,,2737.4430000000284,completion,,,,,false,,,,308204.6999999881,308204.5,305450.391,305455.7999999523,305467.057,308216.947,8,400,,,
trial,html.Screen,4_49_0,2023-09-16T02:43:32.559Z,,0,1,,3125.3529999523307,response,ISIC_0015193.JPG,8,ISIC_0029881.JPG,ISIC_0015193.JPG,false,1,keypress(m),500,311342.6999999881,311342.2999999523,308200.281,308204.89999997616,308216.947,311350.155,8,400,50,,ISIC_0029881.JPG
break,html.Screen,4_49_1,2023-09-16T02:43:42.554Z,,0,,,10000.010999999999,timeout,,,,,false,,,,321338,321333.5,311333.489,311343,311350.155,321350.166,8,400,,,
break_continue,html.Screen,4_49_2,2023-09-16T02:43:43.633Z,,0,,,1056.0339999880525,response,,,,,false,continue,keypress(Space),,322416.39999997616,322406.1999999881,321333.5,321338.1999999881,321350.166,322433.456,8,400,,,
sequence,flow.Sequence,4_49,2023-09-16T02:43:43.633Z,,0,,,14189.252999988094,completion,,,,,false,,,,322416.6999999881,322406.1999999881,308200.281,308204.7999999523,308216.947,322433.456,8,400,,,
trial,html.Screen,4_50_0,2023-09-16T02:43:47.164Z,,0,2,,3513.4439999761526,response,ISIC_3009877.JPG,9,ISIC_3902917.JPG,ISIC_3902917.JPG,false,0,keypress(z),500,325947.1999999881,325946.89999997616,322416.79,322416.6999999881,322433.456,325950.392,8,400,1,,ISIC_3009877.JPG
break,html.Screen,4_50_1,2023-09-16T02:43:47.165Z,,0,,,NaN,,,,,,false,,,,325948.2999999523,325948,,325947.59999996424,,325950.392,8,400,,,
break_continue,html.Screen,4_50_2,2023-09-16T02:43:47.165Z,,0,,,NaN,,,,,,false,,,,325948.59999996424,325948.5,,325948.39999997616,,325950.392,8,400,,,
sequence,flow.Sequence,4_50,2023-09-16T02:43:47.165Z,,0,,,3515.0439999999944,completion,,,,,false,,,,325948.7999999523,325948.5,322416.79,322416.6999999881,322433.456,325950.392,8,400,,,
trial,html.Screen,4_51_0,2023-09-16T02:43:51.523Z,,0,2,,4355.407999952324,response,ISIC_0002675.JPG,8,ISIC_0033265.JPG,ISIC_0033265.JPG,false,0,keypress(z),500,330306.1999999881,330305.7999999523,325933.726,325948.89999997616,325950.392,330316.884,8,400,2,,ISIC_0002675.JPG
break,html.Screen,4_51_1,2023-09-16T02:43:51.524Z,,0,,,NaN,,,,,,false,,,,330307.09999996424,330307,,330306.5,,330316.884,8,400,,,
break_continue,html.Screen,4_51_2,2023-09-16T02:43:51.524Z,,0,,,NaN,,,,,,false,,,,330307.5,330307.39999997616,,330307.2999999523,,330316.884,8,400,,,
sequence,flow.Sequence,4_51,2023-09-16T02:43:51.524Z,,0,,,4357.007999976166,completion,,,,,false,,,,330307.6999999881,330307.39999997616,325933.726,325948.89999997616,325950.392,330316.884,8,400,,,
trial,html.Screen,4_52_0,2023-09-16T02:43:54.505Z,,0,2,,2971.4159999522963,response,ISIC_8626787.JPG,6,ISIC_0070731.JPG,ISIC_8626787.JPG,false,1,keypress(m),500,333288.6999999881,333288.2999999523,330300.218,330307.7999999523,330316.884,333300.098,8,400,3,,ISIC_0070731.JPG
break,html.Screen,4_52_1,2023-09-16T02:43:54.506Z,,0,,,NaN,,,,,,false,,,,333289.59999996424,333289.39999997616,,333288.89999997616,,333300.098,8,400,,,
break_continue,html.Screen,4_52_2,2023-09-16T02:43:54.506Z,,0,,,NaN,,,,,,false,,,,333290,333289.7999999523,,333289.6999999881,,333300.098,8,400,,,
sequence,flow.Sequence,4_52,2023-09-16T02:43:54.507Z,,0,,,2972.9159999522963,completion,,,,,false,,,,333290.1999999881,333289.7999999523,330300.218,330307.7999999523,330316.884,333300.098,8,400,,,
trial,html.Screen,4_53_0,2023-09-16T02:43:57.632Z,,0,2,,3114.601999988081,response,ISIC_0027132.JPG,8,ISIC_0012887.JPG,ISIC_0027132.JPG,false,1,keypress(m),500,336415.09999996424,336414.6999999881,333283.432,333290.2999999523,333300.098,336417.12,8,400,4,,ISIC_0012887.JPG
break,html.Screen,4_53_1,2023-09-16T02:43:57.633Z,,0,,,NaN,,,,,,false,,,,336416.09999996424,336415.7999999523,,336415.39999997616,,336417.12,8,400,,,
break_continue,html.Screen,4_53_2,2023-09-16T02:43:57.633Z,,0,,,NaN,,,,,,false,,,,336416.39999997616,336416.2999999523,,336416.1999999881,,336417.12,8,400,,,
sequence,flow.Sequence,4_53,2023-09-16T02:43:57.633Z,,0,,,3116.201999952318,completion,,,,,false,,,,336416.59999996424,336416.2999999523,333283.432,333290.2999999523,333300.098,336417.12,8,400,,,
trial,html.Screen,4_54_0,2023-09-16T02:44:03.142Z,,0,2,,5508.079999988084,response,ISIC_4532303.JPG,8,ISIC_0033424.JPG,ISIC_4532303.JPG,false,1,keypress(m),500,341925.6999999881,341925.1999999881,336400.454,336416.6999999881,336417.12,341933.566,8,400,5,,ISIC_0033424.JPG
break,html.Screen,4_54_1,2023-09-16T02:44:03.143Z,,0,,,NaN,,,,,,false,,,,341926.59999996424,341926.39999997616,,341925.89999997616,,341933.566,8,400,,,
break_continue,html.Screen,4_54_2,2023-09-16T02:44:03.144Z,,0,,,NaN,,,,,,false,,,,341927,341926.7999999523,,341926.6999999881,,341933.566,8,400,,,
sequence,flow.Sequence,4_54,2023-09-16T02:44:03.144Z,,0,,,5509.679999952321,completion,,,,,false,,,,341927.1999999881,341926.7999999523,336400.454,336416.6999999881,336417.12,341933.566,8,400,,,
trial,html.Screen,4_55_0,2023-09-16T02:44:05.989Z,,0,2,,2838.2339999523247,response,ISIC_1793821.JPG,8,ISIC_4678416.JPG,ISIC_4678416.JPG,false,0,keypress(z),500,344772.1999999881,344771.7999999523,341916.9,341927.2999999523,341933.566,344783.452,8,400,6,,ISIC_1793821.JPG
break,html.Screen,4_55_1,2023-09-16T02:44:05.990Z,,0,,,NaN,,,,,,false,,,,344773.1999999881,344773,,344772.5,,344783.452,8,400,,,
break_continue,html.Screen,4_55_2,2023-09-16T02:44:05.990Z,,0,,,NaN,,,,,,false,,,,344773.59999996424,344773.39999997616,,344773.2999999523,,344783.452,8,400,,,
sequence,flow.Sequence,4_55,2023-09-16T02:44:05.990Z,,0,,,2839.8339999761665,completion,,,,,false,,,,344773.6999999881,344773.39999997616,341916.9,341927.1999999881,341933.566,344783.452,8,400,,,
trial,html.Screen,4_56_0,2023-09-16T02:44:10.459Z,,0,2,,4458.747999988089,response,ISIC_0013997.JPG,7,ISIC_8916136.JPG,ISIC_8916136.JPG,false,0,keypress(z),500,349242.5,349242.1999999881,344766.786,344773.7999999523,344783.452,349250.367,8,400,7,,ISIC_0013997.JPG
break,html.Screen,4_56_1,2023-09-16T02:44:10.460Z,,0,,,NaN,,,,,,false,,,,349243.59999996424,349243.2999999523,,349242.89999997616,,349250.367,8,400,,,
break_continue,html.Screen,4_56_2,2023-09-16T02:44:10.461Z,,0,,,NaN,,,,,,false,,,,349243.89999997616,349243.89999997616,,349243.6999999881,,349250.367,8,400,,,
sequence,flow.Sequence,4_56,2023-09-16T02:44:10.461Z,,0,,,4460.447999976168,completion,,,,,false,,,,349244.09999996424,349243.89999997616,344766.786,344773.7999999523,344783.452,349250.367,8,400,,,
trial,html.Screen,4_57_0,2023-09-16T02:44:14.082Z,,0,2,,3614.3329999880516,response,ISIC_4648593.JPG,7,ISIC_5382189.JPG,ISIC_5382189.JPG,false,0,keypress(z),500,352865,352864.6999999881,349233.701,349244.2999999523,349250.367,352866.889,8,400,8,,ISIC_4648593.JPG
break,html.Screen,4_57_1,2023-09-16T02:44:14.083Z,,0,,,NaN,,,,,,false,,,,352866,352865.7999999523,,352865.2999999523,,352866.889,8,400,,,
break_continue,html.Screen,4_57_2,2023-09-16T02:44:14.083Z,,0,,,NaN,,,,,,false,,,,352866.39999997616,352866.2999999523,,352866.09999996424,,352866.889,8,400,,,
sequence,flow.Sequence,4_57,2023-09-16T02:44:14.083Z,,0,,,3615.932999952289,completion,,,,,false,,,,352866.5,352866.2999999523,349233.701,349244.1999999881,349250.367,352866.889,8,400,,,
trial,html.Screen,4_58_0,2023-09-16T02:44:17.275Z,,0,2,,3191.7109999642125,response,ISIC_0026198.JPG,8,ISIC_4663883.JPG,ISIC_0026198.JPG,false,1,keypress(m),500,356058.89999997616,356058.59999996424,352850.223,352866.59999996424,352866.889,356067.201,8,400,9,,ISIC_4663883.JPG
break,html.Screen,4_58_1,2023-09-16T02:44:17.276Z,,0,,,NaN,,,,,,false,,,,356059.5,356059.39999997616,,356059.09999996424,,356067.201,8,400,,,
break_continue,html.Screen,4_58_2,2023-09-16T02:44:17.276Z,,0,,,NaN,,,,,,false,,,,356059.6999999881,356059.6999999881,,356059.59999996424,,356067.201,8,400,,,
sequence,flow.Sequence,4_58,2023-09-16T02:44:17.276Z,,0,,,3192.8109999880544,completion,,,,,false,,,,356059.89999997616,356059.6999999881,352850.223,352866.59999996424,352866.889,356067.201,8,400,,,
trial,html.Screen,4_59_0,2023-09-16T02:44:20.574Z,,0,2,,3289.5989999523154,response,ISIC_9364740.JPG,8,ISIC_6487809.JPG,ISIC_9364740.JPG,false,1,keypress(m),500,359357.2999999523,359356.7999999523,356050.535,356059.89999997616,356067.201,359367.069,8,400,10,,ISIC_6487809.JPG
break,html.Screen,4_59_1,2023-09-16T02:44:20.575Z,,0,,,NaN,,,,,,false,,,,359358.2999999523,359358,,359357.5,,359367.069,8,400,,,
break_continue,html.Screen,4_59_2,2023-09-16T02:44:20.575Z,,0,,,NaN,,,,,,false,,,,359358.59999996424,359358.5,,359358.39999997616,,359367.069,8,400,,,
sequence,flow.Sequence,4_59,2023-09-16T02:44:20.576Z,,0,,,3291.298999999999,completion,,,,,false,,,,359358.89999997616,359358.5,356050.535,356059.89999997616,356067.201,359367.069,8,400,,,
trial,html.Screen,4_60_0,2023-09-16T02:44:23.395Z,,0,2,,2811.0309999642195,response,ISIC_3485482.JPG,9,ISIC_0361149.JPG,ISIC_0361149.JPG,false,0,keypress(z),500,362178.39999997616,362178.09999996424,359350.403,359359,359367.069,362183.623,8,400,11,,ISIC_3485482.JPG
break,html.Screen,4_60_1,2023-09-16T02:44:23.396Z,,0,,,NaN,,,,,,false,,,,362179.5,362179.2999999523,,362178.7999999523,,362183.623,8,400,,,
break_continue,html.Screen,4_60_2,2023-09-16T02:44:23.396Z,,0,,,NaN,,,,,,false,,,,362179.7999999523,362179.6999999881,,362179.59999996424,,362183.623,8,400,,,
sequence,flow.Sequence,4_60,2023-09-16T02:44:23.397Z,,0,,,2812.6309999880614,completion,,,,,false,,,,362180,362179.6999999881,359350.403,359359,359367.069,362183.623,8,400,,,
trial,html.Screen,4_61_0,2023-09-16T02:44:27.845Z,,0,2,,4444.576999988058,response,ISIC_0024735.JPG,8,ISIC_0027411.JPG,ISIC_0024735.JPG,false,1,keypress(m),500,366628.6999999881,366628.1999999881,362166.957,362180.09999996424,362183.623,366633.856,8,400,12,,ISIC_0027411.JPG
break,html.Screen,4_61_1,2023-09-16T02:44:27.846Z,,0,,,NaN,,,,,,false,,,,366629.59999996424,366629.5,,366628.89999997616,,366633.856,8,400,,,
break_continue,html.Screen,4_61_2,2023-09-16T02:44:27.847Z,,0,,,NaN,,,,,,false,,,,366630,366629.89999997616,,366629.7999999523,,366633.856,8,400,,,
sequence,flow.Sequence,4_61,2023-09-16T02:44:27.847Z,,0,,,4446.276999976137,completion,,,,,false,,,,366630.09999996424,366629.89999997616,362166.957,362180.09999996424,362183.623,366633.856,8,400,,,
trial,html.Screen,4_62_0,2023-09-16T02:44:31.708Z,,0,2,,3857.0439999761293,response,ISIC_8586909.JPG,8,ISIC_0060158.JPG,ISIC_8586909.JPG,false,1,keypress(m),500,370491.2999999523,370490.89999997616,366617.19,366630.1999999881,366633.856,370500.368,8,400,13,,ISIC_0060158.JPG
break,html.Screen,4_62_1,2023-09-16T02:44:31.709Z,,0,,,NaN,,,,,,false,,,,370492.1999999881,370492.09999996424,,370491.59999996424,,370500.368,8,400,,,
break_continue,html.Screen,4_62_2,2023-09-16T02:44:31.709Z,,0,,,NaN,,,,,,false,,,,370492.6999999881,370492.5,,370492.39999997616,,370500.368,8,400,,,
sequence,flow.Sequence,4_62,2023-09-16T02:44:31.709Z,,0,,,3858.643999999971,completion,,,,,false,,,,370492.7999999523,370492.5,366617.19,366630.1999999881,366633.856,370500.368,8,400,,,
trial,html.Screen,4_63_0,2023-09-16T02:44:35.410Z,,0,2,,3692.8319999880623,response,ISIC_0055435.JPG,9,ISIC_9222136.JPG,ISIC_9222136.JPG,false,0,keypress(z),500,374193.59999996424,374193.1999999881,370483.702,370492.89999997616,370500.368,374200.22,8,400,14,,ISIC_0055435.JPG
break,html.Screen,4_63_1,2023-09-16T02:44:35.411Z,,0,,,NaN,,,,,,false,,,,374194.59999996424,374194.39999997616,,374193.89999997616,,374200.22,8,400,,,
break_continue,html.Screen,4_63_2,2023-09-16T02:44:35.412Z,,0,,,NaN,,,,,,false,,,,374194.89999997616,374194.7999999523,,374194.6999999881,,374200.22,8,400,,,
sequence,flow.Sequence,4_63,2023-09-16T02:44:35.412Z,,0,,,3694.4319999522995,completion,,,,,false,,,,374195.09999996424,374194.7999999523,370483.702,370492.89999997616,370500.368,374200.22,8,400,,,
trial,html.Screen,4_64_0,2023-09-16T02:44:38.297Z,,0,2,,2879.879999964265,response,ISIC_9509813.JPG,7,ISIC_0061300.JPG,ISIC_9509813.JPG,false,1,keypress(m),500,377080.5,377080.09999996424,374183.554,374195.1999999881,374200.22,377083.867,8,400,15,,ISIC_0061300.JPG
break,html.Screen,4_64_1,2023-09-16T02:44:38.298Z,,0,,,NaN,,,,,,false,,,,377081.39999997616,377081.1999999881,,377080.6999999881,,377083.867,8,400,,,
break_continue,html.Screen,4_64_2,2023-09-16T02:44:38.298Z,,0,,,NaN,,,,,,false,,,,377081.7999999523,377081.59999996424,,377081.5,,377083.867,8,400,,,
sequence,flow.Sequence,4_64,2023-09-16T02:44:38.299Z,,0,,,2881.379999964265,completion,,,,,false,,,,377082,377081.59999996424,374183.554,374195.1999999881,374200.22,377083.867,8,400,,,
trial,html.Screen,4_65_0,2023-09-16T02:44:41.684Z,,0,2,,3383.2329999642097,response,ISIC_9053910.JPG,8,ISIC_2122488.JPG,ISIC_2122488.JPG,false,0,keypress(z),500,380467.5,380467.09999996424,377067.201,377082,377083.867,380483.731,8,400,16,,ISIC_9053910.JPG
break,html.Screen,4_65_1,2023-09-16T02:44:41.685Z,,0,,,NaN,,,,,,false,,,,380468.39999997616,380468.2999999523,,380467.6999999881,,380483.731,8,400,,,
break_continue,html.Screen,4_65_2,2023-09-16T02:44:41.686Z,,0,,,NaN,,,,,,false,,,,380468.7999999523,380468.6999999881,,380468.59999996424,,380483.731,8,400,,,
sequence,flow.Sequence,4_65,2023-09-16T02:44:41.686Z,,0,,,3384.8329999880516,completion,,,,,false,,,,380469,380468.6999999881,377067.201,377082,377083.867,380483.731,8,400,,,
trial,html.Screen,4_66_0,2023-09-16T02:44:45.318Z,,0,2,,3616.96899998805,response,ISIC_0026204.JPG,6,ISIC_0010414.JPG,ISIC_0026204.JPG,false,1,keypress(m),500,384101.2999999523,384100.6999999881,380467.065,380469.09999996424,380483.731,384116.919,8,400,17,,ISIC_0010414.JPG
break,html.Screen,4_66_1,2023-09-16T02:44:45.319Z,,0,,,NaN,,,,,,false,,,,384102.2999999523,384102.09999996424,,384101.59999996424,,384116.919,8,400,,,
break_continue,html.Screen,4_66_2,2023-09-16T02:44:45.319Z,,0,,,NaN,,,,,,false,,,,384102.59999996424,384102.5,,384102.39999997616,,384116.919,8,400,,,
sequence,flow.Sequence,4_66,2023-09-16T02:44:45.320Z,,0,,,3618.768999999971,completion,,,,,false,,,,384102.7999999523,384102.5,380467.065,380469.09999996424,380483.731,384116.919,8,400,,,
trial,html.Screen,4_67_0,2023-09-16T02:44:48.011Z,,0,2,,2676.4809999761637,response,ISIC_0001142.JPG,8,ISIC_0031221.JPG,ISIC_0031221.JPG,false,0,keypress(z),500,386793.7999999523,386793.39999997616,384100.253,384102.89999997616,384116.919,386800.145,8,400,18,,ISIC_0001142.JPG
break,html.Screen,4_67_1,2023-09-16T02:44:48.012Z,,0,,,NaN,,,,,,false,,,,386794.89999997616,386794.6999999881,,386794.1999999881,,386800.145,8,400,,,
break_continue,html.Screen,4_67_2,2023-09-16T02:44:48.012Z,,0,,,NaN,,,,,,false,,,,386795.1999999881,386795.1999999881,,386795.09999996424,,386800.145,8,400,,,
sequence,flow.Sequence,4_67,2023-09-16T02:44:48.012Z,,0,,,2678.2809999880847,completion,,,,,false,,,,386795.39999997616,386795.1999999881,384100.253,384102.89999997616,384116.919,386800.145,8,400,,,
trial,html.Screen,4_68_0,2023-09-16T02:44:51.282Z,,0,2,,3264.5549999880604,response,ISIC_2967024.JPG,8,ISIC_2178689.JPG,ISIC_2178689.JPG,false,0,keypress(z),500,390065.1999999881,390064.6999999881,386783.479,386795.5,386800.145,390067.11,8,400,19,,ISIC_2967024.JPG
break,html.Screen,4_68_1,2023-09-16T02:44:51.283Z,,0,,,NaN,,,,,,false,,,,390066.2999999523,390066.09999996424,,390065.5,,390067.11,8,400,,,
break_continue,html.Screen,4_68_2,2023-09-16T02:44:51.283Z,,0,,,NaN,,,,,,false,,,,390066.6999999881,390066.5,,390066.39999997616,,390067.11,8,400,,,
sequence,flow.Sequence,4_68,2023-09-16T02:44:51.284Z,,0,,,3266.3549999999814,completion,,,,,false,,,,390066.7999999523,390066.5,386783.479,386795.5,386800.145,390067.11,8,400,,,
trial,html.Screen,4_69_0,2023-09-16T02:44:54.232Z,,0,2,,2947.989999964251,response,ISIC_0029209.JPG,7,ISIC_5021861.JPG,ISIC_0029209.JPG,false,1,keypress(m),500,393015.59999996424,393015.09999996424,390050.444,390066.89999997616,390067.11,393016.992,8,400,20,,ISIC_5021861.JPG
break,html.Screen,4_69_1,2023-09-16T02:44:54.233Z,,0,,,NaN,,,,,,false,,,,393016.59999996424,393016.39999997616,,393015.89999997616,,393016.992,8,400,,,
break_continue,html.Screen,4_69_2,2023-09-16T02:44:54.234Z,,0,,,NaN,,,,,,false,,,,393017,393016.89999997616,,393016.6999999881,,393016.992,8,400,,,
sequence,flow.Sequence,4_69,2023-09-16T02:44:54.234Z,,0,,,2949.789999976172,completion,,,,,false,,,,393017.1999999881,393016.89999997616,390050.444,390066.89999997616,390067.11,393016.992,8,400,,,
trial,html.Screen,4_70_0,2023-09-16T02:44:57.533Z,,0,2,,3298.6079999642097,response,ISIC_2458609.JPG,8,ISIC_0010671.JPG,ISIC_0010671.JPG,false,0,keypress(z),500,396316.09999996424,396315.59999996424,393000.326,393017.1999999881,393016.992,396333.526,8,400,21,,ISIC_2458609.JPG
break,html.Screen,4_70_1,2023-09-16T02:44:57.534Z,,0,,,NaN,,,,,,false,,,,396317.09999996424,396316.89999997616,,396316.39999997616,,396333.526,8,400,,,
break_continue,html.Screen,4_70_2,2023-09-16T02:44:57.534Z,,0,,,NaN,,,,,,false,,,,396317.39999997616,396317.2999999523,,396317.1999999881,,396333.526,8,400,,,
sequence,flow.Sequence,4_70,2023-09-16T02:44:57.534Z,,0,,,3300.307999952289,completion,,,,,false,,,,396317.59999996424,396317.2999999523,393000.326,393017.1999999881,393016.992,396333.526,8,400,,,
trial,html.Screen,4_71_0,2023-09-16T02:45:00.605Z,,0,2,,3054.0739999642246,response,ISIC_0781315.JPG,7,ISIC_7937065.JPG,ISIC_0781315.JPG,false,1,keypress(m),500,399388,399387.59999996424,396316.86,396317.6999999881,396333.526,399400.463,8,400,22,,ISIC_7937065.JPG
break,html.Screen,4_71_1,2023-09-16T02:45:00.606Z,,0,,,NaN,,,,,,false,,,,399389,399388.6999999881,,399388.2999999523,,399400.463,8,400,,,
break_continue,html.Screen,4_71_2,2023-09-16T02:45:00.606Z,,0,,,NaN,,,,,,false,,,,399389.39999997616,399389.1999999881,,399389.09999996424,,399400.463,8,400,,,
sequence,flow.Sequence,4_71,2023-09-16T02:45:00.606Z,,0,,,3055.6739999880665,completion,,,,,false,,,,399389.59999996424,399389.1999999881,396316.86,396317.6999999881,396333.526,399400.463,8,400,,,
trial,html.Screen,4_72_0,2023-09-16T02:45:03.268Z,,0,2,,2650.2369999880902,response,ISIC_5707761.JPG,7,ISIC_4829706.JPG,ISIC_4829706.JPG,false,0,keypress(z),500,402051.1999999881,402050.6999999881,399383.797,399389.6999999881,399400.463,402067.023,8,400,23,,ISIC_5707761.JPG
break,html.Screen,4_72_1,2023-09-16T02:45:03.269Z,,0,,,NaN,,,,,,false,,,,402052.1999999881,402051.89999997616,,402051.5,,402067.023,8,400,,,
break_continue,html.Screen,4_72_2,2023-09-16T02:45:03.269Z,,0,,,NaN,,,,,,false,,,,402052.5,402052.39999997616,,402052.1999999881,,402067.023,8,400,,,
sequence,flow.Sequence,4_72,2023-09-16T02:45:03.269Z,,0,,,2651.9369999761693,completion,,,,,false,,,,402052.6999999881,402052.39999997616,399383.797,399389.59999996424,399400.463,402067.023,8,400,,,
trial,html.Screen,4_73_0,2023-09-16T02:45:07.097Z,,0,2,,3812.5769999642507,response,ISIC_0031295.JPG,10,ISIC_3503213.JPG,ISIC_3503213.JPG,false,0,keypress(z),500,405880,405879.59999996424,402050.357,402052.7999999523,402067.023,405883.537,8,400,24,,ISIC_0031295.JPG
break,html.Screen,4_73_1,2023-09-16T02:45:07.098Z,,0,,,NaN,,,,,,false,,,,405880.89999997616,405880.6999999881,,405880.1999999881,,405883.537,8,400,,,
break_continue,html.Screen,4_73_2,2023-09-16T02:45:07.098Z,,0,,,NaN,,,,,,false,,,,405881.2999999523,405881.1999999881,,405881,,405883.537,8,400,,,
sequence,flow.Sequence,4_73,2023-09-16T02:45:07.098Z,,0,,,3814.1769999880926,completion,,,,,false,,,,405881.5,405881.1999999881,402050.357,402052.7999999523,402067.023,405883.537,8,400,,,
trial,html.Screen,4_74_0,2023-09-16T02:45:10.078Z,,0,2,,2977.662999988068,response,ISIC_5566396.JPG,5,ISIC_0030921.JPG,ISIC_5566396.JPG,false,1,keypress(m),500,408861.6999999881,408861.1999999881,405866.871,405881.6999999881,405883.537,408867.182,8,400,25,,ISIC_0030921.JPG
break,html.Screen,4_74_1,2023-09-16T02:45:10.079Z,,0,,,NaN,,,,,,false,,,,408862.59999996424,408862.39999997616,,408861.89999997616,,408867.182,8,400,,,
break_continue,html.Screen,4_74_2,2023-09-16T02:45:10.080Z,,0,,,NaN,,,,,,false,,,,408863,408862.89999997616,,408862.7999999523,,408867.182,8,400,,,
sequence,flow.Sequence,4_74,2023-09-16T02:45:10.080Z,,0,,,2979.362999976147,completion,,,,,false,,,,408863.1999999881,408862.89999997616,405866.871,405881.59999996424,405883.537,408867.182,8,400,,,
trial,html.Screen,4_75_0,2023-09-16T02:45:13.413Z,,0,2,,3328.8180000000284,response,ISIC_0014171.JPG,5,ISIC_0033233.JPG,ISIC_0033233.JPG,false,0,keypress(z),500,412196.39999997616,412196,408850.516,408863.2999999523,408867.182,412200.382,8,400,26,,ISIC_0014171.JPG
break,html.Screen,4_75_1,2023-09-16T02:45:13.414Z,,0,,,NaN,,,,,,false,,,,412197.39999997616,412197.1999999881,,412196.6999999881,,412200.382,8,400,,,
break_continue,html.Screen,4_75_2,2023-09-16T02:45:13.415Z,,0,,,NaN,,,,,,false,,,,412197.6999999881,412197.6999999881,,412197.5,,412200.382,8,400,,,
sequence,flow.Sequence,4_75,2023-09-16T02:45:13.415Z,,0,,,3330.5179999881075,completion,,,,,false,,,,412197.89999997616,412197.6999999881,408850.516,408863.1999999881,408867.182,412200.382,8,400,,,
trial,html.Screen,4_76_0,2023-09-16T02:45:15.930Z,,0,2,,2511.917999952333,response,ISIC_5610222.JPG,9,ISIC_0028751.JPG,ISIC_5610222.JPG,false,1,keypress(m),500,414712.6999999881,414712.2999999523,412183.716,412198.09999996424,412200.382,414716.948,8,400,27,,ISIC_0028751.JPG
break,html.Screen,4_76_1,2023-09-16T02:45:15.931Z,,0,,,NaN,,,,,,false,,,,414713.6999999881,414713.5,,414713,,414716.948,8,400,,,
break_continue,html.Screen,4_76_2,2023-09-16T02:45:15.931Z,,0,,,NaN,,,,,,false,,,,414714.09999996424,414713.89999997616,,414713.89999997616,,414716.948,8,400,,,
sequence,flow.Sequence,4_76,2023-09-16T02:45:15.931Z,,0,,,2513.517999976175,completion,,,,,false,,,,414714.1999999881,414713.89999997616,412183.716,412198,412200.382,414716.948,8,400,,,
trial,html.Screen,4_77_0,2023-09-16T02:45:21.168Z,,0,2,,5233.951999976183,response,ISIC_0028916.JPG,4,ISIC_0054229.JPG,ISIC_0028916.JPG,false,1,keypress(m),500,419951.39999997616,419950.89999997616,414700.282,414714.39999997616,414716.948,419967.201,8,400,28,,ISIC_0054229.JPG
break,html.Screen,4_77_1,2023-09-16T02:45:21.169Z,,0,,,NaN,,,,,,false,,,,419952.5,419952.1999999881,,419951.6999999881,,419967.201,8,400,,,
break_continue,html.Screen,4_77_2,2023-09-16T02:45:21.170Z,,0,,,NaN,,,,,,false,,,,419952.89999997616,419952.6999999881,,419952.59999996424,,419967.201,8,400,,,
sequence,flow.Sequence,4_77,2023-09-16T02:45:21.170Z,,0,,,5235.751999988104,completion,,,,,false,,,,419952.89999997616,419952.6999999881,414700.282,414714.2999999523,414716.948,419967.201,8,400,,,
trial,html.Screen,4_78_0,2023-09-16T02:45:24.589Z,,0,2,,3404.198999976157,response,ISIC_6423964.JPG,6,ISIC_9685480.JPG,ISIC_6423964.JPG,false,1,keypress(m),500,423371.6999999881,423371.39999997616,419950.535,419953.09999996424,419967.201,423383.731,8,400,29,,ISIC_9685480.JPG
break,html.Screen,4_78_1,2023-09-16T02:45:24.590Z,,0,,,NaN,,,,,,false,,,,423372.6999999881,423372.5,,423372,,423383.731,8,400,,,
break_continue,html.Screen,4_78_2,2023-09-16T02:45:24.590Z,,0,,,NaN,,,,,,false,,,,423373,423372.89999997616,,423372.7999999523,,423383.731,8,400,,,
sequence,flow.Sequence,4_78,2023-09-16T02:45:24.590Z,,0,,,3405.698999976157,completion,,,,,false,,,,423373.1999999881,423372.89999997616,419950.535,419953,419967.201,423383.731,8,400,,,
trial,html.Screen,4_79_0,2023-09-16T02:45:30.498Z,,0,2,,5897.068999952287,response,ISIC_0014291.JPG,8,ISIC_9270367.JPG,ISIC_9270367.JPG,false,0,keypress(z),500,429281.1999999881,429280.7999999523,423367.065,423373.39999997616,423383.731,429283.922,8,400,30,,ISIC_0014291.JPG
break,html.Screen,4_79_1,2023-09-16T02:45:30.499Z,,0,,,NaN,,,,,,false,,,,429282.09999996424,429281.89999997616,,429281.5,,429283.922,8,400,,,
break_continue,html.Screen,4_79_2,2023-09-16T02:45:30.499Z,,0,,,NaN,,,,,,false,,,,429282.5,429282.2999999523,,429282.2999999523,,429283.922,8,400,,,
sequence,flow.Sequence,4_79,2023-09-16T02:45:30.500Z,,0,,,5898.568999952287,completion,,,,,false,,,,429282.59999996424,429282.2999999523,423367.065,423373.2999999523,423383.731,429283.922,8,400,,,
trial,html.Screen,4_80_0,2023-09-16T02:45:33.292Z,,0,2,,2790.9779999761377,response,ISIC_0067205.JPG,7,ISIC_4418545.JPG,ISIC_4418545.JPG,false,0,keypress(z),500,432075.1999999881,432074.89999997616,429267.256,429282.7999999523,429283.922,432083.81,8,400,31,,ISIC_0067205.JPG
break,html.Screen,4_80_1,2023-09-16T02:45:33.293Z,,0,,,NaN,,,,,,false,,,,432076.09999996424,432075.89999997616,,432075.5,,432083.81,8,400,,,
break_continue,html.Screen,4_80_2,2023-09-16T02:45:33.293Z,,0,,,NaN,,,,,,false,,,,432076.59999996424,432076.5,,432076.39999997616,,432083.81,8,400,,,
sequence,flow.Sequence,4_80,2023-09-16T02:45:33.294Z,,0,,,2792.5779999999795,completion,,,,,false,,,,432076.6999999881,432076.5,429267.256,429282.6999999881,429283.922,432083.81,8,400,,,
trial,html.Screen,4_81_0,2023-09-16T02:45:36.030Z,,0,2,,2728.6900000000023,response,ISIC_0010360.JPG,9,ISIC_0054874.JPG,ISIC_0010360.JPG,false,1,keypress(m),500,434812.89999997616,434812.5,432067.144,432076.89999997616,432083.81,434817.034,8,400,32,,ISIC_0054874.JPG
break,html.Screen,4_81_1,2023-09-16T02:45:36.031Z,,0,,,NaN,,,,,,false,,,,434813.7999999523,434813.6999999881,,434813.1999999881,,434817.034,8,400,,,
break_continue,html.Screen,4_81_2,2023-09-16T02:45:36.031Z,,0,,,NaN,,,,,,false,,,,434814.1999999881,434814.09999996424,,434814,,434817.034,8,400,,,
sequence,flow.Sequence,4_81,2023-09-16T02:45:36.031Z,,0,,,2730.2899999642395,completion,,,,,false,,,,434814.39999997616,434814.09999996424,432067.144,432076.7999999523,432083.81,434817.034,8,400,,,
trial,html.Screen,4_82_0,2023-09-16T02:45:39.213Z,,0,2,,3179.165999988094,response,ISIC_3327201.JPG,9,ISIC_6705966.JPG,ISIC_6705966.JPG,false,0,keypress(z),500,437996.5,437996.1999999881,434800.368,434814.59999996424,434817.034,438000.24,8,400,33,,ISIC_3327201.JPG
break,html.Screen,4_82_1,2023-09-16T02:45:39.214Z,,0,,,NaN,,,,,,false,,,,437997.5,437997.2999999523,,437996.7999999523,,438000.24,8,400,,,
break_continue,html.Screen,4_82_2,2023-09-16T02:45:39.215Z,,0,,,NaN,,,,,,false,,,,437997.7999999523,437997.6999999881,,437997.59999996424,,438000.24,8,400,,,
sequence,flow.Sequence,4_82,2023-09-16T02:45:39.215Z,,0,,,3180.665999988094,completion,,,,,false,,,,437998.09999996424,437997.6999999881,434800.368,434814.5,434817.034,438000.24,8,400,,,
trial,html.Screen,4_83_0,2023-09-16T02:45:42.245Z,,0,2,,3027.4599999880884,response,ISIC_0030681.JPG,8,ISIC_0024285.JPG,ISIC_0024285.JPG,false,0,keypress(z),500,441028,441027.6999999881,437983.574,437998.09999996424,438000.24,441033.84,8,400,34,,ISIC_0030681.JPG
break,html.Screen,4_83_1,2023-09-16T02:45:42.246Z,,0,,,NaN,,,,,,false,,,,441029,441028.89999997616,,441028.2999999523,,441033.84,8,400,,,
break_continue,html.Screen,4_83_2,2023-09-16T02:45:42.246Z,,0,,,NaN,,,,,,false,,,,441029.39999997616,441029.1999999881,,441029.09999996424,,441033.84,8,400,,,
sequence,flow.Sequence,4_83,2023-09-16T02:45:42.246Z,,0,,,3028.9599999880884,completion,,,,,false,,,,441029.5,441029.1999999881,437983.574,437998.09999996424,438000.24,441033.84,8,400,,,
trial,html.Screen,4_84_0,2023-09-16T02:45:45.846Z,,0,2,,3594.6599999999744,response,ISIC_6065301.JPG,9,ISIC_6427157.JPG,ISIC_6065301.JPG,false,1,keypress(m),500,444628.7999999523,444628.5,441017.174,441029.6999999881,441033.84,444633.696,8,400,35,,ISIC_6427157.JPG
break,html.Screen,4_84_1,2023-09-16T02:45:45.847Z,,0,,,NaN,,,,,,false,,,,444629.89999997616,444629.59999996424,,444629.09999996424,,444633.696,8,400,,,
break_continue,html.Screen,4_84_2,2023-09-16T02:45:45.847Z,,0,,,NaN,,,,,,false,,,,444630.2999999523,444630.1999999881,,444630,,444633.696,8,400,,,
sequence,flow.Sequence,4_84,2023-09-16T02:45:45.847Z,,0,,,3596.3599999880535,completion,,,,,false,,,,444630.5,444630.1999999881,441017.174,441029.59999996424,441033.84,444633.696,8,400,,,
trial,html.Screen,4_85_0,2023-09-16T02:45:48.717Z,,0,2,,2866.403999964241,response,ISIC_0072496.JPG,8,ISIC_8551124.JPG,ISIC_8551124.JPG,false,0,keypress(z),500,447500.5,447500.09999996424,444617.03,444630.59999996424,444633.696,447516.914,8,400,36,,ISIC_0072496.JPG
break,html.Screen,4_85_1,2023-09-16T02:45:48.718Z,,0,,,NaN,,,,,,false,,,,447501.39999997616,447501.09999996424,,447500.6999999881,,447516.914,8,400,,,
break_continue,html.Screen,4_85_2,2023-09-16T02:45:48.719Z,,0,,,NaN,,,,,,false,,,,447501.6999999881,447501.59999996424,,447501.5,,447516.914,8,400,,,
sequence,flow.Sequence,4_85,2023-09-16T02:45:48.719Z,,0,,,2867.903999964241,completion,,,,,false,,,,447501.89999997616,447501.59999996424,444617.03,444630.59999996424,444633.696,447516.914,8,400,,,
trial,html.Screen,4_86_0,2023-09-16T02:45:51.508Z,,0,2,,2773.1859999642475,response,ISIC_0072157.JPG,8,ISIC_8447658.JPG,ISIC_8447658.JPG,false,0,keypress(z),500,450290.5,450290.09999996424,447500.248,447502.09999996424,447516.914,450300.573,8,400,37,,ISIC_0072157.JPG
break,html.Screen,4_86_1,2023-09-16T02:45:51.509Z,,0,,,NaN,,,,,,false,,,,450291.5,450291.2999999523,,450290.7999999523,,450300.573,8,400,,,
break_continue,html.Screen,4_86_2,2023-09-16T02:45:51.509Z,,0,,,NaN,,,,,,false,,,,450292,450291.89999997616,,450291.7999999523,,450300.573,8,400,,,
sequence,flow.Sequence,4_86,2023-09-16T02:45:51.509Z,,0,,,2774.9859999761684,completion,,,,,false,,,,450292.1999999881,450291.89999997616,447500.248,447502,447516.914,450300.573,8,400,,,
trial,html.Screen,4_87_0,2023-09-16T02:45:54.230Z,,0,2,,2712.126999988104,response,ISIC_0024805.JPG,5,ISIC_0066240.JPG,ISIC_0024805.JPG,false,1,keypress(m),500,453013.09999996424,453012.6999999881,450283.907,450292.2999999523,450300.573,453017.131,8,400,38,,ISIC_0066240.JPG
break,html.Screen,4_87_1,2023-09-16T02:45:54.231Z,,0,,,NaN,,,,,,false,,,,453014,453013.7999999523,,453013.39999997616,,453017.131,8,400,,,
break_continue,html.Screen,4_87_2,2023-09-16T02:45:54.231Z,,0,,,NaN,,,,,,false,,,,453014.39999997616,453014.39999997616,,453014.1999999881,,453017.131,8,400,,,
sequence,flow.Sequence,4_87,2023-09-16T02:45:54.232Z,,0,,,2713.8269999761833,completion,,,,,false,,,,453014.59999996424,453014.39999997616,450283.907,450292.1999999881,450300.573,453017.131,8,400,,,
trial,html.Screen,4_88_0,2023-09-16T02:45:56.998Z,,0,2,,2763.369000000006,response,ISIC_9555580.JPG,6,ISIC_0014423.JPG,ISIC_0014423.JPG,false,0,keypress(z),500,455780.89999997616,455780.5,453000.465,453014.6999999881,453017.131,455783.687,8,400,39,,ISIC_9555580.JPG
break,html.Screen,4_88_1,2023-09-16T02:45:56.999Z,,0,,,NaN,,,,,,false,,,,455781.89999997616,455781.59999996424,,455781.09999996424,,455783.687,8,400,,,
break_continue,html.Screen,4_88_2,2023-09-16T02:45:56.999Z,,0,,,NaN,,,,,,false,,,,455782.2999999523,455782.1999999881,,455782,,455783.687,8,400,,,
sequence,flow.Sequence,4_88,2023-09-16T02:45:56.999Z,,0,,,2765.068999988085,completion,,,,,false,,,,455782.5,455782.1999999881,453000.465,453014.6999999881,453017.131,455783.687,8,400,,,
trial,html.Screen,4_89_0,2023-09-16T02:46:00.054Z,,0,2,,3052.512999988103,response,ISIC_1076474.JPG,8,ISIC_0027356.JPG,ISIC_1076474.JPG,false,1,keypress(m),500,458836.59999996424,458836.1999999881,455767.021,455782.5,455783.687,458850.231,8,400,40,,ISIC_0027356.JPG
break,html.Screen,4_89_1,2023-09-16T02:46:00.055Z,,0,,,NaN,,,,,,false,,,,458837.6999999881,458837.39999997616,,458837,,458850.231,8,400,,,
break_continue,html.Screen,4_89_2,2023-09-16T02:46:00.055Z,,0,,,NaN,,,,,,false,,,,458838,458837.89999997616,,458837.6999999881,,458850.231,8,400,,,
sequence,flow.Sequence,4_89,2023-09-16T02:46:00.055Z,,0,,,3054.212999976182,completion,,,,,false,,,,458838.09999996424,458837.89999997616,455767.021,455782.5,455783.687,458850.231,8,400,,,
trial,html.Screen,4_90_0,2023-09-16T02:46:03.356Z,,0,2,,3288.6689999761293,response,ISIC_0033476.JPG,7,ISIC_0055714.JPG,ISIC_0033476.JPG,false,1,keypress(m),500,462139.1999999881,462138.89999997616,458833.565,458838.2999999523,458850.231,462150.518,8,400,41,,ISIC_0055714.JPG
break,html.Screen,4_90_1,2023-09-16T02:46:03.357Z,,0,,,NaN,,,,,,false,,,,462140.2999999523,462140,,462139.5,,462150.518,8,400,,,
break_continue,html.Screen,4_90_2,2023-09-16T02:46:03.358Z,,0,,,NaN,,,,,,false,,,,462140.59999996424,462140.39999997616,,462140.2999999523,,462150.518,8,400,,,
sequence,flow.Sequence,4_90,2023-09-16T02:46:03.358Z,,0,,,3290.1689999761293,completion,,,,,false,,,,462140.6999999881,462140.39999997616,458833.565,458838.2999999523,458850.231,462150.518,8,400,,,
trial,html.Screen,4_91_0,2023-09-16T02:46:07.781Z,,0,2,,4412.581999964255,response,ISIC_0034313.JPG,7,ISIC_0064821.JPG,ISIC_0034313.JPG,false,1,keypress(m),500,466563.5,466563.09999996424,462133.852,462140.89999997616,462150.518,466567.008,8,400,42,,ISIC_0064821.JPG
break,html.Screen,4_91_1,2023-09-16T02:46:07.782Z,,0,,,NaN,,,,,,false,,,,466564.5,466564.2999999523,,466563.7999999523,,466567.008,8,400,,,
break_continue,html.Screen,4_91_2,2023-09-16T02:46:07.782Z,,0,,,NaN,,,,,,false,,,,466564.89999997616,466564.6999999881,,466564.59999996424,,466567.008,8,400,,,
sequence,flow.Sequence,4_91,2023-09-16T02:46:07.782Z,,0,,,4414.181999988097,completion,,,,,false,,,,466565,466564.6999999881,462133.852,462140.7999999523,462150.518,466567.008,8,400,,,
trial,html.Screen,4_92_0,2023-09-16T02:46:12.443Z,,0,2,,4658.891999976186,response,ISIC_0008424.JPG,8,ISIC_0014144.JPG,ISIC_0008424.JPG,false,1,keypress(m),500,471226.1999999881,471225.89999997616,466550.342,466565.09999996424,466567.008,471233.951,8,400,43,,ISIC_0014144.JPG
break,html.Screen,4_92_1,2023-09-16T02:46:12.444Z,,0,,,NaN,,,,,,false,,,,471227.2999999523,471227,,471226.5,,471233.951,8,400,,,
break_continue,html.Screen,4_92_2,2023-09-16T02:46:12.445Z,,0,,,NaN,,,,,,false,,,,471227.59999996424,471227.5,,471227.39999997616,,471233.951,8,400,,,
sequence,flow.Sequence,4_92,2023-09-16T02:46:12.445Z,,0,,,4660.4920000000275,completion,,,,,false,,,,471227.7999999523,471227.5,466550.342,466565.09999996424,466567.008,471233.951,8,400,,,
trial,html.Screen,4_93_0,2023-09-16T02:46:15.348Z,,0,2,,2896.748999988078,response,ISIC_6520237.JPG,7,ISIC_0033047.JPG,ISIC_6520237.JPG,false,1,keypress(m),500,474130.7999999523,474130.6999999881,471217.285,471227.89999997616,471233.951,474133.835,8,400,44,,ISIC_0033047.JPG
break,html.Screen,4_93_1,2023-09-16T02:46:15.348Z,,0,,,NaN,,,,,,false,,,,474131.1999999881,474131.09999996424,,474130.89999997616,,474133.835,8,400,,,
break_continue,html.Screen,4_93_2,2023-09-16T02:46:15.348Z,,0,,,NaN,,,,,,false,,,,474131.2999999523,474131.1999999881,,474131.1999999881,,474133.835,8,400,,,
sequence,flow.Sequence,4_93,2023-09-16T02:46:15.348Z,,0,,,2897.248999988078,completion,,,,,false,,,,474131.2999999523,474131.1999999881,471217.285,471227.89999997616,471233.951,474133.835,8,400,,,
trial,html.Screen,4_94_0,2023-09-16T02:46:18.268Z,,0,2,,2916.364999988058,response,ISIC_0009187.JPG,7,ISIC_0059368.JPG,ISIC_0009187.JPG,false,1,keypress(m),500,477050.59999996424,477050.1999999881,474117.169,474131.39999997616,474133.835,477067.051,8,400,45,,ISIC_0059368.JPG
break,html.Screen,4_94_1,2023-09-16T02:46:18.269Z,,0,,,NaN,,,,,,false,,,,477051.39999997616,477051.2999999523,,477050.7999999523,,477067.051,8,400,,,
break_continue,html.Screen,4_94_2,2023-09-16T02:46:18.269Z,,0,,,NaN,,,,,,false,,,,477051.89999997616,477051.59999996424,,477051.5,,477067.051,8,400,,,
sequence,flow.Sequence,4_94,2023-09-16T02:46:18.269Z,,0,,,2917.7649999642163,completion,,,,,false,,,,477052,477051.59999996424,474117.169,474131.39999997616,474133.835,477067.051,8,400,,,
trial,html.Screen,4_95_0,2023-09-16T02:46:23.822Z,,0,2,,5537.148999988101,response,ISIC_0012137.JPG,8,ISIC_0033202.JPG,ISIC_0012137.JPG,false,1,keypress(m),500,482604.59999996424,482604.1999999881,477050.385,477052.09999996424,477067.051,482617.222,8,400,46,,ISIC_0033202.JPG
break,html.Screen,4_95_1,2023-09-16T02:46:23.823Z,,0,,,NaN,,,,,,false,,,,482605.39999997616,482605.1999999881,,482604.7999999523,,482617.222,8,400,,,
break_continue,html.Screen,4_95_2,2023-09-16T02:46:23.823Z,,0,,,NaN,,,,,,false,,,,482605.7999999523,482605.6999999881,,482605.59999996424,,482617.222,8,400,,,
sequence,flow.Sequence,4_95,2023-09-16T02:46:23.823Z,,0,,,5538.648999988101,completion,,,,,false,,,,482605.89999997616,482605.6999999881,477050.385,477052.09999996424,477067.051,482617.222,8,400,,,
trial,html.Screen,4_96_0,2023-09-16T02:46:26.625Z,,0,2,,2790.6779999761493,response,ISIC_6452498.JPG,6,ISIC_9978107.JPG,ISIC_9978107.JPG,false,0,keypress(z),500,485408.39999997616,485407.89999997616,482600.556,482606.09999996424,482617.222,485417.11,8,400,47,,ISIC_6452498.JPG
break,html.Screen,4_96_1,2023-09-16T02:46:26.626Z,,0,,,NaN,,,,,,false,,,,485409.1999999881,485409,,485408.59999996424,,485417.11,8,400,,,
break_continue,html.Screen,4_96_2,2023-09-16T02:46:26.627Z,,0,,,NaN,,,,,,false,,,,485409.6999999881,485409.5,,485409.39999997616,,485417.11,8,400,,,
sequence,flow.Sequence,4_96,2023-09-16T02:46:26.627Z,,0,,,2792.277999999991,completion,,,,,false,,,,485409.7999999523,485409.5,482600.556,482606,482617.222,485417.11,8,400,,,
trial,html.Screen,4_97_0,2023-09-16T02:46:29.560Z,,0,2,,2925.1899999523303,response,ISIC_1113265.JPG,7,ISIC_0015005.JPG,ISIC_1113265.JPG,false,1,keypress(m),500,488342.59999996424,488342.2999999523,485400.444,485410,485417.11,488350.326,8,400,48,,ISIC_0015005.JPG
break,html.Screen,4_97_1,2023-09-16T02:46:29.561Z,,0,,,NaN,,,,,,false,,,,488343.5,488343.2999999523,,488342.7999999523,,488350.326,8,400,,,
break_continue,html.Screen,4_97_2,2023-09-16T02:46:29.561Z,,0,,,NaN,,,,,,false,,,,488343.89999997616,488343.7999999523,,488343.6999999881,,488350.326,8,400,,,
sequence,flow.Sequence,4_97,2023-09-16T02:46:29.561Z,,0,,,2926.6899999523303,completion,,,,,false,,,,488344.09999996424,488343.7999999523,485400.444,485409.89999997616,485417.11,488350.326,8,400,,,
trial,html.Screen,4_98_0,2023-09-16T02:46:32.652Z,,0,2,,3084.373999988078,response,ISIC_6118824.JPG,8,ISIC_3800974.JPG,ISIC_6118824.JPG,false,1,keypress(m),500,491435.09999996424,491434.6999999881,488333.66,488344.1999999881,488350.326,491450.202,8,400,49,,ISIC_3800974.JPG
break,html.Screen,4_98_1,2023-09-16T02:46:32.653Z,,0,,,NaN,,,,,,false,,,,491436,491435.7999999523,,491435.2999999523,,491450.202,8,400,,,
break_continue,html.Screen,4_98_2,2023-09-16T02:46:32.653Z,,0,,,NaN,,,,,,false,,,,491436.39999997616,491436.1999999881,,491436.09999996424,,491450.202,8,400,,,
sequence,flow.Sequence,4_98,2023-09-16T02:46:32.654Z,,0,,,3085.873999988078,completion,,,,,false,,,,491436.5,491436.1999999881,488333.66,488344.09999996424,488350.326,491450.202,8,400,,,
trial,html.Screen,4_99_0,2023-09-16T02:46:35.603Z,,0,2,,2934.79800000001,response,ISIC_0062301.JPG,8,ISIC_0030660.JPG,ISIC_0030660.JPG,false,0,keypress(z),500,494385.5,494385,491433.536,491436.6999999881,491450.202,494400.533,8,400,50,,ISIC_0062301.JPG
break,html.Screen,4_99_1,2023-09-16T02:46:45.605Z,,0,,,10000.00800000003,timeout,,,,,false,,,,504387.89999997616,504383.875,494383.867,494385.6999999881,494400.533,504400.541,8,400,,,
break_continue,html.Screen,4_99_2,2023-09-16T02:47:06.822Z,,0,,,21186.05899996421,response,,,,,false,continue,keypress(Space),,525604.2999999523,525586.5999999642,504383.875,504388.09999996424,504400.541,525616.359,8,400,,,
sequence,flow.Sequence,4_99,2023-09-16T02:47:06.822Z,,0,,,34136.39799996425,completion,,,,,false,,,,525604.5,525586.5999999642,491433.536,491436.59999996424,491450.202,525616.359,8,400,,,
trial,html.Screen,4_100_0,2023-09-16T02:47:09.837Z,,0,3,,3002.4409999522613,response,ISIC_4232761.JPG,9,ISIC_1359533.JPG,ISIC_4232761.JPG,false,1,keypress(m),500,528619.2999999523,528618.7999999523,525599.693,525604.5,525616.359,528633.864,8,400,1,,ISIC_1359533.JPG
break,html.Screen,4_100_1,2023-09-16T02:47:09.837Z,,0,,,NaN,,,,,,false,,,,528620.1999999881,528620,,528619.5,,528633.864,8,400,,,
break_continue,html.Screen,4_100_2,2023-09-16T02:47:09.838Z,,0,,,NaN,,,,,,false,,,,528620.5999999642,528620.3999999762,,528620.3999999762,,528633.864,8,400,,,
sequence,flow.Sequence,4_100,2023-09-16T02:47:09.838Z,,0,,,3004.040999976103,completion,,,,,false,,,,528620.7999999523,528620.3999999762,525599.693,525604.5,525616.359,528633.864,8,400,,,
trial,html.Screen,4_101_0,2023-09-16T02:47:12.499Z,,0,3,,2647.935999952373,response,ISIC_0028361.JPG,7,ISIC_0031096.JPG,ISIC_0031096.JPG,false,0,keypress(z),500,531282.0999999642,531281.7999999523,528617.198,528620.8999999762,528633.864,531283.758,8,400,2,,ISIC_0028361.JPG
break,html.Screen,4_101_1,2023-09-16T02:47:12.500Z,,0,,,NaN,,,,,,false,,,,531283.0999999642,531282.8999999762,,531282.3999999762,,531283.758,8,400,,,
break_continue,html.Screen,4_101_2,2023-09-16T02:47:12.501Z,,0,,,NaN,,,,,,false,,,,531283.5,531283.3999999762,,531283.2999999523,,531283.758,8,400,,,
sequence,flow.Sequence,4_101,2023-09-16T02:47:12.501Z,,0,,,2649.535999976215,completion,,,,,false,,,,531283.6999999881,531283.3999999762,528617.198,528620.8999999762,528633.864,531283.758,8,400,,,
trial,html.Screen,4_102_0,2023-09-16T02:47:15.464Z,,0,3,,2962.2419999999693,response,ISIC_2033237.JPG,8,ISIC_0000143.JPG,ISIC_0000143.JPG,false,0,keypress(z),500,534246.3999999762,534246,531267.092,531283.8999999762,531283.758,534250.306,8,400,3,,ISIC_2033237.JPG
break,html.Screen,4_102_1,2023-09-16T02:47:15.465Z,,0,,,NaN,,,,,,false,,,,534247.3999999762,534247.1999999881,,534246.6999999881,,534250.306,8,400,,,
break_continue,html.Screen,4_102_2,2023-09-16T02:47:15.465Z,,0,,,NaN,,,,,,false,,,,534247.7999999523,534247.5999999642,,534247.5,,534250.306,8,400,,,
sequence,flow.Sequence,4_102,2023-09-16T02:47:15.465Z,,0,,,2963.8419999642065,completion,,,,,false,,,,534247.8999999762,534247.5999999642,531267.092,531283.7999999523,531283.758,534250.306,8,400,,,
trial,html.Screen,4_103_0,2023-09-16T02:47:18.254Z,,0,3,,2785.8939999880968,response,ISIC_3586669.JPG,8,ISIC_4026808.JPG,ISIC_4026808.JPG,false,0,keypress(z),500,537036.6999999881,537036.1999999881,534233.64,534248.0999999642,534250.306,537050.627,8,400,4,,ISIC_3586669.JPG
break,html.Screen,4_103_1,2023-09-16T02:47:18.255Z,,0,,,NaN,,,,,,false,,,,537037.6999999881,537037.3999999762,,537036.8999999762,,537050.627,8,400,,,
break_continue,html.Screen,4_103_2,2023-09-16T02:47:18.255Z,,0,,,NaN,,,,,,false,,,,537038,537037.8999999762,,537037.7999999523,,537050.627,8,400,,,
sequence,flow.Sequence,4_103,2023-09-16T02:47:18.255Z,,0,,,2787.593999976176,completion,,,,,false,,,,537038.0999999642,537037.8999999762,534233.64,534248,534250.306,537050.627,8,400,,,
trial,html.Screen,4_104_0,2023-09-16T02:47:21.252Z,,0,3,,2983.9729999642586,response,ISIC_0002258.JPG,6,ISIC_8733345.JPG,ISIC_0002258.JPG,false,1,keypress(m),500,540034.8999999762,540034.5999999642,537033.961,537038.2999999523,537050.627,540050.507,8,400,5,,ISIC_8733345.JPG
break,html.Screen,4_104_1,2023-09-16T02:47:21.253Z,,0,,,NaN,,,,,,false,,,,540036,540035.6999999881,,540035.1999999881,,540050.507,8,400,,,
break_continue,html.Screen,4_104_2,2023-09-16T02:47:21.254Z,,0,,,NaN,,,,,,false,,,,540036.1999999881,540036.1999999881,,540036,,540050.507,8,400,,,
sequence,flow.Sequence,4_104,2023-09-16T02:47:21.254Z,,0,,,2985.5729999881005,completion,,,,,false,,,,540036.3999999762,540036.1999999881,537033.961,537038.2999999523,537050.627,540050.507,8,400,,,
trial,html.Screen,4_105_0,2023-09-16T02:47:24.013Z,,0,3,,2744.592999964254,response,ISIC_0060481.JPG,4,ISIC_0572205.JPG,ISIC_0572205.JPG,false,0,keypress(z),500,542795.5,542795.0999999642,540033.841,540036.5999999642,540050.507,542800.397,8,400,6,,ISIC_0060481.JPG
break,html.Screen,4_105_1,2023-09-16T02:47:24.014Z,,0,,,NaN,,,,,,false,,,,542796.3999999762,542796.1999999881,,542795.6999999881,,542800.397,8,400,,,
break_continue,html.Screen,4_105_2,2023-09-16T02:47:24.014Z,,0,,,NaN,,,,,,false,,,,542796.7999999523,542796.6999999881,,542796.5999999642,,542800.397,8,400,,,
sequence,flow.Sequence,4_105,2023-09-16T02:47:24.014Z,,0,,,2746.192999988096,completion,,,,,false,,,,542796.8999999762,542796.6999999881,540033.841,540036.5,540050.507,542800.397,8,400,,,
trial,html.Screen,4_106_0,2023-09-16T02:47:26.865Z,,0,3,,2846.603000000003,response,ISIC_8803600.JPG,6,ISIC_6937905.JPG,ISIC_6937905.JPG,false,0,keypress(z),500,545647.3999999762,545647,542783.731,542797,542800.397,545650.283,8,400,7,,ISIC_8803600.JPG
break,html.Screen,4_106_1,2023-09-16T02:47:26.866Z,,0,,,NaN,,,,,,false,,,,545648.2999999523,545648.0999999642,,545647.5999999642,,545650.283,8,400,,,
break_continue,html.Screen,4_106_2,2023-09-16T02:47:26.866Z,,0,,,NaN,,,,,,false,,,,545648.6999999881,545648.5,,545648.3999999762,,545650.283,8,400,,,
sequence,flow.Sequence,4_106,2023-09-16T02:47:26.866Z,,0,,,2848.103000000003,completion,,,,,false,,,,545648.7999999523,545648.5,542783.731,542797,542800.397,545650.283,8,400,,,
trial,html.Screen,4_107_0,2023-09-16T02:47:30.685Z,,0,3,,3816.5169999522623,response,ISIC_7939816.JPG,8,ISIC_4153234.JPG,ISIC_4153234.JPG,false,0,keypress(z),500,549467.1999999881,549466.7999999523,545633.617,545649,545650.283,549483.905,8,400,8,,ISIC_7939816.JPG
break,html.Screen,4_107_1,2023-09-16T02:47:30.686Z,,0,,,NaN,,,,,,false,,,,549468.0999999642,549467.8999999762,,549467.5,,549483.905,8,400,,,
break_continue,html.Screen,4_107_2,2023-09-16T02:47:30.686Z,,0,,,NaN,,,,,,false,,,,549468.5999999642,549468.3999999762,,549468.2999999523,,549483.905,8,400,,,
sequence,flow.Sequence,4_107,2023-09-16T02:47:30.686Z,,0,,,3818.116999976104,completion,,,,,false,,,,549468.6999999881,549468.3999999762,545633.617,545649,545650.283,549483.905,8,400,,,
trial,html.Screen,4_108_0,2023-09-16T02:47:34.321Z,,0,3,,3619.294999988051,response,ISIC_5386244.JPG,8,ISIC_6471212.JPG,ISIC_6471212.JPG,false,0,keypress(z),500,553103.5999999642,553103.1999999881,549467.239,549468.8999999762,549483.905,553117.093,8,400,9,,ISIC_5386244.JPG
break,html.Screen,4_108_1,2023-09-16T02:47:34.322Z,,0,,,NaN,,,,,,false,,,,553104.6999999881,553104.3999999762,,553104,,553117.093,8,400,,,
break_continue,html.Screen,4_108_2,2023-09-16T02:47:34.322Z,,0,,,NaN,,,,,,false,,,,553105,553104.8999999762,,553104.7999999523,,553117.093,8,400,,,
sequence,flow.Sequence,4_108,2023-09-16T02:47:34.323Z,,0,,,3620.99499997613,completion,,,,,false,,,,553105.1999999881,553104.8999999762,549467.239,549468.7999999523,549483.905,553117.093,8,400,,,
trial,html.Screen,4_109_0,2023-09-16T02:47:37.365Z,,0,3,,3030.3069999761647,response,ISIC_6806545.JPG,8,ISIC_0026759.JPG,ISIC_6806545.JPG,false,1,keypress(m),500,556147.8999999762,556147.3999999762,553100.427,553105.2999999523,553117.093,556150.305,8,400,10,,ISIC_0026759.JPG
break,html.Screen,4_109_1,2023-09-16T02:47:37.366Z,,0,,,NaN,,,,,,false,,,,556148.7999999523,556148.5999999642,,556148.0999999642,,556150.305,8,400,,,
break_continue,html.Screen,4_109_2,2023-09-16T02:47:37.367Z,,0,,,NaN,,,,,,false,,,,556149.1999999881,556149.0999999642,,556148.8999999762,,556150.305,8,400,,,
sequence,flow.Sequence,4_109,2023-09-16T02:47:37.367Z,,0,,,3032.0069999642437,completion,,,,,false,,,,556149.3999999762,556149.0999999642,553100.427,553105.2999999523,553117.093,556150.305,8,400,,,
trial,html.Screen,4_110_0,2023-09-16T02:47:40.524Z,,0,3,,3155.794999964186,response,ISIC_2071966.JPG,8,ISIC_0000186.JPG,ISIC_0000186.JPG,false,0,keypress(z),500,559306.5,559306.0999999642,556133.639,556149.5,556150.305,559317.268,8,400,11,,ISIC_2071966.JPG
break,html.Screen,4_110_1,2023-09-16T02:47:40.525Z,,0,,,NaN,,,,,,false,,,,559307.5,559307.1999999881,,559306.7999999523,,559317.268,8,400,,,
break_continue,html.Screen,4_110_2,2023-09-16T02:47:40.525Z,,0,,,NaN,,,,,,false,,,,559307.8999999762,559307.6999999881,,559307.5999999642,,559317.268,8,400,,,
sequence,flow.Sequence,4_110,2023-09-16T02:47:40.525Z,,0,,,3157.394999988028,completion,,,,,false,,,,559308,559307.6999999881,556133.639,556149.3999999762,556150.305,559317.268,8,400,,,
trial,html.Screen,4_111_0,2023-09-16T02:47:43.218Z,,0,3,,2683.23199999996,response,ISIC_0034180.JPG,8,ISIC_0033137.JPG,ISIC_0033137.JPG,false,0,keypress(z),500,562000.7999999523,562000.5,559300.602,559308.0999999642,559317.268,562017.16,8,400,12,,ISIC_0034180.JPG
break,html.Screen,4_111_1,2023-09-16T02:47:43.219Z,,0,,,NaN,,,,,,false,,,,562001.8999999762,562001.6999999881,,562001.0999999642,,562017.16,8,400,,,
break_continue,html.Screen,4_111_2,2023-09-16T02:47:43.220Z,,0,,,NaN,,,,,,false,,,,562002.2999999523,562002.0999999642,,562002.0999999642,,562017.16,8,400,,,
sequence,flow.Sequence,4_111,2023-09-16T02:47:43.220Z,,0,,,2684.831999964197,completion,,,,,false,,,,562002.3999999762,562002.0999999642,559300.602,559308.0999999642,559317.268,562017.16,8,400,,,
trial,html.Screen,4_112_0,2023-09-16T02:47:46.460Z,,0,3,,3225.3399999999674,response,ISIC_0033962.JPG,7,ISIC_0067873.JPG,ISIC_0033962.JPG,false,1,keypress(m),500,565242.8999999762,565242.5,562000.494,562002.5,562017.16,565250.364,8,400,13,,ISIC_0067873.JPG
break,html.Screen,4_112_1,2023-09-16T02:47:46.461Z,,0,,,NaN,,,,,,false,,,,565243.7999999523,565243.5999999642,,565243.1999999881,,565250.364,8,400,,,
break_continue,html.Screen,4_112_2,2023-09-16T02:47:46.462Z,,0,,,NaN,,,,,,false,,,,565244.1999999881,565244.0999999642,,565243.8999999762,,565250.364,8,400,,,
sequence,flow.Sequence,4_112,2023-09-16T02:47:46.462Z,,0,,,3226.9399999642046,completion,,,,,false,,,,565244.3999999762,565244.0999999642,562000.494,562002.5,562017.16,565250.364,8,400,,,
trial,html.Screen,4_113_0,2023-09-16T02:47:49.363Z,,0,3,,2894.835999988136,response,ISIC_2523776.JPG,8,ISIC_1960468.JPG,ISIC_2523776.JPG,false,1,keypress(m),500,568145.5999999642,568145.1999999881,565233.698,565244.5,565250.364,568150.676,8,400,14,,ISIC_1960468.JPG
break,html.Screen,4_113_1,2023-09-16T02:47:49.364Z,,0,,,NaN,,,,,,false,,,,568146.6999999881,568146.3999999762,,568145.8999999762,,568150.676,8,400,,,
break_continue,html.Screen,4_113_2,2023-09-16T02:47:49.364Z,,0,,,NaN,,,,,,false,,,,568147.0999999642,568146.8999999762,,568146.7999999523,,568150.676,8,400,,,
sequence,flow.Sequence,4_113,2023-09-16T02:47:49.365Z,,0,,,2896.535999976215,completion,,,,,false,,,,568147.1999999881,568146.8999999762,565233.698,565244.5,565250.364,568150.676,8,400,,,
trial,html.Screen,4_114_0,2023-09-16T02:47:52.058Z,,0,3,,2689.4239999642596,response,ISIC_0072382.JPG,6,ISIC_0292775.JPG,ISIC_0292775.JPG,false,0,keypress(z),500,570840.5,570840.0999999642,568134.01,568147.3999999762,568150.676,570850.568,8,400,15,,ISIC_0072382.JPG
break,html.Screen,4_114_1,2023-09-16T02:47:52.059Z,,0,,,NaN,,,,,,false,,,,570841.5,570841.2999999523,,570840.8999999762,,570850.568,8,400,,,
break_continue,html.Screen,4_114_2,2023-09-16T02:47:52.059Z,,0,,,NaN,,,,,,false,,,,570841.8999999762,570841.7999999523,,570841.5999999642,,570850.568,8,400,,,
sequence,flow.Sequence,4_114,2023-09-16T02:47:52.060Z,,0,,,2691.1239999523386,completion,,,,,false,,,,570842.0999999642,570841.7999999523,568134.01,568147.2999999523,568150.676,570850.568,8,400,,,
trial,html.Screen,4_115_0,2023-09-16T02:47:55.231Z,,0,3,,3162.731999952346,response,ISIC_0011463.JPG,8,ISIC_0064877.JPG,ISIC_0064877.JPG,false,0,keypress(z),500,574013.6999999881,574013.2999999523,570833.902,570842.1999999881,570850.568,574017.108,8,400,16,,ISIC_0011463.JPG
break,html.Screen,4_115_1,2023-09-16T02:47:55.232Z,,0,,,NaN,,,,,,false,,,,574014.6999999881,574014.3999999762,,574014,,574017.108,8,400,,,
break_continue,html.Screen,4_115_2,2023-09-16T02:47:55.233Z,,0,,,NaN,,,,,,false,,,,574015.0999999642,574015,,574014.7999999523,,574017.108,8,400,,,
sequence,flow.Sequence,4_115,2023-09-16T02:47:55.233Z,,0,,,3164.43200000003,completion,,,,,false,,,,574015.1999999881,574015,570833.902,570842.0999999642,570850.568,574017.108,8,400,,,
trial,html.Screen,4_116_0,2023-09-16T02:47:57.901Z,,0,3,,2666.2919999761507,response,ISIC_5682259.JPG,4,ISIC_0054573.JPG,ISIC_5682259.JPG,false,1,keypress(m),500,576683.8999999762,576683.3999999762,574000.442,574015.3999999762,574017.108,576700.334,8,400,17,,ISIC_0054573.JPG
break,html.Screen,4_116_1,2023-09-16T02:47:57.902Z,,0,,,NaN,,,,,,false,,,,576684.8999999762,576684.5999999642,,576684.0999999642,,576700.334,8,400,,,
break_continue,html.Screen,4_116_2,2023-09-16T02:47:57.903Z,,0,,,NaN,,,,,,false,,,,576685.1999999881,576685.0999999642,,576684.8999999762,,576700.334,8,400,,,
sequence,flow.Sequence,4_116,2023-09-16T02:47:57.903Z,,0,,,2667.9919999642298,completion,,,,,false,,,,576685.2999999523,576685.0999999642,574000.442,574015.3999999762,574017.108,576700.334,8,400,,,
trial,html.Screen,4_117_0,2023-09-16T02:48:00.611Z,,0,3,,2692.8659999880474,response,ISIC_0011381.JPG,6,ISIC_6342224.JPG,ISIC_6342224.JPG,false,0,keypress(z),500,579393.6999999881,579393.1999999881,576683.668,576685.5,576700.334,579400.615,8,400,18,,ISIC_0011381.JPG
break,html.Screen,4_117_1,2023-09-16T02:48:00.612Z,,0,,,NaN,,,,,,false,,,,579394.6999999881,579394.5,,579394,,579400.615,8,400,,,
break_continue,html.Screen,4_117_2,2023-09-16T02:48:00.613Z,,0,,,NaN,,,,,,false,,,,579395.0999999642,579395,,579394.8999999762,,579400.615,8,400,,,
sequence,flow.Sequence,4_117,2023-09-16T02:48:00.613Z,,0,,,2694.6659999999683,completion,,,,,false,,,,579395.2999999523,579395,576683.668,576685.5,576700.334,579400.615,8,400,,,
trial,html.Screen,4_118_0,2023-09-16T02:48:03.943Z,,0,3,,3324.6849999523256,response,ISIC_9278685.JPG,6,ISIC_0061092.JPG,ISIC_9278685.JPG,false,1,keypress(m),500,582725.7999999523,582725.2999999523,579383.949,579395.3999999762,579400.615,582733.815,8,400,19,,ISIC_0061092.JPG
break,html.Screen,4_118_1,2023-09-16T02:48:03.944Z,,0,,,NaN,,,,,,false,,,,582726.8999999762,582726.5999999642,,582726.0999999642,,582733.815,8,400,,,
break_continue,html.Screen,4_118_2,2023-09-16T02:48:03.945Z,,0,,,NaN,,,,,,false,,,,582727.1999999881,582727.0999999642,,582727,,582733.815,8,400,,,
sequence,flow.Sequence,4_118,2023-09-16T02:48:03.945Z,,0,,,3326.4849999642465,completion,,,,,false,,,,582727.3999999762,582727.0999999642,579383.949,579395.3999999762,579400.615,582733.815,8,400,,,
trial,html.Screen,4_119_0,2023-09-16T02:48:07.845Z,,0,3,,3893.685000000056,response,ISIC_1566428.JPG,7,ISIC_3445468.JPG,ISIC_3445468.JPG,false,0,keypress(z),500,586627.8999999762,586627.5,582717.149,582727.5,582733.815,586650.325,8,400,20,,ISIC_1566428.JPG
break,html.Screen,4_119_1,2023-09-16T02:48:07.846Z,,0,,,NaN,,,,,,false,,,,586628.8999999762,586628.6999999881,,586628.1999999881,,586650.325,8,400,,,
break_continue,html.Screen,4_119_2,2023-09-16T02:48:07.847Z,,0,,,NaN,,,,,,false,,,,586629.1999999881,586629.1999999881,,586629,,586650.325,8,400,,,
sequence,flow.Sequence,4_119,2023-09-16T02:48:07.847Z,,0,,,3895.384999988135,completion,,,,,false,,,,586629.3999999762,586629.1999999881,582717.149,582727.5,582733.815,586650.325,8,400,,,
trial,html.Screen,4_120_0,2023-09-16T02:48:11.209Z,,0,3,,3340.6750000000466,response,ISIC_0067338.JPG,7,ISIC_8627293.JPG,ISIC_0067338.JPG,false,1,keypress(m),500,589991.3999999762,589991,586633.659,586629.5999999642,586650.325,590000.633,8,400,21,,ISIC_8627293.JPG
break,html.Screen,4_120_1,2023-09-16T02:48:11.210Z,,0,,,NaN,,,,,,false,,,,589992.5,589992.1999999881,,589991.6999999881,,590000.633,8,400,,,
break_continue,html.Screen,4_120_2,2023-09-16T02:48:11.210Z,,0,,,NaN,,,,,,false,,,,589992.7999999523,589992.6999999881,,589992.5999999642,,590000.633,8,400,,,
sequence,flow.Sequence,4_120,2023-09-16T02:48:11.211Z,,0,,,3342.3749999881256,completion,,,,,false,,,,589993,589992.6999999881,586633.659,586629.5,586650.325,590000.633,8,400,,,
trial,html.Screen,4_121_0,2023-09-16T02:48:14.398Z,,0,3,,3178.9669999642065,response,ISIC_1110583.JPG,9,ISIC_0027266.JPG,ISIC_1110583.JPG,false,1,keypress(m),500,593180,593179.5999999642,589983.967,589993.0999999642,590000.633,593183.839,8,400,22,,ISIC_0027266.JPG
break,html.Screen,4_121_1,2023-09-16T02:48:14.399Z,,0,,,NaN,,,,,,false,,,,593181.0999999642,593180.8999999762,,593180.3999999762,,593183.839,8,400,,,
break_continue,html.Screen,4_121_2,2023-09-16T02:48:14.399Z,,0,,,NaN,,,,,,false,,,,593181.5,593181.3999999762,,593181.2999999523,,593183.839,8,400,,,
sequence,flow.Sequence,4_121,2023-09-16T02:48:14.399Z,,0,,,3180.7669999761274,completion,,,,,false,,,,593181.5999999642,593181.3999999762,589983.967,589993.0999999642,590000.633,593183.839,8,400,,,
trial,html.Screen,4_122_0,2023-09-16T02:48:17.134Z,,0,3,,2731.760999964201,response,ISIC_8704668.JPG,8,ISIC_0028129.JPG,ISIC_8704668.JPG,false,1,keypress(m),500,595916.0999999642,595915.5999999642,593167.173,593181.8999999762,593183.839,595917.063,8,400,23,,ISIC_0028129.JPG
break,html.Screen,4_122_1,2023-09-16T02:48:17.135Z,,0,,,NaN,,,,,,false,,,,595917.0999999642,595916.7999999523,,595916.3999999762,,595917.063,8,400,,,
break_continue,html.Screen,4_122_2,2023-09-16T02:48:17.135Z,,0,,,NaN,,,,,,false,,,,595917.5,595917.3999999762,,595917.1999999881,,595917.063,8,400,,,
sequence,flow.Sequence,4_122,2023-09-16T02:48:17.135Z,,0,,,2733.560999976122,completion,,,,,false,,,,595917.5999999642,595917.3999999762,593167.173,593181.6999999881,593183.839,595917.063,8,400,,,
trial,html.Screen,4_123_0,2023-09-16T02:48:19.886Z,,0,3,,2750.4370000000345,response,ISIC_7787118.JPG,6,ISIC_0072087.JPG,ISIC_7787118.JPG,false,1,keypress(m),500,598668,598667.5,595900.397,595917.6999999881,595917.063,598684.025,8,400,24,,ISIC_0072087.JPG
break,html.Screen,4_123_1,2023-09-16T02:48:19.887Z,,0,,,NaN,,,,,,false,,,,598669,598668.7999999523,,598668.2999999523,,598684.025,8,400,,,
break_continue,html.Screen,4_123_2,2023-09-16T02:48:19.887Z,,0,,,NaN,,,,,,false,,,,598669.3999999762,598669.2999999523,,598669.0999999642,,598684.025,8,400,,,
sequence,flow.Sequence,4_123,2023-09-16T02:48:19.887Z,,0,,,2752.2369999523507,completion,,,,,false,,,,598669.5999999642,598669.2999999523,595900.397,595917.6999999881,595917.063,598684.025,8,400,,,
trial,html.Screen,4_124_0,2023-09-16T02:48:22.868Z,,0,3,,2966.4749999999767,response,ISIC_0033501.JPG,8,ISIC_7277310.JPG,ISIC_7277310.JPG,false,0,keypress(z),500,601650.8999999762,601650.5,598667.359,598669.6999999881,598684.025,601667.239,8,400,25,,ISIC_0033501.JPG
break,html.Screen,4_124_1,2023-09-16T02:48:22.869Z,,0,,,NaN,,,,,,false,,,,601651.8999999762,601651.5999999642,,601651.0999999642,,601667.239,8,400,,,
break_continue,html.Screen,4_124_2,2023-09-16T02:48:22.870Z,,0,,,NaN,,,,,,false,,,,601652.2999999523,601652.1999999881,,601652,,601667.239,8,400,,,
sequence,flow.Sequence,4_124,2023-09-16T02:48:22.870Z,,0,,,2968.174999988056,completion,,,,,false,,,,601652.3999999762,601652.1999999881,598667.359,598669.5999999642,598684.025,601667.239,8,400,,,
trial,html.Screen,4_125_0,2023-09-16T02:48:25.629Z,,0,3,,2743.860999964294,response,ISIC_0033194.JPG,6,ISIC_0013867.JPG,ISIC_0013867.JPG,false,0,keypress(z),500,604411.5,604411.0999999642,601650.573,601652.5999999642,601667.239,604417.129,8,400,26,,ISIC_0033194.JPG
break,html.Screen,4_125_1,2023-09-16T02:48:25.630Z,,0,,,NaN,,,,,,false,,,,604412.5,604412.2999999523,,604411.7999999523,,604417.129,8,400,,,
