sender,sender_type,sender_id,timestamp,meta,,blockNo,condition,duration,ended_on,img_left,img_reveal,img_right,loser,practice,response,response_action,selection_duration,time_commit,time_end,time_render,time_run,time_show,time_switch,total_blocks,total_trials,trialNo,url,winner
informed_consent,html.Screen,0,2023-11-02T01:03:14.111Z,"{""labjs_version"":""20.2.4"",""labjs_build"":{""flavor"":""production"",""commit"":""f5b4a49f956347addd546a832a3327688c2c0fef""},""location"":""https://run.pavlovia.org/MurrayBennett/melanoma-2afc/?participant=67060&platform=sona"",""userAgent"":""Mozilla/5.0 (Windows NT 10.0; Win64; x64; rv:109.0) Gecko/20100101 Firefox/119.0"",""platform"":""Win32"",""language"":""en-US"",""locale"":""en-US"",""timeZone"":""America/Chicago"",""timezoneOffset"":300,""screen_width"":1920,""screen_height"":1080,""scroll_width"":1920,""scroll_height"":889,""window_innerWidth"":1920,""window_innerHeight"":937,""devicePixelRatio"":1}",,,,4004.26,response,,,,,,consent,click button,,6797,6780,2768.8,2770,2775.74,6797.78,,,,"{""participant"":""67060"",""platform"":""sona""}",
Welcome,html.Screen,1,2023-11-02T01:03:23.260Z,,,,symmetry,9137.220000000001,response,,,,,,continue,click button,,15945,15935,6796.56,6797,6797.78,15951.86,,,,,
trial,html.Screen,2_0_0,2023-11-02T01:03:27.715Z,,0,0,,4449.139999999999,response,ISIC_0069348.JPG,,ISIC_6997061.JPG,ISIC_0069348.JPG,true,1,keypress(m),500,20401,20401,15944.26,15946,15951.86,20401.08,1,6,1,,ISIC_6997061.JPG
sequence,flow.Sequence,2_0,2023-11-02T01:03:27.715Z,,0,,,4449.139999999999,completion,,,,,true,,,,20401,20401,15944.26,15946,15951.86,20401.08,1,6,,,
trial,html.Screen,2_1_0,2023-11-02T01:03:31.113Z,,0,0,,3396.9199999999983,response,ISIC_0009529.JPG,,ISIC_0057368.JPG,ISIC_0057368.JPG,true,0,keypress(z),500,23798,23798,20401,20401,20401.08,23798.68,1,6,2,,ISIC_0009529.JPG
sequence,flow.Sequence,2_1,2023-11-02T01:03:31.113Z,,0,,,3396.9199999999983,completion,,,,,true,,,,23798,23798,20401,20401,20401.08,23798.68,1,6,,,
trial,html.Screen,2_2_0,2023-11-02T01:03:34.629Z,,0,0,,3516.3199999999997,response,ISIC_0064954.JPG,,ISIC_9758671.JPG,ISIC_9758671.JPG,true,0,keypress(z),500,27315,27315,23798.6,23798,23798.68,27314.8,1,6,3,,ISIC_0064954.JPG
sequence,flow.Sequence,2_2,2023-11-02T01:03:34.629Z,,0,,,3516.3199999999997,completion,,,,,true,,,,27315,27315,23798.6,23798,23798.68,27314.8,1,6,,,
trial,html.Screen,2_3_0,2023-11-02T01:03:38.070Z,,0,0,,3440.2000000000007,response,ISIC_0005785.JPG,,ISIC_0000080.JPG,ISIC_0005785.JPG,true,1,keypress(m),500,30755,30755,27314.7,27315,27314.8,30755.9,1,6,4,,ISIC_0000080.JPG
sequence,flow.Sequence,2_3,2023-11-02T01:03:38.070Z,,0,,,3440.2000000000007,completion,,,,,true,,,,30756,30755,27314.7,27315,27314.8,30755.9,1,6,,,
trial,html.Screen,2_4_0,2023-11-02T01:03:41.003Z,,0,0,,2933.0999999999985,response,ISIC_7944028.JPG,,ISIC_5390060.JPG,ISIC_5390060.JPG,true,0,keypress(z),500,33689,33689,30755.82,30756,30755.9,33689.08,1,6,5,,ISIC_7944028.JPG
sequence,flow.Sequence,2_4,2023-11-02T01:03:41.003Z,,0,,,2933.0999999999985,completion,,,,,true,,,,33689,33689,30755.82,30756,30755.9,33689.08,1,6,,,
trial,html.Screen,2_5_0,2023-11-02T01:03:46.963Z,,0,0,,5958.919999999998,response,ISIC_0794216.JPG,,ISIC_0010188.JPG,ISIC_0010188.JPG,true,0,keypress(z),500,39648,39648,33689,33689,33689.08,39648.78,1,6,6,,ISIC_0794216.JPG
sequence,flow.Sequence,2_5,2023-11-02T01:03:46.963Z,,0,,,5958.919999999998,completion,,,,,true,,,,39648,39648,33689,33689,33689.08,39648.78,1,6,,,
loop,flow.Loop,2,2023-11-02T01:03:46.963Z,,,,,23696.14,completion,,,,,true,,,,39649,39648,15944.26,15946,15951.86,39648.78,1,6,,,
exp_instructions,html.Screen,3,2023-11-02T01:04:04.179Z,,,,,17209.22,response,,,,,,continue,keypress(Space),,56865,56858,39648.7,39649,39648.78,56864.58,,,,,
trial,html.Screen,4_0_0,2023-11-02T01:04:07.443Z,,0,1,,3264.4199999999983,response,ISIC_2059085.JPG,7,ISIC_0057287.JPG,ISIC_2059085.JPG,false,1,keypress(m),500,60129,60129,56864.52,56865,56864.58,60129.06,8,400,1,,ISIC_0057287.JPG
break,html.Screen,4_0_1,2023-11-02T01:04:07.443Z,,0,,,NaN,,,,,,false,,,,60130,60130,,60129,,60129.06,8,400,,,
break_continue,html.Screen,4_0_2,2023-11-02T01:04:07.444Z,,0,,,NaN,,,,,,false,,,,60130,60130,,60130,,60129.06,8,400,,,
sequence,flow.Sequence,4_0,2023-11-02T01:04:07.444Z,,0,,,3265.4199999999983,completion,,,,,false,,,,60130,60130,56864.52,56865,56864.58,60129.06,8,400,,,
trial,html.Screen,4_1_0,2023-11-02T01:04:12.006Z,,0,1,,4561.940000000002,response,ISIC_0033174.JPG,13,ISIC_0830217.JPG,ISIC_0033174.JPG,false,1,keypress(m),500,64692,64691,60128.98,60130,60129.06,64691.58,8,400,2,,ISIC_0830217.JPG
break,html.Screen,4_1_1,2023-11-02T01:04:12.007Z,,0,,,NaN,,,,,,false,,,,64692,64692,,64692,,64691.58,8,400,,,
break_continue,html.Screen,4_1_2,2023-11-02T01:04:12.007Z,,0,,,NaN,,,,,,false,,,,64692,64692,,64692,,64691.58,8,400,,,
sequence,flow.Sequence,4_1,2023-11-02T01:04:12.007Z,,0,,,4562.940000000002,completion,,,,,false,,,,64692,64692,60128.98,60130,60129.06,64691.58,8,400,,,
trial,html.Screen,4_2_0,2023-11-02T01:04:15.183Z,,0,1,,3176.4199999999983,response,ISIC_0059884.JPG,11,ISIC_0028022.JPG,ISIC_0059884.JPG,false,1,keypress(m),500,67869,67868,64691.5,64692,64691.58,67868.9,8,400,3,,ISIC_0028022.JPG
break,html.Screen,4_2_1,2023-11-02T01:04:15.184Z,,0,,,NaN,,,,,,false,,,,67869,67869,,67869,,67868.9,8,400,,,
break_continue,html.Screen,4_2_2,2023-11-02T01:04:15.184Z,,0,,,NaN,,,,,,false,,,,67869,67869,,67869,,67868.9,8,400,,,
sequence,flow.Sequence,4_2,2023-11-02T01:04:15.184Z,,0,,,3177.4199999999983,completion,,,,,false,,,,67869,67869,64691.5,64692,64691.58,67868.9,8,400,,,
trial,html.Screen,4_3_0,2023-11-02T01:04:18.067Z,,0,1,,2884.100000000006,response,ISIC_0963536.JPG,4,ISIC_0698821.JPG,ISIC_0963536.JPG,false,1,keypress(m),500,70753,70753,67868.82,67870,67868.9,70753.44,8,400,4,,ISIC_0698821.JPG
break,html.Screen,4_3_1,2023-11-02T01:04:18.068Z,,0,,,NaN,,,,,,false,,,,70753,70753,,70753,,70753.44,8,400,,,
break_continue,html.Screen,4_3_2,2023-11-02T01:04:18.068Z,,0,,,NaN,,,,,,false,,,,70753,70753,,70753,,70753.44,8,400,,,
sequence,flow.Sequence,4_3,2023-11-02T01:04:18.068Z,,0,,,2884.100000000006,completion,,,,,false,,,,70754,70753,67868.82,67869,67868.9,70753.44,8,400,,,
trial,html.Screen,4_4_0,2023-11-02T01:04:29.561Z,,0,1,,11506.319999999992,timeout,ISIC_0025817.JPG,10,ISIC_7013005.JPG,,false,,,500,82246,82246,70753.36,70754,70753.44,82259.76,8,400,5,,
break,html.Screen,4_4_1,2023-11-02T01:04:29.561Z,,0,,,NaN,,,,,,false,,,,82247,82247,,82247,,82259.76,8,400,,,
break_continue,html.Screen,4_4_2,2023-11-02T01:04:29.562Z,,0,,,NaN,,,,,,false,,,,82247,82247,,82247,,82259.76,8,400,,,
sequence,flow.Sequence,4_4,2023-11-02T01:04:29.562Z,,0,,,11493.559999999998,completion,,,,,false,,,,82247,82247,70753.36,70754,70753.44,82259.76,8,400,,,
trial,html.Screen,4_5_0,2023-11-02T01:04:32.849Z,,0,1,,3274.2400000000052,response,ISIC_0028129.JPG,3,ISIC_1131588.JPG,ISIC_0028129.JPG,false,1,keypress(m),500,85535,85534,82252.82,82248,82259.76,85534.88,8,400,6,,ISIC_1131588.JPG
break,html.Screen,4_5_1,2023-11-02T01:04:32.850Z,,0,,,NaN,,,,,,false,,,,85535,85535,,85535,,85534.88,8,400,,,
break_continue,html.Screen,4_5_2,2023-11-02T01:04:32.850Z,,0,,,NaN,,,,,,false,,,,85535,85535,,85535,,85534.88,8,400,,,
sequence,flow.Sequence,4_5,2023-11-02T01:04:32.850Z,,0,,,3275.2400000000052,completion,,,,,false,,,,85535,85535,82252.82,82247,82259.76,85534.88,8,400,,,
trial,html.Screen,4_6_0,2023-11-02T01:04:35.680Z,,0,1,,2830.1199999999953,response,ISIC_7376906.JPG,11,ISIC_0069908.JPG,ISIC_7376906.JPG,false,1,keypress(m),500,88365,88365,85534.8,85536,85534.88,88365.68,8,400,7,,ISIC_0069908.JPG
break,html.Screen,4_6_1,2023-11-02T01:04:35.680Z,,0,,,NaN,,,,,,false,,,,88365,88365,,88365,,88365.68,8,400,,,
break_continue,html.Screen,4_6_2,2023-11-02T01:04:35.681Z,,0,,,NaN,,,,,,false,,,,88367,88366,,88366,,88365.68,8,400,,,
sequence,flow.Sequence,4_6,2023-11-02T01:04:35.681Z,,0,,,2831.1199999999953,completion,,,,,false,,,,88367,88366,85534.8,85536,85534.88,88365.68,8,400,,,
trial,html.Screen,4_7_0,2023-11-02T01:04:39.056Z,,0,1,,3375.320000000007,response,ISIC_0028136.JPG,10,ISIC_0028655.JPG,ISIC_0028655.JPG,false,0,keypress(z),500,91742,91741,88365.6,88367,88365.68,91742.06,8,400,8,,ISIC_0028136.JPG
break,html.Screen,4_7_1,2023-11-02T01:04:39.056Z,,0,,,NaN,,,,,,false,,,,91742,91742,,91742,,91742.06,8,400,,,
break_continue,html.Screen,4_7_2,2023-11-02T01:04:39.057Z,,0,,,NaN,,,,,,false,,,,91742,91742,,91742,,91742.06,8,400,,,
sequence,flow.Sequence,4_7,2023-11-02T01:04:39.057Z,,0,,,3376.320000000007,completion,,,,,false,,,,91742,91742,88365.6,88367,88365.68,91742.06,8,400,,,
trial,html.Screen,4_8_0,2023-11-02T01:04:41.809Z,,0,1,,2752.9400000000023,response,ISIC_2431690.JPG,10,ISIC_9694867.JPG,ISIC_2431690.JPG,false,1,keypress(m),500,94495,94495,91741.98,91742,91742.06,94494.56,8,400,9,,ISIC_9694867.JPG
break,html.Screen,4_8_1,2023-11-02T01:04:41.810Z,,0,,,NaN,,,,,,false,,,,94495,94495,,94495,,94494.56,8,400,,,
break_continue,html.Screen,4_8_2,2023-11-02T01:04:41.810Z,,0,,,NaN,,,,,,false,,,,94495,94495,,94495,,94494.56,8,400,,,
sequence,flow.Sequence,4_8,2023-11-02T01:04:41.810Z,,0,,,2752.9400000000023,completion,,,,,false,,,,94495,94495,91741.98,91742,91742.06,94494.56,8,400,,,
trial,html.Screen,4_9_0,2023-11-02T01:04:45.173Z,,0,1,,3363.4400000000023,response,ISIC_8806180.JPG,14,ISIC_0002811.JPG,ISIC_0002811.JPG,false,0,keypress(z),500,97859,97858,94494.48,94495,94494.56,97858.78,8,400,10,,ISIC_8806180.JPG
break,html.Screen,4_9_1,2023-11-02T01:04:45.173Z,,0,,,NaN,,,,,,false,,,,97859,97859,,97859,,97858.78,8,400,,,
break_continue,html.Screen,4_9_2,2023-11-02T01:04:45.173Z,,0,,,NaN,,,,,,false,,,,97859,97859,,97859,,97858.78,8,400,,,
sequence,flow.Sequence,4_9,2023-11-02T01:04:45.173Z,,0,,,3364.4400000000023,completion,,,,,false,,,,97859,97859,94494.48,94495,94494.56,97858.78,8,400,,,
trial,html.Screen,4_10_0,2023-11-02T01:04:48.098Z,,0,1,,2924.220000000001,response,ISIC_0059037.JPG,7,ISIC_4344870.JPG,ISIC_4344870.JPG,false,0,keypress(z),500,100783,100783,97858.7,97859,97858.78,100783.38,8,400,11,,ISIC_0059037.JPG
break,html.Screen,4_10_1,2023-11-02T01:04:48.098Z,,0,,,NaN,,,,,,false,,,,100784,100784,,100783,,100783.38,8,400,,,
break_continue,html.Screen,4_10_2,2023-11-02T01:04:48.098Z,,0,,,NaN,,,,,,false,,,,100784,100784,,100784,,100783.38,8,400,,,
sequence,flow.Sequence,4_10,2023-11-02T01:04:48.098Z,,0,,,2925.220000000001,completion,,,,,false,,,,100784,100784,97858.7,97859,97858.78,100783.38,8,400,,,
trial,html.Screen,4_11_0,2023-11-02T01:04:51.028Z,,0,1,,2930.6199999999953,response,ISIC_0061141.JPG,13,ISIC_0029672.JPG,ISIC_0061141.JPG,false,1,keypress(m),500,103714,103714,100783.28,100784,100783.38,103714.12,8,400,12,,ISIC_0029672.JPG
break,html.Screen,4_11_1,2023-11-02T01:04:51.029Z,,0,,,NaN,,,,,,false,,,,103715,103715,,103715,,103714.12,8,400,,,
break_continue,html.Screen,4_11_2,2023-11-02T01:04:51.029Z,,0,,,NaN,,,,,,false,,,,103715,103715,,103715,,103714.12,8,400,,,
sequence,flow.Sequence,4_11,2023-11-02T01:04:51.029Z,,0,,,2931.6199999999953,completion,,,,,false,,,,103715,103715,100783.28,100784,100783.38,103714.12,8,400,,,
trial,html.Screen,4_12_0,2023-11-02T01:04:53.782Z,,0,1,,2753.8800000000047,response,ISIC_0014233.JPG,9,ISIC_8959410.JPG,ISIC_0014233.JPG,false,1,keypress(m),500,106468,106468,103714.04,103715,103714.12,106468.76,8,400,13,,ISIC_8959410.JPG
break,html.Screen,4_12_1,2023-11-02T01:04:53.784Z,,0,,,NaN,,,,,,false,,,,106469,106469,,106468,,106468.76,8,400,,,
break_continue,html.Screen,4_12_2,2023-11-02T01:04:53.784Z,,0,,,NaN,,,,,,false,,,,106469,106469,,106469,,106468.76,8,400,,,
sequence,flow.Sequence,4_12,2023-11-02T01:04:53.784Z,,0,,,2754.8800000000047,completion,,,,,false,,,,106469,106469,103714.04,103715,103714.12,106468.76,8,400,,,
trial,html.Screen,4_13_0,2023-11-02T01:04:57.161Z,,0,1,,3378.2400000000052,response,ISIC_0032938.JPG,12,ISIC_1104374.JPG,ISIC_0032938.JPG,false,1,keypress(m),500,109847,109847,106468.66,106469,106468.76,109847.22,8,400,14,,ISIC_1104374.JPG
break,html.Screen,4_13_1,2023-11-02T01:04:57.161Z,,0,,,NaN,,,,,,false,,,,109848,109847,,109847,,109847.22,8,400,,,
break_continue,html.Screen,4_13_2,2023-11-02T01:04:57.163Z,,0,,,NaN,,,,,,false,,,,109848,109848,,109848,,109847.22,8,400,,,
sequence,flow.Sequence,4_13,2023-11-02T01:04:57.163Z,,0,,,3379.2400000000052,completion,,,,,false,,,,109848,109848,106468.66,106469,106468.76,109847.22,8,400,,,
trial,html.Screen,4_14_0,2023-11-02T01:05:00.269Z,,0,1,,3107.779999999999,response,ISIC_0014766.JPG,12,ISIC_3926019.JPG,ISIC_0014766.JPG,false,1,keypress(m),500,112955,112955,109847.12,109848,109847.22,112955.04,8,400,15,,ISIC_3926019.JPG
break,html.Screen,4_14_1,2023-11-02T01:05:00.269Z,,0,,,NaN,,,,,,false,,,,112956,112956,,112955,,112955.04,8,400,,,
break_continue,html.Screen,4_14_2,2023-11-02T01:05:00.269Z,,0,,,NaN,,,,,,false,,,,112956,112956,,112956,,112955.04,8,400,,,
sequence,flow.Sequence,4_14,2023-11-02T01:05:00.270Z,,0,,,3108.779999999999,completion,,,,,false,,,,112956,112956,109847.12,109848,109847.22,112955.04,8,400,,,
trial,html.Screen,4_15_0,2023-11-02T01:05:03.307Z,,0,1,,3037.9600000000064,response,ISIC_3882374.JPG,8,ISIC_0012722.JPG,ISIC_3882374.JPG,false,1,keypress(m),500,115993,115993,112954.96,112956,112955.04,115992.74,8,400,16,,ISIC_0012722.JPG
break,html.Screen,4_15_1,2023-11-02T01:05:03.307Z,,0,,,NaN,,,,,,false,,,,115993,115993,,115993,,115992.74,8,400,,,
break_continue,html.Screen,4_15_2,2023-11-02T01:05:03.308Z,,0,,,NaN,,,,,,false,,,,115993,115993,,115993,,115992.74,8,400,,,
sequence,flow.Sequence,4_15,2023-11-02T01:05:03.308Z,,0,,,3037.9600000000064,completion,,,,,false,,,,115994,115993,112954.96,112956,112955.04,115992.74,8,400,,,
trial,html.Screen,4_16_0,2023-11-02T01:05:06.603Z,,0,1,,3296.2599999999948,response,ISIC_5526879.JPG,11,ISIC_6382207.JPG,ISIC_5526879.JPG,false,1,keypress(m),500,119289,119289,115992.68,115994,115992.74,119288.48,8,400,17,,ISIC_6382207.JPG
break,html.Screen,4_16_1,2023-11-02T01:05:06.603Z,,0,,,NaN,,,,,,false,,,,119289,119289,,119289,,119288.48,8,400,,,
break_continue,html.Screen,4_16_2,2023-11-02T01:05:06.603Z,,0,,,NaN,,,,,,false,,,,119289,119289,,119289,,119288.48,8,400,,,
sequence,flow.Sequence,4_16,2023-11-02T01:05:06.603Z,,0,,,3296.2599999999948,completion,,,,,false,,,,119290,119289,115992.68,115994,115992.74,119288.48,8,400,,,
trial,html.Screen,4_17_0,2023-11-02T01:05:09.646Z,,0,1,,3042.520000000004,response,ISIC_7335659.JPG,11,ISIC_7799968.JPG,ISIC_7335659.JPG,false,1,keypress(m),500,122331,122331,119288.44,119290,119288.48,122331.28,8,400,18,,ISIC_7799968.JPG
break,html.Screen,4_17_1,2023-11-02T01:05:09.646Z,,0,,,NaN,,,,,,false,,,,122332,122331,,122331,,122331.28,8,400,,,
break_continue,html.Screen,4_17_2,2023-11-02T01:05:09.646Z,,0,,,NaN,,,,,,false,,,,122332,122332,,122332,,122331.28,8,400,,,
sequence,flow.Sequence,4_17,2023-11-02T01:05:09.646Z,,0,,,3043.520000000004,completion,,,,,false,,,,122332,122332,119288.44,119290,119288.48,122331.28,8,400,,,
trial,html.Screen,4_18_0,2023-11-02T01:05:12.928Z,,0,1,,3281.720000000001,response,ISIC_3824206.JPG,29,ISIC_3087402.JPG,ISIC_3087402.JPG,false,0,keypress(z),500,125614,125613,122331.2,122332,122331.28,125614.16,8,400,19,,ISIC_3824206.JPG
break,html.Screen,4_18_1,2023-11-02T01:05:12.928Z,,0,,,NaN,,,,,,false,,,,125614,125614,,125614,,125614.16,8,400,,,
break_continue,html.Screen,4_18_2,2023-11-02T01:05:12.929Z,,0,,,NaN,,,,,,false,,,,125614,125614,,125614,,125614.16,8,400,,,
sequence,flow.Sequence,4_18,2023-11-02T01:05:12.929Z,,0,,,3282.720000000001,completion,,,,,false,,,,125614,125614,122331.2,122332,122331.28,125614.16,8,400,,,
trial,html.Screen,4_19_0,2023-11-02T01:05:16.413Z,,0,1,,3484.8399999999965,response,ISIC_1050000.JPG,6,ISIC_3948754.JPG,ISIC_3948754.JPG,false,0,keypress(z),500,129099,129099,125614.08,125614,125614.16,129098.9,8,400,20,,ISIC_1050000.JPG
break,html.Screen,4_19_1,2023-11-02T01:05:16.414Z,,0,,,NaN,,,,,,false,,,,129100,129100,,129099,,129098.9,8,400,,,
break_continue,html.Screen,4_19_2,2023-11-02T01:05:16.414Z,,0,,,NaN,,,,,,false,,,,129100,129100,,129100,,129098.9,8,400,,,
sequence,flow.Sequence,4_19,2023-11-02T01:05:16.414Z,,0,,,3485.8399999999965,completion,,,,,false,,,,129100,129100,125614.08,125614,125614.16,129098.9,8,400,,,
trial,html.Screen,4_20_0,2023-11-02T01:05:19.888Z,,0,1,,3474.100000000006,response,ISIC_0033265.JPG,15,ISIC_0028397.JPG,ISIC_0028397.JPG,false,0,keypress(z),500,132574,132573,129098.84,129100,129098.9,132574.12,8,400,21,,ISIC_0033265.JPG
break,html.Screen,4_20_1,2023-11-02T01:05:19.889Z,,0,,,NaN,,,,,,false,,,,132575,132575,,132574,,132574.12,8,400,,,
break_continue,html.Screen,4_20_2,2023-11-02T01:05:19.889Z,,0,,,NaN,,,,,,false,,,,132575,132575,,132575,,132574.12,8,400,,,
sequence,flow.Sequence,4_20,2023-11-02T01:05:19.889Z,,0,,,3476.100000000006,completion,,,,,false,,,,132575,132575,129098.84,129100,129098.9,132574.12,8,400,,,
trial,html.Screen,4_21_0,2023-11-02T01:05:23.249Z,,0,1,,3360.8800000000047,response,ISIC_0000551.JPG,9,ISIC_0033668.JPG,ISIC_0033668.JPG,false,0,keypress(z),500,135935,135935,132574.04,132575,132574.12,135934.62,8,400,22,,ISIC_0000551.JPG
break,html.Screen,4_21_1,2023-11-02T01:05:23.249Z,,0,,,NaN,,,,,,false,,,,135935,135935,,135935,,135934.62,8,400,,,
break_continue,html.Screen,4_21_2,2023-11-02T01:05:23.249Z,,0,,,NaN,,,,,,false,,,,135935,135935,,135935,,135934.62,8,400,,,
sequence,flow.Sequence,4_21,2023-11-02T01:05:23.249Z,,0,,,3360.8800000000047,completion,,,,,false,,,,135935,135935,132574.04,132575,132574.12,135934.62,8,400,,,
trial,html.Screen,4_22_0,2023-11-02T01:05:26.241Z,,0,1,,2992.3800000000047,response,ISIC_0033245.JPG,27,ISIC_0014629.JPG,ISIC_0014629.JPG,false,0,keypress(z),500,138927,138927,135934.54,135936,135934.62,138927.5,8,400,23,,ISIC_0033245.JPG
break,html.Screen,4_22_1,2023-11-02T01:05:26.242Z,,0,,,NaN,,,,,,false,,,,138927,138927,,138927,,138927.5,8,400,,,
break_continue,html.Screen,4_22_2,2023-11-02T01:05:26.242Z,,0,,,NaN,,,,,,false,,,,138927,138927,,138927,,138927.5,8,400,,,
sequence,flow.Sequence,4_22,2023-11-02T01:05:26.242Z,,0,,,2992.3800000000047,completion,,,,,false,,,,138927,138927,135934.54,135936,135934.62,138927.5,8,400,,,
trial,html.Screen,4_23_0,2023-11-02T01:05:29.636Z,,0,1,,3394.5,response,ISIC_7702857.JPG,13,ISIC_3552318.JPG,ISIC_7702857.JPG,false,1,keypress(m),500,142322,142322,138926.82,138928,138927.5,142322.04,8,400,24,,ISIC_3552318.JPG
break,html.Screen,4_23_1,2023-11-02T01:05:29.636Z,,0,,,NaN,,,,,,false,,,,142323,142323,,142322,,142322.04,8,400,,,
break_continue,html.Screen,4_23_2,2023-11-02T01:05:29.636Z,,0,,,NaN,,,,,,false,,,,142323,142323,,142323,,142322.04,8,400,,,
sequence,flow.Sequence,4_23,2023-11-02T01:05:29.636Z,,0,,,3395.5,completion,,,,,false,,,,142323,142323,138926.82,138927,138927.5,142322.04,8,400,,,
trial,html.Screen,4_24_0,2023-11-02T01:05:32.550Z,,0,1,,2912.959999999992,response,ISIC_1312827.JPG,12,ISIC_0593591.JPG,ISIC_0593591.JPG,false,0,keypress(z),500,145235,145235,142321.96,142323,142322.04,145235.9,8,400,25,,ISIC_1312827.JPG
break,html.Screen,4_24_1,2023-11-02T01:05:32.550Z,,0,,,NaN,,,,,,false,,,,145237,145236,,145235,,145235.9,8,400,,,
break_continue,html.Screen,4_24_2,2023-11-02T01:05:32.550Z,,0,,,NaN,,,,,,false,,,,145237,145237,,145237,,145235.9,8,400,,,
sequence,flow.Sequence,4_24,2023-11-02T01:05:32.551Z,,0,,,2914.959999999992,completion,,,,,false,,,,145237,145237,142321.96,142323,142322.04,145235.9,8,400,,,
trial,html.Screen,4_25_0,2023-11-02T01:05:35.332Z,,0,1,,2782.100000000006,response,ISIC_0004907.JPG,11,ISIC_0032970.JPG,ISIC_0004907.JPG,false,1,keypress(m),500,148018,148018,145235.8,145237,145235.9,148017.62,8,400,26,,ISIC_0032970.JPG
break,html.Screen,4_25_1,2023-11-02T01:05:35.332Z,,0,,,NaN,,,,,,false,,,,148018,148018,,148018,,148017.62,8,400,,,
break_continue,html.Screen,4_25_2,2023-11-02T01:05:35.332Z,,0,,,NaN,,,,,,false,,,,148018,148018,,148018,,148017.62,8,400,,,
sequence,flow.Sequence,4_25,2023-11-02T01:05:35.332Z,,0,,,2782.100000000006,completion,,,,,false,,,,148018,148018,145235.8,145237,145235.9,148017.62,8,400,,,
trial,html.Screen,4_26_0,2023-11-02T01:05:38.435Z,,0,1,,3102.3800000000047,response,ISIC_0072953.JPG,15,ISIC_7507286.JPG,ISIC_0072953.JPG,false,1,keypress(m),500,151120,151120,148017.54,148018,148017.62,151120.58,8,400,27,,ISIC_7507286.JPG
break,html.Screen,4_26_1,2023-11-02T01:05:38.435Z,,0,,,NaN,,,,,,false,,,,151121,151120,,151120,,151120.58,8,400,,,
break_continue,html.Screen,4_26_2,2023-11-02T01:05:38.436Z,,0,,,NaN,,,,,,false,,,,151121,151121,,151121,,151120.58,8,400,,,
sequence,flow.Sequence,4_26,2023-11-02T01:05:38.436Z,,0,,,3103.3800000000047,completion,,,,,false,,,,151121,151121,148017.54,148018,148017.62,151120.58,8,400,,,
trial,html.Screen,4_27_0,2023-11-02T01:05:41.759Z,,0,1,,3324.420000000013,response,ISIC_0067318.JPG,4,ISIC_0067804.JPG,ISIC_0067318.JPG,false,1,keypress(m),500,154445,154445,151120.5,151121,151120.58,154445.14,8,400,28,,ISIC_0067804.JPG
break,html.Screen,4_27_1,2023-11-02T01:05:41.759Z,,0,,,NaN,,,,,,false,,,,154446,154446,,154445,,154445.14,8,400,,,
break_continue,html.Screen,4_27_2,2023-11-02T01:05:41.759Z,,0,,,NaN,,,,,,false,,,,154446,154446,,154446,,154445.14,8,400,,,
sequence,flow.Sequence,4_27,2023-11-02T01:05:41.760Z,,0,,,3325.420000000013,completion,,,,,false,,,,154446,154446,151120.5,151121,151120.58,154445.14,8,400,,,
trial,html.Screen,4_28_0,2023-11-02T01:05:44.991Z,,0,1,,3231.859999999986,response,ISIC_4786412.JPG,13,ISIC_6352565.JPG,ISIC_6352565.JPG,false,0,keypress(z),500,157677,157677,154445.06,154446,154445.14,157677.66,8,400,29,,ISIC_4786412.JPG
break,html.Screen,4_28_1,2023-11-02T01:05:44.992Z,,0,,,NaN,,,,,,false,,,,157678,157678,,157677,,157677.66,8,400,,,
break_continue,html.Screen,4_28_2,2023-11-02T01:05:44.992Z,,0,,,NaN,,,,,,false,,,,157678,157678,,157678,,157677.66,8,400,,,
sequence,flow.Sequence,4_28,2023-11-02T01:05:44.992Z,,0,,,3232.859999999986,completion,,,,,false,,,,157678,157678,154445.06,154446,154445.14,157677.66,8,400,,,
trial,html.Screen,4_29_0,2023-11-02T01:05:47.945Z,,0,1,,2952.3399999999965,response,ISIC_0002774.JPG,14,ISIC_3084213.JPG,ISIC_0002774.JPG,false,1,keypress(m),500,160631,160630,157677.58,157678,157677.66,160631.94,8,400,30,,ISIC_3084213.JPG
break,html.Screen,4_29_1,2023-11-02T01:05:47.946Z,,0,,,NaN,,,,,,false,,,,160631,160631,,160631,,160631.94,8,400,,,
break_continue,html.Screen,4_29_2,2023-11-02T01:05:47.946Z,,0,,,NaN,,,,,,false,,,,160631,160631,,160631,,160631.94,8,400,,,
sequence,flow.Sequence,4_29,2023-11-02T01:05:47.946Z,,0,,,2953.3399999999965,completion,,,,,false,,,,160631,160631,157677.58,157678,157677.66,160631.94,8,400,,,
trial,html.Screen,4_30_0,2023-11-02T01:05:50.940Z,,0,1,,2994.0599999999977,response,ISIC_0033119.JPG,11,ISIC_0031295.JPG,ISIC_0033119.JPG,false,1,keypress(m),500,163627,163626,160630.6,160631,160631.94,163626.34,8,400,31,,ISIC_0031295.JPG
break,html.Screen,4_30_1,2023-11-02T01:05:50.941Z,,0,,,NaN,,,,,,false,,,,163627,163627,,163627,,163626.34,8,400,,,
break_continue,html.Screen,4_30_2,2023-11-02T01:05:50.941Z,,0,,,NaN,,,,,,false,,,,163627,163627,,163627,,163626.34,8,400,,,
sequence,flow.Sequence,4_30,2023-11-02T01:05:50.941Z,,0,,,2995.0599999999977,completion,,,,,false,,,,163627,163627,160630.6,160631,160631.94,163626.34,8,400,,,
trial,html.Screen,4_31_0,2023-11-02T01:05:53.682Z,,0,1,,2741.6600000000035,response,ISIC_3926305.JPG,30,ISIC_9061511.JPG,ISIC_9061511.JPG,false,0,keypress(z),500,166369,166368,163626.26,163627,163626.34,166368.42,8,400,32,,ISIC_3926305.JPG
break,html.Screen,4_31_1,2023-11-02T01:05:53.683Z,,0,,,NaN,,,,,,false,,,,166369,166369,,166369,,166368.42,8,400,,,
break_continue,html.Screen,4_31_2,2023-11-02T01:05:53.683Z,,0,,,NaN,,,,,,false,,,,166369,166369,,166369,,166368.42,8,400,,,
sequence,flow.Sequence,4_31,2023-11-02T01:05:53.684Z,,0,,,2742.6600000000035,completion,,,,,false,,,,166369,166369,163626.26,163627,163626.34,166368.42,8,400,,,
trial,html.Screen,4_32_0,2023-11-02T01:05:56.431Z,,0,1,,2748.579999999987,response,ISIC_5595054.JPG,4,ISIC_0031883.JPG,ISIC_0031883.JPG,false,0,keypress(z),500,169117,169117,166368.34,166369,166368.42,169117.14,8,400,33,,ISIC_5595054.JPG
break,html.Screen,4_32_1,2023-11-02T01:05:56.431Z,,0,,,NaN,,,,,,false,,,,169117,169117,,169117,,169117.14,8,400,,,
break_continue,html.Screen,4_32_2,2023-11-02T01:05:56.431Z,,0,,,NaN,,,,,,false,,,,169117,169117,,169117,,169117.14,8,400,,,
sequence,flow.Sequence,4_32,2023-11-02T01:05:56.432Z,,0,,,2748.579999999987,completion,,,,,false,,,,169117,169117,166368.34,166369,166368.42,169117.14,8,400,,,
trial,html.Screen,4_33_0,2023-11-02T01:05:59.146Z,,0,1,,2714.859999999986,response,ISIC_0025235.JPG,1,ISIC_0905367.JPG,ISIC_0905367.JPG,false,0,keypress(z),500,171832,171832,169117.06,169118,169117.14,171832.58,8,400,34,,ISIC_0025235.JPG
break,html.Screen,4_33_1,2023-11-02T01:05:59.147Z,,0,,,NaN,,,,,,false,,,,171833,171833,,171832,,171832.58,8,400,,,
break_continue,html.Screen,4_33_2,2023-11-02T01:05:59.148Z,,0,,,NaN,,,,,,false,,,,171833,171833,,171833,,171832.58,8,400,,,
sequence,flow.Sequence,4_33,2023-11-02T01:05:59.148Z,,0,,,2715.859999999986,completion,,,,,false,,,,171833,171833,169117.06,169117,169117.14,171832.58,8,400,,,
trial,html.Screen,4_34_0,2023-11-02T01:06:02.086Z,,0,1,,2939.420000000013,response,ISIC_4055361.JPG,23,ISIC_7340112.JPG,ISIC_4055361.JPG,false,1,keypress(m),500,174772,174772,171832.48,171833,171832.58,174772.4,8,400,35,,ISIC_7340112.JPG
break,html.Screen,4_34_1,2023-11-02T01:06:02.087Z,,0,,,NaN,,,,,,false,,,,174772,174772,,174772,,174772.4,8,400,,,
break_continue,html.Screen,4_34_2,2023-11-02T01:06:02.087Z,,0,,,NaN,,,,,,false,,,,174772,174772,,174772,,174772.4,8,400,,,
sequence,flow.Sequence,4_34,2023-11-02T01:06:02.087Z,,0,,,2939.420000000013,completion,,,,,false,,,,174773,174772,171832.48,171833,171832.58,174772.4,8,400,,,
trial,html.Screen,4_35_0,2023-11-02T01:06:05.329Z,,0,1,,3242.600000000006,response,ISIC_1076474.JPG,11,ISIC_0034000.JPG,ISIC_1076474.JPG,false,1,keypress(m),500,178015,178015,174772.32,174773,174772.4,178015.38,8,400,36,,ISIC_0034000.JPG
break,html.Screen,4_35_1,2023-11-02T01:06:05.330Z,,0,,,NaN,,,,,,false,,,,178016,178016,,178015,,178015.38,8,400,,,
break_continue,html.Screen,4_35_2,2023-11-02T01:06:05.330Z,,0,,,NaN,,,,,,false,,,,178016,178016,,178016,,178015.38,8,400,,,
sequence,flow.Sequence,4_35,2023-11-02T01:06:05.330Z,,0,,,3243.600000000006,completion,,,,,false,,,,178016,178016,174772.32,174773,174772.4,178015.38,8,400,,,
trial,html.Screen,4_36_0,2023-11-02T01:06:08.178Z,,0,1,,2847.6199999999953,response,ISIC_4903988.JPG,2,ISIC_2178689.JPG,ISIC_4903988.JPG,false,1,keypress(m),500,180864,180863,178015.3,178016,178015.38,180863.96,8,400,37,,ISIC_2178689.JPG
break,html.Screen,4_36_1,2023-11-02T01:06:08.178Z,,0,,,NaN,,,,,,false,,,,180864,180864,,180864,,180863.96,8,400,,,
break_continue,html.Screen,4_36_2,2023-11-02T01:06:08.179Z,,0,,,NaN,,,,,,false,,,,180864,180864,,180864,,180863.96,8,400,,,
sequence,flow.Sequence,4_36,2023-11-02T01:06:08.179Z,,0,,,2848.6199999999953,completion,,,,,false,,,,180864,180864,178015.3,178016,178015.38,180863.96,8,400,,,
trial,html.Screen,4_37_0,2023-11-02T01:06:11.079Z,,0,1,,2902.040000000008,response,ISIC_0072195.JPG,22,ISIC_8562820.JPG,ISIC_8562820.JPG,false,0,keypress(z),500,183766,183766,180863.9,180864,180863.96,183765.68,8,400,38,,ISIC_0072195.JPG
break,html.Screen,4_37_1,2023-11-02T01:06:11.080Z,,0,,,NaN,,,,,,false,,,,183766,183766,,183766,,183765.68,8,400,,,
break_continue,html.Screen,4_37_2,2023-11-02T01:06:11.080Z,,0,,,NaN,,,,,,false,,,,183766,183766,,183766,,183765.68,8,400,,,
sequence,flow.Sequence,4_37,2023-11-02T01:06:11.080Z,,0,,,2902.040000000008,completion,,,,,false,,,,183766,183766,180863.9,180864,180863.96,183765.68,8,400,,,
trial,html.Screen,4_38_0,2023-11-02T01:06:14.129Z,,0,1,,3049.320000000007,response,ISIC_0056677.JPG,6,ISIC_0061199.JPG,ISIC_0061199.JPG,false,0,keypress(z),500,186815,186815,183765.6,183766,183765.68,186814.78,8,400,39,,ISIC_0056677.JPG
break,html.Screen,4_38_1,2023-11-02T01:06:14.129Z,,0,,,NaN,,,,,,false,,,,186815,186815,,186815,,186814.78,8,400,,,
break_continue,html.Screen,4_38_2,2023-11-02T01:06:14.129Z,,0,,,NaN,,,,,,false,,,,186815,186815,,186815,,186814.78,8,400,,,
sequence,flow.Sequence,4_38,2023-11-02T01:06:14.129Z,,0,,,3049.320000000007,completion,,,,,false,,,,186815,186815,183765.6,183766,183765.68,186814.78,8,400,,,
trial,html.Screen,4_39_0,2023-11-02T01:06:18.047Z,,0,1,,3917.220000000001,response,ISIC_0025243.JPG,12,ISIC_0067695.JPG,ISIC_0067695.JPG,false,0,keypress(z),500,190733,190732,186814.68,186815,186814.78,190740.34,8,400,40,,ISIC_0025243.JPG
break,html.Screen,4_39_1,2023-11-02T01:06:18.048Z,,0,,,NaN,,,,,,false,,,,190733,190733,,190733,,190740.34,8,400,,,
break_continue,html.Screen,4_39_2,2023-11-02T01:06:18.048Z,,0,,,NaN,,,,,,false,,,,190733,190733,,190733,,190740.34,8,400,,,
sequence,flow.Sequence,4_39,2023-11-02T01:06:18.048Z,,0,,,3918.220000000001,completion,,,,,false,,,,190733,190733,186814.68,186815,186814.78,190740.34,8,400,,,
trial,html.Screen,4_40_0,2023-11-02T01:06:20.972Z,,0,1,,2916.6600000000035,response,ISIC_7976724.JPG,9,ISIC_0034183.JPG,ISIC_7976724.JPG,false,1,keypress(m),500,193657,193657,190733.38,190733,190740.34,193664.36,8,400,41,,ISIC_0034183.JPG
break,html.Screen,4_40_1,2023-11-02T01:06:20.972Z,,0,,,NaN,,,,,,false,,,,193658,193658,,193658,,193664.36,8,400,,,
break_continue,html.Screen,4_40_2,2023-11-02T01:06:20.972Z,,0,,,NaN,,,,,,false,,,,193658,193658,,193658,,193664.36,8,400,,,
sequence,flow.Sequence,4_40,2023-11-02T01:06:20.972Z,,0,,,2917.6600000000035,completion,,,,,false,,,,193658,193658,190733.38,190733,190740.34,193664.36,8,400,,,
trial,html.Screen,4_41_0,2023-11-02T01:06:23.667Z,,0,1,,2687.640000000014,response,ISIC_0056389.JPG,4,ISIC_9211072.JPG,ISIC_9211072.JPG,false,0,keypress(z),500,196352,196352,193657.42,193658,193664.36,196352.74,8,400,42,,ISIC_0056389.JPG
break,html.Screen,4_41_1,2023-11-02T01:06:23.667Z,,0,,,NaN,,,,,,false,,,,196353,196353,,196352,,196352.74,8,400,,,
break_continue,html.Screen,4_41_2,2023-11-02T01:06:23.667Z,,0,,,NaN,,,,,,false,,,,196353,196353,,196353,,196352.74,8,400,,,
sequence,flow.Sequence,4_41,2023-11-02T01:06:23.667Z,,0,,,2688.640000000014,completion,,,,,false,,,,196353,196353,193657.42,193658,193664.36,196352.74,8,400,,,
trial,html.Screen,4_42_0,2023-11-02T01:06:26.476Z,,0,1,,2808.2600000000093,response,ISIC_0068100.JPG,1,ISIC_2563568.JPG,ISIC_2563568.JPG,false,0,keypress(z),500,199162,199161,196352.64,196353,196352.74,199161.78,8,400,43,,ISIC_0068100.JPG
break,html.Screen,4_42_1,2023-11-02T01:06:26.476Z,,0,,,NaN,,,,,,false,,,,199162,199162,,199162,,199161.78,8,400,,,
break_continue,html.Screen,4_42_2,2023-11-02T01:06:26.476Z,,0,,,NaN,,,,,,false,,,,199162,199162,,199162,,199161.78,8,400,,,
sequence,flow.Sequence,4_42,2023-11-02T01:06:26.476Z,,0,,,2809.2600000000093,completion,,,,,false,,,,199162,199162,196352.64,196353,196352.74,199161.78,8,400,,,
trial,html.Screen,4_43_0,2023-11-02T01:06:29.231Z,,0,1,,2755.220000000001,response,ISIC_0026204.JPG,8,ISIC_6260969.JPG,ISIC_6260969.JPG,false,0,keypress(z),500,201917,201917,199161.7,199162,199161.78,201917.18,8,400,44,,ISIC_0026204.JPG
break,html.Screen,4_43_1,2023-11-02T01:06:29.231Z,,0,,,NaN,,,,,,false,,,,201918,201917,,201917,,201917.18,8,400,,,
break_continue,html.Screen,4_43_2,2023-11-02T01:06:29.232Z,,0,,,NaN,,,,,,false,,,,201918,201918,,201918,,201917.18,8,400,,,
sequence,flow.Sequence,4_43,2023-11-02T01:06:29.232Z,,0,,,2756.220000000001,completion,,,,,false,,,,201918,201918,199161.7,199162,199161.78,201917.18,8,400,,,
trial,html.Screen,4_44_0,2023-11-02T01:06:32.119Z,,0,1,,2886.820000000007,response,ISIC_5552066.JPG,1,ISIC_5122220.JPG,ISIC_5552066.JPG,false,1,keypress(m),500,204804,204804,201917.1,201918,201917.18,204804.8,8,400,45,,ISIC_5122220.JPG
break,html.Screen,4_44_1,2023-11-02T01:06:32.120Z,,0,,,NaN,,,,,,false,,,,204805,204805,,204804,,204804.8,8,400,,,
break_continue,html.Screen,4_44_2,2023-11-02T01:06:32.120Z,,0,,,NaN,,,,,,false,,,,204805,204805,,204805,,204804.8,8,400,,,
sequence,flow.Sequence,4_44,2023-11-02T01:06:32.120Z,,0,,,2887.820000000007,completion,,,,,false,,,,204805,204805,201917.1,201918,201917.18,204804.8,8,400,,,
trial,html.Screen,4_45_0,2023-11-02T01:06:35.391Z,,0,1,,3271.2000000000116,response,ISIC_1753877.JPG,10,ISIC_9828853.JPG,ISIC_9828853.JPG,false,0,keypress(z),500,208076,208076,204804.72,204805,204804.8,208076.82,8,400,46,,ISIC_1753877.JPG
break,html.Screen,4_45_1,2023-11-02T01:06:35.392Z,,0,,,NaN,,,,,,false,,,,208077,208077,,208077,,208076.82,8,400,,,
break_continue,html.Screen,4_45_2,2023-11-02T01:06:35.392Z,,0,,,NaN,,,,,,false,,,,208077,208077,,208077,,208076.82,8,400,,,
sequence,flow.Sequence,4_45,2023-11-02T01:06:35.392Z,,0,,,3272.2000000000116,completion,,,,,false,,,,208077,208077,204804.72,204805,204804.8,208076.82,8,400,,,
trial,html.Screen,4_46_0,2023-11-02T01:06:38.545Z,,0,1,,3153.179999999993,response,ISIC_0031350.JPG,9,ISIC_0055013.JPG,ISIC_0031350.JPG,false,1,keypress(m),500,211230,211230,208076.76,208077,208076.82,211230.42,8,400,47,,ISIC_0055013.JPG
break,html.Screen,4_46_1,2023-11-02T01:06:38.545Z,,0,,,NaN,,,,,,false,,,,211231,211231,,211230,,211230.42,8,400,,,
break_continue,html.Screen,4_46_2,2023-11-02T01:06:38.545Z,,0,,,NaN,,,,,,false,,,,211231,211231,,211231,,211230.42,8,400,,,
sequence,flow.Sequence,4_46,2023-11-02T01:06:38.545Z,,0,,,3154.179999999993,completion,,,,,false,,,,211231,211231,208076.76,208077,208076.82,211230.42,8,400,,,
trial,html.Screen,4_47_0,2023-11-02T01:06:41.752Z,,0,1,,3207.579999999987,response,ISIC_0071303.JPG,30,ISIC_2748873.JPG,ISIC_2748873.JPG,false,0,keypress(z),500,214439,214438,211230.34,211231,211230.42,214438.62,8,400,48,,ISIC_0071303.JPG
break,html.Screen,4_47_1,2023-11-02T01:06:41.753Z,,0,,,NaN,,,,,,false,,,,214439,214439,,214439,,214438.62,8,400,,,
break_continue,html.Screen,4_47_2,2023-11-02T01:06:41.753Z,,0,,,NaN,,,,,,false,,,,214439,214439,,214439,,214438.62,8,400,,,
sequence,flow.Sequence,4_47,2023-11-02T01:06:41.753Z,,0,,,3208.579999999987,completion,,,,,false,,,,214439,214439,211230.34,211231,211230.42,214438.62,8,400,,,
trial,html.Screen,4_48_0,2023-11-02T01:06:44.704Z,,0,1,,2950.3800000000047,response,ISIC_6358752.JPG,12,ISIC_0033089.JPG,ISIC_6358752.JPG,false,1,keypress(m),500,217389,217389,214438.54,214439,214438.62,217389.26,8,400,49,,ISIC_0033089.JPG
break,html.Screen,4_48_1,2023-11-02T01:06:44.704Z,,0,,,NaN,,,,,,false,,,,217389,217389,,217389,,217389.26,8,400,,,
break_continue,html.Screen,4_48_2,2023-11-02T01:06:44.704Z,,0,,,NaN,,,,,,false,,,,217389,217389,,217389,,217389.26,8,400,,,
sequence,flow.Sequence,4_48,2023-11-02T01:06:44.704Z,,0,,,2950.3800000000047,completion,,,,,false,,,,217390,217389,214438.54,214439,214438.62,217389.26,8,400,,,
trial,html.Screen,4_49_0,2023-11-02T01:06:47.476Z,,0,1,,2772.7399999999907,response,ISIC_0025093.JPG,11,ISIC_0034170.JPG,ISIC_0034170.JPG,false,0,keypress(z),500,220162,220162,217389.2,217390,217389.26,220161.88,8,400,50,,ISIC_0025093.JPG
break,html.Screen,4_49_1,2023-11-02T01:06:57.470Z,,0,,,9999.26000000001,timeout,,,,,false,,,,230156,230154.2,220161.78,220162,220161.88,230161.14,8,400,,,
break_continue,html.Screen,4_49_2,2023-11-02T01:06:59.580Z,,0,,,2087.859999999986,response,,,,,false,continue,keypress(Space),,232266,232249,230154.2,230156,230161.14,232266.16,8,400,,,
sequence,flow.Sequence,4_49,2023-11-02T01:06:59.580Z,,0,,,14859.73999999999,completion,,,,,false,,,,232266,232249,217389.2,217390,217389.26,232266.16,8,400,,,
trial,html.Screen,4_50_0,2023-11-02T01:07:02.215Z,,0,2,,2634.8399999999965,response,ISIC_0028152.JPG,6,ISIC_9626777.JPG,ISIC_0028152.JPG,false,1,keypress(m),500,234901,234901,232266.1,232266,232266.16,234900.76,8,400,1,,ISIC_9626777.JPG
break,html.Screen,4_50_1,2023-11-02T01:07:02.215Z,,0,,,NaN,,,,,,false,,,,234901,234901,,234901,,234900.76,8,400,,,
break_continue,html.Screen,4_50_2,2023-11-02T01:07:02.215Z,,0,,,NaN,,,,,,false,,,,234901,234901,,234901,,234900.76,8,400,,,
sequence,flow.Sequence,4_50,2023-11-02T01:07:02.215Z,,0,,,2634.8399999999965,completion,,,,,false,,,,234901,234901,232266.1,232266,232266.16,234900.76,8,400,,,
trial,html.Screen,4_51_0,2023-11-02T01:07:05.304Z,,0,2,,3089.2399999999907,response,ISIC_5190484.JPG,4,ISIC_0026812.JPG,ISIC_5190484.JPG,false,1,keypress(m),500,237990,237990,234900.7,234902,234900.76,237990.12,8,400,2,,ISIC_0026812.JPG
break,html.Screen,4_51_1,2023-11-02T01:07:05.304Z,,0,,,NaN,,,,,,false,,,,237991,237991,,237991,,237990.12,8,400,,,
break_continue,html.Screen,4_51_2,2023-11-02T01:07:05.305Z,,0,,,NaN,,,,,,false,,,,237991,237991,,237991,,237990.12,8,400,,,
sequence,flow.Sequence,4_51,2023-11-02T01:07:05.305Z,,0,,,3090.2399999999907,completion,,,,,false,,,,237991,237991,234900.7,234901,234900.76,237990.12,8,400,,,
trial,html.Screen,4_52_0,2023-11-02T01:07:08.321Z,,0,2,,3015.8800000000047,response,ISIC_7047780.JPG,15,ISIC_0054185.JPG,ISIC_0054185.JPG,false,0,keypress(z),500,241006,241006,237990.04,237991,237990.12,241018.24,8,400,3,,ISIC_7047780.JPG
break,html.Screen,4_52_1,2023-11-02T01:07:08.321Z,,0,,,NaN,,,,,,false,,,,241006,241006,,241006,,241018.24,8,400,,,
break_continue,html.Screen,4_52_2,2023-11-02T01:07:08.321Z,,0,,,NaN,,,,,,false,,,,241006,241006,,241006,,241018.24,8,400,,,
sequence,flow.Sequence,4_52,2023-11-02T01:07:08.321Z,,0,,,3015.8800000000047,completion,,,,,false,,,,241006,241006,237990.04,237991,237990.12,241018.24,8,400,,,
trial,html.Screen,4_53_0,2023-11-02T01:07:11.334Z,,0,2,,3001.7600000000093,response,ISIC_9226193.JPG,22,ISIC_6523645.JPG,ISIC_9226193.JPG,false,1,keypress(m),500,244020,244020,241011.3,241006,241018.24,244020.24,8,400,4,,ISIC_6523645.JPG
break,html.Screen,4_53_1,2023-11-02T01:07:11.335Z,,0,,,NaN,,,,,,false,,,,244021,244021,,244021,,244020.24,8,400,,,
break_continue,html.Screen,4_53_2,2023-11-02T01:07:11.335Z,,0,,,NaN,,,,,,false,,,,244021,244021,,244021,,244020.24,8,400,,,
sequence,flow.Sequence,4_53,2023-11-02T01:07:11.335Z,,0,,,3002.7600000000093,completion,,,,,false,,,,244021,244021,241011.3,241006,241018.24,244020.24,8,400,,,
trial,html.Screen,4_54_0,2023-11-02T01:07:14.776Z,,0,2,,3440.7600000000093,response,ISIC_0033801.JPG,21,ISIC_3435596.JPG,ISIC_3435596.JPG,false,0,keypress(z),500,247461,247461,244020.14,244021,244020.24,247461.42,8,400,5,,ISIC_0033801.JPG
break,html.Screen,4_54_1,2023-11-02T01:07:14.776Z,,0,,,NaN,,,,,,false,,,,247461,247461,,247461,,247461.42,8,400,,,
break_continue,html.Screen,4_54_2,2023-11-02T01:07:14.776Z,,0,,,NaN,,,,,,false,,,,247462,247462,,247461,,247461.42,8,400,,,
sequence,flow.Sequence,4_54,2023-11-02T01:07:14.776Z,,0,,,3441.7600000000093,completion,,,,,false,,,,247462,247462,244020.14,244021,244020.24,247461.42,8,400,,,
trial,html.Screen,4_55_0,2023-11-02T01:07:18.719Z,,0,2,,3942.579999999987,response,ISIC_0830806.JPG,5,ISIC_0070342.JPG,ISIC_0070342.JPG,false,0,keypress(z),500,251405,251404,247461.36,247462,247461.42,251404.96,8,400,6,,ISIC_0830806.JPG
break,html.Screen,4_55_1,2023-11-02T01:07:18.719Z,,0,,,NaN,,,,,,false,,,,251405,251405,,251405,,251404.96,8,400,,,
break_continue,html.Screen,4_55_2,2023-11-02T01:07:18.720Z,,0,,,NaN,,,,,,false,,,,251405,251405,,251405,,251404.96,8,400,,,
sequence,flow.Sequence,4_55,2023-11-02T01:07:18.720Z,,0,,,3943.579999999987,completion,,,,,false,,,,251405,251405,247461.36,247462,247461.42,251404.96,8,400,,,
trial,html.Screen,4_56_0,2023-11-02T01:07:21.764Z,,0,2,,3045.040000000008,response,ISIC_0000423.JPG,14,ISIC_5148474.JPG,ISIC_5148474.JPG,false,0,keypress(z),500,254450,254450,251404.88,251405,251404.96,254450.56,8,400,7,,ISIC_0000423.JPG
break,html.Screen,4_56_1,2023-11-02T01:07:21.765Z,,0,,,NaN,,,,,,false,,,,254451,254450,,254450,,254450.56,8,400,,,
break_continue,html.Screen,4_56_2,2023-11-02T01:07:21.765Z,,0,,,NaN,,,,,,false,,,,254451,254451,,254451,,254450.56,8,400,,,
sequence,flow.Sequence,4_56,2023-11-02T01:07:21.765Z,,0,,,3046.040000000008,completion,,,,,false,,,,254451,254451,251404.88,251405,251404.96,254450.56,8,400,,,
trial,html.Screen,4_57_0,2023-11-02T01:07:24.636Z,,0,2,,2871.4400000000023,response,ISIC_0015251.JPG,12,ISIC_0026302.JPG,ISIC_0015251.JPG,false,1,keypress(m),500,257322,257322,254450.48,254451,254450.56,257333.04,8,400,8,,ISIC_0026302.JPG
break,html.Screen,4_57_1,2023-11-02T01:07:24.637Z,,0,,,NaN,,,,,,false,,,,257323,257323,,257322,,257333.04,8,400,,,
break_continue,html.Screen,4_57_2,2023-11-02T01:07:24.637Z,,0,,,NaN,,,,,,false,,,,257323,257323,,257323,,257333.04,8,400,,,
sequence,flow.Sequence,4_57,2023-11-02T01:07:24.637Z,,0,,,2872.4400000000023,completion,,,,,false,,,,257323,257323,254450.48,254451,254450.56,257333.04,8,400,,,
trial,html.Screen,4_58_0,2023-11-02T01:07:28.083Z,,0,2,,3435.959999999992,response,ISIC_0028070.JPG,5,ISIC_1568268.JPG,ISIC_0028070.JPG,false,1,keypress(m),500,260769,260769,257326.1,257323,257333.04,260768.9,8,400,9,,ISIC_1568268.JPG
break,html.Screen,4_58_1,2023-11-02T01:07:28.084Z,,0,,,NaN,,,,,,false,,,,260769,260769,,260769,,260768.9,8,400,,,
break_continue,html.Screen,4_58_2,2023-11-02T01:07:28.084Z,,0,,,NaN,,,,,,false,,,,260770,260769,,260769,,260768.9,8,400,,,
sequence,flow.Sequence,4_58,2023-11-02T01:07:28.084Z,,0,,,3435.959999999992,completion,,,,,false,,,,260770,260769,257326.1,257323,257333.04,260768.9,8,400,,,
trial,html.Screen,4_59_0,2023-11-02T01:07:31.303Z,,0,2,,3219.100000000006,response,ISIC_9351418.JPG,13,ISIC_4266533.JPG,ISIC_9351418.JPG,false,1,keypress(m),500,263988,263988,260768.8,260770,260768.9,263988.96,8,400,10,,ISIC_4266533.JPG
break,html.Screen,4_59_1,2023-11-02T01:07:31.304Z,,0,,,NaN,,,,,,false,,,,263989,263989,,263988,,263988.96,8,400,,,
break_continue,html.Screen,4_59_2,2023-11-02T01:07:31.304Z,,0,,,NaN,,,,,,false,,,,263989,263989,,263989,,263988.96,8,400,,,
sequence,flow.Sequence,4_59,2023-11-02T01:07:31.304Z,,0,,,3220.100000000006,completion,,,,,false,,,,263989,263989,260768.8,260770,260768.9,263988.96,8,400,,,
trial,html.Screen,4_60_0,2023-11-02T01:07:34.567Z,,0,2,,3263.039999999979,response,ISIC_5127759.JPG,9,ISIC_6767569.JPG,ISIC_6767569.JPG,false,0,keypress(z),500,267252,267252,263988.9,263989,263988.96,267264.98,8,400,11,,ISIC_5127759.JPG
break,html.Screen,4_60_1,2023-11-02T01:07:34.567Z,,0,,,NaN,,,,,,false,,,,267252,267252,,267252,,267264.98,8,400,,,
break_continue,html.Screen,4_60_2,2023-11-02T01:07:34.567Z,,0,,,NaN,,,,,,false,,,,267252,267252,,267252,,267264.98,8,400,,,
sequence,flow.Sequence,4_60,2023-11-02T01:07:34.567Z,,0,,,3263.039999999979,completion,,,,,false,,,,267252,267252,263988.9,263989,263988.96,267264.98,8,400,,,
trial,html.Screen,4_61_0,2023-11-02T01:07:38.521Z,,0,2,,3941.0200000000186,response,ISIC_0004075.JPG,0,ISIC_0033568.JPG,ISIC_0004075.JPG,false,1,keypress(m),500,271206,271206,267258.04,267252,267264.98,271206.32,8,400,12,,ISIC_0033568.JPG
break,html.Screen,4_61_1,2023-11-02T01:07:38.521Z,,0,,,NaN,,,,,,false,,,,271207,271207,,271206,,271206.32,8,400,,,
break_continue,html.Screen,4_61_2,2023-11-02T01:07:38.521Z,,0,,,NaN,,,,,,false,,,,271207,271207,,271207,,271206.32,8,400,,,
sequence,flow.Sequence,4_61,2023-11-02T01:07:38.521Z,,0,,,3942.0200000000186,completion,,,,,false,,,,271207,271207,267258.04,267252,267264.98,271206.32,8,400,,,
trial,html.Screen,4_62_0,2023-11-02T01:07:41.275Z,,0,2,,2753.679999999993,response,ISIC_1453671.JPG,9,ISIC_0065521.JPG,ISIC_0065521.JPG,false,0,keypress(z),500,273960,273960,271206.22,271207,271206.32,273967.32,8,400,13,,ISIC_1453671.JPG
break,html.Screen,4_62_1,2023-11-02T01:07:41.275Z,,0,,,NaN,,,,,,false,,,,273962,273961,,273960,,273967.32,8,400,,,
break_continue,html.Screen,4_62_2,2023-11-02T01:07:41.276Z,,0,,,NaN,,,,,,false,,,,273962,273962,,273962,,273967.32,8,400,,,
sequence,flow.Sequence,4_62,2023-11-02T01:07:41.276Z,,0,,,2755.679999999993,completion,,,,,false,,,,273962,273962,271206.22,271207,271206.32,273967.32,8,400,,,
trial,html.Screen,4_63_0,2023-11-02T01:07:43.981Z,,0,2,,2699.679999999993,response,ISIC_3006279.JPG,9,ISIC_2927673.JPG,ISIC_3006279.JPG,false,1,keypress(m),500,276667,276667,273960.38,273962,273967.32,276666.62,8,400,14,,ISIC_2927673.JPG
break,html.Screen,4_63_1,2023-11-02T01:07:43.981Z,,0,,,NaN,,,,,,false,,,,276667,276667,,276667,,276666.62,8,400,,,
break_continue,html.Screen,4_63_2,2023-11-02T01:07:43.981Z,,0,,,NaN,,,,,,false,,,,276667,276667,,276667,,276666.62,8,400,,,
sequence,flow.Sequence,4_63,2023-11-02T01:07:43.981Z,,0,,,2699.679999999993,completion,,,,,false,,,,276667,276667,273960.38,273962,273967.32,276666.62,8,400,,,
trial,html.Screen,4_64_0,2023-11-02T01:07:46.867Z,,0,2,,2886.3800000000047,response,ISIC_0029777.JPG,12,ISIC_4131697.JPG,ISIC_0029777.JPG,false,1,keypress(m),500,279553,279553,276666.56,276667,276666.62,279552.8,8,400,15,,ISIC_4131697.JPG
break,html.Screen,4_64_1,2023-11-02T01:07:46.867Z,,0,,,NaN,,,,,,false,,,,279553,279553,,279553,,279552.8,8,400,,,
break_continue,html.Screen,4_64_2,2023-11-02T01:07:46.868Z,,0,,,NaN,,,,,,false,,,,279553,279553,,279553,,279552.8,8,400,,,
sequence,flow.Sequence,4_64,2023-11-02T01:07:46.868Z,,0,,,2886.3800000000047,completion,,,,,false,,,,279553,279553,276666.56,276667,276666.62,279552.8,8,400,,,
trial,html.Screen,4_65_0,2023-11-02T01:07:50.014Z,,0,2,,3146.2000000000116,response,ISIC_6323420.JPG,9,ISIC_0029693.JPG,ISIC_6323420.JPG,false,1,keypress(m),500,282699,282699,279552.72,279553,279552.8,282699,8,400,16,,ISIC_0029693.JPG
break,html.Screen,4_65_1,2023-11-02T01:07:50.014Z,,0,,,NaN,,,,,,false,,,,282700,282700,,282699,,282699,8,400,,,
break_continue,html.Screen,4_65_2,2023-11-02T01:07:50.014Z,,0,,,NaN,,,,,,false,,,,282700,282700,,282700,,282699,8,400,,,
sequence,flow.Sequence,4_65,2023-11-02T01:07:50.014Z,,0,,,3147.2000000000116,completion,,,,,false,,,,282700,282700,279552.72,279553,279552.8,282699,8,400,,,
trial,html.Screen,4_66_0,2023-11-02T01:07:53.045Z,,0,2,,3032,response,ISIC_0032182.JPG,21,ISIC_6450034.JPG,ISIC_0032182.JPG,false,1,keypress(m),500,285731,285731,282698.92,282700,282699,285730.8,8,400,17,,ISIC_6450034.JPG
break,html.Screen,4_66_1,2023-11-02T01:07:53.046Z,,0,,,NaN,,,,,,false,,,,285731,285731,,285731,,285730.8,8,400,,,
break_continue,html.Screen,4_66_2,2023-11-02T01:07:53.046Z,,0,,,NaN,,,,,,false,,,,285731,285731,,285731,,285730.8,8,400,,,
sequence,flow.Sequence,4_66,2023-11-02T01:07:53.046Z,,0,,,3032,completion,,,,,false,,,,285731,285731,282698.92,282700,282699,285730.8,8,400,,,
trial,html.Screen,4_67_0,2023-11-02T01:07:55.949Z,,0,2,,2904.2000000000116,response,ISIC_0032192.JPG,5,ISIC_0033729.JPG,ISIC_0032192.JPG,false,1,keypress(m),500,288635,288635,285730.72,285731,285730.8,288635.36,8,400,18,,ISIC_0033729.JPG
break,html.Screen,4_67_1,2023-11-02T01:07:55.950Z,,0,,,NaN,,,,,,false,,,,288636,288636,,288635,,288635.36,8,400,,,
break_continue,html.Screen,4_67_2,2023-11-02T01:07:55.950Z,,0,,,NaN,,,,,,false,,,,288636,288636,,288636,,288635.36,8,400,,,
sequence,flow.Sequence,4_67,2023-11-02T01:07:55.950Z,,0,,,2905.2000000000116,completion,,,,,false,,,,288636,288636,285730.72,285731,285730.8,288635.36,8,400,,,
trial,html.Screen,4_68_0,2023-11-02T01:07:58.612Z,,0,2,,2662.640000000014,response,ISIC_1661837.JPG,4,ISIC_0067467.JPG,ISIC_1661837.JPG,false,1,keypress(m),500,291298,291298,288635.28,288636,288635.36,291297.74,8,400,19,,ISIC_0067467.JPG
break,html.Screen,4_68_1,2023-11-02T01:07:58.612Z,,0,,,NaN,,,,,,false,,,,291298,291298,,291298,,291297.74,8,400,,,
break_continue,html.Screen,4_68_2,2023-11-02T01:07:58.613Z,,0,,,NaN,,,,,,false,,,,291298,291298,,291298,,291297.74,8,400,,,
sequence,flow.Sequence,4_68,2023-11-02T01:07:58.613Z,,0,,,2662.640000000014,completion,,,,,false,,,,291298,291298,288635.28,288636,288635.36,291297.74,8,400,,,
trial,html.Screen,4_69_0,2023-11-02T01:08:01.600Z,,0,2,,2989.2600000000093,response,ISIC_1210011.JPG,5,ISIC_4680417.JPG,ISIC_1210011.JPG,false,1,keypress(m),500,294287,294287,291297.66,291298,291297.74,294286.56,8,400,20,,ISIC_4680417.JPG
break,html.Screen,4_69_1,2023-11-02T01:08:01.601Z,,0,,,NaN,,,,,,false,,,,294287,294287,,294287,,294286.56,8,400,,,
break_continue,html.Screen,4_69_2,2023-11-02T01:08:01.601Z,,0,,,NaN,,,,,,false,,,,294287,294287,,294287,,294286.56,8,400,,,
sequence,flow.Sequence,4_69,2023-11-02T01:08:01.601Z,,0,,,2989.2600000000093,completion,,,,,false,,,,294288,294287,291297.66,291298,291297.74,294286.56,8,400,,,
trial,html.Screen,4_70_0,2023-11-02T01:08:04.860Z,,0,2,,3259.4400000000023,response,ISIC_0732375.JPG,7,ISIC_0013059.JPG,ISIC_0013059.JPG,false,0,keypress(z),500,297546,297546,294286.46,294288,294286.56,297546.06,8,400,21,,ISIC_0732375.JPG
break,html.Screen,4_70_1,2023-11-02T01:08:04.860Z,,0,,,NaN,,,,,,false,,,,297546,297546,,297546,,297546.06,8,400,,,
break_continue,html.Screen,4_70_2,2023-11-02T01:08:04.860Z,,0,,,NaN,,,,,,false,,,,297546,297546,,297546,,297546.06,8,400,,,
sequence,flow.Sequence,4_70,2023-11-02T01:08:04.860Z,,0,,,3259.4400000000023,completion,,,,,false,,,,297546,297546,294286.46,294288,294286.56,297546.06,8,400,,,
trial,html.Screen,4_71_0,2023-11-02T01:08:07.504Z,,0,2,,2642.9400000000023,response,ISIC_1513720.JPG,12,ISIC_2171940.JPG,ISIC_1513720.JPG,false,1,keypress(m),500,300189,300189,297545.98,297546,297546.06,300189.48,8,400,22,,ISIC_2171940.JPG
break,html.Screen,4_71_1,2023-11-02T01:08:07.504Z,,0,,,NaN,,,,,,false,,,,300190,300190,,300190,,300189.48,8,400,,,
break_continue,html.Screen,4_71_2,2023-11-02T01:08:07.505Z,,0,,,NaN,,,,,,false,,,,300190,300190,,300190,,300189.48,8,400,,,
sequence,flow.Sequence,4_71,2023-11-02T01:08:07.505Z,,0,,,2643.9400000000023,completion,,,,,false,,,,300190,300190,297545.98,297546,297546.06,300189.48,8,400,,,
trial,html.Screen,4_72_0,2023-11-02T01:08:10.234Z,,0,2,,2729.5200000000186,response,ISIC_0025039.JPG,8,ISIC_4874581.JPG,ISIC_4874581.JPG,false,0,keypress(z),500,302919,302919,300189.38,300190,300189.48,302919.18,8,400,23,,ISIC_0025039.JPG
break,html.Screen,4_72_1,2023-11-02T01:08:10.234Z,,0,,,NaN,,,,,,false,,,,302920,302920,,302919,,302919.18,8,400,,,
break_continue,html.Screen,4_72_2,2023-11-02T01:08:10.234Z,,0,,,NaN,,,,,,false,,,,302920,302920,,302920,,302919.18,8,400,,,
sequence,flow.Sequence,4_72,2023-11-02T01:08:10.234Z,,0,,,2730.5200000000186,completion,,,,,false,,,,302920,302920,300189.38,300190,300189.48,302919.18,8,400,,,
trial,html.Screen,4_73_0,2023-11-02T01:08:13.103Z,,0,2,,2869.820000000007,response,ISIC_9727132.JPG,30,ISIC_4264600.JPG,ISIC_9727132.JPG,false,1,keypress(m),500,305789,305789,302919.12,302920,302919.18,305789.56,8,400,24,,ISIC_4264600.JPG
break,html.Screen,4_73_1,2023-11-02T01:08:13.104Z,,0,,,NaN,,,,,,false,,,,305790,305790,,305789,,305789.56,8,400,,,
break_continue,html.Screen,4_73_2,2023-11-02T01:08:13.104Z,,0,,,NaN,,,,,,false,,,,305790,305790,,305790,,305789.56,8,400,,,
sequence,flow.Sequence,4_73,2023-11-02T01:08:13.104Z,,0,,,2870.820000000007,completion,,,,,false,,,,305790,305790,302919.12,302920,302919.18,305789.56,8,400,,,
trial,html.Screen,4_74_0,2023-11-02T01:08:15.849Z,,0,2,,2744.4400000000023,response,ISIC_0073147.JPG,15,ISIC_4921413.JPG,ISIC_0073147.JPG,false,1,keypress(m),500,308535,308534,305789.48,305790,305789.56,308534.76,8,400,25,,ISIC_4921413.JPG
break,html.Screen,4_74_1,2023-11-02T01:08:15.850Z,,0,,,NaN,,,,,,false,,,,308535,308535,,308535,,308534.76,8,400,,,
break_continue,html.Screen,4_74_2,2023-11-02T01:08:15.850Z,,0,,,NaN,,,,,,false,,,,308535,308535,,308535,,308534.76,8,400,,,
sequence,flow.Sequence,4_74,2023-11-02T01:08:15.850Z,,0,,,2745.4400000000023,completion,,,,,false,,,,308535,308535,305789.48,305790,305789.56,308534.76,8,400,,,
trial,html.Screen,4_75_0,2023-11-02T01:08:18.605Z,,0,2,,2755.2399999999907,response,ISIC_1217314.JPG,13,ISIC_7044184.JPG,ISIC_7044184.JPG,false,0,keypress(z),500,311290,311290,308534.68,308535,308534.76,311292.02,8,400,26,,ISIC_1217314.JPG
break,html.Screen,4_75_1,2023-11-02T01:08:18.605Z,,0,,,NaN,,,,,,false,,,,311291,311291,,311291,,311292.02,8,400,,,
break_continue,html.Screen,4_75_2,2023-11-02T01:08:18.606Z,,0,,,NaN,,,,,,false,,,,311291,311291,,311291,,311292.02,8,400,,,
sequence,flow.Sequence,4_75,2023-11-02T01:08:18.606Z,,0,,,2756.2399999999907,completion,,,,,false,,,,311291,311291,308534.68,308535,308534.76,311292.02,8,400,,,
trial,html.Screen,4_76_0,2023-11-02T01:08:21.635Z,,0,2,,3027.9799999999814,response,ISIC_4374944.JPG,0,ISIC_9803747.JPG,ISIC_4374944.JPG,false,1,keypress(m),500,314320,314320,311290.94,311291,311292.02,314320.98,8,400,27,,ISIC_9803747.JPG
break,html.Screen,4_76_1,2023-11-02T01:08:21.636Z,,0,,,NaN,,,,,,false,,,,314321,314321,,314321,,314320.98,8,400,,,
break_continue,html.Screen,4_76_2,2023-11-02T01:08:21.636Z,,0,,,NaN,,,,,,false,,,,314321,314321,,314321,,314320.98,8,400,,,
sequence,flow.Sequence,4_76,2023-11-02T01:08:21.636Z,,0,,,3028.9799999999814,completion,,,,,false,,,,314321,314321,311290.94,311291,311292.02,314320.98,8,400,,,
trial,html.Screen,4_77_0,2023-11-02T01:08:24.455Z,,0,2,,2819.0200000000186,response,ISIC_0604532.JPG,12,ISIC_0070585.JPG,ISIC_0070585.JPG,false,0,keypress(z),500,317140,317140,314320.9,314321,314320.98,317140.3,8,400,28,,ISIC_0604532.JPG
break,html.Screen,4_77_1,2023-11-02T01:08:24.455Z,,0,,,NaN,,,,,,false,,,,317140,317140,,317140,,317140.3,8,400,,,
break_continue,html.Screen,4_77_2,2023-11-02T01:08:24.455Z,,0,,,NaN,,,,,,false,,,,317140,317140,,317140,,317140.3,8,400,,,
sequence,flow.Sequence,4_77,2023-11-02T01:08:24.455Z,,0,,,2819.0200000000186,completion,,,,,false,,,,317141,317140,314320.9,314321,314320.98,317140.3,8,400,,,
trial,html.Screen,4_78_0,2023-11-02T01:08:28.005Z,,0,2,,3549.7000000000116,response,ISIC_7235371.JPG,12,ISIC_7798358.JPG,ISIC_7235371.JPG,false,1,keypress(m),500,320690,320690,317140.2,317141,317140.3,320690.52,8,400,29,,ISIC_7798358.JPG
break,html.Screen,4_78_1,2023-11-02T01:08:28.005Z,,0,,,NaN,,,,,,false,,,,320691,320690,,320690,,320690.52,8,400,,,
break_continue,html.Screen,4_78_2,2023-11-02T01:08:28.005Z,,0,,,NaN,,,,,,false,,,,320691,320691,,320691,,320690.52,8,400,,,
sequence,flow.Sequence,4_78,2023-11-02T01:08:28.005Z,,0,,,3550.7000000000116,completion,,,,,false,,,,320691,320691,317140.2,317141,317140.3,320690.52,8,400,,,
trial,html.Screen,4_79_0,2023-11-02T01:08:30.885Z,,0,2,,2880.4799999999814,response,ISIC_4720306.JPG,7,ISIC_6633906.JPG,ISIC_4720306.JPG,false,1,keypress(m),500,323571,323571,320690.44,320691,320690.52,323570.92,8,400,30,,ISIC_6633906.JPG
break,html.Screen,4_79_1,2023-11-02T01:08:30.886Z,,0,,,NaN,,,,,,false,,,,323572,323571,,323571,,323570.92,8,400,,,
break_continue,html.Screen,4_79_2,2023-11-02T01:08:30.886Z,,0,,,NaN,,,,,,false,,,,323572,323572,,323572,,323570.92,8,400,,,
sequence,flow.Sequence,4_79,2023-11-02T01:08:30.886Z,,0,,,2881.4799999999814,completion,,,,,false,,,,323572,323572,320690.44,320691,320690.52,323570.92,8,400,,,
trial,html.Screen,4_80_0,2023-11-02T01:08:33.596Z,,0,2,,2711.0800000000163,response,ISIC_0055246.JPG,14,ISIC_5361404.JPG,ISIC_0055246.JPG,false,1,keypress(m),500,326283,326282,323570.82,323572,323570.92,326282.3,8,400,31,,ISIC_5361404.JPG
break,html.Screen,4_80_1,2023-11-02T01:08:33.597Z,,0,,,NaN,,,,,,false,,,,326283,326283,,326283,,326282.3,8,400,,,
break_continue,html.Screen,4_80_2,2023-11-02T01:08:33.597Z,,0,,,NaN,,,,,,false,,,,326283,326283,,326283,,326282.3,8,400,,,
sequence,flow.Sequence,4_80,2023-11-02T01:08:33.597Z,,0,,,2712.0800000000163,completion,,,,,false,,,,326283,326283,323570.82,323572,323570.92,326282.3,8,400,,,
trial,html.Screen,4_81_0,2023-11-02T01:08:36.380Z,,0,2,,2783.7000000000116,response,ISIC_7501061.JPG,10,ISIC_0420249.JPG,ISIC_7501061.JPG,false,1,keypress(m),500,329066,329066,326282.24,326283,326282.3,329065.86,8,400,32,,ISIC_0420249.JPG
break,html.Screen,4_81_1,2023-11-02T01:08:36.381Z,,0,,,NaN,,,,,,false,,,,329066,329066,,329066,,329065.86,8,400,,,
break_continue,html.Screen,4_81_2,2023-11-02T01:08:36.381Z,,0,,,NaN,,,,,,false,,,,329066,329066,,329066,,329065.86,8,400,,,
sequence,flow.Sequence,4_81,2023-11-02T01:08:36.381Z,,0,,,2783.7000000000116,completion,,,,,false,,,,329066,329066,326282.24,326283,326282.3,329065.86,8,400,,,
trial,html.Screen,4_82_0,2023-11-02T01:08:39.684Z,,0,2,,3302.140000000014,response,ISIC_9879693.JPG,0,ISIC_0024686.JPG,ISIC_0024686.JPG,false,0,keypress(z),500,332369,332368,329065.78,329066,329065.86,332369.26,8,400,33,,ISIC_9879693.JPG
break,html.Screen,4_82_1,2023-11-02T01:08:39.684Z,,0,,,NaN,,,,,,false,,,,332369,332369,,332369,,332369.26,8,400,,,
break_continue,html.Screen,4_82_2,2023-11-02T01:08:39.684Z,,0,,,NaN,,,,,,false,,,,332369,332369,,332369,,332369.26,8,400,,,
sequence,flow.Sequence,4_82,2023-11-02T01:08:39.684Z,,0,,,3303.140000000014,completion,,,,,false,,,,332369,332369,329065.78,329066,329065.86,332369.26,8,400,,,
trial,html.Screen,4_83_0,2023-11-02T01:08:42.282Z,,0,2,,2597.7399999999907,response,ISIC_0069635.JPG,14,ISIC_9680433.JPG,ISIC_0069635.JPG,false,1,keypress(m),500,334967,334967,332369.18,332370,332369.26,334968.96,8,400,34,,ISIC_9680433.JPG
break,html.Screen,4_83_1,2023-11-02T01:08:42.282Z,,0,,,NaN,,,,,,false,,,,334968,334968,,334967,,334968.96,8,400,,,
break_continue,html.Screen,4_83_2,2023-11-02T01:08:42.282Z,,0,,,NaN,,,,,,false,,,,334968,334968,,334968,,334968.96,8,400,,,
sequence,flow.Sequence,4_83,2023-11-02T01:08:42.282Z,,0,,,2598.7399999999907,completion,,,,,false,,,,334968,334968,332369.18,332370,332369.26,334968.96,8,400,,,
trial,html.Screen,4_84_0,2023-11-02T01:08:44.818Z,,0,2,,2535.039999999979,response,ISIC_2562668.JPG,0,ISIC_4001990.JPG,ISIC_2562668.JPG,false,1,keypress(m),500,337504,337504,334967.3,334968,334968.96,337504.66,8,400,35,,ISIC_4001990.JPG
break,html.Screen,4_84_1,2023-11-02T01:08:44.819Z,,0,,,NaN,,,,,,false,,,,337505,337505,,337504,,337504.66,8,400,,,
break_continue,html.Screen,4_84_2,2023-11-02T01:08:44.819Z,,0,,,NaN,,,,,,false,,,,337505,337505,,337505,,337504.66,8,400,,,
sequence,flow.Sequence,4_84,2023-11-02T01:08:44.819Z,,0,,,2536.039999999979,completion,,,,,false,,,,337505,337505,334967.3,334968,334968.96,337504.66,8,400,,,
trial,html.Screen,4_85_0,2023-11-02T01:08:47.271Z,,0,2,,2451.3400000000256,response,ISIC_5673859.JPG,30,ISIC_6127074.JPG,ISIC_6127074.JPG,false,0,keypress(z),500,339956,339956,337504.56,337505,337504.66,339956.86,8,400,36,,ISIC_5673859.JPG
break,html.Screen,4_85_1,2023-11-02T01:08:47.272Z,,0,,,NaN,,,,,,false,,,,339957,339957,,339956,,339956.86,8,400,,,
break_continue,html.Screen,4_85_2,2023-11-02T01:08:47.272Z,,0,,,NaN,,,,,,false,,,,339957,339957,,339957,,339956.86,8,400,,,
sequence,flow.Sequence,4_85,2023-11-02T01:08:47.272Z,,0,,,2452.3400000000256,completion,,,,,false,,,,339957,339957,337504.56,337505,337504.66,339956.86,8,400,,,
trial,html.Screen,4_86_0,2023-11-02T01:08:49.835Z,,0,2,,2564.140000000014,response,ISIC_0011747.JPG,0,ISIC_0027260.JPG,ISIC_0011747.JPG,false,1,keypress(m),500,342521,342521,339956.78,339957,339956.86,342521.18,8,400,37,,ISIC_0027260.JPG
break,html.Screen,4_86_1,2023-11-02T01:08:49.836Z,,0,,,NaN,,,,,,false,,,,342522,342522,,342521,,342521.18,8,400,,,
break_continue,html.Screen,4_86_2,2023-11-02T01:08:49.836Z,,0,,,NaN,,,,,,false,,,,342522,342522,,342522,,342521.18,8,400,,,
sequence,flow.Sequence,4_86,2023-11-02T01:08:49.836Z,,0,,,2565.140000000014,completion,,,,,false,,,,342522,342522,339956.78,339957,339956.86,342521.18,8,400,,,
trial,html.Screen,4_87_0,2023-11-02T01:08:52.506Z,,0,2,,2670.820000000007,response,ISIC_0000469.JPG,14,ISIC_0013457.JPG,ISIC_0000469.JPG,false,1,keypress(m),500,345193,345192,342521.12,342522,342521.18,345192.5,8,400,38,,ISIC_0013457.JPG
break,html.Screen,4_87_1,2023-11-02T01:08:52.507Z,,0,,,NaN,,,,,,false,,,,345193,345193,,345193,,345192.5,8,400,,,
break_continue,html.Screen,4_87_2,2023-11-02T01:08:52.507Z,,0,,,NaN,,,,,,false,,,,345193,345193,,345193,,345192.5,8,400,,,
sequence,flow.Sequence,4_87,2023-11-02T01:08:52.507Z,,0,,,2671.820000000007,completion,,,,,false,,,,345193,345193,342521.12,342522,342521.18,345192.5,8,400,,,
trial,html.Screen,4_88_0,2023-11-02T01:08:55.407Z,,0,2,,2900.5,response,ISIC_9562442.JPG,6,ISIC_0033967.JPG,ISIC_9562442.JPG,false,1,keypress(m),500,348093,348093,345192.42,345193,345192.5,348093.1,8,400,39,,ISIC_0033967.JPG
break,html.Screen,4_88_1,2023-11-02T01:08:55.407Z,,0,,,NaN,,,,,,false,,,,348093,348093,,348093,,348093.1,8,400,,,
break_continue,html.Screen,4_88_2,2023-11-02T01:08:55.407Z,,0,,,NaN,,,,,,false,,,,348094,348094,,348093,,348093.1,8,400,,,
sequence,flow.Sequence,4_88,2023-11-02T01:08:55.407Z,,0,,,2901.5,completion,,,,,false,,,,348094,348094,345192.42,345193,345192.5,348093.1,8,400,,,
trial,html.Screen,4_89_0,2023-11-02T01:08:58.033Z,,0,2,,2625.9000000000233,response,ISIC_0060897.JPG,9,ISIC_0000569.JPG,ISIC_0060897.JPG,false,1,keypress(m),500,350719,350719,348092.96,348094,348093.1,350719.16,8,400,40,,ISIC_0000569.JPG
break,html.Screen,4_89_1,2023-11-02T01:08:58.034Z,,0,,,NaN,,,,,,false,,,,350720,350719,,350719,,350719.16,8,400,,,
break_continue,html.Screen,4_89_2,2023-11-02T01:08:58.034Z,,0,,,NaN,,,,,,false,,,,350720,350720,,350720,,350719.16,8,400,,,
sequence,flow.Sequence,4_89,2023-11-02T01:08:58.034Z,,0,,,2626.9000000000233,completion,,,,,false,,,,350720,350720,348092.96,348094,348093.1,350719.16,8,400,,,
trial,html.Screen,4_90_0,2023-11-02T01:09:00.806Z,,0,2,,2772.8400000000256,response,ISIC_4843102.JPG,14,ISIC_6443984.JPG,ISIC_4843102.JPG,false,1,keypress(m),500,353492,353492,350719.08,350720,350719.16,353492.3,8,400,41,,ISIC_6443984.JPG
break,html.Screen,4_90_1,2023-11-02T01:09:00.807Z,,0,,,NaN,,,,,,false,,,,353493,353492,,353492,,353492.3,8,400,,,
break_continue,html.Screen,4_90_2,2023-11-02T01:09:00.807Z,,0,,,NaN,,,,,,false,,,,353493,353493,,353493,,353492.3,8,400,,,
sequence,flow.Sequence,4_90,2023-11-02T01:09:00.807Z,,0,,,2773.8400000000256,completion,,,,,false,,,,353493,353493,350719.08,350720,350719.16,353492.3,8,400,,,
trial,html.Screen,4_91_0,2023-11-02T01:09:03.515Z,,0,2,,2707.7000000000116,response,ISIC_0059855.JPG,12,ISIC_3207651.JPG,ISIC_0059855.JPG,false,1,keypress(m),500,356200,356200,353492.22,353493,353492.3,356200.68,8,400,42,,ISIC_3207651.JPG
break,html.Screen,4_91_1,2023-11-02T01:09:03.516Z,,0,,,NaN,,,,,,false,,,,356201,356201,,356200,,356200.68,8,400,,,
break_continue,html.Screen,4_91_2,2023-11-02T01:09:03.516Z,,0,,,NaN,,,,,,false,,,,356201,356201,,356201,,356200.68,8,400,,,
sequence,flow.Sequence,4_91,2023-11-02T01:09:03.516Z,,0,,,2708.7000000000116,completion,,,,,false,,,,356201,356201,353492.22,353493,353492.3,356200.68,8,400,,,
trial,html.Screen,4_92_0,2023-11-02T01:09:06.247Z,,0,2,,2731.320000000007,response,ISIC_7167479.JPG,1,ISIC_7223327.JPG,ISIC_7223327.JPG,false,0,keypress(z),500,358933,358932,356200.58,356201,356200.68,358933.14,8,400,43,,ISIC_7167479.JPG
break,html.Screen,4_92_1,2023-11-02T01:09:06.248Z,,0,,,NaN,,,,,,false,,,,358933,358933,,358933,,358933.14,8,400,,,
break_continue,html.Screen,4_92_2,2023-11-02T01:09:06.248Z,,0,,,NaN,,,,,,false,,,,358933,358933,,358933,,358933.14,8,400,,,
sequence,flow.Sequence,4_92,2023-11-02T01:09:06.248Z,,0,,,2732.320000000007,completion,,,,,false,,,,358933,358933,356200.58,356201,356200.68,358933.14,8,400,,,
trial,html.Screen,4_93_0,2023-11-02T01:09:08.974Z,,0,2,,2726.859999999986,response,ISIC_5073160.JPG,6,ISIC_0065872.JPG,ISIC_5073160.JPG,false,1,keypress(m),500,361660,361660,358933.06,358933,358933.14,361659.48,8,400,44,,ISIC_0065872.JPG
break,html.Screen,4_93_1,2023-11-02T01:09:08.974Z,,0,,,NaN,,,,,,false,,,,361660,361660,,361660,,361659.48,8,400,,,
break_continue,html.Screen,4_93_2,2023-11-02T01:09:08.974Z,,0,,,NaN,,,,,,false,,,,361660,361660,,361660,,361659.48,8,400,,,
sequence,flow.Sequence,4_93,2023-11-02T01:09:08.975Z,,0,,,2726.859999999986,completion,,,,,false,,,,361660,361660,358933.06,358933,358933.14,361659.48,8,400,,,
trial,html.Screen,4_94_0,2023-11-02T01:09:11.615Z,,0,2,,2640.5200000000186,response,ISIC_0010289.JPG,26,ISIC_5370803.JPG,ISIC_0010289.JPG,false,1,keypress(m),500,364300,364300,361659.4,361660,361659.48,364300.6,8,400,45,,ISIC_5370803.JPG
break,html.Screen,4_94_1,2023-11-02T01:09:11.616Z,,0,,,NaN,,,,,,false,,,,364300,364300,,364300,,364300.6,8,400,,,
break_continue,html.Screen,4_94_2,2023-11-02T01:09:11.616Z,,0,,,NaN,,,,,,false,,,,364301,364301,,364300,,364300.6,8,400,,,
sequence,flow.Sequence,4_94,2023-11-02T01:09:11.616Z,,0,,,2641.5200000000186,completion,,,,,false,,,,364302,364301,361659.4,361660,361659.48,364300.6,8,400,,,
trial,html.Screen,4_95_0,2023-11-02T01:09:14.890Z,,0,2,,3275.4000000000233,response,ISIC_3544821.JPG,15,ISIC_9764024.JPG,ISIC_3544821.JPG,false,1,keypress(m),500,367576,367576,364300.52,364302,364300.6,367575.56,8,400,46,,ISIC_9764024.JPG
break,html.Screen,4_95_1,2023-11-02T01:09:14.891Z,,0,,,NaN,,,,,,false,,,,367576,367576,,367576,,367575.56,8,400,,,
break_continue,html.Screen,4_95_2,2023-11-02T01:09:14.891Z,,0,,,NaN,,,,,,false,,,,367577,367576,,367576,,367575.56,8,400,,,
sequence,flow.Sequence,4_95,2023-11-02T01:09:14.891Z,,0,,,3275.4000000000233,completion,,,,,false,,,,367577,367576,364300.52,364302,364300.6,367575.56,8,400,,,
trial,html.Screen,4_96_0,2023-11-02T01:09:17.545Z,,0,2,,2654.4400000000023,response,ISIC_0010213.JPG,6,ISIC_5527447.JPG,ISIC_0010213.JPG,false,1,keypress(m),500,370230,370230,367575.48,367577,367575.56,370230.88,8,400,47,,ISIC_5527447.JPG
break,html.Screen,4_96_1,2023-11-02T01:09:17.546Z,,0,,,NaN,,,,,,false,,,,370231,370231,,370230,,370230.88,8,400,,,
break_continue,html.Screen,4_96_2,2023-11-02T01:09:17.546Z,,0,,,NaN,,,,,,false,,,,370231,370231,,370231,,370230.88,8,400,,,
sequence,flow.Sequence,4_96,2023-11-02T01:09:17.546Z,,0,,,2655.4400000000023,completion,,,,,false,,,,370231,370231,367575.48,367577,367575.56,370230.88,8,400,,,
trial,html.Screen,4_97_0,2023-11-02T01:09:20.189Z,,0,2,,2643.1199999999953,response,ISIC_7051167.JPG,11,ISIC_5048124.JPG,ISIC_5048124.JPG,false,0,keypress(z),500,372874,372874,370230.8,370231,370230.88,372874.82,8,400,48,,ISIC_7051167.JPG
break,html.Screen,4_97_1,2023-11-02T01:09:20.189Z,,0,,,NaN,,,,,,false,,,,372875,372875,,372874,,372874.82,8,400,,,
break_continue,html.Screen,4_97_2,2023-11-02T01:09:20.189Z,,0,,,NaN,,,,,,false,,,,372875,372875,,372875,,372874.82,8,400,,,
sequence,flow.Sequence,4_97,2023-11-02T01:09:20.189Z,,0,,,2644.1199999999953,completion,,,,,false,,,,372875,372875,370230.8,370231,370230.88,372874.82,8,400,,,
trial,html.Screen,4_98_0,2023-11-02T01:09:23.151Z,,0,2,,2961.179999999993,response,ISIC_1023339.JPG,12,ISIC_0064376.JPG,ISIC_0064376.JPG,false,0,keypress(z),500,375837,375836,372874.76,372875,372874.82,375836.9,8,400,49,,ISIC_1023339.JPG
break,html.Screen,4_98_1,2023-11-02T01:09:23.151Z,,0,,,NaN,,,,,,false,,,,375837,375837,,375837,,375836.9,8,400,,,
break_continue,html.Screen,4_98_2,2023-11-02T01:09:23.151Z,,0,,,NaN,,,,,,false,,,,375837,375837,,375837,,375836.9,8,400,,,
sequence,flow.Sequence,4_98,2023-11-02T01:09:23.151Z,,0,,,2962.179999999993,completion,,,,,false,,,,375838,375837,372874.76,372875,372874.82,375836.9,8,400,,,
trial,html.Screen,4_99_0,2023-11-02T01:09:26.016Z,,0,2,,2865.0999999999767,response,ISIC_0063642.JPG,11,ISIC_0001112.JPG,ISIC_0063642.JPG,false,1,keypress(m),500,378702,378702,375836.82,375838,375836.9,378702.58,8,400,50,,ISIC_0001112.JPG
break,html.Screen,4_99_1,2023-11-02T01:09:36.014Z,,0,,,10001.700000000012,timeout,,,,,false,,,,388699,388697.34,378702.5,378702,378702.58,388704.28,8,400,,,
break_continue,html.Screen,4_99_2,2023-11-02T01:09:36.805Z,,0,,,778.7199999999721,response,,,,,false,continue,keypress(Space),,389491,389483,388697.34,388699,388704.28,389490.8,8,400,,,
sequence,flow.Sequence,4_99,2023-11-02T01:09:36.805Z,,0,,,13646.099999999977,completion,,,,,false,,,,389491,389483,375836.82,375838,375836.9,389490.8,8,400,,,
trial,html.Screen,4_100_0,2023-11-02T01:09:39.743Z,,0,3,,2938.2000000000116,response,ISIC_1783062.JPG,6,ISIC_5777181.JPG,ISIC_5777181.JPG,false,0,keypress(z),500,392430,392429,389490.74,389491,389490.8,392429.74,8,400,1,,ISIC_1783062.JPG
break,html.Screen,4_100_1,2023-11-02T01:09:39.744Z,,0,,,NaN,,,,,,false,,,,392430,392430,,392430,,392429.74,8,400,,,
break_continue,html.Screen,4_100_2,2023-11-02T01:09:39.744Z,,0,,,NaN,,,,,,false,,,,392430,392430,,392430,,392429.74,8,400,,,
sequence,flow.Sequence,4_100,2023-11-02T01:09:39.744Z,,0,,,2939.2000000000116,completion,,,,,false,,,,392430,392430,389490.74,389491,389490.8,392429.74,8,400,,,
trial,html.Screen,4_101_0,2023-11-02T01:09:43.000Z,,0,3,,3256.2600000000093,response,ISIC_1477990.JPG,10,ISIC_0054334.JPG,ISIC_0054334.JPG,false,0,keypress(z),500,395686,395686,392429.6,392430,392429.74,395686.5,8,400,2,,ISIC_1477990.JPG
break,html.Screen,4_101_1,2023-11-02T01:09:43.001Z,,0,,,NaN,,,,,,false,,,,395687,395686,,395686,,395686.5,8,400,,,
break_continue,html.Screen,4_101_2,2023-11-02T01:09:43.001Z,,0,,,NaN,,,,,,false,,,,395687,395687,,395687,,395686.5,8,400,,,
sequence,flow.Sequence,4_101,2023-11-02T01:09:43.001Z,,0,,,3257.2600000000093,completion,,,,,false,,,,395687,395687,392429.6,392430,392429.74,395686.5,8,400,,,
trial,html.Screen,4_102_0,2023-11-02T01:09:45.696Z,,0,3,,2695.5,response,ISIC_0031795.JPG,12,ISIC_0032723.JPG,ISIC_0031795.JPG,false,1,keypress(m),500,398382,398382,395686.42,395687,395686.5,398382.48,8,400,3,,ISIC_0032723.JPG
break,html.Screen,4_102_1,2023-11-02T01:09:45.697Z,,0,,,NaN,,,,,,false,,,,398382,398382,,398382,,398382.48,8,400,,,
break_continue,html.Screen,4_102_2,2023-11-02T01:09:45.697Z,,0,,,NaN,,,,,,false,,,,398383,398383,,398383,,398382.48,8,400,,,
sequence,flow.Sequence,4_102,2023-11-02T01:09:45.697Z,,0,,,2696.5,completion,,,,,false,,,,398383,398383,395686.42,395687,395686.5,398382.48,8,400,,,
trial,html.Screen,4_103_0,2023-11-02T01:09:48.373Z,,0,3,,2676.5200000000186,response,ISIC_0064925.JPG,29,ISIC_0031377.JPG,ISIC_0064925.JPG,false,1,keypress(m),500,401059,401059,398382.4,398383,398382.48,401059.08,8,400,4,,ISIC_0031377.JPG
break,html.Screen,4_103_1,2023-11-02T01:09:48.374Z,,0,,,NaN,,,,,,false,,,,401060,401059,,401059,,401059.08,8,400,,,
break_continue,html.Screen,4_103_2,2023-11-02T01:09:48.374Z,,0,,,NaN,,,,,,false,,,,401060,401060,,401060,,401059.08,8,400,,,
sequence,flow.Sequence,4_103,2023-11-02T01:09:48.374Z,,0,,,2677.5200000000186,completion,,,,,false,,,,401060,401060,398382.4,398383,398382.48,401059.08,8,400,,,
trial,html.Screen,4_104_0,2023-11-02T01:09:51.040Z,,0,3,,2666.9199999999837,response,ISIC_9754098.JPG,14,ISIC_0070463.JPG,ISIC_0070463.JPG,false,0,keypress(z),500,403726,403726,401059,401060,401059.08,403725.52,8,400,5,,ISIC_9754098.JPG
break,html.Screen,4_104_1,2023-11-02T01:09:51.040Z,,0,,,NaN,,,,,,false,,,,403726,403726,,403726,,403725.52,8,400,,,
break_continue,html.Screen,4_104_2,2023-11-02T01:09:51.040Z,,0,,,NaN,,,,,,false,,,,403726,403726,,403726,,403725.52,8,400,,,
sequence,flow.Sequence,4_104,2023-11-02T01:09:51.040Z,,0,,,2666.9199999999837,completion,,,,,false,,,,403726,403726,401059,401060,401059.08,403725.52,8,400,,,
trial,html.Screen,4_105_0,2023-11-02T01:09:53.624Z,,0,3,,2584.4799999999814,response,ISIC_3992223.JPG,14,ISIC_0060559.JPG,ISIC_0060559.JPG,false,0,keypress(z),500,406310,406310,403725.46,403726,403725.52,406310.44,8,400,6,,ISIC_3992223.JPG
break,html.Screen,4_105_1,2023-11-02T01:09:53.625Z,,0,,,NaN,,,,,,false,,,,406310,406310,,406310,,406310.44,8,400,,,
break_continue,html.Screen,4_105_2,2023-11-02T01:09:53.626Z,,0,,,NaN,,,,,,false,,,,406311,406311,,406310,,406310.44,8,400,,,
sequence,flow.Sequence,4_105,2023-11-02T01:09:53.626Z,,0,,,2585.4799999999814,completion,,,,,false,,,,406311,406311,403725.46,403726,403725.52,406310.44,8,400,,,
trial,html.Screen,4_106_0,2023-11-02T01:09:56.573Z,,0,3,,2948.5599999999977,response,ISIC_0062005.JPG,14,ISIC_0029216.JPG,ISIC_0062005.JPG,false,1,keypress(m),500,409259,409259,406310.36,406311,406310.44,409258.56,8,400,7,,ISIC_0029216.JPG
break,html.Screen,4_106_1,2023-11-02T01:09:56.573Z,,0,,,NaN,,,,,,false,,,,409259,409259,,409259,,409258.56,8,400,,,
break_continue,html.Screen,4_106_2,2023-11-02T01:09:56.574Z,,0,,,NaN,,,,,,false,,,,409259,409259,,409259,,409258.56,8,400,,,
sequence,flow.Sequence,4_106,2023-11-02T01:09:56.574Z,,0,,,2948.5599999999977,completion,,,,,false,,,,409259,409259,406310.36,406311,406310.44,409258.56,8,400,,,
trial,html.Screen,4_107_0,2023-11-02T01:09:59.344Z,,0,3,,2772.4400000000023,response,ISIC_1700051.JPG,10,ISIC_2854303.JPG,ISIC_2854303.JPG,false,0,keypress(z),500,412031,412031,409258.48,409259,409258.56,412030.76,8,400,8,,ISIC_1700051.JPG
break,html.Screen,4_107_1,2023-11-02T01:09:59.346Z,,0,,,NaN,,,,,,false,,,,412031,412031,,412031,,412030.76,8,400,,,
break_continue,html.Screen,4_107_2,2023-11-02T01:09:59.346Z,,0,,,NaN,,,,,,false,,,,412031,412031,,412031,,412030.76,8,400,,,
sequence,flow.Sequence,4_107,2023-11-02T01:09:59.346Z,,0,,,2772.4400000000023,completion,,,,,false,,,,412032,412031,409258.48,409259,409258.56,412030.76,8,400,,,
trial,html.Screen,4_108_0,2023-11-02T01:10:01.945Z,,0,3,,2599.2399999999907,response,ISIC_9989936.JPG,30,ISIC_8154363.JPG,ISIC_8154363.JPG,false,0,keypress(z),500,414631,414630,412030.68,412032,412030.76,414631.1,8,400,9,,ISIC_9989936.JPG
break,html.Screen,4_108_1,2023-11-02T01:10:01.945Z,,0,,,NaN,,,,,,false,,,,414631,414631,,414631,,414631.1,8,400,,,
break_continue,html.Screen,4_108_2,2023-11-02T01:10:01.946Z,,0,,,NaN,,,,,,false,,,,414631,414631,,414631,,414631.1,8,400,,,
sequence,flow.Sequence,4_108,2023-11-02T01:10:01.946Z,,0,,,2600.2399999999907,completion,,,,,false,,,,414631,414631,412030.68,412032,412030.76,414631.1,8,400,,,
trial,html.Screen,4_109_0,2023-11-02T01:10:04.434Z,,0,3,,2488.9000000000233,response,ISIC_4418545.JPG,13,ISIC_0072004.JPG,ISIC_0072004.JPG,false,0,keypress(z),500,417120,417120,414631.02,414631,414631.1,417119.8,8,400,10,,ISIC_4418545.JPG
break,html.Screen,4_109_1,2023-11-02T01:10:04.434Z,,0,,,NaN,,,,,,false,,,,417121,417120,,417120,,417119.8,8,400,,,
break_continue,html.Screen,4_109_2,2023-11-02T01:10:04.434Z,,0,,,NaN,,,,,,false,,,,417121,417121,,417121,,417119.8,8,400,,,
sequence,flow.Sequence,4_109,2023-11-02T01:10:04.434Z,,0,,,2489.9000000000233,completion,,,,,false,,,,417121,417121,414631.02,414631,414631.1,417119.8,8,400,,,
trial,html.Screen,4_110_0,2023-11-02T01:10:07.004Z,,0,3,,2569.2000000000116,response,ISIC_8765068.JPG,11,ISIC_4678416.JPG,ISIC_4678416.JPG,false,0,keypress(z),500,419690,419689,417119.72,417121,417119.8,419689.62,8,400,11,,ISIC_8765068.JPG
break,html.Screen,4_110_1,2023-11-02T01:10:07.004Z,,0,,,NaN,,,,,,false,,,,419690,419690,,419690,,419689.62,8,400,,,
break_continue,html.Screen,4_110_2,2023-11-02T01:10:07.005Z,,0,,,NaN,,,,,,false,,,,419690,419690,,419690,,419689.62,8,400,,,
sequence,flow.Sequence,4_110,2023-11-02T01:10:07.005Z,,0,,,2570.2000000000116,completion,,,,,false,,,,419690,419690,417119.72,417121,417119.8,419689.62,8,400,,,
trial,html.Screen,4_111_0,2023-11-02T01:10:09.758Z,,0,3,,2754.3800000000047,response,ISIC_0067801.JPG,13,ISIC_5769654.JPG,ISIC_0067801.JPG,false,1,keypress(m),500,422444,422444,419689.54,419690,419689.62,422444.3,8,400,12,,ISIC_5769654.JPG
break,html.Screen,4_111_1,2023-11-02T01:10:09.759Z,,0,,,NaN,,,,,,false,,,,422444,422444,,422444,,422444.3,8,400,,,
break_continue,html.Screen,4_111_2,2023-11-02T01:10:09.759Z,,0,,,NaN,,,,,,false,,,,422444,422444,,422444,,422444.3,8,400,,,
sequence,flow.Sequence,4_111,2023-11-02T01:10:09.759Z,,0,,,2754.3800000000047,completion,,,,,false,,,,422445,422444,419689.54,419690,419689.62,422444.3,8,400,,,
trial,html.Screen,4_112_0,2023-11-02T01:10:12.370Z,,0,3,,2611.7000000000116,response,ISIC_4341261.JPG,10,ISIC_0010523.JPG,ISIC_0010523.JPG,false,0,keypress(z),500,425056,425056,422444.22,422445,422444.3,425056.38,8,400,13,,ISIC_4341261.JPG
break,html.Screen,4_112_1,2023-11-02T01:10:12.371Z,,0,,,NaN,,,,,,false,,,,425057,425057,,425056,,425056.38,8,400,,,
break_continue,html.Screen,4_112_2,2023-11-02T01:10:12.371Z,,0,,,NaN,,,,,,false,,,,425057,425057,,425057,,425056.38,8,400,,,
sequence,flow.Sequence,4_112,2023-11-02T01:10:12.371Z,,0,,,2612.7000000000116,completion,,,,,false,,,,425057,425057,422444.22,422445,422444.3,425056.38,8,400,,,
trial,html.Screen,4_113_0,2023-11-02T01:10:15.189Z,,0,3,,2818.6199999999953,response,ISIC_0055169.JPG,12,ISIC_2307760.JPG,ISIC_0055169.JPG,false,1,keypress(m),500,427875,427875,425056.28,425057,425056.38,427874.92,8,400,14,,ISIC_2307760.JPG
break,html.Screen,4_113_1,2023-11-02T01:10:15.190Z,,0,,,NaN,,,,,,false,,,,427875,427875,,427875,,427874.92,8,400,,,
break_continue,html.Screen,4_113_2,2023-11-02T01:10:15.190Z,,0,,,NaN,,,,,,false,,,,427875,427875,,427875,,427874.92,8,400,,,
sequence,flow.Sequence,4_113,2023-11-02T01:10:15.190Z,,0,,,2818.6199999999953,completion,,,,,false,,,,427875,427875,425056.28,425057,425056.38,427874.92,8,400,,,
trial,html.Screen,4_114_0,2023-11-02T01:10:17.689Z,,0,3,,2500.0800000000163,response,ISIC_1604845.JPG,12,ISIC_0070092.JPG,ISIC_0070092.JPG,false,0,keypress(z),500,430375,430375,427874.86,427875,427874.92,430375.28,8,400,15,,ISIC_1604845.JPG
break,html.Screen,4_114_1,2023-11-02T01:10:17.690Z,,0,,,NaN,,,,,,false,,,,430375,430375,,430375,,430375.28,8,400,,,
break_continue,html.Screen,4_114_2,2023-11-02T01:10:17.690Z,,0,,,NaN,,,,,,false,,,,430376,430375,,430375,,430375.28,8,400,,,
sequence,flow.Sequence,4_114,2023-11-02T01:10:17.690Z,,0,,,2500.0800000000163,completion,,,,,false,,,,430376,430375,427874.86,427875,427874.92,430375.28,8,400,,,
trial,html.Screen,4_115_0,2023-11-02T01:10:20.462Z,,0,3,,2772.719999999972,response,ISIC_0061265.JPG,13,ISIC_7137995.JPG,ISIC_0061265.JPG,false,1,keypress(m),500,433148,433148,430375.18,430376,430375.28,433149.44,8,400,16,,ISIC_7137995.JPG
break,html.Screen,4_115_1,2023-11-02T01:10:20.462Z,,0,,,NaN,,,,,,false,,,,433149,433149,,433148,,433149.44,8,400,,,
break_continue,html.Screen,4_115_2,2023-11-02T01:10:20.462Z,,0,,,NaN,,,,,,false,,,,433149,433149,,433149,,433149.44,8,400,,,
sequence,flow.Sequence,4_115,2023-11-02T01:10:20.462Z,,0,,,2773.719999999972,completion,,,,,false,,,,433149,433149,430375.18,430376,430375.28,433149.44,8,400,,,
trial,html.Screen,4_116_0,2023-11-02T01:10:23.213Z,,0,3,,2749.5599999999977,response,ISIC_0010596.JPG,4,ISIC_6023518.JPG,ISIC_0010596.JPG,false,1,keypress(m),500,435899,435899,433147.88,433149,433149.44,435899.12,8,400,17,,ISIC_6023518.JPG
break,html.Screen,4_116_1,2023-11-02T01:10:23.213Z,,0,,,NaN,,,,,,false,,,,435899,435899,,435899,,435899.12,8,400,,,
break_continue,html.Screen,4_116_2,2023-11-02T01:10:23.214Z,,0,,,NaN,,,,,,false,,,,435900,435899,,435899,,435899.12,8,400,,,
sequence,flow.Sequence,4_116,2023-11-02T01:10:23.214Z,,0,,,2749.5599999999977,completion,,,,,false,,,,435900,435899,433147.88,433149,433149.44,435899.12,8,400,,,
trial,html.Screen,4_117_0,2023-11-02T01:10:26.229Z,,0,3,,3015.8800000000047,response,ISIC_8108870.JPG,15,ISIC_0015631.JPG,ISIC_0015631.JPG,false,0,keypress(z),500,438915,438915,435899.04,435900,435899.12,438914.92,8,400,18,,ISIC_8108870.JPG
break,html.Screen,4_117_1,2023-11-02T01:10:26.229Z,,0,,,NaN,,,,,,false,,,,438915,438915,,438915,,438914.92,8,400,,,
break_continue,html.Screen,4_117_2,2023-11-02T01:10:26.230Z,,0,,,NaN,,,,,,false,,,,438916,438915,,438915,,438914.92,8,400,,,
sequence,flow.Sequence,4_117,2023-11-02T01:10:26.230Z,,0,,,3015.8800000000047,completion,,,,,false,,,,438916,438915,435899.04,435900,435899.12,438914.92,8,400,,,
trial,html.Screen,4_118_0,2023-11-02T01:10:28.910Z,,0,3,,2680.0800000000163,response,ISIC_8777813.JPG,14,ISIC_0070940.JPG,ISIC_0070940.JPG,false,0,keypress(z),500,441595,441595,438914.84,438916,438914.92,441595.32,8,400,19,,ISIC_8777813.JPG
break,html.Screen,4_118_1,2023-11-02T01:10:28.910Z,,0,,,NaN,,,,,,false,,,,441595,441595,,441595,,441595.32,8,400,,,
break_continue,html.Screen,4_118_2,2023-11-02T01:10:28.910Z,,0,,,NaN,,,,,,false,,,,441595,441595,,441595,,441595.32,8,400,,,
sequence,flow.Sequence,4_118,2023-11-02T01:10:28.910Z,,0,,,2680.0800000000163,completion,,,,,false,,,,441596,441595,438914.84,438916,438914.92,441595.32,8,400,,,
trial,html.Screen,4_119_0,2023-11-02T01:10:31.950Z,,0,3,,3039.679999999993,response,ISIC_0054974.JPG,11,ISIC_7068674.JPG,ISIC_7068674.JPG,false,0,keypress(z),500,444635,444635,441595.22,441596,441595.32,444637.16,8,400,20,,ISIC_0054974.JPG
break,html.Screen,4_119_1,2023-11-02T01:10:31.950Z,,0,,,NaN,,,,,,false,,,,444636,444636,,444636,,444637.16,8,400,,,
break_continue,html.Screen,4_119_2,2023-11-02T01:10:31.950Z,,0,,,NaN,,,,,,false,,,,444636,444636,,444636,,444637.16,8,400,,,
sequence,flow.Sequence,4_119,2023-11-02T01:10:31.950Z,,0,,,3040.679999999993,completion,,,,,false,,,,444636,444636,441595.22,441596,441595.32,444637.16,8,400,,,
trial,html.Screen,4_120_0,2023-11-02T01:10:34.971Z,,0,3,,3018.8400000000256,response,ISIC_0032558.JPG,6,ISIC_0009941.JPG,ISIC_0009941.JPG,false,0,keypress(z),500,447656,447656,444635.7,444636,444637.16,447656.84,8,400,21,,ISIC_0032558.JPG
break,html.Screen,4_120_1,2023-11-02T01:10:34.971Z,,0,,,NaN,,,,,,false,,,,447657,447657,,447656,,447656.84,8,400,,,
break_continue,html.Screen,4_120_2,2023-11-02T01:10:34.971Z,,0,,,NaN,,,,,,false,,,,447657,447657,,447657,,447656.84,8,400,,,
sequence,flow.Sequence,4_120,2023-11-02T01:10:34.971Z,,0,,,3019.8400000000256,completion,,,,,false,,,,447657,447657,444635.7,444636,444637.16,447656.84,8,400,,,
trial,html.Screen,4_121_0,2023-11-02T01:10:37.791Z,,0,3,,2820.1599999999744,response,ISIC_0054329.JPG,14,ISIC_0030428.JPG,ISIC_0054329.JPG,false,1,keypress(m),500,450477,450477,447656.76,447657,447656.84,450477.62,8,400,22,,ISIC_0030428.JPG
break,html.Screen,4_121_1,2023-11-02T01:10:37.792Z,,0,,,NaN,,,,,,false,,,,450478,450478,,450477,,450477.62,8,400,,,
break_continue,html.Screen,4_121_2,2023-11-02T01:10:37.792Z,,0,,,NaN,,,,,,false,,,,450478,450478,,450478,,450477.62,8,400,,,
sequence,flow.Sequence,4_121,2023-11-02T01:10:37.792Z,,0,,,2821.1599999999744,completion,,,,,false,,,,450478,450478,447656.76,447657,447656.84,450477.62,8,400,,,
trial,html.Screen,4_122_0,2023-11-02T01:10:40.534Z,,0,3,,2742.3800000000047,response,ISIC_0058946.JPG,4,ISIC_0033975.JPG,ISIC_0033975.JPG,false,0,keypress(z),500,453220,453220,450477.56,450478,450477.62,453219.94,8,400,23,,ISIC_0058946.JPG
break,html.Screen,4_122_1,2023-11-02T01:10:40.535Z,,0,,,NaN,,,,,,false,,,,453220,453220,,453220,,453219.94,8,400,,,
break_continue,html.Screen,4_122_2,2023-11-02T01:10:40.535Z,,0,,,NaN,,,,,,false,,,,453220,453220,,453220,,453219.94,8,400,,,
sequence,flow.Sequence,4_122,2023-11-02T01:10:40.535Z,,0,,,2742.3800000000047,completion,,,,,false,,,,453220,453220,450477.56,450478,450477.62,453219.94,8,400,,,
trial,html.Screen,4_123_0,2023-11-02T01:10:43.203Z,,0,3,,2669.0599999999977,response,ISIC_0030171.JPG,11,ISIC_8679617.JPG,ISIC_8679617.JPG,false,0,keypress(z),500,455889,455889,453219.86,453221,453219.94,455889.16,8,400,24,,ISIC_0030171.JPG
break,html.Screen,4_123_1,2023-11-02T01:10:43.203Z,,0,,,NaN,,,,,,false,,,,455890,455890,,455889,,455889.16,8,400,,,
break_continue,html.Screen,4_123_2,2023-11-02T01:10:43.204Z,,0,,,NaN,,,,,,false,,,,455890,455890,,455890,,455889.16,8,400,,,
sequence,flow.Sequence,4_123,2023-11-02T01:10:43.204Z,,0,,,2670.0599999999977,completion,,,,,false,,,,455890,455890,453219.86,453221,453219.94,455889.16,8,400,,,
trial,html.Screen,4_124_0,2023-11-02T01:10:46.385Z,,0,3,,3181.8400000000256,response,ISIC_6926118.JPG,11,ISIC_0069667.JPG,ISIC_0069667.JPG,false,0,keypress(z),500,459071,459071,455889.06,455890,455889.16,459071.04,8,400,25,,ISIC_6926118.JPG
break,html.Screen,4_124_1,2023-11-02T01:10:46.385Z,,0,,,NaN,,,,,,false,,,,459071,459071,,459071,,459071.04,8,400,,,
break_continue,html.Screen,4_124_2,2023-11-02T01:10:46.385Z,,0,,,NaN,,,,,,false,,,,459072,459071,,459071,,459071.04,8,400,,,
sequence,flow.Sequence,4_124,2023-11-02T01:10:46.386Z,,0,,,3181.8400000000256,completion,,,,,false,,,,459072,459071,455889.06,455890,455889.16,459071.04,8,400,,,
trial,html.Screen,4_125_0,2023-11-02T01:10:49.321Z,,0,3,,2935.960000000021,response,ISIC_2133938.JPG,1,ISIC_5403296.JPG,ISIC_5403296.JPG,false,0,keypress(z),500,462007,462007,459070.96,459072,459071.04,462007.24,8,400,26,,ISIC_2133938.JPG
break,html.Screen,4_125_1,2023-11-02T01:10:49.322Z,,0,,,NaN,,,,,,false,,,,462007,462007,,462007,,462007.24,8,400,,,
break_continue,html.Screen,4_125_2,2023-11-02T01:10:49.322Z,,0,,,NaN,,,,,,false,,,,462007,462007,,462007,,462007.24,8,400,,,
sequence,flow.Sequence,4_125,2023-11-02T01:10:49.322Z,,0,,,2935.960000000021,completion,,,,,false,,,,462007,462007,459070.96,459072,459071.04,462007.24,8,400,,,
trial,html.Screen,4_126_0,2023-11-02T01:10:52.654Z,,0,3,,3331.7600000000093,response,ISIC_0010322.JPG,15,ISIC_0694677.JPG,ISIC_0010322.JPG,false,1,keypress(m),500,465339,465339,462007.16,462007,462007.24,465339.04,8,400,27,,ISIC_0694677.JPG
break,html.Screen,4_126_1,2023-11-02T01:10:52.654Z,,0,,,NaN,,,,,,false,,,,465340,465340,,465339,,465339.04,8,400,,,
break_continue,html.Screen,4_126_2,2023-11-02T01:10:52.654Z,,0,,,NaN,,,,,,false,,,,465340,465340,,465340,,465339.04,8,400,,,
sequence,flow.Sequence,4_126,2023-11-02T01:10:52.654Z,,0,,,3332.7600000000093,completion,,,,,false,,,,465340,465340,462007.16,462007,462007.24,465339.04,8,400,,,
trial,html.Screen,4_127_0,2023-11-02T01:10:55.538Z,,0,3,,2884.960000000021,response,ISIC_3947143.JPG,13,ISIC_3188062.JPG,ISIC_3188062.JPG,false,0,keypress(z),500,468224,468224,465338.98,465340,465339.04,468223.72,8,400,28,,ISIC_3947143.JPG
break,html.Screen,4_127_1,2023-11-02T01:10:55.538Z,,0,,,NaN,,,,,,false,,,,468224,468224,,468224,,468223.72,8,400,,,
break_continue,html.Screen,4_127_2,2023-11-02T01:10:55.538Z,,0,,,NaN,,,,,,false,,,,468224,468224,,468224,,468223.72,8,400,,,
sequence,flow.Sequence,4_127,2023-11-02T01:10:55.538Z,,0,,,2884.960000000021,completion,,,,,false,,,,468224,468224,465338.98,465340,465339.04,468223.72,8,400,,,
trial,html.Screen,4_128_0,2023-11-02T01:10:59.025Z,,0,3,,3486.280000000028,response,ISIC_0011267.JPG,14,ISIC_0032544.JPG,ISIC_0032544.JPG,false,0,keypress(z),500,471710,471710,468223.66,468224,468223.72,471710.46,8,400,29,,ISIC_0011267.JPG
break,html.Screen,4_128_1,2023-11-02T01:10:59.025Z,,0,,,NaN,,,,,,false,,,,471710,471710,,471710,,471710.46,8,400,,,
break_continue,html.Screen,4_128_2,2023-11-02T01:10:59.025Z,,0,,,NaN,,,,,,false,,,,471711,471711,,471710,,471710.46,8,400,,,
sequence,flow.Sequence,4_128,2023-11-02T01:10:59.025Z,,0,,,3487.280000000028,completion,,,,,false,,,,471711,471711,468223.66,468224,468223.72,471710.46,8,400,,,
trial,html.Screen,4_129_0,2023-11-02T01:11:02.490Z,,0,3,,3464.539999999979,response,ISIC_6913272.JPG,12,ISIC_6809191.JPG,ISIC_6809191.JPG,false,0,keypress(z),500,475175,475175,471710.38,471711,471710.46,475175.42,8,400,30,,ISIC_6913272.JPG
break,html.Screen,4_129_1,2023-11-02T01:11:02.490Z,,0,,,NaN,,,,,,false,,,,475176,475176,,475176,,475175.42,8,400,,,
break_continue,html.Screen,4_129_2,2023-11-02T01:11:02.490Z,,0,,,NaN,,,,,,false,,,,475176,475176,,475176,,475175.42,8,400,,,
sequence,flow.Sequence,4_129,2023-11-02T01:11:02.490Z,,0,,,3465.539999999979,completion,,,,,false,,,,475176,475176,471710.38,471711,471710.46,475175.42,8,400,,,
trial,html.Screen,4_130_0,2023-11-02T01:11:05.226Z,,0,3,,2735.5800000000163,response,ISIC_5065360.JPG,14,ISIC_0310134.JPG,ISIC_0310134.JPG,false,0,keypress(z),500,477911,477911,475175.32,475176,475175.42,477912.66,8,400,31,,ISIC_5065360.JPG
break,html.Screen,4_130_1,2023-11-02T01:11:05.226Z,,0,,,NaN,,,,,,false,,,,477912,477912,,477912,,477912.66,8,400,,,
break_continue,html.Screen,4_130_2,2023-11-02T01:11:05.226Z,,0,,,NaN,,,,,,false,,,,477912,477912,,477912,,477912.66,8,400,,,
sequence,flow.Sequence,4_130,2023-11-02T01:11:05.226Z,,0,,,2736.5800000000163,completion,,,,,false,,,,477912,477912,475175.32,475176,475175.42,477912.66,8,400,,,
trial,html.Screen,4_131_0,2023-11-02T01:11:08.476Z,,0,3,,3250.3400000000256,response,ISIC_8863344.JPG,14,ISIC_3503302.JPG,ISIC_3503302.JPG,false,0,keypress(z),500,481163,481163,477911.22,477912,477912.66,481162.5,8,400,32,,ISIC_8863344.JPG
break,html.Screen,4_131_1,2023-11-02T01:11:08.477Z,,0,,,NaN,,,,,,false,,,,481163,481163,,481163,,481162.5,8,400,,,
break_continue,html.Screen,4_131_2,2023-11-02T01:11:08.477Z,,0,,,NaN,,,,,,false,,,,481163,481163,,481163,,481162.5,8,400,,,
sequence,flow.Sequence,4_131,2023-11-02T01:11:08.477Z,,0,,,3250.3400000000256,completion,,,,,false,,,,481163,481163,477911.22,477912,477912.66,481162.5,8,400,,,
trial,html.Screen,4_132_0,2023-11-02T01:11:11.215Z,,0,3,,2738.5,response,ISIC_5581297.JPG,0,ISIC_7376906.JPG,ISIC_5581297.JPG,false,1,keypress(m),500,483901,483901,481162.38,481163,481162.5,483901.44,8,400,33,,ISIC_7376906.JPG
break,html.Screen,4_132_1,2023-11-02T01:11:11.216Z,,0,,,NaN,,,,,,false,,,,483901,483901,,483901,,483901.44,8,400,,,
break_continue,html.Screen,4_132_2,2023-11-02T01:11:11.216Z,,0,,,NaN,,,,,,false,,,,483902,483902,,483901,,483901.44,8,400,,,
sequence,flow.Sequence,4_132,2023-11-02T01:11:11.216Z,,0,,,2739.5,completion,,,,,false,,,,483902,483902,481162.38,481163,481162.5,483901.44,8,400,,,
trial,html.Screen,4_133_0,2023-11-02T01:11:13.844Z,,0,3,,2627.5599999999977,response,ISIC_3105924.JPG,4,ISIC_4734111.JPG,ISIC_4734111.JPG,false,0,keypress(z),500,486529,486529,483901.36,483902,483901.44,486529.82,8,400,34,,ISIC_3105924.JPG
break,html.Screen,4_133_1,2023-11-02T01:11:13.844Z,,0,,,NaN,,,,,,false,,,,486530,486530,,486529,,486529.82,8,400,,,
break_continue,html.Screen,4_133_2,2023-11-02T01:11:13.845Z,,0,,,NaN,,,,,,false,,,,486530,486530,,486530,,486529.82,8,400,,,
sequence,flow.Sequence,4_133,2023-11-02T01:11:13.845Z,,0,,,2628.5599999999977,completion,,,,,false,,,,486530,486530,483901.36,483902,483901.44,486529.82,8,400,,,
trial,html.Screen,4_134_0,2023-11-02T01:11:16.663Z,,0,3,,2819.179999999993,response,ISIC_0060446.JPG,20,ISIC_0026910.JPG,ISIC_0060446.JPG,false,1,keypress(m),500,489349,489349,486529.74,486530,486529.82,489349.12,8,400,35,,ISIC_0026910.JPG
break,html.Screen,4_134_1,2023-11-02T01:11:16.664Z,,0,,,NaN,,,,,,false,,,,489349,489349,,489349,,489349.12,8,400,,,
break_continue,html.Screen,4_134_2,2023-11-02T01:11:16.664Z,,0,,,NaN,,,,,,false,,,,489349,489349,,489349,,489349.12,8,400,,,
sequence,flow.Sequence,4_134,2023-11-02T01:11:16.664Z,,0,,,2819.179999999993,completion,,,,,false,,,,489349,489349,486529.74,486530,486529.82,489349.12,8,400,,,
trial,html.Screen,4_135_0,2023-11-02T01:11:20.069Z,,0,3,,3404.8800000000047,response,ISIC_7901891.JPG,30,ISIC_9263990.JPG,ISIC_7901891.JPG,false,1,keypress(m),500,492755,492754,489349.02,489349,489349.12,492754.44,8,400,36,,ISIC_9263990.JPG
break,html.Screen,4_135_1,2023-11-02T01:11:20.069Z,,0,,,NaN,,,,,,false,,,,492755,492755,,492755,,492754.44,8,400,,,
break_continue,html.Screen,4_135_2,2023-11-02T01:11:20.069Z,,0,,,NaN,,,,,,false,,,,492755,492755,,492755,,492754.44,8,400,,,
sequence,flow.Sequence,4_135,2023-11-02T01:11:20.069Z,,0,,,3405.8800000000047,completion,,,,,false,,,,492755,492755,489349.02,489349,489349.12,492754.44,8,400,,,
trial,html.Screen,4_136_0,2023-11-02T01:11:23.143Z,,0,3,,3074.5599999999977,response,ISIC_0029120.JPG,6,ISIC_3928910.JPG,ISIC_0029120.JPG,false,1,keypress(m),500,495829,495829,492754.36,492755,492754.44,495829,8,400,37,,ISIC_3928910.JPG
break,html.Screen,4_136_1,2023-11-02T01:11:23.143Z,,0,,,NaN,,,,,,false,,,,495829,495829,,495829,,495829,8,400,,,
break_continue,html.Screen,4_136_2,2023-11-02T01:11:23.143Z,,0,,,NaN,,,,,,false,,,,495829,495829,,495829,,495829,8,400,,,
sequence,flow.Sequence,4_136,2023-11-02T01:11:23.143Z,,0,,,3074.5599999999977,completion,,,,,false,,,,495829,495829,492754.36,492755,492754.44,495829,8,400,,,
trial,html.Screen,4_137_0,2023-11-02T01:11:26.022Z,,0,3,,2878,response,ISIC_0033574.JPG,7,ISIC_3361955.JPG,ISIC_3361955.JPG,false,0,keypress(z),500,498707,498707,495828.92,495829,495829,498707.02,8,400,38,,ISIC_0033574.JPG
break,html.Screen,4_137_1,2023-11-02T01:11:26.022Z,,0,,,NaN,,,,,,false,,,,498707,498707,,498707,,498707.02,8,400,,,
break_continue,html.Screen,4_137_2,2023-11-02T01:11:26.022Z,,0,,,NaN,,,,,,false,,,,498707,498707,,498707,,498707.02,8,400,,,
sequence,flow.Sequence,4_137,2023-11-02T01:11:26.022Z,,0,,,2878,completion,,,,,false,,,,498708,498707,495828.92,495829,495829,498707.02,8,400,,,
trial,html.Screen,4_138_0,2023-11-02T01:11:29.396Z,,0,3,,3373.9799999999814,response,ISIC_0032841.JPG,9,ISIC_7728263.JPG,ISIC_0032841.JPG,false,1,keypress(m),500,502081,502081,498706.94,498708,498707.02,502082.74,8,400,39,,ISIC_7728263.JPG
break,html.Screen,4_138_1,2023-11-02T01:11:29.397Z,,0,,,NaN,,,,,,false,,,,502082,502081,,502081,,502082.74,8,400,,,
break_continue,html.Screen,4_138_2,2023-11-02T01:11:29.397Z,,0,,,NaN,,,,,,false,,,,502082,502082,,502082,,502082.74,8,400,,,
sequence,flow.Sequence,4_138,2023-11-02T01:11:29.397Z,,0,,,3374.9799999999814,completion,,,,,false,,,,502082,502082,498706.94,498708,498707.02,502082.74,8,400,,,
trial,html.Screen,4_139_0,2023-11-02T01:11:33.284Z,,0,3,,3886.2600000000093,response,ISIC_0026756.JPG,12,ISIC_0057692.JPG,ISIC_0026756.JPG,false,1,keypress(m),500,505970,505969,502081.56,502082,502082.74,505969.38,8,400,40,,ISIC_0057692.JPG
break,html.Screen,4_139_1,2023-11-02T01:11:33.284Z,,0,,,NaN,,,,,,false,,,,505970,505970,,505970,,505969.38,8,400,,,
break_continue,html.Screen,4_139_2,2023-11-02T01:11:33.284Z,,0,,,NaN,,,,,,false,,,,505970,505970,,505970,,505969.38,8,400,,,
sequence,flow.Sequence,4_139,2023-11-02T01:11:33.284Z,,0,,,3887.2600000000093,completion,,,,,false,,,,505970,505970,502081.56,502082,502082.74,505969.38,8,400,,,
trial,html.Screen,4_140_0,2023-11-02T01:11:36.537Z,,0,3,,3252.6199999999953,response,ISIC_0059707.JPG,13,ISIC_6317162.JPG,ISIC_0059707.JPG,false,1,keypress(m),500,509222,509222,505969.3,505970,505969.38,509222.88,8,400,41,,ISIC_6317162.JPG
break,html.Screen,4_140_1,2023-11-02T01:11:36.537Z,,0,,,NaN,,,,,,false,,,,509224,509224,,509222,,509222.88,8,400,,,
break_continue,html.Screen,4_140_2,2023-11-02T01:11:36.538Z,,0,,,NaN,,,,,,false,,,,509224,509224,,509224,,509222.88,8,400,,,
sequence,flow.Sequence,4_140,2023-11-02T01:11:36.538Z,,0,,,3254.6199999999953,completion,,,,,false,,,,509224,509224,505969.3,505970,505969.38,509222.88,8,400,,,
trial,html.Screen,4_141_0,2023-11-02T01:11:39.754Z,,0,3,,3217.1199999999953,response,ISIC_6752060.JPG,13,ISIC_0000148.JPG,ISIC_0000148.JPG,false,0,keypress(z),500,512440,512440,509222.78,509224,509222.88,512439.92,8,400,42,,ISIC_6752060.JPG
break,html.Screen,4_141_1,2023-11-02T01:11:39.754Z,,0,,,NaN,,,,,,false,,,,512441,512441,,512440,,512439.92,8,400,,,
break_continue,html.Screen,4_141_2,2023-11-02T01:11:39.754Z,,0,,,NaN,,,,,,false,,,,512441,512441,,512441,,512439.92,8,400,,,
sequence,flow.Sequence,4_141,2023-11-02T01:11:39.754Z,,0,,,3218.1199999999953,completion,,,,,false,,,,512441,512441,509222.78,509224,509222.88,512439.92,8,400,,,
trial,html.Screen,4_142_0,2023-11-02T01:11:43.777Z,,0,3,,4023.0800000000163,response,ISIC_0031900.JPG,0,ISIC_7776719.JPG,ISIC_0031900.JPG,false,1,keypress(m),500,516463,516463,512439.82,512441,512439.92,516463.12,8,400,43,,ISIC_7776719.JPG
break,html.Screen,4_142_1,2023-11-02T01:11:43.777Z,,0,,,NaN,,,,,,false,,,,516463,516463,,516463,,516463.12,8,400,,,
break_continue,html.Screen,4_142_2,2023-11-02T01:11:43.777Z,,0,,,NaN,,,,,,false,,,,516463,516463,,516463,,516463.12,8,400,,,
sequence,flow.Sequence,4_142,2023-11-02T01:11:43.778Z,,0,,,4023.0800000000163,completion,,,,,false,,,,516463,516463,512439.82,512441,512439.92,516463.12,8,400,,,
trial,html.Screen,4_143_0,2023-11-02T01:11:46.826Z,,0,3,,3047.8800000000047,response,ISIC_0066783.JPG,1,ISIC_4009870.JPG,ISIC_4009870.JPG,false,0,keypress(z),500,519511,519511,516463.04,516463,516463.12,519511.06,8,400,44,,ISIC_0066783.JPG
break,html.Screen,4_143_1,2023-11-02T01:11:46.826Z,,0,,,NaN,,,,,,false,,,,519511,519511,,519511,,519511.06,8,400,,,
break_continue,html.Screen,4_143_2,2023-11-02T01:11:46.826Z,,0,,,NaN,,,,,,false,,,,519512,519512,,519511,,519511.06,8,400,,,
sequence,flow.Sequence,4_143,2023-11-02T01:11:46.826Z,,0,,,3048.8800000000047,completion,,,,,false,,,,519512,519512,516463.04,516463,516463.12,519511.06,8,400,,,
trial,html.Screen,4_144_0,2023-11-02T01:11:49.607Z,,0,3,,2781.9400000000023,response,ISIC_5591622.JPG,14,ISIC_0025523.JPG,ISIC_0025523.JPG,false,0,keypress(z),500,522293,522293,519510.98,519512,519511.06,522300.84,8,400,45,,ISIC_5591622.JPG
break,html.Screen,4_144_1,2023-11-02T01:11:49.607Z,,0,,,NaN,,,,,,false,,,,522293,522293,,522293,,522300.84,8,400,,,
break_continue,html.Screen,4_144_2,2023-11-02T01:11:49.607Z,,0,,,NaN,,,,,,false,,,,522293,522293,,522293,,522300.84,8,400,,,
sequence,flow.Sequence,4_144,2023-11-02T01:11:49.607Z,,0,,,2781.9400000000023,completion,,,,,false,,,,522293,522293,519510.98,519512,519511.06,522300.84,8,400,,,
trial,html.Screen,4_145_0,2023-11-02T01:11:52.312Z,,0,3,,2697.1599999999744,response,ISIC_1533305.JPG,12,ISIC_0031821.JPG,ISIC_1533305.JPG,false,1,keypress(m),500,524999,524998,522293.9,522293,522300.84,524998.26,8,400,46,,ISIC_0031821.JPG
break,html.Screen,4_145_1,2023-11-02T01:11:52.313Z,,0,,,NaN,,,,,,false,,,,524999,524999,,524999,,524998.26,8,400,,,
break_continue,html.Screen,4_145_2,2023-11-02T01:11:52.313Z,,0,,,NaN,,,,,,false,,,,524999,524999,,524999,,524998.26,8,400,,,
sequence,flow.Sequence,4_145,2023-11-02T01:11:52.313Z,,0,,,2698.1599999999744,completion,,,,,false,,,,524999,524999,522293.9,522293,522300.84,524998.26,8,400,,,
trial,html.Screen,4_146_0,2023-11-02T01:11:55.749Z,,0,3,,3437.7399999999907,response,ISIC_0009236.JPG,10,ISIC_3430447.JPG,ISIC_0009236.JPG,false,1,keypress(m),500,528436,528436,524998.18,524999,524998.26,528435.6,8,400,47,,ISIC_3430447.JPG
break,html.Screen,4_146_1,2023-11-02T01:11:55.750Z,,0,,,NaN,,,,,,false,,,,528436,528436,,528436,,528435.6,8,400,,,
break_continue,html.Screen,4_146_2,2023-11-02T01:11:55.750Z,,0,,,NaN,,,,,,false,,,,528436,528436,,528436,,528435.6,8,400,,,
sequence,flow.Sequence,4_146,2023-11-02T01:11:55.750Z,,0,,,3437.7399999999907,completion,,,,,false,,,,528436,528436,524998.18,524999,524998.26,528435.6,8,400,,,
trial,html.Screen,4_147_0,2023-11-02T01:11:58.890Z,,0,3,,3140.4000000000233,response,ISIC_0055747.JPG,28,ISIC_0003822.JPG,ISIC_0055747.JPG,false,1,keypress(m),500,531576,531576,528435.52,528436,528435.6,531575.74,8,400,48,,ISIC_0003822.JPG
break,html.Screen,4_147_1,2023-11-02T01:11:58.890Z,,0,,,NaN,,,,,,false,,,,531576,531576,,531576,,531575.74,8,400,,,
break_continue,html.Screen,4_147_2,2023-11-02T01:11:58.890Z,,0,,,NaN,,,,,,false,,,,531576,531576,,531576,,531575.74,8,400,,,
sequence,flow.Sequence,4_147,2023-11-02T01:11:58.890Z,,0,,,3140.4000000000233,completion,,,,,false,,,,531576,531576,528435.52,528436,528435.6,531575.74,8,400,,,
trial,html.Screen,4_148_0,2023-11-02T01:12:01.919Z,,0,3,,3029.2600000000093,response,ISIC_0030501.JPG,14,ISIC_0070709.JPG,ISIC_0030501.JPG,false,1,keypress(m),500,534605,534605,531575.66,531576,531575.74,534605.04,8,400,49,,ISIC_0070709.JPG
break,html.Screen,4_148_1,2023-11-02T01:12:01.919Z,,0,,,NaN,,,,,,false,,,,534606,534605,,534605,,534605.04,8,400,,,
break_continue,html.Screen,4_148_2,2023-11-02T01:12:01.920Z,,0,,,NaN,,,,,,false,,,,534606,534606,,534606,,534605.04,8,400,,,
sequence,flow.Sequence,4_148,2023-11-02T01:12:01.920Z,,0,,,3030.2600000000093,completion,,,,,false,,,,534606,534606,531575.66,531576,531575.74,534605.04,8,400,,,
trial,html.Screen,4_149_0,2023-11-02T01:12:04.984Z,,0,3,,3062.9599999999627,response,ISIC_0033171.JPG,0,ISIC_0064307.JPG,ISIC_0064307.JPG,false,0,keypress(z),500,537669,537668,534604.96,534606,534605.04,537668.84,8,400,50,,ISIC_0033171.JPG
break,html.Screen,4_149_1,2023-11-02T01:12:14.981Z,,0,,,10002.220000000088,timeout,,,,,false,,,,547666,547664.12,537668.78,537669,537668.84,547671.06,8,400,,,
break_continue,html.Screen,4_149_2,2023-11-02T01:12:15.700Z,,0,,,702.9399999999441,response,,,,,false,continue,keypress(Space),,548387,548374,547664.12,547666,547671.06,548386.3,8,400,,,
sequence,flow.Sequence,4_149,2023-11-02T01:12:15.700Z,,0,,,13768.959999999963,completion,,,,,false,,,,548387,548374,534604.96,534606,534605.04,548386.3,8,400,,,
trial,html.Screen,4_150_0,2023-11-02T01:12:18.439Z,,0,4,,2737.6999999999534,response,ISIC_0011501.JPG,8,ISIC_4684860.JPG,ISIC_0011501.JPG,false,1,keypress(m),500,551125,551124,548386.22,548387,548386.3,551124.64,8,400,1,,ISIC_4684860.JPG
break,html.Screen,4_150_1,2023-11-02T01:12:18.440Z,,0,,,NaN,,,,,,false,,,,551125,551125,,551125,,551124.64,8,400,,,
break_continue,html.Screen,4_150_2,2023-11-02T01:12:18.440Z,,0,,,NaN,,,,,,false,,,,551125,551125,,551125,,551124.64,8,400,,,
