sender,sender_type,sender_id,timestamp,meta,,blockNo,condition,duration,ended_on,img_left,img_reveal,img_right,loser,practice,response,response_action,selection_duration,time_commit,time_end,time_render,time_run,time_show,time_switch,total_blocks,total_trials,trialNo,url,winner
informed_consent,html.Screen,0,2023-09-16T00:31:57.729Z,"{""labjs_version"":""20.2.4"",""labjs_build"":{""flavor"":""production"",""commit"":""f5b4a49f956347addd546a832a3327688c2c0fef""},""location"":""https://run.pavlovia.org/MurrayBennett/melanoma-2afc/?participant=66730&platform=sona"",""userAgent"":""Mozilla/5.0 (Macintosh; Intel Mac OS X 10_15_7) AppleWebKit/537.36 (KHTML, like Gecko) Chrome/116.0.0.0 Safari/537.36"",""platform"":""MacIntel"",""language"":""en-US"",""locale"":""en-US"",""timeZone"":""America/Chicago"",""timezoneOffset"":300,""screen_width"":1440,""screen_height"":900,""scroll_width"":1273,""scroll_height"":595,""window_innerWidth"":1273,""window_innerHeight"":643,""devicePixelRatio"":2}",,,,35890.128999952314,response,,,,,,consent,click button,,37613.89999997616,37610.299999952316,1703.505,1720.0999999642372,1720.171,37638.398,,,,"{""participant"":""66730"",""platform"":""sona""}",
Welcome,html.Screen,1,2023-09-16T00:41:44.642Z,,,,regular,586914.5019999761,response,,,,,,continue,click button,,624555.2999999523,624552.8999999762,37605.066,37614.19999998808,37638.398,624564.895,,,,,
trial,html.Screen,2_0_0,2023-09-16T00:41:52.456Z,,0,0,,7804.0049999761395,response,ISIC_4679428.JPG,,ISIC_0061792.JPG,ISIC_0061792.JPG,true,0,keypress(z),500,632369.5999999642,632368.8999999762,624548.229,624555.8999999762,624564.895,632381.249,1,6,1,,ISIC_4679428.JPG
sequence,flow.Sequence,2_0,2023-09-16T00:41:52.457Z,,0,,,7804.0049999761395,completion,,,,,true,,,,632370.1999999881,632368.8999999762,624548.229,624555.6999999881,624564.895,632381.249,1,6,,,
trial,html.Screen,2_1_0,2023-09-16T00:41:57.790Z,,0,0,,5321.650999976206,response,ISIC_0776486.JPG,,ISIC_5199497.JPG,ISIC_0776486.JPG,true,1,keypress(m),500,637703.3999999762,637702.8999999762,632364.583,632370.3999999762,632381.249,637715.445,1,6,2,,ISIC_5199497.JPG
sequence,flow.Sequence,2_1,2023-09-16T00:41:57.790Z,,0,,,5321.650999976206,completion,,,,,true,,,,637703.7999999523,637702.8999999762,632364.583,632370.2999999523,632381.249,637715.445,1,6,,,
trial,html.Screen,2_2_0,2023-09-16T00:42:02.996Z,,0,0,,5193.654999964288,response,ISIC_8575776.JPG,,ISIC_2556187.JPG,ISIC_2556187.JPG,true,0,keypress(z),500,642909.5999999642,642909.0999999642,637698.779,637704.0999999642,637715.445,642915.237,1,6,3,,ISIC_8575776.JPG
sequence,flow.Sequence,2_2,2023-09-16T00:42:02.996Z,,0,,,5193.654999964288,completion,,,,,true,,,,642910.0999999642,642909.0999999642,637698.779,637704,637715.445,642915.237,1,6,,,
trial,html.Screen,2_3_0,2023-09-16T00:42:06.775Z,,0,0,,3772.8629999642726,response,ISIC_8141769.JPG,,ISIC_9238366.JPG,ISIC_8141769.JPG,true,1,keypress(m),500,646688.6999999881,646688.0999999642,642898.571,642910.2999999523,642915.237,646699.323,1,6,4,,ISIC_9238366.JPG
sequence,flow.Sequence,2_3,2023-09-16T00:42:06.775Z,,0,,,3772.8629999642726,completion,,,,,true,,,,646689.1999999881,646688.0999999642,642898.571,642910.2999999523,642915.237,646699.323,1,6,,,
trial,html.Screen,2_4_0,2023-09-16T00:42:09.901Z,,0,0,,3114.9769999523414,response,ISIC_8949026.JPG,,ISIC_9959593.JPG,ISIC_8949026.JPG,true,1,keypress(m),500,649815,649814.2999999523,646682.657,646689.3999999762,646699.323,649832.531,1,6,5,,ISIC_9959593.JPG
sequence,flow.Sequence,2_4,2023-09-16T00:42:09.901Z,,0,,,3114.9769999523414,completion,,,,,true,,,,649815.5,649814.2999999523,646682.657,646689.3999999762,646699.323,649832.531,1,6,,,
trial,html.Screen,2_5_0,2023-09-16T00:42:13.942Z,,0,0,,4023.469000000041,response,ISIC_0010479.JPG,,ISIC_0460240.JPG,ISIC_0010479.JPG,true,1,keypress(m),500,653856.5999999642,653856,649815.865,649815.7999999523,649832.531,653865.703,1,6,6,,ISIC_0460240.JPG
sequence,flow.Sequence,2_5,2023-09-16T00:42:13.943Z,,0,,,4023.469000000041,completion,,,,,true,,,,653857,653856,649815.865,649815.6999999881,649832.531,653865.703,1,6,,,
loop,flow.Loop,2,2023-09-16T00:42:13.943Z,,,,,29291.10499999998,completion,,,,,true,,,,653857.3999999762,653856,624548.229,624555.6999999881,624564.895,653865.703,1,6,,,
exp_instructions,html.Screen,3,2023-09-16T00:42:25.528Z,,,,,11570.9969999881,response,,,,,,continue,keypress(Space),,665443,665436.6999999881,653849.037,653857.5999999642,653865.703,665448.573,,,,,
trial,html.Screen,4_0_0,2023-09-16T00:42:30.295Z,,0,1,,4760.726999952341,response,ISIC_1708591.JPG,9,ISIC_9280171.JPG,ISIC_9280171.JPG,false,0,keypress(z),500,670209.7999999523,670209.2999999523,665431.907,665443.5,665448.573,670215.908,8,400,1,,ISIC_1708591.JPG
break,html.Screen,4_0_1,2023-09-16T00:42:30.296Z,,0,,,NaN,,,,,,false,,,,670211.3999999762,670211.0999999642,,670210,,670215.908,8,400,,,
break_continue,html.Screen,4_0_2,2023-09-16T00:42:30.297Z,,0,,,NaN,,,,,,false,,,,670212,670211.7999999523,,670211.5999999642,,670215.908,8,400,,,
sequence,flow.Sequence,4_0,2023-09-16T00:42:30.297Z,,0,,,4763.226999952341,completion,,,,,false,,,,670212.1999999881,670211.7999999523,665431.907,665443.5,665448.573,670215.908,8,400,,,
trial,html.Screen,4_1_0,2023-09-16T00:42:34.923Z,,0,1,,4622.191999964183,response,ISIC_0010664.JPG,8,ISIC_0069595.JPG,ISIC_0010664.JPG,false,1,keypress(m),500,674838.5999999642,674838.0999999642,670199.242,670212.3999999762,670215.908,674849.056,8,400,2,,ISIC_0069595.JPG
break,html.Screen,4_1_1,2023-09-16T00:42:34.924Z,,0,,,NaN,,,,,,false,,,,674839.8999999762,674839.5999999642,,674838.8999999762,,674849.056,8,400,,,
break_continue,html.Screen,4_1_2,2023-09-16T00:42:34.925Z,,0,,,NaN,,,,,,false,,,,674840.3999999762,674840.1999999881,,674840,,674849.056,8,400,,,
sequence,flow.Sequence,4_1,2023-09-16T00:42:34.925Z,,0,,,4624.291999988025,completion,,,,,false,,,,674840.5,674840.1999999881,670199.242,670212.3999999762,670215.908,674849.056,8,400,,,
trial,html.Screen,4_2_0,2023-09-16T00:42:40.047Z,,0,1,,5113.143999988097,response,ISIC_0034187.JPG,9,ISIC_0060585.JPG,ISIC_0034187.JPG,false,1,keypress(m),500,679962.5999999642,679962.1999999881,674832.39,674840.6999999881,674849.056,679967.424,8,400,3,,ISIC_0060585.JPG
break,html.Screen,4_2_1,2023-09-16T00:42:40.048Z,,0,,,NaN,,,,,,false,,,,679964,679963.7999999523,,679963,,679967.424,8,400,,,
break_continue,html.Screen,4_2_2,2023-09-16T00:42:40.049Z,,0,,,NaN,,,,,,false,,,,679964.3999999762,679964.2999999523,,679964.0999999642,,679967.424,8,400,,,
sequence,flow.Sequence,4_2,2023-09-16T00:42:40.049Z,,0,,,5115.243999952334,completion,,,,,false,,,,679964.6999999881,679964.2999999523,674832.39,674840.6999999881,674849.056,679967.424,8,400,,,
trial,html.Screen,4_3_0,2023-09-16T00:42:43.446Z,,0,1,,3393.975999976159,response,ISIC_3590814.JPG,8,ISIC_6293107.JPG,ISIC_3590814.JPG,false,1,keypress(m),500,683361.7999999523,683361.3999999762,679950.758,679964.7999999523,679967.424,683367.288,8,400,4,,ISIC_6293107.JPG
break,html.Screen,4_3_1,2023-09-16T00:42:43.447Z,,0,,,NaN,,,,,,false,,,,683363.2999999523,683362.8999999762,,683362.1999999881,,683367.288,8,400,,,
break_continue,html.Screen,4_3_2,2023-09-16T00:42:43.448Z,,0,,,NaN,,,,,,false,,,,683363.6999999881,683363.5999999642,,683363.5,,683367.288,8,400,,,
sequence,flow.Sequence,4_3,2023-09-16T00:42:43.448Z,,0,,,3396.175999964238,completion,,,,,false,,,,683363.8999999762,683363.5999999642,679950.758,679964.6999999881,679967.424,683367.288,8,400,,,
trial,html.Screen,4_4_0,2023-09-16T00:42:46.830Z,,0,1,,3378.111999976216,response,ISIC_5768749.JPG,5,ISIC_5955057.JPG,ISIC_5768749.JPG,false,1,keypress(m),500,686745.8999999762,686745.3999999762,683350.622,683364.0999999642,683367.288,686751.389,8,400,5,,ISIC_5955057.JPG
break,html.Screen,4_4_1,2023-09-16T00:42:46.831Z,,0,,,NaN,,,,,,false,,,,686747.2999999523,686747.0999999642,,686746.2999999523,,686751.389,8,400,,,
break_continue,html.Screen,4_4_2,2023-09-16T00:42:46.832Z,,0,,,NaN,,,,,,false,,,,686747.6999999881,686747.5999999642,,686747.3999999762,,686751.389,8,400,,,
sequence,flow.Sequence,4_4,2023-09-16T00:42:46.832Z,,0,,,3380.311999964295,completion,,,,,false,,,,686748,686747.5999999642,683350.622,683364,683367.288,686751.389,8,400,,,
trial,html.Screen,4_5_0,2023-09-16T00:42:51.013Z,,0,1,,4177.91099995235,response,ISIC_0060341.JPG,7,ISIC_0010618.JPG,ISIC_0060341.JPG,false,1,keypress(m),500,690929.5999999642,690929.2999999523,686734.723,686748.0999999642,686751.389,690934.555,8,400,6,,ISIC_0010618.JPG
break,html.Screen,4_5_1,2023-09-16T00:42:51.014Z,,0,,,NaN,,,,,,false,,,,690930.1999999881,690929.8999999762,,690929.6999999881,,690934.555,8,400,,,
break_continue,html.Screen,4_5_2,2023-09-16T00:42:51.014Z,,0,,,NaN,,,,,,false,,,,690930.3999999762,690930.2999999523,,690930.1999999881,,690934.555,8,400,,,
sequence,flow.Sequence,4_5,2023-09-16T00:42:51.014Z,,0,,,4178.91099995235,completion,,,,,false,,,,690930.5,690930.2999999523,686734.723,686748,686751.389,690934.555,8,400,,,
trial,html.Screen,4_6_0,2023-09-16T00:42:56.154Z,,0,1,,5135.544999964186,response,ISIC_3632419.JPG,6,ISIC_0029508.JPG,ISIC_0029508.JPG,false,0,keypress(z),500,696070.5999999642,696070.0999999642,690917.889,690930.5,690934.555,696084.349,8,400,7,,ISIC_3632419.JPG
break,html.Screen,4_6_1,2023-09-16T00:42:56.155Z,,0,,,NaN,,,,,,false,,,,696071.8999999762,696071.5999999642,,696070.8999999762,,696084.349,8,400,,,
break_continue,html.Screen,4_6_2,2023-09-16T00:42:56.156Z,,0,,,NaN,,,,,,false,,,,696072.2999999523,696072.1999999881,,696072,,696084.349,8,400,,,
sequence,flow.Sequence,4_6,2023-09-16T00:42:56.156Z,,0,,,5137.644999988028,completion,,,,,false,,,,696072.5,696072.1999999881,690917.889,690930.5,690934.555,696084.349,8,400,,,
trial,html.Screen,4_7_0,2023-09-16T00:43:00.079Z,,0,1,,3911.0509999761125,response,ISIC_7776719.JPG,8,ISIC_4436342.JPG,ISIC_4436342.JPG,false,0,keypress(z),500,699995.8999999762,699995.3999999762,696067.683,696072.6999999881,696084.349,700001.72,8,400,8,,ISIC_7776719.JPG
break,html.Screen,4_7_1,2023-09-16T00:43:00.081Z,,0,,,NaN,,,,,,false,,,,699997.2999999523,699997,,699996.1999999881,,700001.72,8,400,,,
break_continue,html.Screen,4_7_2,2023-09-16T00:43:00.081Z,,0,,,NaN,,,,,,false,,,,699997.6999999881,699997.6999999881,,699997.5,,700001.72,8,400,,,
sequence,flow.Sequence,4_7,2023-09-16T00:43:00.081Z,,0,,,3913.3509999880334,completion,,,,,false,,,,699997.8999999762,699997.6999999881,696067.683,696072.5999999642,696084.349,700001.72,8,400,,,
trial,html.Screen,4_8_0,2023-09-16T00:43:04.277Z,,0,1,,4191.979999988107,response,ISIC_6507792.JPG,5,ISIC_0071043.JPG,ISIC_0071043.JPG,false,0,keypress(z),500,704194.1999999881,704193.6999999881,699985.054,699998.0999999642,700001.72,704201.552,8,400,9,,ISIC_6507792.JPG
break,html.Screen,4_8_1,2023-09-16T00:43:04.279Z,,0,,,NaN,,,,,,false,,,,704195.5999999642,704195.1999999881,,704194.5,,704201.552,8,400,,,
break_continue,html.Screen,4_8_2,2023-09-16T00:43:04.279Z,,0,,,NaN,,,,,,false,,,,704196,704195.8999999762,,704195.6999999881,,704201.552,8,400,,,
sequence,flow.Sequence,4_8,2023-09-16T00:43:04.279Z,,0,,,4194.179999976186,completion,,,,,false,,,,704196.1999999881,704195.8999999762,699985.054,699998.0999999642,700001.72,704201.552,8,400,,,
trial,html.Screen,4_9_0,2023-09-16T00:43:08.126Z,,0,1,,3840.647999988054,response,ISIC_1142962.JPG,4,ISIC_0031546.JPG,ISIC_0031546.JPG,false,0,keypress(z),500,708042.6999999881,708042.1999999881,704184.886,704196.3999999762,704201.552,708052.396,8,400,10,,ISIC_1142962.JPG
break,html.Screen,4_9_1,2023-09-16T00:43:08.127Z,,0,,,NaN,,,,,,false,,,,708044.0999999642,708043.7999999523,,708043,,708052.396,8,400,,,
break_continue,html.Screen,4_9_2,2023-09-16T00:43:08.127Z,,0,,,NaN,,,,,,false,,,,708044.5,708044.3999999762,,708044.1999999881,,708052.396,8,400,,,
sequence,flow.Sequence,4_9,2023-09-16T00:43:08.128Z,,0,,,3842.847999976133,completion,,,,,false,,,,708044.6999999881,708044.3999999762,704184.886,704196.3999999762,704201.552,708052.396,8,400,,,
trial,html.Screen,4_10_0,2023-09-16T00:43:12.613Z,,0,1,,4477.2039999642875,response,ISIC_8174881.JPG,7,ISIC_8813283.JPG,ISIC_8813283.JPG,false,0,keypress(z),500,712530,712529.5999999642,708035.73,708044.7999999523,708052.396,712535.55,8,400,11,,ISIC_8174881.JPG
break,html.Screen,4_10_1,2023-09-16T00:43:12.614Z,,0,,,NaN,,,,,,false,,,,712531.2999999523,712531,,712530.1999999881,,712535.55,8,400,,,
break_continue,html.Screen,4_10_2,2023-09-16T00:43:12.615Z,,0,,,NaN,,,,,,false,,,,712531.7999999523,712531.5999999642,,712531.3999999762,,712535.55,8,400,,,
sequence,flow.Sequence,4_10,2023-09-16T00:43:12.615Z,,0,,,4479.2039999642875,completion,,,,,false,,,,712532,712531.5999999642,708035.73,708044.7999999523,708052.396,712535.55,8,400,,,
trial,html.Screen,4_11_0,2023-09-16T00:43:18.427Z,,0,1,,5808.1499999880325,response,ISIC_5122042.JPG,8,ISIC_9896801.JPG,ISIC_9896801.JPG,false,0,keypress(z),500,718344.1999999881,718343.6999999881,712518.884,712532.0999999642,712535.55,718352.88,8,400,12,,ISIC_5122042.JPG
break,html.Screen,4_11_1,2023-09-16T00:43:18.428Z,,0,,,NaN,,,,,,false,,,,718345.5,718345.1999999881,,718344.5,,718352.88,8,400,,,
break_continue,html.Screen,4_11_2,2023-09-16T00:43:18.428Z,,0,,,NaN,,,,,,false,,,,718346,718345.8999999762,,718345.5999999642,,718352.88,8,400,,,
sequence,flow.Sequence,4_11,2023-09-16T00:43:18.429Z,,0,,,5810.349999976112,completion,,,,,false,,,,718346.0999999642,718345.8999999762,712518.884,712532,712535.55,718352.88,8,400,,,
trial,html.Screen,4_12_0,2023-09-16T00:43:22.258Z,,0,1,,3822.4199999523116,response,ISIC_1075605.JPG,8,ISIC_7342840.JPG,ISIC_1075605.JPG,false,1,keypress(m),500,722175.7999999523,722175.2999999523,718336.214,718346.3999999762,718352.88,722186.06,8,400,13,,ISIC_7342840.JPG
break,html.Screen,4_12_1,2023-09-16T00:43:22.259Z,,0,,,NaN,,,,,,false,,,,722177.0999999642,722176.8999999762,,722176.0999999642,,722186.06,8,400,,,
break_continue,html.Screen,4_12_2,2023-09-16T00:43:22.260Z,,0,,,NaN,,,,,,false,,,,722177.5999999642,722177.5,,722177.1999999881,,722186.06,8,400,,,
sequence,flow.Sequence,4_12,2023-09-16T00:43:22.260Z,,0,,,3824.6199999999953,completion,,,,,false,,,,722177.7999999523,722177.5,718336.214,718346.2999999523,718352.88,722186.06,8,400,,,
trial,html.Screen,4_13_0,2023-09-16T00:43:28.039Z,,0,1,,5770.539999964181,response,ISIC_0011388.JPG,8,ISIC_1915890.JPG,ISIC_0011388.JPG,false,1,keypress(m),500,727957,727956.5999999642,722169.394,722178,722186.06,727969.162,8,400,14,,ISIC_1915890.JPG
break,html.Screen,4_13_1,2023-09-16T00:43:28.040Z,,0,,,NaN,,,,,,false,,,,727958.1999999881,727958,,727957.2999999523,,727969.162,8,400,,,
break_continue,html.Screen,4_13_2,2023-09-16T00:43:28.041Z,,0,,,NaN,,,,,,false,,,,727958.5999999642,727958.3999999762,,727958.3999999762,,727969.162,8,400,,,
sequence,flow.Sequence,4_13,2023-09-16T00:43:28.041Z,,0,,,5772.339999976102,completion,,,,,false,,,,727958.6999999881,727958.3999999762,722169.394,722177.8999999762,722186.06,727969.162,8,400,,,
trial,html.Screen,4_14_0,2023-09-16T00:43:31.325Z,,0,1,,3273.137999952305,response,ISIC_0071300.JPG,8,ISIC_0030563.JPG,ISIC_0071300.JPG,false,1,keypress(m),500,731242.7999999523,731242.2999999523,727952.496,727958.8999999762,727969.162,731253.26,8,400,15,,ISIC_0030563.JPG
break,html.Screen,4_14_1,2023-09-16T00:43:31.326Z,,0,,,NaN,,,,,,false,,,,731244.2999999523,731243.8999999762,,731243.1999999881,,731253.26,8,400,,,
break_continue,html.Screen,4_14_2,2023-09-16T00:43:31.327Z,,0,,,NaN,,,,,,false,,,,731244.5999999642,731244.5,,731244.3999999762,,731253.26,8,400,,,
sequence,flow.Sequence,4_14,2023-09-16T00:43:31.327Z,,0,,,3275.337999999989,completion,,,,,false,,,,731244.7999999523,731244.5,727952.496,727958.7999999523,727969.162,731253.26,8,400,,,
trial,html.Screen,4_15_0,2023-09-16T00:43:35.636Z,,0,1,,4301.039999952307,response,ISIC_0070012.JPG,7,ISIC_0013767.JPG,ISIC_0070012.JPG,false,1,keypress(m),500,735554.6999999881,735554.2999999523,731236.594,731245,731253.26,735569.754,8,400,16,,ISIC_0013767.JPG
break,html.Screen,4_15_1,2023-09-16T00:43:35.638Z,,0,,,NaN,,,,,,false,,,,735556,735555.7999999523,,735555,,735569.754,8,400,,,
break_continue,html.Screen,4_15_2,2023-09-16T00:43:35.638Z,,0,,,NaN,,,,,,false,,,,735556.5,735556.3999999762,,735556.0999999642,,735569.754,8,400,,,
sequence,flow.Sequence,4_15,2023-09-16T00:43:35.638Z,,0,,,4303.139999976149,completion,,,,,false,,,,735556.5999999642,735556.3999999762,731236.594,731244.8999999762,731253.26,735569.754,8,400,,,
trial,html.Screen,4_16_0,2023-09-16T00:43:42.539Z,,0,1,,6887.545999952359,response,ISIC_4532303.JPG,9,ISIC_8663971.JPG,ISIC_8663971.JPG,false,0,keypress(z),500,742457.7999999523,742457.2999999523,735553.088,735556.7999999523,735569.754,742470.279,8,400,17,,ISIC_4532303.JPG
break,html.Screen,4_16_1,2023-09-16T00:43:42.540Z,,0,,,NaN,,,,,,false,,,,742459.1999999881,742458.8999999762,,742458.0999999642,,742470.279,8,400,,,
break_continue,html.Screen,4_16_2,2023-09-16T00:43:42.541Z,,0,,,NaN,,,,,,false,,,,742459.5,742459.5,,742459.1999999881,,742470.279,8,400,,,
sequence,flow.Sequence,4_16,2023-09-16T00:43:42.541Z,,0,,,6889.746000000043,completion,,,,,false,,,,742459.6999999881,742459.5,735553.088,735556.6999999881,735569.754,742470.279,8,400,,,
trial,html.Screen,4_17_0,2023-09-16T00:43:50.203Z,,0,1,,7651.120999976178,response,ISIC_3292151.JPG,7,ISIC_9947624.JPG,ISIC_3292151.JPG,false,1,keypress(m),500,750122,750121.3999999762,742453.613,742459.7999999523,742470.279,750136.639,8,400,18,,ISIC_9947624.JPG
break,html.Screen,4_17_1,2023-09-16T00:43:50.204Z,,0,,,NaN,,,,,,false,,,,750123.2999999523,750123.0999999642,,750122.2999999523,,750136.639,8,400,,,
break_continue,html.Screen,4_17_2,2023-09-16T00:43:50.205Z,,0,,,NaN,,,,,,false,,,,750123.6999999881,750123.5999999642,,750123.3999999762,,750136.639,8,400,,,
sequence,flow.Sequence,4_17,2023-09-16T00:43:50.205Z,,0,,,7653.320999964257,completion,,,,,false,,,,750123.6999999881,750123.5999999642,742453.613,742459.7999999523,742470.279,750136.639,8,400,,,
trial,html.Screen,4_18_0,2023-09-16T00:43:56.114Z,,0,1,,5895.8610000000335,response,ISIC_0024652.JPG,9,ISIC_1590829.JPG,ISIC_0024652.JPG,false,1,keypress(m),500,756033,756032.5,750119.973,750124,750136.639,756037.549,8,400,19,,ISIC_1590829.JPG
break,html.Screen,4_18_1,2023-09-16T00:43:56.115Z,,0,,,NaN,,,,,,false,,,,756034.2999999523,756034,,756033.1999999881,,756037.549,8,400,,,
break_continue,html.Screen,4_18_2,2023-09-16T00:43:56.116Z,,0,,,NaN,,,,,,false,,,,756034.8999999762,756034.6999999881,,756034.5,,756037.549,8,400,,,
sequence,flow.Sequence,4_18,2023-09-16T00:43:56.116Z,,0,,,5898.060999988113,completion,,,,,false,,,,756035,756034.6999999881,750119.973,750123.7999999523,750136.639,756037.549,8,400,,,
trial,html.Screen,4_19_0,2023-09-16T00:43:59.699Z,,0,1,,3580.050999964238,response,ISIC_0000553.JPG,8,ISIC_6768006.JPG,ISIC_0000553.JPG,false,1,keypress(m),500,759618.1999999881,759617.5999999642,756020.883,756035.2999999523,756037.549,759620.739,8,400,20,,ISIC_6768006.JPG
break,html.Screen,4_19_1,2023-09-16T00:43:59.700Z,,0,,,NaN,,,,,,false,,,,759619.5,759619.1999999881,,759618.3999999762,,759620.739,8,400,,,
break_continue,html.Screen,4_19_2,2023-09-16T00:43:59.700Z,,0,,,NaN,,,,,,false,,,,759620,759619.7999999523,,759619.6999999881,,759620.739,8,400,,,
sequence,flow.Sequence,4_19,2023-09-16T00:43:59.701Z,,0,,,3582.250999952317,completion,,,,,false,,,,759620.1999999881,759619.7999999523,756020.883,756035.1999999881,756037.549,759620.739,8,400,,,
trial,html.Screen,4_20_0,2023-09-16T00:44:03.336Z,,0,1,,3634.160999976215,response,ISIC_8615491.JPG,8,ISIC_0011193.JPG,ISIC_0011193.JPG,false,0,keypress(z),500,763255.3999999762,763254.8999999762,759604.073,759620.2999999523,759620.739,763271.65,8,400,21,,ISIC_8615491.JPG
break,html.Screen,4_20_1,2023-09-16T00:44:03.337Z,,0,,,NaN,,,,,,false,,,,763256.7999999523,763256.3999999762,,763255.6999999881,,763271.65,8,400,,,
break_continue,html.Screen,4_20_2,2023-09-16T00:44:03.338Z,,0,,,NaN,,,,,,false,,,,763257.0999999642,763257.0999999642,,763256.8999999762,,763271.65,8,400,,,
sequence,flow.Sequence,4_20,2023-09-16T00:44:03.338Z,,0,,,3636.360999964294,completion,,,,,false,,,,763257.2999999523,763257.0999999642,759604.073,759620.2999999523,759620.739,763271.65,8,400,,,
trial,html.Screen,4_21_0,2023-09-16T00:44:10.526Z,,0,1,,7173.449999964214,response,ISIC_0028024.JPG,6,ISIC_3981101.JPG,ISIC_0028024.JPG,false,1,keypress(m),500,770445.5999999642,770445.0999999642,763254.984,763257.5,763271.65,770454.696,8,400,22,,ISIC_3981101.JPG
break,html.Screen,4_21_1,2023-09-16T00:44:10.527Z,,0,,,NaN,,,,,,false,,,,770447,770446.6999999881,,770446,,770454.696,8,400,,,
break_continue,html.Screen,4_21_2,2023-09-16T00:44:10.527Z,,0,,,NaN,,,,,,false,,,,770447.3999999762,770447.2999999523,,770447.0999999642,,770454.696,8,400,,,
sequence,flow.Sequence,4_21,2023-09-16T00:44:10.528Z,,0,,,7175.649999952293,completion,,,,,false,,,,770447.6999999881,770447.2999999523,763254.984,763257.5,763271.65,770454.696,8,400,,,
trial,html.Screen,4_22_0,2023-09-16T00:44:13.734Z,,0,1,,3198.8040000000037,response,ISIC_8355446.JPG,7,ISIC_6155782.JPG,ISIC_8355446.JPG,false,1,keypress(m),500,773654,773653.5,770438.03,770447.7999999523,770454.696,773655.495,8,400,23,,ISIC_6155782.JPG
break,html.Screen,4_22_1,2023-09-16T00:44:13.735Z,,0,,,NaN,,,,,,false,,,,773655.1999999881,773655,,773654.1999999881,,773655.495,8,400,,,
break_continue,html.Screen,4_22_2,2023-09-16T00:44:13.735Z,,0,,,NaN,,,,,,false,,,,773655.5999999642,773655.5,,773655.3999999762,,773655.495,8,400,,,
sequence,flow.Sequence,4_22,2023-09-16T00:44:13.736Z,,0,,,3200.8040000000037,completion,,,,,false,,,,773655.8999999762,773655.5,770438.03,770447.7999999523,770454.696,773655.495,8,400,,,
trial,html.Screen,4_23_0,2023-09-16T00:44:16.861Z,,0,1,,3125.5050000000047,response,ISIC_4462476.JPG,7,ISIC_0063692.JPG,ISIC_0063692.JPG,false,0,keypress(z),500,776781.5,776781,773638.829,773656,773655.495,776788.703,8,400,24,,ISIC_4462476.JPG
break,html.Screen,4_23_1,2023-09-16T00:44:16.863Z,,0,,,NaN,,,,,,false,,,,776782.7999999523,776782.5999999642,,776781.7999999523,,776788.703,8,400,,,
break_continue,html.Screen,4_23_2,2023-09-16T00:44:16.863Z,,0,,,NaN,,,,,,false,,,,776783.2999999523,776783.1999999881,,776782.8999999762,,776788.703,8,400,,,
sequence,flow.Sequence,4_23,2023-09-16T00:44:16.863Z,,0,,,3127.7049999880837,completion,,,,,false,,,,776783.3999999762,776783.1999999881,773638.829,773655.8999999762,773655.495,776788.703,8,400,,,
trial,html.Screen,4_24_0,2023-09-16T00:44:20.469Z,,0,1,,3599.7970000000205,response,ISIC_3323866.JPG,7,ISIC_0014151.JPG,ISIC_0014151.JPG,false,0,keypress(z),500,780389,780388.5,776772.037,776783.6999999881,776788.703,780405.225,8,400,25,,ISIC_3323866.JPG
break,html.Screen,4_24_1,2023-09-16T00:44:20.470Z,,0,,,NaN,,,,,,false,,,,780390.2999999523,780390,,780389.2999999523,,780405.225,8,400,,,
break_continue,html.Screen,4_24_2,2023-09-16T00:44:20.470Z,,0,,,NaN,,,,,,false,,,,780390.6999999881,780390.6999999881,,780390.3999999762,,780405.225,8,400,,,
sequence,flow.Sequence,4_24,2023-09-16T00:44:20.470Z,,0,,,3601.9969999880996,completion,,,,,false,,,,780390.8999999762,780390.6999999881,776772.037,776783.5999999642,776788.703,780405.225,8,400,,,
trial,html.Screen,4_25_0,2023-09-16T00:44:24.187Z,,0,1,,3702.1749999761814,response,ISIC_0065394.JPG,8,ISIC_4436342.JPG,ISIC_4436342.JPG,false,0,keypress(z),500,784107.8999999762,784107.3999999762,780388.559,780391,780405.225,784122.558,8,400,26,,ISIC_0065394.JPG
break,html.Screen,4_25_1,2023-09-16T00:44:24.188Z,,0,,,NaN,,,,,,false,,,,784109.0999999642,784108.8999999762,,784108.1999999881,,784122.558,8,400,,,
break_continue,html.Screen,4_25_2,2023-09-16T00:44:24.189Z,,0,,,NaN,,,,,,false,,,,784109.6999999881,784109.5,,784109.3999999762,,784122.558,8,400,,,
sequence,flow.Sequence,4_25,2023-09-16T00:44:24.189Z,,0,,,3704.2750000000233,completion,,,,,false,,,,784109.8999999762,784109.5,780388.559,780391,780405.225,784122.558,8,400,,,
trial,html.Screen,4_26_0,2023-09-16T00:44:27.488Z,,0,1,,3286.2419999523554,response,ISIC_0011630.JPG,9,ISIC_3689759.JPG,ISIC_3689759.JPG,false,0,keypress(z),500,787409.1999999881,787408.7999999523,784105.892,784110,784122.558,787422.426,8,400,27,,ISIC_0011630.JPG
break,html.Screen,4_26_1,2023-09-16T00:44:27.490Z,,0,,,NaN,,,,,,false,,,,787410.3999999762,787410.1999999881,,787409.3999999762,,787422.426,8,400,,,
break_continue,html.Screen,4_26_2,2023-09-16T00:44:27.490Z,,0,,,NaN,,,,,,false,,,,787410.8999999762,787410.7999999523,,787410.5999999642,,787422.426,8,400,,,
sequence,flow.Sequence,4_26,2023-09-16T00:44:27.490Z,,0,,,3288.2419999523554,completion,,,,,false,,,,787411,787410.7999999523,784105.892,784109.8999999762,784122.558,787422.426,8,400,,,
trial,html.Screen,4_27_0,2023-09-16T00:44:31.208Z,,0,1,,3705.8739999523386,response,ISIC_5204408.JPG,8,ISIC_4269227.JPG,ISIC_5204408.JPG,false,1,keypress(m),500,791128.7999999523,791128.2999999523,787405.76,787411.0999999642,787422.426,791138.944,8,400,28,,ISIC_4269227.JPG
break,html.Screen,4_27_1,2023-09-16T00:44:31.209Z,,0,,,NaN,,,,,,false,,,,791130,791129.8999999762,,791129.0999999642,,791138.944,8,400,,,
break_continue,html.Screen,4_27_2,2023-09-16T00:44:31.210Z,,0,,,NaN,,,,,,false,,,,791130.5,791130.3999999762,,791130.2999999523,,791138.944,8,400,,,
sequence,flow.Sequence,4_27,2023-09-16T00:44:31.210Z,,0,,,3707.9739999761805,completion,,,,,false,,,,791130.6999999881,791130.3999999762,787405.76,787411.0999999642,787422.426,791138.944,8,400,,,
trial,html.Screen,4_28_0,2023-09-16T00:44:34.252Z,,0,1,,3034.0559999999823,response,ISIC_0000411.JPG,8,ISIC_3578186.JPG,ISIC_0000411.JPG,false,1,keypress(m),500,794173.2999999523,794173,791122.278,791130.8999999762,791138.944,794189.851,8,400,29,,ISIC_3578186.JPG
break,html.Screen,4_28_1,2023-09-16T00:44:34.253Z,,0,,,NaN,,,,,,false,,,,794174.5999999642,794174.3999999762,,794173.5999999642,,794189.851,8,400,,,
break_continue,html.Screen,4_28_2,2023-09-16T00:44:34.254Z,,0,,,NaN,,,,,,false,,,,794175.0999999642,794174.8999999762,,794174.6999999881,,794189.851,8,400,,,
sequence,flow.Sequence,4_28,2023-09-16T00:44:34.254Z,,0,,,3035.9559999761404,completion,,,,,false,,,,794175.1999999881,794174.8999999762,791122.278,791130.7999999523,791138.944,794189.851,8,400,,,
trial,html.Screen,4_29_0,2023-09-16T00:44:38.018Z,,0,1,,3749.248999964213,response,ISIC_1795529.JPG,4,ISIC_0070581.JPG,ISIC_0070581.JPG,false,0,keypress(z),500,797939.5,797939.0999999642,794173.185,794175.3999999762,794189.851,797956.367,8,400,30,,ISIC_1795529.JPG
break,html.Screen,4_29_1,2023-09-16T00:44:38.019Z,,0,,,NaN,,,,,,false,,,,797940.7999999523,797940.5999999642,,797939.7999999523,,797956.367,8,400,,,
break_continue,html.Screen,4_29_2,2023-09-16T00:44:38.020Z,,0,,,NaN,,,,,,false,,,,797941.2999999523,797941.0999999642,,797940.8999999762,,797956.367,8,400,,,
sequence,flow.Sequence,4_29,2023-09-16T00:44:38.020Z,,0,,,3751.248999964213,completion,,,,,false,,,,797941.5,797941.0999999642,794173.185,794175.2999999523,794189.851,797956.367,8,400,,,
trial,html.Screen,4_30_0,2023-09-16T00:44:41.273Z,,0,1,,3237.232999964268,response,ISIC_4292879.JPG,8,ISIC_0210998.JPG,ISIC_4292879.JPG,false,1,keypress(m),500,801194,801193.5999999642,797939.701,797941.5999999642,797956.367,801206.237,8,400,31,,ISIC_0210998.JPG
break,html.Screen,4_30_1,2023-09-16T00:44:41.274Z,,0,,,NaN,,,,,,false,,,,801195.3999999762,801195.1999999881,,801194.3999999762,,801206.237,8,400,,,
break_continue,html.Screen,4_30_2,2023-09-16T00:44:41.274Z,,0,,,NaN,,,,,,false,,,,801195.8999999762,801195.7999999523,,801195.5999999642,,801206.237,8,400,,,
sequence,flow.Sequence,4_30,2023-09-16T00:44:41.275Z,,0,,,3239.432999952347,completion,,,,,false,,,,801196.0999999642,801195.7999999523,797939.701,797941.5,797956.367,801206.237,8,400,,,
trial,html.Screen,4_31_0,2023-09-16T00:44:44.239Z,,0,1,,2954.3629999642726,response,ISIC_4374944.JPG,8,ISIC_3096949.JPG,ISIC_4374944.JPG,false,1,keypress(m),500,804161.0999999642,804160.5999999642,801189.571,801196.1999999881,801206.237,804173.676,8,400,32,,ISIC_3096949.JPG
break,html.Screen,4_31_1,2023-09-16T00:44:44.241Z,,0,,,NaN,,,,,,false,,,,804162.3999999762,804162.1999999881,,804161.3999999762,,804173.676,8,400,,,
break_continue,html.Screen,4_31_2,2023-09-16T00:44:44.241Z,,0,,,NaN,,,,,,false,,,,804162.8999999762,804162.7999999523,,804162.5999999642,,804173.676,8,400,,,
sequence,flow.Sequence,4_31,2023-09-16T00:44:44.241Z,,0,,,2956.5629999523517,completion,,,,,false,,,,804163,804162.7999999523,801189.571,801196.1999999881,801206.237,804173.676,8,400,,,
trial,html.Screen,4_32_0,2023-09-16T00:44:48.384Z,,0,1,,4132.023999988101,response,ISIC_6384927.JPG,6,ISIC_7776719.JPG,ISIC_6384927.JPG,false,1,keypress(m),500,808306.0999999642,808305.6999999881,804157.01,804163.1999999881,804173.676,808323.51,8,400,33,,ISIC_7776719.JPG
break,html.Screen,4_32_1,2023-09-16T00:44:48.385Z,,0,,,NaN,,,,,,false,,,,808307.1999999881,808307,,808306.2999999523,,808323.51,8,400,,,
break_continue,html.Screen,4_32_2,2023-09-16T00:44:48.386Z,,0,,,NaN,,,,,,false,,,,808307.5,808307.5,,808307.2999999523,,808323.51,8,400,,,
sequence,flow.Sequence,4_32,2023-09-16T00:44:48.386Z,,0,,,4133.824000000022,completion,,,,,false,,,,808307.6999999881,808307.5,804157.01,804163.1999999881,804173.676,808323.51,8,400,,,
trial,html.Screen,4_33_0,2023-09-16T00:44:51.584Z,,0,1,,3182.089999964228,response,ISIC_0026531.JPG,7,ISIC_9680433.JPG,ISIC_0026531.JPG,false,1,keypress(m),500,811506.1999999881,811505.5999999642,808306.844,808307.7999999523,808323.51,811523.382,8,400,34,,ISIC_9680433.JPG
break,html.Screen,4_33_1,2023-09-16T00:44:51.586Z,,0,,,NaN,,,,,,false,,,,811507.5,811507.1999999881,,811506.5,,811523.382,8,400,,,
break_continue,html.Screen,4_33_2,2023-09-16T00:44:51.586Z,,0,,,NaN,,,,,,false,,,,811507.8999999762,811507.7999999523,,811507.5999999642,,811523.382,8,400,,,
sequence,flow.Sequence,4_33,2023-09-16T00:44:51.586Z,,0,,,3184.289999952307,completion,,,,,false,,,,811508.0999999642,811507.7999999523,808306.844,808307.7999999523,808323.51,811523.382,8,400,,,
trial,html.Screen,4_34_0,2023-09-16T00:44:59.488Z,,0,1,,7886.317999988096,response,ISIC_5324987.JPG,7,ISIC_0029581.JPG,ISIC_5324987.JPG,false,1,keypress(m),500,819410.1999999881,819409.6999999881,811506.716,811508.1999999881,811523.382,819423.889,8,400,35,,ISIC_0029581.JPG
break,html.Screen,4_34_1,2023-09-16T00:44:59.489Z,,0,,,NaN,,,,,,false,,,,819411.5999999642,819411.3999999762,,819410.5,,819423.889,8,400,,,
break_continue,html.Screen,4_34_2,2023-09-16T00:44:59.490Z,,0,,,NaN,,,,,,false,,,,819412,819411.8999999762,,819411.7999999523,,819423.889,8,400,,,
sequence,flow.Sequence,4_34,2023-09-16T00:44:59.490Z,,0,,,7888.517999976175,completion,,,,,false,,,,819412.1999999881,819411.8999999762,811506.716,811508.1999999881,811523.382,819423.889,8,400,,,
trial,html.Screen,4_35_0,2023-09-16T00:45:03.671Z,,0,1,,4169.6110000000335,response,ISIC_0185547.JPG,8,ISIC_0072266.JPG,ISIC_0185547.JPG,false,1,keypress(m),500,823594,823593.5,819407.223,819412.3999999762,819423.889,823607.055,8,400,36,,ISIC_0072266.JPG
break,html.Screen,4_35_1,2023-09-16T00:45:03.673Z,,0,,,NaN,,,,,,false,,,,823595.3999999762,823595.0999999642,,823594.2999999523,,823607.055,8,400,,,
break_continue,html.Screen,4_35_2,2023-09-16T00:45:03.673Z,,0,,,NaN,,,,,,false,,,,823595.6999999881,823595.5999999642,,823595.5,,823607.055,8,400,,,
sequence,flow.Sequence,4_35,2023-09-16T00:45:03.673Z,,0,,,4171.710999964271,completion,,,,,false,,,,823595.7999999523,823595.5999999642,819407.223,819412.2999999523,819423.889,823607.055,8,400,,,
trial,html.Screen,4_36_0,2023-09-16T00:45:09.167Z,,0,1,,5482.044999964186,response,ISIC_4434803.JPG,8,ISIC_3613392.JPG,ISIC_3613392.JPG,false,0,keypress(z),500,829089.5,829089.0999999642,823590.389,823596,823607.055,829091.193,8,400,37,,ISIC_4434803.JPG
break,html.Screen,4_36_1,2023-09-16T00:45:09.168Z,,0,,,NaN,,,,,,false,,,,829090.7999999523,829090.5999999642,,829089.7999999523,,829091.193,8,400,,,
break_continue,html.Screen,4_36_2,2023-09-16T00:45:09.168Z,,0,,,NaN,,,,,,false,,,,829091.1999999881,829091.0999999642,,829090.8999999762,,829091.193,8,400,,,
sequence,flow.Sequence,4_36,2023-09-16T00:45:09.169Z,,0,,,5484.044999964186,completion,,,,,false,,,,829091.3999999762,829091.0999999642,823590.389,823595.8999999762,823607.055,829091.193,8,400,,,
trial,html.Screen,4_37_0,2023-09-16T00:45:12.582Z,,0,1,,3413.706999976188,response,ISIC_0029212.JPG,9,ISIC_8169564.JPG,ISIC_0029212.JPG,false,1,keypress(m),500,832505.3999999762,832504.8999999762,829074.527,829091.5999999642,829091.193,832507.723,8,400,38,,ISIC_8169564.JPG
break,html.Screen,4_37_1,2023-09-16T00:45:12.584Z,,0,,,NaN,,,,,,false,,,,832506.6999999881,832506.5,,832505.7999999523,,832507.723,8,400,,,
break_continue,html.Screen,4_37_2,2023-09-16T00:45:12.584Z,,0,,,NaN,,,,,,false,,,,832507.1999999881,832507,,832506.7999999523,,832507.723,8,400,,,
sequence,flow.Sequence,4_37,2023-09-16T00:45:12.584Z,,0,,,3415.80700000003,completion,,,,,false,,,,832507.3999999762,832507,829074.527,829091.5,829091.193,832507.723,8,400,,,
trial,html.Screen,4_38_0,2023-09-16T00:45:19.499Z,,0,1,,6914.17699997616,response,ISIC_0033638.JPG,8,ISIC_0013136.JPG,ISIC_0033638.JPG,false,1,keypress(m),500,839422.2999999523,839421.8999999762,832491.057,832507.5,832507.723,839424.944,8,400,39,,ISIC_0013136.JPG
break,html.Screen,4_38_1,2023-09-16T00:45:19.500Z,,0,,,NaN,,,,,,false,,,,839423.6999999881,839423.3999999762,,839422.5999999642,,839424.944,8,400,,,
break_continue,html.Screen,4_38_2,2023-09-16T00:45:19.501Z,,0,,,NaN,,,,,,false,,,,839424.2999999523,839424.0999999642,,839423.8999999762,,839424.944,8,400,,,
sequence,flow.Sequence,4_38,2023-09-16T00:45:19.501Z,,0,,,6916.376999964239,completion,,,,,false,,,,839424.3999999762,839424.0999999642,832491.057,832507.3999999762,832507.723,839424.944,8,400,,,
trial,html.Screen,4_39_0,2023-09-16T00:45:24.213Z,,0,1,,4711.355999952299,response,ISIC_7376906.JPG,8,ISIC_1264725.JPG,ISIC_7376906.JPG,false,1,keypress(m),500,844136.8999999762,844136.2999999523,839408.278,839424.5999999642,839424.944,844141.422,8,400,40,,ISIC_1264725.JPG
break,html.Screen,4_39_1,2023-09-16T00:45:24.215Z,,0,,,NaN,,,,,,false,,,,844138.0999999642,844137.8999999762,,844137.0999999642,,844141.422,8,400,,,
break_continue,html.Screen,4_39_2,2023-09-16T00:45:24.215Z,,0,,,NaN,,,,,,false,,,,844138.5999999642,844138.5,,844138.2999999523,,844141.422,8,400,,,
sequence,flow.Sequence,4_39,2023-09-16T00:45:24.215Z,,0,,,4713.555999999982,completion,,,,,false,,,,844138.6999999881,844138.5,839408.278,839424.5,839424.944,844141.422,8,400,,,
trial,html.Screen,4_40_0,2023-09-16T00:45:28.572Z,,0,1,,4354.0779999999795,response,ISIC_0029609.JPG,7,ISIC_0066150.JPG,ISIC_0029609.JPG,false,1,keypress(m),500,848495.8999999762,848495.5,844124.756,844139,844141.422,848507.914,8,400,41,,ISIC_0066150.JPG
break,html.Screen,4_40_1,2023-09-16T00:45:28.573Z,,0,,,NaN,,,,,,false,,,,848497.1999999881,848497,,848496.2999999523,,848507.914,8,400,,,
break_continue,html.Screen,4_40_2,2023-09-16T00:45:28.574Z,,0,,,NaN,,,,,,false,,,,848497.6999999881,848497.5999999642,,848497.2999999523,,848507.914,8,400,,,
sequence,flow.Sequence,4_40,2023-09-16T00:45:28.574Z,,0,,,4356.177999964217,completion,,,,,false,,,,848497.7999999523,848497.5999999642,844124.756,844138.8999999762,844141.422,848507.914,8,400,,,
trial,html.Screen,4_41_0,2023-09-16T00:45:33.764Z,,0,1,,5179.3859999523265,response,ISIC_0025128.JPG,7,ISIC_0026497.JPG,ISIC_0025128.JPG,false,1,keypress(m),500,853687.7999999523,853687.2999999523,848491.248,848497.8999999762,848507.914,853692.321,8,400,42,,ISIC_0026497.JPG
break,html.Screen,4_41_1,2023-09-16T00:45:33.765Z,,0,,,NaN,,,,,,false,,,,853689.1999999881,853689,,853688.0999999642,,853692.321,8,400,,,
break_continue,html.Screen,4_41_2,2023-09-16T00:45:33.766Z,,0,,,NaN,,,,,,false,,,,853689.6999999881,853689.5999999642,,853689.3999999762,,853692.321,8,400,,,
sequence,flow.Sequence,4_41,2023-09-16T00:45:33.766Z,,0,,,5181.6859999642475,completion,,,,,false,,,,853689.8999999762,853689.5999999642,848491.248,848497.8999999762,848507.914,853692.321,8,400,,,
trial,html.Screen,4_42_0,2023-09-16T00:45:37.245Z,,0,1,,3476.078999976162,response,ISIC_0025035.JPG,7,ISIC_0011498.JPG,ISIC_0011498.JPG,false,0,keypress(z),500,857169,857168.3999999762,853675.655,853690.0999999642,853692.321,857175.515,8,400,43,,ISIC_0025035.JPG
break,html.Screen,4_42_1,2023-09-16T00:45:37.246Z,,0,,,NaN,,,,,,false,,,,857170.5,857170,,857169.2999999523,,857175.515,8,400,,,
break_continue,html.Screen,4_42_2,2023-09-16T00:45:37.247Z,,0,,,NaN,,,,,,false,,,,857170.8999999762,857170.6999999881,,857170.5999999642,,857175.515,8,400,,,
sequence,flow.Sequence,4_42,2023-09-16T00:45:37.247Z,,0,,,3478.378999988083,completion,,,,,false,,,,857171.0999999642,857170.6999999881,853675.655,853690.0999999642,853692.321,857175.515,8,400,,,
trial,html.Screen,4_43_0,2023-09-16T00:45:40.658Z,,0,1,,3406.484999999986,response,ISIC_6709052.JPG,8,ISIC_4362713.JPG,ISIC_6709052.JPG,false,1,keypress(m),500,860582.5999999642,860582,857158.849,857171.2999999523,857175.515,860593.068,8,400,44,,ISIC_4362713.JPG
break,html.Screen,4_43_1,2023-09-16T00:45:40.660Z,,0,,,NaN,,,,,,false,,,,860584,860583.6999999881,,860582.8999999762,,860593.068,8,400,,,
break_continue,html.Screen,4_43_2,2023-09-16T00:45:40.660Z,,0,,,NaN,,,,,,false,,,,860584.5999999642,860584.3999999762,,860584.1999999881,,860593.068,8,400,,,
sequence,flow.Sequence,4_43,2023-09-16T00:45:40.660Z,,0,,,3408.884999976144,completion,,,,,false,,,,860584.7999999523,860584.3999999762,857158.849,857171.2999999523,857175.515,860593.068,8,400,,,
trial,html.Screen,4_44_0,2023-09-16T00:45:43.817Z,,0,1,,3148.43200000003,response,ISIC_1423737.JPG,9,ISIC_3573969.JPG,ISIC_1423737.JPG,false,1,keypress(m),500,863742,863741.5,860576.402,860584.8999999762,860593.068,863742.942,8,400,45,,ISIC_3573969.JPG
break,html.Screen,4_44_1,2023-09-16T00:45:43.819Z,,0,,,NaN,,,,,,false,,,,863743.2999999523,863742.8999999762,,863742.1999999881,,863742.942,8,400,,,
break_continue,html.Screen,4_44_2,2023-09-16T00:45:43.819Z,,0,,,NaN,,,,,,false,,,,863743.6999999881,863743.5999999642,,863743.3999999762,,863742.942,8,400,,,
sequence,flow.Sequence,4_44,2023-09-16T00:45:43.819Z,,0,,,3150.531999964267,completion,,,,,false,,,,863743.7999999523,863743.5999999642,860576.402,860584.7999999523,860593.068,863742.942,8,400,,,
trial,html.Screen,4_45_0,2023-09-16T00:45:48.081Z,,0,1,,4262.25799998804,response,ISIC_4105234.JPG,9,ISIC_0068610.JPG,ISIC_4105234.JPG,false,1,keypress(m),500,868005.7999999523,868005.1999999881,863726.276,863744,863742.942,868009.438,8,400,46,,ISIC_0068610.JPG
break,html.Screen,4_45_1,2023-09-16T00:45:48.082Z,,0,,,NaN,,,,,,false,,,,868007.0999999642,868006.7999999523,,868006.0999999642,,868009.438,8,400,,,
break_continue,html.Screen,4_45_2,2023-09-16T00:45:48.083Z,,0,,,NaN,,,,,,false,,,,868007.5,868007.3999999762,,868007.1999999881,,868009.438,8,400,,,
sequence,flow.Sequence,4_45,2023-09-16T00:45:48.083Z,,0,,,4264.457999976119,completion,,,,,false,,,,868007.6999999881,868007.3999999762,863726.276,863744,863742.942,868009.438,8,400,,,
trial,html.Screen,4_46_0,2023-09-16T00:45:51.944Z,,0,1,,3858.7619999881135,response,ISIC_9605122.JPG,6,ISIC_0026236.JPG,ISIC_0026236.JPG,false,0,keypress(z),500,871868.6999999881,871868.1999999881,867992.772,868007.7999999523,868009.438,871876.786,8,400,47,,ISIC_9605122.JPG
break,html.Screen,4_46_1,2023-09-16T00:45:51.945Z,,0,,,NaN,,,,,,false,,,,871870,871869.7999999523,,871869,,871876.786,8,400,,,
break_continue,html.Screen,4_46_2,2023-09-16T00:45:51.946Z,,0,,,NaN,,,,,,false,,,,871870.5,871870.3999999762,,871870.1999999881,,871876.786,8,400,,,
sequence,flow.Sequence,4_46,2023-09-16T00:45:51.946Z,,0,,,3860.9619999761926,completion,,,,,false,,,,871870.6999999881,871870.3999999762,867992.772,868007.7999999523,868009.438,871876.786,8,400,,,
trial,html.Screen,4_47_0,2023-09-16T00:45:54.847Z,,0,1,,2894.5139999523526,response,ISIC_9542544.JPG,5,ISIC_0033424.JPG,ISIC_0033424.JPG,false,0,keypress(z),500,874771.7999999523,874771.2999999523,871860.12,871870.7999999523,871876.786,874776.67,8,400,48,,ISIC_9542544.JPG
break,html.Screen,4_47_1,2023-09-16T00:45:54.848Z,,0,,,NaN,,,,,,false,,,,874773.1999999881,874772.7999999523,,874772,,874776.67,8,400,,,
break_continue,html.Screen,4_47_2,2023-09-16T00:45:54.849Z,,0,,,NaN,,,,,,false,,,,874773.6999999881,874773.5,,874773.2999999523,,874776.67,8,400,,,
sequence,flow.Sequence,4_47,2023-09-16T00:45:54.849Z,,0,,,2896.7140000000363,completion,,,,,false,,,,874773.8999999762,874773.5,871860.12,871870.7999999523,871876.786,874776.67,8,400,,,
trial,html.Screen,4_48_0,2023-09-16T00:45:59.659Z,,0,1,,4807.429999964195,response,ISIC_0010730.JPG,7,ISIC_5153848.JPG,ISIC_0010730.JPG,false,1,keypress(m),500,879584.5,879584.0999999642,874760.004,874774,874776.67,879593.144,8,400,49,,ISIC_5153848.JPG
break,html.Screen,4_48_1,2023-09-16T00:45:59.661Z,,0,,,NaN,,,,,,false,,,,879585.6999999881,879585.5,,879584.6999999881,,879593.144,8,400,,,
break_continue,html.Screen,4_48_2,2023-09-16T00:45:59.661Z,,0,,,NaN,,,,,,false,,,,879586.1999999881,879586.0999999642,,879585.8999999762,,879593.144,8,400,,,
sequence,flow.Sequence,4_48,2023-09-16T00:45:59.661Z,,0,,,4809.429999964195,completion,,,,,false,,,,879586.3999999762,879586.0999999642,874760.004,874774,874776.67,879593.144,8,400,,,
trial,html.Screen,4_49_0,2023-09-16T00:46:04.305Z,,0,1,,4636.955999964266,response,ISIC_0034034.JPG,7,ISIC_4468129.JPG,ISIC_4468129.JPG,false,0,keypress(z),500,884230.5,884230.0999999642,879576.478,879586.5,879593.144,884243.939,8,400,50,,ISIC_0034034.JPG
break,html.Screen,4_49_1,2023-09-16T00:46:14.306Z,,0,,,10000.488999999943,timeout,,,,,false,,,,894232.1999999881,894227.762,884227.273,884230.8999999762,884243.939,894244.428,8,400,,,
break_continue,html.Screen,4_49_2,2023-09-16T00:46:15.978Z,,0,,,1646.2719999881228,response,,,,,false,continue,keypress(Space),,895904,895890.6999999881,894227.762,894232.3999999762,894244.428,895911.028,8,400,,,
sequence,flow.Sequence,4_49,2023-09-16T00:46:15.978Z,,0,,,16297.555999988108,completion,,,,,false,,,,895904.1999999881,895890.6999999881,879576.478,879586.5,879593.144,895911.028,8,400,,,
trial,html.Screen,4_50_0,2023-09-16T00:46:21.311Z,,0,2,,5325.571999964188,response,ISIC_0952221.JPG,8,ISIC_0024624.JPG,ISIC_0024624.JPG,false,0,keypress(z),500,901237.0999999642,901236.5999999642,895894.362,895904.1999999881,895911.028,901245.038,8,400,1,,ISIC_0952221.JPG
break,html.Screen,4_50_1,2023-09-16T00:46:21.312Z,,0,,,NaN,,,,,,false,,,,901238.5,901238.1999999881,,901237.3999999762,,901245.038,8,400,,,
break_continue,html.Screen,4_50_2,2023-09-16T00:46:21.313Z,,0,,,NaN,,,,,,false,,,,901238.8999999762,901238.7999999523,,901238.5999999642,,901245.038,8,400,,,
sequence,flow.Sequence,4_50,2023-09-16T00:46:21.313Z,,0,,,5327.771999952267,completion,,,,,false,,,,901239.0999999642,901238.7999999523,895894.362,895904.1999999881,895911.028,901245.038,8,400,,,
trial,html.Screen,4_51_0,2023-09-16T00:46:24.475Z,,0,2,,3155.4620000000577,response,ISIC_0061293.JPG,8,ISIC_0032590.JPG,ISIC_0061293.JPG,false,1,keypress(m),500,904401,904400.5,901228.372,901239.2999999523,901245.038,904411.578,8,400,2,,ISIC_0032590.JPG
break,html.Screen,4_51_1,2023-09-16T00:46:24.476Z,,0,,,NaN,,,,,,false,,,,904402.2999999523,904402,,904401.2999999523,,904411.578,8,400,,,
break_continue,html.Screen,4_51_2,2023-09-16T00:46:24.476Z,,0,,,NaN,,,,,,false,,,,904402.8999999762,904402.5999999642,,904402.3999999762,,904411.578,8,400,,,
sequence,flow.Sequence,4_51,2023-09-16T00:46:24.477Z,,0,,,3157.561999964295,completion,,,,,false,,,,904402.8999999762,904402.5999999642,901228.372,901239.1999999881,901245.038,904411.578,8,400,,,
trial,html.Screen,4_52_0,2023-09-16T00:46:32.193Z,,0,2,,7708.221999952337,response,ISIC_0066033.JPG,7,ISIC_0030824.JPG,ISIC_0030824.JPG,false,0,keypress(z),500,912120.1999999881,912119.7999999523,904394.912,904403,904411.578,912128.857,8,400,3,,ISIC_0066033.JPG
break,html.Screen,4_52_1,2023-09-16T00:46:32.195Z,,0,,,NaN,,,,,,false,,,,912121.3999999762,912121.1999999881,,912120.5,,912128.857,8,400,,,
break_continue,html.Screen,4_52_2,2023-09-16T00:46:32.195Z,,0,,,NaN,,,,,,false,,,,912122,912121.6999999881,,912121.5999999642,,912128.857,8,400,,,
sequence,flow.Sequence,4_52,2023-09-16T00:46:32.195Z,,0,,,7710.1219999881,completion,,,,,false,,,,912122.0999999642,912121.6999999881,904394.912,904403,904411.578,912128.857,8,400,,,
trial,html.Screen,4_53_0,2023-09-16T00:46:38.899Z,,0,2,,6697.042999976198,response,ISIC_1805921.JPG,7,ISIC_0025195.JPG,ISIC_0025195.JPG,false,0,keypress(z),500,918826.3999999762,918825.8999999762,912112.191,912122.1999999881,912128.857,918828.589,8,400,4,,ISIC_1805921.JPG
break,html.Screen,4_53_1,2023-09-16T00:46:38.901Z,,0,,,NaN,,,,,,false,,,,918827.7999999523,918827.5,,918826.7999999523,,918828.589,8,400,,,
break_continue,html.Screen,4_53_2,2023-09-16T00:46:38.901Z,,0,,,NaN,,,,,,false,,,,918828.1999999881,918828.0999999642,,918828,,918828.589,8,400,,,
sequence,flow.Sequence,4_53,2023-09-16T00:46:38.901Z,,0,,,6699.242999964277,completion,,,,,false,,,,918828.5,918828.0999999642,912112.191,912122.1999999881,912128.857,918828.589,8,400,,,
trial,html.Screen,4_54_0,2023-09-16T00:46:42.259Z,,0,2,,3357.1109999880427,response,ISIC_9412963.JPG,9,ISIC_0056930.JPG,ISIC_9412963.JPG,false,1,keypress(m),500,922186,922185.6999999881,918811.923,918828.5999999642,918828.589,922195.941,8,400,5,,ISIC_0056930.JPG
break,html.Screen,4_54_1,2023-09-16T00:46:42.260Z,,0,,,NaN,,,,,,false,,,,922187.3999999762,922187.0999999642,,922186.3999999762,,922195.941,8,400,,,
break_continue,html.Screen,4_54_2,2023-09-16T00:46:42.261Z,,0,,,NaN,,,,,,false,,,,922187.8999999762,922187.7999999523,,922187.5999999642,,922195.941,8,400,,,
sequence,flow.Sequence,4_54,2023-09-16T00:46:42.261Z,,0,,,3359.21099995228,completion,,,,,false,,,,922188,922187.7999999523,918811.923,918828.5,918828.589,922195.941,8,400,,,
trial,html.Screen,4_55_0,2023-09-16T00:46:47.433Z,,0,2,,5163.658999964246,response,ISIC_2809019.JPG,8,ISIC_7491389.JPG,ISIC_7491389.JPG,false,0,keypress(z),500,927360,927359.5999999642,922179.275,922188.1999999881,922195.941,927379.067,8,400,6,,ISIC_2809019.JPG
break,html.Screen,4_55_1,2023-09-16T00:46:47.435Z,,0,,,NaN,,,,,,false,,,,927362.7999999523,927362.5999999642,,927362,,927379.067,8,400,,,
break_continue,html.Screen,4_55_2,2023-09-16T00:46:47.436Z,,0,,,NaN,,,,,,false,,,,927363.1999999881,927363.0999999642,,927362.8999999762,,927379.067,8,400,,,
sequence,flow.Sequence,4_55,2023-09-16T00:46:47.436Z,,0,,,5167.158999964246,completion,,,,,false,,,,927363.2999999523,927363.0999999642,922179.275,922188.0999999642,922195.941,927379.067,8,400,,,
trial,html.Screen,4_56_0,2023-09-16T00:46:54.593Z,,0,2,,7141.232999952277,response,ISIC_0000473.JPG,5,ISIC_0054954.JPG,ISIC_0054954.JPG,false,0,keypress(z),500,934520.6999999881,934520.2999999523,927362.401,927363.3999999762,927379.067,934529.536,8,400,7,,ISIC_0000473.JPG
break,html.Screen,4_56_1,2023-09-16T00:46:54.594Z,,0,,,NaN,,,,,,false,,,,934522.0999999642,934521.7999999523,,934521.0999999642,,934529.536,8,400,,,
break_continue,html.Screen,4_56_2,2023-09-16T00:46:54.595Z,,0,,,NaN,,,,,,false,,,,934522.5,934522.3999999762,,934522.1999999881,,934529.536,8,400,,,
sequence,flow.Sequence,4_56,2023-09-16T00:46:54.595Z,,0,,,7143.332999976119,completion,,,,,false,,,,934522.5999999642,934522.3999999762,927362.401,927363.2999999523,927379.067,934529.536,8,400,,,
trial,html.Screen,4_57_0,2023-09-16T00:46:58.290Z,,0,2,,3687.8639999761945,response,ISIC_2394780.JPG,5,ISIC_5021861.JPG,ISIC_2394780.JPG,false,1,keypress(m),500,938217.8999999762,938217.3999999762,934512.87,934522.7999999523,934529.536,938229.388,8,400,8,,ISIC_5021861.JPG
break,html.Screen,4_57_1,2023-09-16T00:46:58.291Z,,0,,,NaN,,,,,,false,,,,938219.1999999881,938219,,938218.1999999881,,938229.388,8,400,,,
break_continue,html.Screen,4_57_2,2023-09-16T00:46:58.292Z,,0,,,NaN,,,,,,false,,,,938219.6999999881,938219.5,,938219.3999999762,,938229.388,8,400,,,
sequence,flow.Sequence,4_57,2023-09-16T00:46:58.292Z,,0,,,3689.9640000000363,completion,,,,,false,,,,938219.7999999523,938219.5,934512.87,934522.7999999523,934529.536,938229.388,8,400,,,
trial,html.Screen,4_58_0,2023-09-16T00:47:04.642Z,,0,2,,6340.211999964202,response,ISIC_0056127.JPG,8,ISIC_9288923.JPG,ISIC_0056127.JPG,false,1,keypress(m),500,944570,944569.5999999642,938212.722,938219.7999999523,938229.388,944580.402,8,400,9,,ISIC_9288923.JPG
break,html.Screen,4_58_1,2023-09-16T00:47:04.643Z,,0,,,NaN,,,,,,false,,,,944571.2999999523,944571,,944570.1999999881,,944580.402,8,400,,,
break_continue,html.Screen,4_58_2,2023-09-16T00:47:04.643Z,,0,,,NaN,,,,,,false,,,,944571.6999999881,944571.5999999642,,944571.3999999762,,944580.402,8,400,,,
sequence,flow.Sequence,4_58,2023-09-16T00:47:04.644Z,,0,,,6342.211999964202,completion,,,,,false,,,,944571.7999999523,944571.5999999642,938212.722,938219.7999999523,938229.388,944580.402,8,400,,,
trial,html.Screen,4_59_0,2023-09-16T00:47:10.470Z,,0,2,,5817.697999964235,response,ISIC_9081663.JPG,7,ISIC_7596681.JPG,ISIC_9081663.JPG,false,1,keypress(m),500,950398.5999999642,950398.0999999642,944563.736,944572,944580.402,950413.502,8,400,10,,ISIC_7596681.JPG
break,html.Screen,4_59_1,2023-09-16T00:47:10.471Z,,0,,,NaN,,,,,,false,,,,950400,950399.6999999881,,950398.7999999523,,950413.502,8,400,,,
break_continue,html.Screen,4_59_2,2023-09-16T00:47:10.472Z,,0,,,NaN,,,,,,false,,,,950400.2999999523,950400.2999999523,,950400.0999999642,,950413.502,8,400,,,
sequence,flow.Sequence,4_59,2023-09-16T00:47:10.472Z,,0,,,5819.897999952314,completion,,,,,false,,,,950400.6999999881,950400.2999999523,944563.736,944572,944580.402,950413.502,8,400,,,
trial,html.Screen,4_60_0,2023-09-16T00:47:21.626Z,,0,2,,11140.797999952338,response,ISIC_6334958.JPG,6,ISIC_3289098.JPG,ISIC_6334958.JPG,false,1,keypress(m),500,961554.7999999523,961554.2999999523,950396.836,950400.6999999881,950413.502,961563.829,8,400,11,,ISIC_3289098.JPG
break,html.Screen,4_60_1,2023-09-16T00:47:21.627Z,,0,,,NaN,,,,,,false,,,,961556,961555.6999999881,,961555,,961563.829,8,400,,,
break_continue,html.Screen,4_60_2,2023-09-16T00:47:21.627Z,,0,,,NaN,,,,,,false,,,,961556.5,961556.2999999523,,961556.0999999642,,961563.829,8,400,,,
sequence,flow.Sequence,4_60,2023-09-16T00:47:21.628Z,,0,,,11142.797999952338,completion,,,,,false,,,,961556.6999999881,961556.2999999523,950396.836,950400.6999999881,950413.502,961563.829,8,400,,,
trial,html.Screen,4_61_0,2023-09-16T00:47:29.568Z,,0,2,,7933.370999988052,response,ISIC_1280780.JPG,8,ISIC_6125358.JPG,ISIC_6125358.JPG,false,0,keypress(z),500,969497.6999999881,969497.1999999881,961547.163,961556.7999999523,961563.829,969515.024,8,400,12,,ISIC_1280780.JPG
break,html.Screen,4_61_1,2023-09-16T00:47:29.570Z,,0,,,NaN,,,,,,false,,,,969499.0999999642,969498.8999999762,,969498,,969515.024,8,400,,,
break_continue,html.Screen,4_61_2,2023-09-16T00:47:29.570Z,,0,,,NaN,,,,,,false,,,,969499.3999999762,969499.3999999762,,969499.1999999881,,969515.024,8,400,,,
sequence,flow.Sequence,4_61,2023-09-16T00:47:29.570Z,,0,,,7935.570999976131,completion,,,,,false,,,,969499.5999999642,969499.3999999762,961547.163,961556.7999999523,961563.829,969515.024,8,400,,,
trial,html.Screen,4_62_0,2023-09-16T00:47:34.183Z,,0,2,,4597.175999988103,response,ISIC_0010011.JPG,7,ISIC_7984080.JPG,ISIC_7984080.JPG,false,0,keypress(z),500,974112.6999999881,974112.1999999881,969498.358,969499.6999999881,969515.024,974114.84,8,400,13,,ISIC_0010011.JPG
break,html.Screen,4_62_1,2023-09-16T00:47:34.184Z,,0,,,NaN,,,,,,false,,,,974114,974113.6999999881,,974112.8999999762,,974114.84,8,400,,,
break_continue,html.Screen,4_62_2,2023-09-16T00:47:34.185Z,,0,,,NaN,,,,,,false,,,,974114.5,974114.3999999762,,974114.1999999881,,974114.84,8,400,,,
sequence,flow.Sequence,4_62,2023-09-16T00:47:34.185Z,,0,,,4599.375999976182,completion,,,,,false,,,,974114.5999999642,974114.3999999762,969498.358,969499.6999999881,969515.024,974114.84,8,400,,,
trial,html.Screen,4_63_0,2023-09-16T00:47:37.511Z,,0,2,,3325.8599999881117,response,ISIC_0247197.JPG,6,ISIC_0059411.JPG,ISIC_0059411.JPG,false,0,keypress(z),500,977441.1999999881,977440.6999999881,974098.174,974114.7999999523,974114.84,977448.04,8,400,14,,ISIC_0247197.JPG
break,html.Screen,4_63_1,2023-09-16T00:47:37.513Z,,0,,,NaN,,,,,,false,,,,977442.5999999642,977442.2999999523,,977441.5999999642,,977448.04,8,400,,,
break_continue,html.Screen,4_63_2,2023-09-16T00:47:37.513Z,,0,,,NaN,,,,,,false,,,,977443,977442.8999999762,,977442.6999999881,,977448.04,8,400,,,
sequence,flow.Sequence,4_63,2023-09-16T00:47:37.513Z,,0,,,3328.0599999761907,completion,,,,,false,,,,977443.0999999642,977442.8999999762,974098.174,974114.7999999523,974114.84,977448.04,8,400,,,
trial,html.Screen,4_64_0,2023-09-16T00:47:41.559Z,,0,2,,4040.4599999999627,response,ISIC_0032684.JPG,8,ISIC_0007678.JPG,ISIC_0032684.JPG,false,1,keypress(m),500,981489,981488.5,977431.374,977443.2999999523,977448.04,981498.763,8,400,15,,ISIC_0007678.JPG
break,html.Screen,4_64_1,2023-09-16T00:47:41.560Z,,0,,,NaN,,,,,,false,,,,981490.2999999523,981490,,981489.1999999881,,981498.763,8,400,,,
break_continue,html.Screen,4_64_2,2023-09-16T00:47:41.561Z,,0,,,NaN,,,,,,false,,,,981490.7999999523,981490.6999999881,,981490.3999999762,,981498.763,8,400,,,
sequence,flow.Sequence,4_64,2023-09-16T00:47:41.561Z,,0,,,4042.659999988042,completion,,,,,false,,,,981490.8999999762,981490.6999999881,977431.374,977443.2999999523,977448.04,981498.763,8,400,,,
trial,html.Screen,4_65_0,2023-09-16T00:47:45.560Z,,0,2,,3990.6369999761228,response,ISIC_8979275.JPG,6,ISIC_3751090.JPG,ISIC_3751090.JPG,false,0,keypress(z),500,985489.8999999762,985489.3999999762,981482.097,981491,981498.763,985498.603,8,400,16,,ISIC_8979275.JPG
break,html.Screen,4_65_1,2023-09-16T00:47:45.561Z,,0,,,NaN,,,,,,false,,,,985491.1999999881,985491,,985490.0999999642,,985498.603,8,400,,,
break_continue,html.Screen,4_65_2,2023-09-16T00:47:45.561Z,,0,,,NaN,,,,,,false,,,,985491.5999999642,985491.5,,985491.2999999523,,985498.603,8,400,,,
sequence,flow.Sequence,4_65,2023-09-16T00:47:45.561Z,,0,,,3992.7369999999646,completion,,,,,false,,,,985491.7999999523,985491.5,981482.097,981491,981498.763,985498.603,8,400,,,
trial,html.Screen,4_66_0,2023-09-16T00:47:51.823Z,,0,2,,6254.1969999523135,response,ISIC_3520750.JPG,9,ISIC_7306131.JPG,ISIC_3520750.JPG,false,1,keypress(m),500,991753.1999999881,991752.7999999523,985481.937,985491.8999999762,985498.603,991766.106,8,400,17,,ISIC_7306131.JPG
break,html.Screen,4_66_1,2023-09-16T00:47:51.824Z,,0,,,NaN,,,,,,false,,,,991754.5999999642,991754.2999999523,,991753.5999999642,,991766.106,8,400,,,
break_continue,html.Screen,4_66_2,2023-09-16T00:47:51.824Z,,0,,,NaN,,,,,,false,,,,991755.0999999642,991754.8999999762,,991754.6999999881,,991766.106,8,400,,,
sequence,flow.Sequence,4_66,2023-09-16T00:47:51.825Z,,0,,,6256.296999976155,completion,,,,,false,,,,991755.1999999881,991754.8999999762,985481.937,985491.7999999523,985498.603,991766.106,8,400,,,
trial,html.Screen,4_67_0,2023-09-16T00:47:55.590Z,,0,2,,3754.09399998805,response,ISIC_8563961.JPG,7,ISIC_4924690.JPG,ISIC_4924690.JPG,false,0,keypress(z),500,995520.6999999881,995520.1999999881,991749.44,991755.3999999762,991766.106,995549.288,8,400,18,,ISIC_8563961.JPG
break,html.Screen,4_67_1,2023-09-16T00:47:55.591Z,,0,,,NaN,,,,,,false,,,,995521.8999999762,995521.7999999523,,995520.8999999762,,995549.288,8,400,,,
break_continue,html.Screen,4_67_2,2023-09-16T00:47:55.592Z,,0,,,NaN,,,,,,false,,,,995522.3999999762,995522.2999999523,,995522.0999999642,,995549.288,8,400,,,
sequence,flow.Sequence,4_67,2023-09-16T00:47:55.592Z,,0,,,3756.1939999522874,completion,,,,,false,,,,995522.5999999642,995522.2999999523,991749.44,991755.2999999523,991766.106,995549.288,8,400,,,
trial,html.Screen,4_68_0,2023-09-16T00:47:59.413Z,,0,2,,3794.111999976216,response,ISIC_0060705.JPG,7,ISIC_9470876.JPG,ISIC_0060705.JPG,false,1,keypress(m),500,999343.7999999523,999343.3999999762,995532.622,995522.7999999523,995549.288,999349.136,8,400,19,,ISIC_9470876.JPG
break,html.Screen,4_68_1,2023-09-16T00:47:59.414Z,,0,,,NaN,,,,,,false,,,,999345.1999999881,999344.8999999762,,999344.0999999642,,999349.136,8,400,,,
break_continue,html.Screen,4_68_2,2023-09-16T00:47:59.415Z,,0,,,NaN,,,,,,false,,,,999345.5999999642,999345.5,,999345.2999999523,,999349.136,8,400,,,
sequence,flow.Sequence,4_68,2023-09-16T00:47:59.415Z,,0,,,3796.2120000000577,completion,,,,,false,,,,999345.6999999881,999345.5,995532.622,995522.6999999881,995549.288,999349.136,8,400,,,
trial,html.Screen,4_69_0,2023-09-16T00:48:02.828Z,,0,2,,3409.5639999880223,response,ISIC_0062684.JPG,8,ISIC_5832901.JPG,ISIC_0062684.JPG,false,1,keypress(m),500,1002759.0999999642,1002758.6999999881,999332.47,999345.8999999762,999349.136,1002766.522,8,400,20,,ISIC_5832901.JPG
break,html.Screen,4_69_1,2023-09-16T00:48:02.829Z,,0,,,NaN,,,,,,false,,,,1002760.2999999523,1002760.0999999642,,1002759.2999999523,,1002766.522,8,400,,,
break_continue,html.Screen,4_69_2,2023-09-16T00:48:02.830Z,,0,,,NaN,,,,,,false,,,,1002760.7999999523,1002760.6999999881,,1002760.5,,1002766.522,8,400,,,
sequence,flow.Sequence,4_69,2023-09-16T00:48:02.830Z,,0,,,3411.5639999880223,completion,,,,,false,,,,1002761,1002760.6999999881,999332.47,999345.8999999762,999349.136,1002766.522,8,400,,,
trial,html.Screen,4_70_0,2023-09-16T00:48:06.800Z,,0,2,,3964.777999952319,response,ISIC_0011564.JPG,7,ISIC_1080647.JPG,ISIC_1080647.JPG,false,0,keypress(z),500,1006731.6999999881,1006731.2999999523,1002749.856,1002761.0999999642,1002766.522,1006733.03,8,400,21,,ISIC_0011564.JPG
break,html.Screen,4_70_1,2023-09-16T00:48:06.802Z,,0,,,NaN,,,,,,false,,,,1006733,1006732.6999999881,,1006732,,1006733.03,8,400,,,
break_continue,html.Screen,4_70_2,2023-09-16T00:48:06.802Z,,0,,,NaN,,,,,,false,,,,1006733.3999999762,1006733.2999999523,,1006733.0999999642,,1006733.03,8,400,,,
sequence,flow.Sequence,4_70,2023-09-16T00:48:06.802Z,,0,,,3966.777999952319,completion,,,,,false,,,,1006733.5999999642,1006733.2999999523,1002749.856,1002761.0999999642,1002766.522,1006733.03,8,400,,,
trial,html.Screen,4_71_0,2023-09-16T00:48:18.290Z,,0,2,,11516.863000000012,timeout,ISIC_0008864.JPG,8,ISIC_0027951.JPG,,false,,,500,1018221.3999999762,1018220.8999999762,1006716.364,1006733.6999999881,1006733.03,1018249.893,8,400,22,,
break,html.Screen,4_71_1,2023-09-16T00:48:18.291Z,,0,,,NaN,,,,,,false,,,,1018222.5999999642,1018222.2999999523,,1018221.5999999642,,1018249.893,8,400,,,
break_continue,html.Screen,4_71_2,2023-09-16T00:48:18.291Z,,0,,,NaN,,,,,,false,,,,1018222.8999999762,1018222.8999999762,,1018222.6999999881,,1018249.893,8,400,,,
sequence,flow.Sequence,4_71,2023-09-16T00:48:18.291Z,,0,,,11489.86999997613,completion,,,,,false,,,,1018223.0999999642,1018222.8999999762,1006716.364,1006733.5999999642,1006733.03,1018249.893,8,400,,,
trial,html.Screen,4_72_0,2023-09-16T00:48:24.252Z,,0,2,,5934.206999964197,response,ISIC_8887039.JPG,7,ISIC_0029157.JPG,ISIC_0029157.JPG,false,0,keypress(z),500,1024184.5,1024184.0999999642,1018233.227,1018223.2999999523,1018249.893,1024200.674,8,400,23,,ISIC_8887039.JPG
break,html.Screen,4_72_1,2023-09-16T00:48:24.254Z,,0,,,NaN,,,,,,false,,,,1024185.6999999881,1024185.5,,1024184.7999999523,,1024200.674,8,400,,,
break_continue,html.Screen,4_72_2,2023-09-16T00:48:24.254Z,,0,,,NaN,,,,,,false,,,,1024186.1999999881,1024186.0999999642,,1024185.8999999762,,1024200.674,8,400,,,
sequence,flow.Sequence,4_72,2023-09-16T00:48:24.254Z,,0,,,5936.206999964197,completion,,,,,false,,,,1024186.3999999762,1024186.0999999642,1018233.227,1018223.2999999523,1018249.893,1024200.674,8,400,,,
trial,html.Screen,4_73_0,2023-09-16T00:48:29.102Z,,0,2,,4832.826000000001,response,ISIC_2690597.JPG,8,ISIC_4538661.JPG,ISIC_4538661.JPG,false,0,keypress(z),500,1029033.8999999762,1029033.5,1024184.008,1024186.3999999762,1024200.674,1029050.48,8,400,24,,ISIC_2690597.JPG
break,html.Screen,4_73_1,2023-09-16T00:48:29.103Z,,0,,,NaN,,,,,,false,,,,1029035.1999999881,1029035,,1029034.1999999881,,1029050.48,8,400,,,
break_continue,html.Screen,4_73_2,2023-09-16T00:48:29.103Z,,0,,,NaN,,,,,,false,,,,1029035.5999999642,1029035.3999999762,,1029035.2999999523,,1029050.48,8,400,,,
sequence,flow.Sequence,4_73,2023-09-16T00:48:29.103Z,,0,,,4834.725999976159,completion,,,,,false,,,,1029035.6999999881,1029035.3999999762,1024184.008,1024186.3999999762,1024200.674,1029050.48,8,400,,,
trial,html.Screen,4_74_0,2023-09-16T00:48:32.285Z,,0,2,,3166.7199999880977,response,ISIC_0009955.JPG,8,ISIC_5313574.JPG,ISIC_0009955.JPG,false,1,keypress(m),500,1032217.6999999881,1032217.1999999881,1029033.814,1029035.7999999523,1029050.48,1032233.686,8,400,25,,ISIC_5313574.JPG
break,html.Screen,4_74_1,2023-09-16T00:48:32.287Z,,0,,,NaN,,,,,,false,,,,1032219,1032218.7999999523,,1032218,,1032233.686,8,400,,,
break_continue,html.Screen,4_74_2,2023-09-16T00:48:32.287Z,,0,,,NaN,,,,,,false,,,,1032219.3999999762,1032219.2999999523,,1032219.0999999642,,1032233.686,8,400,,,
sequence,flow.Sequence,4_74,2023-09-16T00:48:32.287Z,,0,,,3168.819999952335,completion,,,,,false,,,,1032219.5999999642,1032219.2999999523,1029033.814,1029035.6999999881,1029050.48,1032233.686,8,400,,,
trial,html.Screen,4_75_0,2023-09-16T00:48:35.508Z,,0,2,,3206.6139999523293,response,ISIC_0025061.JPG,7,ISIC_3799267.JPG,ISIC_3799267.JPG,false,0,keypress(z),500,1035440.7999999523,1035440.2999999523,1032217.02,1032219.6999999881,1032233.686,1035451.42,8,400,26,,ISIC_0025061.JPG
break,html.Screen,4_75_1,2023-09-16T00:48:35.509Z,,0,,,NaN,,,,,,false,,,,1035442.0999999642,1035441.7999999523,,1035441.0999999642,,1035451.42,8,400,,,
break_continue,html.Screen,4_75_2,2023-09-16T00:48:35.510Z,,0,,,NaN,,,,,,false,,,,1035442.5,1035442.3999999762,,1035442.2999999523,,1035451.42,8,400,,,
sequence,flow.Sequence,4_75,2023-09-16T00:48:35.510Z,,0,,,3208.713999976171,completion,,,,,false,,,,1035442.6999999881,1035442.3999999762,1032217.02,1032219.6999999881,1032233.686,1035451.42,8,400,,,
trial,html.Screen,4_76_0,2023-09-16T00:48:40.091Z,,0,2,,4571.579999999958,response,ISIC_0007416.JPG,8,ISIC_2038024.JPG,ISIC_2038024.JPG,false,0,keypress(z),500,1040023.5,1040023,1035434.754,1035442.6999999881,1035451.42,1040034.57,8,400,27,,ISIC_0007416.JPG
break,html.Screen,4_76_1,2023-09-16T00:48:40.092Z,,0,,,NaN,,,,,,false,,,,1040024.7999999523,1040024.5999999642,,1040023.7999999523,,1040034.57,8,400,,,
break_continue,html.Screen,4_76_2,2023-09-16T00:48:40.092Z,,0,,,NaN,,,,,,false,,,,1040025.1999999881,1040025.0999999642,,1040025,,1040034.57,8,400,,,
sequence,flow.Sequence,4_76,2023-09-16T00:48:40.093Z,,0,,,4573.679999964195,completion,,,,,false,,,,1040025.3999999762,1040025.0999999642,1035434.754,1035442.6999999881,1035451.42,1040034.57,8,400,,,
trial,html.Screen,4_77_0,2023-09-16T00:48:42.930Z,,0,2,,2828.2299999523675,response,ISIC_0029283.JPG,5,ISIC_3439215.JPG,ISIC_3439215.JPG,false,0,keypress(z),500,1042863.2999999523,1042862.7999999523,1040017.904,1040025.5999999642,1040034.57,1042867.79,8,400,28,,ISIC_0029283.JPG
break,html.Screen,4_77_1,2023-09-16T00:48:42.932Z,,0,,,NaN,,,,,,false,,,,1042864.5,1042864.1999999881,,1042863.5999999642,,1042867.79,8,400,,,
break_continue,html.Screen,4_77_2,2023-09-16T00:48:42.932Z,,0,,,NaN,,,,,,false,,,,1042864.8999999762,1042864.7999999523,,1042864.6999999881,,1042867.79,8,400,,,
sequence,flow.Sequence,4_77,2023-09-16T00:48:42.932Z,,0,,,2830.2299999523675,completion,,,,,false,,,,1042865.0999999642,1042864.7999999523,1040017.904,1040025.5999999642,1040034.57,1042867.79,8,400,,,
trial,html.Screen,4_78_0,2023-09-16T00:48:46.105Z,,0,2,,3169.7099999999627,response,ISIC_0029660.JPG,7,ISIC_0060629.JPG,ISIC_0060629.JPG,false,0,keypress(z),500,1046038,1046037.5,1042851.124,1042865.1999999881,1042867.79,1046051.854,8,400,29,,ISIC_0029660.JPG
break,html.Screen,4_78_1,2023-09-16T00:48:46.106Z,,0,,,NaN,,,,,,false,,,,1046039.0999999642,1046038.8999999762,,1046038.1999999881,,1046051.854,8,400,,,
break_continue,html.Screen,4_78_2,2023-09-16T00:48:46.106Z,,0,,,NaN,,,,,,false,,,,1046039.3999999762,1046039.2999999523,,1046039.1999999881,,1046051.854,8,400,,,
sequence,flow.Sequence,4_78,2023-09-16T00:48:46.106Z,,0,,,3171.509999952279,completion,,,,,false,,,,1046039.5999999642,1046039.2999999523,1042851.124,1042865.1999999881,1042867.79,1046051.854,8,400,,,
trial,html.Screen,4_79_0,2023-09-16T00:48:50.206Z,,0,2,,4086.845999988029,response,ISIC_0929483.JPG,7,ISIC_4871616.JPG,ISIC_4871616.JPG,false,0,keypress(z),500,1050139.2999999523,1050138.699999988,1046035.188,1046039.5999999642,1046051.854,1050151.69,8,400,30,,ISIC_0929483.JPG
break,html.Screen,4_79_1,2023-09-16T00:48:50.207Z,,0,,,NaN,,,,,,false,,,,1050140.5,1050140.199999988,,1050139.5,,1050151.69,8,400,,,
break_continue,html.Screen,4_79_2,2023-09-16T00:48:50.208Z,,0,,,NaN,,,,,,false,,,,1050141,1050140.7999999523,,1050140.5999999642,,1050151.69,8,400,,,
sequence,flow.Sequence,4_79,2023-09-16T00:48:50.208Z,,0,,,4088.945999952266,completion,,,,,false,,,,1050141.0999999642,1050140.7999999523,1046035.188,1046039.5999999642,1046051.854,1050151.69,8,400,,,
trial,html.Screen,4_80_0,2023-09-16T00:48:54.300Z,,0,2,,4081.509999988135,response,ISIC_7798403.JPG,5,ISIC_0071771.JPG,ISIC_0071771.JPG,false,0,keypress(z),500,1054233.699999988,1054233.199999988,1050135.024,1050141.2999999523,1050151.69,1054234.86,8,400,31,,ISIC_7798403.JPG
break,html.Screen,4_80_1,2023-09-16T00:48:54.301Z,,0,,,NaN,,,,,,false,,,,1054235.0999999642,1054234.7999999523,,1054234,,1054234.86,8,400,,,
break_continue,html.Screen,4_80_2,2023-09-16T00:48:54.302Z,,0,,,NaN,,,,,,false,,,,1054235.3999999762,1054235.3999999762,,1054235.199999988,,1054234.86,8,400,,,
sequence,flow.Sequence,4_80,2023-09-16T00:48:54.302Z,,0,,,4083.709999976214,completion,,,,,false,,,,1054235.5,1054235.3999999762,1050135.024,1050141.199999988,1050151.69,1054234.86,8,400,,,
trial,html.Screen,4_81_0,2023-09-16T00:49:03.404Z,,0,2,,9102.739999964135,response,ISIC_3475660.JPG,8,ISIC_0063516.JPG,ISIC_0063516.JPG,false,0,keypress(z),500,1063338,1063337.5999999642,1054218.194,1054235.699999988,1054234.86,1063352.123,8,400,32,,ISIC_3475660.JPG
break,html.Screen,4_81_1,2023-09-16T00:49:03.405Z,,0,,,NaN,,,,,,false,,,,1063339.2999999523,1063339,,1063338.2999999523,,1063352.123,8,400,,,
break_continue,html.Screen,4_81_2,2023-09-16T00:49:03.406Z,,0,,,NaN,,,,,,false,,,,1063339.699999988,1063339.5,,1063339.3999999762,,1063352.123,8,400,,,
sequence,flow.Sequence,4_81,2023-09-16T00:49:03.406Z,,0,,,9104.639999999898,completion,,,,,false,,,,1063339.8999999762,1063339.5,1054218.194,1054235.699999988,1054234.86,1063352.123,8,400,,,
trial,html.Screen,4_82_0,2023-09-16T00:49:11.475Z,,0,2,,8057.276999976253,response,ISIC_0060893.JPG,8,ISIC_0057881.JPG,ISIC_0060893.JPG,false,1,keypress(m),500,1071409.7999999523,1071409.3999999762,1063335.457,1063340,1063352.123,1071419.413,8,400,33,,ISIC_0057881.JPG
break,html.Screen,4_82_1,2023-09-16T00:49:11.477Z,,0,,,NaN,,,,,,false,,,,1071411.0999999642,1071410.8999999762,,1071410.0999999642,,1071419.413,8,400,,,
break_continue,html.Screen,4_82_2,2023-09-16T00:49:11.477Z,,0,,,NaN,,,,,,false,,,,1071411.5999999642,1071411.3999999762,,1071411.199999988,,1071419.413,8,400,,,
sequence,flow.Sequence,4_82,2023-09-16T00:49:11.477Z,,0,,,8059.276999976253,completion,,,,,false,,,,1071411.699999988,1071411.3999999762,1063335.457,1063340,1063352.123,1071419.413,8,400,,,
trial,html.Screen,4_83_0,2023-09-16T00:49:14.600Z,,0,2,,3114.886999952374,response,ISIC_0000174.JPG,10,ISIC_8872225.JPG,ISIC_0000174.JPG,false,1,keypress(m),500,1074534.699999988,1074534.2999999523,1071402.747,1071411.8999999762,1071419.413,1074535.955,8,400,34,,ISIC_8872225.JPG
break,html.Screen,4_83_1,2023-09-16T00:49:14.601Z,,0,,,NaN,,,,,,false,,,,1074536,1074535.7999999523,,1074535,,1074535.955,8,400,,,
break_continue,html.Screen,4_83_2,2023-09-16T00:49:14.602Z,,0,,,NaN,,,,,,false,,,,1074536.3999999762,1074536.2999999523,,1074536.0999999642,,1074535.955,8,400,,,
sequence,flow.Sequence,4_83,2023-09-16T00:49:14.602Z,,0,,,3116.886999952374,completion,,,,,false,,,,1074536.5999999642,1074536.2999999523,1071402.747,1071411.8999999762,1071419.413,1074535.955,8,400,,,
trial,html.Screen,4_84_0,2023-09-16T00:49:17.680Z,,0,2,,3078.2449999880046,response,ISIC_5307086.JPG,8,ISIC_9331097.JPG,ISIC_5307086.JPG,false,1,keypress(m),500,1077614.7999999523,1077614.199999988,1074519.289,1074536.7999999523,1074535.955,1077620.023,8,400,35,,ISIC_9331097.JPG
break,html.Screen,4_84_1,2023-09-16T00:49:17.681Z,,0,,,NaN,,,,,,false,,,,1077616.0999999642,1077615.7999999523,,1077615,,1077620.023,8,400,,,
break_continue,html.Screen,4_84_2,2023-09-16T00:49:17.682Z,,0,,,NaN,,,,,,false,,,,1077616.5999999642,1077616.3999999762,,1077616.199999988,,1077620.023,8,400,,,
sequence,flow.Sequence,4_84,2023-09-16T00:49:17.682Z,,0,,,3080.4449999760836,completion,,,,,false,,,,1077616.699999988,1077616.3999999762,1074519.289,1074536.699999988,1074535.955,1077620.023,8,400,,,
trial,html.Screen,4_85_0,2023-09-16T00:49:21.077Z,,0,2,,3390.9769999999553,response,ISIC_1870309.JPG,7,ISIC_3679789.JPG,ISIC_3679789.JPG,false,0,keypress(z),500,1081011.5,1081011,1077603.357,1077616.8999999762,1077620.023,1081019.887,8,400,36,,ISIC_1870309.JPG
break,html.Screen,4_85_1,2023-09-16T00:49:21.078Z,,0,,,NaN,,,,,,false,,,,1081012.7999999523,1081012.5,,1081011.7999999523,,1081019.887,8,400,,,
break_continue,html.Screen,4_85_2,2023-09-16T00:49:21.078Z,,0,,,NaN,,,,,,false,,,,1081013.199999988,1081013.0999999642,,1081013,,1081019.887,8,400,,,
sequence,flow.Sequence,4_85,2023-09-16T00:49:21.079Z,,0,,,3393.0769999641925,completion,,,,,false,,,,1081013.3999999762,1081013.0999999642,1077603.357,1077616.7999999523,1077620.023,1081019.887,8,400,,,
trial,html.Screen,4_86_0,2023-09-16T00:49:24.594Z,,0,2,,3508.8129999879748,response,ISIC_5422940.JPG,8,ISIC_4481362.JPG,ISIC_5422940.JPG,false,1,keypress(m),500,1084529,1084528.699999988,1081003.221,1081013.5,1081019.887,1084553.079,8,400,37,,ISIC_4481362.JPG
break,html.Screen,4_86_1,2023-09-16T00:49:24.595Z,,0,,,NaN,,,,,,false,,,,1084530.3999999762,1084530.199999988,,1084529.2999999523,,1084553.079,8,400,,,
break_continue,html.Screen,4_86_2,2023-09-16T00:49:24.596Z,,0,,,NaN,,,,,,false,,,,1084530.8999999762,1084530.699999988,,1084530.5,,1084553.079,8,400,,,
sequence,flow.Sequence,4_86,2023-09-16T00:49:24.596Z,,0,,,3510.8129999879748,completion,,,,,false,,,,1084531,1084530.699999988,1081003.221,1081013.5,1081019.887,1084553.079,8,400,,,
trial,html.Screen,4_87_0,2023-09-16T00:49:30.183Z,,0,2,,5564.720999952406,response,ISIC_0031377.JPG,9,ISIC_7164403.JPG,ISIC_7164403.JPG,false,0,keypress(z),500,1090118.2999999523,1090117.7999999523,1084536.413,1084531.199999988,1084553.079,1090120.458,8,400,38,,ISIC_0031377.JPG
break,html.Screen,4_87_1,2023-09-16T00:49:30.184Z,,0,,,NaN,,,,,,false,,,,1090119.5999999642,1090119.2999999523,,1090118.5999999642,,1090120.458,8,400,,,
break_continue,html.Screen,4_87_2,2023-09-16T00:49:30.185Z,,0,,,NaN,,,,,,false,,,,1090120.0999999642,1090120,,1090119.7999999523,,1090120.458,8,400,,,
sequence,flow.Sequence,4_87,2023-09-16T00:49:30.185Z,,0,,,5566.921000000089,completion,,,,,false,,,,1090120.199999988,1090120,1084536.413,1084531.0999999642,1084553.079,1090120.458,8,400,,,
trial,html.Screen,4_88_0,2023-09-16T00:49:34.683Z,,0,2,,4498.041999999899,response,ISIC_7518524.JPG,7,ISIC_0025571.JPG,ISIC_0025571.JPG,false,0,keypress(z),500,1094619,1094618.5,1090103.792,1090120.3999999762,1090120.458,1094620.278,8,400,39,,ISIC_7518524.JPG
break,html.Screen,4_88_1,2023-09-16T00:49:34.685Z,,0,,,NaN,,,,,,false,,,,1094620.2999999523,1094620,,1094619.2999999523,,1094620.278,8,400,,,
break_continue,html.Screen,4_88_2,2023-09-16T00:49:34.685Z,,0,,,NaN,,,,,,false,,,,1094620.699999988,1094620.5999999642,,1094620.5,,1094620.278,8,400,,,
sequence,flow.Sequence,4_88,2023-09-16T00:49:34.685Z,,0,,,4500.141999964137,completion,,,,,false,,,,1094620.8999999762,1094620.5999999642,1090103.792,1090120.3999999762,1090120.458,1094620.278,8,400,,,
trial,html.Screen,4_89_0,2023-09-16T00:49:42.569Z,,0,2,,7884.321999964304,response,ISIC_1979534.JPG,9,ISIC_0014469.JPG,ISIC_1979534.JPG,false,1,keypress(m),500,1102505.0999999642,1102504.5999999642,1094603.612,1094621,1094620.278,1102520.812,8,400,40,,ISIC_0014469.JPG
break,html.Screen,4_89_1,2023-09-16T00:49:42.571Z,,0,,,NaN,,,,,,false,,,,1102506.3999999762,1102506.0999999642,,1102505.3999999762,,1102520.812,8,400,,,
break_continue,html.Screen,4_89_2,2023-09-16T00:49:42.571Z,,0,,,NaN,,,,,,false,,,,1102506.7999999523,1102506.699999988,,1102506.5,,1102520.812,8,400,,,
sequence,flow.Sequence,4_89,2023-09-16T00:49:42.571Z,,0,,,7886.421999988146,completion,,,,,false,,,,1102507,1102506.699999988,1094603.612,1094620.8999999762,1094620.278,1102520.812,8,400,,,
trial,html.Screen,4_90_0,2023-09-16T00:49:49.328Z,,0,2,,6742.887999988161,response,ISIC_7043369.JPG,8,ISIC_5157799.JPG,ISIC_7043369.JPG,false,1,keypress(m),500,1109264.199999988,1109263.699999988,1102504.146,1102507.199999988,1102520.812,1109271.423,8,400,41,,ISIC_5157799.JPG
break,html.Screen,4_90_1,2023-09-16T00:49:49.329Z,,0,,,NaN,,,,,,false,,,,1109265.5999999642,1109265.2999999523,,1109264.5,,1109271.423,8,400,,,
break_continue,html.Screen,4_90_2,2023-09-16T00:49:49.330Z,,0,,,NaN,,,,,,false,,,,1109266.0999999642,1109265.8999999762,,1109265.7999999523,,1109271.423,8,400,,,
sequence,flow.Sequence,4_90,2023-09-16T00:49:49.330Z,,0,,,6745.08799997624,completion,,,,,false,,,,1109266.2999999523,1109265.8999999762,1102504.146,1102507.0999999642,1102520.812,1109271.423,8,400,,,
trial,html.Screen,4_91_0,2023-09-16T00:49:56.978Z,,0,2,,7642.7769999881275,response,ISIC_0007501.JPG,9,ISIC_1922084.JPG,ISIC_1922084.JPG,false,0,keypress(z),500,1116914.699999988,1116914.199999988,1109254.757,1109266.3999999762,1109271.423,1116921.117,8,400,42,,ISIC_0007501.JPG
break,html.Screen,4_91_1,2023-09-16T00:49:56.979Z,,0,,,NaN,,,,,,false,,,,1116916.0999999642,1116915.7999999523,,1116915.0999999642,,1116921.117,8,400,,,
break_continue,html.Screen,4_91_2,2023-09-16T00:49:56.980Z,,0,,,NaN,,,,,,false,,,,1116916.3999999762,1116916.2999999523,,1116916.199999988,,1116921.117,8,400,,,
sequence,flow.Sequence,4_91,2023-09-16T00:49:56.980Z,,0,,,7644.876999952365,completion,,,,,false,,,,1116916.5999999642,1116916.2999999523,1109254.757,1109266.2999999523,1109271.423,1116921.117,8,400,,,
trial,html.Screen,4_92_0,2023-09-16T00:50:01.082Z,,0,2,,4096.9829999641515,response,ISIC_5611010.JPG,8,ISIC_0058730.JPG,ISIC_0058730.JPG,false,0,keypress(z),500,1121018.5,1121018.0999999642,1116904.451,1116916.7999999523,1116921.117,1121022.232,8,400,43,,ISIC_5611010.JPG
break,html.Screen,4_92_1,2023-09-16T00:50:01.083Z,,0,,,NaN,,,,,,false,,,,1121019.8999999762,1121019.699999988,,1121018.699999988,,1121022.232,8,400,,,
break_continue,html.Screen,4_92_2,2023-09-16T00:50:01.084Z,,0,,,NaN,,,,,,false,,,,1121020.2999999523,1121020.199999988,,1121020,,1121022.232,8,400,,,
sequence,flow.Sequence,4_92,2023-09-16T00:50:01.084Z,,0,,,4099.082999987993,completion,,,,,false,,,,1121020.5,1121020.199999988,1116904.451,1116916.7999999523,1116921.117,1121022.232,8,400,,,
trial,html.Screen,4_93_0,2023-09-16T00:50:10.225Z,,0,2,,9139.467999988003,response,ISIC_5839679.JPG,7,ISIC_0011695.JPG,ISIC_0011695.JPG,false,0,keypress(z),500,1130162.199999988,1130161.699999988,1121005.566,1121020.699999988,1121022.232,1130172.581,8,400,44,,ISIC_5839679.JPG
break,html.Screen,4_93_1,2023-09-16T00:50:10.226Z,,0,,,NaN,,,,,,false,,,,1130163.5999999642,1130163.2999999523,,1130162.5,,1130172.581,8,400,,,
break_continue,html.Screen,4_93_2,2023-09-16T00:50:10.227Z,,0,,,NaN,,,,,,false,,,,1130164,1130163.8999999762,,1130163.699999988,,1130172.581,8,400,,,
sequence,flow.Sequence,4_93,2023-09-16T00:50:10.227Z,,0,,,9141.667999976082,completion,,,,,false,,,,1130164.2999999523,1130163.8999999762,1121005.566,1121020.5999999642,1121022.232,1130172.581,8,400,,,
trial,html.Screen,4_94_0,2023-09-16T00:50:18.006Z,,0,2,,7770.518999964232,response,ISIC_0067159.JPG,8,ISIC_0068107.JPG,ISIC_0068107.JPG,false,0,keypress(z),500,1137943.5999999642,1137943.0999999642,1130155.915,1130164.3999999762,1130172.581,1137955.603,8,400,45,,ISIC_0067159.JPG
break,html.Screen,4_94_1,2023-09-16T00:50:18.007Z,,0,,,NaN,,,,,,false,,,,1137945,1137944.7999999523,,1137943.7999999523,,1137955.603,8,400,,,
break_continue,html.Screen,4_94_2,2023-09-16T00:50:18.008Z,,0,,,NaN,,,,,,false,,,,1137945.5,1137945.2999999523,,1137945.199999988,,1137955.603,8,400,,,
sequence,flow.Sequence,4_94,2023-09-16T00:50:18.008Z,,0,,,7772.718999952311,completion,,,,,false,,,,1137945.699999988,1137945.2999999523,1130155.915,1130164.3999999762,1130172.581,1137955.603,8,400,,,
trial,html.Screen,4_95_0,2023-09-16T00:50:23.993Z,,0,2,,5974.496999964351,response,ISIC_0375034.JPG,8,ISIC_0028415.JPG,ISIC_0028415.JPG,false,0,keypress(z),500,1143930.5999999642,1143930.0999999642,1137938.937,1137945.7999999523,1137955.603,1143939.86,8,400,46,,ISIC_0375034.JPG
break,html.Screen,4_95_1,2023-09-16T00:50:23.994Z,,0,,,NaN,,,,,,false,,,,1143931.8999999762,1143931.699999988,,1143930.8999999762,,1143939.86,8,400,,,
break_continue,html.Screen,4_95_2,2023-09-16T00:50:23.995Z,,0,,,NaN,,,,,,false,,,,1143932.3999999762,1143932.199999988,,1143932.0999999642,,1143939.86,8,400,,,
sequence,flow.Sequence,4_95,2023-09-16T00:50:23.995Z,,0,,,5976.596999988193,completion,,,,,false,,,,1143932.5999999642,1143932.199999988,1137938.937,1137945.7999999523,1137955.603,1143939.86,8,400,,,
trial,html.Screen,4_96_0,2023-09-16T00:50:27.376Z,,0,2,,3373.3399999879766,response,ISIC_0010850.JPG,7,ISIC_6721869.JPG,ISIC_6721869.JPG,false,0,keypress(z),500,1147313.5999999642,1147313.199999988,1143923.194,1143932.699999988,1143939.86,1147323.058,8,400,47,,ISIC_0010850.JPG
break,html.Screen,4_96_1,2023-09-16T00:50:27.377Z,,0,,,NaN,,,,,,false,,,,1147314.699999988,1147314.5,,1147313.7999999523,,1147323.058,8,400,,,
break_continue,html.Screen,4_96_2,2023-09-16T00:50:27.377Z,,0,,,NaN,,,,,,false,,,,1147315,1147315,,1147314.8999999762,,1147323.058,8,400,,,
sequence,flow.Sequence,4_96,2023-09-16T00:50:27.377Z,,0,,,3375.1399999998976,completion,,,,,false,,,,1147315.0999999642,1147315,1143923.194,1143932.699999988,1143939.86,1147323.058,8,400,,,
trial,html.Screen,4_97_0,2023-09-16T00:50:32.259Z,,0,2,,4874.141999988118,response,ISIC_0057531.JPG,7,ISIC_0024236.JPG,ISIC_0057531.JPG,false,1,keypress(m),500,1152197.699999988,1152197.199999988,1147306.392,1147315.2999999523,1147323.058,1152207.274,8,400,48,,ISIC_0024236.JPG
break,html.Screen,4_97_1,2023-09-16T00:50:32.261Z,,0,,,NaN,,,,,,false,,,,1152199,1152198.7999999523,,1152198,,1152207.274,8,400,,,
break_continue,html.Screen,4_97_2,2023-09-16T00:50:32.261Z,,0,,,NaN,,,,,,false,,,,1152199.5,1152199.2999999523,,1152199.0999999642,,1152207.274,8,400,,,
sequence,flow.Sequence,4_97,2023-09-16T00:50:32.261Z,,0,,,4876.241999952355,completion,,,,,false,,,,1152199.5999999642,1152199.2999999523,1147306.392,1147315.2999999523,1147323.058,1152207.274,8,400,,,
trial,html.Screen,4_98_0,2023-09-16T00:50:36.239Z,,0,2,,3969.4259999881033,response,ISIC_4764568.JPG,8,ISIC_3260571.JPG,ISIC_4764568.JPG,false,1,keypress(m),500,1156177.0999999642,1156176.699999988,1152190.608,1152199.7999999523,1152207.274,1156190.448,8,400,49,,ISIC_3260571.JPG
break,html.Screen,4_98_1,2023-09-16T00:50:36.240Z,,0,,,NaN,,,,,,false,,,,1156178.2999999523,1156178,,1156177.3999999762,,1156190.448,8,400,,,
break_continue,html.Screen,4_98_2,2023-09-16T00:50:36.240Z,,0,,,NaN,,,,,,false,,,,1156178.7999999523,1156178.5999999642,,1156178.3999999762,,1156190.448,8,400,,,
sequence,flow.Sequence,4_98,2023-09-16T00:50:36.240Z,,0,,,3971.3259999642614,completion,,,,,false,,,,1156178.8999999762,1156178.5999999642,1152190.608,1152199.699999988,1152207.274,1156190.448,8,400,,,
trial,html.Screen,4_99_0,2023-09-16T00:50:40.117Z,,0,2,,3864.851999952225,response,ISIC_0054329.JPG,9,ISIC_1670165.JPG,ISIC_0054329.JPG,false,1,keypress(m),500,1160055.5,1160055.2999999523,1156173.782,1156179,1156190.448,1160056.96,8,400,50,,ISIC_1670165.JPG
break,html.Screen,4_99_1,2023-09-16T00:50:50.105Z,,0,,,10000.492000000086,timeout,,,,,false,,,,1170044.0999999642,1170040.786,1160040.294,1160055.5999999642,1160056.96,1170057.452,8,400,,,
break_continue,html.Screen,4_99_2,2023-09-16T00:50:52.131Z,,0,,,1995.3479999522679,response,,,,,false,continue,keypress(Space),,1172069.8999999762,1172052.7999999523,1170040.786,1170044.2999999523,1170057.452,1172074.038,8,400,,,
sequence,flow.Sequence,4_99,2023-09-16T00:50:52.131Z,,0,,,15862.351999952225,completion,,,,,false,,,,1172070.0999999642,1172052.7999999523,1156173.782,1156178.8999999762,1156190.448,1172074.038,8,400,,,
trial,html.Screen,4_100_0,2023-09-16T00:50:57.608Z,,0,3,,5473.261999952374,response,ISIC_0031096.JPG,7,ISIC_0065480.JPG,ISIC_0065480.JPG,false,0,keypress(z),500,1177547.8999999762,1177547.2999999523,1172057.372,1172070.0999999642,1172074.038,1177557.892,8,400,1,,ISIC_0031096.JPG
break,html.Screen,4_100_1,2023-09-16T00:50:57.610Z,,0,,,NaN,,,,,,false,,,,1177549.3999999762,1177549,,1177548.199999988,,1177557.892,8,400,,,
break_continue,html.Screen,4_100_2,2023-09-16T00:50:57.610Z,,0,,,NaN,,,,,,false,,,,1177549.7999999523,1177549.699999988,,1177549.5,,1177557.892,8,400,,,
sequence,flow.Sequence,4_100,2023-09-16T00:50:57.610Z,,0,,,5475.661999988137,completion,,,,,false,,,,1177550,1177549.699999988,1172057.372,1172070.0999999642,1172074.038,1177557.892,8,400,,,
trial,html.Screen,4_101_0,2023-09-16T00:51:01.742Z,,0,3,,4122.8079999880865,response,ISIC_2809019.JPG,7,ISIC_6793830.JPG,ISIC_2809019.JPG,false,1,keypress(m),500,1181681.199999988,1181680.699999988,1177541.226,1177550.0999999642,1177557.892,1181691.06,8,400,2,,ISIC_6793830.JPG
break,html.Screen,4_101_1,2023-09-16T00:51:01.743Z,,0,,,NaN,,,,,,false,,,,1181682.5999999642,1181682.2999999523,,1181681.5,,1181691.06,8,400,,,
break_continue,html.Screen,4_101_2,2023-09-16T00:51:01.743Z,,0,,,NaN,,,,,,false,,,,1181683,1181682.8999999762,,1181682.699999988,,1181691.06,8,400,,,
sequence,flow.Sequence,4_101,2023-09-16T00:51:01.743Z,,0,,,4125.007999976166,completion,,,,,false,,,,1181683.0999999642,1181682.8999999762,1177541.226,1177550.0999999642,1177557.892,1181691.06,8,400,,,
trial,html.Screen,4_102_0,2023-09-16T00:51:05.662Z,,0,3,,3910.639999988023,response,ISIC_0638857.JPG,5,ISIC_0602494.JPG,ISIC_0602494.JPG,false,0,keypress(z),500,1185602.199999988,1185601.699999988,1181674.394,1181683.2999999523,1181691.06,1185608.692,8,400,3,,ISIC_0638857.JPG
break,html.Screen,4_102_1,2023-09-16T00:51:05.664Z,,0,,,NaN,,,,,,false,,,,1185603.5,1185603.199999988,,1185602.3999999762,,1185608.692,8,400,,,
break_continue,html.Screen,4_102_2,2023-09-16T00:51:05.664Z,,0,,,NaN,,,,,,false,,,,1185603.8999999762,1185603.699999988,,1185603.5999999642,,1185608.692,8,400,,,
sequence,flow.Sequence,4_102,2023-09-16T00:51:05.664Z,,0,,,3912.639999988023,completion,,,,,false,,,,1185604.0999999642,1185603.699999988,1181674.394,1181683.2999999523,1181691.06,1185608.692,8,400,,,
trial,html.Screen,4_103_0,2023-09-16T00:51:10.294Z,,0,3,,4624.607999952277,response,ISIC_0005762.JPG,5,ISIC_0072516.JPG,ISIC_0072516.JPG,false,0,keypress(z),500,1190233.7999999523,1190233.2999999523,1185592.026,1185604.2999999523,1185608.692,1190241.84,8,400,4,,ISIC_0005762.JPG
break,html.Screen,4_103_1,2023-09-16T00:51:10.295Z,,0,,,NaN,,,,,,false,,,,1190235.199999988,1190234.7999999523,,1190234.0999999642,,1190241.84,8,400,,,
break_continue,html.Screen,4_103_2,2023-09-16T00:51:10.295Z,,0,,,NaN,,,,,,false,,,,1190235.5,1190235.3999999762,,1190235.199999988,,1190241.84,8,400,,,
sequence,flow.Sequence,4_103,2023-09-16T00:51:10.296Z,,0,,,4626.707999976119,completion,,,,,false,,,,1190235.5999999642,1190235.3999999762,1185592.026,1185604.199999988,1185608.692,1190241.84,8,400,,,
trial,html.Screen,4_104_0,2023-09-16T00:51:13.627Z,,0,3,,3324.4599999522325,response,ISIC_0026548.JPG,5,ISIC_0071289.JPG,ISIC_0071289.JPG,false,0,keypress(z),500,1193566.7999999523,1193566.2999999523,1190225.174,1190235.699999988,1190241.84,1193575.961,8,400,5,,ISIC_0026548.JPG
break,html.Screen,4_104_1,2023-09-16T00:51:13.628Z,,0,,,NaN,,,,,,false,,,,1193568.199999988,1193567.8999999762,,1193567.199999988,,1193575.961,8,400,,,
break_continue,html.Screen,4_104_2,2023-09-16T00:51:13.628Z,,0,,,NaN,,,,,,false,,,,1193568.699999988,1193568.5,,1193568.2999999523,,1193575.961,8,400,,,
sequence,flow.Sequence,4_104,2023-09-16T00:51:13.629Z,,0,,,3326.659999999916,completion,,,,,false,,,,1193568.7999999523,1193568.5,1190225.174,1190235.699999988,1190241.84,1193575.961,8,400,,,
trial,html.Screen,4_105_0,2023-09-16T00:51:17.904Z,,0,3,,4267.638999964343,response,ISIC_0011700.JPG,7,ISIC_8530010.JPG,ISIC_8530010.JPG,false,0,keypress(z),500,1197844.0999999642,1197843.5999999642,1193559.295,1193569,1193575.961,1197859.123,8,400,6,,ISIC_0011700.JPG
break,html.Screen,4_105_1,2023-09-16T00:51:17.905Z,,0,,,NaN,,,,,,false,,,,1197845.5,1197845.199999988,,1197844.3999999762,,1197859.123,8,400,,,
break_continue,html.Screen,4_105_2,2023-09-16T00:51:17.905Z,,0,,,NaN,,,,,,false,,,,1197845.8999999762,1197845.699999988,,1197845.5,,1197859.123,8,400,,,
sequence,flow.Sequence,4_105,2023-09-16T00:51:17.906Z,,0,,,4269.738999988185,completion,,,,,false,,,,1197846,1197845.699999988,1193559.295,1193568.7999999523,1193575.961,1197859.123,8,400,,,
trial,html.Screen,4_106_0,2023-09-16T00:51:25.239Z,,0,3,,7320.377000000095,response,ISIC_0027832.JPG,5,ISIC_0027265.JPG,ISIC_0027832.JPG,false,1,keypress(m),500,1205180,1205179.5,1197842.457,1197846.2999999523,1197859.123,1205192.919,8,400,7,,ISIC_0027265.JPG
break,html.Screen,4_106_1,2023-09-16T00:51:25.241Z,,0,,,NaN,,,,,,false,,,,1205181.3999999762,1205181.0999999642,,1205180.2999999523,,1205192.919,8,400,,,
break_continue,html.Screen,4_106_2,2023-09-16T00:51:25.241Z,,0,,,NaN,,,,,,false,,,,1205181.699999988,1205181.699999988,,1205181.5,,1205192.919,8,400,,,
sequence,flow.Sequence,4_106,2023-09-16T00:51:25.241Z,,0,,,7322.576999988174,completion,,,,,false,,,,1205181.8999999762,1205181.699999988,1197842.457,1197846.199999988,1197859.123,1205192.919,8,400,,,
trial,html.Screen,4_107_0,2023-09-16T00:51:30.820Z,,0,3,,5567.680999964243,response,ISIC_7592920.JPG,8,ISIC_0057495.JPG,ISIC_7592920.JPG,false,1,keypress(m),500,1210761.0999999642,1210760.5999999642,1205176.253,1205181.8999999762,1205192.919,1210776.029,8,400,8,,ISIC_0057495.JPG
break,html.Screen,4_107_1,2023-09-16T00:51:30.821Z,,0,,,NaN,,,,,,false,,,,1210762.5,1210762.199999988,,1210761.5,,1210776.029,8,400,,,
break_continue,html.Screen,4_107_2,2023-09-16T00:51:30.822Z,,0,,,NaN,,,,,,false,,,,1210762.8999999762,1210762.7999999523,,1210762.5999999642,,1210776.029,8,400,,,
sequence,flow.Sequence,4_107,2023-09-16T00:51:30.822Z,,0,,,5569.880999952322,completion,,,,,false,,,,1210763.0999999642,1210762.7999999523,1205176.253,1205181.8999999762,1205192.919,1210776.029,8,400,,,
trial,html.Screen,4_108_0,2023-09-16T00:51:36.196Z,,0,3,,5360.870999976061,response,ISIC_0069398.JPG,5,ISIC_0016161.JPG,ISIC_0069398.JPG,false,1,keypress(m),500,1216137.5,1216136.8999999762,1210759.363,1210763.2999999523,1210776.029,1216143.433,8,400,9,,ISIC_0016161.JPG
break,html.Screen,4_108_1,2023-09-16T00:51:36.198Z,,0,,,NaN,,,,,,false,,,,1216138.8999999762,1216138.5999999642,,1216137.699999988,,1216143.433,8,400,,,
break_continue,html.Screen,4_108_2,2023-09-16T00:51:36.198Z,,0,,,NaN,,,,,,false,,,,1216139.199999988,1216139.199999988,,1216139,,1216143.433,8,400,,,
sequence,flow.Sequence,4_108,2023-09-16T00:51:36.198Z,,0,,,5363.170999987982,completion,,,,,false,,,,1216139.3999999762,1216139.199999988,1210759.363,1210763.2999999523,1210776.029,1216143.433,8,400,,,
trial,html.Screen,4_109_0,2023-09-16T00:51:41.547Z,,0,3,,5344.766999988118,response,ISIC_1155782.JPG,8,ISIC_2799447.JPG,ISIC_2799447.JPG,false,0,keypress(z),500,1221488.5999999642,1221488.199999988,1216126.767,1216139.5,1216143.433,1221493.219,8,400,10,,ISIC_1155782.JPG
break,html.Screen,4_109_1,2023-09-16T00:51:41.548Z,,0,,,NaN,,,,,,false,,,,1221490,1221489.7999999523,,1221489,,1221493.219,8,400,,,
break_continue,html.Screen,4_109_2,2023-09-16T00:51:41.549Z,,0,,,NaN,,,,,,false,,,,1221490.5,1221490.3999999762,,1221490.199999988,,1221493.219,8,400,,,
sequence,flow.Sequence,4_109,2023-09-16T00:51:41.549Z,,0,,,5346.966999976197,completion,,,,,false,,,,1221490.5999999642,1221490.3999999762,1216126.767,1216139.3999999762,1216143.433,1221493.219,8,400,,,
trial,html.Screen,4_110_0,2023-09-16T00:51:45.980Z,,0,3,,4427.880999964196,response,ISIC_0054329.JPG,6,ISIC_0059609.JPG,ISIC_0054329.JPG,false,1,keypress(m),500,1225921.5999999642,1225921.0999999642,1221476.553,1221490.7999999523,1221493.219,1225927.541,8,400,11,,ISIC_0059609.JPG
break,html.Screen,4_110_1,2023-09-16T00:51:45.981Z,,0,,,NaN,,,,,,false,,,,1225923,1225922.7999999523,,1225922,,1225927.541,8,400,,,
break_continue,html.Screen,4_110_2,2023-09-16T00:51:45.982Z,,0,,,NaN,,,,,,false,,,,1225923.5,1225923.2999999523,,1225923.0999999642,,1225927.541,8,400,,,
sequence,flow.Sequence,4_110,2023-09-16T00:51:45.982Z,,0,,,4430.080999952275,completion,,,,,false,,,,1225923.5999999642,1225923.2999999523,1221476.553,1221490.7999999523,1221493.219,1225927.541,8,400,,,
trial,html.Screen,4_111_0,2023-09-16T00:51:50.547Z,,0,3,,4561.459000000032,response,ISIC_5330187.JPG,5,ISIC_9225640.JPG,ISIC_9225640.JPG,false,0,keypress(z),500,1230489.199999988,1230489,1225910.875,1225923.7999999523,1225927.541,1230494.025,8,400,12,,ISIC_5330187.JPG
break,html.Screen,4_111_1,2023-09-16T00:51:50.548Z,,0,,,NaN,,,,,,false,,,,1230489.699999988,1230489.5999999642,,1230489.2999999523,,1230494.025,8,400,,,
break_continue,html.Screen,4_111_2,2023-09-16T00:51:50.548Z,,0,,,NaN,,,,,,false,,,,1230489.8999999762,1230489.8999999762,,1230489.699999988,,1230494.025,8,400,,,
sequence,flow.Sequence,4_111,2023-09-16T00:51:50.548Z,,0,,,4562.35899997619,completion,,,,,false,,,,1230490,1230489.8999999762,1225910.875,1225923.7999999523,1225927.541,1230494.025,8,400,,,
trial,html.Screen,4_112_0,2023-09-16T00:51:55.878Z,,0,3,,5325.374999976251,response,ISIC_8773478.JPG,8,ISIC_7680333.JPG,ISIC_7680333.JPG,false,0,keypress(z),500,1235820,1235819.3999999762,1230477.359,1230490.0999999642,1230494.025,1235844.69,8,400,13,,ISIC_8773478.JPG
break,html.Screen,4_112_1,2023-09-16T00:51:55.879Z,,0,,,NaN,,,,,,false,,,,1235821.199999988,1235820.8999999762,,1235820.199999988,,1235844.69,8,400,,,
break_continue,html.Screen,4_112_2,2023-09-16T00:51:55.879Z,,0,,,NaN,,,,,,false,,,,1235821.5999999642,1235821.5,,1235821.2999999523,,1235844.69,8,400,,,
sequence,flow.Sequence,4_112,2023-09-16T00:51:55.880Z,,0,,,5327.475000000093,completion,,,,,false,,,,1235821.7999999523,1235821.5,1230477.359,1230490,1230494.025,1235844.69,8,400,,,
trial,html.Screen,4_113_0,2023-09-16T00:52:00.978Z,,0,3,,5075.310000000056,response,ISIC_3163773.JPG,8,ISIC_0029863.JPG,ISIC_0029863.JPG,false,0,keypress(z),500,1240920.5,1240920,1235828.024,1235822,1235844.69,1240927.82,8,400,14,,ISIC_3163773.JPG
break,html.Screen,4_113_1,2023-09-16T00:52:00.979Z,,0,,,NaN,,,,,,false,,,,1240921.8999999762,1240921.699999988,,1240920.7999999523,,1240927.82,8,400,,,
break_continue,html.Screen,4_113_2,2023-09-16T00:52:00.980Z,,0,,,NaN,,,,,,false,,,,1240922.199999988,1240922.0999999642,,1240922,,1240927.82,8,400,,,
sequence,flow.Sequence,4_113,2023-09-16T00:52:00.980Z,,0,,,5077.409999964293,completion,,,,,false,,,,1240922.3999999762,1240922.0999999642,1235828.024,1235821.8999999762,1235844.69,1240927.82,8,400,,,
trial,html.Screen,4_114_0,2023-09-16T00:52:04.776Z,,0,3,,3790.779999964172,response,ISIC_2071966.JPG,7,ISIC_1777398.JPG,ISIC_2071966.JPG,false,1,keypress(m),500,1244719.0999999642,1244718.5999999642,1240911.154,1240922.5,1240927.82,1244727.668,8,400,15,,ISIC_1777398.JPG
break,html.Screen,4_114_1,2023-09-16T00:52:04.778Z,,0,,,NaN,,,,,,false,,,,1244720.3999999762,1244720.199999988,,1244719.3999999762,,1244727.668,8,400,,,
break_continue,html.Screen,4_114_2,2023-09-16T00:52:04.778Z,,0,,,NaN,,,,,,false,,,,1244720.8999999762,1244720.7999999523,,1244720.5,,1244727.668,8,400,,,
sequence,flow.Sequence,4_114,2023-09-16T00:52:04.778Z,,0,,,3792.979999952251,completion,,,,,false,,,,1244721.0999999642,1244720.7999999523,1240911.154,1240922.3999999762,1240927.82,1244727.668,8,400,,,
trial,html.Screen,4_115_0,2023-09-16T00:52:08.255Z,,0,3,,3469.8319999999367,response,ISIC_0013184.JPG,8,ISIC_2015441.JPG,ISIC_0013184.JPG,false,1,keypress(m),500,1248198,1248197.5,1244711.002,1244721.2999999523,1244727.668,1248211.792,8,400,16,,ISIC_2015441.JPG
break,html.Screen,4_115_1,2023-09-16T00:52:08.256Z,,0,,,NaN,,,,,,false,,,,1248199.2999999523,1248199,,1248198.199999988,,1248211.792,8,400,,,
break_continue,html.Screen,4_115_2,2023-09-16T00:52:08.257Z,,0,,,NaN,,,,,,false,,,,1248199.699999988,1248199.5,,1248199.3999999762,,1248211.792,8,400,,,
sequence,flow.Sequence,4_115,2023-09-16T00:52:08.257Z,,0,,,3471.8319999999367,completion,,,,,false,,,,1248199.7999999523,1248199.5,1244711.002,1244721.199999988,1244727.668,1248211.792,8,400,,,
trial,html.Screen,4_116_0,2023-09-16T00:52:16.074Z,,0,3,,7804.607999976259,response,ISIC_0952221.JPG,6,ISIC_7623407.JPG,ISIC_0952221.JPG,false,1,keypress(m),500,1256016.8999999762,1256016.3999999762,1248195.126,1248200,1248211.792,1256028.146,8,400,17,,ISIC_7623407.JPG
break,html.Screen,4_116_1,2023-09-16T00:52:16.075Z,,0,,,NaN,,,,,,false,,,,1256018.2999999523,1256017.8999999762,,1256017.2999999523,,1256028.146,8,400,,,
break_continue,html.Screen,4_116_2,2023-09-16T00:52:16.075Z,,0,,,NaN,,,,,,false,,,,1256018.5999999642,1256018.5999999642,,1256018.3999999762,,1256028.146,8,400,,,
sequence,flow.Sequence,4_116,2023-09-16T00:52:16.076Z,,0,,,7806.807999964338,completion,,,,,false,,,,1256018.8999999762,1256018.5999999642,1248195.126,1248200,1248211.792,1256028.146,8,400,,,
trial,html.Screen,4_117_0,2023-09-16T00:52:20.179Z,,0,3,,4093.6539999523666,response,ISIC_7809510.JPG,8,ISIC_0030300.JPG,ISIC_7809510.JPG,false,1,keypress(m),500,1260122.199999988,1260121.7999999523,1256011.48,1256019,1256028.146,1260128.846,8,400,18,,ISIC_0030300.JPG
break,html.Screen,4_117_1,2023-09-16T00:52:20.180Z,,0,,,NaN,,,,,,false,,,,1260123.199999988,1260123,,1260122.3999999762,,1260128.846,8,400,,,
break_continue,html.Screen,4_117_2,2023-09-16T00:52:20.180Z,,0,,,NaN,,,,,,false,,,,1260123.3999999762,1260123.2999999523,,1260123.199999988,,1260128.846,8,400,,,
sequence,flow.Sequence,4_117,2023-09-16T00:52:20.180Z,,0,,,4095.1539999523666,completion,,,,,false,,,,1260123.3999999762,1260123.2999999523,1256011.48,1256018.8999999762,1256028.146,1260128.846,8,400,,,
trial,html.Screen,4_118_0,2023-09-16T00:52:23.334Z,,0,3,,3148.654000000097,response,ISIC_7672106.JPG,8,ISIC_7972996.JPG,ISIC_7672106.JPG,false,1,keypress(m),500,1263278,1263277.5,1260112.18,1260123.5,1260128.846,1263295.386,8,400,19,,ISIC_7972996.JPG
break,html.Screen,4_118_1,2023-09-16T00:52:23.336Z,,0,,,NaN,,,,,,false,,,,1263279.3999999762,1263279.0999999642,,1263278.2999999523,,1263295.386,8,400,,,
break_continue,html.Screen,4_118_2,2023-09-16T00:52:23.336Z,,0,,,NaN,,,,,,false,,,,1263279.7999999523,1263279.7999999523,,1263279.5999999642,,1263295.386,8,400,,,
sequence,flow.Sequence,4_118,2023-09-16T00:52:23.336Z,,0,,,3150.953999952413,completion,,,,,false,,,,1263280,1263279.7999999523,1260112.18,1260123.5,1260128.846,1263295.386,8,400,,,
trial,html.Screen,4_119_0,2023-09-16T00:52:27.822Z,,0,3,,4469.813999988139,response,ISIC_0058255.JPG,9,ISIC_0034268.JPG,ISIC_0034268.JPG,false,0,keypress(z),500,1267765.699999988,1267765.199999988,1263278.72,1263280.0999999642,1263295.386,1267779.42,8,400,20,,ISIC_0058255.JPG
break,html.Screen,4_119_1,2023-09-16T00:52:27.823Z,,0,,,NaN,,,,,,false,,,,1267767.0999999642,1267766.7999999523,,1267766.0999999642,,1267779.42,8,400,,,
break_continue,html.Screen,4_119_2,2023-09-16T00:52:27.824Z,,0,,,NaN,,,,,,false,,,,1267767.5,1267767.3999999762,,1267767.199999988,,1267779.42,8,400,,,
sequence,flow.Sequence,4_119,2023-09-16T00:52:27.824Z,,0,,,4472.013999976218,completion,,,,,false,,,,1267767.699999988,1267767.3999999762,1263278.72,1263280.0999999642,1263295.386,1267779.42,8,400,,,
trial,html.Screen,4_120_0,2023-09-16T00:52:35.349Z,,0,3,,7513.0800000000745,response,ISIC_7811951.JPG,7,ISIC_3750329.JPG,ISIC_3750329.JPG,false,0,keypress(z),500,1275293,1275292.5,1267762.754,1267767.7999999523,1267779.42,1275295.786,8,400,21,,ISIC_7811951.JPG
break,html.Screen,4_120_1,2023-09-16T00:52:35.350Z,,0,,,NaN,,,,,,false,,,,1275294.2999999523,1275294,,1275293.199999988,,1275295.786,8,400,,,
break_continue,html.Screen,4_120_2,2023-09-16T00:52:35.351Z,,0,,,NaN,,,,,,false,,,,1275294.699999988,1275294.5999999642,,1275294.3999999762,,1275295.786,8,400,,,
sequence,flow.Sequence,4_120,2023-09-16T00:52:35.351Z,,0,,,7515.179999964312,completion,,,,,false,,,,1275294.8999999762,1275294.5999999642,1267762.754,1267767.699999988,1267779.42,1275295.786,8,400,,,
trial,html.Screen,4_121_0,2023-09-16T00:52:46.841Z,,0,3,,11517.434999999823,timeout,ISIC_0013731.JPG,8,ISIC_5157799.JPG,,false,,,500,1286785.199999988,1286784.7999999523,1275279.12,1275295,1275295.786,1286813.221,8,400,22,,
break,html.Screen,4_121_1,2023-09-16T00:52:46.842Z,,0,,,NaN,,,,,,false,,,,1286786.3999999762,1286786.0999999642,,1286785.3999999762,,1286813.221,8,400,,,
break_continue,html.Screen,4_121_2,2023-09-16T00:52:46.842Z,,0,,,NaN,,,,,,false,,,,1286786.7999999523,1286786.699999988,,1286786.5,,1286813.221,8,400,,,
sequence,flow.Sequence,4_121,2023-09-16T00:52:46.842Z,,0,,,11490.913999987999,completion,,,,,false,,,,1286787,1286786.699999988,1275279.12,1275295,1275295.786,1286813.221,8,400,,,
trial,html.Screen,4_122_0,2023-09-16T00:52:50.784Z,,0,3,,3914.978999988176,response,ISIC_0101540.JPG,5,ISIC_0025891.JPG,ISIC_0025891.JPG,false,0,keypress(z),500,1290728.699999988,1290728.199999988,1286796.555,1286787.0999999642,1286813.221,1290729.731,8,400,23,,ISIC_0101540.JPG
break,html.Screen,4_122_1,2023-09-16T00:52:50.785Z,,0,,,NaN,,,,,,false,,,,1290730,1290729.699999988,,1290729,,1290729.731,8,400,,,
break_continue,html.Screen,4_122_2,2023-09-16T00:52:50.786Z,,0,,,NaN,,,,,,false,,,,1290730.3999999762,1290730.2999999523,,1290730.0999999642,,1290729.731,8,400,,,
sequence,flow.Sequence,4_122,2023-09-16T00:52:50.786Z,,0,,,3917.078999952413,completion,,,,,false,,,,1290730.5999999642,1290730.2999999523,1286796.555,1286787.0999999642,1286813.221,1290729.731,8,400,,,
trial,html.Screen,4_123_0,2023-09-16T00:52:55.476Z,,0,3,,4690.968999988167,response,ISIC_0059786.JPG,9,ISIC_3260571.JPG,ISIC_0059786.JPG,false,1,keypress(m),500,1295421.199999988,1295420.699999988,1290713.065,1290730.699999988,1290729.731,1295429.543,8,400,24,,ISIC_3260571.JPG
break,html.Screen,4_123_1,2023-09-16T00:52:55.477Z,,0,,,NaN,,,,,,false,,,,1295422.3999999762,1295422.199999988,,1295421.5,,1295429.543,8,400,,,
break_continue,html.Screen,4_123_2,2023-09-16T00:52:55.478Z,,0,,,NaN,,,,,,false,,,,1295422.8999999762,1295422.7999999523,,1295422.5999999642,,1295429.543,8,400,,,
sequence,flow.Sequence,4_123,2023-09-16T00:52:55.478Z,,0,,,4693.068999952404,completion,,,,,false,,,,1295423.0999999642,1295422.7999999523,1290713.065,1290730.699999988,1290729.731,1295429.543,8,400,,,
trial,html.Screen,4_124_0,2023-09-16T00:52:58.816Z,,0,3,,3331.356999976095,response,ISIC_4680417.JPG,6,ISIC_0032046.JPG,ISIC_0032046.JPG,false,0,keypress(z),500,1298761.2999999523,1298760.8999999762,1295412.877,1295423.2999999523,1295429.543,1298764.276,8,400,25,,ISIC_4680417.JPG
break,html.Screen,4_124_1,2023-09-16T00:52:58.817Z,,0,,,NaN,,,,,,false,,,,1298762.5999999642,1298762.2999999523,,1298761.699999988,,1298764.276,8,400,,,
break_continue,html.Screen,4_124_2,2023-09-16T00:52:58.818Z,,0,,,NaN,,,,,,false,,,,1298763.199999988,1298763,,1298762.699999988,,1298764.276,8,400,,,
sequence,flow.Sequence,4_124,2023-09-16T00:52:58.818Z,,0,,,3333.4569999999367,completion,,,,,false,,,,1298763.2999999523,1298763,1295412.877,1295423.199999988,1295429.543,1298764.276,8,400,,,
trial,html.Screen,4_125_0,2023-09-16T00:53:02.128Z,,0,3,,3308.723999999929,response,ISIC_0030747.JPG,7,ISIC_5816399.JPG,ISIC_5816399.JPG,false,0,keypress(z),500,1302073.5,1302073,1298747.61,1298763.5,1298764.276,1302080.81,8,400,26,,ISIC_0030747.JPG
break,html.Screen,4_125_1,2023-09-16T00:53:02.129Z,,0,,,NaN,,,,,,false,,,,1302074.7999999523,1302074.5,,1302073.7999999523,,1302080.81,8,400,,,
