sender,sender_type,sender_id,timestamp,meta,,blockNo,condition,duration,ended_on,img_left,img_reveal,img_right,loser,practice,response,response_action,selection_duration,time_commit,time_end,time_render,time_run,time_show,time_switch,total_blocks,total_trials,trialNo,url,winner
informed_consent,html.Screen,0,2023-11-01T18:40:09.620Z,"{""labjs_version"":""20.2.4"",""labjs_build"":{""flavor"":""production"",""commit"":""f5b4a49f956347addd546a832a3327688c2c0fef""},""location"":""https://run.pavlovia.org/MurrayBennett/melanoma-2afc/?participant=66812&platform=sona"",""userAgent"":""Mozilla/5.0 (Windows NT 10.0; Win64; x64) AppleWebKit/537.36 (KHTML, like Gecko) Chrome/118.0.0.0 Safari/537.36"",""platform"":""Win32"",""language"":""en-US"",""locale"":""en-US"",""timeZone"":""America/Chicago"",""timezoneOffset"":300,""screen_width"":1920,""screen_height"":1080,""scroll_width"":1920,""scroll_height"":875,""window_innerWidth"":1920,""window_innerHeight"":923,""devicePixelRatio"":1}",,,,25323.738000071527,response,,,,,,consent,click button,,27058.300000071526,27057.300000071526,1508.526,1728.3999999761581,1733.562,27064.109,,,,"{""participant"":""66812"",""platform"":""sona""}",
Welcome,html.Screen,1,2023-11-01T18:40:32.924Z,,,,asymmetry,23297.49100002384,response,,,,,,continue,click button,,50362.39999997616,50361.60000002384,27055.775,27058.5,27064.109,50364.809,,,,,
trial,html.Screen,2_0_0,2023-11-01T18:40:38.302Z,,0,0,,5375.690999999999,response,ISIC_0069348.JPG,,ISIC_6997061.JPG,ISIC_6997061.JPG,true,0,keypress(z),500,55740.700000047684,55740.5,50362.03,50362.700000047684,50364.809,55743.743,1,6,1,,ISIC_0069348.JPG
sequence,flow.Sequence,2_0,2023-11-01T18:40:38.302Z,,0,,,5375.690999999999,completion,,,,,true,,,,55740.800000071526,55740.5,50362.03,50362.700000047684,50364.809,55743.743,1,6,,,
trial,html.Screen,2_1_0,2023-11-01T18:40:43.073Z,,0,0,,4767.057000071523,response,ISIC_0009529.JPG,,ISIC_0057368.JPG,ISIC_0009529.JPG,true,1,keypress(m),500,60510.89999997616,60510.800000071526,55740.881,55740.89999997616,55743.743,60514.585,1,6,2,,ISIC_0057368.JPG
sequence,flow.Sequence,2_1,2023-11-01T18:40:43.073Z,,0,,,4767.057000071523,completion,,,,,true,,,,60511,60510.800000071526,55740.881,55740.89999997616,55743.743,60514.585,1,6,,,
trial,html.Screen,2_2_0,2023-11-01T18:40:48.755Z,,0,0,,5678.615000047685,response,ISIC_9758671.JPG,,ISIC_0064954.JPG,ISIC_0064954.JPG,true,0,keypress(z),500,66193.39999997616,66193.20000004768,60508.88,60511,60514.585,66195.662,1,6,3,,ISIC_9758671.JPG
sequence,flow.Sequence,2_2,2023-11-01T18:40:48.756Z,,0,,,5678.615000047685,completion,,,,,true,,,,66193.5,66193.20000004768,60508.88,60511,60514.585,66195.662,1,6,,,
trial,html.Screen,2_3_0,2023-11-01T18:40:52.533Z,,0,0,,3774.9380000238452,response,ISIC_0005785.JPG,,ISIC_0000080.JPG,ISIC_0000080.JPG,true,0,keypress(z),500,69970.80000007153,69970.60000002384,66192.617,66193.60000002384,66195.662,69976.344,1,6,4,,ISIC_0005785.JPG
sequence,flow.Sequence,2_3,2023-11-01T18:40:52.533Z,,0,,,3774.9380000238452,completion,,,,,true,,,,69970.89999997616,69970.60000002384,66192.617,66193.5,66195.662,69976.344,1,6,,,
trial,html.Screen,2_4_0,2023-11-01T18:40:56.407Z,,0,0,,3868.055999976161,response,ISIC_7944028.JPG,,ISIC_5390060.JPG,ISIC_7944028.JPG,true,1,keypress(m),500,73844.5,73844.39999997616,69970.951,69970.89999997616,69976.344,73849.095,1,6,5,,ISIC_5390060.JPG
sequence,flow.Sequence,2_4,2023-11-01T18:40:56.407Z,,0,,,3868.055999976161,completion,,,,,true,,,,73844.60000002384,73844.39999997616,69970.951,69970.89999997616,69976.344,73849.095,1,6,,,
trial,html.Screen,2_5_0,2023-11-01T18:41:01.736Z,,0,0,,5324.804999976157,response,ISIC_0010188.JPG,,ISIC_0794216.JPG,ISIC_0794216.JPG,true,0,keypress(z),500,79174,79173.89999997616,73843.176,73844.80000007153,73849.095,79178.649,1,6,6,,ISIC_0010188.JPG
sequence,flow.Sequence,2_5,2023-11-01T18:41:01.736Z,,0,,,5324.804999976157,completion,,,,,true,,,,79174.10000002384,79173.89999997616,73843.176,73844.80000007153,73849.095,79178.649,1,6,,,
loop,flow.Loop,2,2023-11-01T18:41:01.736Z,,,,,28809.090999976157,completion,,,,,true,,,,79174.20000004768,79173.89999997616,50362.03,50362.700000047684,50364.809,79178.649,1,6,,,
exp_instructions,html.Screen,3,2023-11-01T18:41:09.994Z,,,,,8252.551000047679,response,,,,,,continue,keypress(Space),,87431.80000007153,87431.20000004768,79173.666,79174.20000004768,79178.649,87436.46,,,,,
trial,html.Screen,4_0_0,2023-11-01T18:41:17.389Z,,0,1,,7390.740000047677,response,ISIC_0003345.JPG,4,ISIC_1348538.JPG,ISIC_1348538.JPG,false,0,keypress(z),500,94827.39999997616,94827.20000004768,87430.097,87431.89999997616,87436.46,94831.032,8,400,1,,ISIC_0003345.JPG
break,html.Screen,4_0_1,2023-11-01T18:41:17.390Z,,0,,,NaN,,,,,,false,,,,94828,94827.80000007153,,94827.5,,94831.032,8,400,,,
break_continue,html.Screen,4_0_2,2023-11-01T18:41:17.390Z,,0,,,NaN,,,,,,false,,,,94828.30000007153,94828.20000004768,,94828.10000002384,,94831.032,8,400,,,
sequence,flow.Sequence,4_0,2023-11-01T18:41:17.391Z,,0,,,7391.740000047677,completion,,,,,false,,,,94828.5,94828.20000004768,87430.097,87431.89999997616,87436.46,94831.032,8,400,,,
trial,html.Screen,4_1_0,2023-11-01T18:41:22.496Z,,0,1,,5102.9679999999935,response,ISIC_3031102.JPG,5,ISIC_0273046.JPG,ISIC_3031102.JPG,false,1,keypress(m),500,99934.20000004768,99934,94825.953,94828.5,94831.032,99937.409,8,400,2,,ISIC_0273046.JPG
break,html.Screen,4_1_1,2023-11-01T18:41:22.497Z,,0,,,NaN,,,,,,false,,,,99934.5,99934.39999997616,,99934.30000007153,,99937.409,8,400,,,
break_continue,html.Screen,4_1_2,2023-11-01T18:41:22.497Z,,0,,,NaN,,,,,,false,,,,99934.60000002384,99934.60000002384,,99934.60000002384,,99937.409,8,400,,,
sequence,flow.Sequence,4_1,2023-11-01T18:41:22.497Z,,0,,,5103.568000023835,completion,,,,,false,,,,99934.70000004768,99934.60000002384,94825.953,94828.5,94831.032,99937.409,8,400,,,
trial,html.Screen,4_2_0,2023-11-01T18:41:27.811Z,,0,1,,5311.591,response,ISIC_1461068.JPG,6,ISIC_9100933.JPG,ISIC_9100933.JPG,false,0,keypress(z),500,105249.10000002384,105249,99933.525,99934.80000007153,99937.409,105252.897,8,400,3,,ISIC_1461068.JPG
break,html.Screen,4_2_1,2023-11-01T18:41:27.811Z,,0,,,NaN,,,,,,false,,,,105249.39999997616,105249.30000007153,,105249.20000004768,,105252.897,8,400,,,
break_continue,html.Screen,4_2_2,2023-11-01T18:41:27.812Z,,0,,,NaN,,,,,,false,,,,105249.5,105249.5,,105249.39999997616,,105252.897,8,400,,,
sequence,flow.Sequence,4_2,2023-11-01T18:41:27.812Z,,0,,,5312.091,completion,,,,,false,,,,105249.60000002384,105249.5,99933.525,99934.80000007153,99937.409,105252.897,8,400,,,
trial,html.Screen,4_3_0,2023-11-01T18:41:35.173Z,,0,1,,7358.002999976161,response,ISIC_3212050.JPG,6,ISIC_4602691.JPG,ISIC_4602691.JPG,false,0,keypress(z),500,112611.10000002384,112610.89999997616,105249.221,105249.60000002384,105252.897,112613.807,8,400,4,,ISIC_3212050.JPG
break,html.Screen,4_3_1,2023-11-01T18:41:35.173Z,,0,,,NaN,,,,,,false,,,,112611.5,112611.30000007153,,112611.20000004768,,112613.807,8,400,,,
break_continue,html.Screen,4_3_2,2023-11-01T18:41:35.174Z,,0,,,NaN,,,,,,false,,,,112611.5,112611.5,,112611.5,,112613.807,8,400,,,
sequence,flow.Sequence,4_3,2023-11-01T18:41:35.174Z,,0,,,7358.603000000003,completion,,,,,false,,,,112611.60000002384,112611.5,105249.221,105249.60000002384,105252.897,112613.807,8,400,,,
trial,html.Screen,4_4_0,2023-11-01T18:41:41.016Z,,0,1,,5839.793000023841,response,ISIC_0204355.JPG,5,ISIC_0032472.JPG,ISIC_0032472.JPG,false,0,keypress(z),500,118453.70000004768,118453.60000002384,112608.642,112611.60000002384,112613.807,118456.339,8,400,5,,ISIC_0204355.JPG
break,html.Screen,4_4_1,2023-11-01T18:41:41.016Z,,0,,,NaN,,,,,,false,,,,118454.10000002384,118454,,118453.80000007153,,118456.339,8,400,,,
break_continue,html.Screen,4_4_2,2023-11-01T18:41:41.016Z,,0,,,NaN,,,,,,false,,,,118454.10000002384,118454.10000002384,,118454.10000002384,,118456.339,8,400,,,
sequence,flow.Sequence,4_4,2023-11-01T18:41:41.016Z,,0,,,5840.293000023841,completion,,,,,false,,,,118454.30000007153,118454.10000002384,112608.642,112611.60000002384,112613.807,118456.339,8,400,,,
trial,html.Screen,4_5_0,2023-11-01T18:41:45.417Z,,0,1,,4399.060999976151,response,ISIC_5391758.JPG,5,ISIC_2707664.JPG,ISIC_2707664.JPG,false,0,keypress(z),500,122855.39999997616,122855.39999997616,118452.571,118454.30000007153,118456.339,122857.664,8,400,6,,ISIC_5391758.JPG
break,html.Screen,4_5_1,2023-11-01T18:41:45.418Z,,0,,,NaN,,,,,,false,,,,122855.70000004768,122855.70000004768,,122855.5,,122857.664,8,400,,,
break_continue,html.Screen,4_5_2,2023-11-01T18:41:45.418Z,,0,,,NaN,,,,,,false,,,,122855.89999997616,122855.89999997616,,122855.80000007153,,122857.664,8,400,,,
sequence,flow.Sequence,4_5,2023-11-01T18:41:45.418Z,,0,,,4399.560999976151,completion,,,,,false,,,,122856,122855.89999997616,118452.571,118454.30000007153,118456.339,122857.664,8,400,,,
trial,html.Screen,4_6_0,2023-11-01T18:41:49.979Z,,0,1,,4559.636000071521,response,ISIC_0188432.JPG,6,ISIC_5578611.JPG,ISIC_5578611.JPG,false,0,keypress(z),500,127417.39999997616,127417.30000007153,122854.315,122856.10000002384,122857.664,127419.927,8,400,7,,ISIC_0188432.JPG
break,html.Screen,4_6_1,2023-11-01T18:41:49.980Z,,0,,,NaN,,,,,,false,,,,127417.89999997616,127417.89999997616,,127417.5,,127419.927,8,400,,,
break_continue,html.Screen,4_6_2,2023-11-01T18:41:49.980Z,,0,,,NaN,,,,,,false,,,,127418.30000007153,127418.20000004768,,127417.89999997616,,127419.927,8,400,,,
sequence,flow.Sequence,4_6,2023-11-01T18:41:49.980Z,,0,,,4560.536000047679,completion,,,,,false,,,,127418.30000007153,127418.20000004768,122854.315,122856,122857.664,127419.927,8,400,,,
trial,html.Screen,4_7_0,2023-11-01T18:41:55.230Z,,0,1,,5247.8730000715295,response,ISIC_8759207.JPG,5,ISIC_0030128.JPG,ISIC_8759207.JPG,false,1,keypress(m),500,132667.89999997616,132667.80000007153,127417.3,127418.30000007153,127419.927,132671.081,8,400,8,,ISIC_0030128.JPG
break,html.Screen,4_7_1,2023-11-01T18:41:55.230Z,,0,,,NaN,,,,,,false,,,,132668.20000004768,132668.20000004768,,132668,,132671.081,8,400,,,
break_continue,html.Screen,4_7_2,2023-11-01T18:41:55.230Z,,0,,,NaN,,,,,,false,,,,132668.39999997616,132668.39999997616,,132668.30000007153,,132671.081,8,400,,,
sequence,flow.Sequence,4_7,2023-11-01T18:41:55.230Z,,0,,,5248.472999976162,completion,,,,,false,,,,132668.39999997616,132668.39999997616,127417.3,127418.30000007153,127419.927,132671.081,8,400,,,
trial,html.Screen,4_8_0,2023-11-01T18:42:01.072Z,,0,1,,5838.418999999994,response,ISIC_0010933.JPG,5,ISIC_0072714.JPG,ISIC_0010933.JPG,false,1,keypress(m),500,138509.70000004768,138509.5,132667.861,132668.5,132671.081,138514.31,8,400,9,,ISIC_0072714.JPG
break,html.Screen,4_8_1,2023-11-01T18:42:01.072Z,,0,,,NaN,,,,,,false,,,,138510,138509.89999997616,,138509.80000007153,,138514.31,8,400,,,
break_continue,html.Screen,4_8_2,2023-11-01T18:42:01.072Z,,0,,,NaN,,,,,,false,,,,138510.20000004768,138510.10000002384,,138510,,138514.31,8,400,,,
sequence,flow.Sequence,4_8,2023-11-01T18:42:01.072Z,,0,,,5839.019000023836,completion,,,,,false,,,,138510.30000007153,138510.10000002384,132667.861,132668.5,132671.081,138514.31,8,400,,,
trial,html.Screen,4_9_0,2023-11-01T18:42:08.051Z,,0,1,,6973.990000071528,response,ISIC_7777873.JPG,5,ISIC_0026426.JPG,ISIC_7777873.JPG,false,1,keypress(m),500,145488.70000004768,145488.30000007153,138507.571,138510.30000007153,138514.31,145491.804,8,400,10,,ISIC_0026426.JPG
break,html.Screen,4_9_1,2023-11-01T18:42:08.051Z,,0,,,NaN,,,,,,false,,,,145489,145489,,145488.80000007153,,145491.804,8,400,,,
break_continue,html.Screen,4_9_2,2023-11-01T18:42:08.051Z,,0,,,NaN,,,,,,false,,,,145489.20000004768,145489.20000004768,,145489.10000002384,,145491.804,8,400,,,
sequence,flow.Sequence,4_9,2023-11-01T18:42:08.051Z,,0,,,6974.890000047686,completion,,,,,false,,,,145489.30000007153,145489.20000004768,138507.571,138510.30000007153,138514.31,145491.804,8,400,,,
trial,html.Screen,4_10_0,2023-11-01T18:42:13.605Z,,0,1,,5550.996000071522,response,ISIC_6801988.JPG,5,ISIC_0674746.JPG,ISIC_6801988.JPG,false,1,keypress(m),500,151042.89999997616,151042.80000007153,145486.489,145489.30000007153,145491.804,151045.583,8,400,11,,ISIC_0674746.JPG
break,html.Screen,4_10_1,2023-11-01T18:42:13.605Z,,0,,,NaN,,,,,,false,,,,151043.30000007153,151043.20000004768,,151043,,151045.583,8,400,,,
break_continue,html.Screen,4_10_2,2023-11-01T18:42:13.605Z,,0,,,NaN,,,,,,false,,,,151043.39999997616,151043.39999997616,,151043.30000007153,,151045.583,8,400,,,
sequence,flow.Sequence,4_10,2023-11-01T18:42:13.605Z,,0,,,5551.595999976154,completion,,,,,false,,,,151043.5,151043.39999997616,145486.489,145489.30000007153,145491.804,151045.583,8,400,,,
trial,html.Screen,4_11_0,2023-11-01T18:42:16.887Z,,0,1,,3279.7170000715123,response,ISIC_0011114.JPG,5,ISIC_2078053.JPG,ISIC_0011114.JPG,false,1,keypress(m),500,154325.5,154325.30000007153,151040.577,151043.5,151045.583,154327.767,8,400,12,,ISIC_2078053.JPG
break,html.Screen,4_11_1,2023-11-01T18:42:16.888Z,,0,,,NaN,,,,,,false,,,,154325.70000004768,154325.70000004768,,154325.60000002384,,154327.767,8,400,,,
break_continue,html.Screen,4_11_2,2023-11-01T18:42:16.888Z,,0,,,NaN,,,,,,false,,,,154325.89999997616,154325.80000007153,,154325.80000007153,,154327.767,8,400,,,
sequence,flow.Sequence,4_11,2023-11-01T18:42:16.888Z,,0,,,3280.2170000715123,completion,,,,,false,,,,154326,154325.80000007153,151040.577,151043.5,151045.583,154327.767,8,400,,,
trial,html.Screen,4_12_0,2023-11-01T18:42:22.282Z,,0,1,,5391.632999976166,response,ISIC_0068168.JPG,6,ISIC_0010140.JPG,ISIC_0010140.JPG,false,0,keypress(z),500,159719.5,159719.39999997616,154325.285,154326,154327.767,159724.302,8,400,13,,ISIC_0068168.JPG
break,html.Screen,4_12_1,2023-11-01T18:42:22.282Z,,0,,,NaN,,,,,,false,,,,159719.70000004768,159719.70000004768,,159719.60000002384,,159724.302,8,400,,,
break_continue,html.Screen,4_12_2,2023-11-01T18:42:22.282Z,,0,,,NaN,,,,,,false,,,,159719.89999997616,159719.89999997616,,159719.89999997616,,159724.302,8,400,,,
sequence,flow.Sequence,4_12,2023-11-01T18:42:22.282Z,,0,,,5392.132999976166,completion,,,,,false,,,,159720,159719.89999997616,154325.285,154326,154327.767,159724.302,8,400,,,
trial,html.Screen,4_13_0,2023-11-01T18:42:26.988Z,,0,1,,4701.4980000715295,response,ISIC_8733745.JPG,5,ISIC_0010046.JPG,ISIC_8733745.JPG,false,1,keypress(m),500,164425.89999997616,164425.80000007153,159717.89,159720,159724.302,164430.518,8,400,14,,ISIC_0010046.JPG
break,html.Screen,4_13_1,2023-11-01T18:42:26.988Z,,0,,,NaN,,,,,,false,,,,164426.20000004768,164426.10000002384,,164426,,164430.518,8,400,,,
break_continue,html.Screen,4_13_2,2023-11-01T18:42:26.989Z,,0,,,NaN,,,,,,false,,,,164427,164427,,164426.89999997616,,164430.518,8,400,,,
sequence,flow.Sequence,4_13,2023-11-01T18:42:26.989Z,,0,,,4702.698000000004,completion,,,,,false,,,,164427.10000002384,164427,159717.89,159720,159724.302,164430.518,8,400,,,
trial,html.Screen,4_14_0,2023-11-01T18:42:33.839Z,,0,1,,6845.881999976147,response,ISIC_5879418.JPG,5,ISIC_0033806.JPG,ISIC_5879418.JPG,false,1,keypress(m),500,171276.5,171276.39999997616,164424.317,164427.10000002384,164430.518,171281.273,8,400,15,,ISIC_0033806.JPG
break,html.Screen,4_14_1,2023-11-01T18:42:33.839Z,,0,,,NaN,,,,,,false,,,,171277.10000002384,171277,,171276.70000004768,,171281.273,8,400,,,
break_continue,html.Screen,4_14_2,2023-11-01T18:42:33.840Z,,0,,,NaN,,,,,,false,,,,171277.70000004768,171277.5,,171277.30000007153,,171281.273,8,400,,,
sequence,flow.Sequence,4_14,2023-11-01T18:42:33.840Z,,0,,,6846.981999999989,completion,,,,,false,,,,171277.80000007153,171277.5,164424.317,164427.10000002384,164430.518,171281.273,8,400,,,
trial,html.Screen,4_15_0,2023-11-01T18:42:37.875Z,,0,1,,4031.2270000000135,response,ISIC_0021442.JPG,6,ISIC_0255997.JPG,ISIC_0255997.JPG,false,0,keypress(z),500,175312.5,175312.5,171275.956,171278,171281.273,175315.32,8,400,16,,ISIC_0021442.JPG
break,html.Screen,4_15_1,2023-11-01T18:42:37.875Z,,0,,,NaN,,,,,,false,,,,175313.10000002384,175313,,175312.70000004768,,175315.32,8,400,,,
break_continue,html.Screen,4_15_2,2023-11-01T18:42:37.875Z,,0,,,NaN,,,,,,false,,,,175313.20000004768,175313.10000002384,,175313.10000002384,,175315.32,8,400,,,
sequence,flow.Sequence,4_15,2023-11-01T18:42:37.875Z,,0,,,4031.8270000238554,completion,,,,,false,,,,175313.39999997616,175313.10000002384,171275.956,171278,171281.273,175315.32,8,400,,,
trial,html.Screen,4_16_0,2023-11-01T18:42:44.884Z,,0,1,,7006.679999999993,response,ISIC_0001104.JPG,6,ISIC_0071947.JPG,ISIC_0071947.JPG,false,0,keypress(z),500,182322.20000004768,182322,175312.284,175313.5,175315.32,182324.077,8,400,17,,ISIC_0001104.JPG
break,html.Screen,4_16_1,2023-11-01T18:42:44.885Z,,0,,,NaN,,,,,,false,,,,182322.5,182322.5,,182322.20000004768,,182324.077,8,400,,,
break_continue,html.Screen,4_16_2,2023-11-01T18:42:44.885Z,,0,,,NaN,,,,,,false,,,,182322.70000004768,182322.5,,182322.5,,182324.077,8,400,,,
sequence,flow.Sequence,4_16,2023-11-01T18:42:44.885Z,,0,,,7007.179999999993,completion,,,,,false,,,,182322.70000004768,182322.5,175312.284,175313.39999997616,175315.32,182324.077,8,400,,,
trial,html.Screen,4_17_0,2023-11-01T18:42:50.599Z,,0,1,,5712.92300000001,response,ISIC_0068610.JPG,5,ISIC_8167374.JPG,ISIC_0068610.JPG,false,1,keypress(m),500,188037.10000002384,188037,182321.969,182322.70000004768,182324.077,188038.911,8,400,18,,ISIC_8167374.JPG
break,html.Screen,4_17_1,2023-11-01T18:42:50.599Z,,0,,,NaN,,,,,,false,,,,188037.30000007153,188037.30000007153,,188037.20000004768,,188038.911,8,400,,,
break_continue,html.Screen,4_17_2,2023-11-01T18:42:50.600Z,,0,,,NaN,,,,,,false,,,,188037.5,188037.5,,188037.39999997616,,188038.911,8,400,,,
sequence,flow.Sequence,4_17,2023-11-01T18:42:50.600Z,,0,,,5713.42300000001,completion,,,,,false,,,,188037.60000002384,188037.5,182321.969,182322.70000004768,182324.077,188038.911,8,400,,,
trial,html.Screen,4_18_0,2023-11-01T18:42:58.425Z,,0,1,,7824.089000000007,response,ISIC_0014922.JPG,6,ISIC_6547707.JPG,ISIC_0014922.JPG,false,1,keypress(m),500,195863.10000002384,195863,188035.326,188037.60000002384,188038.911,195867.871,8,400,19,,ISIC_6547707.JPG
break,html.Screen,4_18_1,2023-11-01T18:42:58.425Z,,0,,,NaN,,,,,,false,,,,195863.39999997616,195863.39999997616,,195863.20000004768,,195867.871,8,400,,,
break_continue,html.Screen,4_18_2,2023-11-01T18:42:58.426Z,,0,,,NaN,,,,,,false,,,,195863.60000002384,195863.39999997616,,195863.39999997616,,195867.871,8,400,,,
sequence,flow.Sequence,4_18,2023-11-01T18:42:58.426Z,,0,,,7824.488999976165,completion,,,,,false,,,,195863.60000002384,195863.39999997616,188035.326,188037.60000002384,188038.911,195867.871,8,400,,,
trial,html.Screen,4_19_0,2023-11-01T18:43:04.763Z,,0,1,,6333.528999976144,response,ISIC_0025891.JPG,5,ISIC_8429798.JPG,ISIC_0025891.JPG,false,1,keypress(m),500,202201.5,202201.39999997616,195863.377,195863.60000002384,195867.871,202203.714,8,400,20,,ISIC_8429798.JPG
break,html.Screen,4_19_1,2023-11-01T18:43:04.764Z,,0,,,NaN,,,,,,false,,,,202201.80000007153,202201.70000004768,,202201.60000002384,,202203.714,8,400,,,
break_continue,html.Screen,4_19_2,2023-11-01T18:43:04.764Z,,0,,,NaN,,,,,,false,,,,202202.10000002384,202201.89999997616,,202201.89999997616,,202203.714,8,400,,,
sequence,flow.Sequence,4_19,2023-11-01T18:43:04.764Z,,0,,,6334.028999976144,completion,,,,,false,,,,202202.10000002384,202201.89999997616,195863.377,195863.60000002384,195867.871,202203.714,8,400,,,
trial,html.Screen,4_20_0,2023-11-01T18:43:08.638Z,,0,1,,3871.8860000238346,response,ISIC_9363106.JPG,5,ISIC_6780901.JPG,ISIC_6780901.JPG,false,0,keypress(z),500,206075.80000007153,206075.60000002384,202200.329,202202.10000002384,202203.714,206080.442,8,400,21,,ISIC_9363106.JPG
break,html.Screen,4_20_1,2023-11-01T18:43:08.638Z,,0,,,NaN,,,,,,false,,,,206076.39999997616,206076.30000007153,,206076.10000002384,,206080.442,8,400,,,
break_continue,html.Screen,4_20_2,2023-11-01T18:43:08.639Z,,0,,,NaN,,,,,,false,,,,206076.80000007153,206076.5,,206076.39999997616,,206080.442,8,400,,,
sequence,flow.Sequence,4_20,2023-11-01T18:43:08.639Z,,0,,,3872.785999999993,completion,,,,,false,,,,206077.20000004768,206076.5,202200.329,202202.10000002384,202203.714,206080.442,8,400,,,
trial,html.Screen,4_21_0,2023-11-01T18:43:20.139Z,,0,1,,11501.429000000004,timeout,ISIC_0032844.JPG,5,ISIC_0012883.JPG,,false,,,500,217576.80000007153,217576.60000002384,206074.042,206077.20000004768,206080.442,217581.871,8,400,22,,
break,html.Screen,4_21_1,2023-11-01T18:43:20.140Z,,0,,,NaN,,,,,,false,,,,217577.5,217577.39999997616,,217577.30000007153,,217581.871,8,400,,,
break_continue,html.Screen,4_21_2,2023-11-01T18:43:20.140Z,,0,,,NaN,,,,,,false,,,,217577.60000002384,217577.5,,217577.5,,217581.871,8,400,,,
sequence,flow.Sequence,4_21,2023-11-01T18:43:20.140Z,,0,,,11497.05799999999,completion,,,,,false,,,,217577.70000004768,217577.5,206074.042,206077.20000004768,206080.442,217581.871,8,400,,,
trial,html.Screen,4_22_0,2023-11-01T18:43:24.174Z,,0,1,,4029.32900004767,response,ISIC_0026008.JPG,5,ISIC_5278307.JPG,ISIC_5278307.JPG,false,0,keypress(z),500,221611.60000002384,221611.20000004768,217579.216,217577.70000004768,217581.871,221613.948,8,400,23,,ISIC_0026008.JPG
break,html.Screen,4_22_1,2023-11-01T18:43:24.174Z,,0,,,NaN,,,,,,false,,,,221612,221611.89999997616,,221611.60000002384,,221613.948,8,400,,,
break_continue,html.Screen,4_22_2,2023-11-01T18:43:24.174Z,,0,,,NaN,,,,,,false,,,,221612.10000002384,221612.10000002384,,221612.10000002384,,221613.948,8,400,,,
sequence,flow.Sequence,4_22,2023-11-01T18:43:24.174Z,,0,,,4030.229000023828,completion,,,,,false,,,,221612.30000007153,221612.10000002384,217579.216,217577.70000004768,217581.871,221613.948,8,400,,,
trial,html.Screen,4_23_0,2023-11-01T18:43:29.329Z,,0,1,,5152.25200004768,response,ISIC_0031553.JPG,5,ISIC_5457229.JPG,ISIC_0031553.JPG,false,1,keypress(m),500,226766.5,226766.20000004768,221610.784,221612.39999997616,221613.948,226771.085,8,400,24,,ISIC_5457229.JPG
break,html.Screen,4_23_1,2023-11-01T18:43:29.329Z,,0,,,NaN,,,,,,false,,,,226767.10000002384,226766.89999997616,,226766.80000007153,,226771.085,8,400,,,
break_continue,html.Screen,4_23_2,2023-11-01T18:43:29.330Z,,0,,,NaN,,,,,,false,,,,226767.5,226767.39999997616,,226767.30000007153,,226771.085,8,400,,,
sequence,flow.Sequence,4_23,2023-11-01T18:43:29.330Z,,0,,,5153.451999976154,completion,,,,,false,,,,226767.60000002384,226767.39999997616,221610.784,221612.39999997616,221613.948,226771.085,8,400,,,
trial,html.Screen,4_24_0,2023-11-01T18:43:34.867Z,,0,1,,5534.314999976166,response,ISIC_0031745.JPG,5,ISIC_0057617.JPG,ISIC_0031745.JPG,false,1,keypress(m),500,232305.39999997616,232305.39999997616,226766.381,226767.70000004768,226771.085,232307.7,8,400,25,,ISIC_0057617.JPG
break,html.Screen,4_24_1,2023-11-01T18:43:34.868Z,,0,,,NaN,,,,,,false,,,,232305.70000004768,232305.70000004768,,232305.5,,232307.7,8,400,,,
break_continue,html.Screen,4_24_2,2023-11-01T18:43:34.868Z,,0,,,NaN,,,,,,false,,,,232305.89999997616,232305.80000007153,,232305.70000004768,,232307.7,8,400,,,
sequence,flow.Sequence,4_24,2023-11-01T18:43:34.868Z,,0,,,5534.715000071534,completion,,,,,false,,,,232305.89999997616,232305.80000007153,226766.381,226767.70000004768,226771.085,232307.7,8,400,,,
trial,html.Screen,4_25_0,2023-11-01T18:43:39.750Z,,0,1,,4879.6999999761465,response,ISIC_0011627.JPG,5,ISIC_0063650.JPG,ISIC_0011627.JPG,false,1,keypress(m),500,237187.5,237187.39999997616,232304.276,232306,232307.7,237189.363,8,400,26,,ISIC_0063650.JPG
break,html.Screen,4_25_1,2023-11-01T18:43:39.750Z,,0,,,NaN,,,,,,false,,,,237187.80000007153,237187.70000004768,,237187.60000002384,,237189.363,8,400,,,
break_continue,html.Screen,4_25_2,2023-11-01T18:43:39.750Z,,0,,,NaN,,,,,,false,,,,237187.89999997616,237187.89999997616,,237187.89999997616,,237189.363,8,400,,,
sequence,flow.Sequence,4_25,2023-11-01T18:43:39.750Z,,0,,,4880.1999999761465,completion,,,,,false,,,,237188.10000002384,237187.89999997616,232304.276,232306,232307.7,237189.363,8,400,,,
trial,html.Screen,4_26_0,2023-11-01T18:43:45.513Z,,0,1,,5761.136999999988,response,ISIC_4026019.JPG,6,ISIC_0003550.JPG,ISIC_4026019.JPG,false,1,keypress(m),500,242950.60000002384,242950.5,237186.721,237188.10000002384,237189.363,242955.275,8,400,27,,ISIC_0003550.JPG
break,html.Screen,4_26_1,2023-11-01T18:43:45.513Z,,0,,,NaN,,,,,,false,,,,242951,242951,,242950.70000004768,,242955.275,8,400,,,
break_continue,html.Screen,4_26_2,2023-11-01T18:43:45.514Z,,0,,,NaN,,,,,,false,,,,242951.5,242951.5,,242951.20000004768,,242955.275,8,400,,,
sequence,flow.Sequence,4_26,2023-11-01T18:43:45.514Z,,0,,,5762.136999999988,completion,,,,,false,,,,242951.60000002384,242951.5,237186.721,237188.10000002384,237189.363,242955.275,8,400,,,
trial,html.Screen,4_27_0,2023-11-01T18:43:52.188Z,,0,1,,6670.025000071531,response,ISIC_1978947.JPG,5,ISIC_3376976.JPG,ISIC_3376976.JPG,false,0,keypress(z),500,249625.5,249625.30000007153,242949.386,242951.60000002384,242955.275,249630.85,8,400,28,,ISIC_1978947.JPG
break,html.Screen,4_27_1,2023-11-01T18:43:52.188Z,,0,,,NaN,,,,,,false,,,,249625.80000007153,249625.80000007153,,249625.70000004768,,249630.85,8,400,,,
break_continue,html.Screen,4_27_2,2023-11-01T18:43:52.188Z,,0,,,NaN,,,,,,false,,,,249626,249625.89999997616,,249625.89999997616,,249630.85,8,400,,,
sequence,flow.Sequence,4_27,2023-11-01T18:43:52.188Z,,0,,,6670.624999976164,completion,,,,,false,,,,249626.10000002384,249625.89999997616,242949.386,242951.60000002384,242955.275,249630.85,8,400,,,
trial,html.Screen,4_28_0,2023-11-01T18:43:56.159Z,,0,1,,3965.750000023836,response,ISIC_9709101.JPG,6,ISIC_4505178.JPG,ISIC_9709101.JPG,false,1,keypress(m),500,253596.80000007153,253596.60000002384,249625.372,249626.20000004768,249630.85,253601.484,8,400,29,,ISIC_4505178.JPG
break,html.Screen,4_28_1,2023-11-01T18:43:56.159Z,,0,,,NaN,,,,,,false,,,,253597.30000007153,253597.20000004768,,253597,,253601.484,8,400,,,
break_continue,html.Screen,4_28_2,2023-11-01T18:43:56.159Z,,0,,,NaN,,,,,,false,,,,253597.39999997616,253597.30000007153,,253597.30000007153,,253601.484,8,400,,,
sequence,flow.Sequence,4_28,2023-11-01T18:43:56.160Z,,0,,,3966.4500000715198,completion,,,,,false,,,,253597.5,253597.30000007153,249625.372,249626.10000002384,249630.85,253601.484,8,400,,,
trial,html.Screen,4_29_0,2023-11-01T18:44:01.075Z,,0,1,,4911.216000047687,response,ISIC_0010848.JPG,5,ISIC_9061511.JPG,ISIC_9061511.JPG,false,0,keypress(z),500,258512.80000007153,258512.70000004768,253595.853,253597.89999997616,253601.484,258515.622,8,400,30,,ISIC_0010848.JPG
break,html.Screen,4_29_1,2023-11-01T18:44:01.075Z,,0,,,NaN,,,,,,false,,,,258513.20000004768,258513.10000002384,,258512.80000007153,,258515.622,8,400,,,
break_continue,html.Screen,4_29_2,2023-11-01T18:44:01.075Z,,0,,,NaN,,,,,,false,,,,258513.30000007153,258513.30000007153,,258513.30000007153,,258515.622,8,400,,,
sequence,flow.Sequence,4_29,2023-11-01T18:44:01.075Z,,0,,,4911.816000071529,completion,,,,,false,,,,258513.39999997616,258513.30000007153,253595.853,253597.70000004768,253601.484,258515.622,8,400,,,
trial,html.Screen,4_30_0,2023-11-01T18:44:05.669Z,,0,1,,4591.277999976155,response,ISIC_0027171.JPG,5,ISIC_0026300.JPG,ISIC_0027171.JPG,false,1,keypress(m),500,263107.10000002384,263106.89999997616,258511.985,258513.39999997616,258515.622,263108.659,8,400,31,,ISIC_0026300.JPG
break,html.Screen,4_30_1,2023-11-01T18:44:05.669Z,,0,,,NaN,,,,,,false,,,,263107.39999997616,263107.2000000477,,263107.10000002384,,263108.659,8,400,,,
break_continue,html.Screen,4_30_2,2023-11-01T18:44:05.670Z,,0,,,NaN,,,,,,false,,,,263107.5,263107.5,,263107.39999997616,,263108.659,8,400,,,
sequence,flow.Sequence,4_30,2023-11-01T18:44:05.670Z,,0,,,4591.877999999997,completion,,,,,false,,,,263107.60000002384,263107.5,258511.985,258513.39999997616,258515.622,263108.659,8,400,,,
trial,html.Screen,4_31_0,2023-11-01T18:44:10.552Z,,0,1,,4881.1410000715405,response,ISIC_0033957.JPG,5,ISIC_0069385.JPG,ISIC_0033957.JPG,false,1,keypress(m),500,267989.89999997616,267989.8000000715,263107.407,263107.7000000477,263108.659,267993.613,8,400,32,,ISIC_0069385.JPG
break,html.Screen,4_31_1,2023-11-01T18:44:10.552Z,,0,,,NaN,,,,,,false,,,,267990.2000000477,267990.2000000477,,267990,,267993.613,8,400,,,
break_continue,html.Screen,4_31_2,2023-11-01T18:44:10.552Z,,0,,,NaN,,,,,,false,,,,267990.39999997616,267990.3000000715,,267990.2000000477,,267993.613,8,400,,,
sequence,flow.Sequence,4_31,2023-11-01T18:44:10.552Z,,0,,,4881.6410000715405,completion,,,,,false,,,,267990.39999997616,267990.3000000715,263107.407,263107.7000000477,263108.659,267993.613,8,400,,,
trial,html.Screen,4_32_0,2023-11-01T18:44:16.250Z,,0,1,,5694.286999976146,response,ISIC_1039970.JPG,5,ISIC_9228729.JPG,ISIC_1039970.JPG,false,1,keypress(m),500,273688.2000000477,273687.89999997616,267989.395,267990.5,267993.613,273691.255,8,400,33,,ISIC_9228729.JPG
break,html.Screen,4_32_1,2023-11-01T18:44:16.251Z,,0,,,NaN,,,,,,false,,,,273689,273689,,273688.60000002384,,273691.255,8,400,,,
break_continue,html.Screen,4_32_2,2023-11-01T18:44:16.251Z,,0,,,NaN,,,,,,false,,,,273689.3000000715,273689.2000000477,,273689.2000000477,,273691.255,8,400,,,
sequence,flow.Sequence,4_32,2023-11-01T18:44:16.251Z,,0,,,5695.587000047672,completion,,,,,false,,,,273689.39999997616,273689.2000000477,267989.395,267990.5,267993.613,273691.255,8,400,,,
trial,html.Screen,4_33_0,2023-11-01T18:44:22.622Z,,0,1,,6368.045000071521,response,ISIC_2287151.JPG,6,ISIC_5547318.JPG,ISIC_5547318.JPG,false,0,keypress(z),500,280059.5,280059.3000000715,273687.893,273689.39999997616,273691.255,280061.392,8,400,34,,ISIC_2287151.JPG
break,html.Screen,4_33_1,2023-11-01T18:44:22.622Z,,0,,,NaN,,,,,,false,,,,280059.8000000715,280059.7000000477,,280059.60000002384,,280061.392,8,400,,,
break_continue,html.Screen,4_33_2,2023-11-01T18:44:22.622Z,,0,,,NaN,,,,,,false,,,,280059.89999997616,280059.8000000715,,280059.8000000715,,280061.392,8,400,,,
sequence,flow.Sequence,4_33,2023-11-01T18:44:22.622Z,,0,,,6368.545000071521,completion,,,,,false,,,,280060,280059.8000000715,273687.893,273689.39999997616,273691.255,280061.392,8,400,,,
trial,html.Screen,4_34_0,2023-11-01T18:44:28.112Z,,0,1,,5488.007999976166,response,ISIC_3966064.JPG,6,ISIC_0066106.JPG,ISIC_0066106.JPG,false,0,keypress(z),500,285549.5,285549.39999997616,280058.036,280060,280061.392,285555.225,8,400,35,,ISIC_3966064.JPG
break,html.Screen,4_34_1,2023-11-01T18:44:28.113Z,,0,,,NaN,,,,,,false,,,,285550.60000002384,285550.2000000477,,285549.89999997616,,285555.225,8,400,,,
break_continue,html.Screen,4_34_2,2023-11-01T18:44:28.113Z,,0,,,NaN,,,,,,false,,,,285551,285550.89999997616,,285550.7000000477,,285555.225,8,400,,,
sequence,flow.Sequence,4_34,2023-11-01T18:44:28.113Z,,0,,,5489.507999976166,completion,,,,,false,,,,285551.3000000715,285550.89999997616,280058.036,280060,280061.392,285555.225,8,400,,,
trial,html.Screen,4_35_0,2023-11-01T18:44:34.180Z,,0,1,,6062.575000071549,response,ISIC_7137773.JPG,5,ISIC_1768733.JPG,ISIC_1768733.JPG,false,0,keypress(z),500,291618,291617.8000000715,285548.772,285551.60000002384,285555.225,291621.488,8,400,36,,ISIC_7137773.JPG
break,html.Screen,4_35_1,2023-11-01T18:44:34.180Z,,0,,,NaN,,,,,,false,,,,291618.3000000715,291618.3000000715,,291618.10000002384,,291621.488,8,400,,,
break_continue,html.Screen,4_35_2,2023-11-01T18:44:34.181Z,,0,,,NaN,,,,,,false,,,,291618.5,291618.5,,291618.39999997616,,291621.488,8,400,,,
sequence,flow.Sequence,4_35,2023-11-01T18:44:34.181Z,,0,,,6063.275000000023,completion,,,,,false,,,,291618.60000002384,291618.5,285548.772,285551.60000002384,285555.225,291621.488,8,400,,,
trial,html.Screen,4_36_0,2023-11-01T18:44:39.767Z,,0,1,,5583.11200002383,response,ISIC_0000384.JPG,6,ISIC_0011158.JPG,ISIC_0000384.JPG,false,1,keypress(m),500,297204.8000000715,297204.60000002384,291618.228,291618.60000002384,291621.488,297209.438,8,400,37,,ISIC_0011158.JPG
break,html.Screen,4_36_1,2023-11-01T18:44:39.767Z,,0,,,NaN,,,,,,false,,,,297205.10000002384,297205.10000002384,,297204.89999997616,,297209.438,8,400,,,
break_continue,html.Screen,4_36_2,2023-11-01T18:44:39.767Z,,0,,,NaN,,,,,,false,,,,297205.2000000477,297205.10000002384,,297205.10000002384,,297209.438,8,400,,,
sequence,flow.Sequence,4_36,2023-11-01T18:44:39.767Z,,0,,,5583.61200002383,completion,,,,,false,,,,297205.3000000715,297205.10000002384,291618.228,291618.60000002384,291621.488,297209.438,8,400,,,
trial,html.Screen,4_37_0,2023-11-01T18:44:44.265Z,,0,1,,4493.76200004766,response,ISIC_0058946.JPG,5,ISIC_0065537.JPG,ISIC_0058946.JPG,false,1,keypress(m),500,301703.2000000477,301703.2000000477,297203.226,297205.3000000715,297209.438,301708.067,8,400,38,,ISIC_0065537.JPG
break,html.Screen,4_37_1,2023-11-01T18:44:44.266Z,,0,,,NaN,,,,,,false,,,,301703.7000000477,301703.60000002384,,301703.39999997616,,301708.067,8,400,,,
break_continue,html.Screen,4_37_2,2023-11-01T18:44:44.266Z,,0,,,NaN,,,,,,false,,,,301703.89999997616,301703.8000000715,,301703.8000000715,,301708.067,8,400,,,
sequence,flow.Sequence,4_37,2023-11-01T18:44:44.266Z,,0,,,4494.362000071502,completion,,,,,false,,,,301704.10000002384,301703.8000000715,297203.226,297205.3000000715,297209.438,301708.067,8,400,,,
trial,html.Screen,4_38_0,2023-11-01T18:44:47.484Z,,0,1,,3214.133000047703,response,ISIC_0011491.JPG,5,ISIC_0033804.JPG,ISIC_0033804.JPG,false,0,keypress(z),500,304922.3000000715,304922.2000000477,301701.299,301704.2000000477,301708.067,304925.413,8,400,39,,ISIC_0011491.JPG
break,html.Screen,4_38_1,2023-11-01T18:44:47.485Z,,0,,,NaN,,,,,,false,,,,304922.5,304922.5,,304922.3000000715,,304925.413,8,400,,,
break_continue,html.Screen,4_38_2,2023-11-01T18:44:47.485Z,,0,,,NaN,,,,,,false,,,,304922.89999997616,304922.7000000477,,304922.60000002384,,304925.413,8,400,,,
sequence,flow.Sequence,4_38,2023-11-01T18:44:47.485Z,,0,,,3214.633000047703,completion,,,,,false,,,,304922.89999997616,304922.7000000477,301701.299,301704.10000002384,301708.067,304925.413,8,400,,,
trial,html.Screen,4_39_0,2023-11-01T18:44:51.904Z,,0,1,,4415.787000047683,response,ISIC_0015241.JPG,5,ISIC_7630208.JPG,ISIC_0015241.JPG,false,1,keypress(m),500,309341.5,309341.2000000477,304921.091,304923.10000002384,304925.413,309343.404,8,400,40,,ISIC_7630208.JPG
break,html.Screen,4_39_1,2023-11-01T18:44:51.904Z,,0,,,NaN,,,,,,false,,,,309342.10000002384,309341.89999997616,,309341.7000000477,,309343.404,8,400,,,
break_continue,html.Screen,4_39_2,2023-11-01T18:44:51.904Z,,0,,,NaN,,,,,,false,,,,309342.2000000477,309342.10000002384,,309342.10000002384,,309343.404,8,400,,,
sequence,flow.Sequence,4_39,2023-11-01T18:44:51.904Z,,0,,,4416.687000023841,completion,,,,,false,,,,309342.3000000715,309342.10000002384,304921.091,304923,304925.413,309343.404,8,400,,,
trial,html.Screen,4_40_0,2023-11-01T18:44:58.130Z,,0,1,,6224.696000023861,response,ISIC_0001101.JPG,6,ISIC_0010194.JPG,ISIC_0001101.JPG,false,1,keypress(m),500,315568.2000000477,315568.10000002384,309340.23,309342.39999997616,309343.404,315572.917,8,400,41,,ISIC_0010194.JPG
break,html.Screen,4_40_1,2023-11-01T18:44:58.131Z,,0,,,NaN,,,,,,false,,,,315568.60000002384,315568.39999997616,,315568.3000000715,,315572.917,8,400,,,
break_continue,html.Screen,4_40_2,2023-11-01T18:44:58.131Z,,0,,,NaN,,,,,,false,,,,315568.7000000477,315568.7000000477,,315568.7000000477,,315572.917,8,400,,,
sequence,flow.Sequence,4_40,2023-11-01T18:44:58.131Z,,0,,,6225.296000047703,completion,,,,,false,,,,315568.7000000477,315568.7000000477,309340.23,309342.39999997616,309343.404,315572.917,8,400,,,
trial,html.Screen,4_41_0,2023-11-01T18:45:03.269Z,,0,1,,5133.482999976142,response,ISIC_9125409.JPG,6,ISIC_9696846.JPG,ISIC_9696846.JPG,false,0,keypress(z),500,320706.39999997616,320706.39999997616,315568.37,315568.8000000715,315572.917,320709.09,8,400,42,,ISIC_9125409.JPG
break,html.Screen,4_41_1,2023-11-01T18:45:03.269Z,,0,,,NaN,,,,,,false,,,,320706.7000000477,320706.7000000477,,320706.5,,320709.09,8,400,,,
break_continue,html.Screen,4_41_2,2023-11-01T18:45:03.269Z,,0,,,NaN,,,,,,false,,,,320706.89999997616,320706.89999997616,,320706.8000000715,,320709.09,8,400,,,
sequence,flow.Sequence,4_41,2023-11-01T18:45:03.269Z,,0,,,5133.982999976142,completion,,,,,false,,,,320707,320706.89999997616,315568.37,315568.8000000715,315572.917,320709.09,8,400,,,
trial,html.Screen,4_42_0,2023-11-01T18:45:08.967Z,,0,1,,5695.8099999761325,response,ISIC_1569775.JPG,6,ISIC_0033121.JPG,ISIC_0033121.JPG,false,0,keypress(z),500,326405.10000002384,326404.89999997616,320705.523,320707,320709.09,326407.197,8,400,43,,ISIC_1569775.JPG
break,html.Screen,4_42_1,2023-11-01T18:45:08.967Z,,0,,,NaN,,,,,,false,,,,326405.39999997616,326405.39999997616,,326405.2000000477,,326407.197,8,400,,,
break_continue,html.Screen,4_42_2,2023-11-01T18:45:08.968Z,,0,,,NaN,,,,,,false,,,,326405.5,326405.5,,326405.39999997616,,326407.197,8,400,,,
sequence,flow.Sequence,4_42,2023-11-01T18:45:08.968Z,,0,,,5696.409999999974,completion,,,,,false,,,,326405.60000002384,326405.5,320705.523,320707,320709.09,326407.197,8,400,,,
trial,html.Screen,4_43_0,2023-11-01T18:45:12.377Z,,0,1,,3407.7029999761726,response,ISIC_0063680.JPG,4,ISIC_0659400.JPG,ISIC_0659400.JPG,false,0,keypress(z),500,329815.10000002384,329814.89999997616,326403.678,326405.60000002384,326407.197,329817.248,8,400,44,,ISIC_0063680.JPG
break,html.Screen,4_43_1,2023-11-01T18:45:12.377Z,,0,,,NaN,,,,,,false,,,,329815.39999997616,329815.3000000715,,329815.2000000477,,329817.248,8,400,,,
break_continue,html.Screen,4_43_2,2023-11-01T18:45:12.378Z,,0,,,NaN,,,,,,false,,,,329815.5,329815.5,,329815.39999997616,,329817.248,8,400,,,
sequence,flow.Sequence,4_43,2023-11-01T18:45:12.378Z,,0,,,3408.3030000000144,completion,,,,,false,,,,329815.60000002384,329815.5,326403.678,326405.60000002384,326407.197,329817.248,8,400,,,
trial,html.Screen,4_44_0,2023-11-01T18:45:16.236Z,,0,1,,3856.1519999761367,response,ISIC_7254359.JPG,5,ISIC_6562871.JPG,ISIC_6562871.JPG,false,0,keypress(z),500,333673.5,333673.39999997616,329815.429,329815.60000002384,329817.248,333677.033,8,400,45,,ISIC_7254359.JPG
break,html.Screen,4_44_1,2023-11-01T18:45:16.236Z,,0,,,NaN,,,,,,false,,,,333674.3000000715,333674.10000002384,,333673.8000000715,,333677.033,8,400,,,
break_continue,html.Screen,4_44_2,2023-11-01T18:45:16.237Z,,0,,,NaN,,,,,,false,,,,333674.7000000477,333674.39999997616,,333674.39999997616,,333677.033,8,400,,,
sequence,flow.Sequence,4_44,2023-11-01T18:45:16.237Z,,0,,,3857.1519999761367,completion,,,,,false,,,,333674.7000000477,333674.39999997616,329815.429,329815.60000002384,329817.248,333677.033,8,400,,,
trial,html.Screen,4_45_0,2023-11-01T18:45:20.751Z,,0,1,,4512.067000023846,response,ISIC_0056915.JPG,6,ISIC_3623368.JPG,ISIC_3623368.JPG,false,0,keypress(z),500,338189.2000000477,338189.10000002384,333673.311,333674.7000000477,333677.033,338192.246,8,400,46,,ISIC_0056915.JPG
break,html.Screen,4_45_1,2023-11-01T18:45:20.752Z,,0,,,NaN,,,,,,false,,,,338189.60000002384,338189.60000002384,,338189.39999997616,,338192.246,8,400,,,
break_continue,html.Screen,4_45_2,2023-11-01T18:45:20.752Z,,0,,,NaN,,,,,,false,,,,338189.7000000477,338189.60000002384,,338189.60000002384,,338192.246,8,400,,,
sequence,flow.Sequence,4_45,2023-11-01T18:45:20.752Z,,0,,,4512.567000023846,completion,,,,,false,,,,338189.8000000715,338189.60000002384,333673.311,333674.7000000477,333677.033,338192.246,8,400,,,
trial,html.Screen,4_46_0,2023-11-01T18:45:24.738Z,,0,1,,3983.1539999761735,response,ISIC_7956417.JPG,5,ISIC_0028135.JPG,ISIC_0028135.JPG,false,0,keypress(z),500,342175.5,342175.39999997616,338188.094,338189.89999997616,338192.246,342177.043,8,400,47,,ISIC_7956417.JPG
break,html.Screen,4_46_1,2023-11-01T18:45:24.738Z,,0,,,NaN,,,,,,false,,,,342175.8000000715,342175.8000000715,,342175.60000002384,,342177.043,8,400,,,
break_continue,html.Screen,4_46_2,2023-11-01T18:45:24.738Z,,0,,,NaN,,,,,,false,,,,342176,342175.89999997616,,342175.89999997616,,342177.043,8,400,,,
sequence,flow.Sequence,4_46,2023-11-01T18:45:24.738Z,,0,,,3983.6539999761735,completion,,,,,false,,,,342176,342175.89999997616,338188.094,338189.89999997616,338192.246,342177.043,8,400,,,
trial,html.Screen,4_47_0,2023-11-01T18:45:28.388Z,,0,1,,3648.356999976153,response,ISIC_0056339.JPG,6,ISIC_1637536.JPG,ISIC_0056339.JPG,false,1,keypress(m),500,345825.60000002384,345825.39999997616,342175.737,342176,342177.043,345828.573,8,400,48,,ISIC_1637536.JPG
break,html.Screen,4_47_1,2023-11-01T18:45:28.388Z,,0,,,NaN,,,,,,false,,,,345825.89999997616,345825.89999997616,,345825.60000002384,,345828.573,8,400,,,
break_continue,html.Screen,4_47_2,2023-11-01T18:45:28.388Z,,0,,,NaN,,,,,,false,,,,345826,345826,,345826,,345828.573,8,400,,,
sequence,flow.Sequence,4_47,2023-11-01T18:45:28.388Z,,0,,,3648.956999999995,completion,,,,,false,,,,345826,345826,342175.737,342176,342177.043,345828.573,8,400,,,
trial,html.Screen,4_48_0,2023-11-01T18:45:34.006Z,,0,1,,5615.427000000025,response,ISIC_5434229.JPG,6,ISIC_6694724.JPG,ISIC_5434229.JPG,false,1,keypress(m),500,351444,351444,345824.478,345826.10000002384,345828.573,351446.188,8,400,49,,ISIC_6694724.JPG
break,html.Screen,4_48_1,2023-11-01T18:45:34.006Z,,0,,,NaN,,,,,,false,,,,351444.3000000715,351444.3000000715,,351444.10000002384,,351446.188,8,400,,,
break_continue,html.Screen,4_48_2,2023-11-01T18:45:34.007Z,,0,,,NaN,,,,,,false,,,,351444.5,351444.5,,351444.5,,351446.188,8,400,,,
sequence,flow.Sequence,4_48,2023-11-01T18:45:34.007Z,,0,,,5615.927000000025,completion,,,,,false,,,,351444.60000002384,351444.5,345824.478,345826.10000002384,345828.573,351446.188,8,400,,,
trial,html.Screen,4_49_0,2023-11-01T18:45:38.312Z,,0,1,,4303.912000023818,response,ISIC_9527051.JPG,5,ISIC_0011546.JPG,ISIC_9527051.JPG,false,1,keypress(m),500,355750.10000002384,355750.10000002384,351442.441,351444.60000002384,351446.188,355752.965,8,400,50,,ISIC_0011546.JPG
break,html.Screen,4_49_1,2023-11-01T18:45:48.312Z,,0,,,9999.527000000002,timeout,,,,,false,,,,365750.2000000477,365749.696,355750.333,355750.3000000715,355752.965,365752.492,8,400,,,
break_continue,html.Screen,4_49_2,2023-11-01T18:47:09.246Z,,0,,,80923.60800002381,response,,,,,false,continue,keypress(Space),,446683.89999997616,446676.10000002384,365749.696,365750.3000000715,365752.492,446686.958,8,400,,,
sequence,flow.Sequence,4_49,2023-11-01T18:47:09.246Z,,0,,,95229.91200002382,completion,,,,,false,,,,446684.10000002384,446676.10000002384,351442.441,351444.60000002384,351446.188,446686.958,8,400,,,
trial,html.Screen,4_50_0,2023-11-01T18:47:13.217Z,,0,2,,3967.441999976174,response,ISIC_0058199.JPG,5,ISIC_0002899.JPG,ISIC_0002899.JPG,false,0,keypress(z),500,450654.5,450654.39999997616,446684.173,446684.2000000477,446686.958,450657.874,8,400,1,,ISIC_0058199.JPG
break,html.Screen,4_50_1,2023-11-01T18:47:13.217Z,,0,,,NaN,,,,,,false,,,,450655,450654.89999997616,,450654.8000000715,,450657.874,8,400,,,
break_continue,html.Screen,4_50_2,2023-11-01T18:47:13.217Z,,0,,,NaN,,,,,,false,,,,450655.39999997616,450655.3000000715,,450655.10000002384,,450657.874,8,400,,,
sequence,flow.Sequence,4_50,2023-11-01T18:47:13.218Z,,0,,,3968.3420000715414,completion,,,,,false,,,,450655.5,450655.3000000715,446684.173,446684.10000002384,446686.958,450657.874,8,400,,,
trial,html.Screen,4_51_0,2023-11-01T18:47:16.548Z,,0,2,,3327.6259999999893,response,ISIC_0072412.JPG,5,ISIC_0413173.JPG,ISIC_0072412.JPG,false,1,keypress(m),500,453985.60000002384,453985.5,450654.938,450655.60000002384,450657.874,453987.313,8,400,2,,ISIC_0413173.JPG
break,html.Screen,4_51_1,2023-11-01T18:47:16.548Z,,0,,,NaN,,,,,,false,,,,453986,453985.89999997616,,453985.7000000477,,453987.313,8,400,,,
break_continue,html.Screen,4_51_2,2023-11-01T18:47:16.548Z,,0,,,NaN,,,,,,false,,,,453986.10000002384,453986.10000002384,,453986.10000002384,,453987.313,8,400,,,
sequence,flow.Sequence,4_51,2023-11-01T18:47:16.548Z,,0,,,3328.226000023831,completion,,,,,false,,,,453986.2000000477,453986.10000002384,450654.938,450655.60000002384,450657.874,453987.313,8,400,,,
trial,html.Screen,4_52_0,2023-11-01T18:47:19.926Z,,0,2,,3376.38700004766,response,ISIC_0000395.JPG,6,ISIC_0006327.JPG,ISIC_0006327.JPG,false,0,keypress(z),500,457363.89999997616,457363.7000000477,453983.628,453986.3000000715,453987.313,457366.761,8,400,3,,ISIC_0000395.JPG
break,html.Screen,4_52_1,2023-11-01T18:47:19.926Z,,0,,,NaN,,,,,,false,,,,457364.3000000715,457364.2000000477,,457363.89999997616,,457366.761,8,400,,,
break_continue,html.Screen,4_52_2,2023-11-01T18:47:19.927Z,,0,,,NaN,,,,,,false,,,,457364.60000002384,457364.5,,457364.39999997616,,457366.761,8,400,,,
sequence,flow.Sequence,4_52,2023-11-01T18:47:19.927Z,,0,,,3377.1869999999763,completion,,,,,false,,,,457364.7000000477,457364.5,453983.628,453986.3000000715,453987.313,457366.761,8,400,,,
trial,html.Screen,4_53_0,2023-11-01T18:47:23.641Z,,0,2,,3711.939000047685,response,ISIC_0055450.JPG,5,ISIC_8423326.JPG,ISIC_0055450.JPG,false,1,keypress(m),500,461078.8000000715,461078.7000000477,457363.042,457364.7000000477,457366.761,461082.589,8,400,4,,ISIC_8423326.JPG
break,html.Screen,4_53_1,2023-11-01T18:47:23.641Z,,0,,,NaN,,,,,,false,,,,461079.2000000477,461079,,461078.89999997616,,461082.589,8,400,,,
break_continue,html.Screen,4_53_2,2023-11-01T18:47:23.641Z,,0,,,NaN,,,,,,false,,,,461079.3000000715,461079.2000000477,,461079.2000000477,,461082.589,8,400,,,
sequence,flow.Sequence,4_53,2023-11-01T18:47:23.641Z,,0,,,3712.439000047685,completion,,,,,false,,,,461079.3000000715,461079.2000000477,457363.042,457364.7000000477,457366.761,461082.589,8,400,,,
trial,html.Screen,4_54_0,2023-11-01T18:47:27.403Z,,0,2,,3758.411000000022,response,ISIC_0033530.JPG,5,ISIC_0028018.JPG,ISIC_0028018.JPG,false,0,keypress(z),500,464841.2000000477,464841,461079.077,461079.39999997616,461082.589,464845.735,8,400,5,,ISIC_0033530.JPG
break,html.Screen,4_54_1,2023-11-01T18:47:27.404Z,,0,,,NaN,,,,,,false,,,,464841.60000002384,464841.39999997616,,464841.3000000715,,464845.735,8,400,,,
break_continue,html.Screen,4_54_2,2023-11-01T18:47:27.404Z,,0,,,NaN,,,,,,false,,,,464841.7000000477,464841.60000002384,,464841.60000002384,,464845.735,8,400,,,
sequence,flow.Sequence,4_54,2023-11-01T18:47:27.404Z,,0,,,3759.0110000238637,completion,,,,,false,,,,464841.7000000477,464841.60000002384,461079.077,461079.39999997616,461082.589,464845.735,8,400,,,
trial,html.Screen,4_55_0,2023-11-01T18:47:31.342Z,,0,2,,3933.664999976172,response,ISIC_1080647.JPG,5,ISIC_9987485.JPG,ISIC_1080647.JPG,false,1,keypress(m),500,468779.60000002384,468779.39999997616,464839.069,464841.7000000477,464845.735,468782.38,8,400,6,,ISIC_9987485.JPG
break,html.Screen,4_55_1,2023-11-01T18:47:31.342Z,,0,,,NaN,,,,,,false,,,,468780.10000002384,468780,,468779.60000002384,,468782.38,8,400,,,
break_continue,html.Screen,4_55_2,2023-11-01T18:47:31.342Z,,0,,,NaN,,,,,,false,,,,468780.39999997616,468780.3000000715,,468780.2000000477,,468782.38,8,400,,,
sequence,flow.Sequence,4_55,2023-11-01T18:47:31.343Z,,0,,,3934.5650000715395,completion,,,,,false,,,,468780.5,468780.3000000715,464839.069,464841.7000000477,464845.735,468782.38,8,400,,,
trial,html.Screen,4_56_0,2023-11-01T18:47:35.377Z,,0,2,,4032.320000047679,response,ISIC_0070136.JPG,6,ISIC_0009958.JPG,ISIC_0070136.JPG,false,1,keypress(m),500,472814.89999997616,472814.7000000477,468779.308,468780.60000002384,468782.38,472817.242,8,400,7,,ISIC_0009958.JPG
break,html.Screen,4_56_1,2023-11-01T18:47:35.378Z,,0,,,NaN,,,,,,false,,,,472815.5,472815.39999997616,,472814.89999997616,,472817.242,8,400,,,
break_continue,html.Screen,4_56_2,2023-11-01T18:47:35.378Z,,0,,,NaN,,,,,,false,,,,472815.8000000715,472815.7000000477,,472815.7000000477,,472817.242,8,400,,,
sequence,flow.Sequence,4_56,2023-11-01T18:47:35.378Z,,0,,,4033.320000047679,completion,,,,,false,,,,472815.8000000715,472815.7000000477,468779.308,468780.60000002384,468782.38,472817.242,8,400,,,
trial,html.Screen,4_57_0,2023-11-01T18:47:41.060Z,,0,2,,5681.058000071498,response,ISIC_3213469.JPG,4,ISIC_4033676.JPG,ISIC_4033676.JPG,false,0,keypress(z),500,478498.39999997616,478498.3000000715,472814.077,472815.89999997616,472817.242,478501.407,8,400,8,,ISIC_3213469.JPG
break,html.Screen,4_57_1,2023-11-01T18:47:41.061Z,,0,,,NaN,,,,,,false,,,,478498.7000000477,478498.7000000477,,478498.5,,478501.407,8,400,,,
break_continue,html.Screen,4_57_2,2023-11-01T18:47:41.061Z,,0,,,NaN,,,,,,false,,,,478498.89999997616,478498.89999997616,,478498.8000000715,,478501.407,8,400,,,
sequence,flow.Sequence,4_57,2023-11-01T18:47:41.061Z,,0,,,5681.657999976131,completion,,,,,false,,,,478499,478498.89999997616,472814.077,472815.89999997616,472817.242,478501.407,8,400,,,
trial,html.Screen,4_58_0,2023-11-01T18:47:45.782Z,,0,2,,4718.393000071519,response,ISIC_0034044.JPG,5,ISIC_0010145.JPG,ISIC_0034044.JPG,false,1,keypress(m),500,483220.10000002384,483219.8000000715,478497.744,478499,478501.407,483222.081,8,400,9,,ISIC_0010145.JPG
break,html.Screen,4_58_1,2023-11-01T18:47:45.783Z,,0,,,NaN,,,,,,false,,,,483220.60000002384,483220.39999997616,,483220.2000000477,,483222.081,8,400,,,
break_continue,html.Screen,4_58_2,2023-11-01T18:47:45.783Z,,0,,,NaN,,,,,,false,,,,483221,483221,,483220.8000000715,,483222.081,8,400,,,
sequence,flow.Sequence,4_58,2023-11-01T18:47:45.783Z,,0,,,4719.5929999999935,completion,,,,,false,,,,483221,483221,478497.744,478499,478501.407,483222.081,8,400,,,
trial,html.Screen,4_59_0,2023-11-01T18:47:50.681Z,,0,2,,4896.418999999994,response,ISIC_0006118.JPG,5,ISIC_0065378.JPG,ISIC_0065378.JPG,false,0,keypress(z),500,488118.60000002384,488118.5,483219.019,483221.10000002384,483222.081,488120.429,8,400,10,,ISIC_0006118.JPG
break,html.Screen,4_59_1,2023-11-01T18:47:50.681Z,,0,,,NaN,,,,,,false,,,,488118.8000000715,488118.8000000715,,488118.60000002384,,488120.429,8,400,,,
break_continue,html.Screen,4_59_2,2023-11-01T18:47:50.681Z,,0,,,NaN,,,,,,false,,,,488119,488119,,488118.89999997616,,488120.429,8,400,,,
sequence,flow.Sequence,4_59,2023-11-01T18:47:50.681Z,,0,,,4896.918999999994,completion,,,,,false,,,,488119.10000002384,488119,483219.019,483221.10000002384,483222.081,488120.429,8,400,,,
trial,html.Screen,4_60_0,2023-11-01T18:47:55.323Z,,0,2,,4640.570999999996,response,ISIC_8887039.JPG,5,ISIC_0027100.JPG,ISIC_0027100.JPG,false,0,keypress(z),500,492761.10000002384,492761,488117.043,488119.10000002384,488120.429,492763.396,8,400,11,,ISIC_8887039.JPG
break,html.Screen,4_60_1,2023-11-01T18:47:55.324Z,,0,,,NaN,,,,,,false,,,,492761.60000002384,492761.5,,492761.3000000715,,492763.396,8,400,,,
break_continue,html.Screen,4_60_2,2023-11-01T18:47:55.324Z,,0,,,NaN,,,,,,false,,,,492761.8000000715,492761.7000000477,,492761.7000000477,,492763.396,8,400,,,
sequence,flow.Sequence,4_60,2023-11-01T18:47:55.324Z,,0,,,4641.27100004768,completion,,,,,false,,,,492761.89999997616,492761.7000000477,488117.043,488119.10000002384,488120.429,492763.396,8,400,,,
trial,html.Screen,4_61_0,2023-11-01T18:47:59.694Z,,0,2,,4368.304000047676,response,ISIC_0056192.JPG,6,ISIC_6714923.JPG,ISIC_6714923.JPG,false,0,keypress(z),500,497131.89999997616,497131.7000000477,492760.102,492762,492763.396,497134.151,8,400,12,,ISIC_0056192.JPG
break,html.Screen,4_61_1,2023-11-01T18:47:59.694Z,,0,,,NaN,,,,,,false,,,,497132.5,497132.2000000477,,497132,,497134.151,8,400,,,
break_continue,html.Screen,4_61_2,2023-11-01T18:47:59.695Z,,0,,,NaN,,,,,,false,,,,497132.60000002384,497132.60000002384,,497132.5,,497134.151,8,400,,,
sequence,flow.Sequence,4_61,2023-11-01T18:47:59.695Z,,0,,,4369.204000023834,completion,,,,,false,,,,497132.7000000477,497132.60000002384,492760.102,492761.89999997616,492763.396,497134.151,8,400,,,
trial,html.Screen,4_62_0,2023-11-01T18:48:03.665Z,,0,2,,3968.7489999761456,response,ISIC_9063429.JPG,4,ISIC_0069952.JPG,ISIC_0069952.JPG,false,0,keypress(z),500,501103.10000002384,501102.89999997616,497131.102,497132.8000000715,497134.151,501105.088,8,400,13,,ISIC_9063429.JPG
break,html.Screen,4_62_1,2023-11-01T18:48:03.666Z,,0,,,NaN,,,,,,false,,,,501103.60000002384,501103.5,,501103.3000000715,,501105.088,8,400,,,
break_continue,html.Screen,4_62_2,2023-11-01T18:48:03.666Z,,0,,,NaN,,,,,,false,,,,501103.7000000477,501103.7000000477,,501103.60000002384,,501105.088,8,400,,,
sequence,flow.Sequence,4_62,2023-11-01T18:48:03.666Z,,0,,,3969.549000047671,completion,,,,,false,,,,501103.8000000715,501103.7000000477,497131.102,497132.8000000715,497134.151,501105.088,8,400,,,
trial,html.Screen,4_63_0,2023-11-01T18:48:07.604Z,,0,2,,3936.2120000715367,response,ISIC_7980339.JPG,5,ISIC_0066114.JPG,ISIC_7980339.JPG,false,1,keypress(m),500,505041.39999997616,505041.3000000715,501102.165,501103.89999997616,501105.088,505046.049,8,400,14,,ISIC_0066114.JPG
break,html.Screen,4_63_1,2023-11-01T18:48:07.604Z,,0,,,NaN,,,,,,false,,,,505042,505041.8000000715,,505041.7000000477,,505046.049,8,400,,,
break_continue,html.Screen,4_63_2,2023-11-01T18:48:07.604Z,,0,,,NaN,,,,,,false,,,,505042.10000002384,505042.10000002384,,505042,,505046.049,8,400,,,
sequence,flow.Sequence,4_63,2023-11-01T18:48:07.604Z,,0,,,3937.012000023853,completion,,,,,false,,,,505042.10000002384,505042.10000002384,501102.165,501103.89999997616,501105.088,505046.049,8,400,,,
trial,html.Screen,4_64_0,2023-11-01T18:48:13.831Z,,0,2,,6222.7510000715265,response,ISIC_0057881.JPG,5,ISIC_9747194.JPG,ISIC_9747194.JPG,false,0,keypress(z),500,511268.89999997616,511268.8000000715,505040.133,505042.2000000477,505046.049,511271.168,8,400,15,,ISIC_0057881.JPG
break,html.Screen,4_64_1,2023-11-01T18:48:13.831Z,,0,,,NaN,,,,,,false,,,,511269.2000000477,511269.2000000477,,511269,,511271.168,8,400,,,
break_continue,html.Screen,4_64_2,2023-11-01T18:48:13.831Z,,0,,,NaN,,,,,,false,,,,511269.39999997616,511269.3000000715,,511269.3000000715,,511271.168,8,400,,,
sequence,flow.Sequence,4_64,2023-11-01T18:48:13.831Z,,0,,,6223.2510000715265,completion,,,,,false,,,,511269.39999997616,511269.3000000715,505040.133,505042.10000002384,505046.049,511271.168,8,400,,,
trial,html.Screen,4_65_0,2023-11-01T18:48:19.913Z,,0,2,,6079.432000023837,response,ISIC_0066637.JPG,4,ISIC_3466769.JPG,ISIC_3466769.JPG,false,0,keypress(z),500,517350.7000000477,517350.60000002384,511268.24,511269.39999997616,511271.168,517352.561,8,400,16,,ISIC_0066637.JPG
break,html.Screen,4_65_1,2023-11-01T18:48:19.913Z,,0,,,NaN,,,,,,false,,,,517351.10000002384,517351,,517350.8000000715,,517352.561,8,400,,,
break_continue,html.Screen,4_65_2,2023-11-01T18:48:19.913Z,,0,,,NaN,,,,,,false,,,,517351.2000000477,517351.2000000477,,517351.2000000477,,517352.561,8,400,,,
sequence,flow.Sequence,4_65,2023-11-01T18:48:19.913Z,,0,,,6080.032000047679,completion,,,,,false,,,,517351.3000000715,517351.2000000477,511268.24,511269.39999997616,511271.168,517352.561,8,400,,,
trial,html.Screen,4_66_0,2023-11-01T18:48:26.123Z,,0,2,,6208.139000047697,response,ISIC_0002258.JPG,4,ISIC_7642500.JPG,ISIC_7642500.JPG,false,0,keypress(z),500,523560.89999997616,523560.7000000477,517348.857,517351.3000000715,517352.561,523565.578,8,400,17,,ISIC_0002258.JPG
break,html.Screen,4_66_1,2023-11-01T18:48:26.123Z,,0,,,NaN,,,,,,false,,,,523561.39999997616,523561.3000000715,,523561,,523565.578,8,400,,,
break_continue,html.Screen,4_66_2,2023-11-01T18:48:26.124Z,,0,,,NaN,,,,,,false,,,,523561.60000002384,523561.60000002384,,523561.5,,523565.578,8,400,,,
sequence,flow.Sequence,4_66,2023-11-01T18:48:26.124Z,,0,,,6209.039000023855,completion,,,,,false,,,,523561.60000002384,523561.60000002384,517348.857,517351.3000000715,517352.561,523565.578,8,400,,,
trial,html.Screen,4_67_0,2023-11-01T18:48:31.245Z,,0,2,,5117.4220000000205,response,ISIC_0030900.JPG,5,ISIC_1383822.JPG,ISIC_1383822.JPG,false,0,keypress(z),500,528683.2000000477,528683,523558.979,523561.7000000477,523565.578,528684.899,8,400,18,,ISIC_0030900.JPG
break,html.Screen,4_67_1,2023-11-01T18:48:31.246Z,,0,,,NaN,,,,,,false,,,,528683.7000000477,528683.5,,528683.3000000715,,528684.899,8,400,,,
break_continue,html.Screen,4_67_2,2023-11-01T18:48:31.246Z,,0,,,NaN,,,,,,false,,,,528683.8000000715,528683.8000000715,,528683.7000000477,,528684.899,8,400,,,
sequence,flow.Sequence,4_67,2023-11-01T18:48:31.246Z,,0,,,5118.222000071546,completion,,,,,false,,,,528683.8000000715,528683.8000000715,523558.979,523561.7000000477,523565.578,528684.899,8,400,,,
trial,html.Screen,4_68_0,2023-11-01T18:48:34.544Z,,0,2,,3296.5009999761824,response,ISIC_0031010.JPG,4,ISIC_4728200.JPG,ISIC_4728200.JPG,false,0,keypress(z),500,531981.7000000477,531981.3999999762,528681.625,528683.8999999762,528684.899,531983.752,8,400,19,,ISIC_0031010.JPG
break,html.Screen,4_68_1,2023-11-01T18:48:34.545Z,,0,,,NaN,,,,,,false,,,,531982.5,531982.3000000715,,531981.8999999762,,531983.752,8,400,,,
break_continue,html.Screen,4_68_2,2023-11-01T18:48:34.545Z,,0,,,NaN,,,,,,false,,,,531982.8999999762,531982.7000000477,,531982.6000000238,,531983.752,8,400,,,
sequence,flow.Sequence,4_68,2023-11-01T18:48:34.545Z,,0,,,3297.801000047708,completion,,,,,false,,,,531983,531982.7000000477,528681.625,528683.8000000715,528684.899,531983.752,8,400,,,
trial,html.Screen,4_69_0,2023-11-01T18:48:39.411Z,,0,2,,4865.348000023863,response,ISIC_0013842.JPG,5,ISIC_7172145.JPG,ISIC_0013842.JPG,false,1,keypress(m),500,536849.3000000715,536849.1000000238,531980.554,531983,531983.752,536851.634,8,400,20,,ISIC_7172145.JPG
break,html.Screen,4_69_1,2023-11-01T18:48:39.412Z,,0,,,NaN,,,,,,false,,,,536849.7000000477,536849.6000000238,,536849.3999999762,,536851.634,8,400,,,
break_continue,html.Screen,4_69_2,2023-11-01T18:48:39.412Z,,0,,,NaN,,,,,,false,,,,536849.8999999762,536849.8999999762,,536849.8000000715,,536851.634,8,400,,,
sequence,flow.Sequence,4_69,2023-11-01T18:48:39.412Z,,0,,,4866.14799997618,completion,,,,,false,,,,536850,536849.8999999762,531980.554,531983,531983.752,536851.634,8,400,,,
trial,html.Screen,4_70_0,2023-11-01T18:48:43.142Z,,0,2,,3728.2659999761963,response,ISIC_1883330.JPG,5,ISIC_1265382.JPG,ISIC_1883330.JPG,false,1,keypress(m),500,540580.1000000238,540579.8999999762,536848.318,536850,536851.634,540584.784,8,400,21,,ISIC_1265382.JPG
break,html.Screen,4_70_1,2023-11-01T18:48:43.142Z,,0,,,NaN,,,,,,false,,,,540580.3000000715,540580.3000000715,,540580.2000000477,,540584.784,8,400,,,
break_continue,html.Screen,4_70_2,2023-11-01T18:48:43.143Z,,0,,,NaN,,,,,,false,,,,540580.5,540580.3999999762,,540580.3999999762,,540584.784,8,400,,,
sequence,flow.Sequence,4_70,2023-11-01T18:48:43.143Z,,0,,,3728.7659999761963,completion,,,,,false,,,,540580.5,540580.3999999762,536848.318,536850,536851.634,540584.784,8,400,,,
trial,html.Screen,4_71_0,2023-11-01T18:48:47.112Z,,0,2,,3965.0160000715405,response,ISIC_0014144.JPG,5,ISIC_2621288.JPG,ISIC_2621288.JPG,false,0,keypress(z),500,544550,544549.8000000715,540577.713,540580.6000000238,540584.784,544551.862,8,400,22,,ISIC_0014144.JPG
break,html.Screen,4_71_1,2023-11-01T18:48:47.112Z,,0,,,NaN,,,,,,false,,,,544550.3000000715,544550.2000000477,,544550.1000000238,,544551.862,8,400,,,
break_continue,html.Screen,4_71_2,2023-11-01T18:48:47.113Z,,0,,,NaN,,,,,,false,,,,544550.5,544550.5,,544550.3000000715,,544551.862,8,400,,,
sequence,flow.Sequence,4_71,2023-11-01T18:48:47.113Z,,0,,,3965.716000000015,completion,,,,,false,,,,544550.6000000238,544550.5,540577.713,540580.6000000238,540584.784,544551.862,8,400,,,
trial,html.Screen,4_72_0,2023-11-01T18:48:51.690Z,,0,2,,4576.238000023877,response,ISIC_0065728.JPG,5,ISIC_8378321.JPG,ISIC_8378321.JPG,false,0,keypress(z),500,549128.3000000715,549128.1000000238,544549.122,544550.7000000477,544551.862,549130.946,8,400,23,,ISIC_0065728.JPG
break,html.Screen,4_72_1,2023-11-01T18:48:51.691Z,,0,,,NaN,,,,,,false,,,,549128.6000000238,549128.5,,549128.3000000715,,549130.946,8,400,,,
break_continue,html.Screen,4_72_2,2023-11-01T18:48:51.691Z,,0,,,NaN,,,,,,false,,,,549128.7000000477,549128.7000000477,,549128.7000000477,,549130.946,8,400,,,
sequence,flow.Sequence,4_72,2023-11-01T18:48:51.691Z,,0,,,4576.838000047719,completion,,,,,false,,,,549128.8000000715,549128.7000000477,544549.122,544550.6000000238,544551.862,549130.946,8,400,,,
trial,html.Screen,4_73_0,2023-11-01T18:48:55.357Z,,0,2,,3663.7540000476874,response,ISIC_5732487.JPG,6,ISIC_0024315.JPG,ISIC_5732487.JPG,false,1,keypress(m),500,552794.8999999762,552794.7000000477,549127.4,549128.8000000715,549130.946,552796.402,8,400,24,,ISIC_0024315.JPG
break,html.Screen,4_73_1,2023-11-01T18:48:55.357Z,,0,,,NaN,,,,,,false,,,,552795.3999999762,552795.2000000477,,552795,,552796.402,8,400,,,
break_continue,html.Screen,4_73_2,2023-11-01T18:48:55.358Z,,0,,,NaN,,,,,,false,,,,552795.6000000238,552795.5,,552795.3999999762,,552796.402,8,400,,,
sequence,flow.Sequence,4_73,2023-11-01T18:48:55.358Z,,0,,,3664.5540000000037,completion,,,,,false,,,,552796.1000000238,552795.5,549127.4,549128.8000000715,549130.946,552796.402,8,400,,,
trial,html.Screen,4_74_0,2023-11-01T18:49:01.872Z,,0,2,,6513.798000047682,response,ISIC_0053617.JPG,4,ISIC_4136663.JPG,ISIC_4136663.JPG,false,0,keypress(z),500,559310.3000000715,559310.2000000477,552795.212,552796.2000000477,552796.402,559314.091,8,400,25,,ISIC_0053617.JPG
break,html.Screen,4_74_1,2023-11-01T18:49:01.873Z,,0,,,NaN,,,,,,false,,,,559310.7000000477,559310.6000000238,,559310.3999999762,,559314.091,8,400,,,
break_continue,html.Screen,4_74_2,2023-11-01T18:49:01.873Z,,0,,,NaN,,,,,,false,,,,559310.8000000715,559310.7000000477,,559310.7000000477,,559314.091,8,400,,,
sequence,flow.Sequence,4_74,2023-11-01T18:49:01.873Z,,0,,,6514.298000047682,completion,,,,,false,,,,559310.8000000715,559310.7000000477,552795.212,552796.2000000477,552796.402,559314.091,8,400,,,
trial,html.Screen,4_75_0,2023-11-01T18:49:05.875Z,,0,2,,3998.7090000715107,response,ISIC_4184101.JPG,6,ISIC_0016085.JPG,ISIC_4184101.JPG,false,1,keypress(m),500,563312.8999999762,563312.8000000715,559310.595,559310.8999999762,559314.091,563315.116,8,400,26,,ISIC_0016085.JPG
break,html.Screen,4_75_1,2023-11-01T18:49:05.876Z,,0,,,NaN,,,,,,false,,,,563313.6000000238,563313.3999999762,,563313.1000000238,,563315.116,8,400,,,
break_continue,html.Screen,4_75_2,2023-11-01T18:49:05.876Z,,0,,,NaN,,,,,,false,,,,563313.8999999762,563313.7000000477,,563313.6000000238,,563315.116,8,400,,,
sequence,flow.Sequence,4_75,2023-11-01T18:49:05.876Z,,0,,,3999.609000047669,completion,,,,,false,,,,563313.8999999762,563313.7000000477,559310.595,559310.8999999762,559314.091,563315.116,8,400,,,
trial,html.Screen,4_76_0,2023-11-01T18:49:10.550Z,,0,2,,4672.383999999962,response,ISIC_0033530.JPG,5,ISIC_9860255.JPG,ISIC_9860255.JPG,false,0,keypress(z),500,567987.6000000238,567987.5,563312.445,563313.8999999762,563315.116,567992.404,8,400,27,,ISIC_0033530.JPG
break,html.Screen,4_76_1,2023-11-01T18:49:10.550Z,,0,,,NaN,,,,,,false,,,,567988,567987.8999999762,,567987.8000000715,,567992.404,8,400,,,
break_continue,html.Screen,4_76_2,2023-11-01T18:49:10.550Z,,0,,,NaN,,,,,,false,,,,567988.1000000238,567988.1000000238,,567988,,567992.404,8,400,,,
sequence,flow.Sequence,4_76,2023-11-01T18:49:10.550Z,,0,,,4672.984000023804,completion,,,,,false,,,,567988.2000000477,567988.1000000238,563312.445,563313.8999999762,563315.116,567992.404,8,400,,,
trial,html.Screen,4_77_0,2023-11-01T18:49:14.087Z,,0,2,,3532.896000071545,response,ISIC_0000040.JPG,6,ISIC_0024929.JPG,ISIC_0000040.JPG,false,1,keypress(m),500,571525.3999999762,571525.3000000715,567985.33,567988.2000000477,567992.404,571530.39,8,400,28,,ISIC_0024929.JPG
break,html.Screen,4_77_1,2023-11-01T18:49:14.088Z,,0,,,NaN,,,,,,false,,,,571525.8000000715,571525.7000000477,,571525.5,,571530.39,8,400,,,
break_continue,html.Screen,4_77_2,2023-11-01T18:49:14.088Z,,0,,,NaN,,,,,,false,,,,571525.8999999762,571525.8999999762,,571525.8999999762,,571530.39,8,400,,,
sequence,flow.Sequence,4_77,2023-11-01T18:49:14.088Z,,0,,,3533.4959999761777,completion,,,,,false,,,,571526.1000000238,571525.8999999762,567985.33,567988.2000000477,567992.404,571530.39,8,400,,,
trial,html.Screen,4_78_0,2023-11-01T18:49:17.402Z,,0,2,,3309.210000023828,response,ISIC_0061936.JPG,5,ISIC_7503950.JPG,ISIC_7503950.JPG,false,0,keypress(z),500,574839.8000000715,574839.6000000238,571525.582,571526.1000000238,571530.39,574841.857,8,400,29,,ISIC_0061936.JPG
break,html.Screen,4_78_1,2023-11-01T18:49:17.402Z,,0,,,NaN,,,,,,false,,,,574840.2000000477,574840.1000000238,,574839.8999999762,,574841.857,8,400,,,
break_continue,html.Screen,4_78_2,2023-11-01T18:49:17.402Z,,0,,,NaN,,,,,,false,,,,574840.3000000715,574840.2000000477,,574840.2000000477,,574841.857,8,400,,,
sequence,flow.Sequence,4_78,2023-11-01T18:49:17.402Z,,0,,,3309.8100000476697,completion,,,,,false,,,,574840.3999999762,574840.2000000477,571525.582,571526.1000000238,571530.39,574841.857,8,400,,,
trial,html.Screen,4_79_0,2023-11-01T18:49:21.964Z,,0,2,,4559.843000047724,response,ISIC_0067412.JPG,4,ISIC_0013865.JPG,ISIC_0013865.JPG,false,0,keypress(z),500,579401.8999999762,579401.7000000477,574839.584,574840.3999999762,574841.857,579404.285,8,400,30,,ISIC_0067412.JPG
break,html.Screen,4_79_1,2023-11-01T18:49:21.964Z,,0,,,NaN,,,,,,false,,,,579402.3000000715,579402.1000000238,,579401.8999999762,,579404.285,8,400,,,
break_continue,html.Screen,4_79_2,2023-11-01T18:49:21.964Z,,0,,,NaN,,,,,,false,,,,579402.3999999762,579402.3999999762,,579402.3000000715,,579404.285,8,400,,,
sequence,flow.Sequence,4_79,2023-11-01T18:49:21.965Z,,0,,,4560.542999976198,completion,,,,,false,,,,579402.3999999762,579402.3999999762,574839.584,574840.3999999762,574841.857,579404.285,8,400,,,
trial,html.Screen,4_80_0,2023-11-01T18:49:25.966Z,,0,2,,3999.2149999999674,response,ISIC_5272837.JPG,5,ISIC_5751956.JPG,ISIC_5272837.JPG,false,1,keypress(m),500,583403.8000000715,583403.5,579400.666,579402.5,579404.285,583405.803,8,400,31,,ISIC_5751956.JPG
break,html.Screen,4_80_1,2023-11-01T18:49:25.966Z,,0,,,NaN,,,,,,false,,,,583404.2000000477,583404.2000000477,,583403.8999999762,,583405.803,8,400,,,
break_continue,html.Screen,4_80_2,2023-11-01T18:49:25.966Z,,0,,,NaN,,,,,,false,,,,583404.3999999762,583404.3000000715,,583404.3000000715,,583405.803,8,400,,,
sequence,flow.Sequence,4_80,2023-11-01T18:49:25.967Z,,0,,,4000.015000071493,completion,,,,,false,,,,583404.3999999762,583404.3000000715,579400.666,579402.5,579404.285,583405.803,8,400,,,
trial,html.Screen,4_81_0,2023-11-01T18:49:31.184Z,,0,2,,5216.197000000044,response,ISIC_0046985.JPG,5,ISIC_0941085.JPG,ISIC_0046985.JPG,false,1,keypress(m),500,588622.2000000477,588622,583402.182,583404.5,583405.803,588626.866,8,400,32,,ISIC_0941085.JPG
break,html.Screen,4_81_1,2023-11-01T18:49:31.185Z,,0,,,NaN,,,,,,false,,,,588622.5,588622.5,,588622.3000000715,,588626.866,8,400,,,
break_continue,html.Screen,4_81_2,2023-11-01T18:49:31.185Z,,0,,,NaN,,,,,,false,,,,588622.7000000477,588622.6000000238,,588622.6000000238,,588626.866,8,400,,,
sequence,flow.Sequence,4_81,2023-11-01T18:49:31.185Z,,0,,,5216.797000023886,completion,,,,,false,,,,588622.7000000477,588622.6000000238,583402.182,583404.5,583405.803,588626.866,8,400,,,
trial,html.Screen,4_82_0,2023-11-01T18:49:37.810Z,,0,2,,6620.8340000476455,response,ISIC_0014985.JPG,5,ISIC_3074949.JPG,ISIC_3074949.JPG,false,0,keypress(z),500,595247.8999999762,595247.7000000477,588620.562,588622.8000000715,588626.866,595252.409,8,400,33,,ISIC_0014985.JPG
break,html.Screen,4_82_1,2023-11-01T18:49:37.811Z,,0,,,NaN,,,,,,false,,,,595248.5,595248.3000000715,,595248,,595252.409,8,400,,,
break_continue,html.Screen,4_82_2,2023-11-01T18:49:37.811Z,,0,,,NaN,,,,,,false,,,,595248.7000000477,595248.7000000477,,595248.5,,595252.409,8,400,,,
sequence,flow.Sequence,4_82,2023-11-01T18:49:37.811Z,,0,,,6621.8340000476455,completion,,,,,false,,,,595248.8000000715,595248.7000000477,588620.562,588622.7000000477,588626.866,595252.409,8,400,,,
trial,html.Screen,4_83_0,2023-11-01T18:49:43.381Z,,0,2,,5565.990999976173,response,ISIC_9439034.JPG,6,ISIC_1211506.JPG,ISIC_1211506.JPG,false,0,keypress(z),500,600818.6000000238,600818.3999999762,595245.935,595248.8999999762,595252.409,600823.136,8,400,34,,ISIC_9439034.JPG
break,html.Screen,4_83_1,2023-11-01T18:49:43.381Z,,0,,,NaN,,,,,,false,,,,600818.8999999762,600818.8999999762,,600818.7000000477,,600823.136,8,400,,,
break_continue,html.Screen,4_83_2,2023-11-01T18:49:43.381Z,,0,,,NaN,,,,,,false,,,,600819,600818.8999999762,,600818.8999999762,,600823.136,8,400,,,
sequence,flow.Sequence,4_83,2023-11-01T18:49:43.381Z,,0,,,5566.490999976173,completion,,,,,false,,,,600819,600818.8999999762,595245.935,595248.8999999762,595252.409,600823.136,8,400,,,
trial,html.Screen,4_84_0,2023-11-01T18:49:46.599Z,,0,2,,3213.464000023785,response,ISIC_9738202.JPG,5,ISIC_0054167.JPG,ISIC_9738202.JPG,false,1,keypress(m),500,604036.8000000715,604036.6000000238,600816.511,600819.1000000238,600823.136,604041.474,8,400,35,,ISIC_0054167.JPG
break,html.Screen,4_84_1,2023-11-01T18:49:46.599Z,,0,,,NaN,,,,,,false,,,,604037.1000000238,604037,,604036.8999999762,,604041.474,8,400,,,
break_continue,html.Screen,4_84_2,2023-11-01T18:49:46.599Z,,0,,,NaN,,,,,,false,,,,604037.2000000477,604037.2000000477,,604037.2000000477,,604041.474,8,400,,,
sequence,flow.Sequence,4_84,2023-11-01T18:49:46.599Z,,0,,,3214.064000047627,completion,,,,,false,,,,604037.3000000715,604037.2000000477,600816.511,600819.1000000238,600823.136,604041.474,8,400,,,
trial,html.Screen,4_85_0,2023-11-01T18:49:52.568Z,,0,2,,5964.82600007148,response,ISIC_0071169.JPG,5,ISIC_8389650.JPG,ISIC_0071169.JPG,false,1,keypress(m),500,610006.3999999762,610006.3000000715,604034.77,604037.3000000715,604041.474,610008.085,8,400,36,,ISIC_8389650.JPG
break,html.Screen,4_85_1,2023-11-01T18:49:52.569Z,,0,,,NaN,,,,,,false,,,,610006.8000000715,610006.7000000477,,610006.5,,610008.085,8,400,,,
break_continue,html.Screen,4_85_2,2023-11-01T18:49:52.569Z,,0,,,NaN,,,,,,false,,,,610007,610006.8999999762,,610006.8999999762,,610008.085,8,400,,,
sequence,flow.Sequence,4_85,2023-11-01T18:49:52.569Z,,0,,,5965.4259999761125,completion,,,,,false,,,,610007,610006.8999999762,604034.77,604037.3000000715,604041.474,610008.085,8,400,,,
trial,html.Screen,4_86_0,2023-11-01T18:49:58.492Z,,0,2,,5921.314999976195,response,ISIC_0059625.JPG,6,ISIC_8773478.JPG,ISIC_0059625.JPG,false,1,keypress(m),500,615929.5,615929.3999999762,610005.136,610007,610008.085,615931.117,8,400,37,,ISIC_8773478.JPG
break,html.Screen,4_86_1,2023-11-01T18:49:58.492Z,,0,,,NaN,,,,,,false,,,,615929.8999999762,615929.8000000715,,615929.7000000477,,615931.117,8,400,,,
break_continue,html.Screen,4_86_2,2023-11-01T18:49:58.492Z,,0,,,NaN,,,,,,false,,,,615930,615930,,615930,,615931.117,8,400,,,
sequence,flow.Sequence,4_86,2023-11-01T18:49:58.492Z,,0,,,5921.915000000037,completion,,,,,false,,,,615930.2000000477,615930,610005.136,610007,610008.085,615931.117,8,400,,,
trial,html.Screen,4_87_0,2023-11-01T18:50:02.990Z,,0,2,,4496.383000000031,response,ISIC_5482805.JPG,5,ISIC_4018813.JPG,ISIC_5482805.JPG,false,1,keypress(m),500,620427.7000000477,620427.5,615929.37,615930.2000000477,615931.117,620429.595,8,400,38,,ISIC_4018813.JPG
break,html.Screen,4_87_1,2023-11-01T18:50:02.990Z,,0,,,NaN,,,,,,false,,,,620428.2000000477,620428.1000000238,,620427.8000000715,,620429.595,8,400,,,
break_continue,html.Screen,4_87_2,2023-11-01T18:50:02.991Z,,0,,,NaN,,,,,,false,,,,620428.3999999762,620428.3999999762,,620428.3000000715,,620429.595,8,400,,,
sequence,flow.Sequence,4_87,2023-11-01T18:50:02.991Z,,0,,,4497.282999976189,completion,,,,,false,,,,620428.5,620428.3999999762,615929.37,615930.2000000477,615931.117,620429.595,8,400,,,
trial,html.Screen,4_88_0,2023-11-01T18:50:08.320Z,,0,2,,5328.605000047712,response,ISIC_1225511.JPG,5,ISIC_2378428.JPG,ISIC_2378428.JPG,false,0,keypress(z),500,625758.2000000477,625758.2000000477,620426.865,620428.5,620429.595,625761.171,8,400,39,,ISIC_1225511.JPG
break,html.Screen,4_88_1,2023-11-01T18:50:08.321Z,,0,,,NaN,,,,,,false,,,,625758.6000000238,625758.5,,625758.3999999762,,625761.171,8,400,,,
break_continue,html.Screen,4_88_2,2023-11-01T18:50:08.321Z,,0,,,NaN,,,,,,false,,,,625758.7000000477,625758.7000000477,,625758.6000000238,,625761.171,8,400,,,
sequence,flow.Sequence,4_88,2023-11-01T18:50:08.321Z,,0,,,5329.105000047712,completion,,,,,false,,,,625758.7000000477,625758.7000000477,620426.865,620428.5,620429.595,625761.171,8,400,,,
trial,html.Screen,4_89_0,2023-11-01T18:50:13.330Z,,0,2,,5007.029000047711,response,ISIC_0068798.JPG,5,ISIC_8298434.JPG,ISIC_8298434.JPG,false,0,keypress(z),500,630768.3999999762,630768.2000000477,625756.389,625758.8000000715,625761.171,630770.644,8,400,40,,ISIC_0068798.JPG
break,html.Screen,4_89_1,2023-11-01T18:50:13.331Z,,0,,,NaN,,,,,,false,,,,630768.8000000715,630768.7000000477,,630768.3999999762,,630770.644,8,400,,,
break_continue,html.Screen,4_89_2,2023-11-01T18:50:13.331Z,,0,,,NaN,,,,,,false,,,,630768.8999999762,630768.8000000715,,630768.8000000715,,630770.644,8,400,,,
sequence,flow.Sequence,4_89,2023-11-01T18:50:13.331Z,,0,,,5007.629000071553,completion,,,,,false,,,,630769,630768.8000000715,625756.389,625758.7000000477,625761.171,630770.644,8,400,,,
trial,html.Screen,4_90_0,2023-11-01T18:50:18.869Z,,0,2,,5535.755999976187,response,ISIC_0033239.JPG,5,ISIC_1175170.JPG,ISIC_1175170.JPG,false,0,keypress(z),500,636306.6000000238,636306.3999999762,630768.64,630769,630770.644,636311.163,8,400,41,,ISIC_0033239.JPG
break,html.Screen,4_90_1,2023-11-01T18:50:18.869Z,,0,,,NaN,,,,,,false,,,,636306.8999999762,636306.8999999762,,636306.7000000477,,636311.163,8,400,,,
break_continue,html.Screen,4_90_2,2023-11-01T18:50:18.869Z,,0,,,NaN,,,,,,false,,,,636307.1000000238,636307.1000000238,,636307,,636311.163,8,400,,,
sequence,flow.Sequence,4_90,2023-11-01T18:50:18.869Z,,0,,,5536.456000023871,completion,,,,,false,,,,636307.1000000238,636307.1000000238,630768.64,630769,630770.644,636311.163,8,400,,,
trial,html.Screen,4_91_0,2023-11-01T18:50:24.472Z,,0,2,,5598.0370000477415,response,ISIC_7696538.JPG,6,ISIC_9157162.JPG,ISIC_7696538.JPG,false,1,keypress(m),500,641909.3999999762,641909.2000000477,636304.932,636307.2000000477,636311.163,641911.397,8,400,42,,ISIC_9157162.JPG
break,html.Screen,4_91_1,2023-11-01T18:50:24.472Z,,0,,,NaN,,,,,,false,,,,641909.8999999762,641909.8000000715,,641909.5,,641911.397,8,400,,,
break_continue,html.Screen,4_91_2,2023-11-01T18:50:24.472Z,,0,,,NaN,,,,,,false,,,,641910.2000000477,641910.1000000238,,641910,,641911.397,8,400,,,
sequence,flow.Sequence,4_91,2023-11-01T18:50:24.472Z,,0,,,5598.9370000239,completion,,,,,false,,,,641910.2000000477,641910.1000000238,636304.932,636307.2000000477,636311.163,641911.397,8,400,,,
trial,html.Screen,4_92_0,2023-11-01T18:50:27.802Z,,0,2,,3328.502999976161,response,ISIC_0014183.JPG,5,ISIC_0002435.JPG,ISIC_0002435.JPG,false,0,keypress(z),500,645240,645239.8999999762,641907.92,641910.3000000715,641911.397,645244.772,8,400,43,,ISIC_0014183.JPG
break,html.Screen,4_92_1,2023-11-01T18:50:27.802Z,,0,,,NaN,,,,,,false,,,,645240.3000000715,645240.2000000477,,645240.1000000238,,645244.772,8,400,,,
break_continue,html.Screen,4_92_2,2023-11-01T18:50:27.802Z,,0,,,NaN,,,,,,false,,,,645240.3999999762,645240.3999999762,,645240.3999999762,,645244.772,8,400,,,
sequence,flow.Sequence,4_92,2023-11-01T18:50:27.803Z,,0,,,3329.002999976161,completion,,,,,false,,,,645240.5,645240.3999999762,641907.92,641910.3000000715,641911.397,645244.772,8,400,,,
trial,html.Screen,4_93_0,2023-11-01T18:50:31.612Z,,0,2,,3805.4280000476865,response,ISIC_0065390.JPG,5,ISIC_4715386.JPG,ISIC_0065390.JPG,false,1,keypress(m),500,649050.3000000715,649050.2000000477,645240.062,645240.5,645244.772,649053.954,8,400,44,,ISIC_4715386.JPG
break,html.Screen,4_93_1,2023-11-01T18:50:31.613Z,,0,,,NaN,,,,,,false,,,,649050.5,649050.5,,649050.3999999762,,649053.954,8,400,,,
break_continue,html.Screen,4_93_2,2023-11-01T18:50:31.613Z,,0,,,NaN,,,,,,false,,,,649050.7000000477,649050.6000000238,,649050.6000000238,,649053.954,8,400,,,
sequence,flow.Sequence,4_93,2023-11-01T18:50:31.613Z,,0,,,3805.8280000238447,completion,,,,,false,,,,649050.7000000477,649050.6000000238,645240.062,645240.5,645244.772,649053.954,8,400,,,
trial,html.Screen,4_94_0,2023-11-01T18:50:36.063Z,,0,2,,4446.246000047657,response,ISIC_0005006.JPG,6,ISIC_2386961.JPG,ISIC_2386961.JPG,false,0,keypress(z),500,653500.3999999762,653500.2000000477,649050.133,649050.8000000715,649053.954,653502.031,8,400,45,,ISIC_0005006.JPG
break,html.Screen,4_94_1,2023-11-01T18:50:36.063Z,,0,,,NaN,,,,,,false,,,,653500.8999999762,653500.8000000715,,653500.6000000238,,653502.031,8,400,,,
break_continue,html.Screen,4_94_2,2023-11-01T18:50:36.063Z,,0,,,NaN,,,,,,false,,,,653501,653500.8999999762,,653500.8999999762,,653502.031,8,400,,,
sequence,flow.Sequence,4_94,2023-11-01T18:50:36.063Z,,0,,,4446.945999976131,completion,,,,,false,,,,653501.1000000238,653500.8999999762,649050.133,649050.8000000715,649053.954,653502.031,8,400,,,
trial,html.Screen,4_95_0,2023-11-01T18:50:40.017Z,,0,2,,3952.569000023883,response,ISIC_0064784.JPG,5,ISIC_4728167.JPG,ISIC_0064784.JPG,false,1,keypress(m),500,657454.8000000715,657454.6000000238,653499.322,653501.1000000238,653502.031,657456.317,8,400,46,,ISIC_4728167.JPG
break,html.Screen,4_95_1,2023-11-01T18:50:40.017Z,,0,,,NaN,,,,,,false,,,,657455.2000000477,657455.2000000477,,657454.8999999762,,657456.317,8,400,,,
break_continue,html.Screen,4_95_2,2023-11-01T18:50:40.018Z,,0,,,NaN,,,,,,false,,,,657455.5,657455.3999999762,,657455.3000000715,,657456.317,8,400,,,
sequence,flow.Sequence,4_95,2023-11-01T18:50:40.018Z,,0,,,3953.368999976199,completion,,,,,false,,,,657455.6000000238,657455.3999999762,653499.322,653501.1000000238,653502.031,657456.317,8,400,,,
trial,html.Screen,4_96_0,2023-11-01T18:50:44.259Z,,0,2,,4240.682999999961,response,ISIC_3070206.JPG,4,ISIC_6588853.JPG,ISIC_6588853.JPG,false,0,keypress(z),500,661697.1000000238,661697,657454.182,657455.6000000238,657456.317,661699.324,8,400,47,,ISIC_3070206.JPG
break,html.Screen,4_96_1,2023-11-01T18:50:44.260Z,,0,,,NaN,,,,,,false,,,,661697.7000000477,661697.5,,661697.2000000477,,661699.324,8,400,,,
break_continue,html.Screen,4_96_2,2023-11-01T18:50:44.260Z,,0,,,NaN,,,,,,false,,,,661697.8999999762,661697.8999999762,,661697.7000000477,,661699.324,8,400,,,
sequence,flow.Sequence,4_96,2023-11-01T18:50:44.260Z,,0,,,4241.582999976119,completion,,,,,false,,,,661697.8999999762,661697.8999999762,657454.182,657455.6000000238,657456.317,661699.324,8,400,,,
trial,html.Screen,4_97_0,2023-11-01T18:50:49.141Z,,0,2,,4879.876000047661,response,ISIC_0059427.JPG,5,ISIC_0028582.JPG,ISIC_0028582.JPG,false,0,keypress(z),500,666579.5,666579.2000000477,661696.286,661698,661699.324,666581.068,8,400,48,,ISIC_0059427.JPG
break,html.Screen,4_97_1,2023-11-01T18:50:49.142Z,,0,,,NaN,,,,,,false,,,,666579.8999999762,666579.8000000715,,666579.6000000238,,666581.068,8,400,,,
break_continue,html.Screen,4_97_2,2023-11-01T18:50:49.142Z,,0,,,NaN,,,,,,false,,,,666580.1000000238,666580,,666579.8999999762,,666581.068,8,400,,,
sequence,flow.Sequence,4_97,2023-11-01T18:50:49.142Z,,0,,,4880.675999999978,completion,,,,,false,,,,666580.2000000477,666580,661696.286,661698,661699.324,666581.068,8,400,,,
trial,html.Screen,4_98_0,2023-11-01T18:50:52.824Z,,0,2,,3680.6320000477135,response,ISIC_0046900.JPG,5,ISIC_0063492.JPG,ISIC_0063492.JPG,false,0,keypress(z),500,670261.8999999762,670261.7000000477,666577.758,666580.2000000477,666581.068,670266.561,8,400,49,,ISIC_0046900.JPG
break,html.Screen,4_98_1,2023-11-01T18:50:52.824Z,,0,,,NaN,,,,,,false,,,,670262.3999999762,670262.2000000477,,670262.1000000238,,670266.561,8,400,,,
break_continue,html.Screen,4_98_2,2023-11-01T18:50:52.824Z,,0,,,NaN,,,,,,false,,,,670262.3999999762,670262.3999999762,,670262.3999999762,,670266.561,8,400,,,
sequence,flow.Sequence,4_98,2023-11-01T18:50:52.824Z,,0,,,3681.331999976188,completion,,,,,false,,,,670262.5,670262.3999999762,666577.758,666580.2000000477,666581.068,670266.561,8,400,,,
trial,html.Screen,4_99_0,2023-11-01T18:50:57.706Z,,0,2,,4876.939000000013,response,ISIC_1294049.JPG,5,ISIC_0027063.JPG,ISIC_1294049.JPG,false,1,keypress(m),500,675143.7000000477,675143.5,670260.036,670262.6000000238,670266.561,675148.851,8,400,50,,ISIC_0027063.JPG
break,html.Screen,4_99_1,2023-11-01T18:51:07.710Z,,0,,,10001.070999999996,timeout,,,,,false,,,,685148.1000000238,685147.128,675141.773,675143.8000000715,675148.851,685149.922,8,400,,,
break_continue,html.Screen,4_99_2,2023-11-01T18:52:20.777Z,,0,,,73058.47799997614,response,,,,,false,continue,keypress(Space),,758215.5,758208.3999999762,685147.128,685148.1000000238,685149.922,758217.481,8,400,,,
sequence,flow.Sequence,4_99,2023-11-01T18:52:20.777Z,,0,,,87941.83899997617,completion,,,,,false,,,,758215.6000000238,758208.3999999762,670260.036,670262.6000000238,670266.561,758217.481,8,400,,,
trial,html.Screen,4_100_0,2023-11-01T18:52:23.899Z,,0,3,,3119.719000047655,response,ISIC_1356715.JPG,5,ISIC_0021442.JPG,ISIC_1356715.JPG,false,1,keypress(m),500,761337.3999999762,761337.2000000477,758214.278,758215.7000000477,758217.481,761338.749,8,400,1,,ISIC_0021442.JPG
break,html.Screen,4_100_1,2023-11-01T18:52:23.899Z,,0,,,NaN,,,,,,false,,,,761337.7000000477,761337.6000000238,,761337.3999999762,,761338.749,8,400,,,
break_continue,html.Screen,4_100_2,2023-11-01T18:52:23.899Z,,0,,,NaN,,,,,,false,,,,761337.8000000715,761337.7000000477,,761337.7000000477,,761338.749,8,400,,,
sequence,flow.Sequence,4_100,2023-11-01T18:52:23.899Z,,0,,,3120.219000047655,completion,,,,,false,,,,761337.8000000715,761337.7000000477,758214.278,758215.7000000477,758217.481,761338.749,8,400,,,
trial,html.Screen,4_101_0,2023-11-01T18:52:27.997Z,,0,3,,4096.650999976206,response,ISIC_1955991.JPG,5,ISIC_8281208.JPG,ISIC_8281208.JPG,false,0,keypress(z),500,765435.7000000477,765435.3999999762,761335.564,761337.8000000715,761338.749,765437.328,8,400,2,,ISIC_1955991.JPG
break,html.Screen,4_101_1,2023-11-01T18:52:27.998Z,,0,,,NaN,,,,,,false,,,,765436,765435.8999999762,,765435.8000000715,,765437.328,8,400,,,
break_continue,html.Screen,4_101_2,2023-11-01T18:52:27.998Z,,0,,,NaN,,,,,,false,,,,765436.2000000477,765436.1000000238,,765436.1000000238,,765437.328,8,400,,,
sequence,flow.Sequence,4_101,2023-11-01T18:52:27.998Z,,0,,,4097.351000023889,completion,,,,,false,,,,765436.2000000477,765436.1000000238,761335.564,761337.8000000715,761338.749,765437.328,8,400,,,
trial,html.Screen,4_102_0,2023-11-01T18:52:32.304Z,,0,3,,4304.472000071546,response,ISIC_0011668.JPG,6,ISIC_1568268.JPG,ISIC_0011668.JPG,false,1,keypress(m),500,769742,769741.8000000715,765434.577,765436.5,765437.328,769744.275,8,400,3,,ISIC_1568268.JPG
break,html.Screen,4_102_1,2023-11-01T18:52:32.304Z,,0,,,NaN,,,,,,false,,,,769742.3999999762,769742.3000000715,,769742.1000000238,,769744.275,8,400,,,
break_continue,html.Screen,4_102_2,2023-11-01T18:52:32.304Z,,0,,,NaN,,,,,,false,,,,769742.5,769742.3999999762,,769742.3999999762,,769744.275,8,400,,,
sequence,flow.Sequence,4_102,2023-11-01T18:52:32.304Z,,0,,,4305.071999976179,completion,,,,,false,,,,769742.6000000238,769742.3999999762,765434.577,765436.5,765437.328,769744.275,8,400,,,
trial,html.Screen,4_103_0,2023-11-01T18:52:35.858Z,,0,3,,3552.124999976135,response,ISIC_0067172.JPG,5,ISIC_4097868.JPG,ISIC_0067172.JPG,false,1,keypress(m),500,773296.5,773296.3999999762,769741.017,769742.6000000238,769744.275,773298.648,8,400,4,,ISIC_4097868.JPG
break,html.Screen,4_103_1,2023-11-01T18:52:35.859Z,,0,,,NaN,,,,,,false,,,,773297,773296.8999999762,,773296.7000000477,,773298.648,8,400,,,
break_continue,html.Screen,4_103_2,2023-11-01T18:52:35.859Z,,0,,,NaN,,,,,,false,,,,773297.2000000477,773297.2000000477,,773297.1000000238,,773298.648,8,400,,,
sequence,flow.Sequence,4_103,2023-11-01T18:52:35.859Z,,0,,,3552.9250000476604,completion,,,,,false,,,,773297.2000000477,773297.2000000477,769741.017,769742.6000000238,769744.275,773298.648,8,400,,,
trial,html.Screen,4_104_0,2023-11-01T18:52:39.797Z,,0,3,,3936.8519999999553,response,ISIC_0033498.JPG,6,ISIC_0034237.JPG,ISIC_0034237.JPG,false,0,keypress(z),500,777235.8000000715,777235.5,773295.204,773297.3000000715,773298.648,777240.19,8,400,5,,ISIC_0033498.JPG
break,html.Screen,4_104_1,2023-11-01T18:52:39.798Z,,0,,,NaN,,,,,,false,,,,777236.2000000477,777236.1000000238,,777236,,777240.19,8,400,,,
break_continue,html.Screen,4_104_2,2023-11-01T18:52:39.798Z,,0,,,NaN,,,,,,false,,,,777236.3999999762,777236.3999999762,,777236.3000000715,,777240.19,8,400,,,
sequence,flow.Sequence,4_104,2023-11-01T18:52:39.798Z,,0,,,3937.7519999761134,completion,,,,,false,,,,777236.6000000238,777236.3999999762,773295.204,773297.3000000715,773298.648,777240.19,8,400,,,
trial,html.Screen,4_105_0,2023-11-01T18:52:43.960Z,,0,3,,4158.110000071581,response,ISIC_0011627.JPG,6,ISIC_9019691.JPG,ISIC_0011627.JPG,false,1,keypress(m),500,781398.5,781398.3000000715,777234.826,777236.6000000238,777240.19,781401.583,8,400,6,,ISIC_9019691.JPG
break,html.Screen,4_105_1,2023-11-01T18:52:43.960Z,,0,,,NaN,,,,,,false,,,,781398.8000000715,781398.7000000477,,781398.5,,781401.583,8,400,,,
break_continue,html.Screen,4_105_2,2023-11-01T18:52:43.961Z,,0,,,NaN,,,,,,false,,,,781399,781399,,781398.8999999762,,781401.583,8,400,,,
sequence,flow.Sequence,4_105,2023-11-01T18:52:43.961Z,,0,,,4158.810000000056,completion,,,,,false,,,,781399.1000000238,781399,777234.826,777236.6000000238,777240.19,781401.583,8,400,,,
trial,html.Screen,4_106_0,2023-11-01T18:52:48.763Z,,0,3,,4800.017000023858,response,ISIC_0976232.JPG,5,ISIC_1952599.JPG,ISIC_1952599.JPG,false,0,keypress(z),500,786201.8999999762,786201.6000000238,781397.963,781399.2000000477,781401.583,786206.777,8,400,7,,ISIC_0976232.JPG
break,html.Screen,4_106_1,2023-11-01T18:52:48.764Z,,0,,,NaN,,,,,,false,,,,786202.3000000715,786202.1000000238,,786201.8999999762,,786206.777,8,400,,,
break_continue,html.Screen,4_106_2,2023-11-01T18:52:48.764Z,,0,,,NaN,,,,,,false,,,,786202.3999999762,786202.3999999762,,786202.3000000715,,786206.777,8,400,,,
sequence,flow.Sequence,4_106,2023-11-01T18:52:48.764Z,,0,,,4800.816999976174,completion,,,,,false,,,,786202.5,786202.3999999762,781397.963,781399.1000000238,781401.583,786206.777,8,400,,,
trial,html.Screen,4_107_0,2023-11-01T18:52:54.126Z,,0,3,,5357.523000071524,response,ISIC_0058863.JPG,6,ISIC_0062497.JPG,ISIC_0058863.JPG,false,1,keypress(m),500,791564.3999999762,791564.3000000715,786201.194,786202.5,786206.777,791570.355,8,400,8,,ISIC_0062497.JPG
break,html.Screen,4_107_1,2023-11-01T18:52:54.126Z,,0,,,NaN,,,,,,false,,,,791564.8000000715,791564.6000000238,,791564.5,,791570.355,8,400,,,
break_continue,html.Screen,4_107_2,2023-11-01T18:52:54.126Z,,0,,,NaN,,,,,,false,,,,791564.8999999762,791564.8000000715,,791564.8000000715,,791570.355,8,400,,,
sequence,flow.Sequence,4_107,2023-11-01T18:52:54.126Z,,0,,,5358.023000071524,completion,,,,,false,,,,791564.8999999762,791564.8000000715,786201.194,786202.5,786206.777,791570.355,8,400,,,
trial,html.Screen,4_108_0,2023-11-01T18:52:59.039Z,,0,3,,4907.2450000238605,response,ISIC_0029982.JPG,5,ISIC_0030704.JPG,ISIC_0029982.JPG,false,1,keypress(m),500,796477.7000000477,796477.6000000238,791567.638,791564.8999999762,791570.355,796479.928,8,400,9,,ISIC_0030704.JPG
break,html.Screen,4_108_1,2023-11-01T18:52:59.040Z,,0,,,NaN,,,,,,false,,,,796478,796478,,796477.8000000715,,796479.928,8,400,,,
break_continue,html.Screen,4_108_2,2023-11-01T18:52:59.040Z,,0,,,NaN,,,,,,false,,,,796478.2000000477,796478.2000000477,,796478.1000000238,,796479.928,8,400,,,
sequence,flow.Sequence,4_108,2023-11-01T18:52:59.040Z,,0,,,4907.845000047702,completion,,,,,false,,,,796478.2000000477,796478.2000000477,791567.638,791564.8999999762,791570.355,796479.928,8,400,,,
trial,html.Screen,4_109_0,2023-11-01T18:53:03.346Z,,0,3,,4304.572000000044,response,ISIC_4752144.JPG,5,ISIC_0561249.JPG,ISIC_4752144.JPG,false,1,keypress(m),500,800784.8000000715,800784.5,796476.703,796478.3000000715,796479.928,800789.73,8,400,10,,ISIC_0561249.JPG
break,html.Screen,4_109_1,2023-11-01T18:53:03.347Z,,0,,,NaN,,,,,,false,,,,800785.2000000477,800785.1000000238,,800785,,800789.73,8,400,,,
break_continue,html.Screen,4_109_2,2023-11-01T18:53:03.347Z,,0,,,NaN,,,,,,false,,,,800785.3999999762,800785.3000000715,,800785.3000000715,,800789.73,8,400,,,
sequence,flow.Sequence,4_109,2023-11-01T18:53:03.347Z,,0,,,4305.372000071569,completion,,,,,false,,,,800785.5,800785.3000000715,796476.703,796478.3000000715,796479.928,800789.73,8,400,,,
trial,html.Screen,4_110_0,2023-11-01T18:53:08.036Z,,0,3,,4684.970000047702,response,ISIC_2196127.JPG,6,ISIC_0056655.JPG,ISIC_2196127.JPG,false,1,keypress(m),500,805474.8999999762,805474.7000000477,800786.844,800785.6000000238,800789.73,805476.894,8,400,11,,ISIC_0056655.JPG
break,html.Screen,4_110_1,2023-11-01T18:53:08.037Z,,0,,,NaN,,,,,,false,,,,805475.6000000238,805475.3999999762,,805475.1000000238,,805476.894,8,400,,,
break_continue,html.Screen,4_110_2,2023-11-01T18:53:08.037Z,,0,,,NaN,,,,,,false,,,,805475.8999999762,805475.8000000715,,805475.7000000477,,805476.894,8,400,,,
sequence,flow.Sequence,4_110,2023-11-01T18:53:08.038Z,,0,,,4686.070000071544,completion,,,,,false,,,,805476,805475.8000000715,800786.844,800785.6000000238,800789.73,805476.894,8,400,,,
trial,html.Screen,4_111_0,2023-11-01T18:53:11.095Z,,0,3,,3056.106000000029,response,ISIC_3716686.JPG,5,ISIC_0046225.JPG,ISIC_3716686.JPG,false,1,keypress(m),500,808533.1000000238,808533,805473.839,805476.1000000238,805476.894,808537.938,8,400,12,,ISIC_0046225.JPG
break,html.Screen,4_111_1,2023-11-01T18:53:11.095Z,,0,,,NaN,,,,,,false,,,,808533.5,808533.3999999762,,808533.2000000477,,808537.938,8,400,,,
break_continue,html.Screen,4_111_2,2023-11-01T18:53:11.095Z,,0,,,NaN,,,,,,false,,,,808533.7000000477,808533.6000000238,,808533.5,,808537.938,8,400,,,
sequence,flow.Sequence,4_111,2023-11-01T18:53:11.095Z,,0,,,3056.7060000238707,completion,,,,,false,,,,808533.7000000477,808533.6000000238,805473.839,805476.1000000238,805476.894,808537.938,8,400,,,
trial,html.Screen,4_112_0,2023-11-01T18:53:17.192Z,,0,3,,6092.461999976193,response,ISIC_1615485.JPG,6,ISIC_1008321.JPG,ISIC_1008321.JPG,false,0,keypress(z),500,814630.6000000238,814630.3999999762,808531.139,808533.7000000477,808537.938,814632.257,8,400,13,,ISIC_1615485.JPG
break,html.Screen,4_112_1,2023-11-01T18:53:17.193Z,,0,,,NaN,,,,,,false,,,,814631.1000000238,814631,,814630.7000000477,,814632.257,8,400,,,
break_continue,html.Screen,4_112_2,2023-11-01T18:53:17.193Z,,0,,,NaN,,,,,,false,,,,814631.3000000715,814631.2000000477,,814631.1000000238,,814632.257,8,400,,,
sequence,flow.Sequence,4_112,2023-11-01T18:53:17.193Z,,0,,,6093.262000047718,completion,,,,,false,,,,814631.3000000715,814631.2000000477,808531.139,808533.7000000477,808537.938,814632.257,8,400,,,
trial,html.Screen,4_113_0,2023-11-01T18:53:23.051Z,,0,3,,5856.243000000017,response,ISIC_0022661.JPG,5,ISIC_0027282.JPG,ISIC_0027282.JPG,false,0,keypress(z),500,820488.6000000238,820488.5,814628.424,814631.3000000715,814632.257,820491.525,8,400,14,,ISIC_0022661.JPG
break,html.Screen,4_113_1,2023-11-01T18:53:23.051Z,,0,,,NaN,,,,,,false,,,,820488.8999999762,820488.8000000715,,820488.7000000477,,820491.525,8,400,,,
break_continue,html.Screen,4_113_2,2023-11-01T18:53:23.051Z,,0,,,NaN,,,,,,false,,,,820489.1000000238,820488.8999999762,,820488.8999999762,,820491.525,8,400,,,
sequence,flow.Sequence,4_113,2023-11-01T18:53:23.051Z,,0,,,5856.642999976175,completion,,,,,false,,,,820489.1000000238,820488.8999999762,814628.424,814631.3000000715,814632.257,820491.525,8,400,,,
trial,html.Screen,4_114_0,2023-11-01T18:53:27.964Z,,0,3,,4910.575000023819,response,ISIC_6714923.JPG,5,ISIC_0011437.JPG,ISIC_6714923.JPG,false,1,keypress(m),500,825402.3999999762,825402.1000000238,820488.328,820489.2000000477,820491.525,825406.788,8,400,15,,ISIC_0011437.JPG
break,html.Screen,4_114_1,2023-11-01T18:53:27.965Z,,0,,,NaN,,,,,,false,,,,825402.8000000715,825402.6000000238,,825402.5,,825406.788,8,400,,,
break_continue,html.Screen,4_114_2,2023-11-01T18:53:27.965Z,,0,,,NaN,,,,,,false,,,,825402.8000000715,825402.8000000715,,825402.8000000715,,825406.788,8,400,,,
sequence,flow.Sequence,4_114,2023-11-01T18:53:27.965Z,,0,,,4911.275000071502,completion,,,,,false,,,,825402.8999999762,825402.8000000715,820488.328,820489.2000000477,820491.525,825406.788,8,400,,,
trial,html.Screen,4_115_0,2023-11-01T18:53:34.303Z,,0,3,,6334.4120000477415,response,ISIC_0060355.JPG,5,ISIC_0067226.JPG,ISIC_0067226.JPG,false,0,keypress(z),500,831741.3000000715,831741.2000000477,825400.744,825403,825406.788,831743.254,8,400,16,,ISIC_0060355.JPG
break,html.Screen,4_115_1,2023-11-01T18:53:34.304Z,,0,,,NaN,,,,,,false,,,,831741.5,831741.5,,831741.3000000715,,831743.254,8,400,,,
break_continue,html.Screen,4_115_2,2023-11-01T18:53:34.304Z,,0,,,NaN,,,,,,false,,,,831741.7000000477,831741.6000000238,,831741.5,,831743.254,8,400,,,
sequence,flow.Sequence,4_115,2023-11-01T18:53:34.304Z,,0,,,6334.8120000239,completion,,,,,false,,,,831741.7000000477,831741.6000000238,825400.744,825402.8999999762,825406.788,831743.254,8,400,,,
trial,html.Screen,4_116_0,2023-11-01T18:53:38.673Z,,0,3,,4367.346000023885,response,ISIC_5498202.JPG,6,ISIC_0029933.JPG,ISIC_5498202.JPG,false,1,keypress(m),500,836110.7000000477,836110.6000000238,831739.993,831741.7000000477,831743.254,836114.614,8,400,17,,ISIC_0029933.JPG
break,html.Screen,4_116_1,2023-11-01T18:53:38.673Z,,0,,,NaN,,,,,,false,,,,836111.1000000238,836111,,836110.8000000715,,836114.614,8,400,,,
break_continue,html.Screen,4_116_2,2023-11-01T18:53:38.674Z,,0,,,NaN,,,,,,false,,,,836111.3999999762,836111.3999999762,,836111.2000000477,,836114.614,8,400,,,
sequence,flow.Sequence,4_116,2023-11-01T18:53:38.674Z,,0,,,4368.145999976201,completion,,,,,false,,,,836111.6000000238,836111.3999999762,831739.993,831741.7000000477,831743.254,836114.614,8,400,,,
trial,html.Screen,4_117_0,2023-11-01T18:53:44.211Z,,0,3,,5534.186000071582,response,ISIC_6069236.JPG,4,ISIC_9412963.JPG,ISIC_6069236.JPG,false,1,keypress(m),500,841649.2000000477,841648.8000000715,836108.885,836111.7000000477,836114.614,841653.9,8,400,18,,ISIC_9412963.JPG
break,html.Screen,4_117_1,2023-11-01T18:53:44.211Z,,0,,,NaN,,,,,,false,,,,841649.3999999762,841649.3999999762,,841649.2000000477,,841653.9,8,400,,,
break_continue,html.Screen,4_117_2,2023-11-01T18:53:44.212Z,,0,,,NaN,,,,,,false,,,,841649.5,841649.5,,841649.5,,841653.9,8,400,,,
sequence,flow.Sequence,4_117,2023-11-01T18:53:44.212Z,,0,,,5534.886000000057,completion,,,,,false,,,,841649.6000000238,841649.5,836108.885,836111.7000000477,836114.614,841653.9,8,400,,,
trial,html.Screen,4_118_0,2023-11-01T18:53:48.437Z,,0,3,,4220.999999976135,response,ISIC_0058098.JPG,4,ISIC_8812781.JPG,ISIC_0058098.JPG,false,1,keypress(m),500,845875.1000000238,845874.8999999762,841651.1,841649.6000000238,841653.9,845877.563,8,400,19,,ISIC_8812781.JPG
break,html.Screen,4_118_1,2023-11-01T18:53:48.438Z,,0,,,NaN,,,,,,false,,,,845875.5,845875.3999999762,,845875.2000000477,,845877.563,8,400,,,
break_continue,html.Screen,4_118_2,2023-11-01T18:53:48.438Z,,0,,,NaN,,,,,,false,,,,845875.7000000477,845875.7000000477,,845875.6000000238,,845877.563,8,400,,,
sequence,flow.Sequence,4_118,2023-11-01T18:53:48.438Z,,0,,,4221.80000004766,completion,,,,,false,,,,845875.8000000715,845875.7000000477,841651.1,841649.6000000238,841653.9,845877.563,8,400,,,
trial,html.Screen,4_119_0,2023-11-01T18:53:53.479Z,,0,3,,5039.637000047718,response,ISIC_5392118.JPG,6,ISIC_4187627.JPG,ISIC_4187627.JPG,false,0,keypress(z),500,850917.3999999762,850917.2000000477,845874.913,845875.8000000715,845877.563,850920.41,8,400,20,,ISIC_5392118.JPG
break,html.Screen,4_119_1,2023-11-01T18:53:53.480Z,,0,,,NaN,,,,,,false,,,,850917.7000000477,850917.6000000238,,850917.3999999762,,850920.41,8,400,,,
break_continue,html.Screen,4_119_2,2023-11-01T18:53:53.480Z,,0,,,NaN,,,,,,false,,,,850918,850918,,850917.8999999762,,850920.41,8,400,,,
sequence,flow.Sequence,4_119,2023-11-01T18:53:53.480Z,,0,,,5040.4370000000345,completion,,,,,false,,,,850918.1000000238,850918,845874.913,845875.8000000715,845877.563,850920.41,8,400,,,
trial,html.Screen,4_120_0,2023-11-01T18:53:59.178Z,,0,3,,5695.489999976126,response,ISIC_0033980.JPG,6,ISIC_8366864.JPG,ISIC_8366864.JPG,false,0,keypress(z),500,856616.1000000238,856615.8999999762,850915.332,850918.1000000238,850920.41,856618.49,8,400,21,,ISIC_0033980.JPG
break,html.Screen,4_120_1,2023-11-01T18:53:59.178Z,,0,,,NaN,,,,,,false,,,,856616.3999999762,856616.3000000715,,856616.1000000238,,856618.49,8,400,,,
break_continue,html.Screen,4_120_2,2023-11-01T18:53:59.179Z,,0,,,NaN,,,,,,false,,,,856616.5,856616.5,,856616.3999999762,,856618.49,8,400,,,
sequence,flow.Sequence,4_120,2023-11-01T18:53:59.179Z,,0,,,5696.089999999967,completion,,,,,false,,,,856616.6000000238,856616.5,850915.332,850918.1000000238,850920.41,856618.49,8,400,,,
trial,html.Screen,4_121_0,2023-11-01T18:54:05.724Z,,0,3,,6543.810000071535,response,ISIC_1389563.JPG,5,ISIC_5358548.JPG,ISIC_5358548.JPG,false,0,keypress(z),500,863162.3999999762,863162.3000000715,856613.881,856616.7000000477,856618.49,863167.455,8,400,22,,ISIC_1389563.JPG
break,html.Screen,4_121_1,2023-11-01T18:54:05.725Z,,0,,,NaN,,,,,,false,,,,863162.7000000477,863162.6000000238,,863162.5,,863167.455,8,400,,,
break_continue,html.Screen,4_121_2,2023-11-01T18:54:05.725Z,,0,,,NaN,,,,,,false,,,,863163.2000000477,863162.8000000715,,863162.8000000715,,863167.455,8,400,,,
sequence,flow.Sequence,4_121,2023-11-01T18:54:05.725Z,,0,,,6544.310000071535,completion,,,,,false,,,,863163.3000000715,863162.8000000715,856613.881,856616.7000000477,856618.49,863167.455,8,400,,,
trial,html.Screen,4_122_0,2023-11-01T18:54:10.703Z,,0,3,,4973.545000000042,response,ISIC_0026247.JPG,5,ISIC_0046225.JPG,ISIC_0046225.JPG,false,0,keypress(z),500,868141.3000000715,868141,863160.57,863163.3000000715,863167.455,868145.827,8,400,23,,ISIC_0026247.JPG
break,html.Screen,4_122_1,2023-11-01T18:54:10.704Z,,0,,,NaN,,,,,,false,,,,868141.8000000715,868141.7000000477,,868141.3000000715,,868145.827,8,400,,,
break_continue,html.Screen,4_122_2,2023-11-01T18:54:10.704Z,,0,,,NaN,,,,,,false,,,,868142,868141.8999999762,,868141.8999999762,,868145.827,8,400,,,
sequence,flow.Sequence,4_122,2023-11-01T18:54:10.704Z,,0,,,4974.4449999762,completion,,,,,false,,,,868142,868141.8999999762,863160.57,863163.3000000715,863167.455,868145.827,8,400,,,
trial,html.Screen,4_123_0,2023-11-01T18:54:15.506Z,,0,3,,4797.873000047635,response,ISIC_0011747.JPG,5,ISIC_4764568.JPG,ISIC_4764568.JPG,false,0,keypress(z),500,872943.8000000715,872943.7000000477,868140.467,868142,868145.827,872946.457,8,400,24,,ISIC_0011747.JPG
break,html.Screen,4_123_1,2023-11-01T18:54:15.506Z,,0,,,NaN,,,,,,false,,,,872944.3000000715,872944.1000000238,,872944,,872946.457,8,400,,,
break_continue,html.Screen,4_123_2,2023-11-01T18:54:15.507Z,,0,,,NaN,,,,,,false,,,,872944.6000000238,872944.5,,872944.3999999762,,872946.457,8,400,,,
sequence,flow.Sequence,4_123,2023-11-01T18:54:15.507Z,,0,,,4798.672999999952,completion,,,,,false,,,,872944.8000000715,872944.5,868140.467,868142,868145.827,872946.457,8,400,,,
trial,html.Screen,4_124_0,2023-11-01T18:54:19.956Z,,0,3,,4447.8430000714725,response,ISIC_0979974.JPG,5,ISIC_0058625.JPG,ISIC_0058625.JPG,false,0,keypress(z),500,877394.3999999762,877394.3000000715,872942.155,872944.8999999762,872946.457,877397.664,8,400,25,,ISIC_0979974.JPG
break,html.Screen,4_124_1,2023-11-01T18:54:19.957Z,,0,,,NaN,,,,,,false,,,,877394.7000000477,877394.6000000238,,877394.5,,877397.664,8,400,,,
break_continue,html.Screen,4_124_2,2023-11-01T18:54:19.957Z,,0,,,NaN,,,,,,false,,,,877394.8999999762,877394.7000000477,,877394.7000000477,,877397.664,8,400,,,
sequence,flow.Sequence,4_124,2023-11-01T18:54:19.957Z,,0,,,4448.243000047631,completion,,,,,false,,,,877395,877394.7000000477,872942.155,872944.8999999762,872946.457,877397.664,8,400,,,
trial,html.Screen,4_125_0,2023-11-01T18:54:25.527Z,,0,3,,5567.436000023852,response,ISIC_0060222.JPG,5,ISIC_0392105.JPG,ISIC_0392105.JPG,false,0,keypress(z),500,882965.2000000477,882965.1000000238,877394.144,877395.1000000238,877397.664,882968.127,8,400,26,,ISIC_0060222.JPG
break,html.Screen,4_125_1,2023-11-01T18:54:25.528Z,,0,,,NaN,,,,,,false,,,,882965.7000000477,882965.6000000238,,882965.3999999762,,882968.127,8,400,,,
break_continue,html.Screen,4_125_2,2023-11-01T18:54:25.528Z,,0,,,NaN,,,,,,false,,,,882965.8999999762,882965.8000000715,,882965.7000000477,,882968.127,8,400,,,
sequence,flow.Sequence,4_125,2023-11-01T18:54:25.528Z,,0,,,5568.136000071536,completion,,,,,false,,,,882966.1000000238,882965.8000000715,877394.144,877395,877397.664,882968.127,8,400,,,
