sender,sender_type,sender_id,timestamp,meta,,blockNo,condition,duration,ended_on,img_left,img_reveal,img_right,loser,practice,response,response_action,selection_duration,time_commit,time_end,time_render,time_run,time_show,time_switch,total_blocks,total_trials,trialNo,url,winner
informed_consent,html.Screen,0,2023-05-01T22:00:40.541Z,"{""labjs_version"":""20.2.4"",""labjs_build"":{""flavor"":""production"",""commit"":""f5b4a49f956347addd546a832a3327688c2c0fef""},""location"":""https://run.pavlovia.org/MurrayBennett/melanoma-2afc/?participant=63928"",""userAgent"":""Mozilla/5.0 (Macintosh; Intel Mac OS X 10_15_7) AppleWebKit/605.1.15 (KHTML, like Gecko) Version/15.6 Safari/605.1.15"",""platform"":""MacIntel"",""language"":""en-US"",""locale"":""en-US"",""timeZone"":""America/Chicago"",""timezoneOffset"":300,""screen_width"":1470,""screen_height"":956,""scroll_width"":1470,""scroll_height"":792,""window_innerWidth"":1470,""window_innerHeight"":840,""devicePixelRatio"":2}",,,,5131,response,,,,,,consent,click button,,7274,7285,2154,2150,2170,7304,,,,"{""participant"":""63928""}",
Welcome,html.Screen,1,2023-05-01T22:00:45.931Z,,,,irregular,5390,response,,,,,,continue,click button,,12664,12677,7287,7274,7304,12687,,,,,
trial,html.Screen,2_0_0,2023-05-01T22:00:51.784Z,,0,0,,5845,response,ISIC_0061792.JPG,,ISIC_4679428.JPG,ISIC_0061792.JPG,true,1,keypress(m),500,18516,18515,12670,12665.000000000002,12687,18554,1,6,1,,ISIC_4679428.JPG
sequence,flow.Sequence,2_0,2023-05-01T22:00:51.785Z,,0,,,5828,completion,,,,,true,,,,18518,18515,12670,12665.000000000002,12687,18554,1,6,,,
trial,html.Screen,2_1_0,2023-05-01T22:00:57.275Z,,0,0,,5470,response,ISIC_0776486.JPG,,ISIC_5199497.JPG,ISIC_0776486.JPG,true,1,keypress(m),500,24008,24007,18537,18519.000000000004,18554,24037,1,6,2,,ISIC_5199497.JPG
sequence,flow.Sequence,2_1,2023-05-01T22:00:57.276Z,,0,,,5453,completion,,,,,true,,,,24009,24007,18537,18518,18554,24037,1,6,,,
trial,html.Screen,2_2_0,2023-05-01T22:01:01.966Z,,0,0,,4678,response,ISIC_2556187.JPG,,ISIC_8575776.JPG,ISIC_8575776.JPG,true,0,keypress(z),500,28698,28698,24020,24009,24037,28736,1,6,3,,ISIC_2556187.JPG
sequence,flow.Sequence,2_2,2023-05-01T22:01:01.967Z,,0,,,4661,completion,,,,,true,,,,28699,28698,24020,24009,24037,28736,1,6,,,
trial,html.Screen,2_3_0,2023-05-01T22:01:06.244Z,,0,0,,4256,response,ISIC_8141769.JPG,,ISIC_9238366.JPG,ISIC_9238366.JPG,true,0,keypress(z),500,32977.00000000001,32976,28720,28700,28736,33004,1,6,4,,ISIC_8141769.JPG
sequence,flow.Sequence,2_3,2023-05-01T22:01:06.245Z,,0,,,4240,completion,,,,,true,,,,32978,32976,28720,28700,28736,33004,1,6,,,
trial,html.Screen,2_4_0,2023-05-01T22:01:09.701Z,,0,0,,3446,response,ISIC_8949026.JPG,,ISIC_9959593.JPG,ISIC_8949026.JPG,true,1,keypress(m),500,36434,36433,32987,32978,33004,36470,1,6,5,,ISIC_9959593.JPG
sequence,flow.Sequence,2_4,2023-05-01T22:01:09.702Z,,0,,,3429,completion,,,,,true,,,,36435,36433,32987,32978,33004,36470,1,6,,,
trial,html.Screen,2_5_0,2023-05-01T22:01:12.771Z,,0,0,,3048,response,ISIC_0010479.JPG,,ISIC_0460240.JPG,ISIC_0460240.JPG,true,0,keypress(z),500,39503,39502,36454,36435,36470,39536,1,6,6,,ISIC_0010479.JPG
sequence,flow.Sequence,2_5,2023-05-01T22:01:12.771Z,,0,,,3032,completion,,,,,true,,,,39504,39502,36454,36435,36470,39536,1,6,,,
loop,flow.Loop,2,2023-05-01T22:01:12.772Z,,,,,26815,completion,,,,,true,,,,39505,39502,12670,12665.000000000002,12687,39536,1,6,,,
exp_instructions,html.Screen,3,2023-05-01T22:01:16.780Z,,,,,4001,response,,,,,,continue,keypress(Space),,43513,43521,39520,39505,39536,43537,,,,,
trial,html.Screen,4_0_0,2023-05-01T22:01:21.249Z,,0,1,,4461,response,ISIC_0054025.JPG,,ISIC_0000411.JPG,ISIC_0000411.JPG,false,0,keypress(z),500,47982,47981,43520,43513,43537,48020,8,400,1,,ISIC_0054025.JPG
break,html.Screen,4_0_1,2023-05-01T22:01:21.251Z,,0,,,NaN,,,,,,false,,,,47984,47983.00000000001,,47982,,48020,8,400,,,
break_continue,html.Screen,4_0_2,2023-05-01T22:01:21.252Z,,0,,,NaN,,,,,,false,,,,47985,47984,,47984,,48020,8,400,,,
sequence,flow.Sequence,4_0,2023-05-01T22:01:21.252Z,,0,,,4447,completion,,,,,false,,,,47985,47984,43520,43513,43537,48020,8,400,,,
trial,html.Screen,4_1_0,2023-05-01T22:01:25.073Z,,0,1,,3801,response,ISIC_0082704.JPG,,ISIC_0028584.JPG,ISIC_0082704.JPG,false,1,keypress(m),500,51805,51804,48003,47985,48020,51837,8,400,2,,ISIC_0028584.JPG
break,html.Screen,4_1_1,2023-05-01T22:01:25.074Z,,0,,,NaN,,,,,,false,,,,51807,51807,,51806.00000000001,,51837,8,400,,,
break_continue,html.Screen,4_1_2,2023-05-01T22:01:25.075Z,,0,,,NaN,,,,,,false,,,,51808,51808,,51808,,51837,8,400,,,
sequence,flow.Sequence,4_1,2023-05-01T22:01:25.076Z,,0,,,3788,completion,,,,,false,,,,51808,51808,48003,47985,48020,51837,8,400,,,
trial,html.Screen,4_2_0,2023-05-01T22:01:33.528Z,,0,1,,8440,response,ISIC_0029744.JPG,,ISIC_0072553.JPG,ISIC_0072553.JPG,false,0,keypress(z),500,60261,60260,51820,51809.00000000001,51837,60287,8,400,3,,ISIC_0029744.JPG
break,html.Screen,4_2_1,2023-05-01T22:01:33.529Z,,0,,,NaN,,,,,,false,,,,60262,60262,,60261,,60287,8,400,,,
break_continue,html.Screen,4_2_2,2023-05-01T22:01:33.530Z,,0,,,NaN,,,,,,false,,,,60263,60262,,60262,,60287,8,400,,,
sequence,flow.Sequence,4_2,2023-05-01T22:01:33.530Z,,0,,,8425,completion,,,,,false,,,,60263,60262,51820,51809.00000000001,51837,60287,8,400,,,
trial,html.Screen,4_3_0,2023-05-01T22:01:37.078Z,,0,1,,3540,response,ISIC_5391758.JPG,,ISIC_0014133.JPG,ISIC_5391758.JPG,false,1,keypress(m),500,63811,63810,60270,60263,60287,63837,8,400,4,,ISIC_0014133.JPG
break,html.Screen,4_3_1,2023-05-01T22:01:37.080Z,,0,,,NaN,,,,,,false,,,,63813,63812.00000000001,,63812.00000000001,,63837,8,400,,,
break_continue,html.Screen,4_3_2,2023-05-01T22:01:37.081Z,,0,,,NaN,,,,,,false,,,,63814,63813,,63813,,63837,8,400,,,
sequence,flow.Sequence,4_3,2023-05-01T22:01:37.081Z,,0,,,3526,completion,,,,,false,,,,63814,63813,60270,60263,60287,63837,8,400,,,
trial,html.Screen,4_4_0,2023-05-01T22:01:39.632Z,,0,1,,2543,response,ISIC_0011797.JPG,,ISIC_8477065.JPG,ISIC_8477065.JPG,false,0,keypress(z),500,66364,66363,63820,63815.00000000001,63837,66387,8,400,5,,ISIC_0011797.JPG
break,html.Screen,4_4_1,2023-05-01T22:01:39.633Z,,0,,,NaN,,,,,,false,,,,66366,66366,,66365,,66387,8,400,,,
break_continue,html.Screen,4_4_2,2023-05-01T22:01:39.634Z,,0,,,NaN,,,,,,false,,,,66367,66367,,66367,,66387,8,400,,,
sequence,flow.Sequence,4_4,2023-05-01T22:01:39.635Z,,0,,,2530,completion,,,,,false,,,,66368,66367,63820,63814,63837,66387,8,400,,,
trial,html.Screen,4_5_0,2023-05-01T22:01:42.254Z,,0,1,,2616,response,ISIC_0027622.JPG,,ISIC_2021175.JPG,ISIC_2021175.JPG,false,0,keypress(z),500,68987,68986,66370,66368,66387,69020,8,400,6,,ISIC_0027622.JPG
break,html.Screen,4_5_1,2023-05-01T22:01:42.256Z,,0,,,NaN,,,,,,false,,,,68989,68988,,68988,,69020,8,400,,,
break_continue,html.Screen,4_5_2,2023-05-01T22:01:42.256Z,,0,,,NaN,,,,,,false,,,,68989,68989,,68989,,69020,8,400,,,
sequence,flow.Sequence,4_5,2023-05-01T22:01:42.257Z,,0,,,2602,completion,,,,,false,,,,68990,68989,66370,66368,66387,69020,8,400,,,
trial,html.Screen,4_6_0,2023-05-01T22:01:44.935Z,,0,1,,2664,response,ISIC_0000660.JPG,,ISIC_3747979.JPG,ISIC_0000660.JPG,false,1,keypress(m),500,71668,71667,69003,68990,69020,71686,8,400,7,,ISIC_3747979.JPG
break,html.Screen,4_6_1,2023-05-01T22:01:44.936Z,,0,,,NaN,,,,,,false,,,,71669,71669,,71668,,71686,8,400,,,
break_continue,html.Screen,4_6_2,2023-05-01T22:01:44.937Z,,0,,,NaN,,,,,,false,,,,71670,71670,,71670,,71686,8,400,,,
sequence,flow.Sequence,4_6,2023-05-01T22:01:44.937Z,,0,,,2650,completion,,,,,false,,,,71670,71670,69003,68990,69020,71686,8,400,,,
trial,html.Screen,4_7_0,2023-05-01T22:01:47.610Z,,0,1,,2669,response,ISIC_6856140.JPG,,ISIC_0033545.JPG,ISIC_6856140.JPG,false,1,keypress(m),500,74343,74342,71673,71671,71686,74370,8,400,8,,ISIC_0033545.JPG
break,html.Screen,4_7_1,2023-05-01T22:01:47.612Z,,0,,,NaN,,,,,,false,,,,74345,74344.00000000001,,74343,,74370,8,400,,,
break_continue,html.Screen,4_7_2,2023-05-01T22:01:47.612Z,,0,,,NaN,,,,,,false,,,,74345,74345,,74345,,74370,8,400,,,
sequence,flow.Sequence,4_7,2023-05-01T22:01:47.612Z,,0,,,2659,completion,,,,,false,,,,74345,74345,71673,71671,71686,74370,8,400,,,
trial,html.Screen,4_8_0,2023-05-01T22:01:50.966Z,,0,1,,3345.0000000000146,response,ISIC_6710082.JPG,,ISIC_0071594.JPG,ISIC_6710082.JPG,false,1,keypress(m),500,77699,77698.00000000001,74353,74345,74370,77737,8,400,9,,ISIC_0071594.JPG
break,html.Screen,4_8_1,2023-05-01T22:01:50.968Z,,0,,,NaN,,,,,,false,,,,77701.00000000001,77700,,77700,,77737,8,400,,,
break_continue,html.Screen,4_8_2,2023-05-01T22:01:50.968Z,,0,,,NaN,,,,,,false,,,,77701.00000000001,77701.00000000001,,77701.00000000001,,77737,8,400,,,
sequence,flow.Sequence,4_8,2023-05-01T22:01:50.968Z,,0,,,3331.0000000000146,completion,,,,,false,,,,77701.00000000001,77701.00000000001,74353,74345,74370,77737,8,400,,,
trial,html.Screen,4_9_0,2023-05-01T22:01:54.191Z,,0,1,,3203,response,ISIC_7218890.JPG,,ISIC_0032600.JPG,ISIC_7218890.JPG,false,1,keypress(m),500,80924,80923,77720,77702,77737,80953,8,400,10,,ISIC_0032600.JPG
break,html.Screen,4_9_1,2023-05-01T22:01:54.192Z,,0,,,NaN,,,,,,false,,,,80925,80925,,80924,,80953,8,400,,,
break_continue,html.Screen,4_9_2,2023-05-01T22:01:54.193Z,,0,,,NaN,,,,,,false,,,,80926,80926,,80925,,80953,8,400,,,
sequence,flow.Sequence,4_9,2023-05-01T22:01:54.193Z,,0,,,3189,completion,,,,,false,,,,80926,80926,77720,77702,77737,80953,8,400,,,
trial,html.Screen,4_10_0,2023-05-01T22:01:57.471Z,,0,1,,3267,response,ISIC_8375123.JPG,,ISIC_0032549.JPG,ISIC_8375123.JPG,false,1,keypress(m),500,84204.00000000001,84203,80936,80927,80953,84236,8,400,11,,ISIC_0032549.JPG
break,html.Screen,4_10_1,2023-05-01T22:01:57.472Z,,0,,,NaN,,,,,,false,,,,84205,84205,,84204.00000000001,,84236,8,400,,,
break_continue,html.Screen,4_10_2,2023-05-01T22:01:57.473Z,,0,,,NaN,,,,,,false,,,,84206,84206,,84205,,84236,8,400,,,
sequence,flow.Sequence,4_10,2023-05-01T22:01:57.473Z,,0,,,3253,completion,,,,,false,,,,84206,84206,80936,80926,80953,84236,8,400,,,
trial,html.Screen,4_11_0,2023-05-01T22:02:07.865Z,,0,1,,10377.000000000015,response,ISIC_1161370.JPG,,ISIC_7010552.JPG,ISIC_1161370.JPG,false,1,keypress(m),500,94598,94597.00000000001,84220,84206,84236,94620,8,400,12,,ISIC_7010552.JPG
break,html.Screen,4_11_1,2023-05-01T22:02:07.866Z,,0,,,NaN,,,,,,false,,,,94599,94599,,94598,,94620,8,400,,,
break_continue,html.Screen,4_11_2,2023-05-01T22:02:07.867Z,,0,,,NaN,,,,,,false,,,,94600.00000000001,94600.00000000001,,94600.00000000001,,94620,8,400,,,
sequence,flow.Sequence,4_11,2023-05-01T22:02:07.867Z,,0,,,10364.000000000015,completion,,,,,false,,,,94600.00000000001,94600.00000000001,84220,84206,84236,94620,8,400,,,
trial,html.Screen,4_12_0,2023-05-01T22:02:11.168Z,,0,1,,3298,response,ISIC_0002745.JPG,,ISIC_0033621.JPG,ISIC_0002745.JPG,false,1,keypress(m),500,97901,97900,94602,94600.00000000001,94620,97936,8,400,13,,ISIC_0033621.JPG
break,html.Screen,4_12_1,2023-05-01T22:02:11.169Z,,0,,,NaN,,,,,,false,,,,97902,97902,,97901,,97936,8,400,,,
break_continue,html.Screen,4_12_2,2023-05-01T22:02:11.170Z,,0,,,NaN,,,,,,false,,,,97903,97903,,97902,,97936,8,400,,,
sequence,flow.Sequence,4_12,2023-05-01T22:02:11.170Z,,0,,,3283,completion,,,,,false,,,,97903,97903,94602,94600.00000000001,94620,97936,8,400,,,
trial,html.Screen,4_13_0,2023-05-01T22:02:15.307Z,,0,1,,4120,response,ISIC_0071367.JPG,,ISIC_0029216.JPG,ISIC_0029216.JPG,false,0,keypress(z),500,102041,102040,97920,97903,97936,102070,8,400,14,,ISIC_0071367.JPG
break,html.Screen,4_13_1,2023-05-01T22:02:15.309Z,,0,,,NaN,,,,,,false,,,,102042,102042,,102041,,102070,8,400,,,
break_continue,html.Screen,4_13_2,2023-05-01T22:02:15.309Z,,0,,,NaN,,,,,,false,,,,102042,102042,,102042,,102070,8,400,,,
sequence,flow.Sequence,4_13,2023-05-01T22:02:15.309Z,,0,,,4106,completion,,,,,false,,,,102043,102042,97920,97903,97936,102070,8,400,,,
trial,html.Screen,4_14_0,2023-05-01T22:02:17.957Z,,0,1,,2637,response,ISIC_0030751.JPG,,ISIC_0072382.JPG,ISIC_0030751.JPG,false,1,keypress(m),500,104691,104690,102053,102043,102070,104720,8,400,15,,ISIC_0072382.JPG
break,html.Screen,4_14_1,2023-05-01T22:02:17.959Z,,0,,,NaN,,,,,,false,,,,104692,104692,,104691,,104720,8,400,,,
break_continue,html.Screen,4_14_2,2023-05-01T22:02:17.959Z,,0,,,NaN,,,,,,false,,,,104693,104692,,104692,,104720,8,400,,,
sequence,flow.Sequence,4_14,2023-05-01T22:02:17.960Z,,0,,,2622,completion,,,,,false,,,,104693,104692,102053,102043,102070,104720,8,400,,,
trial,html.Screen,4_15_0,2023-05-01T22:02:20.850Z,,0,1,,2880,response,ISIC_3993924.JPG,,ISIC_0011130.JPG,ISIC_3993924.JPG,false,1,keypress(m),500,107584,107583,104703,104693,104720,107620,8,400,16,,ISIC_0011130.JPG
break,html.Screen,4_15_1,2023-05-01T22:02:20.852Z,,0,,,NaN,,,,,,false,,,,107585.00000000001,107585.00000000001,,107584,,107620,8,400,,,
break_continue,html.Screen,4_15_2,2023-05-01T22:02:20.852Z,,0,,,NaN,,,,,,false,,,,107586,107585.00000000001,,107585.00000000001,,107620,8,400,,,
sequence,flow.Sequence,4_15,2023-05-01T22:02:20.853Z,,0,,,2865.0000000000146,completion,,,,,false,,,,107586,107585.00000000001,104703,104693,104720,107620,8,400,,,
trial,html.Screen,4_16_0,2023-05-01T22:02:23.450Z,,0,1,,2580,response,ISIC_7594601.JPG,,ISIC_0057518.JPG,ISIC_7594601.JPG,false,1,keypress(m),500,110183,110183,107603,107586,107620,110220,8,400,17,,ISIC_0057518.JPG
break,html.Screen,4_16_1,2023-05-01T22:02:23.452Z,,0,,,NaN,,,,,,false,,,,110185,110184,,110184,,110220,8,400,,,
break_continue,html.Screen,4_16_2,2023-05-01T22:02:23.452Z,,0,,,NaN,,,,,,false,,,,110185,110185,,110185,,110220,8,400,,,
sequence,flow.Sequence,4_16,2023-05-01T22:02:23.452Z,,0,,,2565,completion,,,,,false,,,,110185,110185,107603,107586,107620,110220,8,400,,,
trial,html.Screen,4_17_0,2023-05-01T22:02:26.892Z,,0,1,,3422,response,ISIC_9317483.JPG,,ISIC_0025464.JPG,ISIC_0025464.JPG,false,0,keypress(z),500,113626,113625,110203,110186,110220,113653,8,400,18,,ISIC_9317483.JPG
break,html.Screen,4_17_1,2023-05-01T22:02:26.894Z,,0,,,NaN,,,,,,false,,,,113627,113627,,113626,,113653,8,400,,,
break_continue,html.Screen,4_17_2,2023-05-01T22:02:26.894Z,,0,,,NaN,,,,,,false,,,,113627,113627,,113627,,113653,8,400,,,
sequence,flow.Sequence,4_17,2023-05-01T22:02:26.894Z,,0,,,3407,completion,,,,,false,,,,113627,113627,110203,110186,110220,113653,8,400,,,
trial,html.Screen,4_18_0,2023-05-01T22:02:30.237Z,,0,1,,3333.0000000000146,response,ISIC_0033479.JPG,,ISIC_0069050.JPG,ISIC_0069050.JPG,false,0,keypress(z),500,116970,116969.00000000001,113636,113628,113653,117003,8,400,19,,ISIC_0033479.JPG
break,html.Screen,4_18_1,2023-05-01T22:02:30.238Z,,0,,,NaN,,,,,,false,,,,116972.00000000001,116971,,116971,,117003,8,400,,,
break_continue,html.Screen,4_18_2,2023-05-01T22:02:30.239Z,,0,,,NaN,,,,,,false,,,,116972.00000000001,116972.00000000001,,116972.00000000001,,117003,8,400,,,
sequence,flow.Sequence,4_18,2023-05-01T22:02:30.239Z,,0,,,3319.0000000000146,completion,,,,,false,,,,116972.00000000001,116972.00000000001,113636,113628,113653,117003,8,400,,,
trial,html.Screen,4_19_0,2023-05-01T22:02:33.549Z,,0,1,,3295,response,ISIC_7441957.JPG,,ISIC_0162967.JPG,ISIC_0162967.JPG,false,0,keypress(z),500,120282,120281,116986,116973,117003,120320,8,400,20,,ISIC_7441957.JPG
break,html.Screen,4_19_1,2023-05-01T22:02:33.550Z,,0,,,NaN,,,,,,false,,,,120283,120283,,120282,,120320,8,400,,,
break_continue,html.Screen,4_19_2,2023-05-01T22:02:33.551Z,,0,,,NaN,,,,,,false,,,,120284,120284,,120284,,120320,8,400,,,
sequence,flow.Sequence,4_19,2023-05-01T22:02:33.551Z,,0,,,3281,completion,,,,,false,,,,120284,120284,116986,116973,117003,120320,8,400,,,
trial,html.Screen,4_20_0,2023-05-01T22:02:36.620Z,,0,1,,3050.0000000000146,response,ISIC_8199467.JPG,,ISIC_6996553.JPG,ISIC_6996553.JPG,false,0,keypress(z),500,123354,123353.00000000001,120303,120284,120320,123385,8,400,21,,ISIC_8199467.JPG
break,html.Screen,4_20_1,2023-05-01T22:02:36.622Z,,0,,,NaN,,,,,,false,,,,123355,123355,,123354,,123385,8,400,,,
break_continue,html.Screen,4_20_2,2023-05-01T22:02:36.623Z,,0,,,NaN,,,,,,false,,,,123356.00000000001,123356.00000000001,,123355,,123385,8,400,,,
sequence,flow.Sequence,4_20,2023-05-01T22:02:36.623Z,,0,,,3036.0000000000146,completion,,,,,false,,,,123356.00000000001,123356.00000000001,120303,120284,120320,123385,8,400,,,
trial,html.Screen,4_21_0,2023-05-01T22:02:40.916Z,,0,1,,4279,response,ISIC_0065181.JPG,,ISIC_0034134.JPG,ISIC_0034134.JPG,false,0,keypress(z),500,127649,127649,123370,123356.00000000001,123385,127686,8,400,22,,ISIC_0065181.JPG
break,html.Screen,4_21_1,2023-05-01T22:02:40.917Z,,0,,,NaN,,,,,,false,,,,127651,127650,,127650,,127686,8,400,,,
break_continue,html.Screen,4_21_2,2023-05-01T22:02:40.918Z,,0,,,NaN,,,,,,false,,,,127651,127651,,127651,,127686,8,400,,,
sequence,flow.Sequence,4_21,2023-05-01T22:02:40.918Z,,0,,,4266,completion,,,,,false,,,,127651,127651,123370,123356.00000000001,123385,127686,8,400,,,
trial,html.Screen,4_22_0,2023-05-01T22:02:43.877Z,,0,1,,2940.0000000000146,response,ISIC_0268701.JPG,,ISIC_0015071.JPG,ISIC_0268701.JPG,false,1,keypress(m),500,130610.00000000001,130610.00000000001,127670,127651,127686,130636,8,400,23,,ISIC_0015071.JPG
break,html.Screen,4_22_1,2023-05-01T22:02:43.879Z,,0,,,NaN,,,,,,false,,,,130612,130612,,130610.99999999999,,130636,8,400,,,
break_continue,html.Screen,4_22_2,2023-05-01T22:02:43.879Z,,0,,,NaN,,,,,,false,,,,130612,130612,,130612,,130636,8,400,,,
sequence,flow.Sequence,4_22,2023-05-01T22:02:43.879Z,,0,,,2926,completion,,,,,false,,,,130613,130612,127670,127651,127686,130636,8,400,,,
trial,html.Screen,4_23_0,2023-05-01T22:02:46.613Z,,0,1,,2727,response,ISIC_6948604.JPG,,ISIC_3203344.JPG,ISIC_6948604.JPG,false,1,keypress(m),500,133347,133346,130619,130613,130636,133369,8,400,24,,ISIC_3203344.JPG
break,html.Screen,4_23_1,2023-05-01T22:02:46.614Z,,0,,,NaN,,,,,,false,,,,133348,133348,,133347,,133369,8,400,,,
break_continue,html.Screen,4_23_2,2023-05-01T22:02:46.615Z,,0,,,NaN,,,,,,false,,,,133348,133348,,133348,,133369,8,400,,,
sequence,flow.Sequence,4_23,2023-05-01T22:02:46.615Z,,0,,,2712,completion,,,,,false,,,,133349,133348,130619,130613,130636,133369,8,400,,,
trial,html.Screen,4_24_0,2023-05-01T22:02:49.821Z,,0,1,,3202,response,ISIC_0033463.JPG,,ISIC_0033640.JPG,ISIC_0033463.JPG,false,1,keypress(m),500,136554,136554,133352,133349,133369,136586,8,400,25,,ISIC_0033640.JPG
break,html.Screen,4_24_1,2023-05-01T22:02:49.822Z,,0,,,NaN,,,,,,false,,,,136556,136555,,136555,,136586,8,400,,,
break_continue,html.Screen,4_24_2,2023-05-01T22:02:49.823Z,,0,,,NaN,,,,,,false,,,,136556,136556,,136556,,136586,8,400,,,
sequence,flow.Sequence,4_24,2023-05-01T22:02:49.823Z,,0,,,3187,completion,,,,,false,,,,136556,136556,133352,133349,133369,136586,8,400,,,
trial,html.Screen,4_25_0,2023-05-01T22:02:52.972Z,,0,1,,3136,response,ISIC_0024455.JPG,,ISIC_2987677.JPG,ISIC_0024455.JPG,false,1,keypress(m),500,139706,139705,136569,136557.00000000003,136586,139736,8,400,26,,ISIC_2987677.JPG
break,html.Screen,4_25_1,2023-05-01T22:02:52.973Z,,0,,,NaN,,,,,,false,,,,139707,139707,,139706,,139736,8,400,,,
break_continue,html.Screen,4_25_2,2023-05-01T22:02:52.974Z,,0,,,NaN,,,,,,false,,,,139707,139707,,139707,,139736,8,400,,,
sequence,flow.Sequence,4_25,2023-05-01T22:02:52.974Z,,0,,,3121,completion,,,,,false,,,,139708,139707,136569,136556,136586,139736,8,400,,,
trial,html.Screen,4_26_0,2023-05-01T22:02:56.950Z,,0,1,,3964,response,ISIC_0071568.JPG,,ISIC_6208107.JPG,ISIC_0071568.JPG,false,1,keypress(m),500,143683,143683,139719,139708,139736,143719,8,400,27,,ISIC_6208107.JPG
break,html.Screen,4_26_1,2023-05-01T22:02:56.951Z,,0,,,NaN,,,,,,false,,,,143685,143684,,143684,,143719,8,400,,,
break_continue,html.Screen,4_26_2,2023-05-01T22:02:56.952Z,,0,,,NaN,,,,,,false,,,,143685,143685,,143685,,143719,8,400,,,
sequence,flow.Sequence,4_26,2023-05-01T22:02:56.952Z,,0,,,3949,completion,,,,,false,,,,143685,143685,139719,139708,139736,143719,8,400,,,
trial,html.Screen,4_27_0,2023-05-01T22:03:00.452Z,,0,1,,3482,response,ISIC_0062048.JPG,,ISIC_0024219.JPG,ISIC_0024219.JPG,false,0,keypress(z),500,147185,147185,143703,143686,143719,147219,8,400,28,,ISIC_0062048.JPG
break,html.Screen,4_27_1,2023-05-01T22:03:00.453Z,,0,,,NaN,,,,,,false,,,,147187,147186,,147186,,147219,8,400,,,
break_continue,html.Screen,4_27_2,2023-05-01T22:03:00.454Z,,0,,,NaN,,,,,,false,,,,147187,147187,,147187,,147219,8,400,,,
sequence,flow.Sequence,4_27,2023-05-01T22:03:00.454Z,,0,,,3468,completion,,,,,false,,,,147187,147187,143703,143685,143719,147219,8,400,,,
trial,html.Screen,4_28_0,2023-05-01T22:03:03.964Z,,0,1,,3494,response,ISIC_0070419.JPG,,ISIC_0013844.JPG,ISIC_0013844.JPG,false,0,keypress(z),500,150698,150697,147203,147188.00000000003,147219,150719,8,400,29,,ISIC_0070419.JPG
break,html.Screen,4_28_1,2023-05-01T22:03:03.965Z,,0,,,NaN,,,,,,false,,,,150699,150699,,150698,,150719,8,400,,,
break_continue,html.Screen,4_28_2,2023-05-01T22:03:03.966Z,,0,,,NaN,,,,,,false,,,,150700.00000000003,150699,,150699,,150719,8,400,,,
sequence,flow.Sequence,4_28,2023-05-01T22:03:03.966Z,,0,,,3480,completion,,,,,false,,,,150700.00000000003,150699,147203,147187,147219,150719,8,400,,,
trial,html.Screen,4_29_0,2023-05-01T22:03:06.892Z,,0,1,,2923,response,ISIC_5312710.JPG,,ISIC_0033804.JPG,ISIC_5312710.JPG,false,1,keypress(m),500,153625,153625,150702,150700.00000000003,150719,153653,8,400,30,,ISIC_0033804.JPG
break,html.Screen,4_29_1,2023-05-01T22:03:06.893Z,,0,,,NaN,,,,,,false,,,,153626,153626,,153626,,153653,8,400,,,
break_continue,html.Screen,4_29_2,2023-05-01T22:03:06.893Z,,0,,,NaN,,,,,,false,,,,153627,153627,,153627,,153653,8,400,,,
sequence,flow.Sequence,4_29,2023-05-01T22:03:06.894Z,,0,,,2908,completion,,,,,false,,,,153627,153627,150702,150700.00000000003,150719,153653,8,400,,,
trial,html.Screen,4_30_0,2023-05-01T22:03:10.936Z,,0,1,,4033,response,ISIC_6392461.JPG,,ISIC_0024757.JPG,ISIC_6392461.JPG,false,1,keypress(m),500,157670.00000000003,157669,153636,153628,153653,157703,8,400,31,,ISIC_0024757.JPG
break,html.Screen,4_30_1,2023-05-01T22:03:10.938Z,,0,,,NaN,,,,,,false,,,,157671,157671,,157670.00000000003,,157703,8,400,,,
break_continue,html.Screen,4_30_2,2023-05-01T22:03:10.938Z,,0,,,NaN,,,,,,false,,,,157672,157672,,157672,,157703,8,400,,,
sequence,flow.Sequence,4_30,2023-05-01T22:03:10.939Z,,0,,,4019,completion,,,,,false,,,,157672,157672,153636,153627,153653,157703,8,400,,,
trial,html.Screen,4_31_0,2023-05-01T22:03:13.605Z,,0,1,,2652,response,ISIC_2255411.JPG,,ISIC_3596927.JPG,ISIC_3596927.JPG,false,0,keypress(z),500,160338,160338,157686,157672,157703,160369,8,400,32,,ISIC_2255411.JPG
break,html.Screen,4_31_1,2023-05-01T22:03:13.606Z,,0,,,NaN,,,,,,false,,,,160340,160339,,160339,,160369,8,400,,,
break_continue,html.Screen,4_31_2,2023-05-01T22:03:13.607Z,,0,,,NaN,,,,,,false,,,,160340,160340,,160340,,160369,8,400,,,
sequence,flow.Sequence,4_31,2023-05-01T22:03:13.607Z,,0,,,2637,completion,,,,,false,,,,160340,160340,157686,157672,157703,160369,8,400,,,
trial,html.Screen,4_32_0,2023-05-01T22:03:16.213Z,,0,1,,2593,response,ISIC_3700351.JPG,,ISIC_3391427.JPG,ISIC_3700351.JPG,false,1,keypress(m),500,162946,162945,160352,160340,160369,162969,8,400,33,,ISIC_3391427.JPG
break,html.Screen,4_32_1,2023-05-01T22:03:16.214Z,,0,,,NaN,,,,,,false,,,,162948,162947,,162947,,162969,8,400,,,
break_continue,html.Screen,4_32_2,2023-05-01T22:03:16.214Z,,0,,,NaN,,,,,,false,,,,162948,162948,,162948,,162969,8,400,,,
sequence,flow.Sequence,4_32,2023-05-01T22:03:16.214Z,,0,,,2579,completion,,,,,false,,,,162948,162948,160352,160340,160369,162969,8,400,,,
trial,html.Screen,4_33_0,2023-05-01T22:03:19.252Z,,0,1,,3033,response,ISIC_0034059.JPG,,ISIC_0822116.JPG,ISIC_0822116.JPG,false,0,keypress(z),500,165985,165985,162952,162948,162969,166019,8,400,34,,ISIC_0034059.JPG
break,html.Screen,4_33_1,2023-05-01T22:03:19.253Z,,0,,,NaN,,,,,,false,,,,165986,165986,,165985,,166019,8,400,,,
break_continue,html.Screen,4_33_2,2023-05-01T22:03:19.253Z,,0,,,NaN,,,,,,false,,,,165987,165987,,165987,,166019,8,400,,,
sequence,flow.Sequence,4_33,2023-05-01T22:03:19.254Z,,0,,,3018,completion,,,,,false,,,,165987,165987,162952,162948,162969,166019,8,400,,,
trial,html.Screen,4_34_0,2023-05-01T22:03:22.108Z,,0,1,,2839,response,ISIC_0034172.JPG,,ISIC_0708542.JPG,ISIC_0708542.JPG,false,0,keypress(z),500,168842,168841,166002,165988,166019,168869,8,400,35,,ISIC_0034172.JPG
break,html.Screen,4_34_1,2023-05-01T22:03:22.110Z,,0,,,NaN,,,,,,false,,,,168843,168843,,168842,,168869,8,400,,,
break_continue,html.Screen,4_34_2,2023-05-01T22:03:22.110Z,,0,,,NaN,,,,,,false,,,,168844,168844,,168843,,168869,8,400,,,
sequence,flow.Sequence,4_34,2023-05-01T22:03:22.110Z,,0,,,2825,completion,,,,,false,,,,168844,168844,166002,165987,166019,168869,8,400,,,
trial,html.Screen,4_35_0,2023-05-01T22:03:24.697Z,,0,1,,2578,response,ISIC_0207349.JPG,,ISIC_0065039.JPG,ISIC_0207349.JPG,false,1,keypress(m),500,171430,171430,168852,168844,168869,171452,8,400,36,,ISIC_0065039.JPG
break,html.Screen,4_35_1,2023-05-01T22:03:24.698Z,,0,,,NaN,,,,,,false,,,,171432.00000000003,171431,,171431,,171452,8,400,,,
break_continue,html.Screen,4_35_2,2023-05-01T22:03:24.698Z,,0,,,NaN,,,,,,false,,,,171432.00000000003,171432.00000000003,,171432.00000000003,,171452,8,400,,,
sequence,flow.Sequence,4_35,2023-05-01T22:03:24.699Z,,0,,,2563.000000000029,completion,,,,,false,,,,171432.00000000003,171432.00000000003,168852,168844,168869,171452,8,400,,,
trial,html.Screen,4_36_0,2023-05-01T22:03:27.865Z,,0,1,,3163,response,ISIC_0897876.JPG,,ISIC_0026224.JPG,ISIC_0026224.JPG,false,0,keypress(z),500,174599,174598,171435,171433,171452,174636,8,400,37,,ISIC_0897876.JPG
break,html.Screen,4_36_1,2023-05-01T22:03:27.867Z,,0,,,NaN,,,,,,false,,,,174600,174600,,174599,,174636,8,400,,,
break_continue,html.Screen,4_36_2,2023-05-01T22:03:27.867Z,,0,,,NaN,,,,,,false,,,,174601,174601,,174601,,174636,8,400,,,
sequence,flow.Sequence,4_36,2023-05-01T22:03:27.867Z,,0,,,3149,completion,,,,,false,,,,174601,174601,171435,171433,171452,174636,8,400,,,
trial,html.Screen,4_37_0,2023-05-01T22:03:30.510Z,,0,1,,2624,response,ISIC_0011030.JPG,,ISIC_0032630.JPG,ISIC_0011030.JPG,false,1,keypress(m),500,177243,177243,174619,174601,174636,177269,8,400,38,,ISIC_0032630.JPG
break,html.Screen,4_37_1,2023-05-01T22:03:30.511Z,,0,,,NaN,,,,,,false,,,,177245,177244,,177244,,177269,8,400,,,
break_continue,html.Screen,4_37_2,2023-05-01T22:03:30.512Z,,0,,,NaN,,,,,,false,,,,177245,177245,,177245,,177269,8,400,,,
sequence,flow.Sequence,4_37,2023-05-01T22:03:30.512Z,,0,,,2609,completion,,,,,false,,,,177245,177245,174619,174601,174636,177269,8,400,,,
trial,html.Screen,4_38_0,2023-05-01T22:03:35.362Z,,0,1,,4843,response,ISIC_0028445.JPG,,ISIC_0055251.JPG,ISIC_0028445.JPG,false,1,keypress(m),500,182096,182095,177252,177246,177269,182119,8,400,39,,ISIC_0055251.JPG
break,html.Screen,4_38_1,2023-05-01T22:03:35.363Z,,0,,,NaN,,,,,,false,,,,182097,182097,,182096,,182119,8,400,,,
break_continue,html.Screen,4_38_2,2023-05-01T22:03:35.364Z,,0,,,NaN,,,,,,false,,,,182098,182097,,182097,,182119,8,400,,,
sequence,flow.Sequence,4_38,2023-05-01T22:03:35.364Z,,0,,,4828,completion,,,,,false,,,,182098,182097,177252,177245,177269,182119,8,400,,,
trial,html.Screen,4_39_0,2023-05-01T22:03:38.212Z,,0,1,,2842.000000000029,response,ISIC_0027265.JPG,,ISIC_1819071.JPG,ISIC_1819071.JPG,false,0,keypress(z),500,184945,184944.00000000003,182102,182098,182119,184969,8,400,40,,ISIC_0027265.JPG
break,html.Screen,4_39_1,2023-05-01T22:03:38.213Z,,0,,,NaN,,,,,,false,,,,184947,184946,,184946,,184969,8,400,,,
break_continue,html.Screen,4_39_2,2023-05-01T22:03:38.213Z,,0,,,NaN,,,,,,false,,,,184947,184947,,184947,,184969,8,400,,,
sequence,flow.Sequence,4_39,2023-05-01T22:03:38.214Z,,0,,,2828,completion,,,,,false,,,,184947,184947,182102,182098,182119,184969,8,400,,,
trial,html.Screen,4_40_0,2023-05-01T22:03:43.356Z,,0,1,,5136,response,ISIC_8814612.JPG,,ISIC_0011757.JPG,ISIC_8814612.JPG,false,1,keypress(m),500,190090,190088,184952,184948,184969,190118,8,400,41,,ISIC_0011757.JPG
break,html.Screen,4_40_1,2023-05-01T22:03:43.361Z,,0,,,NaN,,,,,,false,,,,190094,190091,,190090,,190118,8,400,,,
break_continue,html.Screen,4_40_2,2023-05-01T22:03:43.362Z,,0,,,NaN,,,,,,false,,,,190095,190095,,190095,,190118,8,400,,,
sequence,flow.Sequence,4_40,2023-05-01T22:03:43.362Z,,0,,,5126,completion,,,,,false,,,,190096,190095,184952,184947,184969,190118,8,400,,,
trial,html.Screen,4_41_0,2023-05-01T22:03:46.217Z,,0,1,,2848.000000000029,response,ISIC_1495793.JPG,,ISIC_7354733.JPG,ISIC_1495793.JPG,false,1,keypress(m),500,192951,192950.00000000003,190102,190096,190118,192986,8,400,42,,ISIC_7354733.JPG
break,html.Screen,4_41_1,2023-05-01T22:03:46.219Z,,0,,,NaN,,,,,,false,,,,192953,192952,,192952,,192986,8,400,,,
break_continue,html.Screen,4_41_2,2023-05-01T22:03:46.219Z,,0,,,NaN,,,,,,false,,,,192953,192953,,192953,,192986,8,400,,,
sequence,flow.Sequence,4_41,2023-05-01T22:03:46.220Z,,0,,,2835,completion,,,,,false,,,,192953,192953,190102,190096,190118,192986,8,400,,,
trial,html.Screen,4_42_0,2023-05-01T22:03:50.116Z,,0,1,,3880.000000000029,response,ISIC_2507845.JPG,,ISIC_0485996.JPG,ISIC_2507845.JPG,false,1,keypress(m),500,196850,196849.00000000003,192969,192954,192986,196886,8,400,43,,ISIC_0485996.JPG
break,html.Screen,4_42_1,2023-05-01T22:03:50.118Z,,0,,,NaN,,,,,,false,,,,196852,196851,,196851,,196886,8,400,,,
break_continue,html.Screen,4_42_2,2023-05-01T22:03:50.118Z,,0,,,NaN,,,,,,false,,,,196852,196852,,196852,,196886,8,400,,,
sequence,flow.Sequence,4_42,2023-05-01T22:03:50.119Z,,0,,,3866,completion,,,,,false,,,,196853,196852,192969,192954,192986,196886,8,400,,,
trial,html.Screen,4_43_0,2023-05-01T22:03:54.609Z,,0,1,,4474.000000000029,response,ISIC_4653503.JPG,,ISIC_0030769.JPG,ISIC_4653503.JPG,false,1,keypress(m),500,201343.00000000003,201343.00000000003,196869,196853,196886,201369,8,400,44,,ISIC_0030769.JPG
break,html.Screen,4_43_1,2023-05-01T22:03:54.611Z,,0,,,NaN,,,,,,false,,,,201345,201344,,201344,,201369,8,400,,,
break_continue,html.Screen,4_43_2,2023-05-01T22:03:54.611Z,,0,,,NaN,,,,,,false,,,,201345,201345,,201345,,201369,8,400,,,
sequence,flow.Sequence,4_43,2023-05-01T22:03:54.612Z,,0,,,4459,completion,,,,,false,,,,201346,201345,196869,196853,196886,201369,8,400,,,
trial,html.Screen,4_44_0,2023-05-01T22:03:57.722Z,,0,1,,3103,response,ISIC_0059501.JPG,,ISIC_8120622.JPG,ISIC_8120622.JPG,false,0,keypress(z),500,204456.00000000003,204455,201352,201346,201369,204486,8,400,45,,ISIC_0059501.JPG
break,html.Screen,4_44_1,2023-05-01T22:03:57.724Z,,0,,,NaN,,,,,,false,,,,204457,204457,,204457,,204486,8,400,,,
break_continue,html.Screen,4_44_2,2023-05-01T22:03:57.724Z,,0,,,NaN,,,,,,false,,,,204458,204458,,204458,,204486,8,400,,,
sequence,flow.Sequence,4_44,2023-05-01T22:03:57.725Z,,0,,,3089,completion,,,,,false,,,,204458,204458,201352,201346,201369,204486,8,400,,,
trial,html.Screen,4_45_0,2023-05-01T22:04:00.549Z,,0,1,,2813,response,ISIC_3430447.JPG,,ISIC_5174685.JPG,ISIC_3430447.JPG,false,1,keypress(m),500,207283.00000000003,207282,204469,204459,204486,207318,8,400,46,,ISIC_5174685.JPG
break,html.Screen,4_45_1,2023-05-01T22:04:00.550Z,,0,,,NaN,,,,,,false,,,,207284,207284,,207283.00000000003,,207318,8,400,,,
break_continue,html.Screen,4_45_2,2023-05-01T22:04:00.551Z,,0,,,NaN,,,,,,false,,,,207284,207284,,207284,,207318,8,400,,,
sequence,flow.Sequence,4_45,2023-05-01T22:04:00.551Z,,0,,,2798,completion,,,,,false,,,,207285,207284,204469,204458,204486,207318,8,400,,,
trial,html.Screen,4_46_0,2023-05-01T22:04:03.420Z,,0,1,,2852,response,ISIC_0053574.JPG,,ISIC_0057395.JPG,ISIC_0057395.JPG,false,0,keypress(z),500,210154,210153,207301,207285,207318,210186,8,400,47,,ISIC_0053574.JPG
break,html.Screen,4_46_1,2023-05-01T22:04:03.421Z,,0,,,NaN,,,,,,false,,,,210155,210155,,210154,,210186,8,400,,,
break_continue,html.Screen,4_46_2,2023-05-01T22:04:03.422Z,,0,,,NaN,,,,,,false,,,,210156,210155,,210155,,210186,8,400,,,
sequence,flow.Sequence,4_46,2023-05-01T22:04:03.422Z,,0,,,2837,completion,,,,,false,,,,210156,210155,207301,207285,207318,210186,8,400,,,
trial,html.Screen,4_47_0,2023-05-01T22:04:06.428Z,,0,1,,2993,response,ISIC_7066723.JPG,,ISIC_0053686.JPG,ISIC_7066723.JPG,false,1,keypress(m),500,213162,213161,210168,210156,210186,213185,8,400,48,,ISIC_0053686.JPG
break,html.Screen,4_47_1,2023-05-01T22:04:06.429Z,,0,,,NaN,,,,,,false,,,,213163,213163,,213162,,213185,8,400,,,
break_continue,html.Screen,4_47_2,2023-05-01T22:04:06.430Z,,0,,,NaN,,,,,,false,,,,213164.00000000003,213164.00000000003,,213163,,213185,8,400,,,
sequence,flow.Sequence,4_47,2023-05-01T22:04:06.430Z,,0,,,2978.000000000029,completion,,,,,false,,,,213164.00000000003,213164.00000000003,210168,210156,210186,213185,8,400,,,
trial,html.Screen,4_48_0,2023-05-01T22:04:09.080Z,,0,1,,2645.000000000029,response,ISIC_0032784.JPG,,ISIC_4728200.JPG,ISIC_4728200.JPG,false,0,keypress(z),500,215814,215813.00000000003,213168,213164.00000000003,213185,215852,8,400,49,,ISIC_0032784.JPG
break,html.Screen,4_48_1,2023-05-01T22:04:09.081Z,,0,,,NaN,,,,,,false,,,,215815,215815,,215814,,215852,8,400,,,
break_continue,html.Screen,4_48_2,2023-05-01T22:04:09.082Z,,0,,,NaN,,,,,,false,,,,215816,215816,,215816,,215852,8,400,,,
sequence,flow.Sequence,4_48,2023-05-01T22:04:09.082Z,,0,,,2631,completion,,,,,false,,,,215816,215816,213168,213164.00000000003,213185,215852,8,400,,,
trial,html.Screen,4_49_0,2023-05-01T22:04:11.898Z,,0,1,,2796,response,ISIC_7104307.JPG,,ISIC_5377977.JPG,ISIC_5377977.JPG,false,0,keypress(z),500,218632,218631,215835,215816,215852,218669,8,400,50,,ISIC_7104307.JPG
break,html.Screen,4_49_1,2023-05-01T22:04:16.918Z,,0,,,5000,timeout,,,,,false,,,,223652.00000000003,223651,218652,218632,218669,223669,8,400,,,
break_continue,html.Screen,4_49_2,2023-05-01T22:04:18.046Z,,0,,,1135,response,,,,,false,continue,keypress(Space),,224780,224786,223651,223652.00000000003,223669,224802,8,400,,,
sequence,flow.Sequence,4_49,2023-05-01T22:04:18.046Z,,0,,,8934,completion,,,,,false,,,,224780,224786,215835,215816,215852,224802,8,400,,,
trial,html.Screen,4_50_0,2023-05-01T22:04:21.147Z,,0,2,,3096,response,ISIC_0010523.JPG,,ISIC_0063852.JPG,ISIC_0010523.JPG,false,1,keypress(m),500,227881,227881,224785,224780,224802,227919,8,400,1,,ISIC_0063852.JPG
break,html.Screen,4_50_1,2023-05-01T22:04:21.149Z,,0,,,NaN,,,,,,false,,,,227883,227882,,227882,,227919,8,400,,,
break_continue,html.Screen,4_50_2,2023-05-01T22:04:21.149Z,,0,,,NaN,,,,,,false,,,,227883,227883,,227883,,227919,8,400,,,
sequence,flow.Sequence,4_50,2023-05-01T22:04:21.149Z,,0,,,3081,completion,,,,,false,,,,227883,227883,224785,224780,224802,227919,8,400,,,
trial,html.Screen,4_51_0,2023-05-01T22:04:24.207Z,,0,2,,3039,response,ISIC_0027764.JPG,,ISIC_2406492.JPG,ISIC_0027764.JPG,false,1,keypress(m),500,230941,230941,227902,227884,227919,230969,8,400,2,,ISIC_2406492.JPG
break,html.Screen,4_51_1,2023-05-01T22:04:24.209Z,,0,,,NaN,,,,,,false,,,,230943,230942,,230942,,230969,8,400,,,
break_continue,html.Screen,4_51_2,2023-05-01T22:04:24.209Z,,0,,,NaN,,,,,,false,,,,230943,230943,,230943,,230969,8,400,,,
sequence,flow.Sequence,4_51,2023-05-01T22:04:24.209Z,,0,,,3024,completion,,,,,false,,,,230943,230943,227902,227884,227919,230969,8,400,,,
trial,html.Screen,4_52_0,2023-05-01T22:04:26.810Z,,0,2,,2592,response,ISIC_0024275.JPG,,ISIC_0029150.JPG,ISIC_0029150.JPG,false,0,keypress(z),500,233544,233543,230951,230943,230969,233569,8,400,3,,ISIC_0024275.JPG
break,html.Screen,4_52_1,2023-05-01T22:04:26.811Z,,0,,,NaN,,,,,,false,,,,233545.00000000003,233545.00000000003,,233544,,233569,8,400,,,
break_continue,html.Screen,4_52_2,2023-05-01T22:04:26.812Z,,0,,,NaN,,,,,,false,,,,233546,233546,,233545.00000000003,,233569,8,400,,,
sequence,flow.Sequence,4_52,2023-05-01T22:04:26.812Z,,0,,,2577,completion,,,,,false,,,,233546,233546,230951,230943,230969,233569,8,400,,,
trial,html.Screen,4_53_0,2023-05-01T22:04:29.395Z,,0,2,,2576,response,ISIC_3459981.JPG,,ISIC_0033241.JPG,ISIC_3459981.JPG,false,1,keypress(m),500,236129.00000000003,236128,233552,233546,233569,236152,8,400,4,,ISIC_0033241.JPG
break,html.Screen,4_53_1,2023-05-01T22:04:29.396Z,,0,,,NaN,,,,,,false,,,,236130,236130,,236129.00000000003,,236152,8,400,,,
break_continue,html.Screen,4_53_2,2023-05-01T22:04:29.396Z,,0,,,NaN,,,,,,false,,,,236130,236130,,236130,,236152,8,400,,,
sequence,flow.Sequence,4_53,2023-05-01T22:04:29.397Z,,0,,,2561,completion,,,,,false,,,,236131,236130,233552,233546,233569,236152,8,400,,,
trial,html.Screen,4_54_0,2023-05-01T22:04:32.010Z,,0,2,,2610,response,ISIC_5857303.JPG,,ISIC_9483306.JPG,ISIC_9483306.JPG,false,0,keypress(z),500,238745,238744,236134,236131,236152,238769,8,400,5,,ISIC_5857303.JPG
break,html.Screen,4_54_1,2023-05-01T22:04:32.012Z,,0,,,NaN,,,,,,false,,,,238746,238746,,238745,,238769,8,400,,,
break_continue,html.Screen,4_54_2,2023-05-01T22:04:32.012Z,,0,,,NaN,,,,,,false,,,,238746,238746,,238746,,238769,8,400,,,
sequence,flow.Sequence,4_54,2023-05-01T22:04:32.013Z,,0,,,2594,completion,,,,,false,,,,238747,238746,236134,236131,236152,238769,8,400,,,
trial,html.Screen,4_55_0,2023-05-01T22:04:35.095Z,,0,2,,3077,response,ISIC_0028969.JPG,,ISIC_0025458.JPG,ISIC_0028969.JPG,false,1,keypress(m),500,241829,241828,238751,238747,238769,241852,8,400,6,,ISIC_0025458.JPG
break,html.Screen,4_55_1,2023-05-01T22:04:35.096Z,,0,,,NaN,,,,,,false,,,,241831.00000000003,241830,,241830,,241852,8,400,,,
break_continue,html.Screen,4_55_2,2023-05-01T22:04:35.097Z,,0,,,NaN,,,,,,false,,,,241831.00000000003,241831.00000000003,,241831.00000000003,,241852,8,400,,,
sequence,flow.Sequence,4_55,2023-05-01T22:04:35.097Z,,0,,,3062.000000000029,completion,,,,,false,,,,241831.00000000003,241831.00000000003,238751,238747,238769,241852,8,400,,,
trial,html.Screen,4_56_0,2023-05-01T22:04:37.721Z,,0,2,,2620,response,ISIC_0026348.JPG,,ISIC_0001140.JPG,ISIC_0026348.JPG,false,1,keypress(m),500,244455,244455,241835,241831.00000000003,241852,244485,8,400,7,,ISIC_0001140.JPG
break,html.Screen,4_56_1,2023-05-01T22:04:37.723Z,,0,,,NaN,,,,,,false,,,,244457,244457,,244456.00000000003,,244485,8,400,,,
break_continue,html.Screen,4_56_2,2023-05-01T22:04:37.724Z,,0,,,NaN,,,,,,false,,,,244458,244457,,244457,,244485,8,400,,,
sequence,flow.Sequence,4_56,2023-05-01T22:04:37.724Z,,0,,,2605,completion,,,,,false,,,,244458,244457,241835,241831.00000000003,241852,244485,8,400,,,
trial,html.Screen,4_57_0,2023-05-01T22:04:40.384Z,,0,2,,2649,response,ISIC_0061300.JPG,,ISIC_0060341.JPG,ISIC_0060341.JPG,false,0,keypress(z),500,247118,247118,244469,244458,244485,247152,8,400,8,,ISIC_0061300.JPG
break,html.Screen,4_57_1,2023-05-01T22:04:40.386Z,,0,,,NaN,,,,,,false,,,,247120,247119,,247119,,247152,8,400,,,
break_continue,html.Screen,4_57_2,2023-05-01T22:04:40.386Z,,0,,,NaN,,,,,,false,,,,247120,247120,,247120,,247152,8,400,,,
sequence,flow.Sequence,4_57,2023-05-01T22:04:40.387Z,,0,,,2635,completion,,,,,false,,,,247121,247120,244469,244458,244485,247152,8,400,,,
trial,html.Screen,4_58_0,2023-05-01T22:04:43.133Z,,0,2,,2731,response,ISIC_8463871.JPG,,ISIC_0029874.JPG,ISIC_8463871.JPG,false,1,keypress(m),500,249867.00000000003,249866,247135,247121,247152,249902,8,400,9,,ISIC_0029874.JPG
break,html.Screen,4_58_1,2023-05-01T22:04:43.134Z,,0,,,NaN,,,,,,false,,,,249868,249868,,249867.00000000003,,249902,8,400,,,
break_continue,html.Screen,4_58_2,2023-05-01T22:04:43.134Z,,0,,,NaN,,,,,,false,,,,249868,249868,,249868,,249902,8,400,,,
sequence,flow.Sequence,4_58,2023-05-01T22:04:43.134Z,,0,,,2716,completion,,,,,false,,,,249869,249868,247135,247121,247152,249902,8,400,,,
trial,html.Screen,4_59_0,2023-05-01T22:04:46.860Z,,0,2,,3708.000000000029,response,ISIC_7651944.JPG,,ISIC_0026879.JPG,ISIC_7651944.JPG,false,1,keypress(m),500,253594,253593.00000000003,249885,249869,249902,253618,8,400,10,,ISIC_0026879.JPG
break,html.Screen,4_59_1,2023-05-01T22:04:46.861Z,,0,,,NaN,,,,,,false,,,,253595,253595,,253594,,253618,8,400,,,
break_continue,html.Screen,4_59_2,2023-05-01T22:04:46.862Z,,0,,,NaN,,,,,,false,,,,253596,253596,,253596,,253618,8,400,,,
sequence,flow.Sequence,4_59,2023-05-01T22:04:46.862Z,,0,,,3694,completion,,,,,false,,,,253596,253596,249885,249869,249902,253618,8,400,,,
trial,html.Screen,4_60_0,2023-05-01T22:04:49.714Z,,0,2,,2845.999999999971,response,ISIC_2122488.JPG,,ISIC_1394786.JPG,ISIC_2122488.JPG,false,1,keypress(m),500,256447.99999999997,256447.99999999997,253602,253596,253618,256486,8,400,11,,ISIC_1394786.JPG
break,html.Screen,4_60_1,2023-05-01T22:04:49.716Z,,0,,,NaN,,,,,,false,,,,256450,256450,,256449,,256486,8,400,,,
break_continue,html.Screen,4_60_2,2023-05-01T22:04:49.716Z,,0,,,NaN,,,,,,false,,,,256450,256450,,256450,,256486,8,400,,,
sequence,flow.Sequence,4_60,2023-05-01T22:04:49.716Z,,0,,,2832,completion,,,,,false,,,,256451.00000000003,256450,253602,253596,253618,256486,8,400,,,
trial,html.Screen,4_61_0,2023-05-01T22:04:52.447Z,,0,2,,2711.999999999971,response,ISIC_3824206.JPG,,ISIC_0057059.JPG,ISIC_0057059.JPG,false,0,keypress(z),500,259182.00000000003,259180.99999999997,256469,256451.00000000003,256486,259219,8,400,12,,ISIC_3824206.JPG
break,html.Screen,4_61_1,2023-05-01T22:04:52.449Z,,0,,,NaN,,,,,,false,,,,259183,259183,,259182.00000000003,,259219,8,400,,,
break_continue,html.Screen,4_61_2,2023-05-01T22:04:52.449Z,,0,,,NaN,,,,,,false,,,,259184.00000000003,259183,,259183,,259219,8,400,,,
sequence,flow.Sequence,4_61,2023-05-01T22:04:52.449Z,,0,,,2697,completion,,,,,false,,,,259184.00000000003,259183,256469,256451.00000000003,256486,259219,8,400,,,
trial,html.Screen,4_62_0,2023-05-01T22:04:55.153Z,,0,2,,2684.000000000029,response,ISIC_0046725.JPG,,ISIC_0070012.JPG,ISIC_0070012.JPG,false,0,keypress(z),500,261887,261886.00000000003,259202,259184.00000000003,259219,261918,8,400,13,,ISIC_0046725.JPG
break,html.Screen,4_62_1,2023-05-01T22:04:55.154Z,,0,,,NaN,,,,,,false,,,,261888.00000000003,261888.00000000003,,261887,,261918,8,400,,,
break_continue,html.Screen,4_62_2,2023-05-01T22:04:55.154Z,,0,,,NaN,,,,,,false,,,,261889,261889,,261888.00000000003,,261918,8,400,,,
sequence,flow.Sequence,4_62,2023-05-01T22:04:55.155Z,,0,,,2670,completion,,,,,false,,,,261889,261889,259202,259184.00000000003,259219,261918,8,400,,,
trial,html.Screen,4_63_0,2023-05-01T22:04:57.702Z,,0,2,,2534,response,ISIC_0032845.JPG,,ISIC_5988539.JPG,ISIC_5988539.JPG,false,0,keypress(z),500,264437,264436,261902,261889,261918,264468,8,400,14,,ISIC_0032845.JPG
break,html.Screen,4_63_1,2023-05-01T22:04:57.704Z,,0,,,NaN,,,,,,false,,,,264438,264438,,264437,,264468,8,400,,,
break_continue,html.Screen,4_63_2,2023-05-01T22:04:57.704Z,,0,,,NaN,,,,,,false,,,,264438,264438,,264438,,264468,8,400,,,
sequence,flow.Sequence,4_63,2023-05-01T22:04:57.704Z,,0,,,2520,completion,,,,,false,,,,264439,264438,261902,261889,261918,264468,8,400,,,
trial,html.Screen,4_64_0,2023-05-01T22:05:00.258Z,,0,2,,2540,response,ISIC_0626501.JPG,,ISIC_9155465.JPG,ISIC_9155465.JPG,false,0,keypress(z),500,266992,266992,264452,264439,264468,267018,8,400,15,,ISIC_0626501.JPG
break,html.Screen,4_64_1,2023-05-01T22:05:00.259Z,,0,,,NaN,,,,,,false,,,,266994,266993,,266993,,267018,8,400,,,
break_continue,html.Screen,4_64_2,2023-05-01T22:05:00.260Z,,0,,,NaN,,,,,,false,,,,266994,266994,,266994,,267018,8,400,,,
sequence,flow.Sequence,4_64,2023-05-01T22:05:00.260Z,,0,,,2526,completion,,,,,false,,,,266994,266994,264452,264439,264468,267018,8,400,,,
trial,html.Screen,4_65_0,2023-05-01T22:05:03.409Z,,0,2,,3141,response,ISIC_5903193.JPG,,ISIC_6357263.JPG,ISIC_5903193.JPG,false,1,keypress(m),500,270143,270143,267002,266994,267018,270168,8,400,16,,ISIC_6357263.JPG
break,html.Screen,4_65_1,2023-05-01T22:05:03.410Z,,0,,,NaN,,,,,,false,,,,270145,270144,,270144,,270168,8,400,,,
break_continue,html.Screen,4_65_2,2023-05-01T22:05:03.411Z,,0,,,NaN,,,,,,false,,,,270145,270145,,270145,,270168,8,400,,,
sequence,flow.Sequence,4_65,2023-05-01T22:05:03.411Z,,0,,,3127,completion,,,,,false,,,,270145,270145,267002,266994,267018,270168,8,400,,,
trial,html.Screen,4_66_0,2023-05-01T22:05:06.159Z,,0,2,,2742,response,ISIC_8712559.JPG,,ISIC_0063742.JPG,ISIC_8712559.JPG,false,1,keypress(m),500,272893,272893,270151,270145,270168,272918,8,400,17,,ISIC_0063742.JPG
break,html.Screen,4_66_1,2023-05-01T22:05:06.160Z,,0,,,NaN,,,,,,false,,,,272895,272894,,272894,,272918,8,400,,,
break_continue,html.Screen,4_66_2,2023-05-01T22:05:06.161Z,,0,,,NaN,,,,,,false,,,,272895,272895,,272895,,272918,8,400,,,
sequence,flow.Sequence,4_66,2023-05-01T22:05:06.161Z,,0,,,2727,completion,,,,,false,,,,272896,272895,270151,270145,270168,272918,8,400,,,
trial,html.Screen,4_67_0,2023-05-01T22:05:08.768Z,,0,2,,2601,response,ISIC_2136533.JPG,,ISIC_3289651.JPG,ISIC_2136533.JPG,false,1,keypress(m),500,275502,275502,272901,272896,272918,275535,8,400,18,,ISIC_3289651.JPG
break,html.Screen,4_67_1,2023-05-01T22:05:08.769Z,,0,,,NaN,,,,,,false,,,,275504,275503,,275503,,275535,8,400,,,
break_continue,html.Screen,4_67_2,2023-05-01T22:05:08.770Z,,0,,,NaN,,,,,,false,,,,275504,275504,,275504,,275535,8,400,,,
sequence,flow.Sequence,4_67,2023-05-01T22:05:08.770Z,,0,,,2586,completion,,,,,false,,,,275504,275504,272901,272896,272918,275535,8,400,,,
trial,html.Screen,4_68_0,2023-05-01T22:05:11.542Z,,0,2,,2757.000000000058,response,ISIC_2126575.JPG,,ISIC_1638436.JPG,ISIC_2126575.JPG,false,1,keypress(m),500,278276,278275.00000000006,275518,275505,275535,278302,8,400,19,,ISIC_1638436.JPG
break,html.Screen,4_68_1,2023-05-01T22:05:11.543Z,,0,,,NaN,,,,,,false,,,,278277,278277,,278276,,278302,8,400,,,
break_continue,html.Screen,4_68_2,2023-05-01T22:05:11.543Z,,0,,,NaN,,,,,,false,,,,278278,278278,,278277,,278302,8,400,,,
sequence,flow.Sequence,4_68,2023-05-01T22:05:11.543Z,,0,,,2743,completion,,,,,false,,,,278278,278278,275518,275505,275535,278302,8,400,,,
trial,html.Screen,4_69_0,2023-05-01T22:05:14.391Z,,0,2,,2840,response,ISIC_0014542.JPG,,ISIC_0058647.JPG,ISIC_0014542.JPG,false,1,keypress(m),500,281125,281125,278285,278278,278302,281152,8,400,20,,ISIC_0058647.JPG
break,html.Screen,4_69_1,2023-05-01T22:05:14.392Z,,0,,,NaN,,,,,,false,,,,281127,281126.00000000006,,281126.00000000006,,281152,8,400,,,
break_continue,html.Screen,4_69_2,2023-05-01T22:05:14.393Z,,0,,,NaN,,,,,,false,,,,281127,281127,,281127,,281152,8,400,,,
sequence,flow.Sequence,4_69,2023-05-01T22:05:14.393Z,,0,,,2825,completion,,,,,false,,,,281127,281127,278285,278278,278302,281152,8,400,,,
trial,html.Screen,4_70_0,2023-05-01T22:05:17.403Z,,0,2,,3002,response,ISIC_0032917.JPG,,ISIC_7208412.JPG,ISIC_7208412.JPG,false,0,keypress(z),500,284137,284137,281135,281128,281152,284168,8,400,21,,ISIC_0032917.JPG
break,html.Screen,4_70_1,2023-05-01T22:05:17.404Z,,0,,,NaN,,,,,,false,,,,284139,284138.00000000006,,284138.00000000006,,284168,8,400,,,
break_continue,html.Screen,4_70_2,2023-05-01T22:05:17.405Z,,0,,,NaN,,,,,,false,,,,284139,284139,,284139,,284168,8,400,,,
sequence,flow.Sequence,4_70,2023-05-01T22:05:17.405Z,,0,,,2987,completion,,,,,false,,,,284139,284139,281135,281128,281152,284168,8,400,,,
trial,html.Screen,4_71_0,2023-05-01T22:05:20.059Z,,0,2,,2640.000000000058,response,ISIC_1601532.JPG,,ISIC_0071966.JPG,ISIC_0071966.JPG,false,0,keypress(z),500,286794,286792.00000000006,284152,284139,284168,286818,8,400,22,,ISIC_1601532.JPG
break,html.Screen,4_71_1,2023-05-01T22:05:20.061Z,,0,,,NaN,,,,,,false,,,,286795,286795,,286794,,286818,8,400,,,
break_continue,html.Screen,4_71_2,2023-05-01T22:05:20.061Z,,0,,,NaN,,,,,,false,,,,286796,286795,,286795,,286818,8,400,,,
sequence,flow.Sequence,4_71,2023-05-01T22:05:20.061Z,,0,,,2627,completion,,,,,false,,,,286796,286795,284152,284139,284168,286818,8,400,,,
trial,html.Screen,4_72_0,2023-05-01T22:05:27.280Z,,0,2,,7213,response,ISIC_0197584.JPG,,ISIC_0046977.JPG,ISIC_0197584.JPG,false,1,keypress(m),500,294014,294014,286801,286796,286818,294052,8,400,23,,ISIC_0046977.JPG
break,html.Screen,4_72_1,2023-05-01T22:05:27.281Z,,0,,,NaN,,,,,,false,,,,294016,294015,,294015,,294052,8,400,,,
break_continue,html.Screen,4_72_2,2023-05-01T22:05:27.281Z,,0,,,NaN,,,,,,false,,,,294016,294016,,294016,,294052,8,400,,,
sequence,flow.Sequence,4_72,2023-05-01T22:05:27.282Z,,0,,,7198,completion,,,,,false,,,,294016,294016,286801,286796,286818,294052,8,400,,,
trial,html.Screen,4_73_0,2023-05-01T22:05:30.481Z,,0,2,,3180.000000000058,response,ISIC_0014925.JPG,,ISIC_0012055.JPG,ISIC_0014925.JPG,false,1,keypress(m),500,297215.00000000006,297215.00000000006,294035,294016,294052,297252,8,400,24,,ISIC_0012055.JPG
break,html.Screen,4_73_1,2023-05-01T22:05:30.482Z,,0,,,NaN,,,,,,false,,,,297217,297216,,297216,,297252,8,400,,,
break_continue,html.Screen,4_73_2,2023-05-01T22:05:30.483Z,,0,,,NaN,,,,,,false,,,,297217,297217,,297217,,297252,8,400,,,
sequence,flow.Sequence,4_73,2023-05-01T22:05:30.483Z,,0,,,3165,completion,,,,,false,,,,297218,297217,294035,294016,294052,297252,8,400,,,
trial,html.Screen,4_74_0,2023-05-01T22:05:34.337Z,,0,2,,3836,response,ISIC_0027622.JPG,,ISIC_7984080.JPG,ISIC_7984080.JPG,false,0,keypress(z),500,301072,301071,297235,297218,297252,301101,8,400,25,,ISIC_0027622.JPG
break,html.Screen,4_74_1,2023-05-01T22:05:34.338Z,,0,,,NaN,,,,,,false,,,,301073,301073,,301072,,301101,8,400,,,
break_continue,html.Screen,4_74_2,2023-05-01T22:05:34.339Z,,0,,,NaN,,,,,,false,,,,301073,301073,,301073,,301101,8,400,,,
sequence,flow.Sequence,4_74,2023-05-01T22:05:34.339Z,,0,,,3821,completion,,,,,false,,,,301074,301073,297235,297218,297252,301101,8,400,,,
trial,html.Screen,4_75_0,2023-05-01T22:05:37.305Z,,0,2,,2953,response,ISIC_0010379.JPG,,ISIC_1988058.JPG,ISIC_1988058.JPG,false,0,keypress(z),500,304039,304038,301085,301074,301101,304068,8,400,26,,ISIC_0010379.JPG
break,html.Screen,4_75_1,2023-05-01T22:05:37.306Z,,0,,,NaN,,,,,,false,,,,304040,304040,,304039,,304068,8,400,,,
break_continue,html.Screen,4_75_2,2023-05-01T22:05:37.306Z,,0,,,NaN,,,,,,false,,,,304041,304041,,304041,,304068,8,400,,,
sequence,flow.Sequence,4_75,2023-05-01T22:05:37.306Z,,0,,,2940,completion,,,,,false,,,,304041,304041,301085,301074,301101,304068,8,400,,,
trial,html.Screen,4_76_0,2023-05-01T22:05:40.492Z,,0,2,,3175,response,ISIC_0059421.JPG,,ISIC_3737487.JPG,ISIC_0059421.JPG,false,1,keypress(m),500,307227.00000000006,307226,304051,304041,304068,307251,8,400,27,,ISIC_3737487.JPG
break,html.Screen,4_76_1,2023-05-01T22:05:40.494Z,,0,,,NaN,,,,,,false,,,,307228,307228,,307227.00000000006,,307251,8,400,,,
break_continue,html.Screen,4_76_2,2023-05-01T22:05:40.494Z,,0,,,NaN,,,,,,false,,,,307229,307228,,307228,,307251,8,400,,,
sequence,flow.Sequence,4_76,2023-05-01T22:05:40.494Z,,0,,,3160,completion,,,,,false,,,,307229,307228,304051,304041,304068,307251,8,400,,,
trial,html.Screen,4_77_0,2023-05-01T22:05:43.039Z,,0,2,,2539,response,ISIC_0025996.JPG,,ISIC_5333058.JPG,ISIC_5333058.JPG,false,0,keypress(z),500,309774,309773,307234,307229,307251,309801,8,400,28,,ISIC_0025996.JPG
break,html.Screen,4_77_1,2023-05-01T22:05:43.040Z,,0,,,NaN,,,,,,false,,,,309775.00000000006,309775.00000000006,,309774,,309801,8,400,,,
break_continue,html.Screen,4_77_2,2023-05-01T22:05:43.041Z,,0,,,NaN,,,,,,false,,,,309775.00000000006,309775.00000000006,,309775.00000000006,,309801,8,400,,,
sequence,flow.Sequence,4_77,2023-05-01T22:05:43.041Z,,0,,,2524.000000000058,completion,,,,,false,,,,309775.00000000006,309775.00000000006,307234,307229,307251,309801,8,400,,,
trial,html.Screen,4_78_0,2023-05-01T22:05:45.828Z,,0,2,,2776,response,ISIC_0027280.JPG,,ISIC_4927943.JPG,ISIC_4927943.JPG,false,0,keypress(z),500,312562,312561,309785,309776,309801,312585,8,400,29,,ISIC_0027280.JPG
break,html.Screen,4_78_1,2023-05-01T22:05:45.829Z,,0,,,NaN,,,,,,false,,,,312564,312563,,312563,,312585,8,400,,,
break_continue,html.Screen,4_78_2,2023-05-01T22:05:45.829Z,,0,,,NaN,,,,,,false,,,,312564,312564,,312564,,312585,8,400,,,
sequence,flow.Sequence,4_78,2023-05-01T22:05:45.830Z,,0,,,2763,completion,,,,,false,,,,312564,312564,309785,309776,309801,312585,8,400,,,
trial,html.Screen,4_79_0,2023-05-01T22:05:48.443Z,,0,2,,2609,response,ISIC_8194371.JPG,,ISIC_0000440.JPG,ISIC_8194371.JPG,false,1,keypress(m),500,315178,315177,312568,312564,312585,315201,8,400,30,,ISIC_0000440.JPG
break,html.Screen,4_79_1,2023-05-01T22:05:48.444Z,,0,,,NaN,,,,,,false,,,,315179.00000000006,315179.00000000006,,315178,,315201,8,400,,,
break_continue,html.Screen,4_79_2,2023-05-01T22:05:48.445Z,,0,,,NaN,,,,,,false,,,,315179.00000000006,315179.00000000006,,315179.00000000006,,315201,8,400,,,
sequence,flow.Sequence,4_79,2023-05-01T22:05:48.445Z,,0,,,2594.000000000058,completion,,,,,false,,,,315180,315179.00000000006,312568,312564,312585,315201,8,400,,,
trial,html.Screen,4_80_0,2023-05-01T22:05:51.273Z,,0,2,,2823,response,ISIC_0030981.JPG,,ISIC_0070244.JPG,ISIC_0070244.JPG,false,0,keypress(z),500,318007,318007,315184,315180,315201,318035,8,400,31,,ISIC_0030981.JPG
break,html.Screen,4_80_1,2023-05-01T22:05:51.274Z,,0,,,NaN,,,,,,false,,,,318009,318008,,318008,,318035,8,400,,,
break_continue,html.Screen,4_80_2,2023-05-01T22:05:51.275Z,,0,,,NaN,,,,,,false,,,,318009,318009,,318009,,318035,8,400,,,
sequence,flow.Sequence,4_80,2023-05-01T22:05:51.275Z,,0,,,2808,completion,,,,,false,,,,318009,318009,315184,315180,315201,318035,8,400,,,
trial,html.Screen,4_81_0,2023-05-01T22:05:53.738Z,,0,2,,2454,response,ISIC_0027431.JPG,,ISIC_0663824.JPG,ISIC_0027431.JPG,false,1,keypress(m),500,320473,320472,318018,318010,318035,320501,8,400,32,,ISIC_0663824.JPG
break,html.Screen,4_81_1,2023-05-01T22:05:53.739Z,,0,,,NaN,,,,,,false,,,,320474,320474,,320473,,320501,8,400,,,
break_continue,html.Screen,4_81_2,2023-05-01T22:05:53.740Z,,0,,,NaN,,,,,,false,,,,320474,320474,,320474,,320501,8,400,,,
sequence,flow.Sequence,4_81,2023-05-01T22:05:53.740Z,,0,,,2439,completion,,,,,false,,,,320475,320474,318018,318009,318035,320501,8,400,,,
trial,html.Screen,4_82_0,2023-05-01T22:05:56.619Z,,0,2,,2868,response,ISIC_5397818.JPG,,ISIC_7867077.JPG,ISIC_5397818.JPG,false,1,keypress(m),500,323353,323353,320485,320475,320501,323385,8,400,33,,ISIC_7867077.JPG
break,html.Screen,4_82_1,2023-05-01T22:05:56.620Z,,0,,,NaN,,,,,,false,,,,323355,323354,,323354,,323385,8,400,,,
break_continue,html.Screen,4_82_2,2023-05-01T22:05:56.621Z,,0,,,NaN,,,,,,false,,,,323355,323355,,323355,,323385,8,400,,,
sequence,flow.Sequence,4_82,2023-05-01T22:05:56.621Z,,0,,,2854,completion,,,,,false,,,,323355,323355,320485,320475,320501,323385,8,400,,,
trial,html.Screen,4_83_0,2023-05-01T22:05:59.172Z,,0,2,,2538,response,ISIC_0066749.JPG,,ISIC_9280171.JPG,ISIC_9280171.JPG,false,0,keypress(z),500,325906,325906,323368,323356,323385,325934,8,400,34,,ISIC_0066749.JPG
break,html.Screen,4_83_1,2023-05-01T22:05:59.173Z,,0,,,NaN,,,,,,false,,,,325908,325907,,325907,,325934,8,400,,,
break_continue,html.Screen,4_83_2,2023-05-01T22:05:59.173Z,,0,,,NaN,,,,,,false,,,,325908,325908,,325908,,325934,8,400,,,
sequence,flow.Sequence,4_83,2023-05-01T22:05:59.173Z,,0,,,2523,completion,,,,,false,,,,325908,325908,323368,323356,323385,325934,8,400,,,
trial,html.Screen,4_84_0,2023-05-01T22:06:02.151Z,,0,2,,2968,response,ISIC_0010349.JPG,,ISIC_6882080.JPG,ISIC_6882080.JPG,false,0,keypress(z),500,328886,328885,325917,325908,325934,328918,8,400,35,,ISIC_0010349.JPG
break,html.Screen,4_84_1,2023-05-01T22:06:02.152Z,,0,,,NaN,,,,,,false,,,,328887,328887,,328886,,328918,8,400,,,
break_continue,html.Screen,4_84_2,2023-05-01T22:06:02.153Z,,0,,,NaN,,,,,,false,,,,328888.00000000006,328887,,328887,,328918,8,400,,,
sequence,flow.Sequence,4_84,2023-05-01T22:06:02.153Z,,0,,,2953,completion,,,,,false,,,,328888.00000000006,328887,325917,325908,325934,328918,8,400,,,
trial,html.Screen,4_85_0,2023-05-01T22:06:04.675Z,,0,2,,2508,response,ISIC_0024999.JPG,,ISIC_0028755.JPG,ISIC_0028755.JPG,false,0,keypress(z),500,331409,331409,328901,328888.00000000006,328918,331435,8,400,36,,ISIC_0024999.JPG
break,html.Screen,4_85_1,2023-05-01T22:06:04.676Z,,0,,,NaN,,,,,,false,,,,331411,331410,,331410,,331435,8,400,,,
break_continue,html.Screen,4_85_2,2023-05-01T22:06:04.676Z,,0,,,NaN,,,,,,false,,,,331411,331411,,331411,,331435,8,400,,,
sequence,flow.Sequence,4_85,2023-05-01T22:06:04.676Z,,0,,,2493,completion,,,,,false,,,,331411,331411,328901,328888.00000000006,328918,331435,8,400,,,
trial,html.Screen,4_86_0,2023-05-01T22:06:07.730Z,,0,2,,3046,response,ISIC_0065521.JPG,,ISIC_0010440.JPG,ISIC_0010440.JPG,false,0,keypress(z),500,334465.00000000006,334464,331418,331411,331435,334501,8,400,37,,ISIC_0065521.JPG
break,html.Screen,4_86_1,2023-05-01T22:06:07.734Z,,0,,,NaN,,,,,,false,,,,334469,334469,,334468,,334501,8,400,,,
break_continue,html.Screen,4_86_2,2023-05-01T22:06:07.735Z,,0,,,NaN,,,,,,false,,,,334469,334469,,334469,,334501,8,400,,,
sequence,flow.Sequence,4_86,2023-05-01T22:06:07.735Z,,0,,,3034,completion,,,,,false,,,,334470,334469,331418,331411,331435,334501,8,400,,,
trial,html.Screen,4_87_0,2023-05-01T22:06:11.152Z,,0,2,,3401,response,ISIC_0029389.JPG,,ISIC_3787504.JPG,ISIC_0029389.JPG,false,1,keypress(m),500,337887,337886,334485,334470,334501,337918,8,400,38,,ISIC_3787504.JPG
break,html.Screen,4_87_1,2023-05-01T22:06:11.153Z,,0,,,NaN,,,,,,false,,,,337888.00000000006,337888.00000000006,,337887,,337918,8,400,,,
break_continue,html.Screen,4_87_2,2023-05-01T22:06:11.154Z,,0,,,NaN,,,,,,false,,,,337889,337888.00000000006,,337888.00000000006,,337918,8,400,,,
sequence,flow.Sequence,4_87,2023-05-01T22:06:11.154Z,,0,,,3387.000000000058,completion,,,,,false,,,,337889,337888.00000000006,334485,334470,334501,337918,8,400,,,
trial,html.Screen,4_88_0,2023-05-01T22:06:14.360Z,,0,2,,3194,response,ISIC_3310625.JPG,,ISIC_3180213.JPG,ISIC_3310625.JPG,false,1,keypress(m),500,341095,341095,337901,337889,337918,341118,8,400,39,,ISIC_3180213.JPG
break,html.Screen,4_88_1,2023-05-01T22:06:14.362Z,,0,,,NaN,,,,,,false,,,,341097,341096,,341095,,341118,8,400,,,
break_continue,html.Screen,4_88_2,2023-05-01T22:06:14.362Z,,0,,,NaN,,,,,,false,,,,341097,341097,,341097,,341118,8,400,,,
sequence,flow.Sequence,4_88,2023-05-01T22:06:14.363Z,,0,,,3179,completion,,,,,false,,,,341097,341097,337901,337889,337918,341118,8,400,,,
trial,html.Screen,4_89_0,2023-05-01T22:06:17.319Z,,0,2,,2952,response,ISIC_0026150.JPG,,ISIC_8575769.JPG,ISIC_0026150.JPG,false,1,keypress(m),500,344054.00000000006,344053,341101,341098,341118,344084,8,400,40,,ISIC_8575769.JPG
break,html.Screen,4_89_1,2023-05-01T22:06:17.320Z,,0,,,NaN,,,,,,false,,,,344055,344055,,344054.00000000006,,344084,8,400,,,
break_continue,html.Screen,4_89_2,2023-05-01T22:06:17.321Z,,0,,,NaN,,,,,,false,,,,344056,344055,,344055,,344084,8,400,,,
sequence,flow.Sequence,4_89,2023-05-01T22:06:17.321Z,,0,,,2937,completion,,,,,false,,,,344056,344055,341101,341098,341118,344084,8,400,,,
trial,html.Screen,4_90_0,2023-05-01T22:06:19.884Z,,0,2,,2550,response,ISIC_0027964.JPG,,ISIC_0033779.JPG,ISIC_0033779.JPG,false,0,keypress(z),500,346619,346618,344068,344056,344084,346651,8,400,41,,ISIC_0027964.JPG
break,html.Screen,4_90_1,2023-05-01T22:06:19.885Z,,0,,,NaN,,,,,,false,,,,346620,346620,,346619,,346651,8,400,,,
break_continue,html.Screen,4_90_2,2023-05-01T22:06:19.886Z,,0,,,NaN,,,,,,false,,,,346621,346621,,346620,,346651,8,400,,,
sequence,flow.Sequence,4_90,2023-05-01T22:06:19.886Z,,0,,,2537,completion,,,,,false,,,,346621,346621,344068,344056,344084,346651,8,400,,,
trial,html.Screen,4_91_0,2023-05-01T22:06:22.476Z,,0,2,,2575,response,ISIC_0070447.JPG,,ISIC_9337570.JPG,ISIC_9337570.JPG,false,0,keypress(z),500,349210,349210,346635,346621,346651,349234,8,400,42,,ISIC_0070447.JPG
break,html.Screen,4_91_1,2023-05-01T22:06:22.477Z,,0,,,NaN,,,,,,false,,,,349212,349211,,349211,,349234,8,400,,,
break_continue,html.Screen,4_91_2,2023-05-01T22:06:22.478Z,,0,,,NaN,,,,,,false,,,,349212,349212,,349212,,349234,8,400,,,
sequence,flow.Sequence,4_91,2023-05-01T22:06:22.478Z,,0,,,2561,completion,,,,,false,,,,349213,349212,346635,346621,346651,349234,8,400,,,
trial,html.Screen,4_92_0,2023-05-01T22:06:24.995Z,,0,2,,2512,response,ISIC_1224329.JPG,,ISIC_0000434.JPG,ISIC_0000434.JPG,false,0,keypress(z),500,351730,351730,349218,349213,349234,351750,8,400,43,,ISIC_1224329.JPG
break,html.Screen,4_92_1,2023-05-01T22:06:24.997Z,,0,,,NaN,,,,,,false,,,,351732,351731,,351731,,351750,8,400,,,
break_continue,html.Screen,4_92_2,2023-05-01T22:06:24.997Z,,0,,,NaN,,,,,,false,,,,351732,351732,,351732,,351750,8,400,,,
sequence,flow.Sequence,4_92,2023-05-01T22:06:24.997Z,,0,,,2498,completion,,,,,false,,,,351732,351732,349218,349213,349234,351750,8,400,,,
trial,html.Screen,4_93_0,2023-05-01T22:06:27.847Z,,0,2,,2847,response,ISIC_0014926.JPG,,ISIC_4552230.JPG,ISIC_4552230.JPG,false,0,keypress(z),500,354581,354581,351734,351732,351750,354601,8,400,44,,ISIC_0014926.JPG
break,html.Screen,4_93_1,2023-05-01T22:06:27.848Z,,0,,,NaN,,,,,,false,,,,354583,354582,,354582,,354601,8,400,,,
break_continue,html.Screen,4_93_2,2023-05-01T22:06:27.848Z,,0,,,NaN,,,,,,false,,,,354583,354583,,354583,,354601,8,400,,,
sequence,flow.Sequence,4_93,2023-05-01T22:06:27.848Z,,0,,,2833,completion,,,,,false,,,,354583,354583,351734,351732,351750,354601,8,400,,,
trial,html.Screen,4_94_0,2023-05-01T22:06:30.568Z,,0,2,,2716,response,ISIC_0025841.JPG,,ISIC_2616327.JPG,ISIC_2616327.JPG,false,0,keypress(z),500,357303,357302,354586,354584,354601,357333,8,400,45,,ISIC_0025841.JPG
break,html.Screen,4_94_1,2023-05-01T22:06:30.569Z,,0,,,NaN,,,,,,false,,,,357304.00000000006,357304.00000000006,,357303,,357333,8,400,,,
break_continue,html.Screen,4_94_2,2023-05-01T22:06:30.569Z,,0,,,NaN,,,,,,false,,,,357304.00000000006,357304.00000000006,,357304.00000000006,,357333,8,400,,,
sequence,flow.Sequence,4_94,2023-05-01T22:06:30.569Z,,0,,,2703.000000000058,completion,,,,,false,,,,357304.00000000006,357304.00000000006,354586,354583,354601,357333,8,400,,,
trial,html.Screen,4_95_0,2023-05-01T22:06:33.280Z,,0,2,,2696,response,ISIC_0033938.JPG,,ISIC_8359258.JPG,ISIC_8359258.JPG,false,0,keypress(z),500,360014,360014,357318,357304.00000000006,357333,360051,8,400,46,,ISIC_0033938.JPG
break,html.Screen,4_95_1,2023-05-01T22:06:33.281Z,,0,,,NaN,,,,,,false,,,,360016,360016,,360015,,360051,8,400,,,
break_continue,html.Screen,4_95_2,2023-05-01T22:06:33.281Z,,0,,,NaN,,,,,,false,,,,360016,360016,,360016,,360051,8,400,,,
sequence,flow.Sequence,4_95,2023-05-01T22:06:33.282Z,,0,,,2683,completion,,,,,false,,,,360017,360016,357318,357304.00000000006,357333,360051,8,400,,,
trial,html.Screen,4_96_0,2023-05-01T22:06:35.812Z,,0,2,,2512,response,ISIC_8690631.JPG,,ISIC_1414751.JPG,ISIC_8690631.JPG,false,1,keypress(m),500,362547,362546,360034,360017,360051,362568,8,400,47,,ISIC_1414751.JPG
break,html.Screen,4_96_1,2023-05-01T22:06:35.813Z,,0,,,NaN,,,,,,false,,,,362548,362548,,362547,,362568,8,400,,,
break_continue,html.Screen,4_96_2,2023-05-01T22:06:35.814Z,,0,,,NaN,,,,,,false,,,,362549.00000000006,362548,,362548,,362568,8,400,,,
sequence,flow.Sequence,4_96,2023-05-01T22:06:35.814Z,,0,,,2497,completion,,,,,false,,,,362549.00000000006,362548,360034,360017,360051,362568,8,400,,,
trial,html.Screen,4_97_0,2023-05-01T22:06:38.368Z,,0,2,,2551.000000000058,response,ISIC_0005028.JPG,,ISIC_0064033.JPG,ISIC_0005028.JPG,false,1,keypress(m),500,365103,365102.00000000006,362551,362549.00000000006,362568,365134,8,400,48,,ISIC_0064033.JPG
break,html.Screen,4_97_1,2023-05-01T22:06:38.369Z,,0,,,NaN,,,,,,false,,,,365104,365104,,365103,,365134,8,400,,,
break_continue,html.Screen,4_97_2,2023-05-01T22:06:38.370Z,,0,,,NaN,,,,,,false,,,,365105,365104,,365104,,365134,8,400,,,
sequence,flow.Sequence,4_97,2023-05-01T22:06:38.370Z,,0,,,2536,completion,,,,,false,,,,365105,365104,362551,362549.00000000006,362568,365134,8,400,,,
trial,html.Screen,4_98_0,2023-05-01T22:06:40.818Z,,0,2,,2434,response,ISIC_0010532.JPG,,ISIC_0011921.JPG,ISIC_0010532.JPG,false,1,keypress(m),500,367552,367552,365118,365105,365134,367584,8,400,49,,ISIC_0011921.JPG
break,html.Screen,4_98_1,2023-05-01T22:06:40.819Z,,0,,,NaN,,,,,,false,,,,367554.00000000006,367553,,367553,,367584,8,400,,,
break_continue,html.Screen,4_98_2,2023-05-01T22:06:40.819Z,,0,,,NaN,,,,,,false,,,,367554.00000000006,367554.00000000006,,367554.00000000006,,367584,8,400,,,
sequence,flow.Sequence,4_98,2023-05-01T22:06:40.819Z,,0,,,2420.000000000058,completion,,,,,false,,,,367554.00000000006,367554.00000000006,365118,365105,365134,367584,8,400,,,
trial,html.Screen,4_99_0,2023-05-01T22:06:43.734Z,,0,2,,2900,response,ISIC_0030391.JPG,,ISIC_1059525.JPG,ISIC_1059525.JPG,false,0,keypress(z),500,370469,370468,367568,367554.00000000006,367584,370501,8,400,50,,ISIC_0030391.JPG
break,html.Screen,4_99_1,2023-05-01T22:06:48.750Z,,0,,,5000,timeout,,,,,false,,,,375485,375484,370484,370469,370501,375501,8,400,,,
break_continue,html.Screen,4_99_2,2023-05-01T22:06:52.668Z,,0,,,3924,response,,,,,false,continue,keypress(Space),,379403,379408,375484,375485,375501,379434,8,400,,,
sequence,flow.Sequence,4_99,2023-05-01T22:06:52.668Z,,0,,,11824,completion,,,,,false,,,,379403,379408,367568,367554.00000000006,367584,379434,8,400,,,
trial,html.Screen,4_100_0,2023-05-01T22:06:55.389Z,,0,3,,2707,response,ISIC_0011077.JPG,,ISIC_0012810.JPG,ISIC_0012810.JPG,false,0,keypress(z),500,382124,382124,379417,379403,379434,382151,8,400,1,,ISIC_0011077.JPG
break,html.Screen,4_100_1,2023-05-01T22:06:55.391Z,,0,,,NaN,,,,,,false,,,,382126.00000000006,382125,,382125,,382151,8,400,,,
break_continue,html.Screen,4_100_2,2023-05-01T22:06:55.391Z,,0,,,NaN,,,,,,false,,,,382126.00000000006,382126.00000000006,,382126.00000000006,,382151,8,400,,,
sequence,flow.Sequence,4_100,2023-05-01T22:06:55.391Z,,0,,,2692.000000000058,completion,,,,,false,,,,382126.00000000006,382126.00000000006,379417,379403,379434,382151,8,400,,,
trial,html.Screen,4_101_0,2023-05-01T22:06:58.136Z,,0,3,,2736,response,ISIC_0028248.JPG,,ISIC_0056466.JPG,ISIC_0028248.JPG,false,1,keypress(m),500,384871,384870,382134,382127,382151,384901,8,400,2,,ISIC_0056466.JPG
break,html.Screen,4_101_1,2023-05-01T22:06:58.137Z,,0,,,NaN,,,,,,false,,,,384873,384872,,384871,,384901,8,400,,,
break_continue,html.Screen,4_101_2,2023-05-01T22:06:58.138Z,,0,,,NaN,,,,,,false,,,,384873,384873,,384873,,384901,8,400,,,
sequence,flow.Sequence,4_101,2023-05-01T22:06:58.138Z,,0,,,2722,completion,,,,,false,,,,384873,384873,382134,382126.00000000006,382151,384901,8,400,,,
trial,html.Screen,4_102_0,2023-05-01T22:07:04.355Z,,0,3,,6206.000000000058,response,ISIC_0029698.JPG,,ISIC_0033232.JPG,ISIC_0029698.JPG,false,1,keypress(m),500,391090.00000000006,391090.00000000006,384884,384874,384901,391117,8,400,3,,ISIC_0033232.JPG
break,html.Screen,4_102_1,2023-05-01T22:07:04.356Z,,0,,,NaN,,,,,,false,,,,391091,391091,,391091,,391117,8,400,,,
break_continue,html.Screen,4_102_2,2023-05-01T22:07:04.357Z,,0,,,NaN,,,,,,false,,,,391092,391092,,391092,,391117,8,400,,,
sequence,flow.Sequence,4_102,2023-05-01T22:07:04.357Z,,0,,,6191,completion,,,,,false,,,,391092,391092,384884,384873,384901,391117,8,400,,,
trial,html.Screen,4_103_0,2023-05-01T22:07:07.060Z,,0,3,,2693,response,ISIC_0067577.JPG,,ISIC_5586765.JPG,ISIC_5586765.JPG,false,0,keypress(z),500,393795,393794,391101,391092,391117,393818,8,400,4,,ISIC_0067577.JPG
break,html.Screen,4_103_1,2023-05-01T22:07:07.061Z,,0,,,NaN,,,,,,false,,,,393796,393796,,393795,,393818,8,400,,,
break_continue,html.Screen,4_103_2,2023-05-01T22:07:07.062Z,,0,,,NaN,,,,,,false,,,,393797,393797,,393797,,393818,8,400,,,
sequence,flow.Sequence,4_103,2023-05-01T22:07:07.062Z,,0,,,2680,completion,,,,,false,,,,393797,393797,391101,391092,391117,393818,8,400,,,
trial,html.Screen,4_104_0,2023-05-01T22:07:09.652Z,,0,3,,2587,response,ISIC_0012708.JPG,,ISIC_0064124.JPG,ISIC_0012708.JPG,false,1,keypress(m),500,396387,396387,393800,393797,393818,396418,8,400,5,,ISIC_0064124.JPG
break,html.Screen,4_104_1,2023-05-01T22:07:09.654Z,,0,,,NaN,,,,,,false,,,,396389,396389,,396388.00000000006,,396418,8,400,,,
break_continue,html.Screen,4_104_2,2023-05-01T22:07:09.654Z,,0,,,NaN,,,,,,false,,,,396390,396389,,396389,,396418,8,400,,,
sequence,flow.Sequence,4_104,2023-05-01T22:07:09.655Z,,0,,,2571,completion,,,,,false,,,,396390,396389,393800,393797,393818,396418,8,400,,,
trial,html.Screen,4_105_0,2023-05-01T22:07:12.162Z,,0,3,,2496,response,ISIC_0067653.JPG,,ISIC_0002026.JPG,ISIC_0002026.JPG,false,0,keypress(z),500,398897,398897,396401,396390,396418,398917,8,400,6,,ISIC_0067653.JPG
break,html.Screen,4_105_1,2023-05-01T22:07:12.164Z,,0,,,NaN,,,,,,false,,,,398899,398899,,398898,,398917,8,400,,,
break_continue,html.Screen,4_105_2,2023-05-01T22:07:12.164Z,,0,,,NaN,,,,,,false,,,,398899,398899,,398899,,398917,8,400,,,
sequence,flow.Sequence,4_105,2023-05-01T22:07:12.165Z,,0,,,2481,completion,,,,,false,,,,398900.00000000006,398899,396401,396390,396418,398917,8,400,,,
trial,html.Screen,4_106_0,2023-05-01T22:07:14.896Z,,0,3,,2728,response,ISIC_1152559.JPG,,ISIC_9261199.JPG,ISIC_9261199.JPG,false,0,keypress(z),500,401631,401630,398902,398900.00000000006,398917,401651,8,400,7,,ISIC_1152559.JPG
break,html.Screen,4_106_1,2023-05-01T22:07:14.897Z,,0,,,NaN,,,,,,false,,,,401632,401632,,401631,,401651,8,400,,,
break_continue,html.Screen,4_106_2,2023-05-01T22:07:14.897Z,,0,,,NaN,,,,,,false,,,,401633,401632,,401632,,401651,8,400,,,
sequence,flow.Sequence,4_106,2023-05-01T22:07:14.898Z,,0,,,2715,completion,,,,,false,,,,401633,401632,398902,398900.00000000006,398917,401651,8,400,,,
trial,html.Screen,4_107_0,2023-05-01T22:07:17.474Z,,0,3,,2573,response,ISIC_2861793.JPG,,ISIC_0025616.JPG,ISIC_2861793.JPG,false,1,keypress(m),500,404209,404208,401635,401633,401651,404234,8,400,8,,ISIC_0025616.JPG
break,html.Screen,4_107_1,2023-05-01T22:07:17.475Z,,0,,,NaN,,,,,,false,,,,404210.00000000006,404210.00000000006,,404209,,404234,8,400,,,
break_continue,html.Screen,4_107_2,2023-05-01T22:07:17.476Z,,0,,,NaN,,,,,,false,,,,404211,404211,,404210.00000000006,,404234,8,400,,,
sequence,flow.Sequence,4_107,2023-05-01T22:07:17.476Z,,0,,,2560,completion,,,,,false,,,,404211,404211,401635,401633,401651,404234,8,400,,,
trial,html.Screen,4_108_0,2023-05-01T22:07:19.929Z,,0,3,,2447,response,ISIC_0011313.JPG,,ISIC_6384927.JPG,ISIC_6384927.JPG,false,0,keypress(z),500,406664,406664,404217,404211,404234,406683,8,400,9,,ISIC_0011313.JPG
break,html.Screen,4_108_1,2023-05-01T22:07:19.930Z,,0,,,NaN,,,,,,false,,,,406665,406665,,406665,,406683,8,400,,,
break_continue,html.Screen,4_108_2,2023-05-01T22:07:19.931Z,,0,,,NaN,,,,,,false,,,,406666,406666,,406666,,406683,8,400,,,
sequence,flow.Sequence,4_108,2023-05-01T22:07:19.931Z,,0,,,2432,completion,,,,,false,,,,406666,406666,404217,404211,404234,406683,8,400,,,
trial,html.Screen,4_109_0,2023-05-01T22:07:22.424Z,,0,3,,2491,response,ISIC_4527661.JPG,,ISIC_0002119.JPG,ISIC_4527661.JPG,false,1,keypress(m),500,409159,409159,406668,406666,406683,409184,8,400,10,,ISIC_0002119.JPG
break,html.Screen,4_109_1,2023-05-01T22:07:22.428Z,,0,,,NaN,,,,,,false,,,,409163,409163,,409162.00000000006,,409184,8,400,,,
break_continue,html.Screen,4_109_2,2023-05-01T22:07:22.428Z,,0,,,NaN,,,,,,false,,,,409163,409163,,409163,,409184,8,400,,,
sequence,flow.Sequence,4_109,2023-05-01T22:07:22.428Z,,0,,,2480,completion,,,,,false,,,,409164,409163,406668,406666,406683,409184,8,400,,,
trial,html.Screen,4_110_0,2023-05-01T22:07:24.977Z,,0,3,,2545,response,ISIC_1089617.JPG,,ISIC_0247330.JPG,ISIC_1089617.JPG,false,1,keypress(m),500,411712,411712,409167,409164,409184,411733,8,400,11,,ISIC_0247330.JPG
break,html.Screen,4_110_1,2023-05-01T22:07:24.978Z,,0,,,NaN,,,,,,false,,,,411713,411713,,411712,,411733,8,400,,,
break_continue,html.Screen,4_110_2,2023-05-01T22:07:24.978Z,,0,,,NaN,,,,,,false,,,,411714,411713,,411713,,411733,8,400,,,
sequence,flow.Sequence,4_110,2023-05-01T22:07:24.978Z,,0,,,2529,completion,,,,,false,,,,411714,411713,409167,409164,409184,411733,8,400,,,
trial,html.Screen,4_111_0,2023-05-01T22:07:27.458Z,,0,3,,2476,response,ISIC_2795397.JPG,,ISIC_5581936.JPG,ISIC_5581936.JPG,false,0,keypress(z),500,414193,414193,411717,411714,411733,414217,8,400,12,,ISIC_2795397.JPG
break,html.Screen,4_111_1,2023-05-01T22:07:27.459Z,,0,,,NaN,,,,,,false,,,,414194,414194,,414193,,414217,8,400,,,
break_continue,html.Screen,4_111_2,2023-05-01T22:07:27.459Z,,0,,,NaN,,,,,,false,,,,414195,414195,,414194,,414217,8,400,,,
sequence,flow.Sequence,4_111,2023-05-01T22:07:27.460Z,,0,,,2462,completion,,,,,false,,,,414195,414195,411717,411714,411733,414217,8,400,,,
trial,html.Screen,4_112_0,2023-05-01T22:07:30.096Z,,0,3,,2629,response,ISIC_4142019.JPG,,ISIC_0485417.JPG,ISIC_4142019.JPG,false,1,keypress(m),500,416831,416830,414201,414195,414217,416851,8,400,13,,ISIC_0485417.JPG
break,html.Screen,4_112_1,2023-05-01T22:07:30.097Z,,0,,,NaN,,,,,,false,,,,416832,416832,,416831,,416851,8,400,,,
break_continue,html.Screen,4_112_2,2023-05-01T22:07:30.097Z,,0,,,NaN,,,,,,false,,,,416833,416832,,416832,,416851,8,400,,,
sequence,flow.Sequence,4_112,2023-05-01T22:07:30.098Z,,0,,,2615,completion,,,,,false,,,,416833,416832,414201,414195,414217,416851,8,400,,,
trial,html.Screen,4_113_0,2023-05-01T22:07:32.796Z,,0,3,,2695.000000000058,response,ISIC_0061806.JPG,,ISIC_0030575.JPG,ISIC_0030575.JPG,false,0,keypress(z),500,419531,419530.00000000006,416835,416833,416851,419551,8,400,14,,ISIC_0061806.JPG
break,html.Screen,4_113_1,2023-05-01T22:07:32.797Z,,0,,,NaN,,,,,,false,,,,419532,419532,,419531,,419551,8,400,,,
break_continue,html.Screen,4_113_2,2023-05-01T22:07:32.797Z,,0,,,NaN,,,,,,false,,,,419533,419532,,419532,,419551,8,400,,,
sequence,flow.Sequence,4_113,2023-05-01T22:07:32.798Z,,0,,,2681,completion,,,,,false,,,,419533,419532,416835,416833,416851,419551,8,400,,,
trial,html.Screen,4_114_0,2023-05-01T22:07:35.405Z,,0,3,,2605,response,ISIC_2826618.JPG,,ISIC_9462738.JPG,ISIC_2826618.JPG,false,1,keypress(m),500,422140,422140,419535,419533,419551,422166,8,400,15,,ISIC_9462738.JPG
break,html.Screen,4_114_1,2023-05-01T22:07:35.406Z,,0,,,NaN,,,,,,false,,,,422142,422141,,422141,,422166,8,400,,,
break_continue,html.Screen,4_114_2,2023-05-01T22:07:35.407Z,,0,,,NaN,,,,,,false,,,,422142,422142,,422142,,422166,8,400,,,
sequence,flow.Sequence,4_114,2023-05-01T22:07:35.407Z,,0,,,2591,completion,,,,,false,,,,422142,422142,419535,419533,419551,422166,8,400,,,
trial,html.Screen,4_115_0,2023-05-01T22:07:39.351Z,,0,3,,3934.000000000058,response,ISIC_5468164.JPG,,ISIC_0012883.JPG,ISIC_5468164.JPG,false,1,keypress(m),500,426086,426085.00000000006,422151,422143,422166,426117,8,400,16,,ISIC_0012883.JPG
break,html.Screen,4_115_1,2023-05-01T22:07:39.355Z,,0,,,NaN,,,,,,false,,,,426091,426090.00000000006,,426090.00000000006,,426117,8,400,,,
break_continue,html.Screen,4_115_2,2023-05-01T22:07:39.356Z,,0,,,NaN,,,,,,false,,,,426091,426091,,426091,,426117,8,400,,,
sequence,flow.Sequence,4_115,2023-05-01T22:07:39.356Z,,0,,,3925,completion,,,,,false,,,,426091,426091,422151,422142,422166,426117,8,400,,,
trial,html.Screen,4_116_0,2023-05-01T22:07:42.195Z,,0,3,,2828.000000000058,response,ISIC_6952773.JPG,,ISIC_3653492.JPG,ISIC_6952773.JPG,false,1,keypress(m),500,428930,428929.00000000006,426101,426091,426117,428968,8,400,17,,ISIC_3653492.JPG
break,html.Screen,4_116_1,2023-05-01T22:07:42.196Z,,0,,,NaN,,,,,,false,,,,428931,428931,,428931,,428968,8,400,,,
break_continue,html.Screen,4_116_2,2023-05-01T22:07:42.197Z,,0,,,NaN,,,,,,false,,,,428932,428932,,428932,,428968,8,400,,,
sequence,flow.Sequence,4_116,2023-05-01T22:07:42.197Z,,0,,,2815,completion,,,,,false,,,,428932,428932,426101,426091,426117,428968,8,400,,,
trial,html.Screen,4_117_0,2023-05-01T22:07:44.713Z,,0,3,,2498.000000000058,response,ISIC_3418245.JPG,,ISIC_0826998.JPG,ISIC_3418245.JPG,false,1,keypress(m),500,431448.00000000006,431448.00000000006,428950,428932,428968,431467,8,400,18,,ISIC_0826998.JPG
break,html.Screen,4_117_1,2023-05-01T22:07:44.714Z,,0,,,NaN,,,,,,false,,,,431450,431449,,431449,,431467,8,400,,,
break_continue,html.Screen,4_117_2,2023-05-01T22:07:44.715Z,,0,,,NaN,,,,,,false,,,,431450,431450,,431450,,431467,8,400,,,
sequence,flow.Sequence,4_117,2023-05-01T22:07:44.715Z,,0,,,2482,completion,,,,,false,,,,431450,431450,428950,428932,428968,431467,8,400,,,
trial,html.Screen,4_118_0,2023-05-01T22:07:47.123Z,,0,3,,2405,response,ISIC_0941085.JPG,,ISIC_0029531.JPG,ISIC_0941085.JPG,false,1,keypress(m),500,433858,433858,431453,431450,431467,433884,8,400,19,,ISIC_0029531.JPG
break,html.Screen,4_118_1,2023-05-01T22:07:47.124Z,,0,,,NaN,,,,,,false,,,,433859.00000000006,433859.00000000006,,433858,,433884,8,400,,,
break_continue,html.Screen,4_118_2,2023-05-01T22:07:47.125Z,,0,,,NaN,,,,,,false,,,,433860,433860,,433860,,433884,8,400,,,
sequence,flow.Sequence,4_118,2023-05-01T22:07:47.125Z,,0,,,2393,completion,,,,,false,,,,433860,433860,431453,431450,431467,433884,8,400,,,
trial,html.Screen,4_119_0,2023-05-01T22:07:49.962Z,,0,3,,2830,response,ISIC_0663824.JPG,,ISIC_0014302.JPG,ISIC_0663824.JPG,false,1,keypress(m),500,436697,436697,433867,433860,433884,436717,8,400,20,,ISIC_0014302.JPG
break,html.Screen,4_119_1,2023-05-01T22:07:49.963Z,,0,,,NaN,,,,,,false,,,,436699,436698.00000000006,,436698.00000000006,,436717,8,400,,,
break_continue,html.Screen,4_119_2,2023-05-01T22:07:49.964Z,,0,,,NaN,,,,,,false,,,,436699,436699,,436699,,436717,8,400,,,
sequence,flow.Sequence,4_119,2023-05-01T22:07:49.964Z,,0,,,2815,completion,,,,,false,,,,436699,436699,433867,433860,433884,436717,8,400,,,
trial,html.Screen,4_120_0,2023-05-01T22:07:52.587Z,,0,3,,2620,response,ISIC_0028945.JPG,,ISIC_0053686.JPG,ISIC_0028945.JPG,false,1,keypress(m),500,439323.00000000006,439322,436702,436700,436717,439350,8,400,21,,ISIC_0053686.JPG
break,html.Screen,4_120_1,2023-05-01T22:07:52.588Z,,0,,,NaN,,,,,,false,,,,439324,439324,,439323.00000000006,,439350,8,400,,,
break_continue,html.Screen,4_120_2,2023-05-01T22:07:52.589Z,,0,,,NaN,,,,,,false,,,,439324,439324,,439324,,439350,8,400,,,
sequence,flow.Sequence,4_120,2023-05-01T22:07:52.589Z,,0,,,2607,completion,,,,,false,,,,439325,439324,436702,436699,436717,439350,8,400,,,
trial,html.Screen,4_121_0,2023-05-01T22:07:55.131Z,,0,3,,2532,response,ISIC_0067873.JPG,,ISIC_9626843.JPG,ISIC_9626843.JPG,false,0,keypress(z),500,441867,441866,439334,439325,439350,441901,8,400,22,,ISIC_0067873.JPG
break,html.Screen,4_121_1,2023-05-01T22:07:55.132Z,,0,,,NaN,,,,,,false,,,,441868,441868,,441867,,441901,8,400,,,
break_continue,html.Screen,4_121_2,2023-05-01T22:07:55.133Z,,0,,,NaN,,,,,,false,,,,441868,441868,,441868,,441901,8,400,,,
sequence,flow.Sequence,4_121,2023-05-01T22:07:55.133Z,,0,,,2518,completion,,,,,false,,,,441869,441868,439334,439325,439350,441901,8,400,,,
trial,html.Screen,4_122_0,2023-05-01T22:07:57.740Z,,0,3,,2590,response,ISIC_0010901.JPG,,ISIC_0011493.JPG,ISIC_0010901.JPG,false,1,keypress(m),500,444475,444474,441884,441869,441901,444500,8,400,23,,ISIC_0011493.JPG
break,html.Screen,4_122_1,2023-05-01T22:07:57.741Z,,0,,,NaN,,,,,,false,,,,444476,444476,,444475,,444500,8,400,,,
break_continue,html.Screen,4_122_2,2023-05-01T22:07:57.741Z,,0,,,NaN,,,,,,false,,,,444477.00000000006,444477.00000000006,,444476,,444500,8,400,,,
sequence,flow.Sequence,4_122,2023-05-01T22:07:57.742Z,,0,,,2576.000000000058,completion,,,,,false,,,,444477.00000000006,444477.00000000006,441884,441869,441901,444500,8,400,,,
trial,html.Screen,4_123_0,2023-05-01T22:08:00.436Z,,0,3,,2688,response,ISIC_0062713.JPG,,ISIC_5566396.JPG,ISIC_0062713.JPG,false,1,keypress(m),500,447172,447171,444483,444477.00000000006,444500,447200,8,400,24,,ISIC_5566396.JPG
break,html.Screen,4_123_1,2023-05-01T22:08:00.437Z,,0,,,NaN,,,,,,false,,,,447173,447173,,447172,,447200,8,400,,,
break_continue,html.Screen,4_123_2,2023-05-01T22:08:00.438Z,,0,,,NaN,,,,,,false,,,,447173,447173,,447173,,447200,8,400,,,
sequence,flow.Sequence,4_123,2023-05-01T22:08:00.438Z,,0,,,2673,completion,,,,,false,,,,447173,447173,444483,444477.00000000006,444500,447200,8,400,,,
trial,html.Screen,4_124_0,2023-05-01T22:08:04.426Z,,0,3,,3977,response,ISIC_0026692.JPG,,ISIC_3922580.JPG,ISIC_3922580.JPG,false,0,keypress(z),500,451162.00000000006,451161,447184,447174.00000000006,447200,451184,8,400,25,,ISIC_0026692.JPG
break,html.Screen,4_124_1,2023-05-01T22:08:04.428Z,,0,,,NaN,,,,,,false,,,,451163,451163,,451162.00000000006,,451184,8,400,,,
break_continue,html.Screen,4_124_2,2023-05-01T22:08:04.428Z,,0,,,NaN,,,,,,false,,,,451164,451164,,451163,,451184,8,400,,,
sequence,flow.Sequence,4_124,2023-05-01T22:08:04.429Z,,0,,,3964,completion,,,,,false,,,,451164,451164,447184,447173,447200,451184,8,400,,,
trial,html.Screen,4_125_0,2023-05-01T22:08:07.135Z,,0,3,,2703,response,ISIC_2631789.JPG,,ISIC_4998826.JPG,ISIC_2631789.JPG,false,1,keypress(m),500,453870,453869,451166,451164,451184,453900,8,400,26,,ISIC_4998826.JPG
break,html.Screen,4_125_1,2023-05-01T22:08:07.136Z,,0,,,NaN,,,,,,false,,,,453871.00000000006,453871.00000000006,,453870,,453900,8,400,,,
break_continue,html.Screen,4_125_2,2023-05-01T22:08:07.136Z,,0,,,NaN,,,,,,false,,,,453872,453872,,453872,,453900,8,400,,,
sequence,flow.Sequence,4_125,2023-05-01T22:08:07.137Z,,0,,,2688,completion,,,,,false,,,,453872,453872,451166,451164,451184,453900,8,400,,,
trial,html.Screen,4_126_0,2023-05-01T22:08:09.644Z,,0,3,,2495,response,ISIC_0030994.JPG,,ISIC_1601532.JPG,ISIC_1601532.JPG,false,0,keypress(z),500,456380,456379,453884,453872,453900,456400,8,400,27,,ISIC_0030994.JPG
break,html.Screen,4_126_1,2023-05-01T22:08:09.645Z,,0,,,NaN,,,,,,false,,,,456381,456381,,456380,,456400,8,400,,,
break_continue,html.Screen,4_126_2,2023-05-01T22:08:09.646Z,,0,,,NaN,,,,,,false,,,,456381,456381,,456381,,456400,8,400,,,
sequence,flow.Sequence,4_126,2023-05-01T22:08:09.646Z,,0,,,2481,completion,,,,,false,,,,456382,456381,453884,453872,453900,456400,8,400,,,
trial,html.Screen,4_127_0,2023-05-01T22:08:12.380Z,,0,3,,2731,response,ISIC_4804158.JPG,,ISIC_9876515.JPG,ISIC_4804158.JPG,false,1,keypress(m),500,459116,459115,456384,456382,456400,459134,8,400,28,,ISIC_9876515.JPG
break,html.Screen,4_127_1,2023-05-01T22:08:12.382Z,,0,,,NaN,,,,,,false,,,,459117,459117,,459116,,459134,8,400,,,
break_continue,html.Screen,4_127_2,2023-05-01T22:08:12.382Z,,0,,,NaN,,,,,,false,,,,459118,459117,,459117,,459134,8,400,,,
sequence,flow.Sequence,4_127,2023-05-01T22:08:12.382Z,,0,,,2717,completion,,,,,false,,,,459118,459117,456384,456382,456400,459134,8,400,,,
trial,html.Screen,4_128_0,2023-05-01T22:08:15.086Z,,0,3,,2701,response,ISIC_0059423.JPG,,ISIC_2728024.JPG,ISIC_2728024.JPG,false,0,keypress(z),500,461822,461821,459120,459118,459134,461850,8,400,29,,ISIC_0059423.JPG
break,html.Screen,4_128_1,2023-05-01T22:08:15.088Z,,0,,,NaN,,,,,,false,,,,461823.00000000006,461823.00000000006,,461822,,461850,8,400,,,
break_continue,html.Screen,4_128_2,2023-05-01T22:08:15.088Z,,0,,,NaN,,,,,,false,,,,461824,461824,,461823.00000000006,,461850,8,400,,,
sequence,flow.Sequence,4_128,2023-05-01T22:08:15.088Z,,0,,,2690,completion,,,,,false,,,,461824,461824,459120,459118,459134,461850,8,400,,,
trial,html.Screen,4_129_0,2023-05-01T22:08:17.868Z,,0,3,,2770,response,ISIC_0058828.JPG,,ISIC_6297317.JPG,ISIC_6297317.JPG,false,0,keypress(z),500,464603,464603,461833,461824,461850,464634,8,400,30,,ISIC_0058828.JPG
break,html.Screen,4_129_1,2023-05-01T22:08:17.869Z,,0,,,NaN,,,,,,false,,,,464605,464604,,464604,,464634,8,400,,,
break_continue,html.Screen,4_129_2,2023-05-01T22:08:17.870Z,,0,,,NaN,,,,,,false,,,,464605,464605,,464605,,464634,8,400,,,
sequence,flow.Sequence,4_129,2023-05-01T22:08:17.870Z,,0,,,2755,completion,,,,,false,,,,464606,464605,461833,461824,461850,464634,8,400,,,
trial,html.Screen,4_130_0,2023-05-01T22:08:20.570Z,,0,3,,2689,response,ISIC_3492490.JPG,,ISIC_2902328.JPG,ISIC_2902328.JPG,false,0,keypress(z),500,467306,467305,464616,464606,464634,467334,8,400,31,,ISIC_3492490.JPG
break,html.Screen,4_130_1,2023-05-01T22:08:20.572Z,,0,,,NaN,,,,,,false,,,,467307,467307,,467306,,467334,8,400,,,
break_continue,html.Screen,4_130_2,2023-05-01T22:08:20.572Z,,0,,,NaN,,,,,,false,,,,467308,467308,,467307,,467334,8,400,,,
sequence,flow.Sequence,4_130,2023-05-01T22:08:20.572Z,,0,,,2674,completion,,,,,false,,,,467308,467308,464616,464606,464634,467334,8,400,,,
trial,html.Screen,4_131_0,2023-05-01T22:08:23.012Z,,0,3,,2430,response,ISIC_3065032.JPG,,ISIC_0998962.JPG,ISIC_3065032.JPG,false,1,keypress(m),500,469748,469747,467317,467308,467334,469767,8,400,32,,ISIC_0998962.JPG
break,html.Screen,4_131_1,2023-05-01T22:08:23.013Z,,0,,,NaN,,,,,,false,,,,469749,469749,,469748,,469767,8,400,,,
break_continue,html.Screen,4_131_2,2023-05-01T22:08:23.014Z,,0,,,NaN,,,,,,false,,,,469749,469749,,469749,,469767,8,400,,,
sequence,flow.Sequence,4_131,2023-05-01T22:08:23.014Z,,0,,,2415,completion,,,,,false,,,,469750,469749,467317,467308,467334,469767,8,400,,,
trial,html.Screen,4_132_0,2023-05-01T22:08:25.616Z,,0,3,,2599,response,ISIC_0033759.JPG,,ISIC_0010347.JPG,ISIC_0010347.JPG,false,0,keypress(z),500,472351,472351,469752,469750,469767,472384,8,400,33,,ISIC_0033759.JPG
break,html.Screen,4_132_1,2023-05-01T22:08:25.617Z,,0,,,NaN,,,,,,false,,,,472353,472352.00000000006,,472352.00000000006,,472384,8,400,,,
break_continue,html.Screen,4_132_2,2023-05-01T22:08:25.618Z,,0,,,NaN,,,,,,false,,,,472353,472353,,472353,,472384,8,400,,,
sequence,flow.Sequence,4_132,2023-05-01T22:08:25.618Z,,0,,,2586,completion,,,,,false,,,,472353,472353,469752,469750,469767,472384,8,400,,,
trial,html.Screen,4_133_0,2023-05-01T22:08:28.057Z,,0,3,,2425.000000000058,response,ISIC_8249565.JPG,,ISIC_7271718.JPG,ISIC_8249565.JPG,false,1,keypress(m),500,474793,474792.00000000006,472367,472354,472384,474817,8,400,34,,ISIC_7271718.JPG
break,html.Screen,4_133_1,2023-05-01T22:08:28.058Z,,0,,,NaN,,,,,,false,,,,474794,474793,,474793,,474817,8,400,,,
break_continue,html.Screen,4_133_2,2023-05-01T22:08:28.058Z,,0,,,NaN,,,,,,false,,,,474794,474794,,474794,,474817,8,400,,,
sequence,flow.Sequence,4_133,2023-05-01T22:08:28.059Z,,0,,,2410,completion,,,,,false,,,,474794,474794,472367,472354,472384,474817,8,400,,,
trial,html.Screen,4_134_0,2023-05-01T22:08:30.430Z,,0,3,,2365,response,ISIC_0071834.JPG,,ISIC_4764568.JPG,ISIC_4764568.JPG,false,0,keypress(z),500,477166,477165,474800,474794,474817,477200,8,400,35,,ISIC_0071834.JPG
break,html.Screen,4_134_1,2023-05-01T22:08:30.431Z,,0,,,NaN,,,,,,false,,,,477167.00000000006,477167.00000000006,,477166,,477200,8,400,,,
break_continue,html.Screen,4_134_2,2023-05-01T22:08:30.432Z,,0,,,NaN,,,,,,false,,,,477167.00000000006,477167.00000000006,,477167.00000000006,,477200,8,400,,,
sequence,flow.Sequence,4_134,2023-05-01T22:08:30.432Z,,0,,,2350.000000000058,completion,,,,,false,,,,477168,477167.00000000006,474800,474794,474817,477200,8,400,,,
trial,html.Screen,4_135_0,2023-05-01T22:08:33.328Z,,0,3,,2879,response,ISIC_3073634.JPG,,ISIC_1359533.JPG,ISIC_3073634.JPG,false,1,keypress(m),500,480064,480063,477184,477168,477200,480083,8,400,36,,ISIC_1359533.JPG
break,html.Screen,4_135_1,2023-05-01T22:08:33.329Z,,0,,,NaN,,,,,,false,,,,480065,480065,,480064,,480083,8,400,,,
break_continue,html.Screen,4_135_2,2023-05-01T22:08:33.330Z,,0,,,NaN,,,,,,false,,,,480066.00000000006,480065,,480065,,480083,8,400,,,
sequence,flow.Sequence,4_135,2023-05-01T22:08:33.330Z,,0,,,2865,completion,,,,,false,,,,480066.00000000006,480065,477184,477168,477200,480083,8,400,,,
trial,html.Screen,4_136_0,2023-05-01T22:08:36.419Z,,0,3,,3086,response,ISIC_0012263.JPG,,ISIC_8375123.JPG,ISIC_0012263.JPG,false,1,keypress(m),500,483155.00000000006,483154,480068,480066.00000000006,480083,483183,8,400,37,,ISIC_8375123.JPG
break,html.Screen,4_136_1,2023-05-01T22:08:36.421Z,,0,,,NaN,,,,,,false,,,,483156,483156,,483155.00000000006,,483183,8,400,,,
break_continue,html.Screen,4_136_2,2023-05-01T22:08:36.421Z,,0,,,NaN,,,,,,false,,,,483157,483157,,483156,,483183,8,400,,,
sequence,flow.Sequence,4_136,2023-05-01T22:08:36.421Z,,0,,,3074,completion,,,,,false,,,,483157,483157,480068,480066.00000000006,480083,483183,8,400,,,
trial,html.Screen,4_137_0,2023-05-01T22:08:39.074Z,,0,3,,2642,response,ISIC_3430447.JPG,,ISIC_4066726.JPG,ISIC_3430447.JPG,false,1,keypress(m),500,485810,485809,483167,483157,483183,485833,8,400,38,,ISIC_4066726.JPG
break,html.Screen,4_137_1,2023-05-01T22:08:39.075Z,,0,,,NaN,,,,,,false,,,,485811.00000000006,485811.00000000006,,485810,,485833,8,400,,,
break_continue,html.Screen,4_137_2,2023-05-01T22:08:39.076Z,,0,,,NaN,,,,,,false,,,,485812,485811.00000000006,,485811.00000000006,,485833,8,400,,,
sequence,flow.Sequence,4_137,2023-05-01T22:08:39.076Z,,0,,,2628.000000000058,completion,,,,,false,,,,485812,485811.00000000006,483167,483157,483183,485833,8,400,,,
trial,html.Screen,4_138_0,2023-05-01T22:08:42.375Z,,0,3,,3294,response,ISIC_8207162.JPG,,ISIC_8389839.JPG,ISIC_8207162.JPG,false,1,keypress(m),500,489111,489110,485816,485812,485833,489133,8,400,39,,ISIC_8389839.JPG
break,html.Screen,4_138_1,2023-05-01T22:08:42.377Z,,0,,,NaN,,,,,,false,,,,489112,489112,,489111,,489133,8,400,,,
break_continue,html.Screen,4_138_2,2023-05-01T22:08:42.377Z,,0,,,NaN,,,,,,false,,,,489113,489113,,489113,,489133,8,400,,,
sequence,flow.Sequence,4_138,2023-05-01T22:08:42.377Z,,0,,,3280,completion,,,,,false,,,,489113,489113,485816,485812,485833,489133,8,400,,,
trial,html.Screen,4_139_0,2023-05-01T22:08:45.437Z,,0,3,,3053,response,ISIC_0068382.JPG,,ISIC_9754098.JPG,ISIC_0068382.JPG,false,1,keypress(m),500,492172,492169,489116,489113,489133,492200,8,400,40,,ISIC_9754098.JPG
break,html.Screen,4_139_1,2023-05-01T22:08:45.438Z,,0,,,NaN,,,,,,false,,,,492174.00000000006,492173,,492173,,492200,8,400,,,
break_continue,html.Screen,4_139_2,2023-05-01T22:08:45.438Z,,0,,,NaN,,,,,,false,,,,492174.00000000006,492174.00000000006,,492174.00000000006,,492200,8,400,,,
sequence,flow.Sequence,4_139,2023-05-01T22:08:45.438Z,,0,,,3041.000000000058,completion,,,,,false,,,,492174.00000000006,492174.00000000006,489116,489113,489133,492200,8,400,,,
trial,html.Screen,4_140_0,2023-05-01T22:08:48.074Z,,0,3,,2626,response,ISIC_0012678.JPG,,ISIC_0033520.JPG,ISIC_0012678.JPG,false,1,keypress(m),500,494810,494809,492183,492174.00000000006,492200,494833,8,400,41,,ISIC_0033520.JPG
break,html.Screen,4_140_1,2023-05-01T22:08:48.075Z,,0,,,NaN,,,,,,false,,,,494811.00000000006,494810,,494810,,494833,8,400,,,
break_continue,html.Screen,4_140_2,2023-05-01T22:08:48.075Z,,0,,,NaN,,,,,,false,,,,494811.00000000006,494811.00000000006,,494811.00000000006,,494833,8,400,,,
sequence,flow.Sequence,4_140,2023-05-01T22:08:48.076Z,,0,,,2611.000000000058,completion,,,,,false,,,,494812,494811.00000000006,492183,492174.00000000006,492200,494833,8,400,,,
trial,html.Screen,4_141_0,2023-05-01T22:08:50.642Z,,0,3,,2561,response,ISIC_0063369.JPG,,ISIC_0028317.JPG,ISIC_0028317.JPG,false,0,keypress(z),500,497378,497377,494816,494812,494833,497400,8,400,42,,ISIC_0063369.JPG
break,html.Screen,4_141_1,2023-05-01T22:08:50.643Z,,0,,,NaN,,,,,,false,,,,497379,497379,,497378,,497400,8,400,,,
break_continue,html.Screen,4_141_2,2023-05-01T22:08:50.644Z,,0,,,NaN,,,,,,false,,,,497379,497379,,497379,,497400,8,400,,,
sequence,flow.Sequence,4_141,2023-05-01T22:08:50.644Z,,0,,,2546,completion,,,,,false,,,,497380,497379,494816,494812,494833,497400,8,400,,,
trial,html.Screen,4_142_0,2023-05-01T22:08:53.273Z,,0,3,,2625.000000000058,response,ISIC_0062935.JPG,,ISIC_0015044.JPG,ISIC_0015044.JPG,false,0,keypress(z),500,500009,500008.00000000006,497383,497380,497400,500033,8,400,43,,ISIC_0062935.JPG
break,html.Screen,4_142_1,2023-05-01T22:08:53.274Z,,0,,,NaN,,,,,,false,,,,500010,500010,,500009,,500033,8,400,,,
break_continue,html.Screen,4_142_2,2023-05-01T22:08:53.275Z,,0,,,NaN,,,,,,false,,,,500010,500010,,500010,,500033,8,400,,,
sequence,flow.Sequence,4_142,2023-05-01T22:08:53.275Z,,0,,,2610,completion,,,,,false,,,,500011,500010,497383,497380,497400,500033,8,400,,,
trial,html.Screen,4_143_0,2023-05-01T22:08:55.815Z,,0,3,,2533,response,ISIC_0066379.JPG,,ISIC_0883408.JPG,ISIC_0883408.JPG,false,0,keypress(z),500,502550,502550,500017,500011,500033,502583,8,400,44,,ISIC_0066379.JPG
break,html.Screen,4_143_1,2023-05-01T22:08:55.816Z,,0,,,NaN,,,,,,false,,,,502552,502551,,502551,,502583,8,400,,,
break_continue,html.Screen,4_143_2,2023-05-01T22:08:55.816Z,,0,,,NaN,,,,,,false,,,,502552,502552,,502552,,502583,8,400,,,
sequence,flow.Sequence,4_143,2023-05-01T22:08:55.817Z,,0,,,2519,completion,,,,,false,,,,502553,502552,500017,500011,500033,502583,8,400,,,
trial,html.Screen,4_144_0,2023-05-01T22:08:58.346Z,,0,3,,2515,response,ISIC_0064125.JPG,,ISIC_4943797.JPG,ISIC_4943797.JPG,false,0,keypress(z),500,505082,505082,502567,502553,502583,505117,8,400,45,,ISIC_0064125.JPG
break,html.Screen,4_144_1,2023-05-01T22:08:58.348Z,,0,,,NaN,,,,,,false,,,,505083,505083,,505083,,505117,8,400,,,
break_continue,html.Screen,4_144_2,2023-05-01T22:08:58.348Z,,0,,,NaN,,,,,,false,,,,505084,505084,,505084,,505117,8,400,,,
sequence,flow.Sequence,4_144,2023-05-01T22:08:58.348Z,,0,,,2501,completion,,,,,false,,,,505084,505084,502567,502553,502583,505117,8,400,,,
trial,html.Screen,4_145_0,2023-05-01T22:09:00.832Z,,0,3,,2467,response,ISIC_7973601.JPG,,ISIC_0315631.JPG,ISIC_7973601.JPG,false,1,keypress(m),500,507568,507567,505100,505084,505117,507600,8,400,46,,ISIC_0315631.JPG
break,html.Screen,4_145_1,2023-05-01T22:09:00.833Z,,0,,,NaN,,,,,,false,,,,507569,507568,,507568,,507600,8,400,,,
break_continue,html.Screen,4_145_2,2023-05-01T22:09:00.833Z,,0,,,NaN,,,,,,false,,,,507569,507569,,507569,,507600,8,400,,,
sequence,flow.Sequence,4_145,2023-05-01T22:09:00.833Z,,0,,,2452,completion,,,,,false,,,,507569,507569,505100,505084,505117,507600,8,400,,,
trial,html.Screen,4_146_0,2023-05-01T22:09:03.276Z,,0,3,,2428,response,ISIC_7915065.JPG,,ISIC_0033245.JPG,ISIC_7915065.JPG,false,1,keypress(m),500,510012,510011,507583,507570,507600,510033,8,400,47,,ISIC_0033245.JPG
break,html.Screen,4_146_1,2023-05-01T22:09:03.277Z,,0,,,NaN,,,,,,false,,,,510013.00000000006,510013.00000000006,,510012,,510033,8,400,,,
break_continue,html.Screen,4_146_2,2023-05-01T22:09:03.278Z,,0,,,NaN,,,,,,false,,,,510014,510014,,510013.00000000006,,510033,8,400,,,
sequence,flow.Sequence,4_146,2023-05-01T22:09:03.278Z,,0,,,2414,completion,,,,,false,,,,510014,510014,507583,507569,507600,510033,8,400,,,
trial,html.Screen,4_147_0,2023-05-01T22:09:05.738Z,,0,3,,2456.999999999942,response,ISIC_0068107.JPG,,ISIC_0070217.JPG,ISIC_0070217.JPG,false,0,keypress(z),500,512474.00000000006,512472.99999999994,510016,510014,510033,512499,8,400,48,,ISIC_0068107.JPG
break,html.Screen,4_147_1,2023-05-01T22:09:05.739Z,,0,,,NaN,,,,,,false,,,,512475,512475,,512474.00000000006,,512499,8,400,,,
break_continue,html.Screen,4_147_2,2023-05-01T22:09:05.740Z,,0,,,NaN,,,,,,false,,,,512476,512475,,512475,,512499,8,400,,,
sequence,flow.Sequence,4_147,2023-05-01T22:09:05.740Z,,0,,,2442,completion,,,,,false,,,,512476,512475,510016,510014,510033,512499,8,400,,,
trial,html.Screen,4_148_0,2023-05-01T22:09:08.206Z,,0,3,,2458.000000000058,response,ISIC_0025835.JPG,,ISIC_0031295.JPG,ISIC_0031295.JPG,false,0,keypress(z),500,514942,514941.00000000006,512483,512476,512499,514967,8,400,49,,ISIC_0025835.JPG
break,html.Screen,4_148_1,2023-05-01T22:09:08.207Z,,0,,,NaN,,,,,,false,,,,514943,514943,,514942,,514967,8,400,,,
break_continue,html.Screen,4_148_2,2023-05-01T22:09:08.208Z,,0,,,NaN,,,,,,false,,,,514943.99999999994,514943,,514943,,514967,8,400,,,
sequence,flow.Sequence,4_148,2023-05-01T22:09:08.208Z,,0,,,2444,completion,,,,,false,,,,514943.99999999994,514943,512483,512476,512499,514967,8,400,,,
trial,html.Screen,4_149_0,2023-05-01T22:09:10.825Z,,0,3,,2610.000000000058,response,ISIC_0010262.JPG,,ISIC_6228963.JPG,ISIC_0010262.JPG,false,1,keypress(m),500,517561.00000000006,517560.00000000006,514950,514943.99999999994,514967,517583,8,400,50,,ISIC_6228963.JPG
break,html.Screen,4_149_1,2023-05-01T22:09:15.838Z,,0,,,5000,timeout,,,,,false,,,,522567,522566,517566,517561.00000000006,517583,522583,8,400,,,
break_continue,html.Screen,4_149_2,2023-05-01T22:09:17.149Z,,0,,,1308,response,,,,,false,continue,keypress(Space),,523877.00000000006,523874,522566,522567,522583,523900,8,400,,,
sequence,flow.Sequence,4_149,2023-05-01T22:09:17.149Z,,0,,,8907,completion,,,,,false,,,,523877.00000000006,523874,514950,514943.99999999994,514967,523900,8,400,,,
trial,html.Screen,4_150_0,2023-05-01T22:09:19.740Z,,0,4,,2582,response,ISIC_7090336.JPG,,ISIC_0485881.JPG,ISIC_7090336.JPG,false,1,keypress(m),500,526466,526465,523883,523877.00000000006,523900,526500,8,400,1,,ISIC_0485881.JPG
break,html.Screen,4_150_1,2023-05-01T22:09:19.741Z,,0,,,NaN,,,,,,false,,,,526467,526467,,526466,,526500,8,400,,,
break_continue,html.Screen,4_150_2,2023-05-01T22:09:19.742Z,,0,,,NaN,,,,,,false,,,,526467,526467,,526467,,526500,8,400,,,
sequence,flow.Sequence,4_150,2023-05-01T22:09:19.742Z,,0,,,2567,completion,,,,,false,,,,526467,526467,523883,523877.00000000006,523900,526500,8,400,,,
trial,html.Screen,4_151_0,2023-05-01T22:09:22.308Z,,0,4,,2548.0000000001164,response,ISIC_0034173.JPG,,ISIC_9142919.JPG,ISIC_9142919.JPG,false,0,keypress(z),500,529031.0000000001,529031.0000000001,526483,526468,526500,529066,8,400,2,,ISIC_0034173.JPG
break,html.Screen,4_151_1,2023-05-01T22:09:22.308Z,,0,,,NaN,,,,,,false,,,,529032,529031.0000000001,,529031.0000000001,,529066,8,400,,,
break_continue,html.Screen,4_151_2,2023-05-01T22:09:22.308Z,,0,,,NaN,,,,,,false,,,,529032,529032,,529032,,529066,8,400,,,
sequence,flow.Sequence,4_151,2023-05-01T22:09:22.308Z,,0,,,2532,completion,,,,,false,,,,529032,529032,526483,526468,526500,529066,8,400,,,
trial,html.Screen,4_152_0,2023-05-01T22:09:24.865Z,,0,4,,2537,response,ISIC_0025418.JPG,,ISIC_0032847.JPG,ISIC_0025418.JPG,false,1,keypress(m),500,531587,531586,529049,529032,529066,531616,8,400,3,,ISIC_0032847.JPG
break,html.Screen,4_152_1,2023-05-01T22:09:24.867Z,,0,,,NaN,,,,,,false,,,,531588,531588,,531587,,531616,8,400,,,
break_continue,html.Screen,4_152_2,2023-05-01T22:09:24.867Z,,0,,,NaN,,,,,,false,,,,531589,531589,,531588,,531616,8,400,,,
sequence,flow.Sequence,4_152,2023-05-01T22:09:24.867Z,,0,,,2523,completion,,,,,false,,,,531589,531589,529049,529032,529066,531616,8,400,,,
trial,html.Screen,4_153_0,2023-05-01T22:09:27.319Z,,0,4,,2440,response,ISIC_0069558.JPG,,ISIC_0028082.JPG,ISIC_0028082.JPG,false,0,keypress(z),500,534039,534039,531599,531589,531616,534067,8,400,4,,ISIC_0069558.JPG
break,html.Screen,4_153_1,2023-05-01T22:09:27.320Z,,0,,,NaN,,,,,,false,,,,534041,534040,,534040,,534067,8,400,,,
break_continue,html.Screen,4_153_2,2023-05-01T22:09:27.321Z,,0,,,NaN,,,,,,false,,,,534041,534041,,534041,,534067,8,400,,,
sequence,flow.Sequence,4_153,2023-05-01T22:09:27.321Z,,0,,,2425,completion,,,,,false,,,,534041,534041,531599,531589,531616,534067,8,400,,,
trial,html.Screen,4_154_0,2023-05-01T22:09:29.723Z,,0,4,,2392,response,ISIC_5318217.JPG,,ISIC_1793821.JPG,ISIC_5318217.JPG,false,1,keypress(m),500,536442,536442,534050,534041,534067,536466,8,400,5,,ISIC_1793821.JPG
break,html.Screen,4_154_1,2023-05-01T22:09:29.725Z,,0,,,NaN,,,,,,false,,,,536444,536443,,536443,,536466,8,400,,,
break_continue,html.Screen,4_154_2,2023-05-01T22:09:29.725Z,,0,,,NaN,,,,,,false,,,,536444,536444,,536444,,536466,8,400,,,
sequence,flow.Sequence,4_154,2023-05-01T22:09:29.726Z,,0,,,2377,completion,,,,,false,,,,536444,536444,534050,534041,534067,536466,8,400,,,
trial,html.Screen,4_155_0,2023-05-01T22:09:33.054Z,,0,4,,3322,response,ISIC_0067597.JPG,,ISIC_0010306.JPG,ISIC_0010306.JPG,false,0,keypress(z),500,539772,539771,536449,536445,536466,539800,8,400,6,,ISIC_0067597.JPG
break,html.Screen,4_155_1,2023-05-01T22:09:33.055Z,,0,,,NaN,,,,,,false,,,,539773,539772,,539772,,539800,8,400,,,
break_continue,html.Screen,4_155_2,2023-05-01T22:09:33.055Z,,0,,,NaN,,,,,,false,,,,539773,539773,,539773,,539800,8,400,,,
sequence,flow.Sequence,4_155,2023-05-01T22:09:33.056Z,,0,,,3307,completion,,,,,false,,,,539773,539773,536449,536445,536466,539800,8,400,,,
trial,html.Screen,4_156_0,2023-05-01T22:09:35.668Z,,0,4,,2600,response,ISIC_9375324.JPG,,ISIC_0014308.JPG,ISIC_9375324.JPG,false,1,keypress(m),500,542384,542383,539783,539773,539800,542416,8,400,7,,ISIC_0014308.JPG
break,html.Screen,4_156_1,2023-05-01T22:09:35.669Z,,0,,,NaN,,,,,,false,,,,542385,542385,,542384,,542416,8,400,,,
break_continue,html.Screen,4_156_2,2023-05-01T22:09:35.669Z,,0,,,NaN,,,,,,false,,,,542386,542386,,542386,,542416,8,400,,,
sequence,flow.Sequence,4_156,2023-05-01T22:09:35.670Z,,0,,,2586,completion,,,,,false,,,,542386,542386,539783,539773,539800,542416,8,400,,,
trial,html.Screen,4_157_0,2023-05-01T22:09:38.384Z,,0,4,,2700,response,ISIC_4407580.JPG,,ISIC_6038355.JPG,ISIC_6038355.JPG,false,0,keypress(z),500,545100,545100,542400,542386,542416,545133,8,400,8,,ISIC_4407580.JPG
break,html.Screen,4_157_1,2023-05-01T22:09:38.386Z,,0,,,NaN,,,,,,false,,,,545101,545101,,545100,,545133,8,400,,,
break_continue,html.Screen,4_157_2,2023-05-01T22:09:38.386Z,,0,,,NaN,,,,,,false,,,,545102,545102,,545102,,545133,8,400,,,
