sender,sender_type,sender_id,timestamp,meta,,blockNo,condition,duration,ended_on,img_left,img_reveal,img_right,loser,practice,response,response_action,selection_duration,time_commit,time_end,time_render,time_run,time_show,time_switch,total_blocks,total_trials,trialNo,url,winner
informed_consent,html.Screen,0,2023-09-17T03:38:14.206Z,"{""labjs_version"":""20.2.4"",""labjs_build"":{""flavor"":""production"",""commit"":""f5b4a49f956347addd546a832a3327688c2c0fef""},""location"":""https://run.pavlovia.org/MurrayBennett/melanoma-2afc/?participant=67552&platform=sona"",""userAgent"":""Mozilla/5.0 (Windows NT 10.0; Win64; x64) AppleWebKit/537.36 (KHTML, like Gecko) Chrome/116.0.0.0 Safari/537.36"",""platform"":""Win32"",""language"":""en-US"",""locale"":""en-US"",""timeZone"":""America/Chicago"",""timezoneOffset"":300,""screen_width"":1366,""screen_height"":768,""scroll_width"":1366,""scroll_height"":595,""window_innerWidth"":1366,""window_innerHeight"":643,""devicePixelRatio"":1}",,,,2842.367000011921,response,,,,,,consent,click button,,5190.199999988079,5188.300000011921,2329.257,2322.199999988079,2345.933,5212.646,,,,"{""participant"":""67552"",""platform"":""sona""}",
Welcome,html.Screen,1,2023-09-17T03:38:15.777Z,,,,uniform,1547.2539999761584,response,,,,,,continue,click button,,6761.199999988079,6759.899999976158,5196.054,5190.300000011921,5212.646,6762.422,,,,,
trial,html.Screen,2_0_0,2023-09-17T03:38:19.929Z,,0,0,,4150.378000011921,response,ISIC_0063388.JPG,,ISIC_0025593.JPG,ISIC_0025593.JPG,true,0,keypress(z),500,10913,10912.800000011921,6745.802,6761.5,6762.422,10929.219,1,6,1,,ISIC_0063388.JPG
sequence,flow.Sequence,2_0,2023-09-17T03:38:19.929Z,,0,,,4150.378000011921,completion,,,,,true,,,,10913.199999988079,10912.800000011921,6745.802,6761.5,6762.422,10929.219,1,6,,,
trial,html.Screen,2_1_0,2023-09-17T03:38:23.807Z,,0,0,,3861.680999976159,response,ISIC_1309015.JPG,,ISIC_0028178.JPG,ISIC_0028178.JPG,true,0,keypress(z),500,14791,14790.899999976158,10912.306,10913.199999988079,10929.219,14795.559,1,6,2,,ISIC_1309015.JPG
sequence,flow.Sequence,2_1,2023-09-17T03:38:23.807Z,,0,,,3861.680999976159,completion,,,,,true,,,,14791.100000023842,14790.899999976158,10912.306,10913.199999988079,10929.219,14795.559,1,6,,,
trial,html.Screen,2_2_0,2023-09-17T03:38:33.767Z,,0,0,,9955.041000023843,response,ISIC_0031128.JPG,,ISIC_3314853.JPG,ISIC_0031128.JPG,true,1,keypress(m),500,24750.899999976158,24750.600000023842,14780.98,14791.199999988079,14795.559,24761.743,1,6,3,,ISIC_3314853.JPG
sequence,flow.Sequence,2_2,2023-09-17T03:38:33.767Z,,0,,,9955.041000023843,completion,,,,,true,,,,24751.100000023842,24750.600000023842,14780.98,14791.199999988079,14795.559,24761.743,1,6,,,
trial,html.Screen,2_3_0,2023-09-17T03:38:38.441Z,,0,0,,4663.857000023843,response,ISIC_8980141.JPG,,ISIC_0031612.JPG,ISIC_8980141.JPG,true,1,keypress(m),500,29425.69999998808,29425.600000023842,24745.834,24751.399999976158,24761.743,29428.214,1,6,4,,ISIC_0031612.JPG
sequence,flow.Sequence,2_3,2023-09-17T03:38:38.442Z,,0,,,4663.857000023843,completion,,,,,true,,,,29425.899999976158,29425.600000023842,24745.834,24751.30000001192,24761.743,29428.214,1,6,,,
trial,html.Screen,2_4_0,2023-09-17T03:38:41.502Z,,0,0,,3057.786,response,ISIC_9721604.JPG,,ISIC_1197737.JPG,ISIC_1197737.JPG,true,0,keypress(z),500,32486.19999998808,32486,29411.305,29426,29428.214,32494.764,1,6,5,,ISIC_9721604.JPG
sequence,flow.Sequence,2_4,2023-09-17T03:38:41.502Z,,0,,,3057.786,completion,,,,,true,,,,32486.399999976158,32486,29411.305,29426,29428.214,32494.764,1,6,,,
trial,html.Screen,2_5_0,2023-09-17T03:38:44.559Z,,0,0,,3048.635999976159,response,ISIC_0010681.JPG,,ISIC_0025346.JPG,ISIC_0025346.JPG,true,0,keypress(z),500,35543.5,35543.39999997616,32478.031,32486.5,32494.764,35562.455,1,6,6,,ISIC_0010681.JPG
sequence,flow.Sequence,2_5,2023-09-17T03:38:44.559Z,,0,,,3048.635999976159,completion,,,,,true,,,,35543.69999998808,35543.39999997616,32478.031,32486.5,32494.764,35562.455,1,6,,,
loop,flow.Loop,2,2023-09-17T03:38:44.560Z,,,,,28780.97799997616,completion,,,,,true,,,,35543.80000001192,35543.39999997616,6745.802,6761.399999976158,6762.422,35562.455,1,6,,,
exp_instructions,html.Screen,3,2023-09-17T03:38:55.282Z,,,,,10703.34500001192,response,,,,,,continue,keypress(Space),,46266.60000002384,46265.80000001192,35527.798,35543.89999997616,35562.455,46277.644,,,,,
trial,html.Screen,4_0_0,2023-09-17T03:38:58.951Z,,0,1,,3656.755999976158,response,ISIC_7685920.JPG,5,ISIC_0293086.JPG,ISIC_0293086.JPG,false,0,keypress(z),500,49934.5,49934.39999997616,46261.494,46266.89999997616,46277.644,49944.141,8,400,1,,ISIC_7685920.JPG
break,html.Screen,4_0_1,2023-09-17T03:38:58.952Z,,0,,,NaN,,,,,,false,,,,49935.80000001192,49935.5,,49934.69999998808,,49944.141,8,400,,,
break_continue,html.Screen,4_0_2,2023-09-17T03:38:58.953Z,,0,,,NaN,,,,,,false,,,,49936.19999998808,49936.10000002384,,49935.89999997616,,49944.141,8,400,,,
sequence,flow.Sequence,4_0,2023-09-17T03:38:58.953Z,,0,,,3658.4560000238416,completion,,,,,false,,,,49936.30000001192,49936.10000002384,46261.494,46266.80000001192,46277.644,49944.141,8,400,,,
trial,html.Screen,4_1_0,2023-09-17T03:39:01.947Z,,0,1,,2985.9590000238386,response,ISIC_0060154.JPG,5,ISIC_0982855.JPG,ISIC_0060154.JPG,false,1,keypress(m),500,52930.30000001192,52930.10000002384,49927.334,49936.39999997616,49944.141,52943.998,8,400,2,,ISIC_0982855.JPG
break,html.Screen,4_1_1,2023-09-17T03:39:01.947Z,,0,,,NaN,,,,,,false,,,,52930.89999997616,52930.69999998808,,52930.39999997616,,52943.998,8,400,,,
break_continue,html.Screen,4_1_2,2023-09-17T03:39:01.947Z,,0,,,NaN,,,,,,false,,,,52931.10000002384,52931,,52931,,52943.998,8,400,,,
sequence,flow.Sequence,4_1,2023-09-17T03:39:01.948Z,,0,,,2986.8589999999967,completion,,,,,false,,,,52931.19999998808,52931,49927.334,49936.30000001192,49944.141,52943.998,8,400,,,
trial,html.Screen,4_2_0,2023-09-17T03:39:05.106Z,,0,1,,3145.7019999880795,response,ISIC_6326803.JPG,5,ISIC_7161651.JPG,ISIC_6326803.JPG,false,1,keypress(m),500,56090,56089.69999998808,52927.089,52931.30000001192,52943.998,56093.822,8,400,3,,ISIC_7161651.JPG
break,html.Screen,4_2_1,2023-09-17T03:39:05.107Z,,0,,,NaN,,,,,,false,,,,56090.89999997616,56090.69999998808,,56090.10000002384,,56093.822,8,400,,,
break_continue,html.Screen,4_2_2,2023-09-17T03:39:05.107Z,,0,,,NaN,,,,,,false,,,,56091.19999998808,56091.10000002384,,56090.89999997616,,56093.822,8,400,,,
sequence,flow.Sequence,4_2,2023-09-17T03:39:05.108Z,,0,,,3147.1020000238423,completion,,,,,false,,,,56091.30000001192,56091.10000002384,52927.089,52931.30000001192,52943.998,56093.822,8,400,,,
trial,html.Screen,4_3_0,2023-09-17T03:39:07.990Z,,0,1,,2879.678,response,ISIC_0029550.JPG,6,ISIC_2206284.JPG,ISIC_0029550.JPG,false,1,keypress(m),500,58973.69999998808,58973.5,56077.169,56091.30000001192,56093.822,58977.056,8,400,4,,ISIC_2206284.JPG
break,html.Screen,4_3_1,2023-09-17T03:39:07.991Z,,0,,,NaN,,,,,,false,,,,58974.5,58974.30000001192,,58973.80000001192,,58977.056,8,400,,,
break_continue,html.Screen,4_3_2,2023-09-17T03:39:07.991Z,,0,,,NaN,,,,,,false,,,,58974.89999997616,58974.80000001192,,58974.60000002384,,58977.056,8,400,,,
sequence,flow.Sequence,4_3,2023-09-17T03:39:07.991Z,,0,,,2880.978000011921,completion,,,,,false,,,,58974.89999997616,58974.80000001192,56077.169,56091.30000001192,56093.822,58977.056,8,400,,,
trial,html.Screen,4_4_0,2023-09-17T03:39:10.969Z,,0,1,,2975.143999988082,response,ISIC_0069264.JPG,5,ISIC_8812621.JPG,ISIC_0069264.JPG,false,1,keypress(m),500,61952.39999997616,61952.19999998808,58960.45,58975,58977.056,61960.274,8,400,5,,ISIC_8812621.JPG
break,html.Screen,4_4_1,2023-09-17T03:39:10.970Z,,0,,,NaN,,,,,,false,,,,61953.19999998808,61953,,61952.5,,61960.274,8,400,,,
break_continue,html.Screen,4_4_2,2023-09-17T03:39:10.970Z,,0,,,NaN,,,,,,false,,,,61953.39999997616,61953.30000001192,,61953.19999998808,,61960.274,8,400,,,
sequence,flow.Sequence,4_4,2023-09-17T03:39:10.970Z,,0,,,2976.244000011924,completion,,,,,false,,,,61953.5,61953.30000001192,58960.45,58975,58977.056,61960.274,8,400,,,
trial,html.Screen,4_5_0,2023-09-17T03:39:15.537Z,,0,1,,4559.826000023844,response,ISIC_0000467.JPG,5,ISIC_0054523.JPG,ISIC_0054523.JPG,false,0,keypress(z),500,66520.19999998808,66520.10000002384,61943.522,61953.5,61960.274,66526.779,8,400,6,,ISIC_0000467.JPG
break,html.Screen,4_5_1,2023-09-17T03:39:15.538Z,,0,,,NaN,,,,,,false,,,,66521.19999998808,66520.69999998808,,66520.39999997616,,66526.779,8,400,,,
break_continue,html.Screen,4_5_2,2023-09-17T03:39:15.538Z,,0,,,NaN,,,,,,false,,,,66521.60000002384,66521.5,,66521.39999997616,,66526.779,8,400,,,
sequence,flow.Sequence,4_5,2023-09-17T03:39:15.538Z,,0,,,4561.226000000002,completion,,,,,false,,,,66521.69999998808,66521.5,61943.522,61953.5,61960.274,66526.779,8,400,,,
trial,html.Screen,4_6_0,2023-09-17T03:39:18.758Z,,0,1,,3214.321000023847,response,ISIC_2975167.JPG,5,ISIC_3902917.JPG,ISIC_3902917.JPG,false,0,keypress(z),500,69741.39999997616,69741.10000002384,66510.182,66521.69999998808,66526.779,69743.295,8,400,7,,ISIC_2975167.JPG
break,html.Screen,4_6_1,2023-09-17T03:39:18.759Z,,0,,,NaN,,,,,,false,,,,69742.60000002384,69742.39999997616,,69741.60000002384,,69743.295,8,400,,,
break_continue,html.Screen,4_6_2,2023-09-17T03:39:18.759Z,,0,,,NaN,,,,,,false,,,,69743,69742.89999997616,,69742.69999998808,,69743.295,8,400,,,
sequence,flow.Sequence,4_6,2023-09-17T03:39:18.759Z,,0,,,3216.120999976163,completion,,,,,false,,,,69743.10000002384,69742.89999997616,66510.182,66521.69999998808,66526.779,69743.295,8,400,,,
trial,html.Screen,4_7_0,2023-09-17T03:39:22.091Z,,0,1,,3330.8050000238436,response,ISIC_8901784.JPG,5,ISIC_1210011.JPG,ISIC_8901784.JPG,false,1,keypress(m),500,73074.30000001192,73074.10000002384,69726.581,69743.19999998808,69743.295,73076.5,8,400,8,,ISIC_1210011.JPG
break,html.Screen,4_7_1,2023-09-17T03:39:22.092Z,,0,,,NaN,,,,,,false,,,,73075.60000002384,73075.39999997616,,73074.5,,73076.5,8,400,,,
break_continue,html.Screen,4_7_2,2023-09-17T03:39:22.092Z,,0,,,NaN,,,,,,false,,,,73075.89999997616,73075.89999997616,,73075.69999998808,,73076.5,8,400,,,
sequence,flow.Sequence,4_7,2023-09-17T03:39:22.092Z,,0,,,3332.60499997616,completion,,,,,false,,,,73076.10000002384,73075.89999997616,69726.581,69743.19999998808,69743.295,73076.5,8,400,,,
trial,html.Screen,4_8_0,2023-09-17T03:39:25.791Z,,0,1,,3697.5,response,ISIC_0028326.JPG,5,ISIC_0805941.JPG,ISIC_0028326.JPG,false,1,keypress(m),500,76774.19999998808,76774,73059.885,73076.19999998808,73076.5,76776.362,8,400,9,,ISIC_0805941.JPG
break,html.Screen,4_8_1,2023-09-17T03:39:25.792Z,,0,,,NaN,,,,,,false,,,,76775.5,76775.19999998808,,76774.5,,76776.362,8,400,,,
break_continue,html.Screen,4_8_2,2023-09-17T03:39:25.792Z,,0,,,NaN,,,,,,false,,,,76776,76775.89999997616,,76775.69999998808,,76776.362,8,400,,,
sequence,flow.Sequence,4_8,2023-09-17T03:39:25.793Z,,0,,,3699.399999976158,completion,,,,,false,,,,76776.19999998808,76775.89999997616,73059.885,73076.10000002384,73076.5,76776.362,8,400,,,
trial,html.Screen,4_9_0,2023-09-17T03:39:28.616Z,,0,1,,2823.238000023848,response,ISIC_0027280.JPG,4,ISIC_1569775.JPG,ISIC_0027280.JPG,false,1,keypress(m),500,79599.89999997616,79599.60000002384,76759.904,76776.39999997616,76776.362,79626.306,8,400,10,,ISIC_1569775.JPG
break,html.Screen,4_9_1,2023-09-17T03:39:28.617Z,,0,,,NaN,,,,,,false,,,,79600.60000002384,79600.5,,79600,,79626.306,8,400,,,
break_continue,html.Screen,4_9_2,2023-09-17T03:39:28.617Z,,0,,,NaN,,,,,,false,,,,79601.10000002384,79601,,79600.80000001192,,79626.306,8,400,,,
sequence,flow.Sequence,4_9,2023-09-17T03:39:28.618Z,,0,,,2824.6380000000063,completion,,,,,false,,,,79601.19999998808,79601,76759.904,76776.19999998808,76776.362,79626.306,8,400,,,
trial,html.Screen,4_10_0,2023-09-17T03:39:32.203Z,,0,1,,3560.5939999761613,response,ISIC_3329255.JPG,5,ISIC_0033950.JPG,ISIC_3329255.JPG,false,1,keypress(m),500,83187.10000002384,83186.89999997616,79609.607,79601.30000001192,79626.306,83192.793,8,400,11,,ISIC_0033950.JPG
break,html.Screen,4_10_1,2023-09-17T03:39:32.204Z,,0,,,NaN,,,,,,false,,,,83187.80000001192,83187.60000002384,,83187.10000002384,,83192.793,8,400,,,
break_continue,html.Screen,4_10_2,2023-09-17T03:39:32.204Z,,0,,,NaN,,,,,,false,,,,83188,83187.89999997616,,83187.80000001192,,83192.793,8,400,,,
sequence,flow.Sequence,4_10,2023-09-17T03:39:32.204Z,,0,,,3561.5939999761613,completion,,,,,false,,,,83188.10000002384,83187.89999997616,79609.607,79601.30000001192,79626.306,83192.793,8,400,,,
trial,html.Screen,4_11_0,2023-09-17T03:39:34.863Z,,0,1,,2653.606999976153,response,ISIC_0029470.JPG,5,ISIC_1996356.JPG,ISIC_0029470.JPG,false,1,keypress(m),500,85846.60000002384,85846.39999997616,83176.961,83188.10000002384,83192.793,85859.334,8,400,12,,ISIC_1996356.JPG
break,html.Screen,4_11_1,2023-09-17T03:39:34.864Z,,0,,,NaN,,,,,,false,,,,85847.60000002384,85847.5,,85846.89999997616,,85859.334,8,400,,,
break_continue,html.Screen,4_11_2,2023-09-17T03:39:34.864Z,,0,,,NaN,,,,,,false,,,,85848,85847.89999997616,,85847.69999998808,,85859.334,8,400,,,
sequence,flow.Sequence,4_11,2023-09-17T03:39:34.864Z,,0,,,2655.106999976153,completion,,,,,false,,,,85848.10000002384,85847.89999997616,83176.961,83188.10000002384,83192.793,85859.334,8,400,,,
trial,html.Screen,4_12_0,2023-09-17T03:39:37.700Z,,0,1,,2823.5659999761556,response,ISIC_2741583.JPG,5,ISIC_0033374.JPG,ISIC_0033374.JPG,false,0,keypress(z),500,88683.19999998808,88682.89999997616,85842.636,85848.19999998808,85859.334,88692.804,8,400,13,,ISIC_2741583.JPG
break,html.Screen,4_12_1,2023-09-17T03:39:37.700Z,,0,,,NaN,,,,,,false,,,,88684.10000002384,88683.89999997616,,88683.39999997616,,88692.804,8,400,,,
break_continue,html.Screen,4_12_2,2023-09-17T03:39:37.701Z,,0,,,NaN,,,,,,false,,,,88684.30000001192,88684.19999998808,,88684.10000002384,,88692.804,8,400,,,
sequence,flow.Sequence,4_12,2023-09-17T03:39:37.701Z,,0,,,2824.8659999880765,completion,,,,,false,,,,88684.39999997616,88684.19999998808,85842.636,85848.10000002384,85859.334,88692.804,8,400,,,
trial,html.Screen,4_13_0,2023-09-17T03:39:40.462Z,,0,1,,2752.8959999880753,response,ISIC_0030006.JPG,4,ISIC_0030974.JPG,ISIC_0030006.JPG,false,1,keypress(m),500,91445.80000001192,91445.69999998808,88675.866,88684.80000001192,88692.804,91459.187,8,400,14,,ISIC_0030974.JPG
break,html.Screen,4_13_1,2023-09-17T03:39:40.463Z,,0,,,NaN,,,,,,false,,,,91446.30000001192,91446.10000002384,,91445.89999997616,,91459.187,8,400,,,
break_continue,html.Screen,4_13_2,2023-09-17T03:39:40.463Z,,0,,,NaN,,,,,,false,,,,91446.5,91446.5,,91446.39999997616,,91459.187,8,400,,,
sequence,flow.Sequence,4_13,2023-09-17T03:39:40.463Z,,0,,,2753.6959999999963,completion,,,,,false,,,,91446.60000002384,91446.5,88675.866,88684.69999998808,88692.804,91459.187,8,400,,,
trial,html.Screen,4_14_0,2023-09-17T03:39:43.960Z,,0,1,,3484.5129999880737,response,ISIC_9453737.JPG,6,ISIC_0030002.JPG,ISIC_0030002.JPG,false,0,keypress(z),500,94944,94943.69999998808,91442.51,91446.60000002384,91459.187,94959.315,8,400,15,,ISIC_9453737.JPG
break,html.Screen,4_14_1,2023-09-17T03:39:43.961Z,,0,,,NaN,,,,,,false,,,,94945.19999998808,94944.89999997616,,94944.19999998808,,94959.315,8,400,,,
break_continue,html.Screen,4_14_2,2023-09-17T03:39:43.962Z,,0,,,NaN,,,,,,false,,,,94945.5,94945.5,,94945.30000001192,,94959.315,8,400,,,
sequence,flow.Sequence,4_14,2023-09-17T03:39:43.962Z,,0,,,3486.3129999999946,completion,,,,,false,,,,94945.69999998808,94945.5,91442.51,91446.60000002384,91459.187,94959.315,8,400,,,
trial,html.Screen,4_15_0,2023-09-17T03:39:46.771Z,,0,1,,2795.2850000238395,response,ISIC_2136533.JPG,5,ISIC_4887874.JPG,ISIC_4887874.JPG,false,0,keypress(z),500,97754.80000001192,97754.60000002384,94942.521,94945.80000001192,94959.315,97758.897,8,400,16,,ISIC_2136533.JPG
break,html.Screen,4_15_1,2023-09-17T03:39:46.772Z,,0,,,NaN,,,,,,false,,,,97755.89999997616,97755.69999998808,,97755,,97758.897,8,400,,,
break_continue,html.Screen,4_15_2,2023-09-17T03:39:46.773Z,,0,,,NaN,,,,,,false,,,,97756.30000001192,97756.19999998808,,97756.10000002384,,97758.897,8,400,,,
sequence,flow.Sequence,4_15,2023-09-17T03:39:46.773Z,,0,,,2796.8849999880767,completion,,,,,false,,,,97756.39999997616,97756.19999998808,94942.521,94945.80000001192,94959.315,97758.897,8,400,,,
trial,html.Screen,4_16_0,2023-09-17T03:39:49.478Z,,0,1,,2703.002999976161,response,ISIC_0069210.JPG,6,ISIC_0027721.JPG,ISIC_0069210.JPG,false,1,keypress(m),500,100462.10000002384,100461.89999997616,97742.377,97756.60000002384,97758.897,100475.6,8,400,17,,ISIC_0027721.JPG
break,html.Screen,4_16_1,2023-09-17T03:39:49.479Z,,0,,,NaN,,,,,,false,,,,100462.89999997616,100462.60000002384,,100462.30000001192,,100475.6,8,400,,,
break_continue,html.Screen,4_16_2,2023-09-17T03:39:49.480Z,,0,,,NaN,,,,,,false,,,,100463.5,100463.5,,100463.19999998808,,100475.6,8,400,,,
sequence,flow.Sequence,4_16,2023-09-17T03:39:49.480Z,,0,,,2704.603000000003,completion,,,,,false,,,,100463.69999998808,100463.5,97742.377,97756.5,97758.897,100475.6,8,400,,,
trial,html.Screen,4_17_0,2023-09-17T03:39:52.286Z,,0,1,,2794.200000011915,response,ISIC_0059948.JPG,4,ISIC_0010094.JPG,ISIC_0010094.JPG,false,0,keypress(z),500,103270,103269.80000001192,100458.934,100463.89999997616,100475.6,103275.622,8,400,18,,ISIC_0059948.JPG
break,html.Screen,4_17_1,2023-09-17T03:39:52.288Z,,0,,,NaN,,,,,,false,,,,103271.19999998808,103270.89999997616,,103270.19999998808,,103275.622,8,400,,,
break_continue,html.Screen,4_17_2,2023-09-17T03:39:52.288Z,,0,,,NaN,,,,,,false,,,,103271.60000002384,103271.5,,103271.30000001192,,103275.622,8,400,,,
sequence,flow.Sequence,4_17,2023-09-17T03:39:52.288Z,,0,,,2795.899999999994,completion,,,,,false,,,,103271.80000001192,103271.5,100458.934,100463.89999997616,100475.6,103275.622,8,400,,,
trial,html.Screen,4_18_0,2023-09-17T03:39:54.770Z,,0,1,,2477.777999976155,response,ISIC_0000168.JPG,5,ISIC_6532137.JPG,ISIC_0000168.JPG,false,1,keypress(m),500,105753.69999998808,105753.39999997616,103258.813,103271.89999997616,103275.622,105758.567,8,400,19,,ISIC_6532137.JPG
break,html.Screen,4_18_1,2023-09-17T03:39:54.771Z,,0,,,NaN,,,,,,false,,,,105754.89999997616,105754.69999998808,,105753.80000001192,,105758.567,8,400,,,
break_continue,html.Screen,4_18_2,2023-09-17T03:39:54.772Z,,0,,,NaN,,,,,,false,,,,105755.30000001192,105755.19999998808,,105755,,105758.567,8,400,,,
sequence,flow.Sequence,4_18,2023-09-17T03:39:54.772Z,,0,,,2479.577999988076,completion,,,,,false,,,,105755.5,105755.19999998808,103258.813,103271.89999997616,103275.622,105758.567,8,400,,,
trial,html.Screen,4_19_0,2023-09-17T03:39:57.271Z,,0,1,,2495.6329999880836,response,ISIC_0029933.JPG,5,ISIC_7051167.JPG,ISIC_0029933.JPG,false,1,keypress(m),500,108254.39999997616,108254.19999998808,105742.163,105755.69999998808,105758.567,108258.463,8,400,20,,ISIC_7051167.JPG
break,html.Screen,4_19_1,2023-09-17T03:39:57.272Z,,0,,,NaN,,,,,,false,,,,108255.5,108255.30000001192,,108254.60000002384,,108258.463,8,400,,,
break_continue,html.Screen,4_19_2,2023-09-17T03:39:57.272Z,,0,,,NaN,,,,,,false,,,,108255.89999997616,108255.69999998808,,108255.60000002384,,108258.463,8,400,,,
sequence,flow.Sequence,4_19,2023-09-17T03:39:57.272Z,,0,,,2497.1329999880836,completion,,,,,false,,,,108256,108255.69999998808,105742.163,105755.60000002384,105758.567,108258.463,8,400,,,
trial,html.Screen,4_20_0,2023-09-17T03:39:59.937Z,,0,1,,2662.0369999999966,response,ISIC_0026832.JPG,5,ISIC_0064247.JPG,ISIC_0064247.JPG,false,0,keypress(z),500,110920.60000002384,110920.5,108241.918,108256.10000002384,108258.463,110925.077,8,400,21,,ISIC_0026832.JPG
break,html.Screen,4_20_1,2023-09-17T03:39:59.938Z,,0,,,NaN,,,,,,false,,,,110921.60000002384,110921.39999997616,,110920.80000001192,,110925.077,8,400,,,
break_continue,html.Screen,4_20_2,2023-09-17T03:39:59.938Z,,0,,,NaN,,,,,,false,,,,110922,110921.89999997616,,110921.80000001192,,110925.077,8,400,,,
sequence,flow.Sequence,4_20,2023-09-17T03:39:59.938Z,,0,,,2663.4369999761548,completion,,,,,false,,,,110922.10000002384,110921.89999997616,108241.918,108256.10000002384,108258.463,110925.077,8,400,,,
trial,html.Screen,4_21_0,2023-09-17T03:40:02.484Z,,0,1,,2542.422999999995,response,ISIC_7951202.JPG,4,ISIC_9596721.JPG,ISIC_7951202.JPG,false,1,keypress(m),500,113467.69999998808,113467.5,110908.4,110922.10000002384,110925.077,113475.186,8,400,22,,ISIC_9596721.JPG
break,html.Screen,4_21_1,2023-09-17T03:40:02.485Z,,0,,,NaN,,,,,,false,,,,113468.89999997616,113468.69999998808,,113467.89999997616,,113475.186,8,400,,,
break_continue,html.Screen,4_21_2,2023-09-17T03:40:02.486Z,,0,,,NaN,,,,,,false,,,,113469.5,113469.39999997616,,113469.10000002384,,113475.186,8,400,,,
sequence,flow.Sequence,4_21,2023-09-17T03:40:02.486Z,,0,,,2544.3229999761534,completion,,,,,false,,,,113469.80000001192,113469.39999997616,110908.4,110922.10000002384,110925.077,113475.186,8,400,,,
trial,html.Screen,4_22_0,2023-09-17T03:40:05.000Z,,0,1,,2508.6140000119194,response,ISIC_0010658.JPG,6,ISIC_0065469.JPG,ISIC_0065469.JPG,false,0,keypress(z),500,115984,115983.80000001192,113458.283,113470,113475.186,115991.485,8,400,23,,ISIC_0010658.JPG
break,html.Screen,4_22_1,2023-09-17T03:40:05.001Z,,0,,,NaN,,,,,,false,,,,115984.89999997616,115984.60000002384,,115984.10000002384,,115991.485,8,400,,,
break_continue,html.Screen,4_22_2,2023-09-17T03:40:05.002Z,,0,,,NaN,,,,,,false,,,,115985.30000001192,115985.19999998808,,115985,,115991.485,8,400,,,
sequence,flow.Sequence,4_22,2023-09-17T03:40:05.002Z,,0,,,2510.0139999880776,completion,,,,,false,,,,115985.5,115985.19999998808,113458.283,113469.89999997616,113475.186,115991.485,8,400,,,
trial,html.Screen,4_23_0,2023-09-17T03:40:07.452Z,,0,1,,2443.7149999880785,response,ISIC_0011498.JPG,5,ISIC_0009713.JPG,ISIC_0009713.JPG,false,0,keypress(z),500,118435.30000001192,118435.19999998808,115974.986,115985.60000002384,115991.485,118441.502,8,400,24,,ISIC_0011498.JPG
break,html.Screen,4_23_1,2023-09-17T03:40:07.452Z,,0,,,NaN,,,,,,false,,,,118436,118435.89999997616,,118435.5,,118441.502,8,400,,,
break_continue,html.Screen,4_23_2,2023-09-17T03:40:07.453Z,,0,,,NaN,,,,,,false,,,,118436.19999998808,118436.10000002384,,118436.10000002384,,118441.502,8,400,,,
sequence,flow.Sequence,4_23,2023-09-17T03:40:07.453Z,,0,,,2444.6150000238413,completion,,,,,false,,,,118436.30000001192,118436.10000002384,115974.986,115985.5,115991.485,118441.502,8,400,,,
trial,html.Screen,4_24_0,2023-09-17T03:40:10.143Z,,0,1,,2684.5980000238487,response,ISIC_0000552.JPG,5,ISIC_0003703.JPG,ISIC_0000552.JPG,false,1,keypress(m),500,121126.30000001192,121126.10000002384,118428.776,118436.39999997616,118441.502,121141.304,8,400,25,,ISIC_0003703.JPG
break,html.Screen,4_24_1,2023-09-17T03:40:10.143Z,,0,,,NaN,,,,,,false,,,,121127.10000002384,121126.80000001192,,121126.30000001192,,121141.304,8,400,,,
break_continue,html.Screen,4_24_2,2023-09-17T03:40:10.144Z,,0,,,NaN,,,,,,false,,,,121127.39999997616,121127.30000001192,,121127.19999998808,,121141.304,8,400,,,
sequence,flow.Sequence,4_24,2023-09-17T03:40:10.144Z,,0,,,2685.798000011928,completion,,,,,false,,,,121127.5,121127.30000001192,118428.776,118436.39999997616,118441.502,121141.304,8,400,,,
trial,html.Screen,4_25_0,2023-09-17T03:40:12.706Z,,0,1,,2548.5959999761544,response,ISIC_7376906.JPG,5,ISIC_7746479.JPG,ISIC_7376906.JPG,false,1,keypress(m),500,123690.10000002384,123689.89999997616,121124.624,121127.60000002384,121141.304,123708.759,8,400,26,,ISIC_7746479.JPG
break,html.Screen,4_25_1,2023-09-17T03:40:12.708Z,,0,,,NaN,,,,,,false,,,,123691.30000001192,123691,,123690.19999998808,,123708.759,8,400,,,
break_continue,html.Screen,4_25_2,2023-09-17T03:40:12.708Z,,0,,,NaN,,,,,,false,,,,123691.69999998808,123691.60000002384,,123691.39999997616,,123708.759,8,400,,,
sequence,flow.Sequence,4_25,2023-09-17T03:40:12.708Z,,0,,,2550.296000023838,completion,,,,,false,,,,123691.89999997616,123691.60000002384,121124.624,121127.60000002384,121141.304,123708.759,8,400,,,
trial,html.Screen,4_26_0,2023-09-17T03:40:15.741Z,,0,1,,3015.5410000119155,response,ISIC_4850678.JPG,5,ISIC_0056860.JPG,ISIC_0056860.JPG,false,0,keypress(z),500,126724.39999997616,126724.30000001192,123674.877,123692,123708.759,126741.397,8,400,27,,ISIC_4850678.JPG
break,html.Screen,4_26_1,2023-09-17T03:40:15.741Z,,0,,,NaN,,,,,,false,,,,126725.10000002384,126725,,126724.60000002384,,126741.397,8,400,,,
break_continue,html.Screen,4_26_2,2023-09-17T03:40:15.742Z,,0,,,NaN,,,,,,false,,,,126725.30000001192,126725.30000001192,,126725.19999998808,,126741.397,8,400,,,
sequence,flow.Sequence,4_26,2023-09-17T03:40:15.742Z,,0,,,3016.5410000119155,completion,,,,,false,,,,126725.39999997616,126725.30000001192,123674.877,123692,123708.759,126741.397,8,400,,,
trial,html.Screen,4_27_0,2023-09-17T03:40:18.323Z,,0,1,,2564.7030000238447,response,ISIC_5671175.JPG,5,ISIC_5934239.JPG,ISIC_5671175.JPG,false,1,keypress(m),500,129306.30000001192,129306.10000002384,126724.461,126725.5,126741.397,129325.567,8,400,28,,ISIC_5934239.JPG
break,html.Screen,4_27_1,2023-09-17T03:40:18.323Z,,0,,,NaN,,,,,,false,,,,129307.10000002384,129306.80000001192,,129306.39999997616,,129325.567,8,400,,,
break_continue,html.Screen,4_27_2,2023-09-17T03:40:18.324Z,,0,,,NaN,,,,,,false,,,,129307.5,129307.39999997616,,129307.19999998808,,129325.567,8,400,,,
sequence,flow.Sequence,4_27,2023-09-17T03:40:18.324Z,,0,,,2566.002999976161,completion,,,,,false,,,,129307.60000002384,129307.39999997616,126724.461,126725.5,126741.397,129325.567,8,400,,,
trial,html.Screen,4_28_0,2023-09-17T03:40:21.062Z,,0,1,,2719.7330000119255,response,ISIC_0032098.JPG,5,ISIC_0033950.JPG,ISIC_0033950.JPG,false,0,keypress(z),500,132045.5,132045.30000001192,129291.441,129307.69999998808,129325.567,132057.664,8,400,29,,ISIC_0032098.JPG
break,html.Screen,4_28_1,2023-09-17T03:40:21.063Z,,0,,,NaN,,,,,,false,,,,132046.30000001192,132046,,132045.69999998808,,132057.664,8,400,,,
break_continue,html.Screen,4_28_2,2023-09-17T03:40:21.063Z,,0,,,NaN,,,,,,false,,,,132046.69999998808,132046.60000002384,,132046.39999997616,,132057.664,8,400,,,
sequence,flow.Sequence,4_28,2023-09-17T03:40:21.063Z,,0,,,2721.0330000238464,completion,,,,,false,,,,132046.80000001192,132046.60000002384,129291.441,129307.60000002384,129325.567,132057.664,8,400,,,
trial,html.Screen,4_29_0,2023-09-17T03:40:24.973Z,,0,1,,3898.936000023852,response,ISIC_0067417.JPG,4,ISIC_1927858.JPG,ISIC_0067417.JPG,false,1,keypress(m),500,135956.80000001192,135956.60000002384,132041.539,132046.89999997616,132057.664,135974.263,8,400,30,,ISIC_1927858.JPG
break,html.Screen,4_29_1,2023-09-17T03:40:24.974Z,,0,,,NaN,,,,,,false,,,,135958.10000002384,135958,,135957.10000002384,,135974.263,8,400,,,
break_continue,html.Screen,4_29_2,2023-09-17T03:40:24.975Z,,0,,,NaN,,,,,,false,,,,135958.69999998808,135958.60000002384,,135958.30000001192,,135974.263,8,400,,,
sequence,flow.Sequence,4_29,2023-09-17T03:40:24.975Z,,0,,,3900.936000023852,completion,,,,,false,,,,135958.89999997616,135958.60000002384,132041.539,132046.80000001192,132057.664,135974.263,8,400,,,
trial,html.Screen,4_30_0,2023-09-17T03:40:27.777Z,,0,1,,2786.5370000119146,response,ISIC_0066854.JPG,5,ISIC_9304022.JPG,ISIC_0066854.JPG,false,1,keypress(m),500,138761,138760.80000001192,135957.288,135959,135974.263,138774.041,8,400,31,,ISIC_9304022.JPG
break,html.Screen,4_30_1,2023-09-17T03:40:27.778Z,,0,,,NaN,,,,,,false,,,,138762.10000002384,138761.89999997616,,138761.30000001192,,138774.041,8,400,,,
break_continue,html.Screen,4_30_2,2023-09-17T03:40:27.779Z,,0,,,NaN,,,,,,false,,,,138762.5,138762.39999997616,,138762.30000001192,,138774.041,8,400,,,
sequence,flow.Sequence,4_30,2023-09-17T03:40:27.779Z,,0,,,2788.136999976152,completion,,,,,false,,,,138762.69999998808,138762.39999997616,135957.288,135958.89999997616,135974.263,138774.041,8,400,,,
trial,html.Screen,4_31_0,2023-09-17T03:40:30.488Z,,0,1,,2697.4590000000026,response,ISIC_0064982.JPG,6,ISIC_0062546.JPG,ISIC_0064982.JPG,false,1,keypress(m),500,141471.80000001192,141471.5,138757.366,138762.89999997616,138774.041,141473.834,8,400,32,,ISIC_0062546.JPG
break,html.Screen,4_31_1,2023-09-17T03:40:30.489Z,,0,,,NaN,,,,,,false,,,,141473,141472.69999998808,,141472,,141473.834,8,400,,,
break_continue,html.Screen,4_31_2,2023-09-17T03:40:30.490Z,,0,,,NaN,,,,,,false,,,,141473.5,141473.30000001192,,141473.10000002384,,141473.834,8,400,,,
sequence,flow.Sequence,4_31,2023-09-17T03:40:30.492Z,,0,,,2699.2590000119235,completion,,,,,false,,,,141475.19999998808,141473.30000001192,138757.366,138762.80000001192,138774.041,141473.834,8,400,,,
trial,html.Screen,4_32_0,2023-09-17T03:40:33.198Z,,0,1,,2707.4660000119184,response,ISIC_7498132.JPG,5,ISIC_0011498.JPG,ISIC_0011498.JPG,false,0,keypress(z),500,144181.69999998808,144181.30000001192,141457.238,141475.39999997616,141473.834,144190.398,8,400,33,,ISIC_7498132.JPG
break,html.Screen,4_32_1,2023-09-17T03:40:33.199Z,,0,,,NaN,,,,,,false,,,,144182.80000001192,144182.5,,144181.80000001192,,144190.398,8,400,,,
break_continue,html.Screen,4_32_2,2023-09-17T03:40:33.200Z,,0,,,NaN,,,,,,false,,,,144183.30000001192,144183.10000002384,,144182.89999997616,,144190.398,8,400,,,
sequence,flow.Sequence,4_32,2023-09-17T03:40:33.200Z,,0,,,2709.2660000238393,completion,,,,,false,,,,144183.30000001192,144183.10000002384,141457.238,141475.39999997616,141473.834,144190.398,8,400,,,
trial,html.Screen,4_33_0,2023-09-17T03:40:35.686Z,,0,1,,2478.8019999880926,response,ISIC_0061531.JPG,6,ISIC_3073339.JPG,ISIC_0061531.JPG,false,1,keypress(m),500,146669.60000002384,146669.19999998808,144174.316,144183.5,144190.398,146673.634,8,400,34,,ISIC_3073339.JPG
break,html.Screen,4_33_1,2023-09-17T03:40:35.687Z,,0,,,NaN,,,,,,false,,,,146670.89999997616,146670.69999998808,,146669.89999997616,,146673.634,8,400,,,
break_continue,html.Screen,4_33_2,2023-09-17T03:40:35.688Z,,0,,,NaN,,,,,,false,,,,146671.39999997616,146671.30000001192,,146671.10000002384,,146673.634,8,400,,,
sequence,flow.Sequence,4_33,2023-09-17T03:40:35.688Z,,0,,,2480.9020000119344,completion,,,,,false,,,,146671.60000002384,146671.30000001192,144174.316,144183.39999997616,144190.398,146673.634,8,400,,,
trial,html.Screen,4_34_0,2023-09-17T03:40:38.201Z,,0,1,,2511.16600001193,response,ISIC_2193761.JPG,4,ISIC_0030900.JPG,ISIC_0030900.JPG,false,0,keypress(z),500,149185,149184.80000001192,146657.088,146671.69999998808,146673.634,149190.233,8,400,35,,ISIC_2193761.JPG
break,html.Screen,4_34_1,2023-09-17T03:40:38.202Z,,0,,,NaN,,,,,,false,,,,149186.10000002384,149185.80000001192,,149185.19999998808,,149190.233,8,400,,,
break_continue,html.Screen,4_34_2,2023-09-17T03:40:38.203Z,,0,,,NaN,,,,,,false,,,,149186.39999997616,149186.39999997616,,149186.19999998808,,149190.233,8,400,,,
sequence,flow.Sequence,4_34,2023-09-17T03:40:38.203Z,,0,,,2512.765999976167,completion,,,,,false,,,,149186.60000002384,149186.39999997616,146657.088,146671.60000002384,146673.634,149190.233,8,400,,,
trial,html.Screen,4_35_0,2023-09-17T03:40:40.721Z,,0,1,,2514.5670000119135,response,ISIC_8066110.JPG,4,ISIC_3836576.JPG,ISIC_8066110.JPG,false,1,keypress(m),500,151705.10000002384,151704.80000001192,149174.16,149186.69999998808,149190.233,151724.679,8,400,36,,ISIC_3836576.JPG
break,html.Screen,4_35_1,2023-09-17T03:40:40.723Z,,0,,,NaN,,,,,,false,,,,151706.30000001192,151706,,151705.30000001192,,151724.679,8,400,,,
break_continue,html.Screen,4_35_2,2023-09-17T03:40:40.723Z,,0,,,NaN,,,,,,false,,,,151706.89999997616,151706.60000002384,,151706.5,,151724.679,8,400,,,
sequence,flow.Sequence,4_35,2023-09-17T03:40:40.723Z,,0,,,2516.3670000238344,completion,,,,,false,,,,151707,151706.60000002384,149174.16,149186.69999998808,149190.233,151724.679,8,400,,,
trial,html.Screen,4_36_0,2023-09-17T03:40:43.404Z,,0,1,,2662.8209999999963,response,ISIC_5790319.JPG,5,ISIC_0060050.JPG,ISIC_0060050.JPG,false,0,keypress(z),500,154387.69999998808,154387.5,151690.028,151707.10000002384,151724.679,154390.009,8,400,37,,ISIC_5790319.JPG
break,html.Screen,4_36_1,2023-09-17T03:40:43.405Z,,0,,,NaN,,,,,,false,,,,154388.80000001192,154388.60000002384,,154387.80000001192,,154390.009,8,400,,,
break_continue,html.Screen,4_36_2,2023-09-17T03:40:43.406Z,,0,,,NaN,,,,,,false,,,,154389.30000001192,154389.19999998808,,154389,,154390.009,8,400,,,
sequence,flow.Sequence,4_36,2023-09-17T03:40:43.406Z,,0,,,2664.5209999880753,completion,,,,,false,,,,154389.5,154389.19999998808,151690.028,151707,151724.679,154390.009,8,400,,,
trial,html.Screen,4_37_0,2023-09-17T03:40:46.080Z,,0,1,,2673.390999976167,response,ISIC_0273046.JPG,5,ISIC_4728589.JPG,ISIC_0273046.JPG,false,1,keypress(m),500,157063.60000002384,157063.39999997616,154373.54,154389.5,154390.009,157073.286,8,400,38,,ISIC_4728589.JPG
break,html.Screen,4_37_1,2023-09-17T03:40:46.081Z,,0,,,NaN,,,,,,false,,,,157064.89999997616,157064.69999998808,,157063.80000001192,,157073.286,8,400,,,
break_continue,html.Screen,4_37_2,2023-09-17T03:40:46.082Z,,0,,,NaN,,,,,,false,,,,157065.39999997616,157065.30000001192,,157065,,157073.286,8,400,,,
sequence,flow.Sequence,4_37,2023-09-17T03:40:46.082Z,,0,,,2675.29100001193,completion,,,,,false,,,,157065.5,157065.30000001192,154373.54,154389.5,154390.009,157073.286,8,400,,,
trial,html.Screen,4_38_0,2023-09-17T03:40:49.065Z,,0,1,,2975.4139999880863,response,ISIC_0030985.JPG,4,ISIC_0061293.JPG,ISIC_0061293.JPG,false,0,keypress(z),500,160049,160048.69999998808,157056.753,157065.69999998808,157073.286,160056.572,8,400,39,,ISIC_0030985.JPG
break,html.Screen,4_38_1,2023-09-17T03:40:49.066Z,,0,,,NaN,,,,,,false,,,,160050.10000002384,160049.89999997616,,160049.19999998808,,160056.572,8,400,,,
break_continue,html.Screen,4_38_2,2023-09-17T03:40:49.067Z,,0,,,NaN,,,,,,false,,,,160050.5,160050.39999997616,,160050.19999998808,,160056.572,8,400,,,
sequence,flow.Sequence,4_38,2023-09-17T03:40:49.067Z,,0,,,2977.1139999761654,completion,,,,,false,,,,160050.69999998808,160050.39999997616,157056.753,157065.60000002384,157073.286,160056.572,8,400,,,
trial,html.Screen,4_39_0,2023-09-17T03:40:52.221Z,,0,1,,3147.6279999880935,response,ISIC_0065313.JPG,5,ISIC_0010278.JPG,ISIC_0065313.JPG,false,1,keypress(m),500,163204.5,163204.19999998808,160039.999,160050.80000001192,160056.572,163206.319,8,400,40,,ISIC_0010278.JPG
break,html.Screen,4_39_1,2023-09-17T03:40:52.222Z,,0,,,NaN,,,,,,false,,,,163205.80000001192,163205.60000002384,,163204.69999998808,,163206.319,8,400,,,
break_continue,html.Screen,4_39_2,2023-09-17T03:40:52.222Z,,0,,,NaN,,,,,,false,,,,163206.10000002384,163206.10000002384,,163205.80000001192,,163206.319,8,400,,,
sequence,flow.Sequence,4_39,2023-09-17T03:40:52.223Z,,0,,,3149.5280000238563,completion,,,,,false,,,,163206.39999997616,163206.10000002384,160039.999,160050.80000001192,160056.572,163206.319,8,400,,,
trial,html.Screen,4_40_0,2023-09-17T03:40:54.772Z,,0,1,,2549.0809999761696,response,ISIC_6125652.JPG,5,ISIC_0072893.JPG,ISIC_0072893.JPG,false,0,keypress(z),500,165755.60000002384,165755.39999997616,163189.769,163206.69999998808,163206.319,165773.198,8,400,41,,ISIC_6125652.JPG
break,html.Screen,4_40_1,2023-09-17T03:40:54.773Z,,0,,,NaN,,,,,,false,,,,165756.89999997616,165756.60000002384,,165755.80000001192,,165773.198,8,400,,,
break_continue,html.Screen,4_40_2,2023-09-17T03:40:54.774Z,,0,,,NaN,,,,,,false,,,,165757.30000001192,165757.10000002384,,165756.89999997616,,165773.198,8,400,,,
sequence,flow.Sequence,4_40,2023-09-17T03:40:54.774Z,,0,,,2550.7810000238533,completion,,,,,false,,,,165757.39999997616,165757.10000002384,163189.769,163206.69999998808,163206.319,165773.198,8,400,,,
trial,html.Screen,4_41_0,2023-09-17T03:40:57.338Z,,0,1,,2548.701999976154,response,ISIC_1231419.JPG,5,ISIC_0060559.JPG,ISIC_1231419.JPG,false,1,keypress(m),500,168322.10000002384,168321.89999997616,165740.068,165757.60000002384,165773.198,168339.939,8,400,42,,ISIC_0060559.JPG
break,html.Screen,4_41_1,2023-09-17T03:40:57.339Z,,0,,,NaN,,,,,,false,,,,168323,168322.80000001192,,168322.19999998808,,168339.939,8,400,,,
break_continue,html.Screen,4_41_2,2023-09-17T03:40:57.340Z,,0,,,NaN,,,,,,false,,,,168323.39999997616,168323.30000001192,,168323.19999998808,,168339.939,8,400,,,
sequence,flow.Sequence,4_41,2023-09-17T03:40:57.340Z,,0,,,2550.102000011917,completion,,,,,false,,,,168323.5,168323.30000001192,165740.068,165757.5,165773.198,168339.939,8,400,,,
trial,html.Screen,4_42_0,2023-09-17T03:40:59.839Z,,0,1,,2482.460999976145,response,ISIC_0069791.JPG,5,ISIC_0067733.JPG,ISIC_0067733.JPG,false,0,keypress(z),500,170822.60000002384,170822.39999997616,168305.945,168323.5,168339.939,170839.56,8,400,43,,ISIC_0069791.JPG
break,html.Screen,4_42_1,2023-09-17T03:40:59.840Z,,0,,,NaN,,,,,,false,,,,170823.69999998808,170823.30000001192,,170822.69999998808,,170839.56,8,400,,,
break_continue,html.Screen,4_42_2,2023-09-17T03:40:59.840Z,,0,,,NaN,,,,,,false,,,,170824.10000002384,170823.89999997616,,170823.69999998808,,170839.56,8,400,,,
sequence,flow.Sequence,4_42,2023-09-17T03:40:59.841Z,,0,,,2483.960999976145,completion,,,,,false,,,,170824.30000001192,170823.89999997616,168305.945,168323.5,168339.939,170839.56,8,400,,,
trial,html.Screen,4_43_0,2023-09-17T03:41:03.714Z,,0,1,,3858.2400000119233,response,ISIC_1008609.JPG,5,ISIC_4730066.JPG,ISIC_1008609.JPG,false,1,keypress(m),500,174698,174697.80000001192,170822.692,170824.39999997616,170839.56,174706.072,8,400,44,,ISIC_4730066.JPG
break,html.Screen,4_43_1,2023-09-17T03:41:03.716Z,,0,,,NaN,,,,,,false,,,,174699.30000001192,174698.89999997616,,174698.19999998808,,174706.072,8,400,,,
break_continue,html.Screen,4_43_2,2023-09-17T03:41:03.716Z,,0,,,NaN,,,,,,false,,,,174699.60000002384,174699.60000002384,,174699.30000001192,,174706.072,8,400,,,
sequence,flow.Sequence,4_43,2023-09-17T03:41:03.716Z,,0,,,3860.040000023844,completion,,,,,false,,,,174699.80000001192,174699.60000002384,170822.692,170824.30000001192,170839.56,174706.072,8,400,,,
trial,html.Screen,4_44_0,2023-09-17T03:41:06.426Z,,0,1,,2703.2280000119354,response,ISIC_7888517.JPG,5,ISIC_5433087.JPG,ISIC_7888517.JPG,false,1,keypress(m),500,177409.5,177409.30000001192,174689.359,174700,174706.072,177422.496,8,400,45,,ISIC_5433087.JPG
break,html.Screen,4_44_1,2023-09-17T03:41:06.426Z,,0,,,NaN,,,,,,false,,,,177410.10000002384,177409.89999997616,,177409.60000002384,,177422.496,8,400,,,
break_continue,html.Screen,4_44_2,2023-09-17T03:41:06.427Z,,0,,,NaN,,,,,,false,,,,177410.5,177410.39999997616,,177410.30000001192,,177422.496,8,400,,,
sequence,flow.Sequence,4_44,2023-09-17T03:41:06.427Z,,0,,,2704.3279999761726,completion,,,,,false,,,,177410.60000002384,177410.39999997616,174689.359,174699.89999997616,174706.072,177422.496,8,400,,,
trial,html.Screen,4_45_0,2023-09-17T03:41:08.860Z,,0,1,,2421.2039999880653,response,ISIC_0060696.JPG,5,ISIC_5778927.JPG,ISIC_0060696.JPG,false,1,keypress(m),500,179844,179843.69999998808,177405.938,177410.60000002384,177422.496,179855.863,8,400,46,,ISIC_5778927.JPG
break,html.Screen,4_45_1,2023-09-17T03:41:08.862Z,,0,,,NaN,,,,,,false,,,,179845.30000001192,179845,,179844.19999998808,,179855.863,8,400,,,
break_continue,html.Screen,4_45_2,2023-09-17T03:41:08.862Z,,0,,,NaN,,,,,,false,,,,179845.69999998808,179845.60000002384,,179845.30000001192,,179855.863,8,400,,,
sequence,flow.Sequence,4_45,2023-09-17T03:41:08.862Z,,0,,,2423.104000023828,completion,,,,,false,,,,179845.80000001192,179845.60000002384,177405.938,177410.60000002384,177422.496,179855.863,8,400,,,
trial,html.Screen,4_46_0,2023-09-17T03:41:11.504Z,,0,1,,2631.536999976146,response,ISIC_0000118.JPG,5,ISIC_0057155.JPG,ISIC_0057155.JPG,false,0,keypress(z),500,182487.60000002384,182487.39999997616,179839.094,179846,179855.863,182506.619,8,400,47,,ISIC_0000118.JPG
break,html.Screen,4_46_1,2023-09-17T03:41:11.505Z,,0,,,NaN,,,,,,false,,,,182488.39999997616,182488.30000001192,,182487.69999998808,,182506.619,8,400,,,
break_continue,html.Screen,4_46_2,2023-09-17T03:41:11.505Z,,0,,,NaN,,,,,,false,,,,182488.60000002384,182488.60000002384,,182488.5,,182506.619,8,400,,,
sequence,flow.Sequence,4_46,2023-09-17T03:41:11.505Z,,0,,,2632.7370000238298,completion,,,,,false,,,,182488.69999998808,182488.60000002384,179839.094,179845.89999997616,179855.863,182506.619,8,400,,,
trial,html.Screen,4_47_0,2023-09-17T03:41:14.210Z,,0,1,,2686.981000023836,response,ISIC_0011126.JPG,5,ISIC_0059987.JPG,ISIC_0011126.JPG,false,1,keypress(m),500,185193.80000001192,185193.60000002384,182472.486,182488.69999998808,182506.619,185205.446,8,400,48,,ISIC_0059987.JPG
break,html.Screen,4_47_1,2023-09-17T03:41:14.211Z,,0,,,NaN,,,,,,false,,,,185194.80000001192,185194.5,,185193.89999997616,,185205.446,8,400,,,
break_continue,html.Screen,4_47_2,2023-09-17T03:41:14.211Z,,0,,,NaN,,,,,,false,,,,185195.19999998808,185195.10000002384,,185194.89999997616,,185205.446,8,400,,,
sequence,flow.Sequence,4_47,2023-09-17T03:41:14.212Z,,0,,,2688.481000023836,completion,,,,,false,,,,185195.30000001192,185195.10000002384,182472.486,182488.69999998808,182506.619,185205.446,8,400,,,
trial,html.Screen,4_48_0,2023-09-17T03:41:16.677Z,,0,1,,2454.8540000119247,response,ISIC_0033545.JPG,5,ISIC_0031472.JPG,ISIC_0033545.JPG,false,1,keypress(m),500,187660.60000002384,187660.30000001192,185193.462,185195.39999997616,185205.446,187672.23,8,400,49,,ISIC_0031472.JPG
break,html.Screen,4_48_1,2023-09-17T03:41:16.678Z,,0,,,NaN,,,,,,false,,,,187661.80000001192,187661.5,,187660.69999998808,,187672.23,8,400,,,
break_continue,html.Screen,4_48_2,2023-09-17T03:41:16.679Z,,0,,,NaN,,,,,,false,,,,187662.30000001192,187662.10000002384,,187661.89999997616,,187672.23,8,400,,,
sequence,flow.Sequence,4_48,2023-09-17T03:41:16.679Z,,0,,,2456.6540000238456,completion,,,,,false,,,,187662.39999997616,187662.10000002384,185193.462,185195.39999997616,185205.446,187672.23,8,400,,,
trial,html.Screen,4_49_0,2023-09-17T03:41:19.384Z,,0,1,,2695.4699999880686,response,ISIC_3444719.JPG,5,ISIC_0033520.JPG,ISIC_0033520.JPG,false,0,keypress(z),500,190367.89999997616,190367.69999998808,187655.551,187662.60000002384,187672.23,190371.92,8,400,50,,ISIC_3444719.JPG
break,html.Screen,4_49_1,2023-09-17T03:41:29.372Z,,0,,,9999.798999999999,timeout,,,,,false,,,,200356,200355.201,190355.291,190368.10000002384,190371.92,200371.719,8,400,,,
break_continue,html.Screen,4_49_2,2023-09-17T03:41:30.804Z,,0,,,1401.7809999999881,response,,,,,false,continue,keypress(Space),,201788,201773.5,200355.201,200356.10000002384,200371.719,201805.053,8,400,,,
sequence,flow.Sequence,4_49,2023-09-17T03:41:30.805Z,,0,,,14101.26999999999,completion,,,,,false,,,,201788.30000001192,201773.5,187655.551,187662.5,187672.23,201805.053,8,400,,,
trial,html.Screen,4_50_0,2023-09-17T03:41:33.495Z,,0,2,,2673.6469999880646,response,ISIC_0057395.JPG,6,ISIC_0030943.JPG,ISIC_0030943.JPG,false,0,keypress(z),500,204479,204478.69999998808,201772.669,201788.39999997616,201805.053,204488.061,8,400,1,,ISIC_0057395.JPG
break,html.Screen,4_50_1,2023-09-17T03:41:33.497Z,,0,,,NaN,,,,,,false,,,,204480.69999998808,204480.19999998808,,204479.39999997616,,204488.061,8,400,,,
break_continue,html.Screen,4_50_2,2023-09-17T03:41:33.498Z,,0,,,NaN,,,,,,false,,,,204481.30000001192,204481.30000001192,,204481.10000002384,,204488.061,8,400,,,
sequence,flow.Sequence,4_50,2023-09-17T03:41:33.498Z,,0,,,2676.2470000119065,completion,,,,,false,,,,204481.5,204481.30000001192,201772.669,201788.39999997616,201805.053,204488.061,8,400,,,
trial,html.Screen,4_51_0,2023-09-17T03:41:36.606Z,,0,2,,3101.138999988092,response,ISIC_9108776.JPG,5,ISIC_6119830.JPG,ISIC_6119830.JPG,false,0,keypress(z),500,207589.39999997616,207589.19999998808,204471.535,204481.80000001192,204488.061,207604.724,8,400,2,,ISIC_9108776.JPG
break,html.Screen,4_51_1,2023-09-17T03:41:36.607Z,,0,,,NaN,,,,,,false,,,,207591.10000002384,207590.5,,207589.60000002384,,207604.724,8,400,,,
break_continue,html.Screen,4_51_2,2023-09-17T03:41:36.608Z,,0,,,NaN,,,,,,false,,,,207591.5,207591.39999997616,,207591.19999998808,,207604.724,8,400,,,
sequence,flow.Sequence,4_51,2023-09-17T03:41:36.608Z,,0,,,3103.338999976171,completion,,,,,false,,,,207591.80000001192,207591.39999997616,204471.535,204481.69999998808,204488.061,207604.724,8,400,,,
trial,html.Screen,4_52_0,2023-09-17T03:41:39.124Z,,0,2,,2502.2760000000126,response,ISIC_3310364.JPG,4,ISIC_3945916.JPG,ISIC_3310364.JPG,false,1,keypress(m),500,210107.30000001192,210107,207587.989,207591.80000001192,207604.724,210121.21,8,400,3,,ISIC_3945916.JPG
break,html.Screen,4_52_1,2023-09-17T03:41:39.125Z,,0,,,NaN,,,,,,false,,,,210108.39999997616,210108.19999998808,,210107.5,,210121.21,8,400,,,
break_continue,html.Screen,4_52_2,2023-09-17T03:41:39.125Z,,0,,,NaN,,,,,,false,,,,210108.89999997616,210108.69999998808,,210108.60000002384,,210121.21,8,400,,,
sequence,flow.Sequence,4_52,2023-09-17T03:41:39.126Z,,0,,,2503.9759999880916,completion,,,,,false,,,,210109.30000001192,210108.69999998808,207587.989,207591.80000001192,207604.724,210121.21,8,400,,,
trial,html.Screen,4_53_0,2023-09-17T03:41:41.851Z,,0,2,,2713.489999988087,response,ISIC_0025904.JPG,5,ISIC_0071972.JPG,ISIC_0071972.JPG,false,0,keypress(z),500,212834.89999997616,212834.69999998808,210104.568,210109.39999997616,210121.21,212837.699,8,400,4,,ISIC_0025904.JPG
break,html.Screen,4_53_1,2023-09-17T03:41:41.852Z,,0,,,NaN,,,,,,false,,,,212836.10000002384,212835.89999997616,,212835.10000002384,,212837.699,8,400,,,
break_continue,html.Screen,4_53_2,2023-09-17T03:41:41.853Z,,0,,,NaN,,,,,,false,,,,212836.60000002384,212836.5,,212836.30000001192,,212837.699,8,400,,,
sequence,flow.Sequence,4_53,2023-09-17T03:41:41.853Z,,0,,,2715.290000000008,completion,,,,,false,,,,212836.69999998808,212836.5,210104.568,210109.39999997616,210121.21,212837.699,8,400,,,
trial,html.Screen,4_54_0,2023-09-17T03:41:44.358Z,,0,2,,2503.4010000238486,response,ISIC_9568327.JPG,4,ISIC_0025683.JPG,ISIC_9568327.JPG,false,1,keypress(m),500,215341.19999998808,215341.10000002384,212821.573,212836.80000001192,212837.699,215354.386,8,400,5,,ISIC_0025683.JPG
break,html.Screen,4_54_1,2023-09-17T03:41:44.358Z,,0,,,NaN,,,,,,false,,,,215341.80000001192,215341.69999998808,,215341.39999997616,,215354.386,8,400,,,
break_continue,html.Screen,4_54_2,2023-09-17T03:41:44.358Z,,0,,,NaN,,,,,,false,,,,215342,215342,,215341.89999997616,,215354.386,8,400,,,
sequence,flow.Sequence,4_54,2023-09-17T03:41:44.358Z,,0,,,2504.3010000000068,completion,,,,,false,,,,215342,215342,212821.573,212836.80000001192,212837.699,215354.386,8,400,,,
trial,html.Screen,4_55_0,2023-09-17T03:41:46.840Z,,0,2,,2469.1140000000014,response,ISIC_0067697.JPG,5,ISIC_4882389.JPG,ISIC_0067697.JPG,false,1,keypress(m),500,217823.69999998808,217823.5,215337.662,215342.10000002384,215354.386,217837.529,8,400,6,,ISIC_4882389.JPG
break,html.Screen,4_55_1,2023-09-17T03:41:46.841Z,,0,,,NaN,,,,,,false,,,,217825,217824.69999998808,,217823.89999997616,,217837.529,8,400,,,
break_continue,html.Screen,4_55_2,2023-09-17T03:41:46.842Z,,0,,,NaN,,,,,,false,,,,217825.39999997616,217825.30000001192,,217825.19999998808,,217837.529,8,400,,,
sequence,flow.Sequence,4_55,2023-09-17T03:41:46.842Z,,0,,,2470.9140000119223,completion,,,,,false,,,,217825.60000002384,217825.30000001192,215337.662,215342.10000002384,215354.386,217837.529,8,400,,,
trial,html.Screen,4_56_0,2023-09-17T03:41:49.584Z,,0,2,,2730.0710000238323,response,ISIC_0026683.JPG,4,ISIC_4328662.JPG,ISIC_0026683.JPG,false,1,keypress(m),500,220567.89999997616,220567.60000002384,217821.163,217825.80000001192,217837.529,220570.719,8,400,7,,ISIC_4328662.JPG
break,html.Screen,4_56_1,2023-09-17T03:41:49.585Z,,0,,,NaN,,,,,,false,,,,220569,220568.80000001192,,220568.10000002384,,220570.719,8,400,,,
break_continue,html.Screen,4_56_2,2023-09-17T03:41:49.586Z,,0,,,NaN,,,,,,false,,,,220569.30000001192,220569.30000001192,,220569.10000002384,,220570.719,8,400,,,
sequence,flow.Sequence,4_56,2023-09-17T03:41:49.586Z,,0,,,2731.7710000119114,completion,,,,,false,,,,220569.5,220569.30000001192,217821.163,217825.69999998808,217837.529,220570.719,8,400,,,
trial,html.Screen,4_57_0,2023-09-17T03:41:52.359Z,,0,2,,2771.38100002383,response,ISIC_8650516.JPG,5,ISIC_7095615.JPG,ISIC_7095615.JPG,false,0,keypress(z),500,223342.30000001192,223342.10000002384,220554.101,220569.5,220570.719,223354.28,8,400,8,,ISIC_8650516.JPG
break,html.Screen,4_57_1,2023-09-17T03:41:52.360Z,,0,,,NaN,,,,,,false,,,,223343.5,223343.19999998808,,223342.5,,223354.28,8,400,,,
break_continue,html.Screen,4_57_2,2023-09-17T03:41:52.360Z,,0,,,NaN,,,,,,false,,,,223344,223343.80000001192,,223343.60000002384,,223354.28,8,400,,,
sequence,flow.Sequence,4_57,2023-09-17T03:41:52.361Z,,0,,,2773.081000011909,completion,,,,,false,,,,223344.19999998808,223343.80000001192,220554.101,220569.5,220570.719,223354.28,8,400,,,
trial,html.Screen,4_58_0,2023-09-17T03:41:55.483Z,,0,2,,3111.820000023843,response,ISIC_0029389.JPG,4,ISIC_8433608.JPG,ISIC_0029389.JPG,false,1,keypress(m),500,226466.39999997616,226466.10000002384,223337.693,223344.5,223354.28,226470.554,8,400,9,,ISIC_8433608.JPG
break,html.Screen,4_58_1,2023-09-17T03:41:55.484Z,,0,,,NaN,,,,,,false,,,,226467.5,226467.30000001192,,226466.60000002384,,226470.554,8,400,,,
break_continue,html.Screen,4_58_2,2023-09-17T03:41:55.484Z,,0,,,NaN,,,,,,false,,,,226468,226467.89999997616,,226467.69999998808,,226470.554,8,400,,,
sequence,flow.Sequence,4_58,2023-09-17T03:41:55.484Z,,0,,,3113.6199999761593,completion,,,,,false,,,,226468.19999998808,226467.89999997616,223337.693,223344.39999997616,223354.28,226470.554,8,400,,,
trial,html.Screen,4_59_0,2023-09-17T03:41:58.175Z,,0,2,,2688.1459999880753,response,ISIC_4384341.JPG,5,ISIC_7044184.JPG,ISIC_4384341.JPG,false,1,keypress(m),500,229158.89999997616,229158.69999998808,226454.003,226468.30000001192,226470.554,229170.688,8,400,10,,ISIC_7044184.JPG
break,html.Screen,4_59_1,2023-09-17T03:41:58.176Z,,0,,,NaN,,,,,,false,,,,229159.60000002384,229159.5,,229159,,229170.688,8,400,,,
break_continue,html.Screen,4_59_2,2023-09-17T03:41:58.176Z,,0,,,NaN,,,,,,false,,,,229159.80000001192,229159.80000001192,,229159.60000002384,,229170.688,8,400,,,
sequence,flow.Sequence,4_59,2023-09-17T03:41:58.176Z,,0,,,2689.246000011917,completion,,,,,false,,,,229159.89999997616,229159.80000001192,226454.003,226468.30000001192,226470.554,229170.688,8,400,,,
trial,html.Screen,4_60_0,2023-09-17T03:42:00.882Z,,0,2,,2694.912000023847,response,ISIC_0064033.JPG,4,ISIC_2804864.JPG,ISIC_0064033.JPG,false,1,keypress(m),500,231865.80000001192,231865.60000002384,229153.897,229160,229170.688,231870.339,8,400,11,,ISIC_2804864.JPG
break,html.Screen,4_60_1,2023-09-17T03:42:00.883Z,,0,,,NaN,,,,,,false,,,,231867,231866.5,,231866,,231870.339,8,400,,,
break_continue,html.Screen,4_60_2,2023-09-17T03:42:00.884Z,,0,,,NaN,,,,,,false,,,,231867.39999997616,231867.19999998808,,231867,,231870.339,8,400,,,
sequence,flow.Sequence,4_60,2023-09-17T03:42:00.884Z,,0,,,2696.5119999880844,completion,,,,,false,,,,231867.5,231867.19999998808,229153.897,229160,229170.688,231870.339,8,400,,,
trial,html.Screen,4_61_0,2023-09-17T03:42:03.413Z,,0,2,,2526.2610000238346,response,ISIC_0061343.JPG,4,ISIC_8028631.JPG,ISIC_0061343.JPG,false,1,keypress(m),500,234396.89999997616,234396.60000002384,231853.693,231867.60000002384,231870.339,234403.559,8,400,12,,ISIC_8028631.JPG
break,html.Screen,4_61_1,2023-09-17T03:42:03.415Z,,0,,,NaN,,,,,,false,,,,234398.30000001192,234397.89999997616,,234397.10000002384,,234403.559,8,400,,,
break_continue,html.Screen,4_61_2,2023-09-17T03:42:03.415Z,,0,,,NaN,,,,,,false,,,,234398.69999998808,234398.60000002384,,234398.39999997616,,234403.559,8,400,,,
sequence,flow.Sequence,4_61,2023-09-17T03:42:03.415Z,,0,,,2528.2610000238346,completion,,,,,false,,,,234398.89999997616,234398.60000002384,231853.693,231867.60000002384,231870.339,234403.559,8,400,,,
trial,html.Screen,4_62_0,2023-09-17T03:42:05.985Z,,0,2,,2564.2410000119125,response,ISIC_6704623.JPG,5,ISIC_0011459.JPG,ISIC_0011459.JPG,false,0,keypress(z),500,236968.30000001192,236967.80000001192,234387.146,234399,234403.559,237003.612,8,400,13,,ISIC_6704623.JPG
break,html.Screen,4_62_1,2023-09-17T03:42:05.986Z,,0,,,NaN,,,,,,false,,,,236970.10000002384,236969.80000001192,,236968.60000002384,,237003.612,8,400,,,
break_continue,html.Screen,4_62_2,2023-09-17T03:42:05.987Z,,0,,,NaN,,,,,,false,,,,236970.39999997616,236970.30000001192,,236970.19999998808,,237003.612,8,400,,,
sequence,flow.Sequence,4_62,2023-09-17T03:42:05.987Z,,0,,,2566.7410000119125,completion,,,,,false,,,,236970.5,236970.30000001192,234387.146,234399,234403.559,237003.612,8,400,,,
trial,html.Screen,4_63_0,2023-09-17T03:42:09.060Z,,0,2,,3039.988000023848,response,ISIC_2936321.JPG,4,ISIC_0029906.JPG,ISIC_2936321.JPG,false,1,keypress(m),500,240043.80000001192,240043.60000002384,236987.639,236970.60000002384,237003.612,240053.487,8,400,14,,ISIC_0029906.JPG
break,html.Screen,4_63_1,2023-09-17T03:42:09.061Z,,0,,,NaN,,,,,,false,,,,240045.10000002384,240044.69999998808,,240044,,240053.487,8,400,,,
break_continue,html.Screen,4_63_2,2023-09-17T03:42:09.062Z,,0,,,NaN,,,,,,false,,,,240045.60000002384,240045.5,,240045.19999998808,,240053.487,8,400,,,
sequence,flow.Sequence,4_63,2023-09-17T03:42:09.062Z,,0,,,3041.8880000000063,completion,,,,,false,,,,240045.69999998808,240045.5,236987.639,236970.60000002384,237003.612,240053.487,8,400,,,
trial,html.Screen,4_64_0,2023-09-17T03:42:11.613Z,,0,2,,2543.113000023848,response,ISIC_1285870.JPG,5,ISIC_0032907.JPG,ISIC_0032907.JPG,false,0,keypress(z),500,242596.80000001192,242596.60000002384,240036.915,240045.80000001192,240053.487,242603.21,8,400,15,,ISIC_1285870.JPG
break,html.Screen,4_64_1,2023-09-17T03:42:11.614Z,,0,,,NaN,,,,,,false,,,,242598.10000002384,242597.80000001192,,242597.10000002384,,242603.21,8,400,,,
break_continue,html.Screen,4_64_2,2023-09-17T03:42:11.615Z,,0,,,NaN,,,,,,false,,,,242598.5,242598.39999997616,,242598.19999998808,,242603.21,8,400,,,
sequence,flow.Sequence,4_64,2023-09-17T03:42:11.615Z,,0,,,2544.9129999761644,completion,,,,,false,,,,242598.69999998808,242598.39999997616,240036.915,240045.80000001192,240053.487,242603.21,8,400,,,
trial,html.Screen,4_65_0,2023-09-17T03:42:14.486Z,,0,2,,2865.6899999761663,response,ISIC_0054350.JPG,5,ISIC_1554992.JPG,ISIC_0054350.JPG,false,1,keypress(m),500,245469.10000002384,245468.89999997616,242587.69,242598.89999997616,242603.21,245486.765,8,400,16,,ISIC_1554992.JPG
break,html.Screen,4_65_1,2023-09-17T03:42:14.487Z,,0,,,NaN,,,,,,false,,,,245471,245470.60000002384,,245469.5,,245486.765,8,400,,,
break_continue,html.Screen,4_65_2,2023-09-17T03:42:14.488Z,,0,,,NaN,,,,,,false,,,,245471.80000001192,245471.5,,245471.19999998808,,245486.765,8,400,,,
sequence,flow.Sequence,4_65,2023-09-17T03:42:14.488Z,,0,,,2868.290000000008,completion,,,,,false,,,,245472,245471.5,242587.69,242598.80000001192,242603.21,245486.765,8,400,,,
trial,html.Screen,4_66_0,2023-09-17T03:42:18.491Z,,0,2,,3987.835000023828,response,ISIC_2108849.JPG,5,ISIC_6829008.JPG,ISIC_6829008.JPG,false,0,keypress(z),500,249474.80000001192,249474.60000002384,245469.9,245472.30000001192,245486.765,249486.405,8,400,17,,ISIC_2108849.JPG
break,html.Screen,4_66_1,2023-09-17T03:42:18.492Z,,0,,,NaN,,,,,,false,,,,249475.89999997616,249475.69999998808,,249475,,249486.405,8,400,,,
break_continue,html.Screen,4_66_2,2023-09-17T03:42:18.493Z,,0,,,NaN,,,,,,false,,,,249476.30000001192,249476.19999998808,,249476,,249486.405,8,400,,,
sequence,flow.Sequence,4_66,2023-09-17T03:42:18.493Z,,0,,,3989.434999988065,completion,,,,,false,,,,249476.5,249476.19999998808,245469.9,245472.19999998808,245486.765,249486.405,8,400,,,
trial,html.Screen,4_67_0,2023-09-17T03:42:21.102Z,,0,2,,2599.195000023843,response,ISIC_5569568.JPG,6,ISIC_0014190.JPG,ISIC_5569568.JPG,false,1,keypress(m),500,252085.80000001192,252085.60000002384,249469.669,249476.60000002384,249486.405,252103.02,8,400,18,,ISIC_0014190.JPG
break,html.Screen,4_67_1,2023-09-17T03:42:21.103Z,,0,,,NaN,,,,,,false,,,,252087.10000002384,252086.89999997616,,252086.10000002384,,252103.02,8,400,,,
break_continue,html.Screen,4_67_2,2023-09-17T03:42:21.104Z,,0,,,NaN,,,,,,false,,,,252087.5,252087.39999997616,,252087.19999998808,,252103.02,8,400,,,
sequence,flow.Sequence,4_67,2023-09-17T03:42:21.104Z,,0,,,2600.9949999761593,completion,,,,,false,,,,252087.80000001192,252087.39999997616,249469.669,249476.5,249486.405,252103.02,8,400,,,
trial,html.Screen,4_68_0,2023-09-17T03:42:24.362Z,,0,2,,3242.0800000238523,response,ISIC_0064406.JPG,4,ISIC_4141315.JPG,ISIC_0064406.JPG,false,1,keypress(m),500,255345.39999997616,255345.10000002384,252086.42,252087.89999997616,252103.02,255369.397,8,400,19,,ISIC_4141315.JPG
break,html.Screen,4_68_1,2023-09-17T03:42:24.363Z,,0,,,NaN,,,,,,false,,,,255346.19999998808,255346,,255345.60000002384,,255369.397,8,400,,,
break_continue,html.Screen,4_68_2,2023-09-17T03:42:24.363Z,,0,,,NaN,,,,,,false,,,,255346.69999998808,255346.5,,255346.30000001192,,255369.397,8,400,,,
sequence,flow.Sequence,4_68,2023-09-17T03:42:24.363Z,,0,,,3243.4800000000105,completion,,,,,false,,,,255346.80000001192,255346.5,252086.42,252087.89999997616,252103.02,255369.397,8,400,,,
trial,html.Screen,4_69_0,2023-09-17T03:42:31.344Z,,0,2,,6958.002999976161,response,ISIC_0058909.JPG,5,ISIC_3966064.JPG,ISIC_0058909.JPG,false,1,keypress(m),500,262327.60000002384,262327.39999997616,255352.765,255346.89999997616,255369.397,262335.806,8,400,20,,ISIC_3966064.JPG
break,html.Screen,4_69_1,2023-09-17T03:42:31.345Z,,0,,,NaN,,,,,,false,,,,262328.1999999881,262328,,262327.6999999881,,262335.806,8,400,,,
break_continue,html.Screen,4_69_2,2023-09-17T03:42:31.345Z,,0,,,NaN,,,,,,false,,,,262328.5,262328.5,,262328.1999999881,,262335.806,8,400,,,
sequence,flow.Sequence,4_69,2023-09-17T03:42:31.345Z,,0,,,6959.103000000003,completion,,,,,false,,,,262328.60000002384,262328.5,255352.765,255346.80000001192,255369.397,262335.806,8,400,,,
trial,html.Screen,4_70_0,2023-09-17T03:42:34.530Z,,0,2,,3177.7940000238596,response,ISIC_0032750.JPG,5,ISIC_0014860.JPG,ISIC_0014860.JPG,false,0,keypress(z),500,265513.89999997616,265513.60000002384,262319.114,262328.6999999881,262335.806,265519.007,8,400,21,,ISIC_0032750.JPG
break,html.Screen,4_70_1,2023-09-17T03:42:34.532Z,,0,,,NaN,,,,,,false,,,,265515.1999999881,265514.89999997616,,265514.10000002384,,265519.007,8,400,,,
break_continue,html.Screen,4_70_2,2023-09-17T03:42:34.532Z,,0,,,NaN,,,,,,false,,,,265515.6999999881,265515.5,,265515.39999997616,,265519.007,8,400,,,
sequence,flow.Sequence,4_70,2023-09-17T03:42:34.532Z,,0,,,3179.6940000000177,completion,,,,,false,,,,265515.8000000119,265515.5,262319.114,262328.60000002384,262335.806,265519.007,8,400,,,
trial,html.Screen,4_71_0,2023-09-17T03:42:38.582Z,,0,2,,4046.2930000119377,response,ISIC_0033419.JPG,6,ISIC_7108282.JPG,ISIC_7108282.JPG,false,0,keypress(z),500,269565.5,269565.3000000119,265502.487,265515.89999997616,265519.007,269568.82,8,400,22,,ISIC_0033419.JPG
break,html.Screen,4_71_1,2023-09-17T03:42:38.583Z,,0,,,NaN,,,,,,false,,,,269566.6999999881,269566.5,,269565.8000000119,,269568.82,8,400,,,
break_continue,html.Screen,4_71_2,2023-09-17T03:42:38.584Z,,0,,,NaN,,,,,,false,,,,269567.3000000119,269567.10000002384,,269566.89999997616,,269568.82,8,400,,,
sequence,flow.Sequence,4_71,2023-09-17T03:42:38.584Z,,0,,,4048.0930000238586,completion,,,,,false,,,,269567.39999997616,269567.10000002384,265502.487,265515.89999997616,265519.007,269568.82,8,400,,,
trial,html.Screen,4_72_0,2023-09-17T03:42:44.059Z,,0,2,,5473.780000023835,response,ISIC_0054239.JPG,5,ISIC_2283628.JPG,ISIC_0054239.JPG,false,1,keypress(m),500,275043,275042.60000002384,269552.076,269567.5,269568.82,275052.03,8,400,23,,ISIC_2283628.JPG
break,html.Screen,4_72_1,2023-09-17T03:42:44.060Z,,0,,,NaN,,,,,,false,,,,275044.10000002384,275043.8000000119,,275043.10000002384,,275052.03,8,400,,,
break_continue,html.Screen,4_72_2,2023-09-17T03:42:44.061Z,,0,,,NaN,,,,,,false,,,,275044.5,275044.39999997616,,275044.1999999881,,275052.03,8,400,,,
sequence,flow.Sequence,4_72,2023-09-17T03:42:44.061Z,,0,,,5475.579999976151,completion,,,,,false,,,,275044.8000000119,275044.39999997616,269552.076,269567.39999997616,269568.82,275052.03,8,400,,,
trial,html.Screen,4_73_0,2023-09-17T03:42:51.744Z,,0,2,,7675.070000023814,response,ISIC_0063445.JPG,5,ISIC_0011114.JPG,ISIC_0063445.JPG,false,1,keypress(m),500,282727.39999997616,282727.10000002384,275036.303,275044.8000000119,275052.03,282735.284,8,400,24,,ISIC_0011114.JPG
break,html.Screen,4_73_1,2023-09-17T03:42:51.745Z,,0,,,NaN,,,,,,false,,,,282728.5,282728.3000000119,,282727.60000002384,,282735.284,8,400,,,
break_continue,html.Screen,4_73_2,2023-09-17T03:42:51.745Z,,0,,,NaN,,,,,,false,,,,282729,282728.89999997616,,282728.60000002384,,282735.284,8,400,,,
sequence,flow.Sequence,4_73,2023-09-17T03:42:51.747Z,,0,,,7676.86999997613,completion,,,,,false,,,,282730.39999997616,282728.89999997616,275036.303,275044.8000000119,275052.03,282735.284,8,400,,,
trial,html.Screen,4_74_0,2023-09-17T03:42:55.290Z,,0,2,,3538.016000011936,response,ISIC_0032543.JPG,4,ISIC_0059273.JPG,ISIC_0059273.JPG,false,0,keypress(z),500,286273.5,286273.3000000119,282718.452,282730.5,282735.284,286284.892,8,400,25,,ISIC_0032543.JPG
break,html.Screen,4_74_1,2023-09-17T03:42:55.291Z,,0,,,NaN,,,,,,false,,,,286274.6999999881,286274.60000002384,,286273.6999999881,,286284.892,8,400,,,
break_continue,html.Screen,4_74_2,2023-09-17T03:42:55.292Z,,0,,,NaN,,,,,,false,,,,286275.1999999881,286275.10000002384,,286274.89999997616,,286284.892,8,400,,,
sequence,flow.Sequence,4_74,2023-09-17T03:42:55.292Z,,0,,,3539.8160000238568,completion,,,,,false,,,,286275.3000000119,286275.10000002384,282718.452,282730.39999997616,282735.284,286284.892,8,400,,,
trial,html.Screen,4_75_0,2023-09-17T03:42:59.245Z,,0,2,,3943.9080000119284,response,ISIC_4412555.JPG,6,ISIC_3729849.JPG,ISIC_3729849.JPG,false,0,keypress(z),500,290229.10000002384,290228.8000000119,286268.328,286275.5,286284.892,290234.701,8,400,26,,ISIC_4412555.JPG
break,html.Screen,4_75_1,2023-09-17T03:42:59.247Z,,0,,,NaN,,,,,,false,,,,290230.39999997616,290230,,290229.3000000119,,290234.701,8,400,,,
break_continue,html.Screen,4_75_2,2023-09-17T03:42:59.247Z,,0,,,NaN,,,,,,false,,,,290230.6999999881,290230.60000002384,,290230.39999997616,,290234.701,8,400,,,
sequence,flow.Sequence,4_75,2023-09-17T03:42:59.247Z,,0,,,3945.7080000238493,completion,,,,,false,,,,290231,290230.60000002384,286268.328,286275.39999997616,286284.892,290234.701,8,400,,,
trial,html.Screen,4_76_0,2023-09-17T03:43:04.369Z,,0,2,,5117.399000023841,response,ISIC_4938638.JPG,6,ISIC_0519386.JPG,ISIC_0519386.JPG,false,0,keypress(z),500,295352.39999997616,295352.10000002384,290218.111,290231.10000002384,290234.701,295367.847,8,400,27,,ISIC_4938638.JPG
break,html.Screen,4_76_1,2023-09-17T03:43:04.370Z,,0,,,NaN,,,,,,false,,,,295353.5,295353.3000000119,,295352.5,,295367.847,8,400,,,
break_continue,html.Screen,4_76_2,2023-09-17T03:43:04.370Z,,0,,,NaN,,,,,,false,,,,295353.89999997616,295353.8000000119,,295353.6999999881,,295367.847,8,400,,,
sequence,flow.Sequence,4_76,2023-09-17T03:43:04.370Z,,0,,,5119.09900001192,completion,,,,,false,,,,295354.10000002384,295353.8000000119,290218.111,290231,290234.701,295367.847,8,400,,,
trial,html.Screen,4_77_0,2023-09-17T03:43:07.269Z,,0,2,,2884.5529999761493,response,ISIC_0028528.JPG,5,ISIC_0033562.JPG,ISIC_0028528.JPG,false,1,keypress(m),500,298252.60000002384,298252.39999997616,295351.101,295354.3000000119,295367.847,298267.715,8,400,28,,ISIC_0033562.JPG
break,html.Screen,4_77_1,2023-09-17T03:43:07.270Z,,0,,,NaN,,,,,,false,,,,298253.60000002384,298253.39999997616,,298252.8000000119,,298267.715,8,400,,,
break_continue,html.Screen,4_77_2,2023-09-17T03:43:07.270Z,,0,,,NaN,,,,,,false,,,,298253.89999997616,298253.8000000119,,298253.6999999881,,298267.715,8,400,,,
sequence,flow.Sequence,4_77,2023-09-17T03:43:07.270Z,,0,,,2885.953000011912,completion,,,,,false,,,,298254,298253.8000000119,295351.101,295354.1999999881,295367.847,298267.715,8,400,,,
trial,html.Screen,4_78_0,2023-09-17T03:43:10.313Z,,0,2,,3028.6849999761325,response,ISIC_0000279.JPG,5,ISIC_3254309.JPG,ISIC_3254309.JPG,false,0,keypress(z),500,301296.60000002384,301296.39999997616,298251.011,298254.10000002384,298267.715,301301.054,8,400,29,,ISIC_0000279.JPG
break,html.Screen,4_78_1,2023-09-17T03:43:10.314Z,,0,,,NaN,,,,,,false,,,,301297.39999997616,301297.1999999881,,301296.6999999881,,301301.054,8,400,,,
break_continue,html.Screen,4_78_2,2023-09-17T03:43:10.314Z,,0,,,NaN,,,,,,false,,,,301297.5,301297.5,,301297.39999997616,,301301.054,8,400,,,
sequence,flow.Sequence,4_78,2023-09-17T03:43:10.314Z,,0,,,3029.7849999999744,completion,,,,,false,,,,301297.60000002384,301297.5,298251.011,298254.10000002384,298267.715,301301.054,8,400,,,
trial,html.Screen,4_79_0,2023-09-17T03:43:13.291Z,,0,2,,2973.9459999999963,response,ISIC_9720044.JPG,6,ISIC_7833178.JPG,ISIC_7833178.JPG,false,0,keypress(z),500,304275.1999999881,304275,301284.087,301297.60000002384,301301.054,304284.128,8,400,30,,ISIC_9720044.JPG
break,html.Screen,4_79_1,2023-09-17T03:43:13.292Z,,0,,,NaN,,,,,,false,,,,304275.8000000119,304275.6999999881,,304275.3000000119,,304284.128,8,400,,,
break_continue,html.Screen,4_79_2,2023-09-17T03:43:13.292Z,,0,,,NaN,,,,,,false,,,,304276.10000002384,304276.10000002384,,304275.89999997616,,304284.128,8,400,,,
sequence,flow.Sequence,4_79,2023-09-17T03:43:13.293Z,,0,,,2975.046000023838,completion,,,,,false,,,,304276.1999999881,304276.10000002384,301284.087,301297.60000002384,301301.054,304284.128,8,400,,,
trial,html.Screen,4_80_0,2023-09-17T03:43:16.158Z,,0,2,,2856.972000023816,response,ISIC_5651106.JPG,5,ISIC_0057963.JPG,ISIC_0057963.JPG,false,0,keypress(z),500,307141.3000000119,307141.10000002384,304267.41,304276.1999999881,304284.128,307150.759,8,400,31,,ISIC_5651106.JPG
break,html.Screen,4_80_1,2023-09-17T03:43:16.159Z,,0,,,NaN,,,,,,false,,,,307142.1999999881,307141.89999997616,,307141.5,,307150.759,8,400,,,
break_continue,html.Screen,4_80_2,2023-09-17T03:43:16.159Z,,0,,,NaN,,,,,,false,,,,307142.5,307142.5,,307142.39999997616,,307150.759,8,400,,,
sequence,flow.Sequence,4_80,2023-09-17T03:43:16.159Z,,0,,,2858.371999999974,completion,,,,,false,,,,307142.60000002384,307142.5,304267.41,304276.1999999881,304284.128,307150.759,8,400,,,
trial,html.Screen,4_81_0,2023-09-17T03:43:18.928Z,,0,2,,2760.940999988059,response,ISIC_0064073.JPG,6,ISIC_6685532.JPG,ISIC_6685532.JPG,false,0,keypress(z),500,309911.89999997616,309911.6999999881,307134.054,307142.6999999881,307150.759,309917.208,8,400,32,,ISIC_0064073.JPG
break,html.Screen,4_81_1,2023-09-17T03:43:18.929Z,,0,,,NaN,,,,,,false,,,,309912.39999997616,309912.3000000119,,309912,,309917.208,8,400,,,
break_continue,html.Screen,4_81_2,2023-09-17T03:43:18.929Z,,0,,,NaN,,,,,,false,,,,309912.6999999881,309912.60000002384,,309912.5,,309917.208,8,400,,,
sequence,flow.Sequence,4_81,2023-09-17T03:43:18.929Z,,0,,,2761.841000023822,completion,,,,,false,,,,309912.6999999881,309912.60000002384,307134.054,307142.6999999881,307150.759,309917.208,8,400,,,
trial,html.Screen,4_82_0,2023-09-17T03:43:22.168Z,,0,2,,3234.5920000119368,response,ISIC_0065013.JPG,6,ISIC_0005572.JPG,ISIC_0065013.JPG,false,1,keypress(m),500,313152.10000002384,313151.8000000119,309900.584,309912.8000000119,309917.208,313167.218,8,400,33,,ISIC_0005572.JPG
break,html.Screen,4_82_1,2023-09-17T03:43:22.169Z,,0,,,NaN,,,,,,false,,,,313153.10000002384,313152.89999997616,,313152.3000000119,,313167.218,8,400,,,
break_continue,html.Screen,4_82_2,2023-09-17T03:43:22.170Z,,0,,,NaN,,,,,,false,,,,313153.60000002384,313153.5,,313153.3000000119,,313167.218,8,400,,,
sequence,flow.Sequence,4_82,2023-09-17T03:43:22.170Z,,0,,,3236.292000000016,completion,,,,,false,,,,313153.6999999881,313153.5,309900.584,309912.8000000119,309917.208,313167.218,8,400,,,
trial,html.Screen,4_83_0,2023-09-17T03:43:24.974Z,,0,2,,2790.1819999761647,response,ISIC_9355535.JPG,5,ISIC_4945233.JPG,ISIC_4945233.JPG,false,0,keypress(z),500,315957.6999999881,315957.39999997616,313150.318,313153.8000000119,313167.218,315967.001,8,400,34,,ISIC_9355535.JPG
break,html.Screen,4_83_1,2023-09-17T03:43:24.975Z,,0,,,NaN,,,,,,false,,,,315958.39999997616,315958.39999997616,,315957.6999999881,,315967.001,8,400,,,
break_continue,html.Screen,4_83_2,2023-09-17T03:43:24.975Z,,0,,,NaN,,,,,,false,,,,315958.60000002384,315958.5,,315958.5,,315967.001,8,400,,,
sequence,flow.Sequence,4_83,2023-09-17T03:43:24.975Z,,0,,,2791.2820000000065,completion,,,,,false,,,,315958.60000002384,315958.5,313150.318,313153.6999999881,313167.218,315967.001,8,400,,,
trial,html.Screen,4_84_0,2023-09-17T03:43:28.752Z,,0,2,,3768.898999976169,response,ISIC_5791954.JPG,5,ISIC_4208361.JPG,ISIC_4208361.JPG,false,0,keypress(z),500,319736.10000002384,319735.89999997616,315950.333,315958.6999999881,315967.001,319750.287,8,400,35,,ISIC_5791954.JPG
break,html.Screen,4_84_1,2023-09-17T03:43:28.753Z,,0,,,NaN,,,,,,false,,,,319736.6999999881,319736.5,,319736.1999999881,,319750.287,8,400,,,
break_continue,html.Screen,4_84_2,2023-09-17T03:43:28.753Z,,0,,,NaN,,,,,,false,,,,319736.89999997616,319736.8000000119,,319736.8000000119,,319750.287,8,400,,,
sequence,flow.Sequence,4_84,2023-09-17T03:43:28.753Z,,0,,,3769.7990000119316,completion,,,,,false,,,,319737,319736.8000000119,315950.333,315958.6999999881,315967.001,319750.287,8,400,,,
trial,html.Screen,4_85_0,2023-09-17T03:43:32.070Z,,0,2,,3302.712999999989,response,ISIC_0177304.JPG,5,ISIC_0034304.JPG,ISIC_0034304.JPG,false,0,keypress(z),500,323053.1999999881,323053,319733.498,319737,319750.287,323083.398,8,400,36,,ISIC_0177304.JPG
break,html.Screen,4_85_1,2023-09-17T03:43:32.070Z,,0,,,NaN,,,,,,false,,,,323053.60000002384,323053.5,,323053.1999999881,,323083.398,8,400,,,
break_continue,html.Screen,4_85_2,2023-09-17T03:43:32.070Z,,0,,,NaN,,,,,,false,,,,323053.89999997616,323053.8000000119,,323053.6999999881,,323083.398,8,400,,,
sequence,flow.Sequence,4_85,2023-09-17T03:43:32.070Z,,0,,,3303.5130000119098,completion,,,,,false,,,,323053.89999997616,323053.8000000119,319733.498,319737,319750.287,323083.398,8,400,,,
trial,html.Screen,4_86_0,2023-09-17T03:43:36.712Z,,0,2,,4611.801999988093,response,ISIC_8535451.JPG,5,ISIC_3561065.JPG,ISIC_8535451.JPG,false,1,keypress(m),500,327695.39999997616,327695.1999999881,323066.706,323054,323083.398,327699.886,8,400,37,,ISIC_3561065.JPG
break,html.Screen,4_86_1,2023-09-17T03:43:36.713Z,,0,,,NaN,,,,,,false,,,,327696.39999997616,327696.10000002384,,327695.60000002384,,327699.886,8,400,,,
break_continue,html.Screen,4_86_2,2023-09-17T03:43:36.713Z,,0,,,NaN,,,,,,false,,,,327697,327696.89999997616,,327696.60000002384,,327699.886,8,400,,,
sequence,flow.Sequence,4_86,2023-09-17T03:43:36.714Z,,0,,,4613.501999976172,completion,,,,,false,,,,327697.1999999881,327696.89999997616,323066.706,323054,323083.398,327699.886,8,400,,,
trial,html.Screen,4_87_0,2023-09-17T03:43:39.627Z,,0,2,,2910.4140000119223,response,ISIC_0010809.JPG,5,ISIC_0027085.JPG,ISIC_0010809.JPG,false,1,keypress(m),500,330610.39999997616,330610.3000000119,327683.171,327697.3000000119,327699.886,330616.416,8,400,38,,ISIC_0027085.JPG
break,html.Screen,4_87_1,2023-09-17T03:43:39.627Z,,0,,,NaN,,,,,,false,,,,330611,330610.8000000119,,330610.5,,330616.416,8,400,,,
break_continue,html.Screen,4_87_2,2023-09-17T03:43:39.627Z,,0,,,NaN,,,,,,false,,,,330611.1999999881,330611.10000002384,,330611,,330616.416,8,400,,,
sequence,flow.Sequence,4_87,2023-09-17T03:43:39.628Z,,0,,,2911.2140000238433,completion,,,,,false,,,,330611.3000000119,330611.10000002384,327683.171,327697.1999999881,327699.886,330616.416,8,400,,,
trial,html.Screen,4_88_0,2023-09-17T03:43:43.663Z,,0,2,,4030.1840000238153,response,ISIC_0059768.JPG,4,ISIC_0072371.JPG,ISIC_0059768.JPG,false,1,keypress(m),500,334646.89999997616,334646.60000002384,330599.71,330611.3000000119,330616.416,334649.586,8,400,39,,ISIC_0072371.JPG
break,html.Screen,4_88_1,2023-09-17T03:43:43.664Z,,0,,,NaN,,,,,,false,,,,334648.1999999881,334647.5,,334647.10000002384,,334649.586,8,400,,,
break_continue,html.Screen,4_88_2,2023-09-17T03:43:43.665Z,,0,,,NaN,,,,,,false,,,,334648.6999999881,334648.5,,334648.3000000119,,334649.586,8,400,,,
sequence,flow.Sequence,4_88,2023-09-17T03:43:43.665Z,,0,,,4032.0839999999735,completion,,,,,false,,,,334648.8000000119,334648.5,330599.71,330611.3000000119,330616.416,334649.586,8,400,,,
trial,html.Screen,4_89_0,2023-09-17T03:43:48.307Z,,0,2,,4640.514000023832,response,ISIC_0056164.JPG,5,ISIC_0058132.JPG,ISIC_0056164.JPG,false,1,keypress(m),500,339290.3000000119,339290.10000002384,334633.103,334648.89999997616,334649.586,339299.474,8,400,40,,ISIC_0058132.JPG
break,html.Screen,4_89_1,2023-09-17T03:43:48.308Z,,0,,,NaN,,,,,,false,,,,339291.39999997616,339291.1999999881,,339290.5,,339299.474,8,400,,,
break_continue,html.Screen,4_89_2,2023-09-17T03:43:48.308Z,,0,,,NaN,,,,,,false,,,,339291.8000000119,339291.6999999881,,339291.60000002384,,339299.474,8,400,,,
sequence,flow.Sequence,4_89,2023-09-17T03:43:48.308Z,,0,,,4642.113999988069,completion,,,,,false,,,,339292.10000002384,339291.6999999881,334633.103,334648.89999997616,334649.586,339299.474,8,400,,,
trial,html.Screen,4_90_0,2023-09-17T03:43:51.318Z,,0,2,,3002.1260000238544,response,ISIC_8588033.JPG,5,ISIC_0064936.JPG,ISIC_8588033.JPG,false,1,keypress(m),500,342301.8000000119,342301.60000002384,339282.738,339292.1999999881,339299.474,342316.276,8,400,41,,ISIC_0064936.JPG
break,html.Screen,4_90_1,2023-09-17T03:43:51.319Z,,0,,,NaN,,,,,,false,,,,342303,342302.8000000119,,342302,,342316.276,8,400,,,
break_continue,html.Screen,4_90_2,2023-09-17T03:43:51.320Z,,0,,,NaN,,,,,,false,,,,342303.39999997616,342303.1999999881,,342303.10000002384,,342316.276,8,400,,,
sequence,flow.Sequence,4_90,2023-09-17T03:43:51.320Z,,0,,,3003.7259999880916,completion,,,,,false,,,,342303.5,342303.1999999881,339282.738,339292.10000002384,339299.474,342316.276,8,400,,,
trial,html.Screen,4_91_0,2023-09-17T03:43:54.746Z,,0,2,,3412.9239999880665,response,ISIC_0015969.JPG,5,ISIC_0031550.JPG,ISIC_0015969.JPG,false,1,keypress(m),500,345729.39999997616,345729.1999999881,342299.248,342303.60000002384,342316.276,345732.501,8,400,42,,ISIC_0031550.JPG
break,html.Screen,4_91_1,2023-09-17T03:43:54.747Z,,0,,,NaN,,,,,,false,,,,345730.60000002384,345730.39999997616,,345729.60000002384,,345732.501,8,400,,,
break_continue,html.Screen,4_91_2,2023-09-17T03:43:54.747Z,,0,,,NaN,,,,,,false,,,,345731.10000002384,345730.89999997616,,345730.6999999881,,345732.501,8,400,,,
sequence,flow.Sequence,4_91,2023-09-17T03:43:54.748Z,,0,,,3414.6239999761456,completion,,,,,false,,,,345731.1999999881,345730.89999997616,342299.248,342303.60000002384,342316.276,345732.501,8,400,,,
trial,html.Screen,4_92_0,2023-09-17T03:43:57.725Z,,0,2,,2976.2990000119316,response,ISIC_0056957.JPG,5,ISIC_9874512.JPG,ISIC_0056957.JPG,false,1,keypress(m),500,348709.10000002384,348708.8000000119,345715.932,345731.3000000119,345732.501,348715.742,8,400,43,,ISIC_9874512.JPG
break,html.Screen,4_92_1,2023-09-17T03:43:57.727Z,,0,,,NaN,,,,,,false,,,,348710.3000000119,348710,,348709.1999999881,,348715.742,8,400,,,
break_continue,html.Screen,4_92_2,2023-09-17T03:43:57.727Z,,0,,,NaN,,,,,,false,,,,348710.8000000119,348710.60000002384,,348710.39999997616,,348715.742,8,400,,,
sequence,flow.Sequence,4_92,2023-09-17T03:43:57.727Z,,0,,,2978.0990000238526,completion,,,,,false,,,,348710.89999997616,348710.60000002384,345715.932,345731.3000000119,345732.501,348715.742,8,400,,,
trial,html.Screen,4_93_0,2023-09-17T03:44:00.450Z,,0,2,,2717.2579999999725,response,ISIC_0068560.JPG,5,ISIC_6678508.JPG,ISIC_0068560.JPG,false,1,keypress(m),500,351433.3000000119,351433,348699.178,348711,348715.742,351449.144,8,400,44,,ISIC_6678508.JPG
break,html.Screen,4_93_1,2023-09-17T03:44:00.451Z,,0,,,NaN,,,,,,false,,,,351434.60000002384,351434.10000002384,,351433.5,,351449.144,8,400,,,
break_continue,html.Screen,4_93_2,2023-09-17T03:44:00.451Z,,0,,,NaN,,,,,,false,,,,351435.1999999881,351435,,351434.8000000119,,351449.144,8,400,,,
sequence,flow.Sequence,4_93,2023-09-17T03:44:00.452Z,,0,,,2719.2579999999725,completion,,,,,false,,,,351435.5,351435,348699.178,348711,348715.742,351449.144,8,400,,,
trial,html.Screen,4_94_0,2023-09-17T03:44:03.308Z,,0,2,,2842.555999988108,response,ISIC_6381785.JPG,4,ISIC_0283541.JPG,ISIC_6381785.JPG,false,1,keypress(m),500,354291.89999997616,354291.6999999881,351432.492,351435.60000002384,351449.144,354299.134,8,400,45,,ISIC_0283541.JPG
break,html.Screen,4_94_1,2023-09-17T03:44:03.309Z,,0,,,NaN,,,,,,false,,,,354293.10000002384,354292.89999997616,,354292.10000002384,,354299.134,8,400,,,
break_continue,html.Screen,4_94_2,2023-09-17T03:44:03.310Z,,0,,,NaN,,,,,,false,,,,354293.5,354293.39999997616,,354293.3000000119,,354299.134,8,400,,,
sequence,flow.Sequence,4_94,2023-09-17T03:44:03.310Z,,0,,,2844.255999976187,completion,,,,,false,,,,354293.6999999881,354293.39999997616,351432.492,351435.60000002384,351449.144,354299.134,8,400,,,
trial,html.Screen,4_95_0,2023-09-17T03:44:06.598Z,,0,2,,3281.966000023822,response,ISIC_0016139.JPG,6,ISIC_9130157.JPG,ISIC_9130157.JPG,false,0,keypress(z),500,357581.39999997616,357581.10000002384,354282.279,354293.8000000119,354299.134,357598.891,8,400,46,,ISIC_0016139.JPG
break,html.Screen,4_95_1,2023-09-17T03:44:06.599Z,,0,,,NaN,,,,,,false,,,,357582.6999999881,357582.5,,357581.6999999881,,357598.891,8,400,,,
break_continue,html.Screen,4_95_2,2023-09-17T03:44:06.599Z,,0,,,NaN,,,,,,false,,,,357583.10000002384,357583,,357582.8000000119,,357598.891,8,400,,,
sequence,flow.Sequence,4_95,2023-09-17T03:44:06.599Z,,0,,,3283.86599999998,completion,,,,,false,,,,357583.1999999881,357583,354282.279,354293.8000000119,354299.134,357598.891,8,400,,,
trial,html.Screen,4_96_0,2023-09-17T03:44:09.214Z,,0,2,,2598.808999988076,response,ISIC_0013618.JPG,5,ISIC_0027033.JPG,ISIC_0027033.JPG,false,0,keypress(z),500,360197.89999997616,360197.6999999881,357582.181,357583.39999997616,357598.891,360215.432,8,400,47,,ISIC_0013618.JPG
break,html.Screen,4_96_1,2023-09-17T03:44:09.215Z,,0,,,NaN,,,,,,false,,,,360199.10000002384,360198.8000000119,,360198.10000002384,,360215.432,8,400,,,
break_continue,html.Screen,4_96_2,2023-09-17T03:44:09.216Z,,0,,,NaN,,,,,,false,,,,360199.5,360199.39999997616,,360199.1999999881,,360215.432,8,400,,,
sequence,flow.Sequence,4_96,2023-09-17T03:44:09.216Z,,0,,,2600.508999976155,completion,,,,,false,,,,360199.6999999881,360199.39999997616,357582.181,357583.3000000119,357598.891,360215.432,8,400,,,
trial,html.Screen,4_97_0,2023-09-17T03:44:12.105Z,,0,2,,2873.4679999761865,response,ISIC_9921747.JPG,5,ISIC_0057286.JPG,ISIC_0057286.JPG,false,0,keypress(z),500,363089.10000002384,363088.89999997616,360182.597,360199.6999999881,360215.432,363098.609,8,400,48,,ISIC_9921747.JPG
break,html.Screen,4_97_1,2023-09-17T03:44:12.106Z,,0,,,NaN,,,,,,false,,,,363089.6999999881,363089.5,,363089.3000000119,,363098.609,8,400,,,
break_continue,html.Screen,4_97_2,2023-09-17T03:44:12.106Z,,0,,,NaN,,,,,,false,,,,363090,363089.89999997616,,363089.89999997616,,363098.609,8,400,,,
sequence,flow.Sequence,4_97,2023-09-17T03:44:12.106Z,,0,,,2874.4679999761865,completion,,,,,false,,,,363090.10000002384,363089.89999997616,360182.597,360199.6999999881,360215.432,363098.609,8,400,,,
trial,html.Screen,4_98_0,2023-09-17T03:44:15.707Z,,0,2,,3592.0909999880823,response,ISIC_0013311.JPG,5,ISIC_0003664.JPG,ISIC_0013311.JPG,false,1,keypress(m),500,366691,366690.6999999881,363081.935,363090.10000002384,363098.609,366698.347,8,400,49,,ISIC_0003664.JPG
break,html.Screen,4_98_1,2023-09-17T03:44:15.708Z,,0,,,NaN,,,,,,false,,,,366692.1999999881,366692,,366691.1999999881,,366698.347,8,400,,,
break_continue,html.Screen,4_98_2,2023-09-17T03:44:15.709Z,,0,,,NaN,,,,,,false,,,,366692.89999997616,366692.6999999881,,366692.39999997616,,366698.347,8,400,,,
sequence,flow.Sequence,4_98,2023-09-17T03:44:15.709Z,,0,,,3594.0909999880823,completion,,,,,false,,,,366693.1999999881,366692.6999999881,363081.935,363090.10000002384,363098.609,366698.347,8,400,,,
trial,html.Screen,4_99_0,2023-09-17T03:44:19.221Z,,0,2,,3506.5529999761493,response,ISIC_0025500.JPG,6,ISIC_4377208.JPG,ISIC_4377208.JPG,false,0,keypress(z),500,370205.3000000119,370204.89999997616,366681.96,366693.3000000119,366698.347,370231.618,8,400,50,,ISIC_0025500.JPG
break,html.Screen,4_99_1,2023-09-17T03:44:29.232Z,,0,,,9999.626999999979,timeout,,,,,false,,,,380216,380214.664,370215.178,370205.5,370231.618,380231.245,8,400,,,
break_continue,html.Screen,4_99_2,2023-09-17T03:44:31.605Z,,0,,,2337.0550000119256,response,,,,,false,continue,keypress(Space),,382588.3000000119,382568.3000000119,380214.664,380216.10000002384,380231.245,382597.723,8,400,,,
sequence,flow.Sequence,4_99,2023-09-17T03:44:31.605Z,,0,,,15869.953000011912,completion,,,,,false,,,,382588.5,382568.3000000119,366681.96,366693.1999999881,366698.347,382597.723,8,400,,,
trial,html.Screen,4_100_0,2023-09-17T03:44:34.890Z,,0,3,,3275.476999988081,response,ISIC_7844825.JPG,5,ISIC_2050512.JPG,ISIC_2050512.JPG,false,0,keypress(z),500,385873.5,385873.1999999881,382580.907,382588.5,382597.723,385881.363,8,400,1,,ISIC_7844825.JPG
break,html.Screen,4_100_1,2023-09-17T03:44:34.891Z,,0,,,NaN,,,,,,false,,,,385874.60000002384,385874.3000000119,,385873.60000002384,,385881.363,8,400,,,
break_continue,html.Screen,4_100_2,2023-09-17T03:44:34.891Z,,0,,,NaN,,,,,,false,,,,385875,385874.89999997616,,385874.8000000119,,385881.363,8,400,,,
sequence,flow.Sequence,4_100,2023-09-17T03:44:34.891Z,,0,,,3277.17699997616,completion,,,,,false,,,,385875.1999999881,385874.89999997616,382580.907,382588.5,382597.723,385881.363,8,400,,,
trial,html.Screen,4_101_0,2023-09-17T03:44:37.798Z,,0,3,,2899.7370000238298,response,ISIC_0028207.JPG,5,ISIC_9355535.JPG,ISIC_0028207.JPG,false,1,keypress(m),500,388781.3000000119,388781.10000002384,385864.404,385875.3000000119,385881.363,388797.614,8,400,2,,ISIC_9355535.JPG
break,html.Screen,4_101_1,2023-09-17T03:44:37.799Z,,0,,,NaN,,,,,,false,,,,388782.39999997616,388782.10000002384,,388781.5,,388797.614,8,400,,,
break_continue,html.Screen,4_101_2,2023-09-17T03:44:37.799Z,,0,,,NaN,,,,,,false,,,,388782.8000000119,388782.6999999881,,388782.60000002384,,388797.614,8,400,,,
sequence,flow.Sequence,4_101,2023-09-17T03:44:37.799Z,,0,,,2901.336999988067,completion,,,,,false,,,,388783,388782.6999999881,385864.404,385875.3000000119,385881.363,388797.614,8,400,,,
trial,html.Screen,4_102_0,2023-09-17T03:44:40.698Z,,0,3,,2883.4860000238405,response,ISIC_1851605.JPG,5,ISIC_6171084.JPG,ISIC_1851605.JPG,false,1,keypress(m),500,391681.39999997616,391681.10000002384,388781.009,388783.10000002384,388797.614,391697.54,8,400,3,,ISIC_6171084.JPG
break,html.Screen,4_102_1,2023-09-17T03:44:40.698Z,,0,,,NaN,,,,,,false,,,,391682.1999999881,391681.89999997616,,391681.5,,391697.54,8,400,,,
break_continue,html.Screen,4_102_2,2023-09-17T03:44:40.699Z,,0,,,NaN,,,,,,false,,,,391682.6999999881,391682.60000002384,,391682.39999997616,,391697.54,8,400,,,
sequence,flow.Sequence,4_102,2023-09-17T03:44:40.699Z,,0,,,2884.9860000238405,completion,,,,,false,,,,391682.8000000119,391682.60000002384,388781.009,388783.10000002384,388797.614,391697.54,8,400,,,
trial,html.Screen,4_103_0,2023-09-17T03:44:43.475Z,,0,3,,2760.6599999881,response,ISIC_0034002.JPG,5,ISIC_4174592.JPG,ISIC_0034002.JPG,false,1,keypress(m),500,394458.5,394458.1999999881,391680.733,391682.89999997616,391697.54,394463.981,8,400,4,,ISIC_4174592.JPG
break,html.Screen,4_103_1,2023-09-17T03:44:43.475Z,,0,,,NaN,,,,,,false,,,,394459.1999999881,394458.89999997616,,394458.5,,394463.981,8,400,,,
break_continue,html.Screen,4_103_2,2023-09-17T03:44:43.476Z,,0,,,NaN,,,,,,false,,,,394459.60000002384,394459.5,,394459.3000000119,,394463.981,8,400,,,
sequence,flow.Sequence,4_103,2023-09-17T03:44:43.476Z,,0,,,2761.960000000021,completion,,,,,false,,,,394459.6999999881,394459.5,391680.733,391682.89999997616,391697.54,394463.981,8,400,,,
trial,html.Screen,4_104_0,2023-09-17T03:44:46.454Z,,0,3,,2973.119000023813,response,ISIC_0063369.JPG,5,ISIC_8764464.JPG,ISIC_0063369.JPG,false,1,keypress(m),500,397437.39999997616,397437.10000002384,394447.508,394459.8000000119,394463.981,397447.159,8,400,5,,ISIC_8764464.JPG
break,html.Screen,4_104_1,2023-09-17T03:44:46.455Z,,0,,,NaN,,,,,,false,,,,397438.5,397438.3000000119,,397437.5,,397447.159,8,400,,,
break_continue,html.Screen,4_104_2,2023-09-17T03:44:46.455Z,,0,,,NaN,,,,,,false,,,,397439,397438.89999997616,,397438.60000002384,,397447.159,8,400,,,
sequence,flow.Sequence,4_104,2023-09-17T03:44:46.455Z,,0,,,2974.9189999761293,completion,,,,,false,,,,397439.1999999881,397438.89999997616,394447.508,394459.8000000119,394463.981,397447.159,8,400,,,
trial,html.Screen,4_105_0,2023-09-17T03:44:49.387Z,,0,3,,2923.641000011936,response,ISIC_4721599.JPG,5,ISIC_5454766.JPG,ISIC_5454766.JPG,false,0,keypress(z),500,400371.1999999881,400370.8000000119,397430.758,397439.3000000119,397447.159,400380.352,8,400,6,,ISIC_4721599.JPG
break,html.Screen,4_105_1,2023-09-17T03:44:49.389Z,,0,,,NaN,,,,,,false,,,,400372.39999997616,400372.10000002384,,400371.3000000119,,400380.352,8,400,,,
break_continue,html.Screen,4_105_2,2023-09-17T03:44:49.389Z,,0,,,NaN,,,,,,false,,,,400372.89999997616,400372.8000000119,,400372.60000002384,,400380.352,8,400,,,
sequence,flow.Sequence,4_105,2023-09-17T03:44:49.389Z,,0,,,2925.641000011936,completion,,,,,false,,,,400373,400372.8000000119,397430.758,397439.3000000119,397447.159,400380.352,8,400,,,
trial,html.Screen,4_106_0,2023-09-17T03:44:52.400Z,,0,3,,3002.7480000238284,response,ISIC_0012208.JPG,5,ISIC_5425721.JPG,ISIC_0012208.JPG,false,1,keypress(m),500,403383.3000000119,403383.10000002384,400363.915,400373.10000002384,400380.352,403397.137,8,400,7,,ISIC_5425721.JPG
break,html.Screen,4_106_1,2023-09-17T03:44:52.401Z,,0,,,NaN,,,,,,false,,,,403384.5,403384.1999999881,,403383.60000002384,,403397.137,8,400,,,
break_continue,html.Screen,4_106_2,2023-09-17T03:44:52.401Z,,0,,,NaN,,,,,,false,,,,403384.8000000119,403384.6999999881,,403384.5,,403397.137,8,400,,,
sequence,flow.Sequence,4_106,2023-09-17T03:44:52.401Z,,0,,,3004.3479999880656,completion,,,,,false,,,,403384.89999997616,403384.6999999881,400363.915,400373.10000002384,400380.352,403397.137,8,400,,,
trial,html.Screen,4_107_0,2023-09-17T03:44:55.307Z,,0,3,,2893.663000011933,response,ISIC_2021175.JPG,5,ISIC_0031548.JPG,ISIC_2021175.JPG,false,1,keypress(m),500,406291.10000002384,406290.8000000119,403380.499,403385,403397.137,406296.899,8,400,8,,ISIC_0031548.JPG
break,html.Screen,4_107_1,2023-09-17T03:44:55.308Z,,0,,,NaN,,,,,,false,,,,406292.3000000119,406291.89999997616,,406291.1999999881,,406296.899,8,400,,,
break_continue,html.Screen,4_107_2,2023-09-17T03:44:55.309Z,,0,,,NaN,,,,,,false,,,,406292.60000002384,406292.5,,406292.3000000119,,406296.899,8,400,,,
sequence,flow.Sequence,4_107,2023-09-17T03:44:55.309Z,,0,,,2895.363000000012,completion,,,,,false,,,,406292.8000000119,406292.5,403380.499,403385,403397.137,406296.899,8,400,,,
trial,html.Screen,4_108_0,2023-09-17T03:44:58.449Z,,0,3,,3135.101000000024,response,ISIC_0014132.JPG,5,ISIC_8993666.JPG,ISIC_0014132.JPG,false,1,keypress(m),500,409432.1999999881,409432,406280.322,406292.89999997616,406296.899,409446.701,8,400,9,,ISIC_8993666.JPG
break,html.Screen,4_108_1,2023-09-17T03:44:58.450Z,,0,,,NaN,,,,,,false,,,,409433.39999997616,409433.10000002384,,409432.39999997616,,409446.701,8,400,,,
break_continue,html.Screen,4_108_2,2023-09-17T03:44:58.450Z,,0,,,NaN,,,,,,false,,,,409433.8000000119,409433.6999999881,,409433.5,,409446.701,8,400,,,
sequence,flow.Sequence,4_108,2023-09-17T03:44:58.450Z,,0,,,3136.8009999881033,completion,,,,,false,,,,409434,409433.6999999881,406280.322,406292.89999997616,406296.899,409446.701,8,400,,,
trial,html.Screen,4_109_0,2023-09-17T03:45:02.680Z,,0,3,,4216.59900001192,response,ISIC_0014164.JPG,5,ISIC_3296136.JPG,ISIC_3296136.JPG,false,0,keypress(z),500,413663.5,413663.3000000119,409430.136,409434.10000002384,409446.701,413679.951,8,400,10,,ISIC_0014164.JPG
break,html.Screen,4_109_1,2023-09-17T03:45:02.681Z,,0,,,NaN,,,,,,false,,,,413664.60000002384,413664.3000000119,,413663.6999999881,,413679.951,8,400,,,
break_continue,html.Screen,4_109_2,2023-09-17T03:45:02.681Z,,0,,,NaN,,,,,,false,,,,413665,413665,,413664.8000000119,,413679.951,8,400,,,
sequence,flow.Sequence,4_109,2023-09-17T03:45:02.681Z,,0,,,4218.298999999999,completion,,,,,false,,,,413665.1999999881,413665,409430.136,409434.10000002384,409446.701,413679.951,8,400,,,
trial,html.Screen,4_110_0,2023-09-17T03:45:05.675Z,,0,3,,2978.548999999999,response,ISIC_0034159.JPG,6,ISIC_0031386.JPG,ISIC_0034159.JPG,false,1,keypress(m),500,416658.8000000119,416658.5,413663.344,413665.3000000119,413679.951,416663.081,8,400,11,,ISIC_0031386.JPG
break,html.Screen,4_110_1,2023-09-17T03:45:05.676Z,,0,,,NaN,,,,,,false,,,,416660.10000002384,416659.8000000119,,416659,,416663.081,8,400,,,
break_continue,html.Screen,4_110_2,2023-09-17T03:45:05.677Z,,0,,,NaN,,,,,,false,,,,416660.60000002384,416660.39999997616,,416660.1999999881,,416663.081,8,400,,,
sequence,flow.Sequence,4_110,2023-09-17T03:45:05.677Z,,0,,,2980.448999976157,completion,,,,,false,,,,416660.6999999881,416660.39999997616,413663.344,413665.1999999881,413679.951,416663.081,8,400,,,
trial,html.Screen,4_111_0,2023-09-17T03:45:08.544Z,,0,3,,2864.9189999999944,response,ISIC_1178518.JPG,5,ISIC_6855540.JPG,ISIC_1178518.JPG,false,1,keypress(m),500,419528.10000002384,419528,416646.583,416660.8000000119,416663.081,419529.66,8,400,12,,ISIC_6855540.JPG
break,html.Screen,4_111_1,2023-09-17T03:45:08.545Z,,0,,,NaN,,,,,,false,,,,419528.60000002384,419528.5,,419528.1999999881,,419529.66,8,400,,,
break_continue,html.Screen,4_111_2,2023-09-17T03:45:08.545Z,,0,,,NaN,,,,,,false,,,,419529,419528.89999997616,,419528.60000002384,,419529.66,8,400,,,
sequence,flow.Sequence,4_111,2023-09-17T03:45:08.545Z,,0,,,2865.8189999761526,completion,,,,,false,,,,419529.10000002384,419528.89999997616,416646.583,416660.6999999881,416663.081,419529.66,8,400,,,
trial,html.Screen,4_112_0,2023-09-17T03:45:13.876Z,,0,3,,5329.6400000119465,response,ISIC_0059707.JPG,5,ISIC_7253401.JPG,ISIC_0059707.JPG,false,1,keypress(m),500,424859.60000002384,424859.3000000119,419513.204,419529.10000002384,419529.66,424862.719,8,400,13,,ISIC_7253401.JPG
break,html.Screen,4_112_1,2023-09-17T03:45:13.877Z,,0,,,NaN,,,,,,false,,,,424860.6999999881,424860.5,,424859.8000000119,,424862.719,8,400,,,
break_continue,html.Screen,4_112_2,2023-09-17T03:45:13.877Z,,0,,,NaN,,,,,,false,,,,424861.1999999881,424860.89999997616,,424860.8000000119,,424862.719,8,400,,,
sequence,flow.Sequence,4_112,2023-09-17T03:45:13.878Z,,0,,,5331.239999976184,completion,,,,,false,,,,424861.39999997616,424860.89999997616,419513.204,419529.10000002384,419529.66,424862.719,8,400,,,
trial,html.Screen,4_113_0,2023-09-17T03:45:17.287Z,,0,3,,3407.9809999880963,response,ISIC_8591425.JPG,5,ISIC_0031170.JPG,ISIC_8591425.JPG,false,1,keypress(m),500,428271,428270.6999999881,424846.296,424861.5,424862.719,428279.335,8,400,14,,ISIC_0031170.JPG
break,html.Screen,4_113_1,2023-09-17T03:45:17.289Z,,0,,,NaN,,,,,,false,,,,428272.1999999881,428272,,428271.1999999881,,428279.335,8,400,,,
break_continue,html.Screen,4_113_2,2023-09-17T03:45:17.289Z,,0,,,NaN,,,,,,false,,,,428272.60000002384,428272.5,,428272.39999997616,,428279.335,8,400,,,
sequence,flow.Sequence,4_113,2023-09-17T03:45:17.289Z,,0,,,3409.7810000000172,completion,,,,,false,,,,428272.89999997616,428272.5,424846.296,424861.39999997616,424862.719,428279.335,8,400,,,
trial,html.Screen,4_114_0,2023-09-17T03:45:19.843Z,,0,3,,2547.064999976137,response,ISIC_9829436.JPG,6,ISIC_5422432.JPG,ISIC_5422432.JPG,false,0,keypress(z),500,430826.6999999881,430826.39999997616,428263.382,428273,428279.335,430829.18,8,400,15,,ISIC_9829436.JPG
break,html.Screen,4_114_1,2023-09-17T03:45:19.844Z,,0,,,NaN,,,,,,false,,,,430828,430827.6999999881,,430826.89999997616,,430829.18,8,400,,,
break_continue,html.Screen,4_114_2,2023-09-17T03:45:19.845Z,,0,,,NaN,,,,,,false,,,,430828.5,430828.39999997616,,430828.1999999881,,430829.18,8,400,,,
sequence,flow.Sequence,4_114,2023-09-17T03:45:19.845Z,,0,,,2549.064999976137,completion,,,,,false,,,,430828.60000002384,430828.39999997616,428263.382,428273,428279.335,430829.18,8,400,,,
trial,html.Screen,4_115_0,2023-09-17T03:45:23.769Z,,0,3,,3922.820000000007,response,ISIC_0032161.JPG,4,ISIC_9555580.JPG,ISIC_9555580.JPG,false,0,keypress(z),500,434752.39999997616,434752,430812.573,430828.8000000119,430829.18,434779.012,8,400,16,,ISIC_0032161.JPG
break,html.Screen,4_115_1,2023-09-17T03:45:23.770Z,,0,,,NaN,,,,,,false,,,,434753.8000000119,434753.39999997616,,434752.6999999881,,434779.012,8,400,,,
break_continue,html.Screen,4_115_2,2023-09-17T03:45:23.771Z,,0,,,NaN,,,,,,false,,,,434754.5,434754.3000000119,,434754,,434779.012,8,400,,,
sequence,flow.Sequence,4_115,2023-09-17T03:45:23.771Z,,0,,,3925.120000011928,completion,,,,,false,,,,434754.89999997616,434754.3000000119,430812.573,430828.8000000119,430829.18,434779.012,8,400,,,
trial,html.Screen,4_116_0,2023-09-17T03:45:29.917Z,,0,3,,6121.88799997617,response,ISIC_0029021.JPG,6,ISIC_9810276.JPG,ISIC_0029021.JPG,false,1,keypress(m),500,440901.10000002384,440900.89999997616,434762.415,434755.10000002384,434779.012,440912.255,8,400,17,,ISIC_9810276.JPG
break,html.Screen,4_116_1,2023-09-17T03:45:29.919Z,,0,,,NaN,,,,,,false,,,,440902.39999997616,440902.1999999881,,440901.3000000119,,440912.255,8,400,,,
break_continue,html.Screen,4_116_2,2023-09-17T03:45:29.919Z,,0,,,NaN,,,,,,false,,,,440902.8000000119,440902.8000000119,,440902.60000002384,,440912.255,8,400,,,
sequence,flow.Sequence,4_116,2023-09-17T03:45:29.919Z,,0,,,6123.788000011933,completion,,,,,false,,,,440903,440902.8000000119,434762.415,434755,434779.012,440912.255,8,400,,,
trial,html.Screen,4_117_0,2023-09-17T03:45:33.636Z,,0,3,,3707.6449999761535,response,ISIC_9864402.JPG,5,ISIC_0010267.JPG,ISIC_0010267.JPG,false,0,keypress(z),500,444620,444619.89999997616,440895.712,440903.1999999881,440912.255,444645.294,8,400,18,,ISIC_9864402.JPG
break,html.Screen,4_117_1,2023-09-17T03:45:33.637Z,,0,,,NaN,,,,,,false,,,,444620.60000002384,444620.39999997616,,444620.1999999881,,444645.294,8,400,,,
break_continue,html.Screen,4_117_2,2023-09-17T03:45:33.637Z,,0,,,NaN,,,,,,false,,,,444620.8000000119,444620.6999999881,,444620.6999999881,,444645.294,8,400,,,
sequence,flow.Sequence,4_117,2023-09-17T03:45:33.637Z,,0,,,3708.4449999880744,completion,,,,,false,,,,444620.89999997616,444620.6999999881,440895.712,440903.10000002384,440912.255,444645.294,8,400,,,
trial,html.Screen,4_118_0,2023-09-17T03:45:38.646Z,,0,3,,4984.5060000119265,response,ISIC_8740331.JPG,4,ISIC_1696516.JPG,ISIC_8740331.JPG,false,1,keypress(m),500,449630,449629.8000000119,444628.717,444621,444645.294,449645.259,8,400,19,,ISIC_1696516.JPG
break,html.Screen,4_118_1,2023-09-17T03:45:38.648Z,,0,,,NaN,,,,,,false,,,,449631.3000000119,449631.10000002384,,449630.1999999881,,449645.259,8,400,,,
break_continue,html.Screen,4_118_2,2023-09-17T03:45:38.648Z,,0,,,NaN,,,,,,false,,,,449631.60000002384,449631.5,,449631.39999997616,,449645.259,8,400,,,
sequence,flow.Sequence,4_118,2023-09-17T03:45:38.648Z,,0,,,4986.206000000006,completion,,,,,false,,,,449631.6999999881,449631.5,444628.717,444620.89999997616,444645.294,449645.259,8,400,,,
trial,html.Screen,4_119_0,2023-09-17T03:45:42.894Z,,0,3,,4232.541000011901,response,ISIC_2000959.JPG,5,ISIC_5287679.JPG,ISIC_2000959.JPG,false,1,keypress(m),500,453878.10000002384,453877.8000000119,449628.675,449631.89999997616,449645.259,453895.156,8,400,20,,ISIC_5287679.JPG
break,html.Screen,4_119_1,2023-09-17T03:45:42.896Z,,0,,,NaN,,,,,,false,,,,453879.3000000119,453879,,453878.3000000119,,453895.156,8,400,,,
break_continue,html.Screen,4_119_2,2023-09-17T03:45:42.896Z,,0,,,NaN,,,,,,false,,,,453879.6999999881,453879.60000002384,,453879.39999997616,,453895.156,8,400,,,
sequence,flow.Sequence,4_119,2023-09-17T03:45:42.896Z,,0,,,4234.341000023822,completion,,,,,false,,,,453879.8000000119,453879.60000002384,449628.675,449631.8000000119,449645.259,453895.156,8,400,,,
trial,html.Screen,4_120_0,2023-09-17T03:45:46.850Z,,0,3,,3937.9440000238246,response,ISIC_7045042.JPG,5,ISIC_7293518.JPG,ISIC_7045042.JPG,false,1,keypress(m),500,457833.3000000119,457833.10000002384,453878.523,453880,453895.156,457844.836,8,400,21,,ISIC_7293518.JPG
break,html.Screen,4_120_1,2023-09-17T03:45:46.851Z,,0,,,NaN,,,,,,false,,,,457834.5,457834.3000000119,,457833.5,,457844.836,8,400,,,
break_continue,html.Screen,4_120_2,2023-09-17T03:45:46.851Z,,0,,,NaN,,,,,,false,,,,457835.10000002384,457834.8000000119,,457834.6999999881,,457844.836,8,400,,,
sequence,flow.Sequence,4_120,2023-09-17T03:45:46.852Z,,0,,,3939.6440000119037,completion,,,,,false,,,,457835.1999999881,457834.8000000119,453878.523,453880,453895.156,457844.836,8,400,,,
trial,html.Screen,4_121_0,2023-09-17T03:45:51.573Z,,0,3,,4711.863999988069,response,ISIC_0030898.JPG,5,ISIC_0032070.JPG,ISIC_0030898.JPG,false,1,keypress(m),500,462556.89999997616,462556.6999999881,457828.126,457835.3000000119,457844.836,462561.244,8,400,22,,ISIC_0032070.JPG
break,html.Screen,4_121_1,2023-09-17T03:45:51.574Z,,0,,,NaN,,,,,,false,,,,462558.1999999881,462557.89999997616,,462557,,462561.244,8,400,,,
break_continue,html.Screen,4_121_2,2023-09-17T03:45:51.575Z,,0,,,NaN,,,,,,false,,,,462558.60000002384,462558.5,,462558.1999999881,,462561.244,8,400,,,
sequence,flow.Sequence,4_121,2023-09-17T03:45:51.575Z,,0,,,4713.66399999999,completion,,,,,false,,,,462558.6999999881,462558.5,457828.126,457835.3000000119,457844.836,462561.244,8,400,,,
trial,html.Screen,4_122_0,2023-09-17T03:45:56.046Z,,0,3,,4468.655999976152,response,ISIC_0028501.JPG,5,ISIC_4951035.JPG,ISIC_0028501.JPG,false,1,keypress(m),500,467030.10000002384,467029.89999997616,462544.702,462558.89999997616,462561.244,467044.743,8,400,23,,ISIC_4951035.JPG
break,html.Screen,4_122_1,2023-09-17T03:45:56.048Z,,0,,,NaN,,,,,,false,,,,467031.3000000119,467031.10000002384,,467030.39999997616,,467044.743,8,400,,,
break_continue,html.Screen,4_122_2,2023-09-17T03:45:56.048Z,,0,,,NaN,,,,,,false,,,,467031.8000000119,467031.6999999881,,467031.5,,467044.743,8,400,,,
sequence,flow.Sequence,4_122,2023-09-17T03:45:56.048Z,,0,,,4470.455999988073,completion,,,,,false,,,,467031.89999997616,467031.6999999881,462544.702,462558.8000000119,462561.244,467044.743,8,400,,,
trial,html.Screen,4_123_0,2023-09-17T03:46:00.010Z,,0,3,,3948.6569999761414,response,ISIC_4980079.JPG,4,ISIC_1615485.JPG,ISIC_4980079.JPG,false,1,keypress(m),500,470993.6999999881,470993.39999997616,467027.893,467032,467044.743,471027.585,8,400,24,,ISIC_1615485.JPG
break,html.Screen,4_123_1,2023-09-17T03:46:00.011Z,,0,,,NaN,,,,,,false,,,,470994.89999997616,470994.6999999881,,470993.8000000119,,471027.585,8,400,,,
break_continue,html.Screen,4_123_2,2023-09-17T03:46:00.012Z,,0,,,NaN,,,,,,false,,,,470995.3000000119,470995.1999999881,,470995,,471027.585,8,400,,,
sequence,flow.Sequence,4_123,2023-09-17T03:46:00.012Z,,0,,,3950.4569999880623,completion,,,,,false,,,,470995.39999997616,470995.1999999881,467027.893,467032,467044.743,471027.585,8,400,,,
trial,html.Screen,4_124_0,2023-09-17T03:46:03.838Z,,0,3,,3794.015000023821,response,ISIC_8108090.JPG,5,ISIC_0004907.JPG,ISIC_0004907.JPG,false,0,keypress(z),500,474821.89999997616,474821.60000002384,471010.934,470995.60000002384,471027.585,474827.464,8,400,25,,ISIC_8108090.JPG
break,html.Screen,4_124_1,2023-09-17T03:46:03.839Z,,0,,,NaN,,,,,,false,,,,474823.10000002384,474822.8000000119,,474822.10000002384,,474827.464,8,400,,,
break_continue,html.Screen,4_124_2,2023-09-17T03:46:03.840Z,,0,,,NaN,,,,,,false,,,,474823.5,474823.39999997616,,474823.1999999881,,474827.464,8,400,,,
sequence,flow.Sequence,4_124,2023-09-17T03:46:03.840Z,,0,,,3795.814999976137,completion,,,,,false,,,,474823.6999999881,474823.39999997616,471010.934,470995.60000002384,471027.585,474827.464,8,400,,,
trial,html.Screen,4_125_0,2023-09-17T03:46:09.810Z,,0,3,,5966.036000000022,response,ISIC_1532684.JPG,5,ISIC_0014790.JPG,ISIC_1532684.JPG,false,1,keypress(m),500,480793.6999999881,480793.5,474811.157,474823.8000000119,474827.464,480810.856,8,400,26,,ISIC_0014790.JPG
break,html.Screen,4_125_1,2023-09-17T03:46:09.811Z,,0,,,NaN,,,,,,false,,,,480794.89999997616,480794.39999997616,,480793.89999997616,,480810.856,8,400,,,
break_continue,html.Screen,4_125_2,2023-09-17T03:46:09.812Z,,0,,,NaN,,,,,,false,,,,480795.1999999881,480795.1999999881,,480795,,480810.856,8,400,,,
