sender,sender_type,sender_id,timestamp,meta,,blockNo,condition,duration,ended_on,img_left,img_reveal,img_right,loser,practice,response,response_action,selection_duration,time_commit,time_end,time_render,time_run,time_show,time_switch,total_blocks,total_trials,trialNo,url,winner
informed_consent,html.Screen,0,2023-11-06T15:24:04.654Z,"{""labjs_version"":""20.2.4"",""labjs_build"":{""flavor"":""production"",""commit"":""f5b4a49f956347addd546a832a3327688c2c0fef""},""location"":""https://run.pavlovia.org/MurrayBennett/melanoma-2afc/?participant=67681&platform=sona"",""userAgent"":""Mozilla/5.0 (Windows NT 10.0; Win64; x64) AppleWebKit/537.36 (KHTML, like Gecko) Chrome/118.0.0.0 Safari/537.36"",""platform"":""Win32"",""language"":""en-US"",""locale"":""en-US"",""timeZone"":""America/Chicago"",""timezoneOffset"":360,""screen_width"":1536,""screen_height"":864,""scroll_width"":1536,""scroll_height"":690,""window_innerWidth"":1536,""window_innerHeight"":738,""devicePixelRatio"":1.25}",,,,7410.084,response,,,,,,consent,click button,,10401.400000572205,10398.5,2971.846,2959.300000190735,2988.416,10421.868,,,,"{""participant"":""67681"",""platform"":""sona""}",
Welcome,html.Screen,1,2023-11-06T15:24:53.882Z,,,,uniform,49212.132,response,,,,,,continue,click button,,59635.60000038147,59634,10388.585,10401.800000190735,10421.868,59639.274,,,,,
trial,html.Screen,2_0_0,2023-11-06T15:24:58.974Z,,0,0,,5087.626000572207,response,ISIC_0063388.JPG,,ISIC_0025593.JPG,ISIC_0025593.JPG,true,0,keypress(z),500,64727.400000572205,64726.900000572205,59623.476,59636,59639.274,64739.538,1,6,1,,ISIC_0063388.JPG
sequence,flow.Sequence,2_0,2023-11-06T15:24:58.974Z,,0,,,5087.626000572207,completion,,,,,true,,,,64727.900000572205,64726.900000572205,59623.476,59635.900000572205,59639.274,64739.538,1,6,,,
trial,html.Screen,2_1_0,2023-11-06T15:25:10.474Z,,0,0,,11516.592999999993,timeout,ISIC_1309015.JPG,,ISIC_0028178.JPG,,true,,,500,76227.20000076294,76227,64723.043,64728,64739.538,76256.131,1,6,2,,
sequence,flow.Sequence,2_1,2023-11-06T15:25:10.474Z,,0,,,11487.462,completion,,,,,true,,,,76227.5,76227,64723.043,64728,64739.538,76256.131,1,6,,,
trial,html.Screen,2_2_0,2023-11-06T15:25:16.832Z,,0,0,,6328.769000572211,response,ISIC_3314853.JPG,,ISIC_0031128.JPG,ISIC_0031128.JPG,true,0,keypress(z),500,82585.30000019073,82584.9000005722,76239.469,76227.70000076294,76256.131,82589.591,1,6,3,,ISIC_3314853.JPG
sequence,flow.Sequence,2_2,2023-11-06T15:25:16.832Z,,0,,,6328.769000572211,completion,,,,,true,,,,82585.70000076294,82584.9000005722,76239.469,76227.70000076294,76256.131,82589.591,1,6,,,
trial,html.Screen,2_3_0,2023-11-06T15:25:20.389Z,,0,0,,3552.2090001907345,response,ISIC_0031612.JPG,,ISIC_8980141.JPG,ISIC_0031612.JPG,true,1,keypress(m),500,86142.30000019073,86141.80000019073,82573.352,82585.9000005722,82589.591,86156.665,1,6,4,,ISIC_8980141.JPG
sequence,flow.Sequence,2_3,2023-11-06T15:25:20.389Z,,0,,,3552.2090001907345,completion,,,,,true,,,,86142.9000005722,86141.80000019073,82573.352,82585.9000005722,82589.591,86156.665,1,6,,,
trial,html.Screen,2_4_0,2023-11-06T15:25:23.949Z,,0,0,,3545.435000381476,response,ISIC_1197737.JPG,,ISIC_9721604.JPG,ISIC_1197737.JPG,true,1,keypress(m),500,89702.5,89702.10000038147,86140.287,86143.10000038147,86156.665,89706.413,1,6,5,,ISIC_9721604.JPG
sequence,flow.Sequence,2_4,2023-11-06T15:25:23.949Z,,0,,,3545.435000381476,completion,,,,,true,,,,89702.80000019073,89702.10000038147,86140.287,86143,86156.665,89706.413,1,6,,,
trial,html.Screen,2_5_0,2023-11-06T15:25:27.232Z,,0,0,,3278.987000572204,response,ISIC_0025346.JPG,,ISIC_0010681.JPG,ISIC_0025346.JPG,true,1,keypress(m),500,92985.70000076294,92985.4000005722,89690.284,89703,89706.413,92989.685,1,6,6,,ISIC_0010681.JPG
sequence,flow.Sequence,2_5,2023-11-06T15:25:27.232Z,,0,,,3278.987000572204,completion,,,,,true,,,,92986,92985.4000005722,89690.284,89703,89706.413,92989.685,1,6,,,
loop,flow.Loop,2,2023-11-06T15:25:27.233Z,,,,,33346.12600057221,completion,,,,,true,,,,92986.30000019073,92985.4000005722,59623.476,59635.900000572205,59639.274,92989.685,1,6,,,
exp_instructions,html.Screen,3,2023-11-06T15:25:47.485Z,,,,,20244.715000572207,response,,,,,,continue,keypress(Space),,113235.70000076294,113234.4000005722,92973.405,92986.4000005722,92989.685,113240.058,,,,,
trial,html.Screen,4_0_0,2023-11-06T15:25:52.453Z,,0,1,,4963.4419999999955,response,ISIC_0013644.JPG,12,ISIC_0007084.JPG,ISIC_0013644.JPG,false,1,keypress(m),500,118203.80000019073,118203.5,113222.631,113236,113240.058,118206.715,8,400,1,,ISIC_0007084.JPG
break,html.Screen,4_0_1,2023-11-06T15:25:52.454Z,,0,,,NaN,,,,,,false,,,,118204.9000005722,118204.60000038147,,118204,,118206.715,8,400,,,
break_continue,html.Screen,4_0_2,2023-11-06T15:25:52.454Z,,0,,,NaN,,,,,,false,,,,118205.5,118205.30000019073,,118205.20000076294,,118206.715,8,400,,,
sequence,flow.Sequence,4_0,2023-11-06T15:25:52.455Z,,0,,,4965.24200019073,completion,,,,,false,,,,118205.60000038147,118205.30000019073,113222.631,113236,113240.058,118206.715,8,400,,,
trial,html.Screen,4_1_0,2023-11-06T15:25:56.623Z,,0,1,,4166.685000572208,response,ISIC_0056226.JPG,7,ISIC_5176419.JPG,ISIC_0056226.JPG,false,1,keypress(m),500,122373.80000019073,122373.4000005722,118190.541,118205.80000019073,118206.715,122390.289,8,400,2,,ISIC_5176419.JPG
break,html.Screen,4_1_1,2023-11-06T15:25:56.624Z,,0,,,NaN,,,,,,false,,,,122374.70000076294,122374.5,,122374.10000038147,,122390.289,8,400,,,
break_continue,html.Screen,4_1_2,2023-11-06T15:25:56.624Z,,0,,,NaN,,,,,,false,,,,122375.20000076294,122375.10000038147,,122374.9000005722,,122390.289,8,400,,,
sequence,flow.Sequence,4_1,2023-11-06T15:25:56.624Z,,0,,,4168.385000381473,completion,,,,,false,,,,122375.30000019073,122375.10000038147,118190.541,118205.80000019073,118206.715,122390.289,8,400,,,
trial,html.Screen,4_2_0,2023-11-06T15:26:00.660Z,,0,1,,4021.0110001907306,response,ISIC_0027604.JPG,6,ISIC_0061343.JPG,ISIC_0027604.JPG,false,1,keypress(m),500,126411.5,126411.30000019073,122373.577,122375.4000005722,122390.289,126424.168,8,400,3,,ISIC_0061343.JPG
break,html.Screen,4_2_1,2023-11-06T15:26:00.662Z,,0,,,NaN,,,,,,false,,,,126412.60000038147,126412.10000038147,,126411.80000019073,,126424.168,8,400,,,
break_continue,html.Screen,4_2_2,2023-11-06T15:26:00.662Z,,0,,,NaN,,,,,,false,,,,126413,126412.9000005722,,126412.80000019073,,126424.168,8,400,,,
sequence,flow.Sequence,4_2,2023-11-06T15:26:00.662Z,,0,,,4022.6110005722003,completion,,,,,false,,,,126413.20000076294,126412.9000005722,122373.577,122375.30000019073,122390.289,126424.168,8,400,,,
trial,html.Screen,4_3_0,2023-11-06T15:26:04.432Z,,0,1,,3758.831999999995,response,ISIC_7266462.JPG,7,ISIC_0057067.JPG,ISIC_0057067.JPG,false,0,keypress(z),500,130183.20000076294,130183,126407.49,126413.20000076294,126424.168,130190.244,8,400,4,,ISIC_7266462.JPG
break,html.Screen,4_3_1,2023-11-06T15:26:04.433Z,,0,,,NaN,,,,,,false,,,,130184.20000076294,130183.80000019073,,130183.5,,130190.244,8,400,,,
break_continue,html.Screen,4_3_2,2023-11-06T15:26:04.434Z,,0,,,NaN,,,,,,false,,,,130184.60000038147,130184.60000038147,,130184.4000005722,,130190.244,8,400,,,
sequence,flow.Sequence,4_3,2023-11-06T15:26:04.434Z,,0,,,3760.4320003814646,completion,,,,,false,,,,130184.80000019073,130184.60000038147,126407.49,126413.20000076294,126424.168,130190.244,8,400,,,
trial,html.Screen,4_4_0,2023-11-06T15:26:08.057Z,,0,1,,3617.1560005721985,response,ISIC_2178689.JPG,5,ISIC_0014127.JPG,ISIC_0014127.JPG,false,0,keypress(z),500,133807.70000076294,133807.4000005722,130174.027,130185,130190.244,133823.645,8,400,5,,ISIC_2178689.JPG
break,html.Screen,4_4_1,2023-11-06T15:26:08.057Z,,0,,,NaN,,,,,,false,,,,133808.60000038147,133808.30000019073,,133807.9000005722,,133823.645,8,400,,,
break_continue,html.Screen,4_4_2,2023-11-06T15:26:08.058Z,,0,,,NaN,,,,,,false,,,,133809,133808.9000005722,,133808.70000076294,,133823.645,8,400,,,
sequence,flow.Sequence,4_4,2023-11-06T15:26:08.058Z,,0,,,3618.6560005721985,completion,,,,,false,,,,133809.20000076294,133808.9000005722,130174.027,130184.9000005722,130190.244,133823.645,8,400,,,
trial,html.Screen,4_5_0,2023-11-06T15:26:12.574Z,,0,1,,4501.155000190745,response,ISIC_5821131.JPG,7,ISIC_7728263.JPG,ISIC_7728263.JPG,false,0,keypress(z),500,138325,138324.80000019073,133807.596,133809.30000019073,133823.645,138340.846,8,400,6,,ISIC_5821131.JPG
break,html.Screen,4_5_1,2023-11-06T15:26:12.575Z,,0,,,NaN,,,,,,false,,,,138325.9000005722,138325.60000038147,,138325.30000019073,,138340.846,8,400,,,
break_continue,html.Screen,4_5_2,2023-11-06T15:26:12.575Z,,0,,,NaN,,,,,,false,,,,138326.20000076294,138326.20000076294,,138326,,138340.846,8,400,,,
sequence,flow.Sequence,4_5,2023-11-06T15:26:12.575Z,,0,,,4502.55500076295,completion,,,,,false,,,,138326.4000005722,138326.20000076294,133807.596,133809.20000076294,133823.645,138340.846,8,400,,,
trial,html.Screen,4_6_0,2023-11-06T15:26:16.323Z,,0,1,,3732.6540000000095,response,ISIC_0008162.JPG,5,ISIC_0032152.JPG,ISIC_0032152.JPG,false,0,keypress(z),500,142073.80000019073,142073.5,138324.366,138326.5,138340.846,142090.473,8,400,7,,ISIC_0008162.JPG
break,html.Screen,4_6_1,2023-11-06T15:26:16.324Z,,0,,,NaN,,,,,,false,,,,142074.9000005722,142074.5,,142074.10000038147,,142090.473,8,400,,,
break_continue,html.Screen,4_6_2,2023-11-06T15:26:16.324Z,,0,,,NaN,,,,,,false,,,,142075.4000005722,142075.20000076294,,142075.10000038147,,142090.473,8,400,,,
sequence,flow.Sequence,4_6,2023-11-06T15:26:16.324Z,,0,,,3734.354000762949,completion,,,,,false,,,,142075.5,142075.20000076294,138324.366,138326.5,138340.846,142090.473,8,400,,,
trial,html.Screen,4_7_0,2023-11-06T15:26:21.496Z,,0,1,,5156.327000190737,response,ISIC_3031937.JPG,7,ISIC_7172145.JPG,ISIC_7172145.JPG,false,0,keypress(z),500,147247.10000038147,147246.80000019073,142074.337,142075.70000076294,142090.473,147257.157,8,400,8,,ISIC_3031937.JPG
break,html.Screen,4_7_1,2023-11-06T15:26:21.497Z,,0,,,NaN,,,,,,false,,,,147248.10000038147,147247.70000076294,,147247.30000019073,,147257.157,8,400,,,
break_continue,html.Screen,4_7_2,2023-11-06T15:26:21.497Z,,0,,,NaN,,,,,,false,,,,147248.5,147248.4000005722,,147248.30000019073,,147257.157,8,400,,,
sequence,flow.Sequence,4_7,2023-11-06T15:26:21.498Z,,0,,,5157.927000572206,completion,,,,,false,,,,147248.60000038147,147248.4000005722,142074.337,142075.70000076294,142090.473,147257.157,8,400,,,
trial,html.Screen,4_8_0,2023-11-06T15:26:26.607Z,,0,1,,5100.643000190728,response,ISIC_0060660.JPG,7,ISIC_1461068.JPG,ISIC_0060660.JPG,false,1,keypress(m),500,152358.20000076294,152357.80000019073,147240.823,147248.70000076294,147257.157,152374.197,8,400,9,,ISIC_1461068.JPG
break,html.Screen,4_8_1,2023-11-06T15:26:26.608Z,,0,,,NaN,,,,,,false,,,,152359.10000038147,152358.80000019073,,152358.5,,152374.197,8,400,,,
break_continue,html.Screen,4_8_2,2023-11-06T15:26:26.608Z,,0,,,NaN,,,,,,false,,,,152359.60000038147,152359.4000005722,,152359.30000019073,,152374.197,8,400,,,
sequence,flow.Sequence,4_8,2023-11-06T15:26:26.609Z,,0,,,5102.243000572198,completion,,,,,false,,,,152359.70000076294,152359.4000005722,147240.823,147248.70000076294,147257.157,152374.197,8,400,,,
trial,html.Screen,4_9_0,2023-11-06T15:26:29.958Z,,0,1,,3335.003000762954,response,ISIC_0032190.JPG,10,ISIC_1988335.JPG,ISIC_0032190.JPG,false,1,keypress(m),500,155709.60000038147,155709.20000076294,152357.597,152359.9000005722,152374.197,155724.343,8,400,10,,ISIC_1988335.JPG
break,html.Screen,4_9_1,2023-11-06T15:26:29.960Z,,0,,,NaN,,,,,,false,,,,155710.80000019073,155710.4000005722,,155709.9000005722,,155724.343,8,400,,,
break_continue,html.Screen,4_9_2,2023-11-06T15:26:29.960Z,,0,,,NaN,,,,,,false,,,,155711.30000019073,155711.20000076294,,155711,,155724.343,8,400,,,
sequence,flow.Sequence,4_9,2023-11-06T15:26:29.960Z,,0,,,3337.003000762954,completion,,,,,false,,,,155711.5,155711.20000076294,152357.597,152359.80000019073,152374.197,155724.343,8,400,,,
trial,html.Screen,4_10_0,2023-11-06T15:26:34.606Z,,0,1,,4632.057000572211,response,ISIC_1039970.JPG,12,ISIC_5993356.JPG,ISIC_1039970.JPG,false,1,keypress(m),500,160356.80000019073,160356.4000005722,155707.359,155711.5,155724.343,160374.327,8,400,11,,ISIC_5993356.JPG
break,html.Screen,4_10_1,2023-11-06T15:26:34.607Z,,0,,,NaN,,,,,,false,,,,160357.9000005722,160357.5,,160357,,160374.327,8,400,,,
break_continue,html.Screen,4_10_2,2023-11-06T15:26:34.607Z,,0,,,NaN,,,,,,false,,,,160358.30000019073,160358.30000019073,,160358.10000038147,,160374.327,8,400,,,
sequence,flow.Sequence,4_10,2023-11-06T15:26:34.607Z,,0,,,4633.957000190741,completion,,,,,false,,,,160358.5,160358.30000019073,155707.359,155711.5,155724.343,160374.327,8,400,,,
trial,html.Screen,4_11_0,2023-11-06T15:26:40.582Z,,0,1,,5958.17300000001,response,ISIC_0872145.JPG,8,ISIC_1375476.JPG,ISIC_1375476.JPG,false,0,keypress(z),500,166332.80000019073,166332.5,160357.387,160358.60000038147,160374.327,166340.811,8,400,12,,ISIC_0872145.JPG
break,html.Screen,4_11_1,2023-11-06T15:26:40.583Z,,0,,,NaN,,,,,,false,,,,166333.80000019073,166333.4000005722,,166333,,166340.811,8,400,,,
break_continue,html.Screen,4_11_2,2023-11-06T15:26:40.583Z,,0,,,NaN,,,,,,false,,,,166334.20000076294,166334.20000076294,,166334,,166340.811,8,400,,,
sequence,flow.Sequence,4_11,2023-11-06T15:26:40.583Z,,0,,,5959.873000762949,completion,,,,,false,,,,166334.4000005722,166334.20000076294,160357.387,160358.5,160374.327,166340.811,8,400,,,
trial,html.Screen,4_12_0,2023-11-06T15:26:44.140Z,,0,1,,3549.5890005722176,response,ISIC_5934239.JPG,8,ISIC_1067390.JPG,ISIC_5934239.JPG,false,1,keypress(m),500,169890.60000038147,169890.4000005722,166324.729,166334.5,166340.811,169907.789,8,400,13,,ISIC_1067390.JPG
break,html.Screen,4_12_1,2023-11-06T15:26:44.140Z,,0,,,NaN,,,,,,false,,,,169891.5,169891.20000076294,,169890.80000019073,,169907.789,8,400,,,
break_continue,html.Screen,4_12_2,2023-11-06T15:26:44.141Z,,0,,,NaN,,,,,,false,,,,169891.9000005722,169891.80000019073,,169891.60000038147,,169907.789,8,400,,,
sequence,flow.Sequence,4_12,2023-11-06T15:26:44.141Z,,0,,,3550.989000190748,completion,,,,,false,,,,169892,169891.80000019073,166324.729,166334.5,166340.811,169907.789,8,400,,,
trial,html.Screen,4_13_0,2023-11-06T15:26:47.880Z,,0,1,,3720.011000190745,response,ISIC_5181177.JPG,9,ISIC_0026103.JPG,ISIC_0026103.JPG,false,0,keypress(z),500,173628,173627.80000019073,169891.204,169892.20000076294,169907.789,173641.507,8,400,14,,ISIC_5181177.JPG
break,html.Screen,4_13_1,2023-11-06T15:26:47.881Z,,0,,,NaN,,,,,,false,,,,173629,173628.60000038147,,173628.20000076294,,173641.507,8,400,,,
break_continue,html.Screen,4_13_2,2023-11-06T15:26:47.882Z,,0,,,NaN,,,,,,false,,,,173629.4000005722,173629.30000019073,,173629.10000038147,,173641.507,8,400,,,
sequence,flow.Sequence,4_13,2023-11-06T15:26:47.882Z,,0,,,3721.511000190745,completion,,,,,false,,,,173629.5,173629.30000019073,169891.204,169892.20000076294,169907.789,173641.507,8,400,,,
trial,html.Screen,4_14_0,2023-11-06T15:26:51.150Z,,0,1,,3256.0930003814574,response,ISIC_0011799.JPG,5,ISIC_0054185.JPG,ISIC_0054185.JPG,false,0,keypress(z),500,176897.9000005722,176897.60000038147,173624.844,173629.60000038147,173641.507,176907.956,8,400,15,,ISIC_0011799.JPG
break,html.Screen,4_14_1,2023-11-06T15:26:51.151Z,,0,,,NaN,,,,,,false,,,,176898.9000005722,176898.5,,176898.20000076294,,176907.956,8,400,,,
break_continue,html.Screen,4_14_2,2023-11-06T15:26:51.152Z,,0,,,NaN,,,,,,false,,,,176899.20000076294,176899.20000076294,,176899.10000038147,,176907.956,8,400,,,
sequence,flow.Sequence,4_14,2023-11-06T15:26:51.152Z,,0,,,3257.693000762927,completion,,,,,false,,,,176899.4000005722,176899.20000076294,173624.844,173629.60000038147,173641.507,176907.956,8,400,,,
trial,html.Screen,4_15_0,2023-11-06T15:26:58.902Z,,0,1,,7741.444000572199,response,ISIC_0481702.JPG,4,ISIC_0033834.JPG,ISIC_0033834.JPG,false,0,keypress(z),500,184649.70000076294,184649.4000005722,176891.578,176899.5,176907.956,184657.695,8,400,16,,ISIC_0481702.JPG
break,html.Screen,4_15_1,2023-11-06T15:26:58.903Z,,0,,,NaN,,,,,,false,,,,184650.70000076294,184650.20000076294,,184649.80000019073,,184657.695,8,400,,,
break_continue,html.Screen,4_15_2,2023-11-06T15:26:58.904Z,,0,,,NaN,,,,,,false,,,,184651.10000038147,184651,,184650.9000005722,,184657.695,8,400,,,
sequence,flow.Sequence,4_15,2023-11-06T15:26:58.904Z,,0,,,7743.043999999994,completion,,,,,false,,,,184651.20000076294,184651,176891.578,176899.5,176907.956,184657.695,8,400,,,
trial,html.Screen,4_16_0,2023-11-06T15:27:06.210Z,,0,1,,7299.405000381463,response,ISIC_0064623.JPG,6,ISIC_1508215.JPG,ISIC_1508215.JPG,false,0,keypress(z),500,191957.4000005722,191957.10000038147,184641.7,184651.4000005722,184657.695,191974.54,8,400,17,,ISIC_0064623.JPG
break,html.Screen,4_16_1,2023-11-06T15:27:06.211Z,,0,,,NaN,,,,,,false,,,,191958.30000019073,191957.9000005722,,191957.70000076294,,191974.54,8,400,,,
break_continue,html.Screen,4_16_2,2023-11-06T15:27:06.211Z,,0,,,NaN,,,,,,false,,,,191958.80000019073,191958.70000076294,,191958.5,,191974.54,8,400,,,
sequence,flow.Sequence,4_16,2023-11-06T15:27:06.211Z,,0,,,7301.0050007629325,completion,,,,,false,,,,191958.80000019073,191958.70000076294,184641.7,184651.30000019073,184657.695,191974.54,8,400,,,
trial,html.Screen,4_17_0,2023-11-06T15:27:11.285Z,,0,1,,5057.959999999992,response,ISIC_1543544.JPG,11,ISIC_0025748.JPG,ISIC_0025748.JPG,false,0,keypress(z),500,197033,197032.5,191957.839,191959,191974.54,197041.192,8,400,18,,ISIC_1543544.JPG
break,html.Screen,4_17_1,2023-11-06T15:27:11.287Z,,0,,,NaN,,,,,,false,,,,197034,197033.70000076294,,197033.20000076294,,197041.192,8,400,,,
break_continue,html.Screen,4_17_2,2023-11-06T15:27:11.287Z,,0,,,NaN,,,,,,false,,,,197034.60000038147,197034.4000005722,,197034.20000076294,,197041.192,8,400,,,
sequence,flow.Sequence,4_17,2023-11-06T15:27:11.287Z,,0,,,5059.860000572196,completion,,,,,false,,,,197034.80000019073,197034.4000005722,191957.839,191958.9000005722,191974.54,197041.192,8,400,,,
trial,html.Screen,4_18_0,2023-11-06T15:27:16.318Z,,0,1,,5023.608000190725,response,ISIC_8139762.JPG,9,ISIC_4325452.JPG,ISIC_8139762.JPG,false,1,keypress(m),500,202065,202064.80000019073,197024.622,197035,197041.192,202074.703,8,400,19,,ISIC_4325452.JPG
break,html.Screen,4_18_1,2023-11-06T15:27:16.319Z,,0,,,NaN,,,,,,false,,,,202066,202065.60000038147,,202065.20000076294,,202074.703,8,400,,,
break_continue,html.Screen,4_18_2,2023-11-06T15:27:16.319Z,,0,,,NaN,,,,,,false,,,,202066.4000005722,202066.30000019073,,202066.20000076294,,202074.703,8,400,,,
sequence,flow.Sequence,4_18,2023-11-06T15:27:16.319Z,,0,,,5025.108000190725,completion,,,,,false,,,,202066.5,202066.30000019073,197024.622,197034.9000005722,197041.192,202074.703,8,400,,,
trial,html.Screen,4_19_0,2023-11-06T15:27:23.507Z,,0,1,,7179.796999999991,response,ISIC_0011177.JPG,8,ISIC_8792007.JPG,ISIC_0011177.JPG,false,1,keypress(m),500,209254.80000019073,209254.5,202058.603,202066.60000038147,202074.703,209258.11,8,400,20,,ISIC_8792007.JPG
break,html.Screen,4_19_1,2023-11-06T15:27:23.508Z,,0,,,NaN,,,,,,false,,,,209255.60000038147,209255.30000019073,,209255,,209258.11,8,400,,,
break_continue,html.Screen,4_19_2,2023-11-06T15:27:23.509Z,,0,,,NaN,,,,,,false,,,,209256.10000038147,209255.9000005722,,209255.80000019073,,209258.11,8,400,,,
sequence,flow.Sequence,4_19,2023-11-06T15:27:23.509Z,,0,,,7181.197000572196,completion,,,,,false,,,,209256.10000038147,209255.9000005722,202058.603,202066.60000038147,202074.703,209258.11,8,400,,,
trial,html.Screen,4_20_0,2023-11-06T15:27:30.120Z,,0,1,,6609.290000572219,response,ISIC_0026039.JPG,8,ISIC_0005264.JPG,ISIC_0026039.JPG,false,1,keypress(m),500,215867.70000076294,215867.4000005722,209241.791,209256.30000019073,209258.11,215874.851,8,400,21,,ISIC_0005264.JPG
break,html.Screen,4_20_1,2023-11-06T15:27:30.121Z,,0,,,NaN,,,,,,false,,,,215868.70000076294,215868.30000019073,,215867.9000005722,,215874.851,8,400,,,
break_continue,html.Screen,4_20_2,2023-11-06T15:27:30.122Z,,0,,,NaN,,,,,,false,,,,215869.20000076294,215869,,215868.9000005722,,215874.851,8,400,,,
sequence,flow.Sequence,4_20,2023-11-06T15:27:30.122Z,,0,,,6610.890000000014,completion,,,,,false,,,,215869.30000019073,215869,209241.791,209256.20000076294,209258.11,215874.851,8,400,,,
trial,html.Screen,4_21_0,2023-11-06T15:27:35.617Z,,0,1,,5489.149000000005,response,ISIC_0013588.JPG,12,ISIC_4453506.JPG,ISIC_0013588.JPG,false,1,keypress(m),500,221364.30000019073,221364,215858.783,215869.4000005722,215874.851,221374.98,8,400,22,,ISIC_4453506.JPG
break,html.Screen,4_21_1,2023-11-06T15:27:35.618Z,,0,,,NaN,,,,,,false,,,,221365.10000038147,221364.80000019073,,221364.4000005722,,221374.98,8,400,,,
break_continue,html.Screen,4_21_2,2023-11-06T15:27:35.618Z,,0,,,NaN,,,,,,false,,,,221365.5,221365.4000005722,,221365.20000076294,,221374.98,8,400,,,
sequence,flow.Sequence,4_21,2023-11-06T15:27:35.618Z,,0,,,5490.5490005722095,completion,,,,,false,,,,221365.70000076294,221365.4000005722,215858.783,215869.30000019073,215874.851,221374.98,8,400,,,
trial,html.Screen,4_22_0,2023-11-06T15:27:41.388Z,,0,1,,5760.120000381459,response,ISIC_4897852.JPG,7,ISIC_3816833.JPG,ISIC_4897852.JPG,false,1,keypress(m),500,227135.5,227135.10000038147,221358.309,221365.80000019073,221374.98,227141.669,8,400,23,,ISIC_3816833.JPG
break,html.Screen,4_22_1,2023-11-06T15:27:41.389Z,,0,,,NaN,,,,,,false,,,,227136.20000076294,227136,,227135.60000038147,,227141.669,8,400,,,
break_continue,html.Screen,4_22_2,2023-11-06T15:27:41.390Z,,0,,,NaN,,,,,,false,,,,227137.70000076294,227137.5,,227137.4000005722,,227141.669,8,400,,,
sequence,flow.Sequence,4_22,2023-11-06T15:27:41.390Z,,0,,,5762.5199999999895,completion,,,,,false,,,,227137.80000019073,227137.5,221358.309,221365.80000019073,221374.98,227141.669,8,400,,,
trial,html.Screen,4_23_0,2023-11-06T15:27:45.616Z,,0,1,,4221.23100057221,response,ISIC_0033037.JPG,9,ISIC_0010262.JPG,ISIC_0033037.JPG,false,1,keypress(m),500,231363.10000038147,231362.9000005722,227125.628,227137.9000005722,227141.669,231392.356,8,400,24,,ISIC_0010262.JPG
break,html.Screen,4_23_1,2023-11-06T15:27:45.616Z,,0,,,NaN,,,,,,false,,,,231363.80000019073,231363.60000038147,,231363.4000005722,,231392.356,8,400,,,
break_continue,html.Screen,4_23_2,2023-11-06T15:27:45.617Z,,0,,,NaN,,,,,,false,,,,231364.10000038147,231364,,231363.9000005722,,231392.356,8,400,,,
sequence,flow.Sequence,4_23,2023-11-06T15:27:45.617Z,,0,,,4222.331000000006,completion,,,,,false,,,,231364.30000019073,231364,227125.628,227137.9000005722,227141.669,231392.356,8,400,,,
trial,html.Screen,4_24_0,2023-11-06T15:27:51.531Z,,0,1,,5885.34400076294,response,ISIC_9126992.JPG,11,ISIC_4289906.JPG,ISIC_4289906.JPG,false,0,keypress(z),500,237278,237277.70000076294,231375.725,231364.4000005722,231392.356,237292.439,8,400,25,,ISIC_9126992.JPG
break,html.Screen,4_24_1,2023-11-06T15:27:51.531Z,,0,,,NaN,,,,,,false,,,,237278.80000019073,237278.5,,237278.30000019073,,237292.439,8,400,,,
break_continue,html.Screen,4_24_2,2023-11-06T15:27:51.532Z,,0,,,NaN,,,,,,false,,,,237279.20000076294,237279.20000076294,,237279,,237292.439,8,400,,,
sequence,flow.Sequence,4_24,2023-11-06T15:27:51.532Z,,0,,,5886.84400076294,completion,,,,,false,,,,237279.4000005722,237279.20000076294,231375.725,231364.4000005722,231392.356,237292.439,8,400,,,
trial,html.Screen,4_25_0,2023-11-06T15:27:59.076Z,,0,1,,7530.961000572192,response,ISIC_0026963.JPG,12,ISIC_5153848.JPG,ISIC_5153848.JPG,false,0,keypress(z),500,244823.60000038147,244823.4000005722,237275.438,237279.5,237292.439,244846.912,8,400,26,,ISIC_0026963.JPG
break,html.Screen,4_25_1,2023-11-06T15:27:59.077Z,,0,,,NaN,,,,,,false,,,,244824.30000019073,244824.10000038147,,244823.70000076294,,244846.912,8,400,,,
break_continue,html.Screen,4_25_2,2023-11-06T15:27:59.077Z,,0,,,NaN,,,,,,false,,,,244824.80000019073,244824.70000076294,,244824.5,,244846.912,8,400,,,
sequence,flow.Sequence,4_25,2023-11-06T15:27:59.077Z,,0,,,7532.261000762926,completion,,,,,false,,,,244824.9000005722,244824.70000076294,237275.438,237279.5,237292.439,244846.912,8,400,,,
trial,html.Screen,4_26_0,2023-11-06T15:28:02.525Z,,0,1,,3425.1880003814586,response,ISIC_0057067.JPG,9,ISIC_0034262.JPG,ISIC_0057067.JPG,false,1,keypress(m),500,248272.4000005722,248272.10000038147,244809.245,244825.10000038147,244846.912,248275.348,8,400,27,,ISIC_0034262.JPG
break,html.Screen,4_26_1,2023-11-06T15:28:02.526Z,,0,,,NaN,,,,,,false,,,,248273.10000038147,248272.9000005722,,248272.60000038147,,248275.348,8,400,,,
break_continue,html.Screen,4_26_2,2023-11-06T15:28:02.526Z,,0,,,NaN,,,,,,false,,,,248273.60000038147,248273.5,,248273.30000019073,,248275.348,8,400,,,
sequence,flow.Sequence,4_26,2023-11-06T15:28:02.526Z,,0,,,3426.587999999989,completion,,,,,false,,,,248273.70000076294,248273.5,244809.245,244825,244846.912,248275.348,8,400,,,
trial,html.Screen,4_27_0,2023-11-06T15:28:06.977Z,,0,1,,4449.252000381472,response,ISIC_5931552.JPG,7,ISIC_2283628.JPG,ISIC_5931552.JPG,false,1,keypress(m),500,252724.9000005722,252724.60000038147,248259.283,248273.80000019073,248275.348,252742.407,8,400,28,,ISIC_2283628.JPG
break,html.Screen,4_27_1,2023-11-06T15:28:06.978Z,,0,,,NaN,,,,,,false,,,,252725.80000019073,252725.5,,252725.20000076294,,252742.407,8,400,,,
break_continue,html.Screen,4_27_2,2023-11-06T15:28:06.979Z,,0,,,NaN,,,,,,false,,,,252726.20000076294,252726.10000038147,,252725.9000005722,,252742.407,8,400,,,
sequence,flow.Sequence,4_27,2023-11-06T15:28:06.979Z,,0,,,4450.752000381472,completion,,,,,false,,,,252726.30000019073,252726.10000038147,248259.283,248273.70000076294,248275.348,252742.407,8,400,,,
trial,html.Screen,4_28_0,2023-11-06T15:28:10.166Z,,0,1,,3170.993000572198,response,ISIC_0063568.JPG,11,ISIC_0010046.JPG,ISIC_0063568.JPG,false,1,keypress(m),500,255913.70000076294,255913.4000005722,252709.966,252726.4000005722,252742.407,255926.051,8,400,29,,ISIC_0010046.JPG
break,html.Screen,4_28_1,2023-11-06T15:28:10.167Z,,0,,,NaN,,,,,,false,,,,255914.70000076294,255914.20000076294,,255913.9000005722,,255926.051,8,400,,,
break_continue,html.Screen,4_28_2,2023-11-06T15:28:10.168Z,,0,,,NaN,,,,,,false,,,,255915,255915,,255914.80000019073,,255926.051,8,400,,,
sequence,flow.Sequence,4_28,2023-11-06T15:28:10.168Z,,0,,,3172.5929999999935,completion,,,,,false,,,,255915.20000076294,255915,252709.966,252726.4000005722,252742.407,255926.051,8,400,,,
trial,html.Screen,4_29_0,2023-11-06T15:28:17.759Z,,0,1,,7580.349000572198,response,ISIC_0024263.JPG,11,ISIC_5415749.JPG,ISIC_5415749.JPG,false,0,keypress(z),500,263506.70000076294,263506.4000005722,255909.387,255915.30000019073,255926.051,263508.898,8,400,30,,ISIC_0024263.JPG
break,html.Screen,4_29_1,2023-11-06T15:28:17.760Z,,0,,,NaN,,,,,,false,,,,263507.60000038147,263507.20000076294,,263506.9000005722,,263508.898,8,400,,,
break_continue,html.Screen,4_29_2,2023-11-06T15:28:17.761Z,,0,,,NaN,,,,,,false,,,,263507.9000005722,263507.9000005722,,263507.70000076294,,263508.898,8,400,,,
sequence,flow.Sequence,4_29,2023-11-06T15:28:17.761Z,,0,,,7581.849000572198,completion,,,,,false,,,,263508.10000038147,263507.9000005722,255909.387,255915.30000019073,255926.051,263508.898,8,400,,,
trial,html.Screen,4_30_0,2023-11-06T15:28:21.557Z,,0,1,,3795.7020003814832,response,ISIC_0058625.JPG,10,ISIC_9069800.JPG,ISIC_9069800.JPG,false,0,keypress(z),500,267304.80000019073,267304.60000038147,263492.816,263508.20000076294,263508.898,267308.918,8,400,31,,ISIC_0058625.JPG
break,html.Screen,4_30_1,2023-11-06T15:28:21.558Z,,0,,,NaN,,,,,,false,,,,267305.60000038147,267305.30000019073,,267305,,267308.918,8,400,,,
break_continue,html.Screen,4_30_2,2023-11-06T15:28:21.558Z,,0,,,NaN,,,,,,false,,,,267305.9000005722,267305.80000019073,,267305.70000076294,,267308.918,8,400,,,
sequence,flow.Sequence,4_30,2023-11-06T15:28:21.559Z,,0,,,3796.9020001907484,completion,,,,,false,,,,267306.10000038147,267305.80000019073,263492.816,263508.20000076294,263508.898,267308.918,8,400,,,
trial,html.Screen,4_31_0,2023-11-06T15:28:26.732Z,,0,1,,5170.4820005721995,response,ISIC_0028152.JPG,11,ISIC_0000401.JPG,ISIC_0000401.JPG,false,0,keypress(z),500,272479.60000038147,272479.4000005722,267292.883,267306.20000076294,267308.918,272492.394,8,400,32,,ISIC_0028152.JPG
break,html.Screen,4_31_1,2023-11-06T15:28:26.733Z,,0,,,NaN,,,,,,false,,,,272480.5,272480.20000076294,,272479.80000019073,,272492.394,8,400,,,
break_continue,html.Screen,4_31_2,2023-11-06T15:28:26.733Z,,0,,,NaN,,,,,,false,,,,272480.9000005722,272480.80000019073,,272480.70000076294,,272492.394,8,400,,,
sequence,flow.Sequence,4_31,2023-11-06T15:28:26.734Z,,0,,,5171.88200019073,completion,,,,,false,,,,272481,272480.80000019073,267292.883,267306.10000038147,267308.918,272492.394,8,400,,,
trial,html.Screen,4_32_0,2023-11-06T15:28:31.121Z,,0,1,,4375.206000381499,response,ISIC_5194705.JPG,7,ISIC_0438136.JPG,ISIC_5194705.JPG,false,1,keypress(m),500,276868,276867.60000038147,272475.748,272481.10000038147,272492.394,276875.7,8,400,33,,ISIC_0438136.JPG
break,html.Screen,4_32_1,2023-11-06T15:28:31.121Z,,0,,,NaN,,,,,,false,,,,276868.9000005722,276868.5,,276868.20000076294,,276875.7,8,400,,,
break_continue,html.Screen,4_32_2,2023-11-06T15:28:31.122Z,,0,,,NaN,,,,,,false,,,,276869.30000019073,276869.10000038147,,276869,,276875.7,8,400,,,
sequence,flow.Sequence,4_32,2023-11-06T15:28:31.122Z,,0,,,4376.706000381499,completion,,,,,false,,,,276869.4000005722,276869.10000038147,272475.748,272481.10000038147,272492.394,276875.7,8,400,,,
trial,html.Screen,4_33_0,2023-11-06T15:28:35.226Z,,0,1,,4098.000000762928,response,ISIC_7601403.JPG,7,ISIC_6334958.JPG,ISIC_7601403.JPG,false,1,keypress(m),500,280973.9000005722,280973.70000076294,276859.689,276869.5,276875.7,280975.812,8,400,34,,ISIC_6334958.JPG
break,html.Screen,4_33_1,2023-11-06T15:28:35.227Z,,0,,,NaN,,,,,,false,,,,280974.70000076294,280974.4000005722,,280974.10000038147,,280975.812,8,400,,,
break_continue,html.Screen,4_33_2,2023-11-06T15:28:35.228Z,,0,,,NaN,,,,,,false,,,,280975.10000038147,280975.10000038147,,280974.9000005722,,280975.812,8,400,,,
sequence,flow.Sequence,4_33,2023-11-06T15:28:35.228Z,,0,,,4099.400000381458,completion,,,,,false,,,,280975.30000019073,280975.10000038147,276859.689,276869.5,276875.7,280975.812,8,400,,,
trial,html.Screen,4_34_0,2023-11-06T15:28:43.632Z,,0,1,,8403.688000000024,response,ISIC_2396791.JPG,5,ISIC_0000175.JPG,ISIC_0000175.JPG,false,0,keypress(z),500,289379.70000076294,289379.5,280959.617,280975.30000019073,280975.812,289393.195,8,400,35,,ISIC_2396791.JPG
break,html.Screen,4_34_1,2023-11-06T15:28:43.633Z,,0,,,NaN,,,,,,false,,,,289380.70000076294,289380.30000019073,,289379.9000005722,,289393.195,8,400,,,
break_continue,html.Screen,4_34_2,2023-11-06T15:28:43.634Z,,0,,,NaN,,,,,,false,,,,289381.10000038147,289381,,289380.9000005722,,289393.195,8,400,,,
sequence,flow.Sequence,4_34,2023-11-06T15:28:43.634Z,,0,,,8405.188000000024,completion,,,,,false,,,,289381.10000038147,289381,280959.617,280975.30000019073,280975.812,289393.195,8,400,,,
trial,html.Screen,4_35_0,2023-11-06T15:28:50.377Z,,0,1,,6731.304999999993,response,ISIC_0058594.JPG,10,ISIC_4894929.JPG,ISIC_0058594.JPG,false,1,keypress(m),500,296124.70000076294,296124.5,289376.521,289381.30000019073,289393.195,296148.325,8,400,36,,ISIC_4894929.JPG
break,html.Screen,4_35_1,2023-11-06T15:28:50.378Z,,0,,,NaN,,,,,,false,,,,296125.60000038147,296125.30000019073,,296125,,296148.325,8,400,,,
break_continue,html.Screen,4_35_2,2023-11-06T15:28:50.379Z,,0,,,NaN,,,,,,false,,,,296126,296125.9000005722,,296125.80000019073,,296148.325,8,400,,,
sequence,flow.Sequence,4_35,2023-11-06T15:28:50.379Z,,0,,,6732.705000572198,completion,,,,,false,,,,296126.10000038147,296125.9000005722,289376.521,289381.30000019073,289393.195,296148.325,8,400,,,
trial,html.Screen,4_36_0,2023-11-06T15:28:57.313Z,,0,1,,6911.575000572193,response,ISIC_0046645.JPG,10,ISIC_0034140.JPG,ISIC_0046645.JPG,false,1,keypress(m),500,303060.30000019073,303059.9000005722,296109.45,296126.30000019073,296148.325,303076.205,8,400,37,,ISIC_0034140.JPG
break,html.Screen,4_36_1,2023-11-06T15:28:57.314Z,,0,,,NaN,,,,,,false,,,,303061.10000038147,303060.9000005722,,303060.5,,303076.205,8,400,,,
break_continue,html.Screen,4_36_2,2023-11-06T15:28:57.314Z,,0,,,NaN,,,,,,false,,,,303061.5,303061.4000005722,,303061.20000076294,,303076.205,8,400,,,
sequence,flow.Sequence,4_36,2023-11-06T15:28:57.314Z,,0,,,6913.075000572193,completion,,,,,false,,,,303061.70000076294,303061.4000005722,296109.45,296126.20000076294,296148.325,303076.205,8,400,,,
trial,html.Screen,4_37_0,2023-11-06T15:29:02.843Z,,0,1,,5514.294999999984,response,ISIC_9409255.JPG,7,ISIC_0813342.JPG,ISIC_9409255.JPG,false,1,keypress(m),500,308590.80000019073,308590.5,303060.07,303061.80000019073,303076.205,308592.888,8,400,38,,ISIC_0813342.JPG
break,html.Screen,4_37_1,2023-11-06T15:29:02.844Z,,0,,,NaN,,,,,,false,,,,308591.60000038147,308591.30000019073,,308591,,308592.888,8,400,,,
break_continue,html.Screen,4_37_2,2023-11-06T15:29:02.845Z,,0,,,NaN,,,,,,false,,,,308592,308591.9000005722,,308591.80000019073,,308592.888,8,400,,,
sequence,flow.Sequence,4_37,2023-11-06T15:29:02.845Z,,0,,,5515.695000572188,completion,,,,,false,,,,308592.10000038147,308591.9000005722,303060.07,303061.70000076294,303076.205,308592.888,8,400,,,
trial,html.Screen,4_38_0,2023-11-06T15:29:06.431Z,,0,1,,3585.612000000023,response,ISIC_0066378.JPG,10,ISIC_6995731.JPG,ISIC_0066378.JPG,false,1,keypress(m),500,312178.80000019073,312178.5,308576.825,308592.30000019073,308592.888,312193.546,8,400,39,,ISIC_6995731.JPG
break,html.Screen,4_38_1,2023-11-06T15:29:06.432Z,,0,,,NaN,,,,,,false,,,,312179.70000076294,312179.30000019073,,312178.9000005722,,312193.546,8,400,,,
break_continue,html.Screen,4_38_2,2023-11-06T15:29:06.433Z,,0,,,NaN,,,,,,false,,,,312180.10000038147,312180,,312179.9000005722,,312193.546,8,400,,,
sequence,flow.Sequence,4_38,2023-11-06T15:29:06.433Z,,0,,,3587.112000000023,completion,,,,,false,,,,312180.20000076294,312180,308576.825,308592.20000076294,308592.888,312193.546,8,400,,,
trial,html.Screen,4_39_0,2023-11-06T15:29:10.755Z,,0,1,,4309.054000381497,response,ISIC_7349440.JPG,5,ISIC_7268123.JPG,ISIC_7349440.JPG,false,1,keypress(m),500,316502.9000005722,316502.60000038147,312176.802,312180.4000005722,312193.546,316509.668,8,400,40,,ISIC_7268123.JPG
break,html.Screen,4_39_1,2023-11-06T15:29:10.757Z,,0,,,NaN,,,,,,false,,,,316504,316503.70000076294,,316503.30000019073,,316509.668,8,400,,,
break_continue,html.Screen,4_39_2,2023-11-06T15:29:10.757Z,,0,,,NaN,,,,,,false,,,,316504.60000038147,316504.5,,316504.20000076294,,316509.668,8,400,,,
sequence,flow.Sequence,4_39,2023-11-06T15:29:10.757Z,,0,,,4310.954000000027,completion,,,,,false,,,,316504.70000076294,316504.5,312176.802,312180.30000019073,312193.546,316509.668,8,400,,,
trial,html.Screen,4_40_0,2023-11-06T15:29:15.742Z,,0,1,,4979.63200019073,response,ISIC_0897526.JPG,12,ISIC_8135400.JPG,ISIC_0897526.JPG,false,1,keypress(m),500,321489.5,321489.30000019073,316493.627,316504.80000019073,316509.668,321493.041,8,400,41,,ISIC_8135400.JPG
break,html.Screen,4_40_1,2023-11-06T15:29:15.743Z,,0,,,NaN,,,,,,false,,,,321490.5,321490.10000038147,,321489.70000076294,,321493.041,8,400,,,
break_continue,html.Screen,4_40_2,2023-11-06T15:29:15.744Z,,0,,,NaN,,,,,,false,,,,321491.10000038147,321491,,321490.80000019073,,321493.041,8,400,,,
sequence,flow.Sequence,4_40,2023-11-06T15:29:15.744Z,,0,,,4981.331999999995,completion,,,,,false,,,,321491.30000019073,321491,316493.627,316504.80000019073,316509.668,321493.041,8,400,,,
trial,html.Screen,4_41_0,2023-11-06T15:29:20.313Z,,0,1,,4567.059000381443,response,ISIC_0014366.JPG,7,ISIC_9745562.JPG,ISIC_0014366.JPG,false,1,keypress(m),500,326060.4000005722,326060.10000038147,321477.002,321491.5,321493.041,326076.451,8,400,42,,ISIC_9745562.JPG
break,html.Screen,4_41_1,2023-11-06T15:29:20.314Z,,0,,,NaN,,,,,,false,,,,326061.20000076294,326060.9000005722,,326060.60000038147,,326076.451,8,400,,,
break_continue,html.Screen,4_41_2,2023-11-06T15:29:20.314Z,,0,,,NaN,,,,,,false,,,,326061.60000038147,326061.60000038147,,326061.30000019073,,326076.451,8,400,,,
sequence,flow.Sequence,4_41,2023-11-06T15:29:20.314Z,,0,,,4568.559000381443,completion,,,,,false,,,,326061.80000019073,326061.60000038147,321477.002,321491.4000005722,321493.041,326076.451,8,400,,,
trial,html.Screen,4_42_0,2023-11-06T15:29:24.065Z,,0,1,,3735.849000190734,response,ISIC_0000522.JPG,6,ISIC_9449365.JPG,ISIC_0000522.JPG,false,1,keypress(m),500,329812.60000038147,329812.30000019073,326060.126,326061.80000019073,326076.451,329827.14,8,400,43,,ISIC_9449365.JPG
break,html.Screen,4_42_1,2023-11-06T15:29:24.066Z,,0,,,NaN,,,,,,false,,,,329813.5,329813.10000038147,,329812.80000019073,,329827.14,8,400,,,
break_continue,html.Screen,4_42_2,2023-11-06T15:29:24.066Z,,0,,,NaN,,,,,,false,,,,329813.9000005722,329813.80000019073,,329813.70000076294,,329827.14,8,400,,,
sequence,flow.Sequence,4_42,2023-11-06T15:29:24.067Z,,0,,,3737.349000190734,completion,,,,,false,,,,329814,329813.80000019073,326060.126,326061.80000019073,326076.451,329827.14,8,400,,,
trial,html.Screen,4_43_0,2023-11-06T15:29:29.323Z,,0,1,,5243.359999999986,response,ISIC_0011607.JPG,12,ISIC_0031935.JPG,ISIC_0011607.JPG,false,1,keypress(m),500,335070.70000076294,335070.5,329810.458,329814.10000038147,329827.14,335077.398,8,400,44,,ISIC_0031935.JPG
break,html.Screen,4_43_1,2023-11-06T15:29:29.324Z,,0,,,NaN,,,,,,false,,,,335071.80000019073,335071.4000005722,,335071,,335077.398,8,400,,,
break_continue,html.Screen,4_43_2,2023-11-06T15:29:29.325Z,,0,,,NaN,,,,,,false,,,,335072.20000076294,335072.10000038147,,335071.9000005722,,335077.398,8,400,,,
sequence,flow.Sequence,4_43,2023-11-06T15:29:29.325Z,,0,,,5244.960000381456,completion,,,,,false,,,,335072.30000019073,335072.10000038147,329810.458,329814.10000038147,329827.14,335077.398,8,400,,,
trial,html.Screen,4_44_0,2023-11-06T15:29:34.581Z,,0,1,,5250.202000381483,response,ISIC_9927486.JPG,6,ISIC_0014844.JPG,ISIC_0014844.JPG,false,0,keypress(z),500,340328.10000038147,340327.60000038147,335060.065,335072.5,335077.398,340343.921,8,400,45,,ISIC_9927486.JPG
break,html.Screen,4_44_1,2023-11-06T15:29:34.581Z,,0,,,NaN,,,,,,false,,,,340328.9000005722,340328.60000038147,,340328.30000019073,,340343.921,8,400,,,
break_continue,html.Screen,4_44_2,2023-11-06T15:29:34.582Z,,0,,,NaN,,,,,,false,,,,340329.30000019073,340329.20000076294,,340329.10000038147,,340343.921,8,400,,,
sequence,flow.Sequence,4_44,2023-11-06T15:29:34.582Z,,0,,,5251.802000762953,completion,,,,,false,,,,340329.5,340329.20000076294,335060.065,335072.5,335077.398,340343.921,8,400,,,
trial,html.Screen,4_45_0,2023-11-06T15:29:38.330Z,,0,1,,3732.9790005722316,response,ISIC_0011388.JPG,5,ISIC_0059722.JPG,ISIC_0011388.JPG,false,1,keypress(m),500,344077.4000005722,344076.9000005722,340326.646,340329.60000038147,340343.921,344093.711,8,400,46,,ISIC_0059722.JPG
break,html.Screen,4_45_1,2023-11-06T15:29:38.331Z,,0,,,NaN,,,,,,false,,,,344078.20000076294,344077.9000005722,,344077.60000038147,,344093.711,8,400,,,
break_continue,html.Screen,4_45_2,2023-11-06T15:29:38.331Z,,0,,,NaN,,,,,,false,,,,344078.60000038147,344078.5,,344078.30000019073,,344093.711,8,400,,,
sequence,flow.Sequence,4_45,2023-11-06T15:29:38.331Z,,0,,,3734.579000000027,completion,,,,,false,,,,344078.80000019073,344078.5,340326.646,340329.60000038147,340343.921,344093.711,8,400,,,
trial,html.Screen,4_46_0,2023-11-06T15:29:43.539Z,,0,1,,5192.3890003814595,response,ISIC_6339509.JPG,5,ISIC_0066150.JPG,ISIC_0066150.JPG,false,0,keypress(z),500,349286.30000019073,349286.10000038147,344077.335,344078.80000019073,344093.711,349293.42,8,400,47,,ISIC_6339509.JPG
break,html.Screen,4_46_1,2023-11-06T15:29:43.540Z,,0,,,NaN,,,,,,false,,,,349287.30000019073,349286.9000005722,,349286.60000038147,,349293.42,8,400,,,
break_continue,html.Screen,4_46_2,2023-11-06T15:29:43.540Z,,0,,,NaN,,,,,,false,,,,349287.70000076294,349287.60000038147,,349287.5,,349293.42,8,400,,,
sequence,flow.Sequence,4_46,2023-11-06T15:29:43.540Z,,0,,,5193.8890003814595,completion,,,,,false,,,,349287.80000019073,349287.60000038147,344077.335,344078.80000019073,344093.711,349293.42,8,400,,,
trial,html.Screen,4_47_0,2023-11-06T15:29:47.851Z,,0,1,,4304.980000572221,response,ISIC_2916677.JPG,5,ISIC_0068924.JPG,ISIC_0068924.JPG,false,0,keypress(z),500,353598.70000076294,353598.4000005722,349277.407,349287.9000005722,349293.42,353610.813,8,400,48,,ISIC_2916677.JPG
break,html.Screen,4_47_1,2023-11-06T15:29:47.852Z,,0,,,NaN,,,,,,false,,,,353599.60000038147,353599.20000076294,,353598.9000005722,,353610.813,8,400,,,
break_continue,html.Screen,4_47_2,2023-11-06T15:29:47.853Z,,0,,,NaN,,,,,,false,,,,353600,353599.9000005722,,353599.80000019073,,353610.813,8,400,,,
sequence,flow.Sequence,4_47,2023-11-06T15:29:47.853Z,,0,,,4306.480000572221,completion,,,,,false,,,,353600.10000038147,353599.9000005722,349277.407,349287.9000005722,349293.42,353610.813,8,400,,,
trial,html.Screen,4_48_0,2023-11-06T15:29:52.096Z,,0,1,,4232.587000572181,response,ISIC_0073156.JPG,10,ISIC_0054332.JPG,ISIC_0054332.JPG,false,0,keypress(z),500,357843.80000019073,357843.4000005722,353593.821,353600.30000019073,353610.813,357860.343,8,400,49,,ISIC_0073156.JPG
break,html.Screen,4_48_1,2023-11-06T15:29:52.097Z,,0,,,NaN,,,,,,false,,,,357844.60000038147,357844.4000005722,,357844,,357860.343,8,400,,,
break_continue,html.Screen,4_48_2,2023-11-06T15:29:52.098Z,,0,,,NaN,,,,,,false,,,,357845,357845,,357844.80000019073,,357860.343,8,400,,,
sequence,flow.Sequence,4_48,2023-11-06T15:29:52.098Z,,0,,,4234.186999999976,completion,,,,,false,,,,357845.20000076294,357845,353593.821,353600.30000019073,353610.813,357860.343,8,400,,,
trial,html.Screen,4_49_0,2023-11-06T15:29:55.928Z,,0,1,,3814.6570000000065,response,ISIC_0026497.JPG,5,ISIC_3952694.JPG,ISIC_0026497.JPG,false,1,keypress(m),500,361675.20000076294,361675,357843.857,357845.30000019073,357860.343,361699.271,8,400,50,,ISIC_3952694.JPG
break,html.Screen,4_49_1,2023-11-06T15:30:05.931Z,,0,,,9995.159999999974,timeout,,,,,false,,,,371678.9000005722,371677.759,361660.935,361675.4000005722,361699.271,371694.431,8,400,,,
break_continue,html.Screen,4_49_2,2023-11-06T15:30:08.449Z,,0,,,2486.1690003814874,response,,,,,false,continue,keypress(Space),,374196.70000076294,374180.60000038147,371677.759,371679.10000038147,371694.431,374210.644,8,400,,,
sequence,flow.Sequence,4_49,2023-11-06T15:30:08.450Z,,0,,,16320.257000381476,completion,,,,,false,,,,374197,374180.60000038147,357843.857,357845.30000019073,357860.343,374210.644,8,400,,,
trial,html.Screen,4_50_0,2023-11-06T15:30:13.749Z,,0,2,,5285.356000000029,response,ISIC_0014395.JPG,6,ISIC_0610849.JPG,ISIC_0610849.JPG,false,0,keypress(z),500,379496.20000076294,379496,374193.942,374197.20000076294,374210.644,379511.196,8,400,1,,ISIC_0014395.JPG
break,html.Screen,4_50_1,2023-11-06T15:30:13.750Z,,0,,,NaN,,,,,,false,,,,379497.20000076294,379496.70000076294,,379496.4000005722,,379511.196,8,400,,,
break_continue,html.Screen,4_50_2,2023-11-06T15:30:13.750Z,,0,,,NaN,,,,,,false,,,,379497.5,379497.4000005722,,379497.30000019073,,379511.196,8,400,,,
sequence,flow.Sequence,4_50,2023-11-06T15:30:13.750Z,,0,,,5286.7560005722335,completion,,,,,false,,,,379497.70000076294,379497.4000005722,374193.942,374197.10000038147,374210.644,379511.196,8,400,,,
trial,html.Screen,4_51_0,2023-11-06T15:30:17.481Z,,0,2,,3716.504000762943,response,ISIC_3436139.JPG,11,ISIC_0010319.JPG,ISIC_0010319.JPG,false,0,keypress(z),500,383228.10000038147,383227.70000076294,379494.524,379497.80000019073,379511.196,383244.046,8,400,2,,ISIC_3436139.JPG
break,html.Screen,4_51_1,2023-11-06T15:30:17.482Z,,0,,,NaN,,,,,,false,,,,383229,383228.60000038147,,383228.30000019073,,383244.046,8,400,,,
break_continue,html.Screen,4_51_2,2023-11-06T15:30:17.482Z,,0,,,NaN,,,,,,false,,,,383229.4000005722,383229.30000019073,,383229.20000076294,,383244.046,8,400,,,
sequence,flow.Sequence,4_51,2023-11-06T15:30:17.482Z,,0,,,3718.1040001907386,completion,,,,,false,,,,383229.5,383229.30000019073,379494.524,379497.70000076294,379511.196,383244.046,8,400,,,
trial,html.Screen,4_52_0,2023-11-06T15:30:22.177Z,,0,2,,4679.854000572232,response,ISIC_0025327.JPG,5,ISIC_9828853.JPG,ISIC_9828853.JPG,false,0,keypress(z),500,387924.10000038147,387923.9000005722,383227.882,383229.60000038147,383244.046,387927.394,8,400,3,,ISIC_0025327.JPG
break,html.Screen,4_52_1,2023-11-06T15:30:22.177Z,,0,,,NaN,,,,,,false,,,,387924.9000005722,387924.70000076294,,387924.4000005722,,387927.394,8,400,,,
break_continue,html.Screen,4_52_2,2023-11-06T15:30:22.178Z,,0,,,NaN,,,,,,false,,,,387925.4000005722,387925.30000019073,,387925.20000076294,,387927.394,8,400,,,
sequence,flow.Sequence,4_52,2023-11-06T15:30:22.178Z,,0,,,4681.254000190762,completion,,,,,false,,,,387925.5,387925.30000019073,383227.882,383229.60000038147,383244.046,387927.394,8,400,,,
trial,html.Screen,4_53_0,2023-11-06T15:30:26.101Z,,0,2,,3920.4060001907637,response,ISIC_5403296.JPG,9,ISIC_0008952.JPG,ISIC_5403296.JPG,false,1,keypress(m),500,391848,391847.80000019073,387911.053,387925.70000076294,387927.394,391861.394,8,400,4,,ISIC_0008952.JPG
break,html.Screen,4_53_1,2023-11-06T15:30:26.102Z,,0,,,NaN,,,,,,false,,,,391849.10000038147,391848.60000038147,,391848.30000019073,,391861.394,8,400,,,
break_continue,html.Screen,4_53_2,2023-11-06T15:30:26.102Z,,0,,,NaN,,,,,,false,,,,391849.4000005722,391849.4000005722,,391849.30000019073,,391861.394,8,400,,,
sequence,flow.Sequence,4_53,2023-11-06T15:30:26.102Z,,0,,,3922.0060005722335,completion,,,,,false,,,,391849.60000038147,391849.4000005722,387911.053,387925.60000038147,387927.394,391861.394,8,400,,,
trial,html.Screen,4_54_0,2023-11-06T15:30:29.758Z,,0,2,,3643.7060003814986,response,ISIC_0054568.JPG,5,ISIC_2704046.JPG,ISIC_2704046.JPG,false,0,keypress(z),500,395505.30000019073,395505.10000038147,391844.702,391849.70000076294,391861.394,395510.82,8,400,5,,ISIC_0054568.JPG
break,html.Screen,4_54_1,2023-11-06T15:30:29.759Z,,0,,,NaN,,,,,,false,,,,395506.10000038147,395505.80000019073,,395505.60000038147,,395510.82,8,400,,,
break_continue,html.Screen,4_54_2,2023-11-06T15:30:29.759Z,,0,,,NaN,,,,,,false,,,,395506.60000038147,395506.5,,395506.30000019073,,395510.82,8,400,,,
sequence,flow.Sequence,4_54,2023-11-06T15:30:29.759Z,,0,,,3645.106000000029,completion,,,,,false,,,,395506.70000076294,395506.5,391844.702,391849.70000076294,391861.394,395510.82,8,400,,,
trial,html.Screen,4_55_0,2023-11-06T15:30:35.169Z,,0,2,,5405.480000190728,response,ISIC_0010718.JPG,7,ISIC_3691320.JPG,ISIC_0010718.JPG,false,1,keypress(m),500,400916.60000038147,400916.30000019073,395494.442,395506.80000019073,395510.82,400927.628,8,400,6,,ISIC_3691320.JPG
break,html.Screen,4_55_1,2023-11-06T15:30:35.170Z,,0,,,NaN,,,,,,false,,,,400917.60000038147,400917.20000076294,,400916.80000019073,,400927.628,8,400,,,
break_continue,html.Screen,4_55_2,2023-11-06T15:30:35.171Z,,0,,,NaN,,,,,,false,,,,400918.20000076294,400918,,400917.80000019073,,400927.628,8,400,,,
sequence,flow.Sequence,4_55,2023-11-06T15:30:35.171Z,,0,,,5407.179999999993,completion,,,,,false,,,,400918.30000019073,400918,395494.442,395506.80000019073,395510.82,400927.628,8,400,,,
trial,html.Screen,4_56_0,2023-11-06T15:30:39.257Z,,0,2,,4076.2720005721785,response,ISIC_0015189.JPG,9,ISIC_7694069.JPG,ISIC_0015189.JPG,false,1,keypress(m),500,405004.30000019073,405003.9000005722,400911.576,400918.4000005722,400927.628,405010.913,8,400,7,,ISIC_7694069.JPG
break,html.Screen,4_56_1,2023-11-06T15:30:39.258Z,,0,,,NaN,,,,,,false,,,,405005.20000076294,405004.9000005722,,405004.5,,405010.913,8,400,,,
break_continue,html.Screen,4_56_2,2023-11-06T15:30:39.258Z,,0,,,NaN,,,,,,false,,,,405005.60000038147,405005.5,,405005.4000005722,,405010.913,8,400,,,
sequence,flow.Sequence,4_56,2023-11-06T15:30:39.258Z,,0,,,4077.871999999974,completion,,,,,false,,,,405005.80000019073,405005.5,400911.576,400918.4000005722,400927.628,405010.913,8,400,,,
trial,html.Screen,4_57_0,2023-11-06T15:30:42.367Z,,0,2,,3103.3870001907344,response,ISIC_0004089.JPG,5,ISIC_0024449.JPG,ISIC_0024449.JPG,false,0,keypress(z),500,408114.60000038147,408114.30000019073,404994.251,405005.80000019073,405010.913,408128.297,8,400,8,,ISIC_0004089.JPG
break,html.Screen,4_57_1,2023-11-06T15:30:42.368Z,,0,,,NaN,,,,,,false,,,,408115.5,408115.10000038147,,408114.80000019073,,408128.297,8,400,,,
break_continue,html.Screen,4_57_2,2023-11-06T15:30:42.368Z,,0,,,NaN,,,,,,false,,,,408116,408115.80000019073,,408115.70000076294,,408128.297,8,400,,,
sequence,flow.Sequence,4_57,2023-11-06T15:30:42.369Z,,0,,,3104.8870001907344,completion,,,,,false,,,,408116,408115.80000019073,404994.251,405005.80000019073,405010.913,408128.297,8,400,,,
trial,html.Screen,4_58_0,2023-11-06T15:30:47.897Z,,0,2,,5515.403000762919,response,ISIC_5509946.JPG,8,ISIC_8412096.JPG,ISIC_8412096.JPG,false,0,keypress(z),500,413644,413643.70000076294,408111.078,408116.20000076294,408128.297,413661.413,8,400,9,,ISIC_5509946.JPG
break,html.Screen,4_58_1,2023-11-06T15:30:47.897Z,,0,,,NaN,,,,,,false,,,,413645,413644.70000076294,,413644.20000076294,,413661.413,8,400,,,
break_continue,html.Screen,4_58_2,2023-11-06T15:30:47.898Z,,0,,,NaN,,,,,,false,,,,413645.4000005722,413645.30000019073,,413645.20000076294,,413661.413,8,400,,,
sequence,flow.Sequence,4_58,2023-11-06T15:30:47.898Z,,0,,,5517.003000190714,completion,,,,,false,,,,413645.60000038147,413645.30000019073,408111.078,408116.10000038147,408128.297,413661.413,8,400,,,
trial,html.Screen,4_59_0,2023-11-06T15:30:51.885Z,,0,2,,3971.0869999999995,response,ISIC_3565564.JPG,10,ISIC_0013096.JPG,ISIC_0013096.JPG,false,0,keypress(z),500,417632.70000076294,417632.5,413628.391,413645.60000038147,413661.413,417645.092,8,400,10,,ISIC_3565564.JPG
break,html.Screen,4_59_1,2023-11-06T15:30:51.886Z,,0,,,NaN,,,,,,false,,,,417633.70000076294,417633.30000019073,,417633,,417645.092,8,400,,,
break_continue,html.Screen,4_59_2,2023-11-06T15:30:51.887Z,,0,,,NaN,,,,,,false,,,,417634.10000038147,417633.9000005722,,417633.80000019073,,417645.092,8,400,,,
sequence,flow.Sequence,4_59,2023-11-06T15:30:51.887Z,,0,,,3972.487000572204,completion,,,,,false,,,,417634.30000019073,417633.9000005722,413628.391,413645.60000038147,413661.413,417645.092,8,400,,,
trial,html.Screen,4_60_0,2023-11-06T15:31:00.327Z,,0,2,,8429.3080005722,response,ISIC_3234908.JPG,9,ISIC_4870676.JPG,ISIC_3234908.JPG,false,1,keypress(m),500,426074.70000076294,426074.4000005722,417628.411,417634.5,417645.092,426077.935,8,400,11,,ISIC_4870676.JPG
break,html.Screen,4_60_1,2023-11-06T15:31:00.328Z,,0,,,NaN,,,,,,false,,,,426075.60000038147,426075.20000076294,,426074.9000005722,,426077.935,8,400,,,
break_continue,html.Screen,4_60_2,2023-11-06T15:31:00.328Z,,0,,,NaN,,,,,,false,,,,426076,426075.9000005722,,426075.70000076294,,426077.935,8,400,,,
sequence,flow.Sequence,4_60,2023-11-06T15:31:00.329Z,,0,,,8430.8080005722,completion,,,,,false,,,,426076.10000038147,426075.9000005722,417628.411,417634.4000005722,417645.092,426077.935,8,400,,,
trial,html.Screen,4_61_0,2023-11-06T15:31:07.345Z,,0,2,,7014.665000381472,response,ISIC_0013472.JPG,9,ISIC_8353090.JPG,ISIC_0013472.JPG,false,1,keypress(m),500,433092.9000005722,433092.60000038147,426061.788,426076.30000019073,426077.935,433094.701,8,400,12,,ISIC_8353090.JPG
break,html.Screen,4_61_1,2023-11-06T15:31:07.346Z,,0,,,NaN,,,,,,false,,,,433093.80000019073,433093.4000005722,,433093.10000038147,,433094.701,8,400,,,
break_continue,html.Screen,4_61_2,2023-11-06T15:31:07.347Z,,0,,,NaN,,,,,,false,,,,433094.20000076294,433094.10000038147,,433094,,433094.701,8,400,,,
sequence,flow.Sequence,4_61,2023-11-06T15:31:07.347Z,,0,,,7016.165000381472,completion,,,,,false,,,,433094.30000019073,433094.10000038147,426061.788,426076.20000076294,426077.935,433094.701,8,400,,,
trial,html.Screen,4_62_0,2023-11-06T15:31:13.324Z,,0,2,,5976.599000190734,response,ISIC_0056466.JPG,10,ISIC_0013972.JPG,ISIC_0056466.JPG,false,1,keypress(m),500,439071.60000038147,439071.30000019073,433078.697,433094.4000005722,433094.701,439078.121,8,400,13,,ISIC_0013972.JPG
break,html.Screen,4_62_1,2023-11-06T15:31:13.325Z,,0,,,NaN,,,,,,false,,,,439072.60000038147,439072.30000019073,,439071.9000005722,,439078.121,8,400,,,
break_continue,html.Screen,4_62_2,2023-11-06T15:31:13.326Z,,0,,,NaN,,,,,,false,,,,439073.10000038147,439073,,439072.80000019073,,439078.121,8,400,,,
sequence,flow.Sequence,4_62,2023-11-06T15:31:13.326Z,,0,,,5978.298999999999,completion,,,,,false,,,,439073.30000019073,439073,433078.697,433094.4000005722,433094.701,439078.121,8,400,,,
trial,html.Screen,4_63_0,2023-11-06T15:31:18.024Z,,0,2,,4693.079000762955,response,ISIC_7758102.JPG,5,ISIC_6370597.JPG,ISIC_6370597.JPG,false,0,keypress(z),500,443771.5,443771.20000076294,439062.056,439073.30000019073,439078.121,443778.193,8,400,14,,ISIC_7758102.JPG
break,html.Screen,4_63_1,2023-11-06T15:31:18.025Z,,0,,,NaN,,,,,,false,,,,443772.20000076294,443772,,443771.60000038147,,443778.193,8,400,,,
break_continue,html.Screen,4_63_2,2023-11-06T15:31:18.025Z,,0,,,NaN,,,,,,false,,,,443772.70000076294,443772.60000038147,,443772.4000005722,,443778.193,8,400,,,
sequence,flow.Sequence,4_63,2023-11-06T15:31:18.025Z,,0,,,4694.479000381485,completion,,,,,false,,,,443772.9000005722,443772.60000038147,439062.056,439073.30000019073,439078.121,443778.193,8,400,,,
trial,html.Screen,4_64_0,2023-11-06T15:31:25.219Z,,0,2,,7187.6070001907065,response,ISIC_4923095.JPG,13,ISIC_0032928.JPG,ISIC_4923095.JPG,false,1,keypress(m),500,450966,450965.80000019073,443762.129,443773,443778.193,450978.904,8,400,15,,ISIC_0032928.JPG
break,html.Screen,4_64_1,2023-11-06T15:31:25.219Z,,0,,,NaN,,,,,,false,,,,450966.9000005722,450966.60000038147,,450966.20000076294,,450978.904,8,400,,,
break_continue,html.Screen,4_64_2,2023-11-06T15:31:25.220Z,,0,,,NaN,,,,,,false,,,,450967.30000019073,450967.20000076294,,450967,,450978.904,8,400,,,
sequence,flow.Sequence,4_64,2023-11-06T15:31:25.220Z,,0,,,7189.007000762911,completion,,,,,false,,,,450967.5,450967.20000076294,443762.129,443772.9000005722,443778.193,450978.904,8,400,,,
trial,html.Screen,4_65_0,2023-11-06T15:31:29.608Z,,0,2,,4375.796000762959,response,ISIC_0032339.JPG,5,ISIC_0032583.JPG,ISIC_0032583.JPG,false,0,keypress(z),500,455355.10000038147,455354.70000076294,450962.241,450967.60000038147,450978.904,455361.643,8,400,16,,ISIC_0032339.JPG
break,html.Screen,4_65_1,2023-11-06T15:31:29.609Z,,0,,,NaN,,,,,,false,,,,455356,455355.60000038147,,455355.30000019073,,455361.643,8,400,,,
break_continue,html.Screen,4_65_2,2023-11-06T15:31:29.609Z,,0,,,NaN,,,,,,false,,,,455356.5,455356.4000005722,,455356.20000076294,,455361.643,8,400,,,
sequence,flow.Sequence,4_65,2023-11-06T15:31:29.609Z,,0,,,4377.496000572224,completion,,,,,false,,,,455356.70000076294,455356.4000005722,450962.241,450967.5,450978.904,455361.643,8,400,,,
trial,html.Screen,4_66_0,2023-11-06T15:31:33.395Z,,0,2,,3780.2570005722228,response,ISIC_8108870.JPG,8,ISIC_2585066.JPG,ISIC_8108870.JPG,false,1,keypress(m),500,459142.10000038147,459141.9000005722,455344.992,455356.80000019073,455361.643,459145.087,8,400,17,,ISIC_2585066.JPG
break,html.Screen,4_66_1,2023-11-06T15:31:33.395Z,,0,,,NaN,,,,,,false,,,,459142.9000005722,459142.60000038147,,459142.30000019073,,459145.087,8,400,,,
break_continue,html.Screen,4_66_2,2023-11-06T15:31:33.396Z,,0,,,NaN,,,,,,false,,,,459143.30000019073,459143.20000076294,,459143.10000038147,,459145.087,8,400,,,
sequence,flow.Sequence,4_66,2023-11-06T15:31:33.396Z,,0,,,3781.5570007629576,completion,,,,,false,,,,459143.4000005722,459143.20000076294,455344.992,455356.80000019073,455361.643,459145.087,8,400,,,
trial,html.Screen,4_67_0,2023-11-06T15:31:37.132Z,,0,2,,3734.01300038147,response,ISIC_9109361.JPG,11,ISIC_0034059.JPG,ISIC_0034059.JPG,false,0,keypress(z),500,462879.4000005722,462879.10000038147,459128.775,459143.60000038147,459145.087,462895.128,8,400,18,,ISIC_9109361.JPG
break,html.Screen,4_67_1,2023-11-06T15:31:37.133Z,,0,,,NaN,,,,,,false,,,,462880.4000005722,462880,,462879.60000038147,,462895.128,8,400,,,
break_continue,html.Screen,4_67_2,2023-11-06T15:31:37.133Z,,0,,,NaN,,,,,,false,,,,462880.70000076294,462880.60000038147,,462880.60000038147,,462895.128,8,400,,,
sequence,flow.Sequence,4_67,2023-11-06T15:31:37.133Z,,0,,,3735.51300038147,completion,,,,,false,,,,462880.9000005722,462880.60000038147,459128.775,459143.5,459145.087,462895.128,8,400,,,
trial,html.Screen,4_68_0,2023-11-06T15:31:40.724Z,,0,2,,3576.172000190709,response,ISIC_8458843.JPG,6,ISIC_1663144.JPG,ISIC_8458843.JPG,false,1,keypress(m),500,466471.60000038147,466471.30000019073,462878.484,462881,462895.128,466478.521,8,400,19,,ISIC_1663144.JPG
break,html.Screen,4_68_1,2023-11-06T15:31:40.725Z,,0,,,NaN,,,,,,false,,,,466472.60000038147,466472.10000038147,,466471.80000019073,,466478.521,8,400,,,
break_continue,html.Screen,4_68_2,2023-11-06T15:31:40.725Z,,0,,,NaN,,,,,,false,,,,466473,466472.80000019073,,466472.70000076294,,466478.521,8,400,,,
sequence,flow.Sequence,4_68,2023-11-06T15:31:40.726Z,,0,,,3577.672000190709,completion,,,,,false,,,,466473.10000038147,466472.80000019073,462878.484,462881,462895.128,466478.521,8,400,,,
trial,html.Screen,4_69_0,2023-11-06T15:31:45.052Z,,0,2,,4320.978999999992,response,ISIC_3842916.JPG,6,ISIC_0009971.JPG,ISIC_0009971.JPG,false,0,keypress(z),500,470799.70000076294,470799.5,466462.456,466473.20000076294,466478.521,470812.534,8,400,20,,ISIC_3842916.JPG
break,html.Screen,4_69_1,2023-11-06T15:31:45.053Z,,0,,,NaN,,,,,,false,,,,470800.70000076294,470800.20000076294,,470799.9000005722,,470812.534,8,400,,,
break_continue,html.Screen,4_69_2,2023-11-06T15:31:45.054Z,,0,,,NaN,,,,,,false,,,,470801.10000038147,470801,,470800.9000005722,,470812.534,8,400,,,
sequence,flow.Sequence,4_69,2023-11-06T15:31:45.054Z,,0,,,4322.478999999992,completion,,,,,false,,,,470801.30000019073,470801,466462.456,466473.20000076294,466478.521,470812.534,8,400,,,
trial,html.Screen,4_70_0,2023-11-06T15:31:51.480Z,,0,2,,6414.8660005722195,response,ISIC_0066992.JPG,9,ISIC_0025589.JPG,ISIC_0066992.JPG,false,1,keypress(m),500,477227.70000076294,477227.4000005722,470795.852,470801.4000005722,470812.534,477251.131,8,400,21,,ISIC_0025589.JPG
break,html.Screen,4_70_1,2023-11-06T15:31:51.481Z,,0,,,NaN,,,,,,false,,,,477228.5,477228.20000076294,,477227.9000005722,,477251.131,8,400,,,
break_continue,html.Screen,4_70_2,2023-11-06T15:31:51.482Z,,0,,,NaN,,,,,,false,,,,477229,477228.80000019073,,477228.70000076294,,477251.131,8,400,,,
sequence,flow.Sequence,4_70,2023-11-06T15:31:51.482Z,,0,,,6416.26600019075,completion,,,,,false,,,,477229.20000076294,477228.80000019073,470795.852,470801.30000019073,470812.534,477251.131,8,400,,,
trial,html.Screen,4_71_0,2023-11-06T15:31:55.824Z,,0,2,,4320.469000381476,response,ISIC_0033265.JPG,8,ISIC_0029740.JPG,ISIC_0033265.JPG,false,1,keypress(m),500,481571.80000019073,481571.60000038147,477212.595,477229.20000076294,477251.131,481578.749,8,400,22,,ISIC_0029740.JPG
break,html.Screen,4_71_1,2023-11-06T15:31:55.825Z,,0,,,NaN,,,,,,false,,,,481572.70000076294,481572.30000019073,,481572,,481578.749,8,400,,,
break_continue,html.Screen,4_71_2,2023-11-06T15:31:55.826Z,,0,,,NaN,,,,,,false,,,,481573.10000038147,481573,,481572.9000005722,,481578.749,8,400,,,
sequence,flow.Sequence,4_71,2023-11-06T15:31:55.826Z,,0,,,4321.869000000006,completion,,,,,false,,,,481573.30000019073,481573,477212.595,477229.20000076294,477251.131,481578.749,8,400,,,
trial,html.Screen,4_72_0,2023-11-06T15:31:59.835Z,,0,2,,4003.051000190724,response,ISIC_0061583.JPG,7,ISIC_5098778.JPG,ISIC_0061583.JPG,false,1,keypress(m),500,485582.10000038147,485581.80000019073,481562.677,481573.4000005722,481578.749,485596.084,8,400,23,,ISIC_5098778.JPG
break,html.Screen,4_72_1,2023-11-06T15:31:59.836Z,,0,,,NaN,,,,,,false,,,,485583.10000038147,485582.70000076294,,485582.30000019073,,485596.084,8,400,,,
break_continue,html.Screen,4_72_2,2023-11-06T15:31:59.836Z,,0,,,NaN,,,,,,false,,,,485583.60000038147,485583.4000005722,,485583.30000019073,,485596.084,8,400,,,
sequence,flow.Sequence,4_72,2023-11-06T15:31:59.836Z,,0,,,4004.651000572194,completion,,,,,false,,,,485583.70000076294,485583.4000005722,481562.677,481573.30000019073,481578.749,485596.084,8,400,,,
trial,html.Screen,4_73_0,2023-11-06T15:32:03.121Z,,0,2,,3272.2160001907614,response,ISIC_0033393.JPG,9,ISIC_0003550.JPG,ISIC_0033393.JPG,false,1,keypress(m),500,488868.5,488868.30000019073,485579.412,485583.80000019073,485596.084,488879.453,8,400,24,,ISIC_0003550.JPG
break,html.Screen,4_73_1,2023-11-06T15:32:03.122Z,,0,,,NaN,,,,,,false,,,,488869.5,488869.10000038147,,488868.70000076294,,488879.453,8,400,,,
break_continue,html.Screen,4_73_2,2023-11-06T15:32:03.122Z,,0,,,NaN,,,,,,false,,,,488869.80000019073,488869.70000076294,,488869.60000038147,,488879.453,8,400,,,
sequence,flow.Sequence,4_73,2023-11-06T15:32:03.123Z,,0,,,3273.616000762966,completion,,,,,false,,,,488870,488869.70000076294,485579.412,485583.70000076294,485596.084,488879.453,8,400,,,
trial,html.Screen,4_74_0,2023-11-06T15:32:06.523Z,,0,2,,3390.3470001907554,response,ISIC_0024507.JPG,10,ISIC_0002566.JPG,ISIC_0024507.JPG,false,1,keypress(m),500,492270.10000038147,492269.80000019073,488862.786,488870.10000038147,488879.453,492278.971,8,400,25,,ISIC_0002566.JPG
break,html.Screen,4_74_1,2023-11-06T15:32:06.524Z,,0,,,NaN,,,,,,false,,,,492271,492270.5,,492270.20000076294,,492278.971,8,400,,,
break_continue,html.Screen,4_74_2,2023-11-06T15:32:06.524Z,,0,,,NaN,,,,,,false,,,,492271.4000005722,492271.30000019073,,492271.20000076294,,492278.971,8,400,,,
sequence,flow.Sequence,4_74,2023-11-06T15:32:06.524Z,,0,,,3391.8470001907554,completion,,,,,false,,,,492271.60000038147,492271.30000019073,488862.786,488870.10000038147,488879.453,492278.971,8,400,,,
trial,html.Screen,4_75_0,2023-11-06T15:32:10.255Z,,0,2,,3723.429000572185,response,ISIC_7443391.JPG,6,ISIC_6785249.JPG,ISIC_7443391.JPG,false,1,keypress(m),500,496002.80000019073,496002.4000005722,492262.761,492271.70000076294,492278.971,496012.248,8,400,26,,ISIC_6785249.JPG
break,html.Screen,4_75_1,2023-11-06T15:32:10.256Z,,0,,,NaN,,,,,,false,,,,496003.80000019073,496003.30000019073,,496003,,496012.248,8,400,,,
break_continue,html.Screen,4_75_2,2023-11-06T15:32:10.257Z,,0,,,NaN,,,,,,false,,,,496004.20000076294,496004.10000038147,,496003.9000005722,,496012.248,8,400,,,
sequence,flow.Sequence,4_75,2023-11-06T15:32:10.257Z,,0,,,3725.12900038145,completion,,,,,false,,,,496004.4000005722,496004.10000038147,492262.761,492271.70000076294,492278.971,496012.248,8,400,,,
trial,html.Screen,4_76_0,2023-11-06T15:32:16.084Z,,0,2,,5819.352000381448,response,ISIC_0053611.JPG,8,ISIC_0065872.JPG,ISIC_0065872.JPG,false,0,keypress(z),500,501831.80000019073,501831.60000038147,495995.729,496004.5,496012.248,501846.317,8,400,27,,ISIC_0053611.JPG
break,html.Screen,4_76_1,2023-11-06T15:32:16.085Z,,0,,,NaN,,,,,,false,,,,501832.70000076294,501832.4000005722,,501832,,501846.317,8,400,,,
break_continue,html.Screen,4_76_2,2023-11-06T15:32:16.086Z,,0,,,NaN,,,,,,false,,,,501833,501833,,501832.80000019073,,501846.317,8,400,,,
sequence,flow.Sequence,4_76,2023-11-06T15:32:16.086Z,,0,,,5820.751999999979,completion,,,,,false,,,,501833.30000019073,501833,495995.729,496004.4000005722,496012.248,501846.317,8,400,,,
trial,html.Screen,4_77_0,2023-11-06T15:32:21.374Z,,0,2,,5275.183000000019,response,ISIC_8887039.JPG,8,ISIC_0028597.JPG,ISIC_0028597.JPG,false,0,keypress(z),500,507121.80000019073,507121.5,501829.646,501833.30000019073,501846.317,507129.113,8,400,28,,ISIC_8887039.JPG
break,html.Screen,4_77_1,2023-11-06T15:32:21.375Z,,0,,,NaN,,,,,,false,,,,507122.80000019073,507122.30000019073,,507121.9000005722,,507129.113,8,400,,,
break_continue,html.Screen,4_77_2,2023-11-06T15:32:21.376Z,,0,,,NaN,,,,,,false,,,,507123.20000076294,507123,,507122.9000005722,,507129.113,8,400,,,
sequence,flow.Sequence,4_77,2023-11-06T15:32:21.376Z,,0,,,5276.683000000019,completion,,,,,false,,,,507123.4000005722,507123,501829.646,501833.30000019073,501846.317,507129.113,8,400,,,
trial,html.Screen,4_78_0,2023-11-06T15:32:26.809Z,,0,2,,5427.187000190723,response,ISIC_2784686.JPG,6,ISIC_4475657.JPG,ISIC_4475657.JPG,false,0,keypress(z),500,512556.70000076294,512556.30000019073,507113.056,507123.5,507129.113,512562.501,8,400,29,,ISIC_2784686.JPG
break,html.Screen,4_78_1,2023-11-06T15:32:26.810Z,,0,,,NaN,,,,,,false,,,,512557.60000038147,512557.20000076294,,512556.9000005722,,512562.501,8,400,,,
break_continue,html.Screen,4_78_2,2023-11-06T15:32:26.811Z,,0,,,NaN,,,,,,false,,,,512557.9000005722,512557.80000019073,,512557.80000019073,,512562.501,8,400,,,
sequence,flow.Sequence,4_78,2023-11-06T15:32:26.811Z,,0,,,5428.687000190723,completion,,,,,false,,,,512558.10000038147,512557.80000019073,507113.056,507123.4000005722,507129.113,512562.501,8,400,,,
trial,html.Screen,4_79_0,2023-11-06T15:32:31.266Z,,0,2,,4450.69900076295,response,ISIC_7945429.JPG,13,ISIC_0058649.JPG,ISIC_0058649.JPG,false,0,keypress(z),500,517013.5,517013.20000076294,512546.364,512558.30000019073,512562.501,517029.326,8,400,30,,ISIC_7945429.JPG
break,html.Screen,4_79_1,2023-11-06T15:32:31.267Z,,0,,,NaN,,,,,,false,,,,517014.10000038147,517013.9000005722,,517013.70000076294,,517029.326,8,400,,,
break_continue,html.Screen,4_79_2,2023-11-06T15:32:31.267Z,,0,,,NaN,,,,,,false,,,,517014.5,517014.30000019073,,517014.30000019073,,517029.326,8,400,,,
sequence,flow.Sequence,4_79,2023-11-06T15:32:31.267Z,,0,,,4451.799000190746,completion,,,,,false,,,,517014.5,517014.30000019073,512546.364,512558.20000076294,512562.501,517029.326,8,400,,,
trial,html.Screen,4_80_0,2023-11-06T15:32:38.553Z,,0,2,,7270.574000572204,response,ISIC_6025721.JPG,9,ISIC_9726155.JPG,ISIC_9726155.JPG,false,0,keypress(z),500,524300.1000003815,524299.9000005722,517012.721,517014.70000076294,517029.326,524313.057,8,400,31,,ISIC_6025721.JPG
break,html.Screen,4_80_1,2023-11-06T15:32:38.554Z,,0,,,NaN,,,,,,false,,,,524301,524300.6000003815,,524300.2000007629,,524313.057,8,400,,,
break_continue,html.Screen,4_80_2,2023-11-06T15:32:38.554Z,,0,,,NaN,,,,,,false,,,,524301.5,524301.4000005722,,524301.2000007629,,524313.057,8,400,,,
sequence,flow.Sequence,4_80,2023-11-06T15:32:38.554Z,,0,,,7272.074000572204,completion,,,,,false,,,,524301.6000003815,524301.4000005722,517012.721,517014.70000076294,517029.326,524313.057,8,400,,,
trial,html.Screen,4_81_0,2023-11-06T15:32:41.955Z,,0,2,,3388.843000572175,response,ISIC_0000161.JPG,7,ISIC_0029205.JPG,ISIC_0000161.JPG,false,1,keypress(m),500,527702.2000007629,527701.9000005722,524296.177,524301.8000001907,524313.057,527713.373,8,400,32,,ISIC_0029205.JPG
break,html.Screen,4_81_1,2023-11-06T15:32:41.956Z,,0,,,NaN,,,,,,false,,,,527703.5,527703.1000003815,,527702.7000007629,,527713.373,8,400,,,
break_continue,html.Screen,4_81_2,2023-11-06T15:32:41.956Z,,0,,,NaN,,,,,,false,,,,527703.9000005722,527703.8000001907,,527703.6000003815,,527713.373,8,400,,,
sequence,flow.Sequence,4_81,2023-11-06T15:32:41.957Z,,0,,,3390.743000190705,completion,,,,,false,,,,527704,527703.8000001907,524296.177,524301.7000007629,524313.057,527713.373,8,400,,,
trial,html.Screen,4_82_0,2023-11-06T15:32:46.333Z,,0,2,,4366.626999999979,response,ISIC_8384985.JPG,6,ISIC_0033362.JPG,ISIC_0033362.JPG,false,0,keypress(z),500,532080.2000007629,532080,527696.052,527704.2000007629,527713.373,532096.096,8,400,33,,ISIC_8384985.JPG
break,html.Screen,4_82_1,2023-11-06T15:32:46.333Z,,0,,,NaN,,,,,,false,,,,532080.9000005722,532080.7000007629,,532080.4000005722,,532096.096,8,400,,,
break_continue,html.Screen,4_82_2,2023-11-06T15:32:46.334Z,,0,,,NaN,,,,,,false,,,,532081.2000007629,532081.1000003815,,532081.1000003815,,532096.096,8,400,,,
sequence,flow.Sequence,4_82,2023-11-06T15:32:46.334Z,,0,,,4367.727000381448,completion,,,,,false,,,,532081.4000005722,532081.1000003815,527696.052,527704.1000003815,527713.373,532096.096,8,400,,,
trial,html.Screen,4_83_0,2023-11-06T15:32:49.992Z,,0,2,,3642.804000572185,response,ISIC_0028366.JPG,10,ISIC_0030083.JPG,ISIC_0030083.JPG,false,0,keypress(z),500,535739.1000003815,535738.9000005722,532080.089,532081.5,532096.096,535746.154,8,400,34,,ISIC_0028366.JPG
break,html.Screen,4_83_1,2023-11-06T15:32:49.993Z,,0,,,NaN,,,,,,false,,,,535740.2000007629,535739.8000001907,,535739.4000005722,,535746.154,8,400,,,
break_continue,html.Screen,4_83_2,2023-11-06T15:32:49.993Z,,0,,,NaN,,,,,,false,,,,535740.6000003815,535740.4000005722,,535740.3000001907,,535746.154,8,400,,,
sequence,flow.Sequence,4_83,2023-11-06T15:32:49.993Z,,0,,,3644.304000572185,completion,,,,,false,,,,535740.6000003815,535740.4000005722,532080.089,532081.5,532096.096,535746.154,8,400,,,
trial,html.Screen,4_84_0,2023-11-06T15:32:53.456Z,,0,2,,3457.046000762959,response,ISIC_6298726.JPG,7,ISIC_0015251.JPG,ISIC_0015251.JPG,false,0,keypress(z),500,539203.5,539203.2000007629,535730.14,535740.8000001907,535746.154,539213.517,8,400,35,,ISIC_6298726.JPG
break,html.Screen,4_84_1,2023-11-06T15:32:53.457Z,,0,,,NaN,,,,,,false,,,,539204.2000007629,539204,,539203.6000003815,,539213.517,8,400,,,
break_continue,html.Screen,4_84_2,2023-11-06T15:32:53.457Z,,0,,,NaN,,,,,,false,,,,539204.7000007629,539204.5,,539204.4000005722,,539213.517,8,400,,,
sequence,flow.Sequence,4_84,2023-11-06T15:32:53.457Z,,0,,,3458.3460000000196,completion,,,,,false,,,,539204.8000001907,539204.5,535730.14,535740.8000001907,535746.154,539213.517,8,400,,,
trial,html.Screen,4_85_0,2023-11-06T15:32:58.441Z,,0,2,,4974.683000762947,response,ISIC_0014144.JPG,8,ISIC_0025093.JPG,ISIC_0014144.JPG,false,1,keypress(m),500,544188.5,544188.2000007629,539196.952,539204.9000005722,539213.517,544196.307,8,400,36,,ISIC_0025093.JPG
break,html.Screen,4_85_1,2023-11-06T15:32:58.442Z,,0,,,NaN,,,,,,false,,,,544189.6000003815,544189.2000007629,,544188.7000007629,,544196.307,8,400,,,
break_continue,html.Screen,4_85_2,2023-11-06T15:32:58.443Z,,0,,,NaN,,,,,,false,,,,544190.2000007629,544190,,544189.8000001907,,544196.307,8,400,,,
sequence,flow.Sequence,4_85,2023-11-06T15:32:58.443Z,,0,,,4976.483000000007,completion,,,,,false,,,,544190.4000005722,544190,539196.952,539204.9000005722,539213.517,544196.307,8,400,,,
trial,html.Screen,4_86_0,2023-11-06T15:33:02.991Z,,0,2,,4541.39300076291,response,ISIC_0062827.JPG,5,ISIC_0013839.JPG,ISIC_0062827.JPG,false,1,keypress(m),500,548738.1000003815,548737.7000007629,544180.259,544190.6000003815,544196.307,548746.353,8,400,37,,ISIC_0013839.JPG
break,html.Screen,4_86_1,2023-11-06T15:33:02.992Z,,0,,,NaN,,,,,,false,,,,548739.1000003815,548738.7000007629,,548738.3000001907,,548746.353,8,400,,,
break_continue,html.Screen,4_86_2,2023-11-06T15:33:02.992Z,,0,,,NaN,,,,,,false,,,,548739.4000005722,548739.3000001907,,548739.2000007629,,548746.353,8,400,,,
sequence,flow.Sequence,4_86,2023-11-06T15:33:02.992Z,,0,,,4542.993000190705,completion,,,,,false,,,,548739.7000007629,548739.3000001907,544180.259,544190.5,544196.307,548746.353,8,400,,,
trial,html.Screen,4_87_0,2023-11-06T15:33:08.693Z,,0,2,,5693.547000572202,response,ISIC_0027056.JPG,6,ISIC_0958701.JPG,ISIC_0027056.JPG,false,1,keypress(m),500,554440.1000003815,554439.9000005722,548730.32,548739.9000005722,548746.353,554446.439,8,400,38,,ISIC_0958701.JPG
break,html.Screen,4_87_1,2023-11-06T15:33:08.694Z,,0,,,NaN,,,,,,false,,,,554441.1000003815,554440.7000007629,,554440.4000005722,,554446.439,8,400,,,
break_continue,html.Screen,4_87_2,2023-11-06T15:33:08.694Z,,0,,,NaN,,,,,,false,,,,554441.6000003815,554441.5,,554441.3000001907,,554446.439,8,400,,,
sequence,flow.Sequence,4_87,2023-11-06T15:33:08.694Z,,0,,,5695.146999999997,completion,,,,,false,,,,554441.7000007629,554441.5,548730.32,548739.8000001907,548746.353,554446.439,8,400,,,
trial,html.Screen,4_88_0,2023-11-06T15:33:12.394Z,,0,2,,3694.9610005721916,response,ISIC_2175855.JPG,6,ISIC_0067167.JPG,ISIC_0067167.JPG,false,0,keypress(z),500,558141.6000003815,558141.4000005722,554429.869,554441.8000001907,554446.439,558146.472,8,400,39,,ISIC_2175855.JPG
break,html.Screen,4_88_1,2023-11-06T15:33:12.395Z,,0,,,NaN,,,,,,false,,,,558142.4000005722,558142.2000007629,,558141.7000007629,,558146.472,8,400,,,
break_continue,html.Screen,4_88_2,2023-11-06T15:33:12.395Z,,0,,,NaN,,,,,,false,,,,558142.7000007629,558142.6000003815,,558142.5,,558146.472,8,400,,,
sequence,flow.Sequence,4_88,2023-11-06T15:33:12.396Z,,0,,,3696.1610003814567,completion,,,,,false,,,,558143,558142.6000003815,554429.869,554441.7000007629,554446.439,558146.472,8,400,,,
trial,html.Screen,4_89_0,2023-11-06T15:33:19.055Z,,0,2,,6655.928000572254,response,ISIC_0061334.JPG,6,ISIC_5659295.JPG,ISIC_0061334.JPG,false,1,keypress(m),500,564802.6000003815,564802.4000005722,558130.378,558143,558146.472,564813.428,8,400,40,,ISIC_5659295.JPG
break,html.Screen,4_89_1,2023-11-06T15:33:19.056Z,,0,,,NaN,,,,,,false,,,,564803.6000003815,564803.2000007629,,564802.8000001907,,564813.428,8,400,,,
break_continue,html.Screen,4_89_2,2023-11-06T15:33:19.057Z,,0,,,NaN,,,,,,false,,,,564804.2000007629,564804,,564803.8000001907,,564813.428,8,400,,,
sequence,flow.Sequence,4_89,2023-11-06T15:33:19.057Z,,0,,,6657.528000000049,completion,,,,,false,,,,564804.3000001907,564804,558130.378,558143,558146.472,564813.428,8,400,,,
trial,html.Screen,4_90_0,2023-11-06T15:33:23.930Z,,0,2,,4863.6720003815135,response,ISIC_0069488.JPG,11,ISIC_0026314.JPG,ISIC_0026314.JPG,false,0,keypress(z),500,569677.3000001907,569677.1000003815,564797.084,564804.4000005722,564813.428,569680.033,8,400,41,,ISIC_0069488.JPG
break,html.Screen,4_90_1,2023-11-06T15:33:23.931Z,,0,,,NaN,,,,,,false,,,,569678.2000007629,569677.8000001907,,569677.5,,569680.033,8,400,,,
break_continue,html.Screen,4_90_2,2023-11-06T15:33:23.931Z,,0,,,NaN,,,,,,false,,,,569678.5,569678.4000005722,,569678.4000005722,,569680.033,8,400,,,
sequence,flow.Sequence,4_90,2023-11-06T15:33:23.931Z,,0,,,4864.972000572248,completion,,,,,false,,,,569678.7000007629,569678.4000005722,564797.084,564804.3000001907,564813.428,569680.033,8,400,,,
trial,html.Screen,4_91_0,2023-11-06T15:33:31.269Z,,0,2,,7335.667000762885,response,ISIC_2741857.JPG,12,ISIC_7621412.JPG,ISIC_2741857.JPG,false,1,keypress(m),500,577016.1000003815,577015.7000007629,569663.971,569678.8000001907,569680.033,577030.771,8,400,42,,ISIC_7621412.JPG
break,html.Screen,4_91_1,2023-11-06T15:33:31.269Z,,0,,,NaN,,,,,,false,,,,577016.8000001907,577016.5,,577016.3000001907,,577030.771,8,400,,,
break_continue,html.Screen,4_91_2,2023-11-06T15:33:31.270Z,,0,,,NaN,,,,,,false,,,,577017.3000001907,577017.2000007629,,577017.1000003815,,577030.771,8,400,,,
sequence,flow.Sequence,4_91,2023-11-06T15:33:31.270Z,,0,,,7337.167000762885,completion,,,,,false,,,,577017.4000005722,577017.2000007629,569663.971,569678.8000001907,569680.033,577030.771,8,400,,,
trial,html.Screen,4_92_0,2023-11-06T15:33:35.643Z,,0,2,,4359.529000190785,response,ISIC_0033202.JPG,6,ISIC_0014117.JPG,ISIC_0033202.JPG,false,1,keypress(m),500,581390.7000007629,581390.3000001907,577014.073,577017.5,577030.771,581396.845,8,400,43,,ISIC_0014117.JPG
break,html.Screen,4_92_1,2023-11-06T15:33:35.644Z,,0,,,NaN,,,,,,false,,,,581391.4000005722,581391.2000007629,,581390.9000005722,,581396.845,8,400,,,
break_continue,html.Screen,4_92_2,2023-11-06T15:33:35.645Z,,0,,,NaN,,,,,,false,,,,581392,581391.8000001907,,581391.7000007629,,581396.845,8,400,,,
sequence,flow.Sequence,4_92,2023-11-06T15:33:35.645Z,,0,,,4361.029000190785,completion,,,,,false,,,,581392.1000003815,581391.8000001907,577014.073,577017.5,577030.771,581396.845,8,400,,,
trial,html.Screen,4_93_0,2023-11-06T15:33:39.284Z,,0,2,,3634.455000190763,response,ISIC_0032940.JPG,5,ISIC_0032171.JPG,ISIC_0032940.JPG,false,1,keypress(m),500,585031.6000003815,585031.3000001907,581380.806,581392.2000007629,581396.845,585047.02,8,400,44,,ISIC_0032171.JPG
break,html.Screen,4_93_1,2023-11-06T15:33:39.285Z,,0,,,NaN,,,,,,false,,,,585032.4000005722,585032.1000003815,,585031.8000001907,,585047.02,8,400,,,
break_continue,html.Screen,4_93_2,2023-11-06T15:33:39.285Z,,0,,,NaN,,,,,,false,,,,585032.8000001907,585032.7000007629,,585032.6000003815,,585047.02,8,400,,,
sequence,flow.Sequence,4_93,2023-11-06T15:33:39.286Z,,0,,,3635.8550007629674,completion,,,,,false,,,,585033,585032.7000007629,581380.806,581392.2000007629,581396.845,585047.02,8,400,,,
trial,html.Screen,4_94_0,2023-11-06T15:33:44.489Z,,0,2,,5189.580000381451,response,ISIC_0046222.JPG,8,ISIC_0062196.JPG,ISIC_0062196.JPG,false,0,keypress(z),500,590236.9000005722,590236.6000003815,585030.514,585033.1000003815,585047.02,590247.009,8,400,45,,ISIC_0046222.JPG
break,html.Screen,4_94_1,2023-11-06T15:33:44.490Z,,0,,,NaN,,,,,,false,,,,590237.9000005722,590237.5,,590237.1000003815,,590247.009,8,400,,,
break_continue,html.Screen,4_94_2,2023-11-06T15:33:44.491Z,,0,,,NaN,,,,,,false,,,,590238.3000001907,590238.1000003815,,590238.1000003815,,590247.009,8,400,,,
sequence,flow.Sequence,4_94,2023-11-06T15:33:44.491Z,,0,,,5191.080000381451,completion,,,,,false,,,,590238.4000005722,590238.1000003815,585030.514,585033,585047.02,590247.009,8,400,,,
trial,html.Screen,4_95_0,2023-11-06T15:33:48.320Z,,0,2,,3819.891000572243,response,ISIC_5287748.JPG,7,ISIC_3274493.JPG,ISIC_5287748.JPG,false,1,keypress(m),500,594067.3000001907,594066.9000005722,590230.804,590238.5,590247.009,594081.015,8,400,46,,ISIC_3274493.JPG
break,html.Screen,4_95_1,2023-11-06T15:33:48.321Z,,0,,,NaN,,,,,,false,,,,594068.5,594068.1000003815,,594067.7000007629,,594081.015,8,400,,,
break_continue,html.Screen,4_95_2,2023-11-06T15:33:48.322Z,,0,,,NaN,,,,,,false,,,,594069,594069,,594068.7000007629,,594081.015,8,400,,,
sequence,flow.Sequence,4_95,2023-11-06T15:33:48.322Z,,0,,,3821.991000000038,completion,,,,,false,,,,594069.3000001907,594069,590230.804,590238.5,590247.009,594081.015,8,400,,,
trial,html.Screen,4_96_0,2023-11-06T15:33:54.282Z,,0,2,,5948.1850007629255,response,ISIC_0062318.JPG,5,ISIC_0033802.JPG,ISIC_0062318.JPG,false,1,keypress(m),500,600029.4000005722,600029.2000007629,594064.31,594069.4000005722,594081.015,600053.49,8,400,47,,ISIC_0033802.JPG
break,html.Screen,4_96_1,2023-11-06T15:33:54.283Z,,0,,,NaN,,,,,,false,,,,600030.3000001907,600030,,600029.6000003815,,600053.49,8,400,,,
break_continue,html.Screen,4_96_2,2023-11-06T15:33:54.283Z,,0,,,NaN,,,,,,false,,,,600030.7000007629,600030.6000003815,,600030.4000005722,,600053.49,8,400,,,
sequence,flow.Sequence,4_96,2023-11-06T15:33:54.283Z,,0,,,5949.585000381456,completion,,,,,false,,,,600030.9000005722,600030.6000003815,594064.31,594069.4000005722,594081.015,600053.49,8,400,,,
trial,html.Screen,4_97_0,2023-11-06T15:34:00.068Z,,0,2,,5761.510000000009,response,ISIC_0253516.JPG,12,ISIC_0056689.JPG,ISIC_0253516.JPG,false,1,keypress(m),500,605815.3000001907,605815,600013.892,600031,600053.49,605830.73,8,400,48,,ISIC_0056689.JPG
break,html.Screen,4_97_1,2023-11-06T15:34:00.069Z,,0,,,NaN,,,,,,false,,,,605816.1000003815,605815.8000001907,,605815.5,,605830.73,8,400,,,
break_continue,html.Screen,4_97_2,2023-11-06T15:34:00.069Z,,0,,,NaN,,,,,,false,,,,605816.5,605816.4000005722,,605816.2000007629,,605830.73,8,400,,,
sequence,flow.Sequence,4_97,2023-11-06T15:34:00.069Z,,0,,,5762.910000572214,completion,,,,,false,,,,605816.6000003815,605816.4000005722,600013.892,600031,600053.49,605830.73,8,400,,,
trial,html.Screen,4_98_0,2023-11-06T15:34:04.440Z,,0,2,,4356.0700001907535,response,ISIC_0030171.JPG,6,ISIC_0033439.JPG,ISIC_0033439.JPG,false,0,keypress(z),500,610187,610186.8000001907,605814.519,605816.7000007629,605830.73,610197.259,8,400,49,,ISIC_0030171.JPG
break,html.Screen,4_98_1,2023-11-06T15:34:04.441Z,,0,,,NaN,,,,,,false,,,,610188.2000007629,610187.8000001907,,610187.4000005722,,610197.259,8,400,,,
break_continue,html.Screen,4_98_2,2023-11-06T15:34:04.441Z,,0,,,NaN,,,,,,false,,,,610188.6000003815,610188.4000005722,,610188.3000001907,,610197.259,8,400,,,
sequence,flow.Sequence,4_98,2023-11-06T15:34:04.441Z,,0,,,4357.670000572223,completion,,,,,false,,,,610188.8000001907,610188.4000005722,605814.519,605816.6000003815,605830.73,610197.259,8,400,,,
trial,html.Screen,4_99_0,2023-11-06T15:34:08.655Z,,0,2,,4204.641000572243,response,ISIC_0030360.JPG,8,ISIC_1927858.JPG,ISIC_0030360.JPG,false,1,keypress(m),500,614402.2000007629,614401.9000005722,610181.011,610190.1000003815,610197.259,614414.617,8,400,50,,ISIC_1927858.JPG
break,html.Screen,4_99_1,2023-11-06T15:34:18.651Z,,0,,,9999.61400000006,timeout,,,,,false,,,,624398.7000007629,624397.566,614398.009,614402.5,614414.617,624414.231,8,400,,,
break_continue,html.Screen,4_99_2,2023-11-06T15:34:19.420Z,,0,,,722.9690007629106,response,,,,,false,continue,keypress(Space),,625167,625137.2000007629,624397.566,624398.9000005722,624414.231,625180.968,8,400,,,
sequence,flow.Sequence,4_99,2023-11-06T15:34:19.420Z,,0,,,14939.941000762978,completion,,,,,false,,,,625167.2000007629,625137.2000007629,610181.011,610190,610197.259,625180.968,8,400,,,
trial,html.Screen,4_100_0,2023-11-06T15:34:22.881Z,,0,3,,3447.232000762946,response,ISIC_0070308.JPG,12,ISIC_7050122.JPG,ISIC_7050122.JPG,false,0,keypress(z),500,628628.4000005722,628628.2000007629,625164.179,625167.4000005722,625180.968,628630.903,8,400,1,,ISIC_0070308.JPG
break,html.Screen,4_100_1,2023-11-06T15:34:22.882Z,,0,,,NaN,,,,,,false,,,,628629.4000005722,628628.9000005722,,628628.6000003815,,628630.903,8,400,,,
break_continue,html.Screen,4_100_2,2023-11-06T15:34:22.882Z,,0,,,NaN,,,,,,false,,,,628629.8000001907,628629.7000007629,,628629.6000003815,,628630.903,8,400,,,
sequence,flow.Sequence,4_100,2023-11-06T15:34:22.882Z,,0,,,3448.732000762946,completion,,,,,false,,,,628629.9000005722,628629.7000007629,625164.179,625167.3000001907,625180.968,628630.903,8,400,,,
trial,html.Screen,4_101_0,2023-11-06T15:34:26.441Z,,0,3,,3556.8970001906855,response,ISIC_3800974.JPG,11,ISIC_0504730.JPG,ISIC_3800974.JPG,false,1,keypress(m),500,632188.1000003815,632187.8000001907,628614.829,628630.1000003815,628630.903,632197.58,8,400,2,,ISIC_0504730.JPG
break,html.Screen,4_101_1,2023-11-06T15:34:26.442Z,,0,,,NaN,,,,,,false,,,,632189.1000003815,632188.7000007629,,632188.3000001907,,632197.58,8,400,,,
break_continue,html.Screen,4_101_2,2023-11-06T15:34:26.442Z,,0,,,NaN,,,,,,false,,,,632189.5,632189.3000001907,,632189.2000007629,,632197.58,8,400,,,
sequence,flow.Sequence,4_101,2023-11-06T15:34:26.442Z,,0,,,3558.3970001906855,completion,,,,,false,,,,632189.6000003815,632189.3000001907,628614.829,628630,628630.903,632197.58,8,400,,,
trial,html.Screen,4_102_0,2023-11-06T15:34:29.633Z,,0,3,,3182.5200003815116,response,ISIC_7074321.JPG,6,ISIC_6460137.JPG,ISIC_7074321.JPG,false,1,keypress(m),500,635380.5,635380.1000003815,632181.523,632189.7000007629,632197.58,635397.648,8,400,3,,ISIC_6460137.JPG
break,html.Screen,4_102_1,2023-11-06T15:34:29.634Z,,0,,,NaN,,,,,,false,,,,635381.4000005722,635381.1000003815,,635380.7000007629,,635397.648,8,400,,,
break_continue,html.Screen,4_102_2,2023-11-06T15:34:29.634Z,,0,,,NaN,,,,,,false,,,,635381.8000001907,635381.8000001907,,635381.6000003815,,635397.648,8,400,,,
sequence,flow.Sequence,4_102,2023-11-06T15:34:29.635Z,,0,,,3184.220000190777,completion,,,,,false,,,,635382,635381.8000001907,632181.523,632189.6000003815,632197.58,635397.648,8,400,,,
trial,html.Screen,4_103_0,2023-11-06T15:34:34.374Z,,0,3,,4723.15200019069,response,ISIC_0028944.JPG,6,ISIC_0009989.JPG,ISIC_0028944.JPG,false,1,keypress(m),500,640121,640120.8000001907,635381.131,635382.1000003815,635397.648,640131.357,8,400,4,,ISIC_0009989.JPG
break,html.Screen,4_103_1,2023-11-06T15:34:34.375Z,,0,,,NaN,,,,,,false,,,,640122,640121.6000003815,,640121.2000007629,,640131.357,8,400,,,
break_continue,html.Screen,4_103_2,2023-11-06T15:34:34.375Z,,0,,,NaN,,,,,,false,,,,640122.3000001907,640122.2000007629,,640122.1000003815,,640131.357,8,400,,,
sequence,flow.Sequence,4_103,2023-11-06T15:34:34.375Z,,0,,,4724.552000762895,completion,,,,,false,,,,640122.5,640122.2000007629,635381.131,635382.1000003815,635397.648,640131.357,8,400,,,
trial,html.Screen,4_104_0,2023-11-06T15:34:38.297Z,,0,3,,3912.74300038151,response,ISIC_0000502.JPG,9,ISIC_6114646.JPG,ISIC_0000502.JPG,false,1,keypress(m),500,644044.5,644044.1000003815,640114.986,640122.6000003815,640131.357,644047.756,8,400,5,,ISIC_6114646.JPG
break,html.Screen,4_104_1,2023-11-06T15:34:38.298Z,,0,,,NaN,,,,,,false,,,,644045.6000003815,644045.3000001907,,644044.8000001907,,644047.756,8,400,,,
break_continue,html.Screen,4_104_2,2023-11-06T15:34:38.299Z,,0,,,NaN,,,,,,false,,,,644046.1000003815,644045.9000005722,,644045.8000001907,,644047.756,8,400,,,
sequence,flow.Sequence,4_104,2023-11-06T15:34:38.299Z,,0,,,3914.5430005722446,completion,,,,,false,,,,644046.3000001907,644045.9000005722,640114.986,640122.6000003815,640131.357,644047.756,8,400,,,
trial,html.Screen,4_105_0,2023-11-06T15:34:42.657Z,,0,3,,4356.644000572152,response,ISIC_0011947.JPG,8,ISIC_0026103.JPG,ISIC_0011947.JPG,false,1,keypress(m),500,648404.6000003815,648404.4000005722,644031.561,644046.5,644047.756,648414.598,8,400,6,,ISIC_0026103.JPG
break,html.Screen,4_105_1,2023-11-06T15:34:42.658Z,,0,,,NaN,,,,,,false,,,,648405.7000007629,648405.2000007629,,648404.9000005722,,648414.598,8,400,,,
break_continue,html.Screen,4_105_2,2023-11-06T15:34:42.659Z,,0,,,NaN,,,,,,false,,,,648406,648405.9000005722,,648405.8000001907,,648414.598,8,400,,,
sequence,flow.Sequence,4_105,2023-11-06T15:34:42.659Z,,0,,,4358.144000572152,completion,,,,,false,,,,648406.1000003815,648405.9000005722,644031.561,644046.3000001907,644047.756,648414.598,8,400,,,
trial,html.Screen,4_106_0,2023-11-06T15:34:46.012Z,,0,3,,3344.0020003814716,response,ISIC_4814912.JPG,8,ISIC_8551124.JPG,ISIC_8551124.JPG,false,0,keypress(z),500,651759,651758.6000003815,648398.046,648406.2000007629,648414.598,651764.507,8,400,7,,ISIC_4814912.JPG
break,html.Screen,4_106_1,2023-11-06T15:34:46.014Z,,0,,,NaN,,,,,,false,,,,651761,651760.7000007629,,651760.4000005722,,651764.507,8,400,,,
break_continue,html.Screen,4_106_2,2023-11-06T15:34:46.014Z,,0,,,NaN,,,,,,false,,,,651761.4000005722,651761.3000001907,,651761.2000007629,,651764.507,8,400,,,
sequence,flow.Sequence,4_106,2023-11-06T15:34:46.014Z,,0,,,3346.7020001907367,completion,,,,,false,,,,651761.6000003815,651761.3000001907,648398.046,648406.2000007629,648414.598,651764.507,8,400,,,
trial,html.Screen,4_107_0,2023-11-06T15:34:49.298Z,,0,3,,3282.7930001907516,response,ISIC_3666094.JPG,7,ISIC_0026619.JPG,ISIC_0026619.JPG,false,0,keypress(z),500,655047.6000003815,655047.3000001907,651748.504,651761.7000007629,651764.507,655064.661,8,400,8,,ISIC_3666094.JPG
break,html.Screen,4_107_1,2023-11-06T15:34:49.299Z,,0,,,NaN,,,,,,false,,,,655048.6000003815,655048.2000007629,,655047.8000001907,,655064.661,8,400,,,
break_continue,html.Screen,4_107_2,2023-11-06T15:34:49.299Z,,0,,,NaN,,,,,,false,,,,655049,655048.9000005722,,655048.7000007629,,655064.661,8,400,,,
sequence,flow.Sequence,4_107,2023-11-06T15:34:49.300Z,,0,,,3284.3930005722214,completion,,,,,false,,,,655049.1000003815,655048.9000005722,651748.504,651761.7000007629,651764.507,655064.661,8,400,,,
trial,html.Screen,4_108_0,2023-11-06T15:34:54.490Z,,0,3,,5174.939000381506,response,ISIC_0952221.JPG,8,ISIC_0033729.JPG,ISIC_0033729.JPG,false,0,keypress(z),500,660239.8000001907,660239.6000003815,655031.881,655049.3000001907,655064.661,660247.973,8,400,9,,ISIC_0952221.JPG
break,html.Screen,4_108_1,2023-11-06T15:34:54.491Z,,0,,,NaN,,,,,,false,,,,660240.8000001907,660240.3000001907,,660240,,660247.973,8,400,,,
break_continue,html.Screen,4_108_2,2023-11-06T15:34:54.492Z,,0,,,NaN,,,,,,false,,,,660241.2000007629,660241.1000003815,,660240.9000005722,,660247.973,8,400,,,
sequence,flow.Sequence,4_108,2023-11-06T15:34:54.492Z,,0,,,5176.439000381506,completion,,,,,false,,,,660241.3000001907,660241.1000003815,655031.881,655049.3000001907,655064.661,660247.973,8,400,,,
trial,html.Screen,4_109_0,2023-11-06T15:34:58.368Z,,0,3,,3869.2270007629413,response,ISIC_0027822.JPG,7,ISIC_0046921.JPG,ISIC_0046921.JPG,false,0,keypress(z),500,664117.5,664117.2000007629,660231.865,660241.4000005722,660247.973,664132.035,8,400,10,,ISIC_0027822.JPG
break,html.Screen,4_109_1,2023-11-06T15:34:58.369Z,,0,,,NaN,,,,,,false,,,,664118.4000005722,664118,,664117.6000003815,,664132.035,8,400,,,
break_continue,html.Screen,4_109_2,2023-11-06T15:34:58.369Z,,0,,,NaN,,,,,,false,,,,664118.8000001907,664118.7000007629,,664118.6000003815,,664132.035,8,400,,,
sequence,flow.Sequence,4_109,2023-11-06T15:34:58.369Z,,0,,,3870.7270007629413,completion,,,,,false,,,,664118.9000005722,664118.7000007629,660231.865,660241.4000005722,660247.973,664132.035,8,400,,,
trial,html.Screen,4_110_0,2023-11-06T15:35:01.802Z,,0,3,,3419.7650001907023,response,ISIC_2717192.JPG,11,ISIC_2631789.JPG,ISIC_2717192.JPG,false,1,keypress(m),500,667552.1000003815,667551.8000001907,664115.298,664119,664132.035,667565.413,8,400,11,,ISIC_2631789.JPG
break,html.Screen,4_110_1,2023-11-06T15:35:01.803Z,,0,,,NaN,,,,,,false,,,,667553,667552.6000003815,,667552.3000001907,,667565.413,8,400,,,
break_continue,html.Screen,4_110_2,2023-11-06T15:35:01.804Z,,0,,,NaN,,,,,,false,,,,667553.4000005722,667553.3000001907,,667553.2000007629,,667565.413,8,400,,,
sequence,flow.Sequence,4_110,2023-11-06T15:35:01.804Z,,0,,,3421.2650001907023,completion,,,,,false,,,,667553.6000003815,667553.3000001907,664115.298,664119,664132.035,667565.413,8,400,,,
trial,html.Screen,4_111_0,2023-11-06T15:35:05.924Z,,0,3,,4107.6870003815275,response,ISIC_0033287.JPG,4,ISIC_4042619.JPG,ISIC_0033287.JPG,false,1,keypress(m),500,671673.4000005722,671673.1000003815,667548.262,667553.7000007629,667565.413,671681.463,8,400,12,,ISIC_4042619.JPG
break,html.Screen,4_111_1,2023-11-06T15:35:05.925Z,,0,,,NaN,,,,,,false,,,,671674.3000001907,671674,,671673.6000003815,,671681.463,8,400,,,
break_continue,html.Screen,4_111_2,2023-11-06T15:35:05.925Z,,0,,,NaN,,,,,,false,,,,671674.7000007629,671674.6000003815,,671674.5,,671681.463,8,400,,,
sequence,flow.Sequence,4_111,2023-11-06T15:35:05.925Z,,0,,,4109.1870003815275,completion,,,,,false,,,,671674.8000001907,671674.6000003815,667548.262,667553.7000007629,667565.413,671681.463,8,400,,,
trial,html.Screen,4_112_0,2023-11-06T15:35:12.924Z,,0,3,,6992.037000000011,response,ISIC_1848300.JPG,10,ISIC_0976232.JPG,ISIC_0976232.JPG,false,0,keypress(z),500,678673.8000001907,678673.5,671665.475,671675,671681.463,678681.612,8,400,13,,ISIC_1848300.JPG
break,html.Screen,4_112_1,2023-11-06T15:35:12.925Z,,0,,,NaN,,,,,,false,,,,678674.7000007629,678674.4000005722,,678674,,678681.612,8,400,,,
break_continue,html.Screen,4_112_2,2023-11-06T15:35:12.925Z,,0,,,NaN,,,,,,false,,,,678675.1000003815,678675,,678674.9000005722,,678681.612,8,400,,,
sequence,flow.Sequence,4_112,2023-11-06T15:35:12.926Z,,0,,,6993.537000000011,completion,,,,,false,,,,678675.2000007629,678675,671665.475,671674.9000005722,671681.463,678681.612,8,400,,,
trial,html.Screen,4_113_0,2023-11-06T15:35:16.964Z,,0,3,,4031.28800057224,response,ISIC_0024513.JPG,6,ISIC_6445453.JPG,ISIC_0024513.JPG,false,1,keypress(m),500,682713.2000007629,682712.9000005722,678665.074,678675.3000001907,678681.612,682715.017,8,400,14,,ISIC_6445453.JPG
break,html.Screen,4_113_1,2023-11-06T15:35:16.964Z,,0,,,NaN,,,,,,false,,,,682714.1000003815,682713.7000007629,,682713.3000001907,,682715.017,8,400,,,
break_continue,html.Screen,4_113_2,2023-11-06T15:35:16.965Z,,0,,,NaN,,,,,,false,,,,682714.5,682714.4000005722,,682714.3000001907,,682715.017,8,400,,,
sequence,flow.Sequence,4_113,2023-11-06T15:35:16.965Z,,0,,,4032.78800057224,completion,,,,,false,,,,682714.6000003815,682714.4000005722,678665.074,678675.3000001907,678681.612,682715.017,8,400,,,
trial,html.Screen,4_114_0,2023-11-06T15:35:21.577Z,,0,3,,4610.883000572212,response,ISIC_0014288.JPG,5,ISIC_0024398.JPG,ISIC_0024398.JPG,false,0,keypress(z),500,687326.3000001907,687325.9000005722,682698.615,682714.7000007629,682715.017,687331.741,8,400,15,,ISIC_0014288.JPG
break,html.Screen,4_114_1,2023-11-06T15:35:21.578Z,,0,,,NaN,,,,,,false,,,,687327.4000005722,687327,,687326.7000007629,,687331.741,8,400,,,
break_continue,html.Screen,4_114_2,2023-11-06T15:35:21.578Z,,0,,,NaN,,,,,,false,,,,687327.8000001907,687327.6000003815,,687327.6000003815,,687331.741,8,400,,,
sequence,flow.Sequence,4_114,2023-11-06T15:35:21.578Z,,0,,,4612.583000381477,completion,,,,,false,,,,687328,687327.6000003815,682698.615,682714.7000007629,682715.017,687331.741,8,400,,,
trial,html.Screen,4_115_0,2023-11-06T15:35:25.571Z,,0,3,,3988.5590001906967,response,ISIC_9851899.JPG,6,ISIC_0010360.JPG,ISIC_9851899.JPG,false,1,keypress(m),500,691320.5,691320.3000001907,687315.331,687328,687331.741,691332.428,8,400,16,,ISIC_0010360.JPG
break,html.Screen,4_115_1,2023-11-06T15:35:25.572Z,,0,,,NaN,,,,,,false,,,,691321.6000003815,691321.1000003815,,691320.8000001907,,691332.428,8,400,,,
break_continue,html.Screen,4_115_2,2023-11-06T15:35:25.572Z,,0,,,NaN,,,,,,false,,,,691321.9000005722,691321.8000001907,,691321.7000007629,,691332.428,8,400,,,
sequence,flow.Sequence,4_115,2023-11-06T15:35:25.572Z,,0,,,3990.0590001906967,completion,,,,,false,,,,691322.1000003815,691321.8000001907,687315.331,687328,687331.741,691332.428,8,400,,,
trial,html.Screen,4_116_0,2023-11-06T15:35:30.503Z,,0,3,,4920.1720003815135,response,ISIC_4332846.JPG,10,ISIC_0033329.JPG,ISIC_0033329.JPG,false,0,keypress(z),500,696252.8000001907,696252.6000003815,691315.759,691322.2000007629,691332.428,696265.609,8,400,17,,ISIC_4332846.JPG
break,html.Screen,4_116_1,2023-11-06T15:35:30.504Z,,0,,,NaN,,,,,,false,,,,696253.9000005722,696253.4000005722,,696253.1000003815,,696265.609,8,400,,,
break_continue,html.Screen,4_116_2,2023-11-06T15:35:30.505Z,,0,,,NaN,,,,,,false,,,,696254.3000001907,696254.1000003815,,696254.1000003815,,696265.609,8,400,,,
sequence,flow.Sequence,4_116,2023-11-06T15:35:30.505Z,,0,,,4921.6720003815135,completion,,,,,false,,,,696254.4000005722,696254.1000003815,691315.759,691322.2000007629,691332.428,696265.609,8,400,,,
trial,html.Screen,4_117_0,2023-11-06T15:35:35.874Z,,0,3,,5358.0910007628845,response,ISIC_0013549.JPG,12,ISIC_0029383.JPG,ISIC_0029383.JPG,false,0,keypress(z),500,701624,701623.7000007629,696249.163,696254.5,696265.609,701631.95,8,400,18,,ISIC_0013549.JPG
break,html.Screen,4_117_1,2023-11-06T15:35:35.875Z,,0,,,NaN,,,,,,false,,,,701624.9000005722,701624.6000003815,,701624.2000007629,,701631.95,8,400,,,
break_continue,html.Screen,4_117_2,2023-11-06T15:35:35.876Z,,0,,,NaN,,,,,,false,,,,701625.5,701625.2000007629,,701625,,701631.95,8,400,,,
sequence,flow.Sequence,4_117,2023-11-06T15:35:35.876Z,,0,,,5359.5910007628845,completion,,,,,false,,,,701625.6000003815,701625.2000007629,696249.163,696254.4000005722,696265.609,701631.95,8,400,,,
trial,html.Screen,4_118_0,2023-11-06T15:35:39.178Z,,0,3,,3295.450000572251,response,ISIC_4897852.JPG,6,ISIC_0000440.JPG,ISIC_0000440.JPG,false,0,keypress(z),500,704927.6000003815,704927.4000005722,701615.261,701625.7000007629,701631.95,704931.98,8,400,19,,ISIC_4897852.JPG
break,html.Screen,4_118_1,2023-11-06T15:35:39.179Z,,0,,,NaN,,,,,,false,,,,704928.6000003815,704928.2000007629,,704927.8000001907,,704931.98,8,400,,,
break_continue,html.Screen,4_118_2,2023-11-06T15:35:39.179Z,,0,,,NaN,,,,,,false,,,,704929,704928.8000001907,,704928.8000001907,,704931.98,8,400,,,
sequence,flow.Sequence,4_118,2023-11-06T15:35:39.180Z,,0,,,3296.8500001907814,completion,,,,,false,,,,704929.2000007629,704928.8000001907,701615.261,701625.6000003815,701631.95,704931.98,8,400,,,
trial,html.Screen,4_119_0,2023-11-06T15:35:48.467Z,,0,3,,9281.920000572223,response,ISIC_0031337.JPG,7,ISIC_6559840.JPG,ISIC_0031337.JPG,false,1,keypress(m),500,714214.2000007629,714213.9000005722,704915.953,704929.2000007629,704931.98,714237.52,8,400,20,,ISIC_6559840.JPG
break,html.Screen,4_119_1,2023-11-06T15:35:48.468Z,,0,,,NaN,,,,,,false,,,,714215.1000003815,714214.7000007629,,714214.4000005722,,714237.52,8,400,,,
break_continue,html.Screen,4_119_2,2023-11-06T15:35:48.468Z,,0,,,NaN,,,,,,false,,,,714215.4000005722,714215.4000005722,,714215.2000007629,,714237.52,8,400,,,
sequence,flow.Sequence,4_119,2023-11-06T15:35:48.468Z,,0,,,9283.420000572223,completion,,,,,false,,,,714215.6000003815,714215.4000005722,704915.953,704929.2000007629,704931.98,714237.52,8,400,,,
trial,html.Screen,4_120_0,2023-11-06T15:35:51.624Z,,0,3,,3133.2800001907162,response,ISIC_0001152.JPG,6,ISIC_0001120.JPG,ISIC_0001152.JPG,false,1,keypress(m),500,717371,717370.8000001907,714198.951,714215.7000007629,714237.52,717382.809,8,400,21,,ISIC_0001120.JPG
break,html.Screen,4_120_1,2023-11-06T15:35:51.625Z,,0,,,NaN,,,,,,false,,,,717372.1000003815,717371.6000003815,,717371.3000001907,,717382.809,8,400,,,
break_continue,html.Screen,4_120_2,2023-11-06T15:35:51.625Z,,0,,,NaN,,,,,,false,,,,717372.5,717372.3000001907,,717372.3000001907,,717382.809,8,400,,,
sequence,flow.Sequence,4_120,2023-11-06T15:35:51.625Z,,0,,,3134.7800001907162,completion,,,,,false,,,,717372.6000003815,717372.3000001907,714198.951,714215.6000003815,714237.52,717382.809,8,400,,,
trial,html.Screen,4_121_0,2023-11-06T15:35:55.236Z,,0,3,,3599.891000762931,response,ISIC_6961503.JPG,10,ISIC_5029636.JPG,ISIC_6961503.JPG,false,1,keypress(m),500,720983,720982.7000007629,717366.132,717372.8000001907,717382.809,720998.94,8,400,22,,ISIC_5029636.JPG
break,html.Screen,4_121_1,2023-11-06T15:35:55.236Z,,0,,,NaN,,,,,,false,,,,720983.8000001907,720983.6000003815,,720983.2000007629,,720998.94,8,400,,,
break_continue,html.Screen,4_121_2,2023-11-06T15:35:55.237Z,,0,,,NaN,,,,,,false,,,,720984.3000001907,720984.1000003815,,720984,,720998.94,8,400,,,
sequence,flow.Sequence,4_121,2023-11-06T15:35:55.237Z,,0,,,3601.2910003814613,completion,,,,,false,,,,720984.3000001907,720984.1000003815,717366.132,717372.7000007629,717382.809,720998.94,8,400,,,
trial,html.Screen,4_122_0,2023-11-06T15:36:00.441Z,,0,3,,5189.660000381526,response,ISIC_5507066.JPG,6,ISIC_0024805.JPG,ISIC_0024805.JPG,false,0,keypress(z),500,726188.9000005722,726188.6000003815,720982.877,720984.5,720998.94,726198.927,8,400,23,,ISIC_5507066.JPG
break,html.Screen,4_122_1,2023-11-06T15:36:00.443Z,,0,,,NaN,,,,,,false,,,,726190,726189.7000007629,,726189.2000007629,,726198.927,8,400,,,
break_continue,html.Screen,4_122_2,2023-11-06T15:36:00.444Z,,0,,,NaN,,,,,,false,,,,726191.6000003815,726190.3000001907,,726190.2000007629,,726198.927,8,400,,,
sequence,flow.Sequence,4_122,2023-11-06T15:36:00.444Z,,0,,,5191.360000190791,completion,,,,,false,,,,726191.9000005722,726190.3000001907,720982.877,720984.4000005722,720998.94,726198.927,8,400,,,
trial,html.Screen,4_123_0,2023-11-06T15:36:05.842Z,,0,3,,5390.37300019071,response,ISIC_0024259.JPG,7,ISIC_2587955.JPG,ISIC_0024259.JPG,false,1,keypress(m),500,731589.6000003815,731589.3000001907,726182.92,726192,726198.927,731599.069,8,400,24,,ISIC_2587955.JPG
break,html.Screen,4_123_1,2023-11-06T15:36:05.843Z,,0,,,NaN,,,,,,false,,,,731590.6000003815,731590.1000003815,,731589.9000005722,,731599.069,8,400,,,
break_continue,html.Screen,4_123_2,2023-11-06T15:36:05.844Z,,0,,,NaN,,,,,,false,,,,731591.3000001907,731591.1000003815,,731590.9000005722,,731599.069,8,400,,,
sequence,flow.Sequence,4_123,2023-11-06T15:36:05.844Z,,0,,,5392.173000381445,completion,,,,,false,,,,731591.7000007629,731591.1000003815,726182.92,726192,726198.927,731599.069,8,400,,,
trial,html.Screen,4_124_0,2023-11-06T15:36:11.818Z,,0,3,,5965.731000190717,response,ISIC_0025006.JPG,8,ISIC_0030193.JPG,ISIC_0025006.JPG,false,1,keypress(m),500,737565,737564.8000001907,731582.986,731591.9000005722,731599.069,737589.153,8,400,25,,ISIC_0030193.JPG
break,html.Screen,4_124_1,2023-11-06T15:36:11.818Z,,0,,,NaN,,,,,,false,,,,737565.9000005722,737565.5,,737565.2000007629,,737589.153,8,400,,,
break_continue,html.Screen,4_124_2,2023-11-06T15:36:11.819Z,,0,,,NaN,,,,,,false,,,,737566.4000005722,737566.2000007629,,737566.1000003815,,737589.153,8,400,,,
sequence,flow.Sequence,4_124,2023-11-06T15:36:11.819Z,,0,,,5967.131000762922,completion,,,,,false,,,,737566.8000001907,737566.2000007629,731582.986,731591.8000001907,731599.069,737589.153,8,400,,,
trial,html.Screen,4_125_0,2023-11-06T15:36:20.766Z,,0,3,,8923.84699999995,response,ISIC_0028415.JPG,8,ISIC_0062468.JPG,ISIC_0062468.JPG,false,0,keypress(z),500,746513.3000001907,746513,737549.78,737566.9000005722,737589.153,746515.919,8,400,26,,ISIC_0028415.JPG
break,html.Screen,4_125_1,2023-11-06T15:36:20.767Z,,0,,,NaN,,,,,,false,,,,746514.2000007629,746513.7000007629,,746513.4000005722,,746515.919,8,400,,,
break_continue,html.Screen,4_125_2,2023-11-06T15:36:20.767Z,,0,,,NaN,,,,,,false,,,,746514.6000003815,746514.5,,746514.4000005722,,746515.919,8,400,,,
