sender,sender_type,sender_id,timestamp,meta,,blockNo,condition,duration,ended_on,img_left,img_reveal,img_right,loser,practice,response,response_action,selection_duration,time_commit,time_end,time_render,time_run,time_show,time_switch,total_blocks,total_trials,trialNo,url,winner
informed_consent,html.Screen,0,2023-09-12T20:06:29.657Z,"{""labjs_version"":""20.2.4"",""labjs_build"":{""flavor"":""production"",""commit"":""f5b4a49f956347addd546a832a3327688c2c0fef""},""location"":""https://run.pavlovia.org/MurrayBennett/melanoma-2afc/?participant=67593&platform=sona"",""userAgent"":""Mozilla/5.0 (Windows NT 10.0; Win64; x64) AppleWebKit/537.36 (KHTML, like Gecko) Chrome/116.0.0.0 Safari/537.36 Edg/116.0.1938.69"",""platform"":""Win32"",""language"":""en-US"",""locale"":""en-US"",""timeZone"":""America/Chicago"",""timezoneOffset"":300,""screen_width"":1368,""screen_height"":912,""scroll_width"":1368,""scroll_height"":745,""window_innerWidth"":1368,""window_innerHeight"":793,""devicePixelRatio"":2}",,,,16877.18699961853,response,,,,,,consent,click button,,19092.89999961853,19087.39999961853,1893.442,2204.5,2210.213,19121.79,,,,"{""participant"":""67593"",""platform"":""sona""}",
Welcome,html.Screen,1,2023-09-12T20:07:39.523Z,,,,irregular,69834.00999923705,response,,,,,,continue,click button,,88958.19999885559,88955.79999923706,19088.449,19093.29999923706,19121.79,88969.959,,,,,
trial,html.Screen,2_0_0,2023-09-12T20:07:46.121Z,,0,0,,6586.1409984741185,response,ISIC_0061792.JPG,,ISIC_4679428.JPG,ISIC_0061792.JPG,true,1,keypress(m),500,95556.5,95556.09999847412,88953.406,88958.59999847412,88969.959,95574.556,1,6,1,,ISIC_4679428.JPG
sequence,flow.Sequence,2_0,2023-09-12T20:07:46.122Z,,0,,,6586.1409984741185,completion,,,,,true,,,,95557.09999847412,95556.09999847412,88953.406,88958.5,88969.959,95574.556,1,6,,,
trial,html.Screen,2_1_0,2023-09-12T20:07:50.942Z,,0,0,,4802.243999237064,response,ISIC_0776486.JPG,,ISIC_5199497.JPG,ISIC_0776486.JPG,true,1,keypress(m),500,100377,100376.79999923706,95557.802,95557.29999923706,95574.556,100394.554,1,6,2,,ISIC_5199497.JPG
sequence,flow.Sequence,2_1,2023-09-12T20:07:50.942Z,,0,,,4802.243999237064,completion,,,,,true,,,,100377.29999923706,100376.79999923706,95557.802,95557.19999885559,95574.556,100394.554,1,6,,,
trial,html.Screen,2_2_0,2023-09-12T20:07:55.543Z,,0,0,,4583.445999999996,response,ISIC_2556187.JPG,,ISIC_8575776.JPG,ISIC_8575776.JPG,true,0,keypress(z),500,104978.29999923706,104978,100378.048,100377.5,100394.554,104980.868,1,6,3,,ISIC_2556187.JPG
sequence,flow.Sequence,2_2,2023-09-12T20:07:55.543Z,,0,,,4583.445999999996,completion,,,,,true,,,,104978.5,104978,100378.048,100377.5,100394.554,104980.868,1,6,,,
trial,html.Screen,2_3_0,2023-09-12T20:07:58.752Z,,0,0,,3206.731998474119,response,ISIC_9238366.JPG,,ISIC_8141769.JPG,ISIC_9238366.JPG,true,1,keypress(m),500,108187.89999961853,108187.59999847412,104964.598,104978.69999885559,104980.868,108199.833,1,6,4,,ISIC_8141769.JPG
sequence,flow.Sequence,2_3,2023-09-12T20:07:58.753Z,,0,,,3206.731998474119,completion,,,,,true,,,,108188.19999885559,108187.59999847412,104964.598,104978.59999847412,104980.868,108199.833,1,6,,,
trial,html.Screen,2_4_0,2023-09-12T20:08:02.307Z,,0,0,,3542.2669984741224,response,ISIC_8949026.JPG,,ISIC_9959593.JPG,ISIC_8949026.JPG,true,1,keypress(m),500,111742.59999847412,111742.09999847412,108183.334,108188.29999923706,108199.833,111752.215,1,6,5,,ISIC_9959593.JPG
sequence,flow.Sequence,2_4,2023-09-12T20:08:02.307Z,,0,,,3542.2669984741224,completion,,,,,true,,,,111743.09999847412,111742.09999847412,108183.334,108188.29999923706,108199.833,111752.215,1,6,,,
trial,html.Screen,2_5_0,2023-09-12T20:08:05.720Z,,0,0,,3403.2850000000035,response,ISIC_0010479.JPG,,ISIC_0460240.JPG,ISIC_0460240.JPG,true,0,keypress(z),500,115155.89999961853,115155.5,111735.507,111743.19999885559,111752.215,115171.19,1,6,6,,ISIC_0010479.JPG
sequence,flow.Sequence,2_5,2023-09-12T20:08:05.721Z,,0,,,3403.2850000000035,completion,,,,,true,,,,115156.19999885559,115155.5,111735.507,111743.19999885559,111752.215,115171.19,1,6,,,
loop,flow.Loop,2,2023-09-12T20:08:05.721Z,,,,,26185.540999999997,completion,,,,,true,,,,115156.5,115155.5,88953.406,88958.5,88969.959,115171.19,1,6,,,
exp_instructions,html.Screen,3,2023-09-12T20:08:15.623Z,,,,,9885.609999237058,response,,,,,,continue,keypress(Space),,125058.19999885559,125056.79999923706,115154.511,115156.59999847412,115171.19,125061.352,,,,,
trial,html.Screen,4_0_0,2023-09-12T20:08:19.792Z,,0,1,,4165.347998855592,response,ISIC_0033261.JPG,5,ISIC_0026560.JPG,ISIC_0026560.JPG,false,0,keypress(z),500,129226.89999961853,129226.69999885559,125050.38,125058.5,125061.352,129230.821,8,400,1,,ISIC_0033261.JPG
break,html.Screen,4_0_1,2023-09-12T20:08:19.793Z,,0,,,NaN,,,,,,false,,,,129228.59999847412,129228,,129227.19999885559,,129230.821,8,400,,,
break_continue,html.Screen,4_0_2,2023-09-12T20:08:19.794Z,,0,,,NaN,,,,,,false,,,,129229.19999885559,129229,,129228.69999885559,,129230.821,8,400,,,
sequence,flow.Sequence,4_0,2023-09-12T20:08:19.794Z,,0,,,4167.648000000001,completion,,,,,false,,,,129229.39999961853,129229,125050.38,125058.5,125061.352,129230.821,8,400,,,
trial,html.Screen,4_1_0,2023-09-12T20:08:24.822Z,,0,1,,5026.679000000004,response,ISIC_8773685.JPG,6,ISIC_1658623.JPG,ISIC_8773685.JPG,false,1,keypress(m),500,134257.79999923706,134257.5,129214.317,129229.59999847412,129230.821,134267.644,8,400,2,,ISIC_1658623.JPG
break,html.Screen,4_1_1,2023-09-12T20:08:24.823Z,,0,,,NaN,,,,,,false,,,,134258.5,134258.29999923706,,134258,,134267.644,8,400,,,
break_continue,html.Screen,4_1_2,2023-09-12T20:08:24.824Z,,0,,,NaN,,,,,,false,,,,134259.09999847412,134259,,134258.6999988556,,134267.644,8,400,,,
sequence,flow.Sequence,4_1,2023-09-12T20:08:24.824Z,,0,,,5028.179000000004,completion,,,,,false,,,,134259.39999961853,134259,129214.317,129229.5,129230.821,134267.644,8,400,,,
trial,html.Screen,4_2_0,2023-09-12T20:08:28.143Z,,0,1,,3310.3559999999998,response,ISIC_0071901.JPG,4,ISIC_0028211.JPG,ISIC_0028211.JPG,false,0,keypress(z),500,137578.29999923706,137578,134250.801,134259.39999961853,134267.644,137586.6,8,400,3,,ISIC_0071901.JPG
break,html.Screen,4_2_1,2023-09-12T20:08:28.144Z,,0,,,NaN,,,,,,false,,,,137579.29999923706,137579,,137578.59999847412,,137586.6,8,400,,,
break_continue,html.Screen,4_2_2,2023-09-12T20:08:28.145Z,,0,,,NaN,,,,,,false,,,,137579.89999961853,137579.79999923706,,137579.59999847412,,137586.6,8,400,,,
sequence,flow.Sequence,4_2,2023-09-12T20:08:28.145Z,,0,,,3312.1559992370603,completion,,,,,false,,,,137580.09999847412,137579.79999923706,134250.801,134259.39999961853,134267.644,137586.6,8,400,,,
trial,html.Screen,4_3_0,2023-09-12T20:08:32.232Z,,0,1,,4080.099998855585,response,ISIC_0054655.JPG,5,ISIC_0025580.JPG,ISIC_0054655.JPG,false,1,keypress(m),500,141667,141666.6999988556,137570.058,137580.1999988556,137586.6,141672.72,8,400,4,,ISIC_0025580.JPG
break,html.Screen,4_3_1,2023-09-12T20:08:32.232Z,,0,,,NaN,,,,,,false,,,,141667.6999988556,141667.5,,141667.09999847412,,141672.72,8,400,,,
break_continue,html.Screen,4_3_2,2023-09-12T20:08:32.233Z,,0,,,NaN,,,,,,false,,,,141668.29999923706,141668.09999847412,,141667.79999923706,,141672.72,8,400,,,
sequence,flow.Sequence,4_3,2023-09-12T20:08:32.233Z,,0,,,4081.4999984741153,completion,,,,,false,,,,141668.5,141668.09999847412,137570.058,137580.09999847412,137586.6,141672.72,8,400,,,
trial,html.Screen,4_4_0,2023-09-12T20:08:35.787Z,,0,1,,3549.179999618529,response,ISIC_6382207.JPG,4,ISIC_0025242.JPG,ISIC_0025242.JPG,false,0,keypress(z),500,145222.1999988556,145221.89999961853,141656.474,141668.59999847412,141672.72,145225.222,8,400,5,,ISIC_6382207.JPG
break,html.Screen,4_4_1,2023-09-12T20:08:35.788Z,,0,,,NaN,,,,,,false,,,,145222.89999961853,145222.6999988556,,145222.29999923706,,145225.222,8,400,,,
break_continue,html.Screen,4_4_2,2023-09-12T20:08:35.788Z,,0,,,NaN,,,,,,false,,,,145223.39999961853,145223.29999923706,,145223,,145225.222,8,400,,,
sequence,flow.Sequence,4_4,2023-09-12T20:08:35.788Z,,0,,,3550.5799992370594,completion,,,,,false,,,,145223.5,145223.29999923706,141656.474,141668.59999847412,141672.72,145225.222,8,400,,,
trial,html.Screen,4_5_0,2023-09-12T20:08:40.318Z,,0,1,,4528.077999237052,response,ISIC_7630208.JPG,5,ISIC_0693902.JPG,ISIC_0693902.JPG,false,0,keypress(z),500,149753.79999923706,149753.29999923706,145208.722,145223.6999988556,145225.222,149778.39,8,400,6,,ISIC_7630208.JPG
break,html.Screen,4_5_1,2023-09-12T20:08:40.320Z,,0,,,NaN,,,,,,false,,,,149755.29999923706,149754.6999988556,,149754.09999847412,,149778.39,8,400,,,
break_continue,html.Screen,4_5_2,2023-09-12T20:08:40.321Z,,0,,,NaN,,,,,,false,,,,149755.89999961853,149755.79999923706,,149755.59999847412,,149778.39,8,400,,,
sequence,flow.Sequence,4_5,2023-09-12T20:08:40.321Z,,0,,,4530.577999237052,completion,,,,,false,,,,149756.09999847412,149755.79999923706,145208.722,145223.59999847412,145225.222,149778.39,8,400,,,
trial,html.Screen,4_6_0,2023-09-12T20:08:49.943Z,,0,1,,9599.609999999986,response,ISIC_0024398.JPG,5,ISIC_0006672.JPG,ISIC_0006672.JPG,false,0,keypress(z),500,159378.39999961853,159378,149745.012,149756.39999961853,149778.39,159384.893,8,400,7,,ISIC_0024398.JPG
break,html.Screen,4_6_1,2023-09-12T20:08:49.944Z,,0,,,NaN,,,,,,false,,,,159379.39999961853,159379.1999988556,,159378.59999847412,,159384.893,8,400,,,
break_continue,html.Screen,4_6_2,2023-09-12T20:08:49.945Z,,0,,,NaN,,,,,,false,,,,159380.09999847412,159380,,159379.59999847412,,159384.893,8,400,,,
sequence,flow.Sequence,4_6,2023-09-12T20:08:49.945Z,,0,,,9601.609999999986,completion,,,,,false,,,,159380.29999923706,159380,149745.012,149756.29999923706,149778.39,159384.893,8,400,,,
trial,html.Screen,4_7_0,2023-09-12T20:08:53.995Z,,0,1,,4044.9069992370496,response,ISIC_0032492.JPG,5,ISIC_2075121.JPG,ISIC_2075121.JPG,false,0,keypress(z),500,163430.09999847412,163429.79999923706,159368.269,159380.5,159384.893,163437.658,8,400,8,,ISIC_0032492.JPG
break,html.Screen,4_7_1,2023-09-12T20:08:53.996Z,,0,,,NaN,,,,,,false,,,,163430.89999961853,163430.6999988556,,163430.29999923706,,163437.658,8,400,,,
break_continue,html.Screen,4_7_2,2023-09-12T20:08:53.996Z,,0,,,NaN,,,,,,false,,,,163431.39999961853,163431.1999988556,,163431,,163437.658,8,400,,,
sequence,flow.Sequence,4_7,2023-09-12T20:08:53.996Z,,0,,,4046.30699885558,completion,,,,,false,,,,163431.59999847412,163431.1999988556,159368.269,159380.5,159384.893,163437.658,8,400,,,
trial,html.Screen,4_8_0,2023-09-12T20:08:59.538Z,,0,1,,5535.141999237065,response,ISIC_2565206.JPG,4,ISIC_8899350.JPG,ISIC_8899350.JPG,false,0,keypress(z),500,168973.1999988556,168972.79999923706,163421.588,163431.6999988556,163437.658,168992.032,8,400,9,,ISIC_2565206.JPG
break,html.Screen,4_8_1,2023-09-12T20:08:59.539Z,,0,,,NaN,,,,,,false,,,,168974.09999847412,168973.89999961853,,168973.39999961853,,168992.032,8,400,,,
break_continue,html.Screen,4_8_2,2023-09-12T20:08:59.539Z,,0,,,NaN,,,,,,false,,,,168974.79999923706,168974.6999988556,,168974.59999847412,,168992.032,8,400,,,
sequence,flow.Sequence,4_8,2023-09-12T20:08:59.540Z,,0,,,5537.041998855595,completion,,,,,false,,,,168975,168974.6999988556,163421.588,163431.59999847412,163437.658,168992.032,8,400,,,
trial,html.Screen,4_9_0,2023-09-12T20:09:02.454Z,,0,1,,2896.5679984741146,response,ISIC_0032204.JPG,5,ISIC_0027069.JPG,ISIC_0032204.JPG,false,1,keypress(m),500,171889.09999847412,171888.59999847412,168958.324,168975.1999988556,168992.032,171893.594,8,400,10,,ISIC_0027069.JPG
break,html.Screen,4_9_1,2023-09-12T20:09:02.455Z,,0,,,NaN,,,,,,false,,,,171890.29999923706,171890,,171889.29999923706,,171893.594,8,400,,,
break_continue,html.Screen,4_9_2,2023-09-12T20:09:02.456Z,,0,,,NaN,,,,,,false,,,,171890.89999961853,171890.79999923706,,171890.59999847412,,171893.594,8,400,,,
sequence,flow.Sequence,4_9,2023-09-12T20:09:02.456Z,,0,,,2898.767999237054,completion,,,,,false,,,,171891.09999847412,171890.79999923706,168958.324,168975.1999988556,168992.032,171893.594,8,400,,,
trial,html.Screen,4_10_0,2023-09-12T20:09:07.162Z,,0,1,,4703.605998855579,response,ISIC_1131588.JPG,6,ISIC_1383822.JPG,ISIC_1383822.JPG,false,0,keypress(z),500,176597.39999961853,176597.1999988556,171877.202,171891.1999988556,171893.594,176613.386,8,400,11,,ISIC_1131588.JPG
break,html.Screen,4_10_1,2023-09-12T20:09:07.163Z,,0,,,NaN,,,,,,false,,,,176598.09999847412,176597.79999923706,,176597.5,,176613.386,8,400,,,
break_continue,html.Screen,4_10_2,2023-09-12T20:09:07.163Z,,0,,,NaN,,,,,,false,,,,176598.39999961853,176598.29999923706,,176598.1999988556,,176613.386,8,400,,,
sequence,flow.Sequence,4_10,2023-09-12T20:09:07.163Z,,0,,,4704.705999237049,completion,,,,,false,,,,176598.39999961853,176598.29999923706,171877.202,171891.09999847412,171893.594,176613.386,8,400,,,
trial,html.Screen,4_11_0,2023-09-12T20:09:11.949Z,,0,1,,4770.614000000001,response,ISIC_0057978.JPG,4,ISIC_0032034.JPG,ISIC_0032034.JPG,false,0,keypress(z),500,181384.29999923706,181384,176596.755,176598.59999847412,176613.386,181400.243,8,400,12,,ISIC_0057978.JPG
break,html.Screen,4_11_1,2023-09-12T20:09:11.950Z,,0,,,NaN,,,,,,false,,,,181385.1999988556,181385,,181384.5,,181400.243,8,400,,,
break_continue,html.Screen,4_11_2,2023-09-12T20:09:11.950Z,,0,,,NaN,,,,,,false,,,,181385.79999923706,181385.59999847412,,181385.39999961853,,181400.243,8,400,,,
sequence,flow.Sequence,4_11,2023-09-12T20:09:11.951Z,,0,,,4772.2139984741225,completion,,,,,false,,,,181386,181385.59999847412,176596.755,176598.5,176613.386,181400.243,8,400,,,
trial,html.Screen,4_12_0,2023-09-12T20:09:15.745Z,,0,1,,3779.8569984741334,response,ISIC_7830756.JPG,6,ISIC_6416533.JPG,ISIC_7830756.JPG,false,1,keypress(m),500,185180.39999961853,185180.09999847412,181383.277,181386.1999988556,181400.243,185186.035,8,400,13,,ISIC_6416533.JPG
break,html.Screen,4_12_1,2023-09-12T20:09:15.746Z,,0,,,NaN,,,,,,false,,,,185181.1999988556,185181,,185180.59999847412,,185186.035,8,400,,,
break_continue,html.Screen,4_12_2,2023-09-12T20:09:15.746Z,,0,,,NaN,,,,,,false,,,,185181.89999961853,185181.6999988556,,185181.39999961853,,185186.035,8,400,,,
sequence,flow.Sequence,4_12,2023-09-12T20:09:15.747Z,,0,,,3781.456998855603,completion,,,,,false,,,,185182.09999847412,185181.6999988556,181383.277,181386.09999847412,181400.243,185186.035,8,400,,,
trial,html.Screen,4_13_0,2023-09-12T20:09:20.165Z,,0,1,,4414.264999237057,response,ISIC_0071594.JPG,6,ISIC_0063664.JPG,ISIC_0071594.JPG,false,1,keypress(m),500,189600.59999847412,189600.29999923706,185169.66,185182.1999988556,185186.035,189605.745,8,400,14,,ISIC_0063664.JPG
break,html.Screen,4_13_1,2023-09-12T20:09:20.166Z,,0,,,NaN,,,,,,false,,,,189601.5,189601.29999923706,,189600.89999961853,,189605.745,8,400,,,
break_continue,html.Screen,4_13_2,2023-09-12T20:09:20.167Z,,0,,,NaN,,,,,,false,,,,189602.29999923706,189602.1999988556,,189602,,189605.745,8,400,,,
sequence,flow.Sequence,4_13,2023-09-12T20:09:20.167Z,,0,,,4416.164998855587,completion,,,,,false,,,,189602.5,189602.1999988556,185169.66,185182.09999847412,185186.035,189605.745,8,400,,,
trial,html.Screen,4_14_0,2023-09-12T20:09:25.930Z,,0,1,,5759.255000000005,response,ISIC_0826998.JPG,5,ISIC_0054728.JPG,ISIC_0054728.JPG,false,0,keypress(z),500,195365.29999923706,195365,189588.774,189602.6999988556,189605.745,195376.402,8,400,15,,ISIC_0826998.JPG
break,html.Screen,4_14_1,2023-09-12T20:09:25.931Z,,0,,,NaN,,,,,,false,,,,195366,195365.79999923706,,195365.5,,195376.402,8,400,,,
break_continue,html.Screen,4_14_2,2023-09-12T20:09:25.931Z,,0,,,NaN,,,,,,false,,,,195366.59999847412,195366.39999961853,,195366.09999847412,,195376.402,8,400,,,
sequence,flow.Sequence,4_14,2023-09-12T20:09:25.931Z,,0,,,5760.654999618535,completion,,,,,false,,,,195366.6999988556,195366.39999961853,189588.774,189602.59999847412,189605.745,195376.402,8,400,,,
trial,html.Screen,4_15_0,2023-09-12T20:09:34.350Z,,0,1,,8408.397999237059,response,ISIC_0033063.JPG,5,ISIC_0057815.JPG,ISIC_0057815.JPG,false,0,keypress(z),500,203785,203784.79999923706,195359.914,195366.89999961853,195376.402,203798.721,8,400,16,,ISIC_0033063.JPG
break,html.Screen,4_15_1,2023-09-12T20:09:34.350Z,,0,,,NaN,,,,,,false,,,,203785.6999988556,203785.5,,203785.1999988556,,203798.721,8,400,,,
break_continue,html.Screen,4_15_2,2023-09-12T20:09:34.351Z,,0,,,NaN,,,,,,false,,,,203786.29999923706,203786.09999847412,,203785.89999961853,,203798.721,8,400,,,
sequence,flow.Sequence,4_15,2023-09-12T20:09:34.351Z,,0,,,8409.69799847412,completion,,,,,false,,,,203786.5,203786.09999847412,195359.914,195366.79999923706,195376.402,203798.721,8,400,,,
trial,html.Screen,4_16_0,2023-09-12T20:09:38.802Z,,0,1,,4437.9789988556,response,ISIC_4938791.JPG,4,ISIC_4434803.JPG,ISIC_4434803.JPG,false,0,keypress(z),500,208236.89999961853,208236.6999988556,203782.418,203786.59999847412,203798.721,208251.813,8,400,17,,ISIC_4938791.JPG
break,html.Screen,4_16_1,2023-09-12T20:09:38.802Z,,0,,,NaN,,,,,,false,,,,208237.6999988556,208237.5,,208237.09999847412,,208251.813,8,400,,,
break_continue,html.Screen,4_16_2,2023-09-12T20:09:38.803Z,,0,,,NaN,,,,,,false,,,,208238.29999923706,208238.1999988556,,208237.89999961853,,208251.813,8,400,,,
sequence,flow.Sequence,4_16,2023-09-12T20:09:38.803Z,,0,,,4439.4789988556,completion,,,,,false,,,,208238.5,208238.1999988556,203782.418,203786.5,203798.721,208251.813,8,400,,,
trial,html.Screen,4_17_0,2023-09-12T20:09:41.913Z,,0,1,,3096.1870000000054,response,ISIC_2304753.JPG,5,ISIC_0054332.JPG,ISIC_2304753.JPG,false,1,keypress(m),500,211348.29999923706,211348,208235.159,208238.6999988556,208251.813,211353.976,8,400,18,,ISIC_0054332.JPG
break,html.Screen,4_17_1,2023-09-12T20:09:41.914Z,,0,,,NaN,,,,,,false,,,,211349.29999923706,211349.09999847412,,211348.5,,211353.976,8,400,,,
break_continue,html.Screen,4_17_2,2023-09-12T20:09:41.915Z,,0,,,NaN,,,,,,false,,,,211349.89999961853,211349.79999923706,,211349.39999961853,,211353.976,8,400,,,
sequence,flow.Sequence,4_17,2023-09-12T20:09:41.915Z,,0,,,3097.986999237066,completion,,,,,false,,,,211350.09999847412,211349.79999923706,208235.159,208238.59999847412,208251.813,211353.976,8,400,,,
trial,html.Screen,4_18_0,2023-09-12T20:09:45.277Z,,0,1,,3358.2239988555957,response,ISIC_0033337.JPG,5,ISIC_6697013.JPG,ISIC_6697013.JPG,false,0,keypress(z),500,214712.59999847412,214712.1999988556,211337.228,211350.29999923706,211353.976,214723.132,8,400,19,,ISIC_0033337.JPG
break,html.Screen,4_18_1,2023-09-12T20:09:45.278Z,,0,,,NaN,,,,,,false,,,,214713.39999961853,214713.1999988556,,214712.79999923706,,214723.132,8,400,,,
break_continue,html.Screen,4_18_2,2023-09-12T20:09:45.279Z,,0,,,NaN,,,,,,false,,,,214714,214713.79999923706,,214713.59999847412,,214723.132,8,400,,,
sequence,flow.Sequence,4_18,2023-09-12T20:09:45.279Z,,0,,,3359.8239992370654,completion,,,,,false,,,,214714.1999988556,214713.79999923706,211337.228,211350.1999988556,211353.976,214723.132,8,400,,,
trial,html.Screen,4_19_0,2023-09-12T20:09:49.809Z,,0,1,,4520.767999618518,response,ISIC_6974830.JPG,5,ISIC_6486856.JPG,ISIC_6974830.JPG,false,1,keypress(m),500,219244.1999988556,219243.89999961853,214706.538,214714.29999923706,214723.132,219259.456,8,400,20,,ISIC_6486856.JPG
break,html.Screen,4_19_1,2023-09-12T20:09:49.810Z,,0,,,NaN,,,,,,false,,,,219245.09999847412,219245,,219244.39999961853,,219259.456,8,400,,,
break_continue,html.Screen,4_19_2,2023-09-12T20:09:49.810Z,,0,,,NaN,,,,,,false,,,,219245.89999961853,219245.6999988556,,219245.39999961853,,219259.456,8,400,,,
sequence,flow.Sequence,4_19,2023-09-12T20:09:49.811Z,,0,,,4522.5679988555785,completion,,,,,false,,,,219246.09999847412,219245.6999988556,214706.538,214714.29999923706,214723.132,219259.456,8,400,,,
trial,html.Screen,4_20_0,2023-09-12T20:09:53.125Z,,0,1,,3300.2439988555852,response,ISIC_5320483.JPG,5,ISIC_0065537.JPG,ISIC_5320483.JPG,false,1,keypress(m),500,222559.89999961853,222559.6999988556,219243.222,219246.1999988556,219259.456,222579.697,8,400,21,,ISIC_0065537.JPG
break,html.Screen,4_20_1,2023-09-12T20:09:53.125Z,,0,,,NaN,,,,,,false,,,,222560.6999988556,222560.39999961853,,222560.1999988556,,222579.697,8,400,,,
break_continue,html.Screen,4_20_2,2023-09-12T20:09:53.126Z,,0,,,NaN,,,,,,false,,,,222561.29999923706,222561.09999847412,,222560.79999923706,,222579.697,8,400,,,
sequence,flow.Sequence,4_20,2023-09-12T20:09:53.126Z,,0,,,3301.6439984741155,completion,,,,,false,,,,222561.39999961853,222561.09999847412,219243.222,219246.1999988556,219259.456,222579.697,8,400,,,
trial,html.Screen,4_21_0,2023-09-12T20:09:56.488Z,,0,1,,3343.3030000000144,response,ISIC_0011137.JPG,5,ISIC_8773685.JPG,ISIC_8773685.JPG,false,0,keypress(z),500,225923.1999988556,225923,222544.925,222561.5,222579.697,225930.715,8,400,22,,ISIC_0011137.JPG
break,html.Screen,4_21_1,2023-09-12T20:09:56.489Z,,0,,,NaN,,,,,,false,,,,225924.09999847412,225923.79999923706,,225923.5,,225930.715,8,400,,,
break_continue,html.Screen,4_21_2,2023-09-12T20:09:56.489Z,,0,,,NaN,,,,,,false,,,,225924.6999988556,225924.5,,225924.29999923706,,225930.715,8,400,,,
sequence,flow.Sequence,4_21,2023-09-12T20:09:56.489Z,,0,,,3344.8030000000144,completion,,,,,false,,,,225924.79999923706,225924.5,222544.925,222561.5,222579.697,225930.715,8,400,,,
trial,html.Screen,4_22_0,2023-09-12T20:09:59.775Z,,0,1,,3278.8849984741246,response,ISIC_0069944.JPG,5,ISIC_2658858.JPG,ISIC_2658858.JPG,false,0,keypress(z),500,229209.89999961853,229209.59999847412,225914.075,225924.89999961853,225930.715,229233.003,8,400,23,,ISIC_0069944.JPG
break,html.Screen,4_22_1,2023-09-12T20:09:59.775Z,,0,,,NaN,,,,,,false,,,,229210.89999961853,229210.59999847412,,229210.1999988556,,229233.003,8,400,,,
break_continue,html.Screen,4_22_2,2023-09-12T20:09:59.776Z,,0,,,NaN,,,,,,false,,,,229211.1999988556,229211.09999847412,,229211,,229233.003,8,400,,,
sequence,flow.Sequence,4_22,2023-09-12T20:09:59.776Z,,0,,,3280.3849984741246,completion,,,,,false,,,,229211.39999961853,229211.09999847412,225914.075,225924.89999961853,225930.715,229233.003,8,400,,,
trial,html.Screen,4_23_0,2023-09-12T20:10:05.138Z,,0,1,,5340.096998474124,response,ISIC_0046932.JPG,5,ISIC_5874357.JPG,ISIC_5874357.JPG,false,0,keypress(z),500,234573.5,234573.09999847412,229216.473,229211.5,229233.003,234586.62,8,400,24,,ISIC_0046932.JPG
break,html.Screen,4_23_1,2023-09-12T20:10:05.139Z,,0,,,NaN,,,,,,false,,,,234574.39999961853,234574.1999988556,,234573.6999988556,,234586.62,8,400,,,
break_continue,html.Screen,4_23_2,2023-09-12T20:10:05.140Z,,0,,,NaN,,,,,,false,,,,234575.09999847412,234574.79999923706,,234574.5,,234586.62,8,400,,,
sequence,flow.Sequence,4_23,2023-09-12T20:10:05.140Z,,0,,,5341.796999237064,completion,,,,,false,,,,234575.1999988556,234574.79999923706,229216.473,229211.5,229233.003,234586.62,8,400,,,
trial,html.Screen,4_24_0,2023-09-12T20:10:09.005Z,,0,1,,3853.9799984741258,response,ISIC_0030336.JPG,5,ISIC_2771979.JPG,ISIC_2771979.JPG,false,0,keypress(z),500,238440.89999961853,238440.59999847412,234570.38,234575.39999961853,234586.62,238456.134,8,400,25,,ISIC_0030336.JPG
break,html.Screen,4_24_1,2023-09-12T20:10:09.006Z,,0,,,NaN,,,,,,false,,,,238441.6999988556,238441.5,,238441,,238456.134,8,400,,,
break_continue,html.Screen,4_24_2,2023-09-12T20:10:09.007Z,,0,,,NaN,,,,,,false,,,,238442.39999961853,238442.1999988556,,238441.89999961853,,238456.134,8,400,,,
sequence,flow.Sequence,4_24,2023-09-12T20:10:09.007Z,,0,,,3855.5799988555955,completion,,,,,false,,,,238442.59999847412,238442.1999988556,234570.38,234575.29999923706,234586.62,238456.134,8,400,,,
trial,html.Screen,4_25_0,2023-09-12T20:10:14.693Z,,0,1,,5672.366000000009,response,ISIC_0027596.JPG,5,ISIC_0197584.JPG,ISIC_0197584.JPG,false,0,keypress(z),500,244128.6999988556,244128.5,238439.686,238442.6999988556,238456.134,244143.42,8,400,26,,ISIC_0027596.JPG
break,html.Screen,4_25_1,2023-09-12T20:10:14.694Z,,0,,,NaN,,,,,,false,,,,244129.6999988556,244129.39999961853,,244129,,244143.42,8,400,,,
break_continue,html.Screen,4_25_2,2023-09-12T20:10:14.695Z,,0,,,NaN,,,,,,false,,,,244130.29999923706,244130.09999847412,,244129.79999923706,,244143.42,8,400,,,
sequence,flow.Sequence,4_25,2023-09-12T20:10:14.695Z,,0,,,5673.96599847413,completion,,,,,false,,,,244130.5,244130.09999847412,238439.686,238442.6999988556,238456.134,244143.42,8,400,,,
trial,html.Screen,4_26_0,2023-09-12T20:10:18.954Z,,0,1,,4245.279998855578,response,ISIC_3356355.JPG,5,ISIC_0026690.JPG,ISIC_3356355.JPG,false,1,keypress(m),500,248389.09999847412,248388.6999988556,244126.6,244130.59999847412,244143.42,248412.778,8,400,27,,ISIC_0026690.JPG
break,html.Screen,4_26_1,2023-09-12T20:10:18.954Z,,0,,,NaN,,,,,,false,,,,248389.79999923706,248389.59999847412,,248389.1999988556,,248412.778,8,400,,,
break_continue,html.Screen,4_26_2,2023-09-12T20:10:18.955Z,,0,,,NaN,,,,,,false,,,,248390.1999988556,248390.09999847412,,248390,,248412.778,8,400,,,
sequence,flow.Sequence,4_26,2023-09-12T20:10:18.955Z,,0,,,4246.679998474108,completion,,,,,false,,,,248390.29999923706,248390.09999847412,244126.6,244130.5,244143.42,248412.778,8,400,,,
trial,html.Screen,4_27_0,2023-09-12T20:10:23.853Z,,0,1,,4875.021999237069,response,ISIC_3338629.JPG,4,ISIC_2850215.JPG,ISIC_2850215.JPG,false,0,keypress(z),500,253288.1999988556,253287.79999923706,248396.33,248390.39999961853,248412.778,253299.562,8,400,28,,ISIC_3338629.JPG
break,html.Screen,4_27_1,2023-09-12T20:10:23.854Z,,0,,,NaN,,,,,,false,,,,253289,253288.79999923706,,253288.29999923706,,253299.562,8,400,,,
break_continue,html.Screen,4_27_2,2023-09-12T20:10:23.854Z,,0,,,NaN,,,,,,false,,,,253289.59999847412,253289.39999961853,,253289.1999988556,,253299.562,8,400,,,
sequence,flow.Sequence,4_27,2023-09-12T20:10:23.854Z,,0,,,4876.621999618539,completion,,,,,false,,,,253289.79999923706,253289.39999961853,248396.33,248390.39999961853,248412.778,253299.562,8,400,,,
trial,html.Screen,4_28_0,2023-09-12T20:10:28.724Z,,0,1,,4859.237999237055,response,ISIC_3787339.JPG,5,ISIC_5833422.JPG,ISIC_5833422.JPG,false,0,keypress(z),500,258159.09999847412,258158.79999923706,253283.13,253290,253299.562,258169.571,8,400,29,,ISIC_3787339.JPG
break,html.Screen,4_28_1,2023-09-12T20:10:28.724Z,,0,,,NaN,,,,,,false,,,,258159.79999923706,258159.59999847412,,258159.29999923706,,258169.571,8,400,,,
break_continue,html.Screen,4_28_2,2023-09-12T20:10:28.725Z,,0,,,NaN,,,,,,false,,,,258160.39999961853,258160.29999923706,,258160,,258169.571,8,400,,,
sequence,flow.Sequence,4_28,2023-09-12T20:10:28.725Z,,0,,,4860.737999237055,completion,,,,,false,,,,258160.5,258160.29999923706,253283.13,253289.89999961853,253299.562,258169.571,8,400,,,
trial,html.Screen,4_29_0,2023-09-12T20:10:36.839Z,,0,1,,8104.728999237064,response,ISIC_0070092.JPG,5,ISIC_6168754.JPG,ISIC_6168754.JPG,false,0,keypress(z),500,266274.5,266274.29999923706,258153.225,258160.6999988556,258169.571,266291.868,8,400,30,,ISIC_0070092.JPG
break,html.Screen,4_29_1,2023-09-12T20:10:36.840Z,,0,,,NaN,,,,,,false,,,,266275.5999984741,266275.29999923706,,266274.79999923706,,266291.868,8,400,,,
break_continue,html.Screen,4_29_2,2023-09-12T20:10:36.841Z,,0,,,NaN,,,,,,false,,,,266276.1999988556,266276.0999984741,,266275.89999961853,,266291.868,8,400,,,
sequence,flow.Sequence,4_29,2023-09-12T20:10:36.841Z,,0,,,8106.528998474125,completion,,,,,false,,,,266276.39999961853,266276.0999984741,258153.225,258160.6999988556,258169.571,266291.868,8,400,,,
trial,html.Screen,4_30_0,2023-09-12T20:10:48.350Z,,0,1,,11524.521999999997,timeout,ISIC_9382494.JPG,5,ISIC_0027391.JPG,,false,,,500,277785.1999988556,277784.79999923706,266275.176,266276.5,266291.868,277816.39,8,400,31,,
break,html.Screen,4_30_1,2023-09-12T20:10:48.351Z,,0,,,NaN,,,,,,false,,,,277786.0999984741,277785.89999961853,,277785.39999961853,,277816.39,8,400,,,
break_continue,html.Screen,4_30_2,2023-09-12T20:10:48.351Z,,0,,,NaN,,,,,,false,,,,277786.5,277786.29999923706,,277786.1999988556,,277816.39,8,400,,,
sequence,flow.Sequence,4_30,2023-09-12T20:10:48.351Z,,0,,,11494.431999237044,completion,,,,,false,,,,277786.5999984741,277786.29999923706,266275.176,266276.5,266291.868,277816.39,8,400,,,
trial,html.Screen,4_31_0,2023-09-12T20:10:51.656Z,,0,1,,3274.5099996185163,response,ISIC_0072266.JPG,5,ISIC_7889838.JPG,ISIC_7889838.JPG,false,0,keypress(z),500,281091.0999984741,281090.89999961853,277799.613,277786.79999923706,277816.39,281101.966,8,400,32,,ISIC_0072266.JPG
break,html.Screen,4_31_1,2023-09-12T20:10:51.657Z,,0,,,NaN,,,,,,false,,,,281092.0999984741,281091.89999961853,,281091.39999961853,,281101.966,8,400,,,
break_continue,html.Screen,4_31_2,2023-09-12T20:10:51.657Z,,0,,,NaN,,,,,,false,,,,281092.6999988556,281092.5,,281092.1999988556,,281101.966,8,400,,,
sequence,flow.Sequence,4_31,2023-09-12T20:10:51.657Z,,0,,,3276.109999999986,completion,,,,,false,,,,281092.89999961853,281092.5,277799.613,277786.79999923706,277816.39,281101.966,8,400,,,
trial,html.Screen,4_32_0,2023-09-12T20:10:54.572Z,,0,1,,2904.733998855576,response,ISIC_1797795.JPG,5,ISIC_9874512.JPG,ISIC_9874512.JPG,false,0,keypress(z),500,284007,284006.6999988556,281085.671,281093,281101.966,284020.559,8,400,33,,ISIC_1797795.JPG
break,html.Screen,4_32_1,2023-09-12T20:10:54.573Z,,0,,,NaN,,,,,,false,,,,284008.0999984741,284007.89999961853,,284007.29999923706,,284020.559,8,400,,,
break_continue,html.Screen,4_32_2,2023-09-12T20:10:54.573Z,,0,,,NaN,,,,,,false,,,,284008.79999923706,284008.6999988556,,284008.5,,284020.559,8,400,,,
sequence,flow.Sequence,4_32,2023-09-12T20:10:54.574Z,,0,,,2906.733998855576,completion,,,,,false,,,,284009,284008.6999988556,281085.671,281092.89999961853,281101.966,284020.559,8,400,,,
trial,html.Screen,4_33_0,2023-09-12T20:10:57.664Z,,0,1,,3078.740999237052,response,ISIC_0030952.JPG,6,ISIC_6299036.JPG,ISIC_6299036.JPG,false,0,keypress(z),500,287099.5999984741,287099.29999923706,284004.16,284009.0999984741,284020.559,287106.008,8,400,34,,ISIC_0030952.JPG
break,html.Screen,4_33_1,2023-09-12T20:10:57.665Z,,0,,,NaN,,,,,,false,,,,287100.39999961853,287100.29999923706,,287099.79999923706,,287106.008,8,400,,,
break_continue,html.Screen,4_33_2,2023-09-12T20:10:57.666Z,,0,,,NaN,,,,,,false,,,,287101.0999984741,287100.79999923706,,287100.6999988556,,287106.008,8,400,,,
sequence,flow.Sequence,4_33,2023-09-12T20:10:57.666Z,,0,,,3080.240999237052,completion,,,,,false,,,,287101.29999923706,287100.79999923706,284004.16,284009.0999984741,284020.559,287106.008,8,400,,,
trial,html.Screen,4_34_0,2023-09-12T20:11:00.743Z,,0,1,,3072.4920000000275,response,ISIC_7801289.JPG,4,ISIC_4079108.JPG,ISIC_4079108.JPG,false,0,keypress(z),500,290178.6999988556,290178.5,287089.663,287101.39999961853,287106.008,290191.508,8,400,35,,ISIC_7801289.JPG
break,html.Screen,4_34_1,2023-09-12T20:11:00.744Z,,0,,,NaN,,,,,,false,,,,290179.1999988556,290179,,290178.79999923706,,290191.508,8,400,,,
break_continue,html.Screen,4_34_2,2023-09-12T20:11:00.744Z,,0,,,NaN,,,,,,false,,,,290179.5,290179.5,,290179.39999961853,,290191.508,8,400,,,
sequence,flow.Sequence,4_34,2023-09-12T20:11:00.744Z,,0,,,3073.4920000000275,completion,,,,,false,,,,290179.5999984741,290179.5,287089.663,287101.39999961853,287106.008,290191.508,8,400,,,
trial,html.Screen,4_35_0,2023-09-12T20:11:03.565Z,,0,1,,2809.0919984741486,response,ISIC_0067167.JPG,5,ISIC_0055282.JPG,ISIC_0055282.JPG,false,0,keypress(z),500,293000.79999923706,293000.5999984741,290175.08,290179.5999984741,290191.508,293010.287,8,400,36,,ISIC_0067167.JPG
break,html.Screen,4_35_1,2023-09-12T20:11:03.566Z,,0,,,NaN,,,,,,false,,,,293001.5999984741,293001.39999961853,,293001,,293010.287,8,400,,,
break_continue,html.Screen,4_35_2,2023-09-12T20:11:03.567Z,,0,,,NaN,,,,,,false,,,,293002.1999988556,293002,,293001.6999988556,,293010.287,8,400,,,
sequence,flow.Sequence,4_35,2023-09-12T20:11:03.567Z,,0,,,2810.4920000000275,completion,,,,,false,,,,293002.39999961853,293002,290175.08,290179.5999984741,290191.508,293010.287,8,400,,,
trial,html.Screen,4_36_0,2023-09-12T20:11:06.305Z,,0,1,,2729.5129992370494,response,ISIC_6532137.JPG,5,ISIC_0027479.JPG,ISIC_6532137.JPG,false,1,keypress(m),500,295740.0999984741,295739.79999923706,292993.772,293002.5,293010.287,295745.33,8,400,37,,ISIC_0027479.JPG
break,html.Screen,4_36_1,2023-09-12T20:11:06.306Z,,0,,,NaN,,,,,,false,,,,295741,295740.79999923706,,295740.29999923706,,295745.33,8,400,,,
break_continue,html.Screen,4_36_2,2023-09-12T20:11:06.306Z,,0,,,NaN,,,,,,false,,,,295741.5999984741,295741.39999961853,,295741.0999984741,,295745.33,8,400,,,
sequence,flow.Sequence,4_36,2023-09-12T20:11:06.306Z,,0,,,2731.112999618519,completion,,,,,false,,,,295741.79999923706,295741.39999961853,292993.772,293002.5,293010.287,295745.33,8,400,,,
trial,html.Screen,4_37_0,2023-09-12T20:11:08.996Z,,0,1,,2685.9699992370442,response,ISIC_0014800.JPG,5,ISIC_4969996.JPG,ISIC_4969996.JPG,false,0,keypress(z),500,298431.5999984741,298431.29999923706,295729.036,295741.89999961853,295745.33,298447.331,8,400,38,,ISIC_0014800.JPG
break,html.Screen,4_37_1,2023-09-12T20:11:08.997Z,,0,,,NaN,,,,,,false,,,,298432.5999984741,298432.39999961853,,298431.89999961853,,298447.331,8,400,,,
break_continue,html.Screen,4_37_2,2023-09-12T20:11:08.998Z,,0,,,NaN,,,,,,false,,,,298433.39999961853,298433.1999988556,,298432.89999961853,,298447.331,8,400,,,
sequence,flow.Sequence,4_37,2023-09-12T20:11:08.998Z,,0,,,2687.8699988555745,completion,,,,,false,,,,298433.6999988556,298433.1999988556,295729.036,295741.89999961853,295745.33,298447.331,8,400,,,
trial,html.Screen,4_38_0,2023-09-12T20:11:12.248Z,,0,1,,3235.6689999999944,response,ISIC_0080817.JPG,5,ISIC_5126638.JPG,ISIC_5126638.JPG,false,0,keypress(z),500,301683.39999961853,301683,298430.787,298433.79999923706,298447.331,301699.653,8,400,39,,ISIC_0080817.JPG
break,html.Screen,4_38_1,2023-09-12T20:11:12.249Z,,0,,,NaN,,,,,,false,,,,301684.29999923706,301684,,301683.5999984741,,301699.653,8,400,,,
break_continue,html.Screen,4_38_2,2023-09-12T20:11:12.250Z,,0,,,NaN,,,,,,false,,,,301685,301684.79999923706,,301684.39999961853,,301699.653,8,400,,,
sequence,flow.Sequence,4_38,2023-09-12T20:11:12.250Z,,0,,,3237.468999237055,completion,,,,,false,,,,301685.29999923706,301684.79999923706,298430.787,298433.79999923706,298447.331,301699.653,8,400,,,
trial,html.Screen,4_39_0,2023-09-12T20:11:14.925Z,,0,1,,2660.5469988555997,response,ISIC_0058666.JPG,4,ISIC_4201891.JPG,ISIC_4201891.JPG,false,0,keypress(z),500,304360.5,304360.1999988556,301682.831,301685.39999961853,301699.653,304368.003,8,400,40,,ISIC_0058666.JPG
break,html.Screen,4_39_1,2023-09-12T20:11:14.926Z,,0,,,NaN,,,,,,false,,,,304361.29999923706,304361.1999988556,,304360.6999988556,,304368.003,8,400,,,
break_continue,html.Screen,4_39_2,2023-09-12T20:11:14.926Z,,0,,,NaN,,,,,,false,,,,304361.79999923706,304361.6999988556,,304361.39999961853,,304368.003,8,400,,,
sequence,flow.Sequence,4_39,2023-09-12T20:11:14.927Z,,0,,,2662.0469988555997,completion,,,,,false,,,,304362,304361.6999988556,301682.831,301685.39999961853,301699.653,304368.003,8,400,,,
trial,html.Screen,4_40_0,2023-09-12T20:11:18.433Z,,0,1,,3500.496999999974,response,ISIC_0046741.JPG,5,ISIC_3992223.JPG,ISIC_3992223.JPG,false,0,keypress(z),500,307868.6999988556,307868.5,304351.808,304362.0999984741,304368.003,307887.968,8,400,41,,ISIC_0046741.JPG
break,html.Screen,4_40_1,2023-09-12T20:11:18.434Z,,0,,,NaN,,,,,,false,,,,307869.5999984741,307869.39999961853,,307869,,307887.968,8,400,,,
break_continue,html.Screen,4_40_2,2023-09-12T20:11:18.435Z,,0,,,NaN,,,,,,false,,,,307870.39999961853,307870.0999984741,,307869.6999988556,,307887.968,8,400,,,
sequence,flow.Sequence,4_40,2023-09-12T20:11:18.435Z,,0,,,3502.096998474095,completion,,,,,false,,,,307870.5,307870.0999984741,304351.808,304362.0999984741,304368.003,307887.968,8,400,,,
trial,html.Screen,4_41_0,2023-09-12T20:11:21.514Z,,0,1,,3060.931999618537,response,ISIC_9100283.JPG,5,ISIC_8152423.JPG,ISIC_8152423.JPG,false,0,keypress(z),500,310949.29999923706,310948.89999961853,307854.053,307870.6999988556,307887.968,310955.827,8,400,42,,ISIC_9100283.JPG
break,html.Screen,4_41_1,2023-09-12T20:11:21.515Z,,0,,,NaN,,,,,,false,,,,310950.39999961853,310950.1999988556,,310949.6999988556,,310955.827,8,400,,,
break_continue,html.Screen,4_41_2,2023-09-12T20:11:21.516Z,,0,,,NaN,,,,,,false,,,,310951.1999988556,310950.89999961853,,310950.5999984741,,310955.827,8,400,,,
sequence,flow.Sequence,4_41,2023-09-12T20:11:21.516Z,,0,,,3062.931999618537,completion,,,,,false,,,,310951.39999961853,310950.89999961853,307854.053,307870.5999984741,307887.968,310955.827,8,400,,,
trial,html.Screen,4_42_0,2023-09-12T20:11:25.454Z,,0,1,,3933.3729988556006,response,ISIC_0000031.JPG,6,ISIC_6298726.JPG,ISIC_6298726.JPG,false,0,keypress(z),500,314889.5,314889.1999988556,310939.62,310951.5999984741,310955.827,314891.849,8,400,43,,ISIC_0000031.JPG
break,html.Screen,4_42_1,2023-09-12T20:11:25.455Z,,0,,,NaN,,,,,,false,,,,314890.29999923706,314890.1999988556,,314889.6999988556,,314891.849,8,400,,,
break_continue,html.Screen,4_42_2,2023-09-12T20:11:25.456Z,,0,,,NaN,,,,,,false,,,,314891.0999984741,314890.79999923706,,314890.5,,314891.849,8,400,,,
sequence,flow.Sequence,4_42,2023-09-12T20:11:25.456Z,,0,,,3934.9729992370703,completion,,,,,false,,,,314891.1999988556,314890.79999923706,310939.62,310951.5,310955.827,314891.849,8,400,,,
trial,html.Screen,4_43_0,2023-09-12T20:11:28.802Z,,0,1,,3344.950999237073,response,ISIC_0027061.JPG,4,ISIC_6547707.JPG,ISIC_6547707.JPG,false,0,keypress(z),500,318237.1999988556,318236.79999923706,314875.382,314891.29999923706,314891.849,318244.213,8,400,44,,ISIC_0027061.JPG
break,html.Screen,4_43_1,2023-09-12T20:11:28.803Z,,0,,,NaN,,,,,,false,,,,318238.0999984741,318237.89999961853,,318237.5,,318244.213,8,400,,,
break_continue,html.Screen,4_43_2,2023-09-12T20:11:28.803Z,,0,,,NaN,,,,,,false,,,,318238.89999961853,318238.6999988556,,318238.1999988556,,318244.213,8,400,,,
sequence,flow.Sequence,4_43,2023-09-12T20:11:28.804Z,,0,,,3346.8509988556034,completion,,,,,false,,,,318239.0999984741,318238.6999988556,314875.382,314891.29999923706,314891.849,318244.213,8,400,,,
trial,html.Screen,4_44_0,2023-09-12T20:11:32.714Z,,0,1,,3904.3869984741323,response,ISIC_0000866.JPG,5,ISIC_6828892.JPG,ISIC_0000866.JPG,false,1,keypress(m),500,322149,322148.5999984741,318227.906,318239.1999988556,318244.213,322163.543,8,400,45,,ISIC_6828892.JPG
break,html.Screen,4_44_1,2023-09-12T20:11:32.715Z,,0,,,NaN,,,,,,false,,,,322150,322149.79999923706,,322149.29999923706,,322163.543,8,400,,,
break_continue,html.Screen,4_44_2,2023-09-12T20:11:32.715Z,,0,,,NaN,,,,,,false,,,,322150.6999988556,322150.39999961853,,322150.1999988556,,322163.543,8,400,,,
sequence,flow.Sequence,4_44,2023-09-12T20:11:32.715Z,,0,,,3906.1869996185414,completion,,,,,false,,,,322150.79999923706,322150.39999961853,318227.906,318239.1999988556,318244.213,322163.543,8,400,,,
trial,html.Screen,4_45_0,2023-09-12T20:11:35.535Z,,0,1,,2806.556998474116,response,ISIC_0000539.JPG,5,ISIC_0058496.JPG,ISIC_0000539.JPG,false,1,keypress(m),500,324970.39999961853,324970.0999984741,322147.265,322151,322163.543,324982.103,8,400,46,,ISIC_0058496.JPG
break,html.Screen,4_45_1,2023-09-12T20:11:35.536Z,,0,,,NaN,,,,,,false,,,,324971.29999923706,324971.0999984741,,324970.5999984741,,324982.103,8,400,,,
break_continue,html.Screen,4_45_2,2023-09-12T20:11:35.537Z,,0,,,NaN,,,,,,false,,,,324972,324971.6999988556,,324971.39999961853,,324982.103,8,400,,,
sequence,flow.Sequence,4_45,2023-09-12T20:11:35.537Z,,0,,,2808.1569988555857,completion,,,,,false,,,,324972.1999988556,324971.6999988556,322147.265,322150.89999961853,322163.543,324982.103,8,400,,,
trial,html.Screen,4_46_0,2023-09-12T20:11:38.964Z,,0,1,,3416.7969996185275,response,ISIC_1017377.JPG,4,ISIC_4732241.JPG,ISIC_4732241.JPG,false,0,keypress(z),500,328399.1999988556,328398.89999961853,324965.664,324972.29999923706,324982.103,328418.981,8,400,47,,ISIC_1017377.JPG
break,html.Screen,4_46_1,2023-09-12T20:11:38.965Z,,0,,,NaN,,,,,,false,,,,328400,328399.89999961853,,328399.39999961853,,328418.981,8,400,,,
break_continue,html.Screen,4_46_2,2023-09-12T20:11:38.965Z,,0,,,NaN,,,,,,false,,,,328400.6999988556,328400.5999984741,,328400.1999988556,,328418.981,8,400,,,
sequence,flow.Sequence,4_46,2023-09-12T20:11:38.966Z,,0,,,3418.4969984741183,completion,,,,,false,,,,328401,328400.5999984741,324965.664,324972.29999923706,324982.103,328418.981,8,400,,,
trial,html.Screen,4_47_0,2023-09-12T20:11:42.104Z,,0,1,,3120.018999999971,response,ISIC_6023518.JPG,6,ISIC_0000153.JPG,ISIC_0000153.JPG,false,0,keypress(z),500,331539.29999923706,331539,328384.691,328401.0999984741,328418.981,331553.405,8,400,48,,ISIC_6023518.JPG
break,html.Screen,4_47_1,2023-09-12T20:11:42.105Z,,0,,,NaN,,,,,,false,,,,331540.1999988556,331539.89999961853,,331539.5,,331553.405,8,400,,,
break_continue,html.Screen,4_47_2,2023-09-12T20:11:42.105Z,,0,,,NaN,,,,,,false,,,,331540.79999923706,331540.5999984741,,331540.29999923706,,331553.405,8,400,,,
sequence,flow.Sequence,4_47,2023-09-12T20:11:42.106Z,,0,,,3121.618998474092,completion,,,,,false,,,,331541,331540.5999984741,328384.691,328401.0999984741,328418.981,331553.405,8,400,,,
trial,html.Screen,4_48_0,2023-09-12T20:11:45.085Z,,0,1,,2966.4949996185023,response,ISIC_2378428.JPG,5,ISIC_0011750.JPG,ISIC_2378428.JPG,false,1,keypress(m),500,334520.1999988556,334519.89999961853,331536.971,331541,331553.405,334539.255,8,400,49,,ISIC_0011750.JPG
break,html.Screen,4_48_1,2023-09-12T20:11:45.086Z,,0,,,NaN,,,,,,false,,,,334521,334520.79999923706,,334520.39999961853,,334539.255,8,400,,,
break_continue,html.Screen,4_48_2,2023-09-12T20:11:45.086Z,,0,,,NaN,,,,,,false,,,,334521.6999988556,334521.5,,334521.1999988556,,334539.255,8,400,,,
sequence,flow.Sequence,4_48,2023-09-12T20:11:45.087Z,,0,,,2968.094999999972,completion,,,,,false,,,,334521.89999961853,334521.5,331536.971,331541,331553.405,334539.255,8,400,,,
trial,html.Screen,4_49_0,2023-09-12T20:11:49.416Z,,0,1,,4311.444998855586,response,ISIC_9471156.JPG,5,ISIC_0031745.JPG,ISIC_9471156.JPG,false,1,keypress(m),500,338851.0999984741,338850.6999988556,334505.39,334522.0999984741,334539.255,338858.293,8,400,50,,ISIC_0031745.JPG
break,html.Screen,4_49_1,2023-09-12T20:11:59.414Z,,0,,,10006.944000000018,timeout,,,,,false,,,,348849.79999923706,348848.585,338842.003,338851.29999923706,338858.293,348865.237,8,400,,,
break_continue,html.Screen,4_49_2,2023-09-12T20:12:03.155Z,,0,,,3704.8629984740983,response,,,,,false,continue,keypress(Space),,352590.79999923706,352570.0999984741,348848.585,348850,348865.237,352601.277,8,400,,,
sequence,flow.Sequence,4_49,2023-09-12T20:12:03.156Z,,0,,,18030.844998474116,completion,,,,,false,,,,352591,352570.0999984741,334505.39,334522,334539.255,352601.277,8,400,,,
trial,html.Screen,4_50_0,2023-09-12T20:12:06.487Z,,0,2,,3320.922998855589,response,ISIC_4534608.JPG,6,ISIC_8108099.JPG,ISIC_8108099.JPG,false,0,keypress(z),500,355922.5,355922.1999988556,352584.736,352591.0999984741,352601.277,355936.762,8,400,1,,ISIC_4534608.JPG
break,html.Screen,4_50_1,2023-09-12T20:12:06.488Z,,0,,,NaN,,,,,,false,,,,355923.39999961853,355923.0999984741,,355922.79999923706,,355936.762,8,400,,,
break_continue,html.Screen,4_50_2,2023-09-12T20:12:06.489Z,,0,,,NaN,,,,,,false,,,,355924.0999984741,355923.89999961853,,355923.5999984741,,355936.762,8,400,,,
sequence,flow.Sequence,4_50,2023-09-12T20:12:06.489Z,,0,,,3322.6229996185284,completion,,,,,false,,,,355924.29999923706,355923.89999961853,352584.736,352591,352601.277,355936.762,8,400,,,
trial,html.Screen,4_51_0,2023-09-12T20:12:10.176Z,,0,2,,3674.337998474133,response,ISIC_0060979.JPG,5,ISIC_3545622.JPG,ISIC_0060979.JPG,false,1,keypress(m),500,359611.39999961853,359611.0999984741,355920.239,355924.5,355936.762,359622.547,8,400,2,,ISIC_3545622.JPG
break,html.Screen,4_51_1,2023-09-12T20:12:10.177Z,,0,,,NaN,,,,,,false,,,,359612.29999923706,359612.0999984741,,359611.6999988556,,359622.547,8,400,,,
break_continue,html.Screen,4_51_2,2023-09-12T20:12:10.178Z,,0,,,NaN,,,,,,false,,,,359613,359612.6999988556,,359612.5,,359622.547,8,400,,,
sequence,flow.Sequence,4_51,2023-09-12T20:12:10.178Z,,0,,,3675.937998855603,completion,,,,,false,,,,359613.1999988556,359612.6999988556,355920.239,355924.5,355936.762,359622.547,8,400,,,
trial,html.Screen,4_52_0,2023-09-12T20:12:13.446Z,,0,2,,3258.6529988555703,response,ISIC_0005319.JPG,6,ISIC_4686317.JPG,ISIC_0005319.JPG,false,1,keypress(m),500,362881.5,362881.1999988556,359605.983,359613.39999961853,359622.547,362891.486,8,400,3,,ISIC_4686317.JPG
break,html.Screen,4_52_1,2023-09-12T20:12:13.447Z,,0,,,NaN,,,,,,false,,,,362882.39999961853,362882.1999988556,,362881.79999923706,,362891.486,8,400,,,
break_continue,html.Screen,4_52_2,2023-09-12T20:12:13.448Z,,0,,,NaN,,,,,,false,,,,362883,362882.79999923706,,362882.5999984741,,362891.486,8,400,,,
sequence,flow.Sequence,4_52,2023-09-12T20:12:13.448Z,,0,,,3260.25299923704,completion,,,,,false,,,,362883.39999961853,362882.79999923706,359605.983,359613.39999961853,359622.547,362891.486,8,400,,,
trial,html.Screen,4_53_0,2023-09-12T20:12:16.954Z,,0,2,,3497.813999237085,response,ISIC_0055747.JPG,5,ISIC_0069620.JPG,ISIC_0069620.JPG,false,0,keypress(z),500,366389.6999988556,366389.29999923706,362875.096,362883.5,362891.486,366393.88,8,400,4,,ISIC_0055747.JPG
break,html.Screen,4_53_1,2023-09-12T20:12:16.956Z,,0,,,NaN,,,,,,false,,,,366391.39999961853,366390.89999961853,,366390.1999988556,,366393.88,8,400,,,
break_continue,html.Screen,4_53_2,2023-09-12T20:12:16.956Z,,0,,,NaN,,,,,,false,,,,366392,366391.79999923706,,366391.5999984741,,366393.88,8,400,,,
sequence,flow.Sequence,4_53,2023-09-12T20:12:16.957Z,,0,,,3500.313999237085,completion,,,,,false,,,,366392.1999988556,366391.79999923706,362875.096,362883.39999961853,362891.486,366393.88,8,400,,,
trial,html.Screen,4_54_0,2023-09-12T20:12:19.636Z,,0,2,,2677.7199984741164,response,ISIC_5960641.JPG,4,ISIC_0046416.JPG,ISIC_5960641.JPG,false,1,keypress(m),500,369071.89999961853,369071.5999984741,366377.524,366392.39999961853,366393.88,369079.073,8,400,5,,ISIC_0046416.JPG
break,html.Screen,4_54_1,2023-09-12T20:12:19.637Z,,0,,,NaN,,,,,,false,,,,369072.89999961853,369072.5,,369072.0999984741,,369079.073,8,400,,,
break_continue,html.Screen,4_54_2,2023-09-12T20:12:19.638Z,,0,,,NaN,,,,,,false,,,,369073.29999923706,369073.1999988556,,369073.0999984741,,369079.073,8,400,,,
sequence,flow.Sequence,4_54,2023-09-12T20:12:19.638Z,,0,,,2679.319998855586,completion,,,,,false,,,,369073.5,369073.1999988556,366377.524,366392.39999961853,366393.88,369079.073,8,400,,,
trial,html.Screen,4_55_0,2023-09-12T20:12:22.785Z,,0,2,,3140.8269996185554,response,ISIC_9308275.JPG,4,ISIC_7959386.JPG,ISIC_9308275.JPG,false,1,keypress(m),500,372220.29999923706,372219.89999961853,369062.546,369074.79999923706,369079.073,372231.337,8,400,6,,ISIC_7959386.JPG
break,html.Screen,4_55_1,2023-09-12T20:12:22.786Z,,0,,,NaN,,,,,,false,,,,372221.1999988556,372221,,372220.39999961853,,372231.337,8,400,,,
break_continue,html.Screen,4_55_2,2023-09-12T20:12:22.786Z,,0,,,NaN,,,,,,false,,,,372221.6999988556,372221.5,,372221.29999923706,,372231.337,8,400,,,
sequence,flow.Sequence,4_55,2023-09-12T20:12:22.786Z,,0,,,3142.427000000025,completion,,,,,false,,,,372221.89999961853,372221.5,369062.546,369074.79999923706,369079.073,372231.337,8,400,,,
trial,html.Screen,4_56_0,2023-09-12T20:12:26.597Z,,0,2,,3800.962999237061,response,ISIC_0070419.JPG,5,ISIC_7759913.JPG,ISIC_7759913.JPG,false,0,keypress(z),500,376032.5999984741,376032.29999923706,372214.714,372222,372231.337,376050.785,8,400,7,,ISIC_0070419.JPG
break,html.Screen,4_56_1,2023-09-12T20:12:26.598Z,,0,,,NaN,,,,,,false,,,,376033.39999961853,376033.1999988556,,376032.79999923706,,376050.785,8,400,,,
break_continue,html.Screen,4_56_2,2023-09-12T20:12:26.599Z,,0,,,NaN,,,,,,false,,,,376034.0999984741,376034,,376033.5999984741,,376050.785,8,400,,,
sequence,flow.Sequence,4_56,2023-09-12T20:12:26.599Z,,0,,,3802.6630000000005,completion,,,,,false,,,,376034.39999961853,376034,372214.714,372221.89999961853,372231.337,376050.785,8,400,,,
trial,html.Screen,4_57_0,2023-09-12T20:12:29.485Z,,0,2,,2868.9149988556164,response,ISIC_0046504.JPG,5,ISIC_0031365.JPG,ISIC_0031365.JPG,false,0,keypress(z),500,378920.0999984741,378919.6999988556,376017.196,376034.5,376050.785,378935.999,8,400,8,,ISIC_0046504.JPG
break,html.Screen,4_57_1,2023-09-12T20:12:29.486Z,,0,,,NaN,,,,,,false,,,,378921.39999961853,378921,,378920.5,,378935.999,8,400,,,
break_continue,html.Screen,4_57_2,2023-09-12T20:12:29.486Z,,0,,,NaN,,,,,,false,,,,378921.6999988556,378921.6999988556,,378921.5,,378935.999,8,400,,,
sequence,flow.Sequence,4_57,2023-09-12T20:12:29.486Z,,0,,,2870.9149988556164,completion,,,,,false,,,,378921.89999961853,378921.6999988556,376017.196,376034.5,376050.785,378935.999,8,400,,,
trial,html.Screen,4_58_0,2023-09-12T20:12:32.208Z,,0,2,,2707.5009999999893,response,ISIC_0028705.JPG,6,ISIC_2011408.JPG,ISIC_0028705.JPG,false,1,keypress(m),500,381643.79999923706,381643.5,378919.363,378922,378935.999,381654.46,8,400,9,,ISIC_2011408.JPG
break,html.Screen,4_58_1,2023-09-12T20:12:32.209Z,,0,,,NaN,,,,,,false,,,,381644.5999984741,381644.39999961853,,381644,,381654.46,8,400,,,
break_continue,html.Screen,4_58_2,2023-09-12T20:12:32.210Z,,0,,,NaN,,,,,,false,,,,381645.1999988556,381645,,381644.79999923706,,381654.46,8,400,,,
sequence,flow.Sequence,4_58,2023-09-12T20:12:32.210Z,,0,,,2709.0009999999893,completion,,,,,false,,,,381645.29999923706,381645,378919.363,378922,378935.999,381654.46,8,400,,,
trial,html.Screen,4_59_0,2023-09-12T20:12:34.980Z,,0,2,,2760.9399996185093,response,ISIC_2141003.JPG,6,ISIC_1074939.JPG,ISIC_2141003.JPG,false,1,keypress(m),500,384415.6999988556,384415.39999961853,381637.917,381645.39999961853,381654.46,384422.923,8,400,10,,ISIC_1074939.JPG
break,html.Screen,4_59_1,2023-09-12T20:12:34.981Z,,0,,,NaN,,,,,,false,,,,384416.5,384416.29999923706,,384415.79999923706,,384422.923,8,400,,,
break_continue,html.Screen,4_59_2,2023-09-12T20:12:34.982Z,,0,,,NaN,,,,,,false,,,,384417.29999923706,384416.89999961853,,384416.5999984741,,384422.923,8,400,,,
sequence,flow.Sequence,4_59,2023-09-12T20:12:34.982Z,,0,,,2762.4399996185093,completion,,,,,false,,,,384417.5999984741,384416.89999961853,381637.917,381645.39999961853,381654.46,384422.923,8,400,,,
trial,html.Screen,4_60_0,2023-09-12T20:12:37.801Z,,0,2,,2813.1769984741113,response,ISIC_3586824.JPG,4,ISIC_1795529.JPG,ISIC_3586824.JPG,false,1,keypress(m),500,387236.5,387236.0999984741,384406.546,384417.5999984741,384422.923,387241.617,8,400,11,,ISIC_1795529.JPG
break,html.Screen,4_60_1,2023-09-12T20:12:37.802Z,,0,,,NaN,,,,,,false,,,,387237.5,387237.29999923706,,387236.79999923706,,387241.617,8,400,,,
break_continue,html.Screen,4_60_2,2023-09-12T20:12:37.803Z,,0,,,NaN,,,,,,false,,,,387238.0999984741,387238,,387237.5999984741,,387241.617,8,400,,,
sequence,flow.Sequence,4_60,2023-09-12T20:12:37.803Z,,0,,,2815.07699999999,completion,,,,,false,,,,387238.39999961853,387238,384406.546,384417.5999984741,384422.923,387241.617,8,400,,,
trial,html.Screen,4_61_0,2023-09-12T20:12:40.749Z,,0,2,,2942.3829999999725,response,ISIC_4049598.JPG,4,ISIC_0063180.JPG,ISIC_4049598.JPG,false,1,keypress(m),500,390184.29999923706,390184,387225.168,387238.5,387241.617,390193.69,8,400,12,,ISIC_0063180.JPG
break,html.Screen,4_61_1,2023-09-12T20:12:40.750Z,,0,,,NaN,,,,,,false,,,,390185.29999923706,390184.89999961853,,390184.39999961853,,390193.69,8,400,,,
break_continue,html.Screen,4_61_2,2023-09-12T20:12:40.750Z,,0,,,NaN,,,,,,false,,,,390185.6999988556,390185.6999988556,,390185.5,,390193.69,8,400,,,
sequence,flow.Sequence,4_61,2023-09-12T20:12:40.750Z,,0,,,2944.0829988555633,completion,,,,,false,,,,390185.89999961853,390185.6999988556,387225.168,387238.5,387241.617,390193.69,8,400,,,
trial,html.Screen,4_62_0,2023-09-12T20:12:43.426Z,,0,2,,2667.609999237058,response,ISIC_1059525.JPG,5,ISIC_0021271.JPG,ISIC_1059525.JPG,false,1,keypress(m),500,392861.5999984741,392861.29999923706,390177.148,390186,390193.69,392879.193,8,400,13,,ISIC_0021271.JPG
break,html.Screen,4_62_1,2023-09-12T20:12:43.427Z,,0,,,NaN,,,,,,false,,,,392862.5,392862.29999923706,,392861.89999961853,,392879.193,8,400,,,
break_continue,html.Screen,4_62_2,2023-09-12T20:12:43.428Z,,0,,,NaN,,,,,,false,,,,392863,392862.6999988556,,392862.5999984741,,392879.193,8,400,,,
sequence,flow.Sequence,4_62,2023-09-12T20:12:43.428Z,,0,,,2669.0099988555885,completion,,,,,false,,,,392863.29999923706,392862.6999988556,390177.148,390186,390193.69,392879.193,8,400,,,
trial,html.Screen,4_63_0,2023-09-12T20:12:46.137Z,,0,2,,2692.5069988555624,response,ISIC_8207162.JPG,5,ISIC_0070017.JPG,ISIC_8207162.JPG,false,1,keypress(m),500,395572.0999984741,395571.6999988556,392862.156,392863.5,392879.193,395580.653,8,400,14,,ISIC_0070017.JPG
break,html.Screen,4_63_1,2023-09-12T20:12:46.137Z,,0,,,NaN,,,,,,false,,,,395573,395572.79999923706,,395572.29999923706,,395580.653,8,400,,,
break_continue,html.Screen,4_63_2,2023-09-12T20:12:46.138Z,,0,,,NaN,,,,,,false,,,,395573.6999988556,395573.5,,395573.0999984741,,395580.653,8,400,,,
sequence,flow.Sequence,4_63,2023-09-12T20:12:46.138Z,,0,,,2694.3069999999716,completion,,,,,false,,,,395573.89999961853,395573.5,392862.156,392863.39999961853,392879.193,395580.653,8,400,,,
trial,html.Screen,4_64_0,2023-09-12T20:12:48.956Z,,0,2,,2810.94699847413,response,ISIC_0028477.JPG,5,ISIC_0026198.JPG,ISIC_0026198.JPG,false,0,keypress(z),500,398391.89999961853,398391.5999984741,395563.963,395574,395580.653,398399.257,8,400,15,,ISIC_0028477.JPG
break,html.Screen,4_64_1,2023-09-12T20:12:48.957Z,,0,,,NaN,,,,,,false,,,,398392.79999923706,398392.5,,398392.0999984741,,398399.257,8,400,,,
break_continue,html.Screen,4_64_2,2023-09-12T20:12:48.958Z,,0,,,NaN,,,,,,false,,,,398393.39999961853,398393.1999988556,,398392.89999961853,,398399.257,8,400,,,
sequence,flow.Sequence,4_64,2023-09-12T20:12:48.958Z,,0,,,2812.5469988555997,completion,,,,,false,,,,398393.5999984741,398393.1999988556,395563.963,395573.89999961853,395580.653,398399.257,8,400,,,
trial,html.Screen,4_65_0,2023-09-12T20:12:51.680Z,,0,2,,2715.842998474138,response,ISIC_2970409.JPG,5,ISIC_6069236.JPG,ISIC_2970409.JPG,false,1,keypress(m),500,401115.29999923706,401115.0999984741,398382.691,398393.6999988556,398399.257,401117.812,8,400,16,,ISIC_6069236.JPG
break,html.Screen,4_65_1,2023-09-12T20:12:51.681Z,,0,,,NaN,,,,,,false,,,,401116.29999923706,401116,,401115.5999984741,,401117.812,8,400,,,
break_continue,html.Screen,4_65_2,2023-09-12T20:12:51.681Z,,0,,,NaN,,,,,,false,,,,401116.79999923706,401116.6999988556,,401116.39999961853,,401117.812,8,400,,,
sequence,flow.Sequence,4_65,2023-09-12T20:12:51.681Z,,0,,,2717.4429988556076,completion,,,,,false,,,,401117,401116.6999988556,398382.691,398393.5999984741,398399.257,401117.812,8,400,,,
trial,html.Screen,4_66_0,2023-09-12T20:12:54.885Z,,0,2,,3202.587999618554,response,ISIC_8343285.JPG,5,ISIC_0061625.JPG,ISIC_8343285.JPG,false,1,keypress(m),500,404320.6999988556,404320.39999961853,401101.102,401117.0999984741,401117.812,404336.96,8,400,17,,ISIC_0061625.JPG
break,html.Screen,4_66_1,2023-09-12T20:12:54.886Z,,0,,,NaN,,,,,,false,,,,404321.5999984741,404321.29999923706,,404320.89999961853,,404336.96,8,400,,,
break_continue,html.Screen,4_66_2,2023-09-12T20:12:54.887Z,,0,,,NaN,,,,,,false,,,,404322.1999988556,404322.0999984741,,404321.79999923706,,404336.96,8,400,,,
sequence,flow.Sequence,4_66,2023-09-12T20:12:54.887Z,,0,,,3204.287998474145,completion,,,,,false,,,,404322.5,404322.0999984741,401101.102,401117.0999984741,401117.812,404336.96,8,400,,,
trial,html.Screen,4_67_0,2023-09-12T20:12:57.577Z,,0,2,,2674.8399992370396,response,ISIC_7621412.JPG,5,ISIC_0071388.JPG,ISIC_7621412.JPG,false,1,keypress(m),500,407012.0999984741,407011.79999923706,404320.194,404322.5999984741,404336.96,407022.025,8,400,18,,ISIC_0071388.JPG
break,html.Screen,4_67_1,2023-09-12T20:12:57.577Z,,0,,,NaN,,,,,,false,,,,407013,407012.6999988556,,407012.29999923706,,407022.025,8,400,,,
break_continue,html.Screen,4_67_2,2023-09-12T20:12:57.578Z,,0,,,NaN,,,,,,false,,,,407013.5999984741,407013.5,,407013.29999923706,,407022.025,8,400,,,
sequence,flow.Sequence,4_67,2023-09-12T20:12:57.578Z,,0,,,2676.539999999979,completion,,,,,false,,,,407013.79999923706,407013.5,404320.194,404322.5999984741,404336.96,407022.025,8,400,,,
trial,html.Screen,4_68_0,2023-09-12T20:13:00.594Z,,0,2,,3006.874999618507,response,ISIC_0011630.JPG,5,ISIC_8252406.JPG,ISIC_0011630.JPG,false,1,keypress(m),500,410029.1999988556,410028.89999961853,407005.231,407013.89999961853,407022.025,410040.49,8,400,19,,ISIC_8252406.JPG
break,html.Screen,4_68_1,2023-09-12T20:13:00.594Z,,0,,,NaN,,,,,,false,,,,410030,410029.6999988556,,410029.39999961853,,410040.49,8,400,,,
break_continue,html.Screen,4_68_2,2023-09-12T20:13:00.595Z,,0,,,NaN,,,,,,false,,,,410030.29999923706,410030.1999988556,,410030.0999984741,,410040.49,8,400,,,
sequence,flow.Sequence,4_68,2023-09-12T20:13:00.595Z,,0,,,3008.1749988555675,completion,,,,,false,,,,410030.39999961853,410030.1999988556,407005.231,407013.89999961853,407022.025,410040.49,8,400,,,
trial,html.Screen,4_69_0,2023-09-12T20:13:03.275Z,,0,2,,2670.30999923707,response,ISIC_0063070.JPG,5,ISIC_4548995.JPG,ISIC_4548995.JPG,false,0,keypress(z),500,412710.89999961853,412710.79999923706,410023.791,410030.39999961853,410040.49,412725.986,8,400,20,,ISIC_0063070.JPG
break,html.Screen,4_69_1,2023-09-12T20:13:03.276Z,,0,,,NaN,,,,,,false,,,,412711.6999988556,412711.39999961853,,412711,,412725.986,8,400,,,
break_continue,html.Screen,4_69_2,2023-09-12T20:13:03.276Z,,0,,,NaN,,,,,,false,,,,412711.89999961853,412711.89999961853,,412711.6999988556,,412725.986,8,400,,,
sequence,flow.Sequence,4_69,2023-09-12T20:13:03.276Z,,0,,,2671.4099996185396,completion,,,,,false,,,,412712,412711.89999961853,410023.791,410030.39999961853,410040.49,412725.986,8,400,,,
trial,html.Screen,4_70_0,2023-09-12T20:13:05.936Z,,0,2,,2644.813999237085,response,ISIC_1450548.JPG,4,ISIC_5821131.JPG,ISIC_1450548.JPG,false,1,keypress(m),500,415371.0999984741,415370.79999923706,412695.38,412712.0999984741,412725.986,415377.544,8,400,21,,ISIC_5821131.JPG
break,html.Screen,4_70_1,2023-09-12T20:13:05.937Z,,0,,,NaN,,,,,,false,,,,415372.0999984741,415371.79999923706,,415371.29999923706,,415377.544,8,400,,,
break_continue,html.Screen,4_70_2,2023-09-12T20:13:05.937Z,,0,,,NaN,,,,,,false,,,,415372.89999961853,415372.6999988556,,415372.5,,415377.544,8,400,,,
sequence,flow.Sequence,4_70,2023-09-12T20:13:05.938Z,,0,,,2646.7139988556155,completion,,,,,false,,,,415373.0999984741,415372.6999988556,412695.38,412712.0999984741,412725.986,415377.544,8,400,,,
trial,html.Screen,4_71_0,2023-09-12T20:13:08.824Z,,0,2,,2881.5559984741267,response,ISIC_0024300.JPG,5,ISIC_0002853.JPG,ISIC_0002853.JPG,false,0,keypress(z),500,418259.1999988556,418259.0999984741,415367.79,415373.29999923706,415377.544,418262.834,8,400,22,,ISIC_0024300.JPG
break,html.Screen,4_71_1,2023-09-12T20:13:08.824Z,,0,,,NaN,,,,,,false,,,,418259.6999988556,418259.5999984741,,418259.29999923706,,418262.834,8,400,,,
break_continue,html.Screen,4_71_2,2023-09-12T20:13:08.824Z,,0,,,NaN,,,,,,false,,,,418259.89999961853,418259.89999961853,,418259.89999961853,,418262.834,8,400,,,
sequence,flow.Sequence,4_71,2023-09-12T20:13:08.824Z,,0,,,2882.355999618536,completion,,,,,false,,,,418260,418259.89999961853,415367.79,415373.1999988556,415377.544,418262.834,8,400,,,
trial,html.Screen,4_72_0,2023-09-12T20:13:11.659Z,,0,2,,2831.2659984741476,response,ISIC_0071778.JPG,5,ISIC_2074764.JPG,ISIC_2074764.JPG,false,0,keypress(z),500,421094.5,421094.0999984741,418248.141,418260,418262.834,421098.162,8,400,23,,ISIC_0071778.JPG
break,html.Screen,4_72_1,2023-09-12T20:13:11.661Z,,0,,,NaN,,,,,,false,,,,421096.0999984741,421095.39999961853,,421094.89999961853,,421098.162,8,400,,,
break_continue,html.Screen,4_72_2,2023-09-12T20:13:11.661Z,,0,,,NaN,,,,,,false,,,,421096.6999988556,421096.5,,421096.29999923706,,421098.162,8,400,,,
sequence,flow.Sequence,4_72,2023-09-12T20:13:11.661Z,,0,,,2833.6660000000265,completion,,,,,false,,,,421096.89999961853,421096.5,418248.141,418260,418262.834,421098.162,8,400,,,
trial,html.Screen,4_73_0,2023-09-12T20:13:14.848Z,,0,2,,3185.0379988555796,response,ISIC_1175291.JPG,5,ISIC_0053929.JPG,ISIC_0053929.JPG,false,0,keypress(z),500,424283.5999984741,424283.1999988556,421092.481,421097.1999988556,421098.162,424300.562,8,400,24,,ISIC_1175291.JPG
break,html.Screen,4_73_1,2023-09-12T20:13:14.849Z,,0,,,NaN,,,,,,false,,,,424284.79999923706,424284.39999961853,,424283.79999923706,,424300.562,8,400,,,
break_continue,html.Screen,4_73_2,2023-09-12T20:13:14.850Z,,0,,,NaN,,,,,,false,,,,424285.29999923706,424285.0999984741,,424284.89999961853,,424300.562,8,400,,,
sequence,flow.Sequence,4_73,2023-09-12T20:13:14.850Z,,0,,,3186.93799847411,completion,,,,,false,,,,424285.5,424285.0999984741,421092.481,421097,421098.162,424300.562,8,400,,,
trial,html.Screen,4_74_0,2023-09-12T20:13:17.557Z,,0,2,,2691.337999618554,response,ISIC_7945429.JPG,4,ISIC_0059925.JPG,ISIC_7945429.JPG,false,1,keypress(m),500,426992.1999988556,426991.89999961853,424269.189,424285.5999984741,424300.562,427002.387,8,400,25,,ISIC_0059925.JPG
break,html.Screen,4_74_1,2023-09-12T20:13:17.558Z,,0,,,NaN,,,,,,false,,,,426993.1999988556,426993,,426992.5,,427002.387,8,400,,,
break_continue,html.Screen,4_74_2,2023-09-12T20:13:17.559Z,,0,,,NaN,,,,,,false,,,,426993.89999961853,426993.6999988556,,426993.29999923706,,427002.387,8,400,,,
sequence,flow.Sequence,4_74,2023-09-12T20:13:17.559Z,,0,,,2693.1379988556146,completion,,,,,false,,,,426994.1999988556,426993.6999988556,424269.189,424285.5,424300.562,427002.387,8,400,,,
trial,html.Screen,4_75_0,2023-09-12T20:13:20.233Z,,0,2,,2665.712998474133,response,ISIC_0072221.JPG,5,ISIC_0014190.JPG,ISIC_0014190.JPG,false,0,keypress(z),500,429668.5,429668.0999984741,426988.471,426994.39999961853,427002.387,429670.683,8,400,26,,ISIC_0072221.JPG
break,html.Screen,4_75_1,2023-09-12T20:13:20.234Z,,0,,,NaN,,,,,,false,,,,429669.29999923706,429669.1999988556,,429668.6999988556,,429670.683,8,400,,,
break_continue,html.Screen,4_75_2,2023-09-12T20:13:20.235Z,,0,,,NaN,,,,,,false,,,,429669.89999961853,429669.6999988556,,429669.5,,429670.683,8,400,,,
sequence,flow.Sequence,4_75,2023-09-12T20:13:20.235Z,,0,,,2667.312998855603,completion,,,,,false,,,,429670.0999984741,429669.6999988556,426988.471,426994.1999988556,427002.387,429670.683,8,400,,,
trial,html.Screen,4_76_0,2023-09-12T20:13:23.005Z,,0,2,,2769.1169992370415,response,ISIC_8330906.JPG,4,ISIC_0071869.JPG,ISIC_8330906.JPG,false,1,keypress(m),500,432440.1999988556,432439.79999923706,429666.425,429670.1999988556,429670.683,432456.279,8,400,27,,ISIC_0071869.JPG
break,html.Screen,4_76_1,2023-09-12T20:13:23.006Z,,0,,,NaN,,,,,,false,,,,432441.0999984741,432440.89999961853,,432440.39999961853,,432456.279,8,400,,,
break_continue,html.Screen,4_76_2,2023-09-12T20:13:23.006Z,,0,,,NaN,,,,,,false,,,,432441.79999923706,432441.5,,432441.29999923706,,432456.279,8,400,,,
sequence,flow.Sequence,4_76,2023-09-12T20:13:23.007Z,,0,,,2770.816999999981,completion,,,,,false,,,,432442,432441.5,429666.425,429670.0999984741,429670.683,432456.279,8,400,,,
trial,html.Screen,4_77_0,2023-09-12T20:13:25.745Z,,0,2,,2723.62099961855,response,ISIC_0060707.JPG,6,ISIC_0011336.JPG,ISIC_0011336.JPG,false,0,keypress(z),500,435180.29999923706,435179.89999961853,432434.078,432442.0999984741,432456.279,435191.546,8,400,28,,ISIC_0060707.JPG
break,html.Screen,4_77_1,2023-09-12T20:13:25.746Z,,0,,,NaN,,,,,,false,,,,435181.29999923706,435181.0999984741,,435180.5,,435191.546,8,400,,,
break_continue,html.Screen,4_77_2,2023-09-12T20:13:25.747Z,,0,,,NaN,,,,,,false,,,,435182,435181.79999923706,,435181.39999961853,,435191.546,8,400,,,
sequence,flow.Sequence,4_77,2023-09-12T20:13:25.747Z,,0,,,2725.52099923708,completion,,,,,false,,,,435182.0999984741,435181.79999923706,432434.078,432442,432456.279,435191.546,8,400,,,
trial,html.Screen,4_78_0,2023-09-12T20:13:28.728Z,,0,2,,2971.153998855618,response,ISIC_0063521.JPG,4,ISIC_5646706.JPG,ISIC_0063521.JPG,false,1,keypress(m),500,438162.89999961853,438162.6999988556,435176.572,435182.1999988556,435191.546,438176.584,8,400,29,,ISIC_5646706.JPG
break,html.Screen,4_78_1,2023-09-12T20:13:28.728Z,,0,,,NaN,,,,,,false,,,,438163.79999923706,438163.5999984741,,438163.0999984741,,438176.584,8,400,,,
break_continue,html.Screen,4_78_2,2023-09-12T20:13:28.729Z,,0,,,NaN,,,,,,false,,,,438164.5999984741,438164.29999923706,,438164,,438176.584,8,400,,,
sequence,flow.Sequence,4_78,2023-09-12T20:13:28.729Z,,0,,,2972.7539992370876,completion,,,,,false,,,,438164.79999923706,438164.29999923706,435176.572,435182.1999988556,435191.546,438176.584,8,400,,,
trial,html.Screen,4_79_0,2023-09-12T20:13:32.047Z,,0,2,,3306.0159984741476,response,ISIC_4087267.JPG,5,ISIC_5754233.JPG,ISIC_5754233.JPG,false,0,keypress(z),500,441482.89999961853,441482.5999984741,438162.738,438165,438176.584,441495.558,8,400,30,,ISIC_4087267.JPG
break,html.Screen,4_79_1,2023-09-12T20:13:32.048Z,,0,,,NaN,,,,,,false,,,,441483.79999923706,441483.5,,441483.0999984741,,441495.558,8,400,,,
break_continue,html.Screen,4_79_2,2023-09-12T20:13:32.049Z,,0,,,NaN,,,,,,false,,,,441484.39999961853,441484.1999988556,,441483.89999961853,,441495.558,8,400,,,
sequence,flow.Sequence,4_79,2023-09-12T20:13:32.049Z,,0,,,3307.6159988556174,completion,,,,,false,,,,441484.5999984741,441484.1999988556,438162.738,438164.89999961853,438176.584,441495.558,8,400,,,
trial,html.Screen,4_80_0,2023-09-12T20:13:34.771Z,,0,2,,2710.841999618511,response,ISIC_0033369.JPG,5,ISIC_3246746.JPG,ISIC_3246746.JPG,false,0,keypress(z),500,444206.79999923706,444206.39999961853,441471.149,441484.79999923706,441495.558,444214.087,8,400,31,,ISIC_0033369.JPG
break,html.Screen,4_80_1,2023-09-12T20:13:34.772Z,,0,,,NaN,,,,,,false,,,,444207.79999923706,444207.5,,444207,,444214.087,8,400,,,
break_continue,html.Screen,4_80_2,2023-09-12T20:13:34.773Z,,0,,,NaN,,,,,,false,,,,444208.5999984741,444208.39999961853,,444207.89999961853,,444214.087,8,400,,,
sequence,flow.Sequence,4_80,2023-09-12T20:13:34.773Z,,0,,,2712.841999618511,completion,,,,,false,,,,444208.79999923706,444208.39999961853,441471.149,441484.79999923706,441495.558,444214.087,8,400,,,
trial,html.Screen,4_81_0,2023-09-12T20:13:37.351Z,,0,2,,2572.1129988555913,response,ISIC_0010785.JPG,5,ISIC_2100640.JPG,ISIC_0010785.JPG,false,1,keypress(m),500,446786.5,446786.1999988556,444205.977,444208.89999961853,444214.087,446799.457,8,400,32,,ISIC_2100640.JPG
break,html.Screen,4_81_1,2023-09-12T20:13:37.352Z,,0,,,NaN,,,,,,false,,,,446787.5,446787.1999988556,,446786.6999988556,,446799.457,8,400,,,
break_continue,html.Screen,4_81_2,2023-09-12T20:13:37.353Z,,0,,,NaN,,,,,,false,,,,446788.1999988556,446787.89999961853,,446787.5999984741,,446799.457,8,400,,,
sequence,flow.Sequence,4_81,2023-09-12T20:13:37.353Z,,0,,,2573.8129996185307,completion,,,,,false,,,,446788.39999961853,446787.89999961853,444205.977,444208.89999961853,444214.087,446799.457,8,400,,,
trial,html.Screen,4_82_0,2023-09-12T20:13:39.899Z,,0,2,,2534.4429996185354,response,ISIC_0063664.JPG,5,ISIC_0072412.JPG,ISIC_0072412.JPG,false,0,keypress(z),500,449334.1999988556,449333.89999961853,446784.386,446788.5,446799.457,449351.058,8,400,33,,ISIC_0063664.JPG
break,html.Screen,4_82_1,2023-09-12T20:13:39.900Z,,0,,,NaN,,,,,,false,,,,449335,449334.79999923706,,449334.39999961853,,449351.058,8,400,,,
break_continue,html.Screen,4_82_2,2023-09-12T20:13:39.900Z,,0,,,NaN,,,,,,false,,,,449335.5999984741,449335.39999961853,,449335.0999984741,,449351.058,8,400,,,
sequence,flow.Sequence,4_82,2023-09-12T20:13:39.900Z,,0,,,2535.9429996185354,completion,,,,,false,,,,449335.6999988556,449335.39999961853,446784.386,446788.5,446799.457,449351.058,8,400,,,
trial,html.Screen,4_83_0,2023-09-12T20:13:42.848Z,,0,2,,2931.841999618511,response,ISIC_0002693.JPG,4,ISIC_0011051.JPG,ISIC_0002693.JPG,false,1,keypress(m),500,452283.1999988556,452282.89999961853,449319.648,449335.79999923706,449351.058,452286.263,8,400,34,,ISIC_0011051.JPG
break,html.Screen,4_83_1,2023-09-12T20:13:42.849Z,,0,,,NaN,,,,,,false,,,,452284.29999923706,452283.79999923706,,452283.5,,452286.263,8,400,,,
break_continue,html.Screen,4_83_2,2023-09-12T20:13:42.849Z,,0,,,NaN,,,,,,false,,,,452284.79999923706,452284.6999988556,,452284.5,,452286.263,8,400,,,
sequence,flow.Sequence,4_83,2023-09-12T20:13:42.850Z,,0,,,2933.6419988555717,completion,,,,,false,,,,452284.89999961853,452284.6999988556,449319.648,449335.79999923706,449351.058,452286.263,8,400,,,
trial,html.Screen,4_84_0,2023-09-12T20:13:45.491Z,,0,2,,2639.836998474144,response,ISIC_7138875.JPG,5,ISIC_8851038.JPG,ISIC_8851038.JPG,false,0,keypress(z),500,454926.39999961853,454926.0999984741,452280.228,452285,452286.263,454938.457,8,400,35,,ISIC_7138875.JPG
break,html.Screen,4_84_1,2023-09-12T20:13:45.492Z,,0,,,NaN,,,,,,false,,,,454927.39999961853,454927.0999984741,,454926.6999988556,,454938.457,8,400,,,
break_continue,html.Screen,4_84_2,2023-09-12T20:13:45.493Z,,0,,,NaN,,,,,,false,,,,454928.0999984741,454927.89999961853,,454927.5999984741,,454938.457,8,400,,,
sequence,flow.Sequence,4_84,2023-09-12T20:13:45.493Z,,0,,,2641.636999618553,completion,,,,,false,,,,454928.29999923706,454927.89999961853,452280.228,452285,452286.263,454938.457,8,400,,,
trial,html.Screen,4_85_0,2023-09-12T20:13:48.135Z,,0,2,,2631.8429992370657,response,ISIC_7482149.JPG,4,ISIC_6250970.JPG,ISIC_6250970.JPG,false,0,keypress(z),500,457570.5999984741,457570.29999923706,454912.33,454928.39999961853,454938.457,457573.271,8,400,36,,ISIC_7482149.JPG
break,html.Screen,4_85_1,2023-09-12T20:13:48.136Z,,0,,,NaN,,,,,,false,,,,457571.39999961853,457571.1999988556,,457570.6999988556,,457573.271,8,400,,,
break_continue,html.Screen,4_85_2,2023-09-12T20:13:48.137Z,,0,,,NaN,,,,,,false,,,,457572.0999984741,457571.89999961853,,457571.5,,457573.271,8,400,,,
sequence,flow.Sequence,4_85,2023-09-12T20:13:48.137Z,,0,,,2633.4429996185354,completion,,,,,false,,,,457572.29999923706,457571.89999961853,454912.33,454928.39999961853,454938.457,457573.271,8,400,,,
trial,html.Screen,4_86_0,2023-09-12T20:13:50.827Z,,0,2,,2689.0289992370526,response,ISIC_0057362.JPG,5,ISIC_0034022.JPG,ISIC_0057362.JPG,false,1,keypress(m),500,460262.5999984741,460262.29999923706,457558.713,457572.39999961853,457573.271,460275.119,8,400,37,,ISIC_0034022.JPG
break,html.Screen,4_86_1,2023-09-12T20:13:50.828Z,,0,,,NaN,,,,,,false,,,,460263.5,460263.29999923706,,460262.79999923706,,460275.119,8,400,,,
break_continue,html.Screen,4_86_2,2023-09-12T20:13:50.829Z,,0,,,NaN,,,,,,false,,,,460264.0999984741,460264,,460263.5999984741,,460275.119,8,400,,,
sequence,flow.Sequence,4_86,2023-09-12T20:13:50.829Z,,0,,,2690.728999999992,completion,,,,,false,,,,460264.29999923706,460264,457558.713,457572.39999961853,457573.271,460275.119,8,400,,,
trial,html.Screen,4_87_0,2023-09-12T20:13:53.456Z,,0,2,,2616.280999618524,response,ISIC_9469284.JPG,4,ISIC_5335139.JPG,ISIC_5335139.JPG,false,0,keypress(z),500,462891.6999988556,462891.39999961853,460261.302,460264.39999961853,460275.119,462913.043,8,400,38,,ISIC_9469284.JPG
break,html.Screen,4_87_1,2023-09-12T20:13:53.457Z,,0,,,NaN,,,,,,false,,,,462892.5999984741,462892.39999961853,,462891.89999961853,,462913.043,8,400,,,
break_continue,html.Screen,4_87_2,2023-09-12T20:13:53.458Z,,0,,,NaN,,,,,,false,,,,462893.1999988556,462893,,462892.6999988556,,462913.043,8,400,,,
sequence,flow.Sequence,4_87,2023-09-12T20:13:53.458Z,,0,,,2617.880999999994,completion,,,,,false,,,,462893.39999961853,462893,460261.302,460264.39999961853,460275.119,462913.043,8,400,,,
trial,html.Screen,4_88_0,2023-09-12T20:13:56.037Z,,0,2,,2558.556998474116,response,ISIC_0032586.JPG,5,ISIC_1790808.JPG,ISIC_1790808.JPG,false,0,keypress(z),500,465471.89999961853,465471.5999984741,462885.86,462893.5,462913.043,465478.657,8,400,39,,ISIC_0032586.JPG
break,html.Screen,4_88_1,2023-09-12T20:13:56.038Z,,0,,,NaN,,,,,,false,,,,465472.79999923706,465472.5999984741,,465472.1999988556,,465478.657,8,400,,,
break_continue,html.Screen,4_88_2,2023-09-12T20:13:56.038Z,,0,,,NaN,,,,,,false,,,,465473.6999988556,465473.5,,465473,,465478.657,8,400,,,
sequence,flow.Sequence,4_88,2023-09-12T20:13:56.038Z,,0,,,2560.456999999995,completion,,,,,false,,,,465473.89999961853,465473.5,462885.86,462893.5,462913.043,465478.657,8,400,,,
trial,html.Screen,4_89_0,2023-09-12T20:13:58.847Z,,0,2,,2803.4429984741146,response,ISIC_1413242.JPG,6,ISIC_7306131.JPG,ISIC_7306131.JPG,false,0,keypress(z),500,468282.39999961853,468282.0999984741,465473.08,465474,465478.657,468297.417,8,400,40,,ISIC_1413242.JPG
break,html.Screen,4_89_1,2023-09-12T20:13:58.848Z,,0,,,NaN,,,,,,false,,,,468283.1999988556,468283.0999984741,,468282.5999984741,,468297.417,8,400,,,
break_continue,html.Screen,4_89_2,2023-09-12T20:13:58.849Z,,0,,,NaN,,,,,,false,,,,468284,468283.79999923706,,468283.39999961853,,468297.417,8,400,,,
sequence,flow.Sequence,4_89,2023-09-12T20:13:58.849Z,,0,,,2805.142999237054,completion,,,,,false,,,,468284.1999988556,468283.79999923706,465473.08,465474,465478.657,468297.417,8,400,,,
trial,html.Screen,4_90_0,2023-09-12T20:14:01.366Z,,0,2,,2503.582999999984,response,ISIC_0068381.JPG,5,ISIC_4177043.JPG,ISIC_4177043.JPG,false,0,keypress(z),500,470801.1999988556,470801,468283.184,468284.39999961853,468297.417,470815.632,8,400,41,,ISIC_0068381.JPG
break,html.Screen,4_90_1,2023-09-12T20:14:01.366Z,,0,,,NaN,,,,,,false,,,,470801.79999923706,470801.5999984741,,470801.1999988556,,470815.632,8,400,,,
break_continue,html.Screen,4_90_2,2023-09-12T20:14:01.367Z,,0,,,NaN,,,,,,false,,,,470802.0999984741,470802,,470801.89999961853,,470815.632,8,400,,,
sequence,flow.Sequence,4_90,2023-09-12T20:14:01.367Z,,0,,,2504.582999999984,completion,,,,,false,,,,470802.0999984741,470802,468283.184,468284.29999923706,468297.417,470815.632,8,400,,,
trial,html.Screen,4_91_0,2023-09-12T20:14:04.556Z,,0,2,,3175.767999618547,response,ISIC_3975133.JPG,5,ISIC_0065521.JPG,ISIC_0065521.JPG,false,0,keypress(z),500,473991.6999988556,473991.39999961853,470800.841,470802.1999988556,470815.632,474001.326,8,400,42,,ISIC_3975133.JPG
break,html.Screen,4_91_1,2023-09-12T20:14:04.557Z,,0,,,NaN,,,,,,false,,,,473992.39999961853,473992.1999988556,,473991.89999961853,,474001.326,8,400,,,
break_continue,html.Screen,4_91_2,2023-09-12T20:14:04.558Z,,0,,,NaN,,,,,,false,,,,473993.0999984741,473992.89999961853,,473992.5999984741,,474001.326,8,400,,,
sequence,flow.Sequence,4_91,2023-09-12T20:14:04.558Z,,0,,,3177.267999618547,completion,,,,,false,,,,473993.1999988556,473992.89999961853,470800.841,470802.1999988556,470815.632,474001.326,8,400,,,
trial,html.Screen,4_92_0,2023-09-12T20:14:07.184Z,,0,2,,2617.4739992370596,response,ISIC_0033730.JPG,5,ISIC_9059311.JPG,ISIC_9059311.JPG,false,0,keypress(z),500,476619.0999984741,476618.79999923706,473979.541,473993.29999923706,474001.326,476636.405,8,400,43,,ISIC_0033730.JPG
break,html.Screen,4_92_1,2023-09-12T20:14:07.185Z,,0,,,NaN,,,,,,false,,,,476620.0999984741,476619.79999923706,,476619.39999961853,,476636.405,8,400,,,
break_continue,html.Screen,4_92_2,2023-09-12T20:14:07.186Z,,0,,,NaN,,,,,,false,,,,476621,476620.79999923706,,476620.5,,476636.405,8,400,,,
sequence,flow.Sequence,4_92,2023-09-12T20:14:07.186Z,,0,,,2619.4739992370596,completion,,,,,false,,,,476621.29999923706,476620.79999923706,473979.541,473993.29999923706,474001.326,476636.405,8,400,,,
trial,html.Screen,4_93_0,2023-09-12T20:14:09.770Z,,0,2,,2568.794998855563,response,ISIC_0000452.JPG,5,ISIC_0070412.JPG,ISIC_0000452.JPG,false,1,keypress(m),500,479205.5999984741,479205.1999988556,476614.991,476621.5,476636.405,479221.522,8,400,44,,ISIC_0070412.JPG
break,html.Screen,4_93_1,2023-09-12T20:14:09.771Z,,0,,,NaN,,,,,,false,,,,479206.6999988556,479206.39999961853,,479205.89999961853,,479221.522,8,400,,,
break_continue,html.Screen,4_93_2,2023-09-12T20:14:09.772Z,,0,,,NaN,,,,,,false,,,,479207.5,479207.29999923706,,479207,,479221.522,8,400,,,
sequence,flow.Sequence,4_93,2023-09-12T20:14:09.772Z,,0,,,2570.8949992370326,completion,,,,,false,,,,479207.79999923706,479207.29999923706,476614.991,476621.39999961853,476636.405,479221.522,8,400,,,
trial,html.Screen,4_94_0,2023-09-12T20:14:12.400Z,,0,2,,2613.478000000003,response,ISIC_0054459.JPG,5,ISIC_8713330.JPG,ISIC_8713330.JPG,false,0,keypress(z),500,481835.1999988556,481835,479200.456,479207.89999961853,479221.522,481839.957,8,400,45,,ISIC_0054459.JPG
break,html.Screen,4_94_1,2023-09-12T20:14:12.401Z,,0,,,NaN,,,,,,false,,,,481836.1999988556,481835.89999961853,,481835.5,,481839.957,8,400,,,
break_continue,html.Screen,4_94_2,2023-09-12T20:14:12.401Z,,0,,,NaN,,,,,,false,,,,481836.89999961853,481836.79999923706,,481836.5999984741,,481839.957,8,400,,,
sequence,flow.Sequence,4_94,2023-09-12T20:14:12.401Z,,0,,,2615.2779992370633,completion,,,,,false,,,,481837.0999984741,481836.79999923706,479200.456,479207.79999923706,479221.522,481839.957,8,400,,,
trial,html.Screen,4_95_0,2023-09-12T20:14:14.967Z,,0,2,,2562.242998855596,response,ISIC_6993129.JPG,5,ISIC_1740912.JPG,ISIC_6993129.JPG,false,1,keypress(m),500,484402.5999984741,484402.1999988556,481821.993,481837.1999988556,481839.957,484408.423,8,400,46,,ISIC_1740912.JPG
break,html.Screen,4_95_1,2023-09-12T20:14:14.968Z,,0,,,NaN,,,,,,false,,,,484403.6999988556,484403.5,,484402.89999961853,,484408.423,8,400,,,
break_continue,html.Screen,4_95_2,2023-09-12T20:14:14.969Z,,0,,,NaN,,,,,,false,,,,484404.5,484404.29999923706,,484403.89999961853,,484408.423,8,400,,,
sequence,flow.Sequence,4_95,2023-09-12T20:14:14.969Z,,0,,,2564.3429992370657,completion,,,,,false,,,,484404.6999988556,484404.29999923706,481821.993,481837.1999988556,481839.957,484408.423,8,400,,,
trial,html.Screen,4_96_0,2023-09-12T20:14:17.516Z,,0,2,,2543.276998855581,response,ISIC_0239178.JPG,5,ISIC_0025413.JPG,ISIC_0239178.JPG,false,1,keypress(m),500,486952,486951.6999988556,484387.768,484404.79999923706,484408.423,486960.296,8,400,47,,ISIC_0025413.JPG
break,html.Screen,4_96_1,2023-09-12T20:14:17.517Z,,0,,,NaN,,,,,,false,,,,486952.89999961853,486952.6999988556,,486952.1999988556,,486960.296,8,400,,,
break_continue,html.Screen,4_96_2,2023-09-12T20:14:17.518Z,,0,,,NaN,,,,,,false,,,,486953.5999984741,486953.29999923706,,486953.0999984741,,486960.296,8,400,,,
sequence,flow.Sequence,4_96,2023-09-12T20:14:17.518Z,,0,,,2544.8769992370508,completion,,,,,false,,,,486953.79999923706,486953.29999923706,484387.768,484404.79999923706,484408.423,486960.296,8,400,,,
trial,html.Screen,4_97_0,2023-09-12T20:14:20.128Z,,0,2,,2603.0039992370876,response,ISIC_8100185.JPG,4,ISIC_0033730.JPG,ISIC_8100185.JPG,false,1,keypress(m),500,489563.5999984741,489563.29999923706,486940.42,486953.89999961853,486960.296,489579.043,8,400,48,,ISIC_0033730.JPG
break,html.Screen,4_97_1,2023-09-12T20:14:20.129Z,,0,,,NaN,,,,,,false,,,,489564.5,489564.1999988556,,489563.6999988556,,489579.043,8,400,,,
break_continue,html.Screen,4_97_2,2023-09-12T20:14:20.130Z,,0,,,NaN,,,,,,false,,,,489565.29999923706,489565.0999984741,,489565,,489579.043,8,400,,,
sequence,flow.Sequence,4_97,2023-09-12T20:14:20.130Z,,0,,,2604.803998474148,completion,,,,,false,,,,489565.5,489565.0999984741,486940.42,486953.89999961853,486960.296,489579.043,8,400,,,
trial,html.Screen,4_98_0,2023-09-12T20:14:22.667Z,,0,2,,2522.856999618525,response,ISIC_1293743.JPG,5,ISIC_0010866.JPG,ISIC_1293743.JPG,false,1,keypress(m),500,492102.1999988556,492101.89999961853,489547.616,489565.5999984741,489579.043,492113.924,8,400,49,,ISIC_0010866.JPG
break,html.Screen,4_98_1,2023-09-12T20:14:22.668Z,,0,,,NaN,,,,,,false,,,,492103.0999984741,492102.89999961853,,492102.39999961853,,492113.924,8,400,,,
break_continue,html.Screen,4_98_2,2023-09-12T20:14:22.668Z,,0,,,NaN,,,,,,false,,,,492103.79999923706,492103.6999988556,,492103.1999988556,,492113.924,8,400,,,
sequence,flow.Sequence,4_98,2023-09-12T20:14:22.668Z,,0,,,2524.6569988555857,completion,,,,,false,,,,492104.0999984741,492103.6999988556,489547.616,489565.5,489579.043,492113.924,8,400,,,
trial,html.Screen,4_99_0,2023-09-12T20:14:25.630Z,,0,2,,2951.2759988555918,response,ISIC_6945921.JPG,5,ISIC_2680640.JPG,ISIC_2680640.JPG,false,0,keypress(z),500,495065.5,495065.1999988556,492087.29,492104.0999984741,492113.924,495082.274,8,400,50,,ISIC_6945921.JPG
break,html.Screen,4_99_1,2023-09-12T20:14:35.639Z,,0,,,10007.13400000002,timeout,,,,,false,,,,505074.29999923706,505072.796,495050.354,495065.5999984741,495082.274,505089.408,8,400,,,
break_continue,html.Screen,4_99_2,2023-09-12T20:14:52.860Z,,0,,,17180.791998855595,response,,,,,false,continue,keypress(Space),,522295.79999923706,522270.1999988556,505072.796,505074.5999984741,505089.408,522301.021,8,400,,,
sequence,flow.Sequence,4_99,2023-09-12T20:14:52.860Z,,0,,,30156.27599885559,completion,,,,,false,,,,522296.0999984741,522270.1999988556,492087.29,492104.0999984741,492113.924,522301.021,8,400,,,
trial,html.Screen,4_100_0,2023-09-12T20:14:55.679Z,,0,3,,2813.578998474113,response,ISIC_0024545.JPG,5,ISIC_6375439.JPG,ISIC_6375439.JPG,false,0,keypress(z),500,525115,525114.5999984741,522296.494,522296.1999988556,522301.021,525119.633,8,400,1,,ISIC_0024545.JPG
break,html.Screen,4_100_1,2023-09-12T20:14:55.680Z,,0,,,NaN,,,,,,false,,,,525115.7999992371,525115.5,,525115.1999988556,,525119.633,8,400,,,
break_continue,html.Screen,4_100_2,2023-09-12T20:14:55.681Z,,0,,,NaN,,,,,,false,,,,525116.2999992371,525116.0999984741,,525115.8999996185,,525119.633,8,400,,,
sequence,flow.Sequence,4_100,2023-09-12T20:14:55.681Z,,0,,,2815.078998474113,completion,,,,,false,,,,525116.5,525116.0999984741,522296.494,522296.1999988556,522301.021,525119.633,8,400,,,
trial,html.Screen,4_101_0,2023-09-12T20:14:58.723Z,,0,3,,3038.56699885556,response,ISIC_0463755.JPG,4,ISIC_0032516.JPG,ISIC_0463755.JPG,false,1,keypress(m),500,528158.3999996185,528158.1999988556,525105.427,525116.5999984741,525119.633,528171.85,8,400,2,,ISIC_0032516.JPG
break,html.Screen,4_101_1,2023-09-12T20:14:58.724Z,,0,,,NaN,,,,,,false,,,,528159.2999992371,528159,,528158.5999984741,,528171.85,8,400,,,
break_continue,html.Screen,4_101_2,2023-09-12T20:14:58.725Z,,0,,,NaN,,,,,,false,,,,528160.0999984741,528159.7999992371,,528159.5,,528171.85,8,400,,,
sequence,flow.Sequence,4_101,2023-09-12T20:14:58.725Z,,0,,,3040.16699923703,completion,,,,,false,,,,528160.3999996185,528159.7999992371,525105.427,525116.5999984741,525119.633,528171.85,8,400,,,
trial,html.Screen,4_102_0,2023-09-12T20:15:01.542Z,,0,3,,2805.7499984741444,response,ISIC_0053485.JPG,4,ISIC_0029809.JPG,ISIC_0029809.JPG,false,0,keypress(z),500,530977.7999992371,530977.5999984741,528157.982,528160.5,528171.85,530990.567,8,400,3,,ISIC_0053485.JPG
break,html.Screen,4_102_1,2023-09-12T20:15:01.543Z,,0,,,NaN,,,,,,false,,,,530978.8999996185,530978.5999984741,,530978.0999984741,,530990.567,8,400,,,
break_continue,html.Screen,4_102_2,2023-09-12T20:15:01.544Z,,0,,,NaN,,,,,,false,,,,530979.3999996185,530979.2999992371,,530979,,530990.567,8,400,,,
sequence,flow.Sequence,4_102,2023-09-12T20:15:01.544Z,,0,,,2807.449999237084,completion,,,,,false,,,,530979.6999988556,530979.2999992371,528157.982,528160.5,528171.85,530990.567,8,400,,,
trial,html.Screen,4_103_0,2023-09-12T20:15:04.218Z,,0,3,,2662.532998474082,response,ISIC_4223734.JPG,5,ISIC_1944650.JPG,ISIC_4223734.JPG,false,1,keypress(m),500,533653.3999996185,533653.0999984741,530969.722,530979.7999992371,530990.567,533658.898,8,400,4,,ISIC_1944650.JPG
break,html.Screen,4_103_1,2023-09-12T20:15:04.219Z,,0,,,NaN,,,,,,false,,,,533654.5,533654.1999988556,,533653.5999984741,,533658.898,8,400,,,
break_continue,html.Screen,4_103_2,2023-09-12T20:15:04.219Z,,0,,,NaN,,,,,,false,,,,533655,533654.8999996185,,533654.6999988556,,533658.898,8,400,,,
sequence,flow.Sequence,4_103,2023-09-12T20:15:04.220Z,,0,,,2664.332999618491,completion,,,,,false,,,,533655.0999984741,533654.8999996185,530969.722,530979.6999988556,530990.567,533658.898,8,400,,,
trial,html.Screen,4_104_0,2023-09-12T20:15:06.797Z,,0,3,,2573.7019984740764,response,ISIC_7047780.JPG,5,ISIC_4404772.JPG,ISIC_7047780.JPG,false,1,keypress(m),500,536233,536232.5999984741,533647.626,533655.2999992371,533658.898,536244.347,8,400,5,,ISIC_4404772.JPG
break,html.Screen,4_104_1,2023-09-12T20:15:06.798Z,,0,,,NaN,,,,,,false,,,,536234,536233.7999992371,,536233.1999988556,,536244.347,8,400,,,
break_continue,html.Screen,4_104_2,2023-09-12T20:15:06.799Z,,0,,,NaN,,,,,,false,,,,536234.6999988556,536234.5,,536234.0999984741,,536244.347,8,400,,,
sequence,flow.Sequence,4_104,2023-09-12T20:15:06.799Z,,0,,,2575.6019999999553,completion,,,,,false,,,,536234.8999996185,536234.5,533647.626,533655.2999992371,533658.898,536244.347,8,400,,,
trial,html.Screen,4_105_0,2023-09-12T20:15:09.362Z,,0,3,,2553.0529996185796,response,ISIC_3390057.JPG,5,ISIC_0024607.JPG,ISIC_0024607.JPG,false,0,keypress(z),500,538797.6999988556,538797.3999996185,536220.598,536235.0999984741,536244.347,538812.507,8,400,6,,ISIC_3390057.JPG
break,html.Screen,4_105_1,2023-09-12T20:15:09.363Z,,0,,,NaN,,,,,,false,,,,538798.5999984741,538798.2999992371,,538797.7999992371,,538812.507,8,400,,,
break_continue,html.Screen,4_105_2,2023-09-12T20:15:09.363Z,,0,,,NaN,,,,,,false,,,,538799.0999984741,538798.8999996185,,538798.5999984741,,538812.507,8,400,,,
sequence,flow.Sequence,4_105,2023-09-12T20:15:09.364Z,,0,,,2554.5529996185796,completion,,,,,false,,,,538799.2999992371,538798.8999996185,536220.598,536235.0999984741,536244.347,538812.507,8,400,,,
trial,html.Screen,4_106_0,2023-09-12T20:15:11.911Z,,0,3,,2533.392999618547,response,ISIC_0062407.JPG,5,ISIC_0059987.JPG,ISIC_0059987.JPG,false,0,keypress(z),500,541346.1999988556,541345.8999996185,538791.737,538799.3999996185,538812.507,541364.289,8,400,7,,ISIC_0062407.JPG
break,html.Screen,4_106_1,2023-09-12T20:15:11.911Z,,0,,,NaN,,,,,,false,,,,541347,541346.7999992371,,541346.2999992371,,541364.289,8,400,,,
break_continue,html.Screen,4_106_2,2023-09-12T20:15:11.912Z,,0,,,NaN,,,,,,false,,,,541347.6999988556,541347.5,,541347.1999988556,,541364.289,8,400,,,
sequence,flow.Sequence,4_106,2023-09-12T20:15:11.912Z,,0,,,2534.9930000000168,completion,,,,,false,,,,541347.8999996185,541347.5,538791.737,538799.3999996185,538812.507,541364.289,8,400,,,
trial,html.Screen,4_107_0,2023-09-12T20:15:14.479Z,,0,3,,2550.1109996185405,response,ISIC_3356776.JPG,5,ISIC_0033444.JPG,ISIC_3356776.JPG,false,1,keypress(m),500,543914.6999988556,543914.3999996185,541339.47,541348,541364.289,543932.896,8,400,8,,ISIC_0033444.JPG
break,html.Screen,4_107_1,2023-09-12T20:15:14.481Z,,0,,,NaN,,,,,,false,,,,543916.3999996185,543916.0999984741,,543915,,543932.896,8,400,,,
break_continue,html.Screen,4_107_2,2023-09-12T20:15:14.481Z,,0,,,NaN,,,,,,false,,,,543916.8999996185,543916.7999992371,,543916.5999984741,,543932.896,8,400,,,
sequence,flow.Sequence,4_107,2023-09-12T20:15:14.482Z,,0,,,2552.510999237071,completion,,,,,false,,,,543917.0999984741,543916.7999992371,541339.47,541347.8999996185,541364.289,543932.896,8,400,,,
trial,html.Screen,4_108_0,2023-09-12T20:15:17.159Z,,0,3,,2661.303998855641,response,ISIC_0057009.JPG,5,ISIC_0024259.JPG,ISIC_0024259.JPG,false,0,keypress(z),500,546594.5,546594.1999988556,543903.884,543917.2999992371,543932.896,546601.091,8,400,9,,ISIC_0057009.JPG
break,html.Screen,4_108_1,2023-09-12T20:15:17.160Z,,0,,,NaN,,,,,,false,,,,546595.3999996185,546595.1999988556,,546594.7999992371,,546601.091,8,400,,,
break_continue,html.Screen,4_108_2,2023-09-12T20:15:17.161Z,,0,,,NaN,,,,,,false,,,,546596.2999992371,546596.0999984741,,546595.5999984741,,546601.091,8,400,,,
sequence,flow.Sequence,4_108,2023-09-12T20:15:17.161Z,,0,,,2663.2039984741714,completion,,,,,false,,,,546596.3999996185,546596.0999984741,543903.884,543917.1999988556,543932.896,546601.091,8,400,,,
trial,html.Screen,4_109_0,2023-09-12T20:15:19.803Z,,0,3,,2637.108998855576,response,ISIC_8663971.JPG,5,ISIC_0046344.JPG,ISIC_8663971.JPG,false,1,keypress(m),500,549238.5,549238.1999988556,546586.45,546596.6999988556,546601.091,549253.09,8,400,10,,ISIC_0046344.JPG
break,html.Screen,4_109_1,2023-09-12T20:15:19.804Z,,0,,,NaN,,,,,,false,,,,549239.1999988556,549239,,549238.5999984741,,549253.09,8,400,,,
break_continue,html.Screen,4_109_2,2023-09-12T20:15:19.804Z,,0,,,NaN,,,,,,false,,,,549239.7999992371,549239.6999988556,,549239.3999996185,,549253.09,8,400,,,
sequence,flow.Sequence,4_109,2023-09-12T20:15:19.805Z,,0,,,2638.608998855576,completion,,,,,false,,,,549240,549239.6999988556,546586.45,546596.5999984741,546601.091,549253.09,8,400,,,
trial,html.Screen,4_110_0,2023-09-12T20:15:22.417Z,,0,3,,2599.309999618563,response,ISIC_9754098.JPG,6,ISIC_0063319.JPG,ISIC_9754098.JPG,false,1,keypress(m),500,551852.6999988556,551852.3999996185,549225.127,549240.0999984741,549253.09,551876.808,8,400,11,,ISIC_0063319.JPG
break,html.Screen,4_110_1,2023-09-12T20:15:22.418Z,,0,,,NaN,,,,,,false,,,,551853.5999984741,551853.3999996185,,551852.7999992371,,551876.808,8,400,,,
break_continue,html.Screen,4_110_2,2023-09-12T20:15:22.419Z,,0,,,NaN,,,,,,false,,,,551854.1999988556,551853.8999996185,,551853.6999988556,,551876.808,8,400,,,
sequence,flow.Sequence,4_110,2023-09-12T20:15:22.419Z,,0,,,2600.809999618563,completion,,,,,false,,,,551854.2999992371,551853.8999996185,549225.127,549240.0999984741,549253.09,551876.808,8,400,,,
trial,html.Screen,4_111_0,2023-09-12T20:15:24.949Z,,0,3,,2507.79199847416,response,ISIC_8584239.JPG,5,ISIC_0001142.JPG,ISIC_8584239.JPG,false,1,keypress(m),500,554384.8999996185,554384.5999984741,551845.592,551854.5,551876.808,554389.865,8,400,12,,ISIC_0001142.JPG
break,html.Screen,4_111_1,2023-09-12T20:15:24.950Z,,0,,,NaN,,,,,,false,,,,554385.7999992371,554385.5999984741,,554385.0999984741,,554389.865,8,400,,,
break_continue,html.Screen,4_111_2,2023-09-12T20:15:24.951Z,,0,,,NaN,,,,,,false,,,,554386.5,554386.3999996185,,554386.1999988556,,554389.865,8,400,,,
sequence,flow.Sequence,4_111,2023-09-12T20:15:24.951Z,,0,,,2509.5919996185694,completion,,,,,false,,,,554386.6999988556,554386.3999996185,551845.592,551854.3999996185,551876.808,554389.865,8,400,,,
trial,html.Screen,4_112_0,2023-09-12T20:15:27.579Z,,0,3,,2624.0349996185396,response,ISIC_7053271.JPG,5,ISIC_0032360.JPG,ISIC_7053271.JPG,false,1,keypress(m),500,557014.1999988556,557013.8999996185,554370.627,554386.7999992371,554389.865,557025.109,8,400,13,,ISIC_0032360.JPG
break,html.Screen,4_112_1,2023-09-12T20:15:27.580Z,,0,,,NaN,,,,,,false,,,,557015.5999984741,557015.0999984741,,557014.5,,557025.109,8,400,,,
break_continue,html.Screen,4_112_2,2023-09-12T20:15:27.581Z,,0,,,NaN,,,,,,false,,,,557016.1999988556,557016,,557015.7999992371,,557025.109,8,400,,,
sequence,flow.Sequence,4_112,2023-09-12T20:15:27.581Z,,0,,,2626.1350000000093,completion,,,,,false,,,,557016.5,557016,554370.627,554386.6999988556,554389.865,557025.109,8,400,,,
trial,html.Screen,4_113_0,2023-09-12T20:15:30.357Z,,0,3,,2766.990998474066,response,ISIC_0005248.JPG,5,ISIC_0025832.JPG,ISIC_0025832.JPG,false,0,keypress(z),500,559792.5,559792.0999984741,557013.96,557016.6999988556,557025.109,559810.494,8,400,14,,ISIC_0005248.JPG
break,html.Screen,4_113_1,2023-09-12T20:15:30.358Z,,0,,,NaN,,,,,,false,,,,559793.5,559793.2999992371,,559792.7999992371,,559810.494,8,400,,,
break_continue,html.Screen,4_113_2,2023-09-12T20:15:30.359Z,,0,,,NaN,,,,,,false,,,,559794.2999992371,559794.0999984741,,559793.6999988556,,559810.494,8,400,,,
sequence,flow.Sequence,4_113,2023-09-12T20:15:30.359Z,,0,,,2768.990998474066,completion,,,,,false,,,,559794.5,559794.0999984741,557013.96,557016.5999984741,557025.109,559810.494,8,400,,,
trial,html.Screen,4_114_0,2023-09-12T20:15:32.953Z,,0,3,,2577.506000000052,response,ISIC_0015436.JPG,6,ISIC_0067969.JPG,ISIC_0067969.JPG,false,0,keypress(z),500,562388.2999992371,562388,559781.014,559794.5999984741,559810.494,562395.285,8,400,15,,ISIC_0015436.JPG
break,html.Screen,4_114_1,2023-09-12T20:15:32.954Z,,0,,,NaN,,,,,,false,,,,562389.1999988556,562388.8999996185,,562388.5,,562395.285,8,400,,,
break_continue,html.Screen,4_114_2,2023-09-12T20:15:32.954Z,,0,,,NaN,,,,,,false,,,,562389.8999996185,562389.6999988556,,562389.2999992371,,562395.285,8,400,,,
sequence,flow.Sequence,4_114,2023-09-12T20:15:32.955Z,,0,,,2579.205998855643,completion,,,,,false,,,,562390.0999984741,562389.6999988556,559781.014,559794.5,559810.494,562395.285,8,400,,,
trial,html.Screen,4_115_0,2023-09-12T20:15:35.700Z,,0,3,,2739.8149984740885,response,ISIC_8590883.JPG,5,ISIC_5509946.JPG,ISIC_8590883.JPG,false,1,keypress(m),500,565135.3999996185,565135.0999984741,562375.595,562390.2999992371,562395.285,565147.497,8,400,16,,ISIC_5509946.JPG
break,html.Screen,4_115_1,2023-09-12T20:15:35.701Z,,0,,,NaN,,,,,,false,,,,565136.5,565136.2999992371,,565135.6999988556,,565147.497,8,400,,,
break_continue,html.Screen,4_115_2,2023-09-12T20:15:35.702Z,,0,,,NaN,,,,,,false,,,,565137.2999992371,565137.0999984741,,565136.6999988556,,565147.497,8,400,,,
sequence,flow.Sequence,4_115,2023-09-12T20:15:35.702Z,,0,,,2741.8149984740885,completion,,,,,false,,,,565137.5,565137.0999984741,562375.595,562390.1999988556,562395.285,565147.497,8,400,,,
trial,html.Screen,4_116_0,2023-09-12T20:15:38.297Z,,0,3,,2584.3029992370866,response,ISIC_1729223.JPG,5,ISIC_0065727.JPG,ISIC_1729223.JPG,false,1,keypress(m),500,567732.0999984741,567731.7999992371,565120.079,565137.6999988556,565147.497,567749.235,8,400,17,,ISIC_0065727.JPG
break,html.Screen,4_116_1,2023-09-12T20:15:38.298Z,,0,,,NaN,,,,,,false,,,,567733,567732.7999992371,,567732.2999992371,,567749.235,8,400,,,
break_continue,html.Screen,4_116_2,2023-09-12T20:15:38.298Z,,0,,,NaN,,,,,,false,,,,567733.8999996185,567733.5999984741,,567733.1999988556,,567749.235,8,400,,,
sequence,flow.Sequence,4_116,2023-09-12T20:15:38.299Z,,0,,,2586.102998474147,completion,,,,,false,,,,567734,567733.5999984741,565120.079,565137.5999984741,565147.497,567749.235,8,400,,,
trial,html.Screen,4_117_0,2023-09-12T20:15:40.896Z,,0,3,,2582.265000000014,response,ISIC_0062471.JPG,5,ISIC_2679689.JPG,ISIC_0062471.JPG,false,1,keypress(m),500,570331.7999992371,570331.5,567719.541,567734.0999984741,567749.235,570353.27,8,400,18,,ISIC_2679689.JPG
break,html.Screen,4_117_1,2023-09-12T20:15:40.897Z,,0,,,NaN,,,,,,false,,,,570333,570332.6999988556,,570332.0999984741,,570353.27,8,400,,,
break_continue,html.Screen,4_117_2,2023-09-12T20:15:40.898Z,,0,,,NaN,,,,,,false,,,,570333.5,570333.2999992371,,570333,,570353.27,8,400,,,
sequence,flow.Sequence,4_117,2023-09-12T20:15:40.898Z,,0,,,2584.0649992370745,completion,,,,,false,,,,570333.6999988556,570333.2999992371,567719.541,567734,567749.235,570353.27,8,400,,,
trial,html.Screen,4_118_0,2023-09-12T20:15:43.417Z,,0,3,,2499.029999237042,response,ISIC_3310625.JPG,5,ISIC_0055314.JPG,ISIC_3310625.JPG,false,1,keypress(m),500,572852.6999988556,572852.2999992371,570323.411,570333.8999996185,570353.27,572869.44,8,400,19,,ISIC_0055314.JPG
break,html.Screen,4_118_1,2023-09-12T20:15:43.418Z,,0,,,NaN,,,,,,false,,,,572853.5999984741,572853.3999996185,,572853,,572869.44,8,400,,,
break_continue,html.Screen,4_118_2,2023-09-12T20:15:43.419Z,,0,,,NaN,,,,,,false,,,,572854.5,572854.2999992371,,572853.6999988556,,572869.44,8,400,,,
sequence,flow.Sequence,4_118,2023-09-12T20:15:43.419Z,,0,,,2501.029999237042,completion,,,,,false,,,,572854.5999984741,572854.2999992371,570323.411,570333.8999996185,570353.27,572869.44,8,400,,,
trial,html.Screen,4_119_0,2023-09-12T20:15:45.940Z,,0,3,,2505.3599992371164,response,ISIC_0058138.JPG,5,ISIC_9028726.JPG,ISIC_9028726.JPG,false,0,keypress(z),500,575375.1999988556,575374.7999992371,572844.275,572854.6999988556,572869.44,575387.581,8,400,20,,ISIC_0058138.JPG
break,html.Screen,4_119_1,2023-09-12T20:15:45.941Z,,0,,,NaN,,,,,,false,,,,575376,575375.7999992371,,575375.2999992371,,575387.581,8,400,,,
break_continue,html.Screen,4_119_2,2023-09-12T20:15:45.941Z,,0,,,NaN,,,,,,false,,,,575376.7999992371,575376.5999984741,,575376.3999996185,,575387.581,8,400,,,
sequence,flow.Sequence,4_119,2023-09-12T20:15:45.941Z,,0,,,2507.159998474177,completion,,,,,false,,,,575376.8999996185,575376.5999984741,572844.275,572854.6999988556,572869.44,575387.581,8,400,,,
trial,html.Screen,4_120_0,2023-09-12T20:15:48.767Z,,0,3,,2814.3189996185247,response,ISIC_0027817.JPG,5,ISIC_9182285.JPG,ISIC_9182285.JPG,false,0,keypress(z),500,578202.1999988556,578201.8999996185,575361.153,575377,575387.581,578206.229,8,400,21,,ISIC_0027817.JPG
break,html.Screen,4_120_1,2023-09-12T20:15:48.768Z,,0,,,NaN,,,,,,false,,,,578203,578202.7999992371,,578202.3999996185,,578206.229,8,400,,,
break_continue,html.Screen,4_120_2,2023-09-12T20:15:48.768Z,,0,,,NaN,,,,,,false,,,,578203.7999992371,578203.5999984741,,578203.5,,578206.229,8,400,,,
sequence,flow.Sequence,4_120,2023-09-12T20:15:48.768Z,,0,,,2816.0189984741155,completion,,,,,false,,,,578203.8999996185,578203.5999984741,575361.153,575377,575387.581,578206.229,8,400,,,
trial,html.Screen,4_121_0,2023-09-12T20:15:51.257Z,,0,3,,2485.4709988555405,response,ISIC_0024512.JPG,5,ISIC_6507640.JPG,ISIC_6507640.JPG,false,0,keypress(z),500,580692,580691.6999988556,578190.946,578204,578206.229,580708.167,8,400,22,,ISIC_0024512.JPG
break,html.Screen,4_121_1,2023-09-12T20:15:51.257Z,,0,,,NaN,,,,,,false,,,,580692.8999996185,580692.7999992371,,580692.2999992371,,580708.167,8,400,,,
break_continue,html.Screen,4_121_2,2023-09-12T20:15:51.258Z,,0,,,NaN,,,,,,false,,,,580693.6999988556,580693.5,,580693.1999988556,,580708.167,8,400,,,
sequence,flow.Sequence,4_121,2023-09-12T20:15:51.258Z,,0,,,2487.2709999999497,completion,,,,,false,,,,580693.8999996185,580693.5,578190.946,578204,578206.229,580708.167,8,400,,,
trial,html.Screen,4_122_0,2023-09-12T20:15:53.726Z,,0,3,,2453.4329984741053,response,ISIC_4391909.JPG,6,ISIC_4383671.JPG,ISIC_4391909.JPG,false,1,keypress(m),500,583161.7999992371,583161.5999984741,580683.336,580694,580708.167,583176.479,8,400,23,,ISIC_4383671.JPG
break,html.Screen,4_122_1,2023-09-12T20:15:53.727Z,,0,,,NaN,,,,,,false,,,,583162.6999988556,583162.5,,583162.1999988556,,583176.479,8,400,,,
break_continue,html.Screen,4_122_2,2023-09-12T20:15:53.728Z,,0,,,NaN,,,,,,false,,,,583163.3999996185,583163.2999992371,,583162.8999996185,,583176.479,8,400,,,
sequence,flow.Sequence,4_122,2023-09-12T20:15:53.728Z,,0,,,2455.1329992370447,completion,,,,,false,,,,583163.5999984741,583163.2999992371,580683.336,580694,580708.167,583176.479,8,400,,,
trial,html.Screen,4_123_0,2023-09-12T20:15:56.438Z,,0,3,,2697.2209988555405,response,ISIC_2454898.JPG,4,ISIC_2333274.JPG,ISIC_2454898.JPG,false,1,keypress(m),500,585874,585873.6999988556,583161.271,583163.5999984741,583176.479,585878.076,8,400,24,,ISIC_2333274.JPG
break,html.Screen,4_123_1,2023-09-12T20:15:56.440Z,,0,,,NaN,,,,,,false,,,,585875,585874.5999984741,,585874.0999984741,,585878.076,8,400,,,
break_continue,html.Screen,4_123_2,2023-09-12T20:15:56.440Z,,0,,,NaN,,,,,,false,,,,585875.3999996185,585875.2999992371,,585875.0999984741,,585878.076,8,400,,,
sequence,flow.Sequence,4_123,2023-09-12T20:15:56.440Z,,0,,,2698.8209992370103,completion,,,,,false,,,,585875.5999984741,585875.2999992371,583161.271,583163.5999984741,583176.479,585878.076,8,400,,,
trial,html.Screen,4_124_0,2023-09-12T20:15:59.088Z,,0,3,,2644.7239992370596,response,ISIC_0064427.JPG,5,ISIC_1568268.JPG,ISIC_1568268.JPG,false,0,keypress(z),500,588523,588522.7999992371,585867.828,585875.5999984741,585878.076,588529.953,8,400,25,,ISIC_0064427.JPG
break,html.Screen,4_124_1,2023-09-12T20:15:59.088Z,,0,,,NaN,,,,,,false,,,,588523.7999992371,588523.5,,588523.1999988556,,588529.953,8,400,,,
break_continue,html.Screen,4_124_2,2023-09-12T20:15:59.089Z,,0,,,NaN,,,,,,false,,,,588524.3999996185,588524.1999988556,,588523.8999996185,,588529.953,8,400,,,
sequence,flow.Sequence,4_124,2023-09-12T20:15:59.089Z,,0,,,2646.12399885559,completion,,,,,false,,,,588524.5,588524.1999988556,585867.828,585875.5999984741,585878.076,588529.953,8,400,,,
trial,html.Screen,4_125_0,2023-09-12T20:16:01.907Z,,0,3,,2812.7469988556113,response,ISIC_9334956.JPG,5,ISIC_0010543.JPG,ISIC_9334956.JPG,false,1,keypress(m),500,591342.8999996185,591342.6999988556,588515.044,588524.5,588529.953,591348.588,8,400,26,,ISIC_0010543.JPG
break,html.Screen,4_125_1,2023-09-12T20:16:01.908Z,,0,,,NaN,,,,,,false,,,,591343.7999992371,591343.5999984741,,591343.1999988556,,591348.588,8,400,,,
break_continue,html.Screen,4_125_2,2023-09-12T20:16:01.909Z,,0,,,NaN,,,,,,false,,,,591344.3999996185,591344.0999984741,,591344,,591348.588,8,400,,,
sequence,flow.Sequence,4_125,2023-09-12T20:16:01.909Z,,0,,,2814.1469984741416,completion,,,,,false,,,,591344.5999984741,591344.0999984741,588515.044,588524.5,588529.953,591348.588,8,400,,,
